LabVIEW Measurement	
Writer_Version	2
Reader_Version	2
Separator	Tab
Decimal_Separator	.
Multi_Headings	No
X_Columns	One
Time_Pref	Absolute
Operator	admin
Description	Clolumns are: time, Current, Voltage, Power, Battery Temp, and Chamber Temp
Date	2024/08/16
Time	13:06:06.104549407958984375
***End_of_Header***	
	
Channels	6						
Samples	1	1	1	1	1	1	
Date	2024/09/10	2024/09/10	2024/09/10	2024/09/10	2024/09/10	2024/09/10	
Time	02:49:00.8231134414672851562	02:49:00.8296713829040527344	02:49:00.8356728553771972656	02:49:00.8055958747863769531	02:49:00.8055958747863769531	02:49:00.8055958747863769531	
X_Dimension	Time	Time	Time	Time	Time	Time	
X0	0.0000000000000000E+0	0.0000000000000000E+0	0.0000000000000000E+0	0.0000000000000000E+0	0.0000000000000000E+0	0.0000000000000000E+0	
Delta_X	1.000000	1.000000	1.000000	1.000000	1.000000	1.000000	
***End_of_Header***							
X_Value	Untitled	Untitled 1	Untitled 2	Untitled 3	Untitled 4	Untitled 5	Comment
0.000000	-0.000772	4.095200	-0.003162	20.983053	0.000894	20.716591
1.006606	-2.999000	3.922300	-11.762000	20.978810	0.000894	20.717563
2.004659	-3.006900	3.915000	-11.771000	20.994929	0.000896	20.708554
3.003224	-3.003400	3.910200	-11.742000	20.987756	0.000894	20.722244
4.001698	-3.019400	3.905500	-11.791000	20.975406	0.000891	20.737393
5.000847	-2.972500	3.903400	-11.602000	20.994637	0.000892	20.735764
6.008226	-2.988500	3.900800	-11.657000	20.973315	0.000892	20.709696
7.004973	-3.011800	3.897100	-11.735000	20.976050	0.000889	20.731399
8.001122	-2.996300	3.894700	-11.669000	20.981314	0.000890	20.712481
9.003963	-3.018700	3.891500	-11.746000	20.995561	0.000889	20.703495
10.011499	-2.985800	3.892000	-11.620000	21.000556	0.000889	20.718450
11.000904	-2.994700	3.890500	-11.650000	21.000545	0.000888	20.714171
12.008815	-2.986900	3.888400	-11.614000	20.997213	0.000887	20.719848
13.007352	-3.000600	3.886900	-11.662000	21.000909	0.000886	20.721174
14.005720	-2.998200	3.884700	-11.645000	20.980814	0.000885	20.692539
15.008339	-3.007700	3.883100	-11.678000	21.016103	0.000885	20.702230
16.009622	-2.999100	3.882200	-11.643000	21.009429	0.000882	20.712625
17.008178	-2.994800	3.883800	-11.630000	21.005296	0.000883	20.702801
18.008311	-3.002600	3.879700	-11.648000	21.005624	0.000886	20.713087
19.006479	-3.000700	3.878300	-11.636000	21.028501	0.000884	20.712260
20.008155	-2.974300	3.879500	-11.537000	21.045602	0.000883	20.718461
21.011471	-3.009900	3.877400	-11.669000	21.040206	0.000880	20.682714
22.007925	-2.987400	3.878200	-11.585000	21.050052	0.000880	20.693037
23.006876	-3.008000	3.874600	-11.653000	21.059131	0.000881	20.713025
24.010999	-2.999000	3.875600	-11.622000	21.053868	0.000881	20.711554
25.012939	-2.995600	3.874600	-11.606000	21.048422	0.000878	20.717488
26.010294	-3.001100	3.873900	-11.624000	21.071711	0.000879	20.715651
27.011755	-2.993700	3.873600	-11.595000	21.081739	0.000878	20.677789
28.010443	-2.981500	3.871800	-11.542000	21.076378	0.000878	20.711311
29.008196	-3.017600	3.871100	-11.679000	21.091207	0.000879	20.698641
30.014586	-2.999200	3.871700	-11.610000	21.111967	0.000879	20.709450
31.010032	-3.009100	3.869400	-11.643000	21.118749	0.000877	20.685886
32.009985	-3.004700	3.870400	-11.628000	21.120329	0.000877	20.696002
33.010119	-3.008800	3.868800	-11.639000	21.118019	0.000877	20.686578
34.012545	-2.987700	3.870200	-11.561000	21.118700	0.000875	20.706228
35.011746	-2.995700	3.868300	-11.585000	21.136955	0.000877	20.724015
36.013027	-3.019400	3.868200	-11.678000	21.135338	0.000877	20.694895
37.012334	-3.012700	3.866000	-11.645000	21.126757	0.000876	20.704804
38.008454	-3.000900	3.867200	-11.604000	21.163037	0.000876	20.678978
39.013280	-3.003100	3.866000	-11.609000	21.164094	0.000873	20.686200
40.007435	-2.979300	3.865800	-11.516000	21.159707	0.000876	20.690821
41.011230	-2.995400	3.865800	-11.579000	21.164349	0.000874	20.698784
42.012138	-3.003600	3.864300	-11.605000	21.172151	0.000874	20.686673
43.013712	-3.002200	3.865300	-11.603000	21.170219	0.000875	20.690431
44.010681	-3.000500	3.863700	-11.592000	21.179613	0.000873	20.694139
45.014114	-3.017500	3.862200	-11.654000	21.199740	0.000875	20.678235
46.014807	-2.987900	3.865100	-11.546000	21.188267	0.000873	20.682880
47.012954	-2.983400	3.864100	-11.528000	21.206789	0.000873	20.680070
48.014845	-3.001200	3.861800	-11.589000	21.204054	0.000875	20.686818
49.013177	-3.005200	3.862100	-11.605000	21.226720	0.000872	20.684837
50.012399	-2.992100	3.862400	-11.555000	21.228361	0.000872	20.682211
51.012877	-2.995200	3.861400	-11.565000	21.241024	0.000873	20.689663
52.014813	-2.980500	3.861900	-11.510000	21.241984	0.000873	20.667862
53.012829	-2.976100	3.862000	-11.492000	21.249616	0.000873	20.700156
54.015642	-2.988700	3.860500	-11.537000	21.244196	0.000874	20.670075
55.014426	-2.991600	3.861700	-11.552000	21.253796	0.000870	20.697699
56.015121	-2.999100	3.859500	-11.574000	21.271235	0.000872	20.682428
57.014711	-3.012500	3.857000	-11.618000	21.278672	0.000874	20.682282
58.010415	-2.996300	3.860600	-11.566000	21.287677	0.000872	20.685127
59.014701	-2.998600	3.858800	-11.570000	21.294506	0.000872	20.678207
60.017095	-3.004200	3.859000	-11.591000	21.298505	0.000873	20.687425
61.012287	-3.003900	3.858500	-11.588000	21.304545	0.000871	20.694416
62.013735	-3.013000	3.857300	-11.621000	21.306647	0.000874	20.702684
63.018085	-2.997100	3.857300	-11.559000	21.315482	0.000873	20.685916
64.015070	-2.997800	3.857500	-11.563000	21.317280	0.000871	20.671593
65.015109	-3.007400	3.857100	-11.597000	21.326163	0.000871	20.698026
66.018266	-2.983400	3.857400	-11.507000	21.329505	0.000872	20.673867
67.011535	-2.998800	3.857300	-11.566000	21.345522	0.000873	20.659069
68.014213	-2.987800	3.856500	-11.521000	21.344476	0.000873	20.689320
69.016521	-3.011500	3.856000	-11.611000	21.361088	0.000873	20.678438
70.018095	-2.997300	3.855800	-11.555000	21.372170	0.000873	20.666291
71.017824	-3.016500	3.854400	-11.625000	21.375184	0.000872	20.682584
72.021718	-2.991300	3.854600	-11.528000	21.394225	0.000872	20.675556
73.022451	-2.985000	3.855300	-11.507000	21.395562	0.000872	20.661245
74.018179	-2.994500	3.854700	-11.541000	21.394991	0.000872	20.663993
75.016448	-2.983700	3.855100	-11.501000	21.418808	0.000873	20.673125
76.014444	-2.998600	3.853400	-11.554000	21.412805	0.000873	20.691302
77.014867	-2.988000	3.852000	-11.507000	21.446245	0.000873	20.670231
78.016495	-2.991200	3.853500	-11.525000	21.433900	0.000873	20.687277
79.015556	-2.998800	3.852100	-11.549000	21.433304	0.000874	20.698062
80.017990	-3.020300	3.851800	-11.632000	21.443304	0.000874	20.670607
81.020142	-3.003300	3.852400	-11.569000	21.443803	0.000874	20.688177
82.022095	-3.022900	3.850500	-11.639000	21.452308	0.000873	20.687679
83.018967	-3.010300	3.850900	-11.591000	21.455687	0.000872	20.672566
84.019920	-3.004600	3.851700	-11.572000	21.460316	0.000874	20.662497
85.018335	-3.005700	3.852000	-11.576000	21.457862	0.000872	20.680907
86.016421	-3.035200	3.850400	-11.685000	21.480340	0.000874	20.681587
87.021340	-3.043000	3.848200	-11.708000	21.501981	0.000873	20.667678
88.031618	-3.004600	3.850400	-11.568000	21.504520	0.000873	20.665477
89.022301	-2.974600	3.849700	-11.449000	21.500437	0.000876	20.664711
90.021929	-3.013100	3.849500	-11.596000	21.509999	0.000874	20.695618
91.019664	-2.991400	3.850400	-11.517000	21.513232	0.000875	20.683679
92.020740	-3.011900	3.849900	-11.595000	21.542039	0.000873	20.665087
93.025045	-3.009200	3.849300	-11.581000	21.532538	0.000875	20.685454
94.016729	-2.990300	3.849200	-11.509000	21.521360	0.000874	20.684700
95.019996	-2.992900	3.849500	-11.521000	21.563010	0.000875	20.673271
96.024436	-2.988700	3.851400	-11.509000	21.559292	0.000873	20.678560
97.031947	-3.002700	3.848200	-11.554000	21.543351	0.000875	20.682049
98.024078	-3.001300	3.847800	-11.547000	21.544639	0.000875	20.664370
99.021421	-3.013600	3.847900	-11.595000	21.545890	0.000876	20.677477
100.022666	-2.992400	3.847900	-11.513000	21.572134	0.000874	20.689040
101.019320	-3.007000	3.848100	-11.570000	21.563155	0.000874	20.683374
102.022028	-2.997500	3.846600	-11.530000	21.582242	0.000875	20.701527
103.019395	-2.974400	3.848100	-11.445000	21.589677	0.000878	20.697587
104.020716	-3.005600	3.845800	-11.558000	21.618762	0.000875	20.692079
105.026673	-2.986800	3.847700	-11.491000	21.599117	0.000876	20.674788
106.021225	-3.021400	3.845700	-11.617000	21.609674	0.000876	20.669706
107.022705	-3.010200	3.845700	-11.575000	21.616805	0.000876	20.688698
108.028782	-3.002300	3.845300	-11.543000	21.621726	0.000877	20.679396
109.027727	-3.006200	3.844300	-11.555000	21.647153	0.000877	20.695834
110.028473	-2.998700	3.845100	-11.529000	21.657333	0.000879	20.678520
111.045622	-2.998800	3.843900	-11.527000	21.666080	0.000880	20.693913
112.031677	-3.001700	3.844100	-11.537000	21.652182	0.000879	20.699445
113.028250	-2.992100	3.844200	-11.501000	21.657393	0.000878	20.689012
114.026096	-2.967200	3.845600	-11.409000	21.670501	0.000878	20.694544
115.028530	-3.007000	3.842800	-11.554000	21.683767	0.000878	20.667989
116.027171	-3.025400	3.841700	-11.621000	21.692878	0.000881	20.680901
117.026793	-3.006400	3.842200	-11.550000	21.675324	0.000881	20.699371
118.030006	-3.025700	3.843800	-11.629000	21.705014	0.000880	20.684512
119.028854	-3.011200	3.843300	-11.572000	21.692027	0.000881	20.662029
120.028748	-3.042100	3.841500	-11.685000	21.715789	0.000880	20.692451
121.024692	-3.013500	3.842500	-11.579000	21.739307	0.000883	20.679478
122.027657	-3.012100	3.841200	-11.569000	21.757711	0.000881	20.691260
123.022912	-3.020900	3.840300	-11.600000	21.764574	0.000881	20.707139
124.033071	-3.015600	3.841400	-11.583000	21.753568	0.000882	20.706555
125.027979	-3.019200	3.841100	-11.596000	21.779758	0.000880	20.676339
126.024648	-3.025000	3.839800	-11.614000	21.769687	0.000882	20.683805
127.027006	-3.015600	3.840500	-11.581000	21.794601	0.000881	20.692146
128.023723	-3.012600	3.840900	-11.570000	21.797590	0.000882	20.679014
129.026002	-2.992900	3.839400	-11.490000	21.804282	0.000884	20.689507
130.028660	-3.000500	3.839700	-11.520000	21.793192	0.000883	20.677457
131.028556	-2.991600	3.839900	-11.486000	21.803006	0.000883	20.683487
132.024910	-2.999000	3.838300	-11.510000	21.820899	0.000885	20.681956
133.030270	-2.989800	3.842500	-11.487000	21.821360	0.000882	20.686211
134.030814	-3.006100	3.839800	-11.542000	21.828199	0.000885	20.689737
135.029229	-3.006400	3.839000	-11.541000	21.846358	0.000886	20.694162
136.031819	-3.003900	3.840900	-11.536000	21.850913	0.000886	20.687816
137.031498	-3.009600	3.839000	-11.552000	21.844536	0.000887	20.693761
138.031960	-2.999400	3.839300	-11.514000	21.869619	0.000885	20.702272
139.028013	-2.985400	3.839500	-11.460000	21.848265	0.000885	20.706503
140.031723	-2.986800	3.839100	-11.466000	21.841839	0.000886	20.689638
141.032871	-3.012000	3.838000	-11.559000	21.854472	0.000886	20.697542
142.031187	-2.980800	3.839100	-11.442000	21.869848	0.000886	20.714357
143.031185	-3.012900	3.837200	-11.560000	21.896898	0.000887	20.706819
144.041956	-2.992600	3.836900	-11.481000	21.879311	0.000885	20.700119
145.036148	-2.992500	3.836600	-11.480000	21.867626	0.000887	20.708338
146.035040	-3.006000	3.836600	-11.531000	21.856609	0.000888	20.693517
147.030769	-2.998500	3.836000	-11.501000	21.869034	0.000889	20.705481
148.031659	-3.001000	3.836400	-11.511000	21.885614	0.000888	20.699316
149.035360	-3.025700	3.834400	-11.599000	21.888833	0.000890	20.696848
150.034360	-2.976400	3.837200	-11.420000	21.894420	0.000890	20.716192
151.036010	-3.000800	3.837000	-11.511000	21.916514	0.000890	20.698477
152.033840	-3.019800	3.836000	-11.581000	21.895452	0.000892	20.693042
153.036165	-3.016700	3.834200	-11.565000	21.926400	0.000893	20.694148
154.033824	-3.009400	3.834500	-11.539000	21.924020	0.000892	20.702672
155.039347	-3.003800	3.835100	-11.519000	21.953607	0.000893	20.707633
156.036311	-2.972800	3.836100	-11.403000	21.937513	0.000892	20.712860
157.037680	-2.967300	3.834600	-11.378000	21.970113	0.000895	20.707560
158.037450	-2.995400	3.834900	-11.487000	21.983715	0.000893	20.712167
159.033477	-3.000300	3.832800	-11.498000	22.012559	0.000896	20.712593
160.037349	-2.974200	3.835000	-11.405000	22.005588	0.000893	20.693758
161.036199	-2.995800	3.833600	-11.483000	22.014065	0.000897	20.702719
162.032300	-3.007200	3.833400	-11.526000	22.014016	0.000894	20.709784
163.034181	-3.004500	3.832200	-11.512000	22.033132	0.000893	20.703790
164.040843	-2.991900	3.832100	-11.464000	22.044330	0.000895	20.700300
165.036246	-2.989000	3.833300	-11.457000	22.036570	0.000896	20.711024
166.046157	-2.985900	3.832300	-11.441000	22.046795	0.000896	20.703242
167.039122	-3.009800	3.831900	-11.532000	22.040638	0.000898	20.698975
168.032830	-3.001100	3.832200	-11.499000	22.068036	0.000896	20.709334
169.037555	-3.017600	3.830400	-11.557000	22.083265	0.000899	20.702768
170.036796	-3.011900	3.831100	-11.537000	22.086592	0.000898	20.710841
171.036834	-3.004400	3.832500	-11.514000	22.092627	0.000896	20.712616
172.033895	-3.018000	3.830200	-11.559000	22.096841	0.000900	20.723474
173.041423	-3.005500	3.830600	-11.511000	22.102950	0.000898	20.706354
174.033749	-3.007500	3.831000	-11.521000	22.109107	0.000899	20.707303
175.039363	-2.998300	3.830700	-11.485000	22.139575	0.000901	20.709831
176.040191	-3.004200	3.830300	-11.505000	22.132593	0.000901	20.718488
177.039726	-2.994400	3.830200	-11.468000	22.151864	0.000901	20.705539
178.042358	-3.012100	3.829200	-11.533000	22.146666	0.000902	20.703180
179.035575	-2.982200	3.829000	-11.418000	22.163085	0.000901	20.714877
180.037938	-3.001000	3.830900	-11.496000	22.158725	0.000901	20.725686
181.041051	-3.009700	3.829200	-11.524000	22.164894	0.000901	20.725224
182.035622	-2.994400	3.829100	-11.464000	22.191001	0.000904	20.703946
183.034471	-3.001600	3.828500	-11.491000	22.195676	0.000904	20.706256
184.040769	-3.004900	3.829200	-11.506000	22.201371	0.000905	20.713381
185.040220	-3.016200	3.828300	-11.545000	22.221079	0.000905	20.714621
186.036421	-2.969800	3.828700	-11.369000	22.233585	0.000903	20.715289
187.041680	-2.984900	3.829100	-11.428000	22.229190	0.000904	20.725588
188.036413	-3.018800	3.826200	-11.549000	22.220824	0.000906	20.714839
189.039955	-2.977500	3.828500	-11.398000	22.217654	0.000908	20.704079
190.043830	-3.011500	3.826500	-11.522000	22.252674	0.000908	20.697890
191.046201	-2.997800	3.827400	-11.473000	22.252868	0.000906	20.721320
192.038109	-2.999200	3.827200	-11.477000	22.253342	0.000906	20.737917
193.040871	-3.005800	3.826300	-11.500000	22.258647	0.000908	20.710985
194.044075	-2.995800	3.826300	-11.462000	22.259545	0.000909	20.713307
195.043862	-2.998800	3.825300	-11.470000	22.249164	0.000908	20.707654
196.044775	-3.022800	3.825100	-11.562000	22.274360	0.000910	20.736676
197.038967	-2.991800	3.826700	-11.448000	22.279786	0.000909	20.715556
198.042862	-3.006000	3.825100	-11.497000	22.280309	0.000911	20.735520
199.045090	-2.992100	3.824500	-11.443000	22.292948	0.000911	20.724468
200.044183	-2.981800	3.825100	-11.404000	22.302601	0.000911	20.716589
201.047561	-2.995400	3.824600	-11.453000	22.289852	0.000911	20.732748
202.047206	-2.998500	3.825000	-11.468000	22.315120	0.000912	20.728651
203.043766	-3.003000	3.824700	-11.484000	22.333647	0.000913	20.739144
204.041179	-2.990800	3.824300	-11.436000	22.346092	0.000912	20.735958
205.048154	-2.990000	3.824500	-11.433000	22.343591	0.000914	20.731082
206.046404	-3.013900	3.823900	-11.522000	22.344623	0.000914	20.720261
207.044359	-2.992800	3.823300	-11.442000	22.351252	0.000915	20.728322
208.044477	-3.003400	3.823200	-11.482000	22.357590	0.000913	20.723289
209.050098	-2.992800	3.824500	-11.445000	22.385782	0.000916	20.737770
210.047780	-3.014400	3.822300	-11.521000	22.349844	0.000917	20.736870
211.046556	-3.003400	3.822900	-11.481000	22.369294	0.000916	20.735484
212.044932	-3.000200	3.821400	-11.463000	22.365931	0.000918	20.711252
213.047767	-3.004300	3.823000	-11.484000	22.378145	0.000919	20.731070
214.045391	-2.975000	3.822100	-11.370000	22.417141	0.000920	20.743569
215.048503	-3.010700	3.822800	-11.509000	22.429209	0.000918	20.723410
216.047688	-3.010300	3.820600	-11.500000	22.446048	0.000918	20.730790
217.048579	-2.980900	3.821700	-11.391000	22.430775	0.000919	20.730669
218.048982	-3.009500	3.820900	-11.498000	22.455566	0.000920	20.734633
219.047232	-3.014200	3.820300	-11.515000	22.460361	0.000920	20.734219
220.048000	-2.997100	3.820100	-11.448000	22.476106	0.000921	20.735763
221.047723	-2.995200	3.819700	-11.440000	22.461951	0.000919	20.743873
222.050334	-3.010000	3.819500	-11.496000	22.495299	0.000920	20.740760
223.048638	-3.027800	3.817500	-11.557000	22.458685	0.000922	20.736809
224.047303	-2.981300	3.820000	-11.387000	22.466079	0.000923	20.745162
225.055660	-2.976000	3.819400	-11.364000	22.499367	0.000924	20.736773
226.048959	-2.988100	3.818700	-11.410000	22.487190	0.000923	20.730268
227.051977	-3.013800	3.817700	-11.505000	22.507573	0.000925	20.759691
228.061685	-3.001400	3.817900	-11.456000	22.515221	0.000925	20.731787
229.054074	-3.008600	3.817500	-11.483000	22.523440	0.000926	20.758037
230.049821	-2.990700	3.819200	-11.420000	22.533273	0.000924	20.751764
231.063715	-2.997100	3.817900	-11.441000	22.546359	0.000925	20.727411
232.057250	-2.980700	3.818200	-11.380000	22.548629	0.000927	20.749126
233.056189	-2.981600	3.818400	-11.384000	22.554589	0.000929	20.750353
234.049989	-3.003400	3.818100	-11.467000	22.556276	0.000926	20.753940
235.051988	-2.976100	3.817400	-11.360000	22.552611	0.000927	20.715653
236.050450	-3.027300	3.815000	-11.548000	22.559809	0.000929	20.751314
237.051772	-2.987700	3.816000	-11.400000	22.564398	0.000928	20.745952
238.052432	-2.990700	3.816700	-11.413000	22.574303	0.000929	20.738329
239.050503	-2.981300	3.815700	-11.375000	22.586940	0.000930	20.747193
240.051189	-2.984800	3.816300	-11.389000	22.574376	0.000931	20.752628
241.052274	-2.991500	3.815800	-11.414000	22.590533	0.000930	20.744153
242.053447	-3.003400	3.815400	-11.458000	22.564762	0.000930	20.747740
243.052040	-3.002500	3.815400	-11.455000	22.589550	0.000931	20.753126
244.053552	-3.002400	3.815000	-11.453000	22.599018	0.000933	20.767351
245.053590	-3.003500	3.813500	-11.452000	22.595061	0.000933	20.772397
246.052950	-3.012900	3.814000	-11.490000	22.605075	0.000933	20.763935
247.054979	-3.025800	3.812800	-11.536000	22.614968	0.000933	20.761989
248.057823	-2.992800	3.814700	-11.415000	22.646831	0.000935	20.764980
249.053796	-2.978100	3.814900	-11.360000	22.633528	0.000934	20.763983
250.054683	-3.004000	3.814500	-11.457000	22.655376	0.000937	20.754573
251.054279	-3.000600	3.813600	-11.442000	22.666143	0.000935	20.753503
252.054851	-2.985300	3.813100	-11.383000	22.670075	0.000937	20.749381
253.057878	-2.999900	3.812400	-11.435000	22.685296	0.000938	20.764154
254.054042	-2.997000	3.813500	-11.428000	22.683792	0.000938	20.756956
255.056350	-3.005900	3.811900	-11.457000	22.695213	0.000939	20.770294
256.064040	-3.015100	3.811000	-11.489000	22.692700	0.000939	20.788166
257.056036	-2.989100	3.813100	-11.396000	22.687311	0.000938	20.753844
258.056159	-2.988500	3.812500	-11.392000	22.675064	0.000940	20.774293
259.055583	-3.010600	3.811100	-11.473000	22.679227	0.000939	20.752858
260.057221	-2.997200	3.810600	-11.420000	22.678123	0.000939	20.756494
261.055765	-3.001800	3.809200	-11.433000	22.669140	0.000941	20.783059
262.058878	-2.984000	3.809500	-11.367000	22.691474	0.000941	20.776506
263.057407	-2.994500	3.809900	-11.408000	22.694654	0.000941	20.788700
264.056658	-2.993600	3.809900	-11.404000	22.702714	0.000943	20.777807
265.055667	-2.979900	3.809500	-11.349000	22.728444	0.000943	20.777977
266.056731	-2.989200	3.810200	-11.387000	22.759054	0.000945	20.760275
267.058007	-2.971200	3.809600	-11.318000	22.755656	0.000944	20.758767
268.062957	-2.997400	3.808600	-11.414000	22.752864	0.000945	20.764505
269.057415	-3.010300	3.809000	-11.465000	22.752609	0.000946	20.781794
270.059856	-2.995300	3.808800	-11.408000	22.758872	0.000946	20.763411
271.059864	-3.008900	3.807300	-11.455000	22.733238	0.000946	20.776615
272.064476	-3.039300	3.806400	-11.568000	22.728808	0.000947	20.769332
273.063843	-2.986500	3.808300	-11.373000	22.741613	0.000946	20.764615
274.062385	-2.988700	3.807900	-11.379000	22.762719	0.000949	20.786705
275.058995	-2.997100	3.807800	-11.409000	22.740763	0.000946	20.759970
276.060410	-2.983100	3.806000	-11.352000	22.741382	0.000948	20.785721
277.063705	-2.998300	3.806800	-11.413000	22.736224	0.000949	20.778657
278.064588	-2.990900	3.806200	-11.383000	22.755121	0.000949	20.779095
279.065238	-3.005800	3.806000	-11.438000	22.763338	0.000950	20.784955
280.061512	-2.971700	3.807400	-11.313000	22.760522	0.000950	20.780238
281.065819	-3.006500	3.806300	-11.443000	22.795803	0.000949	20.779544
282.062379	-2.995200	3.806500	-11.400000	22.820986	0.000951	20.784858
283.065978	-3.004400	3.805600	-11.432000	22.833717	0.000952	20.779593
284.062112	-2.991500	3.804900	-11.381000	22.845174	0.000952	20.768311
285.062634	-2.981900	3.805000	-11.344000	22.853026	0.000951	20.779496
286.063793	-3.003100	3.804100	-11.424000	22.860392	0.000954	20.802523
287.068360	-3.025800	3.803500	-11.507000	22.882334	0.000953	20.778511
288.065334	-3.008700	3.803500	-11.441000	22.883559	0.000954	20.787326
289.065871	-3.007300	3.803200	-11.437000	22.886763	0.000954	20.789587
290.067579	-2.992500	3.803400	-11.381000	22.904772	0.000954	20.794353
291.067191	-2.999700	3.804100	-11.410000	22.912102	0.000956	20.798851
292.071733	-2.982700	3.803000	-11.342000	22.930960	0.000956	20.776019
293.072880	-3.022700	3.801900	-11.491000	22.938921	0.000955	20.785417
294.073151	-2.997000	3.802400	-11.395000	22.968602	0.000955	20.795714
295.067389	-2.998100	3.802000	-11.398000	22.950412	0.000956	20.801672
296.072075	-2.987000	3.802000	-11.356000	22.923861	0.000958	20.808736
297.074472	-3.007300	3.801600	-11.431000	22.943811	0.000958	20.809283
298.071758	-3.018200	3.801100	-11.472000	22.938192	0.000957	20.794644
299.075276	-3.033300	3.800400	-11.526000	22.945255	0.000960	20.801246
300.074228	-3.003500	3.800200	-11.413000	22.931421	0.000959	20.799714
301.076313	-2.995600	3.800100	-11.383000	22.945352	0.000960	20.797551
302.078609	-2.998000	3.800500	-11.393000	22.955570	0.000961	20.815848
303.080679	-2.962300	3.802500	-11.262000	22.958809	0.000961	20.802024
304.070713	-3.013300	3.799400	-11.447000	22.962134	0.000962	20.833330
305.078468	-2.973400	3.800800	-11.300000	22.946262	0.000962	20.801307
306.077531	-2.991400	3.798900	-11.363000	22.925341	0.000964	20.811641
307.071714	-3.009500	3.798600	-11.431000	22.939818	0.000962	20.784419
308.078846	-2.982600	3.799900	-11.333000	22.964634	0.000962	20.797429
309.085078	-3.004400	3.798800	-11.411000	22.975288	0.000962	20.798620
310.077077	-2.984700	3.798600	-11.335000	22.958578	0.000965	20.808431
311.080191	-3.001700	3.798300	-11.400000	22.987750	0.000962	20.801623
312.081522	-3.008500	3.797100	-11.422000	22.987325	0.000965	20.811154
313.073992	-2.968200	3.799300	-11.277000	22.996790	0.000964	20.825853
314.077145	-2.992600	3.798300	-11.366000	22.996328	0.000967	20.812114
315.084208	-3.007600	3.796100	-11.416000	23.009749	0.000967	20.817974
316.077907	-3.018000	3.795800	-11.455000	23.022732	0.000967	20.816758
317.085829	-3.014500	3.794600	-11.437000	23.000867	0.000966	20.802437
318.098397	-2.986300	3.797000	-11.339000	23.023593	0.000966	20.801500
319.079372	-2.996200	3.796700	-11.374000	23.034344	0.000967	20.813220
320.083954	-3.013400	3.795300	-11.434000	23.048286	0.000967	20.810120
321.085020	-3.013400	3.795200	-11.434000	23.032366	0.000968	20.811712
322.081891	-3.009000	3.794800	-11.417000	23.043699	0.000968	20.803627
323.083670	-3.016500	3.795100	-11.446000	23.043662	0.000968	20.811177
324.081755	-2.995000	3.795800	-11.367000	23.051610	0.000968	20.809657
325.082935	-2.988600	3.794600	-11.340000	23.066158	0.000969	20.822812
326.084239	-3.009000	3.794800	-11.418000	23.081168	0.000971	20.821730
327.081831	-2.998600	3.793700	-11.375000	23.086130	0.000971	20.823383
328.083213	-3.021400	3.792900	-11.459000	23.078862	0.000972	20.821790
329.084912	-3.003600	3.793500	-11.392000	23.084492	0.000972	20.803250
330.086315	-3.003300	3.792700	-11.389000	23.084710	0.000974	20.816745
331.087939	-3.009000	3.794100	-11.415000	23.098809	0.000973	20.814277
332.087487	-3.010000	3.791600	-11.411000	23.101709	0.000975	20.813863
333.091144	-2.995300	3.792500	-11.359000	23.100168	0.000974	20.819431
334.084989	-2.993600	3.792000	-11.351000	23.130051	0.000974	20.819030
335.089994	-2.996300	3.792000	-11.361000	23.148348	0.000976	20.819821
336.083345	-3.011500	3.790600	-11.414000	23.151417	0.000974	20.816258
337.084915	-3.012400	3.791000	-11.417000	23.157168	0.000976	20.791201
338.084735	-3.007300	3.789900	-11.396000	23.177587	0.000976	20.808818
339.085730	-3.024200	3.789500	-11.458000	23.199813	0.000976	20.832513
340.084096	-3.002700	3.789800	-11.378000	23.193493	0.000977	20.792989
341.087204	-3.001100	3.790700	-11.375000	23.179286	0.000976	20.773536
342.088177	-2.996800	3.790000	-11.356000	23.187378	0.000978	20.800612
343.087312	-2.990800	3.790500	-11.335000	23.150422	0.000979	20.805779
344.087408	-2.990300	3.789900	-11.330000	23.169652	0.000977	20.805608
345.084893	-2.993500	3.789400	-11.343000	23.185813	0.000977	20.800940
346.089463	-2.983700	3.789500	-11.304000	23.193638	0.000981	20.791712
347.087394	-2.986300	3.790100	-11.317000	23.212855	0.000980	20.808599
348.094166	-2.994800	3.788800	-11.346000	23.227195	0.000978	20.802581
349.087059	-2.984800	3.790200	-11.311000	23.235955	0.000980	20.797609
350.092851	-2.995400	3.787700	-11.345000	23.237083	0.000980	20.797791
351.091911	-3.001400	3.788500	-11.370000	23.238624	0.000980	20.790326
352.090712	-3.002100	3.785900	-11.365000	23.231066	0.000983	20.804089
353.090355	-2.997200	3.788500	-11.354000	23.224223	0.000982	20.801973
354.089682	-2.999700	3.787000	-11.359000	23.220026	0.000982	20.786388
355.093045	-2.994200	3.786800	-11.337000	23.207906	0.000983	20.795105
356.092826	-2.994200	3.786100	-11.335000	23.213062	0.000983	20.815444
357.093159	-3.018200	3.785900	-11.424000	23.225631	0.000984	20.799117
358.089776	-3.010300	3.785600	-11.396000	23.213232	0.000984	20.782424
359.096942	-2.992500	3.786000	-11.328000	23.198904	0.000984	20.784661
360.098191	-3.008700	3.785900	-11.390000	23.181519	0.000986	20.788102
361.099505	-2.983100	3.785600	-11.292000	23.203187	0.000984	20.798910
362.101002	-3.000600	3.785200	-11.357000	23.225765	0.000984	20.795932
363.092931	-2.999300	3.785100	-11.352000	23.246316	0.000986	20.773379
364.094071	-3.002400	3.784100	-11.361000	23.227888	0.000987	20.790947
365.095996	-3.000500	3.783500	-11.352000	23.230884	0.000985	20.774983
366.096843	-3.003800	3.782000	-11.359000	23.244096	0.000987	20.780163
367.100984	-3.014800	3.782500	-11.403000	23.238697	0.000987	20.794193
368.097006	-2.992000	3.783400	-11.318000	23.264610	0.000987	20.783652
369.098181	-3.019900	3.783200	-11.424000	23.274073	0.000986	20.776066
370.098691	-2.995100	3.783000	-11.329000	23.285488	0.000988	20.800308
371.099298	-3.005400	3.781800	-11.364000	23.293082	0.000988	20.791798
372.097694	-3.009100	3.780600	-11.375000	23.299633	0.000989	20.779397
373.095996	-2.993500	3.781700	-11.320000	23.312795	0.000990	20.781683
374.104752	-3.007000	3.781100	-11.369000	23.313123	0.000989	20.785330
375.099026	-2.998900	3.781500	-11.338000	23.314870	0.000990	20.781391
376.098702	-2.994100	3.781800	-11.322000	23.346822	0.000991	20.782594
377.102850	-3.003800	3.779700	-11.351000	23.320098	0.000990	20.779993
378.098016	-3.000200	3.780700	-11.342000	23.337214	0.000992	20.772491
379.099670	-3.014300	3.778800	-11.389000	23.335322	0.000990	20.764904
380.098629	-2.985300	3.780600	-11.285000	23.345487	0.000990	20.774618
381.101157	-2.999100	3.779300	-11.333000	23.344129	0.000991	20.769464
382.097250	-3.001800	3.780100	-11.346000	23.363756	0.000990	20.752625
383.103927	-2.976500	3.779500	-11.249000	23.369275	0.000990	20.779968
384.100388	-3.008600	3.778000	-11.365000	23.365442	0.000993	20.786084
385.102384	-2.993800	3.778700	-11.312000	23.359692	0.000994	20.774157
386.104312	-2.996100	3.777600	-11.317000	23.347986	0.000992	20.774753
387.101117	-3.011000	3.775700	-11.367000	23.323907	0.000992	20.767689
388.103288	-3.003800	3.776400	-11.343000	23.339349	0.000992	20.771312
389.100148	-2.996000	3.777900	-11.318000	23.360105	0.000994	20.768881
390.101323	-2.988800	3.777200	-11.288000	23.386149	0.000995	20.772698
391.099298	-2.982000	3.776400	-11.260000	23.390722	0.000995	20.757841
392.102356	-2.979500	3.777600	-11.253000	23.400498	0.000995	20.789926
393.104156	-3.006400	3.775600	-11.350000	23.387398	0.000995	20.780589
394.104347	-3.002900	3.775900	-11.337000	23.396338	0.000995	20.761099
395.104424	-2.979500	3.775600	-11.247000	23.393961	0.000994	20.781951
396.104368	-2.991800	3.775700	-11.295000	23.369299	0.000996	20.766716
397.103044	-2.991100	3.776000	-11.293000	23.393924	0.000996	20.764844
398.104098	-2.993400	3.775000	-11.299000	23.419227	0.000996	20.780723
399.106127	-2.988700	3.774100	-11.278000	23.435456	0.000997	20.778971
400.102243	-3.000900	3.772800	-11.320000	23.461109	0.000997	20.752053
401.108210	-2.987900	3.774300	-11.277000	23.448410	0.000998	20.761135
402.104157	-2.978600	3.774100	-11.240000	23.462929	0.000996	20.767628
403.103759	-3.006700	3.771900	-11.340000	23.441096	0.000997	20.769451
404.110015	-2.973600	3.773800	-11.221000	23.463232	0.000997	20.771725
405.104668	-3.015500	3.772300	-11.374000	23.443994	0.000996	20.769986
406.103116	-2.992100	3.773600	-11.290000	23.464590	0.001000	20.745110
407.106792	-3.007800	3.770900	-11.341000	23.457167	0.000999	20.767068
408.105979	-3.007300	3.770900	-11.340000	23.474948	0.000997	20.757864
409.106710	-2.999400	3.771300	-11.311000	23.477556	0.000999	20.780867
410.108687	-2.997700	3.769900	-11.300000	23.486143	0.001001	20.764344
411.110242	-3.002000	3.769800	-11.316000	23.492947	0.000999	20.757888
412.107120	-2.979400	3.769700	-11.231000	23.488423	0.001000	20.750982
413.110078	-2.984500	3.770600	-11.253000	23.461848	0.001000	20.770338
414.107821	-3.002500	3.768100	-11.313000	23.481460	0.001001	20.749693
415.124509	-3.017800	3.768200	-11.371000	23.460247	0.001000	20.751188
416.111452	-3.034200	3.766900	-11.428000	23.514257	0.001002	20.752695
417.110357	-2.993300	3.768800	-11.279000	23.499896	0.001001	20.749680
418.111707	-2.986100	3.770500	-11.258000	23.520296	0.001001	20.770130
419.114738	-2.990900	3.768900	-11.271000	23.513904	0.001003	20.755661
420.113780	-2.993200	3.767900	-11.277000	23.491029	0.001001	20.753120
421.108866	-2.992500	3.767400	-11.271000	23.516985	0.001002	20.744524
422.112310	-2.994400	3.767900	-11.281000	23.538464	0.001005	20.765108
423.111333	-2.964500	3.769000	-11.171000	23.546784	0.001000	20.774397
424.110535	-2.996300	3.767500	-11.288000	23.563800	0.001002	20.735028
425.113895	-3.007000	3.767700	-11.328000	23.579942	0.001003	20.757375
426.110119	-2.995100	3.765900	-11.278000	23.564236	0.001004	20.747794
427.121880	-3.005900	3.766700	-11.321000	23.533442	0.001004	20.743004
428.114777	-2.995800	3.766700	-11.283000	23.530616	0.001004	20.743015
429.117675	-3.004000	3.764300	-11.307000	23.493490	0.001004	20.749897
430.110644	-3.011300	3.765600	-11.338000	23.491489	0.001003	20.738881
431.113067	-3.001100	3.763900	-11.294000	23.456508	0.001005	20.744596
432.118884	-2.990400	3.764100	-11.255000	23.440606	0.001004	20.740985
433.114758	-3.006200	3.764500	-11.315000	23.428392	0.001003	20.731112
434.114272	-2.978100	3.764400	-11.210000	23.408959	0.001004	20.714004
435.119976	-3.007800	3.762300	-11.315000	23.422848	0.001005	20.753057
436.116343	-2.967500	3.764100	-11.169000	23.416589	0.001005	20.742990
437.116771	-3.010300	3.763400	-11.327000	23.434820	0.001006	20.734710
438.119518	-2.996300	3.762500	-11.272000	23.441163	0.001005	20.735379
439.114855	-3.025800	3.760500	-11.376000	23.468660	0.001005	20.756303
440.117539	-3.020300	3.760700	-11.358000	23.504659	0.001006	20.722685
441.116856	-3.015000	3.761300	-11.340000	23.502792	0.001007	20.735038
442.117925	-2.989400	3.761900	-11.244000	23.524247	0.001006	20.720982
443.114641	-3.002600	3.760400	-11.289000	23.552033	0.001007	20.725129
444.124064	-3.005900	3.760900	-11.304000	23.533234	0.001004	20.750856
445.123091	-2.992600	3.760800	-11.254000	23.525690	0.001007	20.723852
446.120743	-3.010200	3.760000	-11.316000	23.552409	0.001004	20.716496
447.124766	-2.985900	3.759600	-11.225000	23.553767	0.001008	20.730661
448.120064	-3.001900	3.759700	-11.285000	23.578848	0.001007	20.740156
449.122071	-3.012900	3.759100	-11.324000	23.566575	0.001008	20.737810
450.123906	-2.998000	3.758900	-11.268000	23.589617	0.001007	20.748581
451.121644	-3.005700	3.758700	-11.296000	23.583517	0.001007	20.733931
452.120317	-2.998800	3.759200	-11.272000	23.585458	0.001007	20.722599
453.125966	-3.017000	3.756900	-11.334000	23.586040	0.001009	20.714647
454.128295	-2.985500	3.758600	-11.220000	23.547108	0.001007	20.745323
455.122219	-3.002000	3.757600	-11.279000	23.541092	0.001009	20.729809
456.130642	-2.988000	3.757400	-11.226000	23.538024	0.001009	20.732897
457.122778	-3.000700	3.757100	-11.273000	23.527690	0.001008	20.732022
458.124017	-2.996000	3.757300	-11.256000	23.550152	0.001011	20.723243
459.124225	-3.004600	3.755300	-11.283000	23.576361	0.001011	20.732921
460.123359	-3.016400	3.755300	-11.327000	23.609482	0.001010	20.726295
461.123761	-3.020800	3.755700	-11.343000	23.596044	0.001011	20.730842
462.128284	-2.988700	3.756400	-11.226000	23.642966	0.001009	20.711972
463.121603	-3.002800	3.756300	-11.278000	23.656633	0.001011	20.726623
464.126919	-3.001300	3.754700	-11.268000	23.669755	0.001010	20.719388
465.127863	-3.013400	3.752000	-11.304000	23.687605	0.001010	20.723534
466.126446	-2.998000	3.753500	-11.252000	23.696203	0.001009	20.735000
467.122074	-2.974400	3.755700	-11.170000	23.689752	0.001010	20.745602
468.128503	-2.999800	3.753200	-11.258000	23.687484	0.001011	20.715826
469.129099	-3.008000	3.753600	-11.290000	23.660089	0.001012	20.725346
470.125105	-3.016000	3.752100	-11.314000	23.646713	0.001011	20.718099
471.130482	-3.007700	3.753000	-11.287000	23.664152	0.001011	20.726574
472.127010	-3.007200	3.751800	-11.281000	23.668215	0.001010	20.714525
473.129971	-2.981400	3.752400	-11.186000	23.652316	0.001011	20.723242
474.130318	-2.977700	3.752500	-11.173000	23.680220	0.001011	20.744106
475.128649	-2.982500	3.751400	-11.188000	23.667584	0.001010	20.739498
476.127872	-2.981800	3.751400	-11.186000	23.690576	0.001010	20.716081
477.130458	-3.003300	3.750500	-11.262000	23.686283	0.001011	20.707035
478.129225	-2.992300	3.751000	-11.223000	23.687860	0.001013	20.719048
479.131558	-2.976900	3.751000	-11.166000	23.682742	0.001010	20.701588
480.132122	-3.001600	3.750400	-11.256000	23.710246	0.001011	20.695022
481.129662	-3.020200	3.748800	-11.321000	23.709021	0.001012	20.721297
482.130131	-3.018700	3.749000	-11.315000	23.691364	0.001011	20.727303
483.127258	-3.014300	3.749000	-11.299000	23.692540	0.001011	20.718050
484.130815	-2.987200	3.749800	-11.200000	23.685907	0.001010	20.718512
485.130260	-3.018000	3.746700	-11.307000	23.689921	0.001010	20.723959
486.132211	-3.017400	3.747300	-11.306000	23.680765	0.001010	20.713831
487.130214	-2.997800	3.747400	-11.232000	23.705856	0.001011	20.711485
488.131439	-3.012100	3.748100	-11.288000	23.703418	0.001012	20.717102
489.131563	-3.004500	3.746500	-11.256000	23.713131	0.001010	20.722573
490.128022	-3.024700	3.744600	-11.325000	23.716466	0.001010	20.709320
491.130075	-2.998600	3.747100	-11.234000	23.757659	0.001010	20.693721
492.128639	-3.003400	3.747100	-11.253000	23.745788	0.001010	20.711217
493.131878	-2.995700	3.746300	-11.221000	23.741931	0.001011	20.704031
494.128382	-3.011300	3.745600	-11.277000	23.750262	0.001011	20.706220
495.131343	-2.986200	3.744900	-11.182000	23.722141	0.001011	20.698414
496.132374	-2.980200	3.744400	-11.157000	23.734086	0.001013	20.708493
497.132001	-2.983300	3.744100	-11.169000	23.749898	0.001011	20.722451
498.132196	-2.980100	3.744400	-11.158000	23.772465	0.001012	20.704773
499.129240	-2.969500	3.744800	-11.119000	23.758059	0.001012	20.696493
500.130593	-3.002200	3.743600	-11.237000	23.763140	0.001010	20.690681
501.131533	-3.027800	3.741700	-11.328000	23.774357	0.001012	20.691496
502.133467	-2.999200	3.742800	-11.223000	23.785112	0.001012	20.698487
503.129493	-3.007100	3.743000	-11.255000	23.744199	0.001013	20.691131
504.133176	-2.980100	3.742900	-11.152000	23.745351	0.001012	20.696554
505.133533	-2.989200	3.742900	-11.187000	23.778673	0.001011	20.687763
506.134684	-3.021200	3.740400	-11.299000	23.781026	0.001012	20.701502
507.137801	-2.996900	3.741900	-11.213000	23.809000	0.001011	20.680236
508.134037	-3.001300	3.740400	-11.224000	23.782748	0.001011	20.694693
509.135841	-3.002100	3.741600	-11.232000	23.776200	0.001011	20.686705
510.133838	-3.004800	3.740900	-11.240000	23.810200	0.001013	20.699460
511.135970	-3.017500	3.740200	-11.284000	23.808466	0.001012	20.689659
512.134552	-3.012400	3.739000	-11.263000	23.815377	0.001012	20.684735
513.141492	-3.005900	3.739300	-11.239000	23.810054	0.001011	20.698839
514.132555	-3.008300	3.739100	-11.247000	23.838088	0.001012	20.693283
515.134902	-3.011600	3.737900	-11.256000	23.834996	0.001012	20.700614
516.141468	-2.988100	3.740000	-11.174000	23.816845	0.001011	20.698061
517.135386	-3.028900	3.737400	-11.318000	23.814286	0.001012	20.702609
518.136855	-3.006400	3.737700	-11.237000	23.823865	0.001011	20.683762
519.134182	-2.990600	3.738200	-11.178000	23.831662	0.001011	20.681148
520.137908	-3.003600	3.737700	-11.225000	23.788762	0.001011	20.700724
521.134706	-2.999400	3.736700	-11.207000	23.797589	0.001013	20.680175
522.140285	-2.987500	3.736800	-11.163000	23.800875	0.001012	20.692954
523.140277	-3.010900	3.735700	-11.246000	23.819245	0.001011	20.691933
524.136168	-3.007300	3.735700	-11.233000	23.811230	0.001012	20.672989
525.138046	-3.026400	3.733100	-11.297000	23.842222	0.001013	20.688893
526.134576	-3.000800	3.734900	-11.205000	23.860689	0.001011	20.694608
527.140521	-3.002600	3.734900	-11.213000	23.895487	0.001014	20.677816
528.137671	-2.999500	3.734900	-11.202000	23.891437	0.001011	20.675178
529.141374	-2.996200	3.735200	-11.191000	23.916777	0.001012	20.681622
530.140134	-2.979200	3.735200	-11.126000	23.914898	0.001014	20.695860
531.144123	-2.996400	3.734100	-11.187000	23.955986	0.001011	20.678266
532.138404	-2.996100	3.734000	-11.185000	23.956617	0.001010	20.672734
533.143338	-3.000600	3.733700	-11.202000	23.929410	0.001013	20.673427
534.142420	-3.008300	3.733100	-11.229000	23.896917	0.001010	20.673560
535.141070	-3.004700	3.731400	-11.211000	23.863223	0.001013	20.683397
536.141556	-2.968800	3.732100	-11.079000	23.851146	0.001012	20.691677
537.156601	-2.983300	3.733500	-11.137000	23.873565	0.001012	20.678120
538.143652	-3.022400	3.731100	-11.276000	23.858991	0.001010	20.679153
539.143682	-3.008700	3.730500	-11.223000	23.887920	0.001011	20.675919
540.146896	-3.003600	3.731000	-11.205000	23.895013	0.001010	20.683980
541.144806	-2.990900	3.730600	-11.157000	23.899645	0.001012	20.696212
542.147284	-3.007800	3.730000	-11.218000	23.910302	0.001010	20.673232
543.152478	-3.002600	3.730100	-11.199000	23.926136	0.001012	20.681050
544.149895	-3.000500	3.730700	-11.193000	23.946541	0.001012	20.666897
545.143602	-3.008400	3.728700	-11.216000	23.924972	0.001010	20.672295
546.146617	-2.988300	3.730600	-11.148000	23.903912	0.001013	20.677730
547.147545	-2.999800	3.728200	-11.182000	23.919650	0.001012	20.679761
548.148690	-2.978300	3.729500	-11.106000	23.932041	0.001013	20.692661
549.148368	-2.990600	3.728900	-11.151000	23.942916	0.001011	20.691713
550.148901	-3.007300	3.727000	-11.206000	23.969249	0.001011	20.692990
551.149626	-2.994700	3.727500	-11.162000	23.986489	0.001013	20.673292
552.146710	-2.988100	3.727800	-11.138000	24.011475	0.001012	20.652828
553.151411	-2.989100	3.727700	-11.141000	24.037333	0.001011	20.686351
554.147829	-2.989300	3.727100	-11.140000	24.064876	0.001011	20.673669
555.151000	-3.012900	3.726000	-11.226000	24.060985	0.001012	20.684466
556.148581	-3.001300	3.725700	-11.180000	24.077241	0.001012	20.672320
557.148740	-3.021100	3.725100	-11.252000	24.086151	0.001011	20.669876
558.152821	-3.004500	3.726000	-11.192000	24.100662	0.001011	20.665462
559.151121	-2.999800	3.726000	-11.176000	24.103220	0.001010	20.693634
560.152074	-3.016400	3.723900	-11.231000	24.124337	0.001011	20.666447
561.149432	-2.972200	3.725400	-11.072000	24.099716	0.001010	20.668307
562.151963	-2.993100	3.725100	-11.149000	24.100177	0.001011	20.679676
563.152338	-3.001200	3.724400	-11.177000	24.057324	0.001011	20.696917
564.159205	-2.994700	3.724300	-11.152000	24.061046	0.001012	20.665085
565.150064	-2.992900	3.724900	-11.147000	24.048923	0.001011	20.668575
566.151863	-3.014000	3.724700	-11.223000	24.055688	0.001010	20.668246
567.155508	-2.997000	3.722000	-11.154000	24.056924	0.001011	20.689877
568.151714	-3.006000	3.721200	-11.185000	24.062452	0.001012	20.682618
569.152676	-2.988200	3.723200	-11.124000	24.080903	0.001010	20.691641
570.155837	-3.004900	3.722300	-11.184000	24.107960	0.001011	20.668040
571.156352	-3.007900	3.720400	-11.190000	24.137028	0.001010	20.652148
572.152670	-2.996200	3.721500	-11.150000	24.124943	0.001011	20.666107
573.156602	-2.993700	3.720600	-11.137000	24.137186	0.001010	20.679810
574.160008	-2.982600	3.720400	-11.096000	24.119149	0.001011	20.668830
575.157092	-2.997300	3.718900	-11.145000	24.092832	0.001009	20.672308
576.154919	-3.004800	3.720500	-11.179000	24.139404	0.001011	20.682509
577.157163	-3.011700	3.720000	-11.202000	24.120579	0.001011	20.684966
578.157559	-3.008600	3.720200	-11.190000	24.110881	0.001011	20.685671
579.155951	-3.025100	3.717500	-11.245000	24.107972	0.001010	20.664259
580.160244	-2.971600	3.720900	-11.056000	24.133344	0.001010	20.676430
581.157979	-2.997800	3.719000	-11.148000	24.130216	0.001011	20.683725
582.161438	-3.000200	3.718700	-11.155000	24.125985	0.001009	20.679008
583.159169	-2.991900	3.718800	-11.126000	24.110991	0.001012	20.685780
584.161864	-3.001100	3.716800	-11.154000	24.144435	0.001008	20.681865
585.156449	-2.997000	3.718000	-11.142000	24.155139	0.001011	20.666046
586.163469	-3.000800	3.718800	-11.156000	24.174352	0.001010	20.685319
587.164248	-3.001900	3.718100	-11.160000	24.175806	0.001009	20.666387
588.160507	-2.990300	3.716900	-11.113000	24.163612	0.001011	20.664113
589.160760	-2.989600	3.716700	-11.109000	24.151769	0.001011	20.675944
590.161191	-2.994300	3.716300	-11.126000	24.103475	0.001009	20.680139
591.160249	-3.016200	3.715000	-11.203000	24.107936	0.001008	20.682717
592.160421	-3.021700	3.714400	-11.221000	24.112627	0.001010	20.674619
593.166137	-2.992200	3.715200	-11.115000	24.115124	0.001007	20.697514
594.162393	-3.007400	3.714100	-11.168000	24.142217	0.001009	20.696711
595.164153	-2.989400	3.715000	-11.104000	24.136495	0.001009	20.700930
596.163314	-2.996500	3.714300	-11.129000	24.156763	0.001010	20.708931
597.164792	-3.016100	3.713800	-11.199000	24.151599	0.001009	20.684309
598.168683	-3.025700	3.713000	-11.234000	24.151636	0.001008	20.685768
599.166488	-3.006800	3.711800	-11.159000	24.164776	0.001008	20.692784
600.166829	-2.975300	3.713400	-11.048000	24.173612	0.001008	20.695009
601.167301	-2.999000	3.711800	-11.130000	24.171757	0.001008	20.697890
602.165755	-3.008600	3.711000	-11.163000	24.178145	0.001007	20.701453
603.176607	-2.999300	3.712500	-11.134000	24.187648	0.001009	20.702450
604.168701	-2.989300	3.713300	-11.098000	24.167745	0.001006	20.718524
605.165488	-2.999300	3.710900	-11.129000	24.155224	0.001007	20.690316
606.166992	-3.021300	3.710000	-11.208000	24.183842	0.001007	20.692468
607.168609	-3.007800	3.710000	-11.158000	24.219369	0.001008	20.680212
608.167656	-3.009200	3.709700	-11.162000	24.235430	0.001007	20.690632
609.169498	-3.005400	3.708600	-11.146000	24.229539	0.001008	20.677610
610.172865	-2.989100	3.710000	-11.088000	24.246387	0.001008	20.714427
611.171768	-2.999300	3.710400	-11.127000	24.257623	0.001005	20.691082
612.169048	-3.007200	3.708900	-11.153000	24.240666	0.001007	20.692565
613.173413	-3.008600	3.709200	-11.159000	24.262883	0.001005	20.700152
614.174310	-3.004600	3.706800	-11.136000	24.261113	0.001007	20.684625
615.170979	-3.011000	3.706300	-11.157000	24.252980	0.001005	20.678838
616.170131	-2.987300	3.707600	-11.073000	24.265864	0.001006	20.703143
617.172268	-3.017900	3.706100	-11.183000	24.266495	0.001006	20.690024
618.171122	-2.985200	3.706600	-11.064000	24.273743	0.001007	20.697295
619.179918	-2.993200	3.707300	-11.095000	24.277961	0.001008	20.670703
620.175027	-3.009000	3.705700	-11.150000	24.296444	0.001005	20.713904
621.171250	-3.006900	3.705700	-11.141000	24.296286	0.001005	20.695727
622.173659	-3.015800	3.705000	-11.172000	24.300577	0.001004	20.692918
623.171613	-3.014600	3.705200	-11.169000	24.324756	0.001004	20.698681
624.171078	-3.016100	3.704600	-11.172000	24.312236	0.001005	20.706511
625.171849	-2.993500	3.703800	-11.085000	24.321641	0.001007	20.692711
626.171076	-3.020400	3.703600	-11.185000	24.288178	0.001003	20.700870
627.168023	-2.999800	3.704700	-11.112000	24.289451	0.001005	20.675591
628.173323	-2.989700	3.704800	-11.075000	24.289669	0.001005	20.696201
629.173438	-3.011000	3.704800	-11.154000	24.306176	0.001003	20.674825
630.172363	-2.977500	3.704400	-11.030000	24.322865	0.001003	20.695362
631.172267	-3.002400	3.704000	-11.119000	24.286893	0.001005	20.703374
632.168614	-3.025200	3.702400	-11.198000	24.258847	0.001005	20.690887
633.172579	-2.991200	3.703200	-11.076000	24.261489	0.001003	20.694486
634.176847	-2.995300	3.702000	-11.088000	24.255671	0.001004	20.721843
635.180262	-3.002600	3.702200	-11.115000	24.247332	0.001003	20.704943
636.172009	-3.004900	3.702000	-11.121000	24.224872	0.001005	20.698535
637.173920	-2.982100	3.702600	-11.040000	24.267367	0.001003	20.712712
638.173231	-3.007900	3.700600	-11.130000	24.264507	0.001002	20.703204
639.175052	-3.002200	3.699900	-11.107000	24.304140	0.001002	20.693173
640.174173	-3.003600	3.699900	-11.112000	24.318126	0.001001	20.705307
641.171052	-3.016400	3.700900	-11.163000	24.321205	0.001003	20.705551
642.172822	-3.008300	3.698700	-11.126000	24.353189	0.001002	20.717247
643.172575	-2.990300	3.698800	-11.059000	24.361818	0.001003	20.711679
644.175803	-3.012500	3.698000	-11.139000	24.366677	0.001003	20.706596
645.175280	-2.989900	3.699300	-11.059000	24.359951	0.001002	20.702693
646.179623	-2.994200	3.698300	-11.073000	24.400356	0.001003	20.691070
647.175529	-2.999200	3.697700	-11.088000	24.386820	0.001003	20.705466
648.175823	-2.993800	3.699000	-11.073000	24.383887	0.001003	20.697781
649.172857	-2.984400	3.697500	-11.034000	24.389498	0.001002	20.703411
650.184619	-2.981800	3.699000	-11.028000	24.401471	0.001001	20.724907
651.178555	-2.995800	3.698100	-11.077000	24.403435	0.001001	20.709806
652.175925	-3.005700	3.697000	-11.111000	24.379015	0.001001	20.716129
653.182481	-2.999100	3.696700	-11.086000	24.389159	0.001003	20.698803
654.190528	-2.989300	3.696800	-11.050000	24.380821	0.001000	20.702766
655.181467	-2.987800	3.696300	-11.043000	24.361369	0.000999	20.730196
656.177866	-2.995900	3.697000	-11.074000	24.358036	0.001000	20.697453
657.191754	-3.027700	3.694500	-11.184000	24.373307	0.001000	20.708505
658.176156	-2.995200	3.695100	-11.067000	24.391267	0.001002	20.713247
659.189633	-2.983000	3.694900	-11.021000	24.378663	0.000999	20.719095
660.182827	-3.006200	3.695500	-11.109000	24.436495	0.000998	20.722111
661.181649	-2.990300	3.694400	-11.046000	24.453061	0.001000	20.722135
662.181835	-2.994700	3.693000	-11.058000	24.476049	0.001001	20.732397
663.179786	-2.976300	3.694400	-10.994000	24.501715	0.001001	20.699824
664.183766	-3.026300	3.692700	-11.174000	24.501848	0.000998	20.715132
665.183250	-3.010000	3.692900	-11.115000	24.497170	0.001000	20.706171
666.192080	-3.003000	3.692300	-11.086000	24.490348	0.001000	20.724932
667.192514	-3.010000	3.690900	-11.108000	24.490421	0.000998	20.705563
668.192942	-2.985500	3.693000	-11.025000	24.487609	0.000998	20.713648
669.193511	-2.976600	3.692800	-10.991000	24.470426	0.000998	20.717746
670.185237	-2.986300	3.692500	-11.026000	24.464658	0.000996	20.718123
671.183052	-3.018300	3.691100	-11.138000	24.480532	0.000997	20.716980
672.187613	-2.983200	3.691700	-11.012000	24.499485	0.000997	20.730780
673.184702	-3.013300	3.690500	-11.120000	24.493207	0.000997	20.741552
674.189255	-3.021400	3.689700	-11.147000	24.507495	0.000997	20.730755
675.188678	-2.996200	3.690400	-11.057000	24.513541	0.000998	20.725916
676.195418	-3.017100	3.689400	-11.130000	24.533656	0.000996	20.705793
677.198725	-2.996500	3.689500	-11.054000	24.540527	0.000997	20.746354
678.182942	-2.994600	3.688500	-11.044000	24.545895	0.000997	20.720919
679.189768	-3.023800	3.688500	-11.152000	24.546864	0.000997	20.716201
680.198483	-3.003400	3.688600	-11.078000	24.568651	0.000997	20.722888
681.185834	-3.023700	3.687800	-11.150000	24.585590	0.000994	20.730877
682.189698	-3.003300	3.687400	-11.074000	24.567633	0.000995	20.707167
683.184435	-3.010200	3.686400	-11.096000	24.578199	0.000996	20.722512
684.196439	-2.979800	3.688200	-10.990000	24.545471	0.000995	20.742305
685.186568	-2.991000	3.686700	-11.026000	24.526579	0.000994	20.741369
686.188666	-2.997600	3.687100	-11.050000	24.483610	0.000995	20.727180
687.185355	-2.983700	3.686700	-10.998000	24.458962	0.000996	20.757929
688.185698	-2.991700	3.686500	-11.028000	24.434446	0.000996	20.733332
689.192791	-2.980000	3.686100	-10.984000	24.440251	0.000996	20.739157
690.195667	-3.007800	3.685000	-11.083000	24.451545	0.000994	20.728202
691.186954	-3.017400	3.685100	-11.119000	24.458113	0.000995	20.713928
692.189136	-3.002000	3.684200	-11.059000	24.490675	0.000993	20.729053
693.190715	-2.984800	3.685800	-11.001000	24.486191	0.000994	20.743996
694.184691	-2.988900	3.686100	-11.016000	24.488009	0.000992	20.755303
695.191799	-3.012000	3.682700	-11.089000	24.528506	0.000994	20.736190
696.190580	-2.997500	3.684200	-11.042000	24.494552	0.000992	20.755704
697.188103	-3.015500	3.683200	-11.106000	24.537703	0.000991	20.728348
698.189370	-3.011700	3.683200	-11.092000	24.539570	0.000993	20.748239
699.188913	-2.988600	3.683100	-11.006000	24.553747	0.000994	20.736384
700.200665	-3.009600	3.682600	-11.083000	24.541957	0.000993	20.744470
701.193979	-2.995000	3.682400	-11.028000	24.561732	0.000992	20.743923
702.195759	-2.992800	3.682800	-11.020000	24.534492	0.000991	20.736980
703.189407	-3.013100	3.680700	-11.089000	24.566022	0.000992	20.738743
704.193283	-2.984500	3.681800	-10.988000	24.543072	0.000991	20.766926
705.194895	-3.002900	3.680600	-11.052000	24.542405	0.000991	20.754403
706.195726	-2.983200	3.682100	-10.983000	24.551105	0.000991	20.734208
707.191160	-3.009900	3.679700	-11.075000	24.556619	0.000991	20.721247
708.195312	-2.987200	3.680300	-10.993000	24.595745	0.000988	20.750549
709.200476	-3.014200	3.679000	-11.087000	24.560920	0.000990	20.765869
710.190651	-2.994300	3.678900	-11.015000	24.597877	0.000988	20.771656
711.193699	-2.974200	3.681000	-10.947000	24.573001	0.000989	20.756179
712.194934	-2.998000	3.678700	-11.027000	24.588014	0.000989	20.735680
713.199505	-2.987300	3.679500	-10.989000	24.585760	0.000989	20.750963
714.195172	-2.981500	3.678400	-10.967000	24.567888	0.000988	20.766222
715.197497	-2.998700	3.677800	-11.028000	24.554365	0.000988	20.740324
716.198292	-2.976100	3.678600	-10.947000	24.561915	0.000988	20.744580
717.196014	-2.997600	3.677400	-11.023000	24.597926	0.000990	20.746100
718.195442	-2.994000	3.677400	-11.008000	24.606553	0.000988	20.766611
719.213088	-3.002800	3.676900	-11.040000	24.627636	0.000990	20.752203
720.197677	-3.013100	3.676000	-11.075000	24.655746	0.000988	20.759547
721.198494	-2.990000	3.677800	-10.996000	24.643981	0.000988	20.767656
722.202168	-3.000700	3.677200	-11.034000	24.667244	0.000987	20.760654
723.200528	-3.003300	3.676300	-11.040000	24.678185	0.000986	20.740337
724.202306	-3.005000	3.675500	-11.044000	24.677955	0.000987	20.760496
725.199793	-2.983800	3.676700	-10.970000	24.673957	0.000985	20.754587
726.203179	-3.009900	3.675200	-11.061000	24.680911	0.000985	20.741176
727.200672	-3.013700	3.673900	-11.070000	24.651736	0.000986	20.755049
728.201088	-3.002900	3.674600	-11.033000	24.712860	0.000986	20.752374
729.202188	-2.976000	3.674000	-10.933000	24.711746	0.000984	20.758842
730.202955	-3.016400	3.673300	-11.079000	24.715938	0.000984	20.778697
731.207408	-2.992700	3.673200	-10.992000	24.724334	0.000984	20.764837
732.203862	-2.989000	3.672400	-10.976000	24.751399	0.000984	20.765919
733.208352	-3.012100	3.672900	-11.062000	24.735904	0.000985	20.767913
734.201464	-3.022600	3.671900	-11.097000	24.721451	0.000984	20.778065
735.205791	-3.005400	3.672900	-11.038000	24.698237	0.000986	20.761408
736.206771	-2.987400	3.672300	-10.969000	24.670807	0.000983	20.747159
737.207479	-3.013800	3.671500	-11.064000	24.667972	0.000983	20.771342
738.204836	-2.990200	3.671800	-10.978000	24.677531	0.000983	20.780934
739.204667	-2.979500	3.672600	-10.941000	24.674163	0.000981	20.760484
740.203128	-2.990600	3.670700	-10.976000	24.657261	0.000982	20.763913
741.205984	-2.994200	3.671500	-10.991000	24.677955	0.000983	20.753384
742.205824	-3.018200	3.670700	-11.077000	24.666228	0.000982	20.755366
743.204094	-2.997400	3.671200	-11.002000	24.636131	0.000983	20.775901
744.209931	-3.013500	3.669700	-11.057000	24.664265	0.000981	20.740593
745.205365	-2.992300	3.671100	-10.984000	24.639814	0.000982	20.789080
746.206687	-3.004700	3.669600	-11.023000	24.612007	0.000980	20.796740
747.206779	-3.012100	3.669500	-11.052000	24.591591	0.000981	20.787633
748.211421	-3.014500	3.669000	-11.059000	24.592827	0.000980	20.779865
749.204664	-2.994400	3.668000	-10.983000	24.601538	0.000981	20.785761
750.208193	-3.006200	3.669000	-11.028000	24.579450	0.000980	20.768813
751.208761	-3.007700	3.666900	-11.028000	24.561468	0.000981	20.789177
752.207607	-3.003400	3.666900	-11.012000	24.602145	0.000979	20.802491
753.209935	-3.008000	3.666400	-11.028000	24.607076	0.000981	20.783731
754.209944	-2.989700	3.667000	-10.962000	24.609112	0.000981	20.791463
755.207410	-3.003700	3.666900	-11.013000	24.626136	0.000980	20.797640
756.211396	-2.991600	3.667500	-10.971000	24.639754	0.000979	20.781907
757.210732	-2.967500	3.666200	-10.878000	24.656548	0.000978	20.779792
758.204701	-2.989800	3.666200	-10.960000	24.660304	0.000978	20.795889
759.208574	-3.017900	3.664100	-11.056000	24.707131	0.000977	20.802576
760.209941	-3.027200	3.662900	-11.088000	24.721246	0.000979	20.788765
761.209903	-3.011600	3.664000	-11.034000	24.704454	0.000979	20.785191
762.212758	-2.990700	3.665900	-10.963000	24.746773	0.000977	20.791148
763.208628	-3.017300	3.664000	-11.055000	24.728637	0.000978	20.811829
764.208014	-3.011000	3.664500	-11.032000	24.781082	0.000977	20.791914
765.209792	-3.011500	3.665100	-11.037000	24.794506	0.000977	20.801118
766.212115	-2.991400	3.664800	-10.960000	24.766024	0.000977	20.789605
767.206383	-3.019600	3.662400	-11.057000	24.761820	0.000977	20.792024
768.213073	-2.992600	3.663700	-10.963000	24.756781	0.000976	20.801191
769.210644	-2.971600	3.663500	-10.885000	24.752504	0.000979	20.801641
770.207503	-3.008200	3.662600	-11.017000	24.756187	0.000977	20.808656
771.209282	-2.999500	3.661900	-10.982000	24.759919	0.000975	20.781107
772.210669	-3.011500	3.663100	-11.031000	24.736925	0.000976	20.817775
773.208789	-2.983600	3.662200	-10.924000	24.725754	0.000976	20.809885
774.212177	-3.001200	3.662000	-10.989000	24.709726	0.000976	20.809447
775.211960	-3.000500	3.662300	-10.988000	24.718037	0.000974	20.804511
776.210339	-3.007600	3.661400	-11.011000	24.732818	0.000975	20.799430
777.217646	-2.997500	3.661100	-10.973000	24.744049	0.000976	20.791733
778.215404	-2.985000	3.661600	-10.929000	24.705740	0.000973	20.806870
779.210340	-3.008600	3.659800	-11.009000	24.752142	0.000972	20.804123
780.211360	-3.003700	3.659600	-10.992000	24.757860	0.000972	20.805119
781.214395	-2.979300	3.660600	-10.905000	24.770206	0.000973	20.817983
782.209744	-2.994900	3.660500	-10.961000	24.816289	0.000972	20.800694
783.211763	-2.987100	3.659000	-10.928000	24.833722	0.000972	20.811551
784.217076	-2.992500	3.659600	-10.950000	24.855745	0.000972	20.790032
785.209991	-3.000200	3.658100	-10.974000	24.845327	0.000972	20.819405
786.212352	-2.997600	3.658500	-10.965000	24.833068	0.000972	20.813266
787.212278	-3.011800	3.656800	-11.011000	24.853589	0.000971	20.814421
788.212632	-3.008900	3.657000	-11.003000	24.877805	0.000973	20.805534
789.212078	-3.015600	3.657300	-11.028000	24.870379	0.000969	20.802822
790.211773	-2.986000	3.658100	-10.922000	24.877599	0.000969	20.812440
791.219651	-2.983000	3.656900	-10.907000	24.907338	0.000969	20.821898
792.213304	-2.983800	3.655700	-10.906000	24.926198	0.000971	20.792939
793.214146	-2.991000	3.655600	-10.932000	24.898798	0.000970	20.823759
794.213915	-2.996300	3.655100	-10.950000	24.884552	0.000969	20.814203
795.224468	-2.995500	3.656500	-10.953000	24.906672	0.000970	20.840670
796.217292	-2.989200	3.655700	-10.927000	24.895019	0.000969	20.852207
797.215339	-2.994900	3.655900	-10.947000	24.917029	0.000969	20.832099
798.215147	-2.991400	3.655800	-10.935000	24.895649	0.000970	20.822969
799.216309	-2.990200	3.656000	-10.931000	24.895116	0.000969	20.822908
800.216018	-2.991700	3.654200	-10.930000	24.869932	0.000965	20.827978
801.217639	-2.981100	3.654700	-10.894000	24.877855	0.000966	20.820282
802.219966	-2.982700	3.654600	-10.899000	24.876813	0.000968	20.832987
803.214763	-2.988000	3.652600	-10.912000	24.891083	0.000968	20.825498
804.216341	-2.993500	3.653500	-10.934000	24.850720	0.000970	20.840464
805.232414	-3.013400	3.653000	-11.007000	24.858824	0.000966	20.830106
806.218783	-2.999200	3.654100	-10.958000	24.877007	0.000966	20.829388
807.221376	-2.990800	3.652600	-10.922000	24.894414	0.000967	20.818410
808.217512	-3.016200	3.651300	-11.012000	24.898157	0.000965	20.840659
809.218643	-2.994000	3.652500	-10.934000	24.906237	0.000963	20.826009
810.218114	-2.993100	3.651100	-10.927000	24.906128	0.000964	20.838227
811.223032	-2.956100	3.651600	-10.792000	24.879212	0.000964	20.838239
812.220711	-2.981000	3.651900	-10.885000	24.876414	0.000963	20.818362
813.223234	-3.005600	3.650600	-10.971000	24.872186	0.000965	20.833085
814.222073	-3.011000	3.650500	-10.991000	24.906685	0.000963	20.815079
815.225184	-2.991100	3.650100	-10.916000	24.918181	0.000964	20.814290
816.223401	-3.007200	3.649200	-10.973000	24.874827	0.000964	20.804442
817.225253	-2.971600	3.649600	-10.844000	24.859660	0.000963	20.817669
818.224020	-2.993400	3.649300	-10.923000	24.892004	0.000964	20.826897
819.221170	-3.024500	3.648200	-11.031000	24.879370	0.000963	20.807104
820.221456	-3.015900	3.648200	-11.002000	24.871762	0.000963	20.809901
821.225082	-2.985200	3.648200	-10.889000	24.874440	0.000962	20.813536
822.225511	-3.002000	3.648400	-10.951000	24.874839	0.000961	20.801609
823.221944	-2.999300	3.648100	-10.941000	24.861914	0.000961	20.810448
824.223860	-2.994300	3.646900	-10.919000	24.842883	0.000962	20.810788
825.223996	-2.996000	3.647600	-10.927000	24.839636	0.000961	20.797098
826.226058	-2.996600	3.646600	-10.927000	24.840242	0.000961	20.804819
827.222575	-3.018400	3.645000	-11.001000	24.836547	0.000961	20.811542
828.223325	-3.015400	3.646400	-10.994000	24.862253	0.000960	20.806047
829.225078	-3.029100	3.645500	-11.041000	24.874064	0.000960	20.798460
830.225820	-3.000400	3.646000	-10.939000	24.885003	0.000959	20.816077
831.225348	-2.991000	3.645400	-10.902000	24.855591	0.000960	20.798886
832.227282	-2.997300	3.645500	-10.926000	24.862302	0.000958	20.815104
833.228482	-3.013800	3.644000	-10.982000	24.867571	0.000958	20.796211
834.227974	-3.007900	3.645900	-10.965000	24.820678	0.000958	20.823590
835.240983	-3.006100	3.643300	-10.951000	24.863259	0.000958	20.817014
836.229992	-2.986300	3.644500	-10.882000	24.833059	0.000957	20.796187
837.233698	-2.979200	3.643600	-10.854000	24.800835	0.000957	20.814582
838.232894	-2.999700	3.643800	-10.930000	24.837807	0.000957	20.802375
839.233706	-2.996700	3.643400	-10.916000	24.875227	0.000957	20.806266
840.228533	-2.988300	3.643000	-10.885000	24.877783	0.000957	20.796503
841.233294	-2.990500	3.643700	-10.895000	24.893325	0.000955	20.794558
842.235650	-3.009300	3.641900	-10.958000	24.905233	0.000956	20.786121
843.229405	-3.012100	3.642000	-10.968000	24.940796	0.000956	20.790996
844.236037	-3.005600	3.641900	-10.945000	24.952873	0.000955	20.797902
845.232369	-3.006500	3.641300	-10.947000	24.913615	0.000954	20.798327
846.232057	-3.016800	3.640900	-10.982000	24.933783	0.000957	20.783482
847.233649	-2.992900	3.641000	-10.896000	24.961982	0.000955	20.793293
848.231355	-3.016300	3.640300	-10.979000	24.974118	0.000954	20.785561
849.230954	-2.993400	3.641500	-10.899000	24.968050	0.000953	20.766667
850.231945	-3.023900	3.638900	-11.003000	24.984063	0.000955	20.776576
851.230428	-3.007700	3.639000	-10.944000	24.948633	0.000952	20.781318
852.230751	-2.998800	3.638500	-10.910000	24.916909	0.000954	20.779822
853.234794	-2.991300	3.640100	-10.888000	24.947701	0.000952	20.782279
854.232944	-3.005900	3.638100	-10.935000	24.932560	0.000952	20.769926
855.232566	-2.991400	3.638100	-10.882000	24.930803	0.000950	20.773379
856.235487	-2.985800	3.638900	-10.864000	24.952061	0.000951	20.779543
857.235535	-3.012300	3.637600	-10.956000	24.955295	0.000950	20.783263
858.233808	-2.991400	3.637500	-10.880000	24.908927	0.000950	20.777974
859.236693	-3.010800	3.636800	-10.949000	24.907412	0.000950	20.770765
860.232390	-3.012800	3.637000	-10.957000	24.872925	0.000952	20.785464
861.234337	-3.013000	3.636700	-10.957000	24.906335	0.000951	20.772528
862.252566	-3.013400	3.635400	-10.953000	24.884095	0.000949	20.780552
863.237719	-2.997600	3.636700	-10.901000	24.904796	0.000948	20.764345
864.237045	-2.998200	3.636000	-10.900000	24.902361	0.000948	20.758108
865.244274	-2.998900	3.636300	-10.904000	24.876475	0.000951	20.772905
866.237690	-2.999100	3.635600	-10.902000	24.837856	0.000950	20.773026
867.244654	-3.009200	3.634700	-10.937000	24.861478	0.000949	20.777768
868.238430	-2.963400	3.636300	-10.775000	24.849255	0.000951	20.781148
869.237584	-2.999500	3.635000	-10.903000	24.900544	0.000949	20.767190
870.236935	-2.989100	3.635300	-10.865000	24.892670	0.000948	20.770667
871.241771	-2.998100	3.634200	-10.895000	24.923523	0.000947	20.772236
872.238218	-2.997400	3.634000	-10.892000	24.933322	0.000949	20.763579
873.241908	-3.005100	3.634200	-10.920000	24.977873	0.000947	20.761354
874.243566	-3.005100	3.633700	-10.919000	24.922905	0.000947	20.765451
875.240685	-2.975800	3.635800	-10.818000	24.945351	0.000947	20.758108
876.239979	-3.003700	3.633000	-10.911000	24.953927	0.000947	20.769561
877.244404	-2.996800	3.633200	-10.886000	24.954920	0.000947	20.758230
878.244416	-3.007500	3.632300	-10.923000	24.973428	0.000947	20.765901
879.241706	-3.025500	3.631400	-10.985000	25.006362	0.000946	20.761026
880.242804	-3.008100	3.631700	-10.923000	25.014246	0.000943	20.768467
881.241336	-3.000700	3.633600	-10.902000	24.996817	0.000946	20.783689
882.240738	-3.019300	3.630300	-10.959000	25.007973	0.000945	20.747470
883.253709	-2.999200	3.631900	-10.892000	25.011194	0.000945	20.766825
884.247130	-2.997100	3.631400	-10.883000	24.995969	0.000944	20.757233
885.241840	-3.009700	3.630200	-10.924000	24.993438	0.000943	20.765597
886.247968	-3.009600	3.630200	-10.925000	25.016136	0.000944	20.756138
887.244169	-2.995200	3.631200	-10.875000	25.031845	0.000942	20.763373
888.244747	-2.988200	3.629700	-10.845000	25.020884	0.000941	20.773707
889.247365	-2.995700	3.630800	-10.876000	25.026504	0.000940	20.734302
890.246442	-3.001000	3.629100	-10.890000	25.006592	0.000941	20.754619
891.242616	-2.976800	3.629900	-10.804000	25.012648	0.000940	20.779665
892.243970	-2.988600	3.629700	-10.847000	25.041365	0.000941	20.739737
893.242406	-2.997100	3.628600	-10.873000	25.075229	0.000939	20.758084
894.242519	-3.000900	3.627700	-10.886000	25.104793	0.000940	20.753147
895.245550	-3.011000	3.627200	-10.920000	25.075968	0.000940	20.772576
896.246681	-3.006700	3.626500	-10.902000	25.076004	0.000938	20.751749
897.244216	-2.996600	3.626700	-10.867000	25.063905	0.000938	20.765682
898.248000	-3.028200	3.626400	-10.978000	25.098858	0.000940	20.759518
899.245279	-2.983800	3.628100	-10.823000	25.118963	0.000937	20.765950
900.246485	-2.994700	3.626700	-10.860000	25.131061	0.000937	20.755335
901.253128	-2.991700	3.625600	-10.846000	25.107082	0.000937	20.750229
902.251826	-2.982000	3.627100	-10.815000	25.079068	0.000935	20.760515
903.248606	-2.989300	3.625800	-10.836000	25.095612	0.000936	20.749621
904.249716	-3.000400	3.624900	-10.875000	25.104853	0.000936	20.765536
905.247976	-3.017100	3.625100	-10.936000	25.115111	0.000937	20.748332
906.249115	-3.004500	3.624600	-10.889000	25.137213	0.000934	20.766253
907.248996	-3.002400	3.623400	-10.878000	25.130309	0.000935	20.755055
908.249275	-2.996100	3.624900	-10.860000	25.149190	0.000934	20.740344
909.248427	-2.982600	3.625200	-10.811000	25.122522	0.000935	20.749608
910.262483	-2.985500	3.624000	-10.818000	25.132344	0.000933	20.720112
911.249016	-3.012900	3.623400	-10.916000	25.115219	0.000933	20.749864
912.250322	-3.016300	3.622000	-10.924000	25.122655	0.000932	20.737413
913.251202	-2.994600	3.622600	-10.847000	25.098264	0.000932	20.756551
914.253728	-2.985500	3.622800	-10.814000	25.056091	0.000933	20.732234
915.255227	-3.026000	3.620200	-10.953000	25.033382	0.000931	20.737888
916.257900	-3.001700	3.621900	-10.871000	25.044125	0.000933	20.724015
917.253587	-2.987400	3.621700	-10.818000	25.009049	0.000930	20.730057
918.253363	-3.022600	3.620500	-10.942000	25.004701	0.000930	20.727589
919.256891	-3.020300	3.619500	-10.932000	25.017225	0.000931	20.744429
920.252835	-3.005100	3.620300	-10.877000	25.055413	0.000931	20.722543
921.251593	-2.988300	3.620800	-10.819000	25.075373	0.000929	20.715078
922.254146	-3.007800	3.619200	-10.885000	25.088041	0.000929	20.726847
923.253909	-3.002700	3.619100	-10.866000	25.088659	0.000928	20.735529
924.252553	-2.992300	3.617700	-10.824000	25.060766	0.000929	20.742617
925.257683	-2.980200	3.618200	-10.782000	25.053415	0.000927	20.739978
926.253237	-2.972700	3.620800	-10.762000	25.036216	0.000927	20.718445
927.254966	-2.988400	3.618000	-10.812000	25.077577	0.000929	20.739577
928.255887	-2.991500	3.617400	-10.820000	25.080363	0.000924	20.731467
929.253987	-3.000300	3.617200	-10.851000	25.139380	0.000925	20.758471
930.252994	-3.004700	3.617200	-10.868000	25.119337	0.000925	20.739298
931.256566	-2.986500	3.616200	-10.798000	25.170770	0.000925	20.729765
932.262409	-2.999600	3.615000	-10.842000	25.186162	0.000924	20.723880
933.254130	-2.987700	3.617800	-10.807000	25.195112	0.000925	20.724805
934.261124	-3.021400	3.615900	-10.923000	25.202136	0.000921	20.740392
935.255361	-3.008700	3.615700	-10.878000	25.226053	0.000923	20.734057
936.254242	-2.988900	3.616000	-10.806000	25.217007	0.000922	20.730191
937.259159	-2.998300	3.615700	-10.839000	25.226488	0.000921	20.715527
938.254601	-2.989200	3.614600	-10.804000	25.261836	0.000922	20.739163
939.254353	-3.028400	3.614500	-10.945000	25.268000	0.000920	20.736343
940.258727	-2.995500	3.614800	-10.827000	25.264113	0.000920	20.714895
941.255125	-3.008300	3.612400	-10.866000	25.244060	0.000919	20.714202
942.257596	-2.995200	3.612900	-10.820000	25.231526	0.000920	20.723431
943.260187	-2.980500	3.615200	-10.774000	25.178714	0.000919	20.720670
944.255809	-2.990900	3.615100	-10.811000	25.177927	0.000919	20.732209
945.258716	-2.990000	3.613300	-10.802000	25.191273	0.000919	20.722847
946.259244	-2.975400	3.613400	-10.750000	25.185932	0.000917	20.718907
947.256553	-3.021700	3.612000	-10.913000	25.208699	0.000916	20.732282
948.258820	-3.023700	3.612000	-10.919000	25.229540	0.000918	20.730920
949.260490	-2.993300	3.611500	-10.809000	25.229709	0.000919	20.733461
950.256866	-3.016000	3.612100	-10.893000	25.239446	0.000916	20.720476
951.259011	-3.003700	3.611300	-10.846000	25.255539	0.000914	20.715770
952.260189	-2.996100	3.610500	-10.816000	25.297788	0.000916	20.730689
953.257788	-2.983000	3.611200	-10.771000	25.284250	0.000916	20.709034
954.264657	-2.990600	3.610700	-10.798000	25.269246	0.000914	20.718627
955.262153	-2.980400	3.610000	-10.758000	25.239893	0.000912	20.708596
956.260024	-2.990400	3.609900	-10.794000	25.183291	0.000915	20.720049
957.259466	-2.999900	3.609700	-10.827000	25.173276	0.000913	20.712839
958.267458	-3.002200	3.609900	-10.836000	25.182722	0.000910	20.716159
959.264826	-3.017600	3.608900	-10.889000	25.199228	0.000910	20.699538
960.259776	-2.970100	3.610000	-10.721000	25.202752	0.000912	20.712086
961.263359	-2.993100	3.607800	-10.798000	25.242460	0.000911	20.713070
962.261776	-3.018300	3.607500	-10.888000	25.223968	0.000910	20.724852
963.261732	-3.013000	3.606400	-10.865000	25.207814	0.000910	20.699623
964.267065	-2.985400	3.608300	-10.771000	25.215552	0.000910	20.715927
965.262143	-3.017900	3.605900	-10.881000	25.220105	0.000909	20.703428
966.270806	-2.994500	3.606900	-10.799000	25.191586	0.000906	20.716997
967.269535	-3.012200	3.604600	-10.857000	25.232881	0.000907	20.705823
968.270422	-2.995400	3.606800	-10.803000	25.258977	0.000907	20.695987
969.266497	-2.992200	3.605900	-10.788000	25.295946	0.000909	20.687585
970.264943	-2.978900	3.605900	-10.740000	25.307086	0.000907	20.693081
971.266306	-3.013200	3.603300	-10.856000	25.343218	0.000908	20.731259
972.269240	-3.019500	3.603800	-10.880000	25.340542	0.000905	20.710553
973.267312	-3.004600	3.604700	-10.829000	25.338919	0.000905	20.698491
974.266062	-3.025200	3.601800	-10.895000	25.287033	0.000906	20.694284
975.262687	-3.008000	3.603800	-10.839000	25.238015	0.000904	20.718091
976.271734	-3.018000	3.603500	-10.874000	25.240715	0.000903	20.704680
977.266771	-2.998300	3.603100	-10.802000	25.254520	0.000904	20.738456
978.266146	-3.030600	3.602000	-10.914000	25.259048	0.000903	20.683255
979.266888	-3.015800	3.602400	-10.862000	25.245982	0.000903	20.703329
980.267501	-3.027000	3.600300	-10.897000	25.244117	0.000902	20.707147
981.265556	-3.006000	3.601100	-10.824000	25.257014	0.000902	20.696387
982.267910	-2.986800	3.601900	-10.757000	25.298778	0.000902	20.691851
983.267415	-2.987000	3.602000	-10.757000	25.325514	0.000905	20.696411
984.265197	-3.017300	3.599600	-10.860000	25.337078	0.000902	20.683364
985.272284	-3.008400	3.601600	-10.833000	25.335782	0.000901	20.690599
986.266364	-3.017300	3.600600	-10.863000	25.353291	0.000899	20.715293
987.270038	-3.007000	3.599000	-10.820000	25.370315	0.000899	20.689711
988.275187	-2.994700	3.601400	-10.784000	25.347600	0.000899	20.700568
989.267668	-2.985100	3.600700	-10.746000	25.289744	0.000900	20.696532
990.267580	-3.003700	3.600000	-10.812000	25.296585	0.000899	20.708143
991.271090	-3.007800	3.598700	-10.823000	25.307968	0.000899	20.708666
992.268620	-3.012500	3.597200	-10.835000	25.284113	0.000899	20.714113
993.270094	-2.986100	3.599000	-10.746000	25.267875	0.000898	20.688324
994.273393	-2.989900	3.598500	-10.758000	25.255584	0.000895	20.705383
995.267952	-2.986200	3.597300	-10.741000	25.244079	0.000897	20.685296
996.270342	-2.989700	3.597400	-10.754000	25.244358	0.000896	20.699802
997.277402	-3.009500	3.597700	-10.825000	25.236499	0.000897	20.696179
998.271653	-3.000500	3.596300	-10.789000	25.279184	0.000895	20.675970
999.269717	-3.008000	3.596200	-10.816000	25.291475	0.000893	20.669343
1000.274046	-3.015100	3.594700	-10.837000	25.310910	0.000897	20.705455
1001.274948	-2.990400	3.595400	-10.752000	25.343942	0.000893	20.674608
1002.271116	-2.975800	3.595800	-10.700000	25.347901	0.000894	20.692336
1003.274657	-2.972700	3.595800	-10.687000	25.372735	0.000894	20.673647
1004.269184	-2.999600	3.594000	-10.780000	25.364950	0.000893	20.694755
1005.271646	-2.986400	3.595200	-10.735000	25.362721	0.000893	20.699157
1006.272223	-2.985400	3.594400	-10.729000	25.356982	0.000894	20.682487
1007.274520	-2.996700	3.592100	-10.763000	25.318162	0.000892	20.685235
1008.272276	-2.973000	3.595300	-10.688000	25.317545	0.000892	20.688408
1009.274833	-3.014500	3.593300	-10.830000	25.320850	0.000894	20.698366
1010.277541	-3.025300	3.593300	-10.869000	25.312277	0.000893	20.686438
1011.271058	-3.009600	3.592600	-10.811000	25.322691	0.000890	20.696895
1012.274629	-2.996000	3.592300	-10.761000	25.360893	0.000889	20.682146
1013.274829	-3.001300	3.592300	-10.780000	25.371730	0.000890	20.652721
1014.279254	-2.993600	3.592100	-10.752000	25.357757	0.000890	20.707449
1015.273272	-3.006700	3.590100	-10.792000	25.357236	0.000888	20.675155
1016.276078	-2.989200	3.590800	-10.731000	25.315789	0.000887	20.680480
1017.271099	-2.997800	3.591600	-10.765000	25.293860	0.000888	20.699716
1018.275168	-2.972500	3.591400	-10.674000	25.269484	0.000889	20.696579
1019.271862	-2.992400	3.589800	-10.741000	25.262073	0.000886	20.667798
1020.276883	-2.990300	3.590400	-10.734000	25.289452	0.000886	20.679642
1021.275274	-2.980400	3.589800	-10.698000	25.289876	0.000884	20.691448
1022.273026	-2.987900	3.589400	-10.724000	25.317024	0.000885	20.681721
1023.273252	-2.999300	3.588200	-10.761000	25.328709	0.000885	20.685393
1024.276530	-2.996800	3.588800	-10.754000	25.332874	0.000882	20.682937
1025.274841	-3.016200	3.589000	-10.823000	25.327740	0.000883	20.693904
1026.272225	-2.993100	3.589300	-10.741000	25.322811	0.000884	20.682790
1027.280713	-2.995900	3.587200	-10.746000	25.283882	0.000883	20.698232
1028.274844	-3.009200	3.586900	-10.792000	25.295191	0.000884	20.708640
1029.275415	-2.981200	3.589200	-10.699000	25.309674	0.000881	20.688566
1030.275706	-3.004100	3.586600	-10.773000	25.298231	0.000880	20.669488
1031.278052	-3.000800	3.588200	-10.766000	25.301076	0.000879	20.680407
1032.275037	-2.993500	3.585800	-10.733000	25.302941	0.000879	20.678486
1033.276234	-2.997400	3.585800	-10.747000	25.287490	0.000880	20.685733
1034.279200	-2.989500	3.585400	-10.716000	25.292588	0.000880	20.687058
1035.284420	-2.982000	3.584600	-10.688000	25.299998	0.000879	20.673634
1036.276443	-2.997100	3.585300	-10.745000	25.299187	0.000881	20.687046
1037.276039	-2.992300	3.585300	-10.727000	25.304394	0.000878	20.692748
1038.276676	-2.985900	3.587200	-10.710000	25.334302	0.000879	20.693380
1039.277282	-2.995500	3.584200	-10.736000	25.350237	0.000876	20.669549
1040.276610	-2.979700	3.584400	-10.680000	25.374635	0.000876	20.693101
1041.276632	-3.008600	3.582900	-10.778000	25.386828	0.000875	20.699654
1042.277256	-3.001200	3.582800	-10.752000	25.363459	0.000876	20.694681
1043.277070	-3.001700	3.582200	-10.751000	25.347912	0.000876	20.678121
1044.277580	-3.029800	3.582000	-10.852000	25.343602	0.000875	20.696554
1045.275048	-2.999700	3.581800	-10.741000	25.334556	0.000874	20.690316
1046.274596	-3.017700	3.581400	-10.806000	25.347609	0.000874	20.669755
1047.278835	-3.022100	3.580200	-10.819000	25.355068	0.000873	20.703800
1048.283302	-3.020000	3.581100	-10.813000	25.333987	0.000873	20.703496
1049.276778	-2.978300	3.580000	-10.661000	25.358446	0.000871	20.695338
1050.278646	-3.005300	3.581400	-10.761000	25.390085	0.000872	20.683009
1051.281292	-2.992100	3.580400	-10.711000	25.391683	0.000870	20.691252
1052.279716	-3.005500	3.579600	-10.757000	25.393305	0.000868	20.698572
1053.277848	-3.005100	3.578700	-10.754000	25.393971	0.000869	20.689757
1054.279377	-3.003700	3.579800	-10.751000	25.359754	0.000871	20.689063
1055.281690	-3.025700	3.578500	-10.826000	25.330669	0.000868	20.682145
1056.280505	-2.985600	3.579100	-10.685000	25.329410	0.000870	20.694632
1057.276799	-3.000500	3.578000	-10.733000	25.357707	0.000868	20.714038
1058.283154	-3.020300	3.578000	-10.805000	25.387639	0.000868	20.692881
1059.280590	-2.982800	3.578100	-10.671000	25.417593	0.000867	20.698778
1060.281777	-2.988500	3.578000	-10.692000	25.409202	0.000867	20.693671
1061.280470	-3.012500	3.577000	-10.774000	25.459194	0.000866	20.686972
1062.283838	-2.966800	3.577500	-10.612000	25.451348	0.000864	20.701380
1063.279639	-3.008600	3.575700	-10.756000	25.487875	0.000864	20.685902
1064.284829	-2.961900	3.577200	-10.594000	25.487960	0.000865	20.692626
1065.285683	-2.992200	3.578200	-10.706000	25.494364	0.000864	20.684832
1066.282863	-2.988700	3.575800	-10.686000	25.479268	0.000863	20.685793
1067.283195	-3.026200	3.573500	-10.813000	25.470127	0.000863	20.689416
1068.280398	-2.988100	3.575700	-10.683000	25.424422	0.000864	20.717016
1069.280437	-2.991400	3.575000	-10.693000	25.417871	0.000862	20.699532
1070.283559	-3.030800	3.573200	-10.829000	25.421576	0.000860	20.689027
1071.285028	-2.988900	3.574400	-10.683000	25.464013	0.000860	20.690389
1072.284733	-2.984200	3.573500	-10.662000	25.483480	0.000858	20.696188
1073.286959	-3.013100	3.572800	-10.764000	25.484340	0.000857	20.703691
1074.285588	-3.004100	3.573900	-10.734000	25.497960	0.000859	20.721162
1075.283636	-2.993600	3.573300	-10.695000	25.485781	0.000857	20.695179
1076.284106	-2.982500	3.572100	-10.653000	25.427654	0.000858	20.722160
1077.285945	-3.016400	3.572300	-10.774000	25.414034	0.000859	20.705636
1078.283768	-3.008600	3.570600	-10.742000	25.410631	0.000859	20.708858
1079.293687	-2.997400	3.571200	-10.703000	25.377528	0.000859	20.708335
1080.288135	-3.010400	3.570700	-10.748000	25.354620	0.000857	20.712834
1081.286693	-2.978100	3.572000	-10.637000	25.355988	0.000857	20.705198
1082.288845	-2.976800	3.571100	-10.630000	25.363047	0.000856	20.698061
1083.290901	-3.027700	3.570400	-10.809000	25.365614	0.000857	20.726245
1084.286955	-3.005100	3.569900	-10.727000	25.410413	0.000855	20.708165
1085.288954	-3.004000	3.569800	-10.722000	25.434483	0.000854	20.694401
1086.287746	-2.992500	3.570100	-10.682000	25.436517	0.000854	20.715411
1087.286748	-3.025000	3.566700	-10.788000	25.411854	0.000855	20.705818
1088.288813	-2.999800	3.568900	-10.705000	25.421576	0.000852	20.712262
1089.285896	-3.008400	3.567000	-10.729000	25.425923	0.000851	20.728008
1090.285096	-2.989300	3.567800	-10.664000	25.433357	0.000853	20.694219
1091.286850	-3.011700	3.566300	-10.740000	25.401914	0.000851	20.726658
1092.286159	-3.016300	3.566300	-10.756000	25.442776	0.000851	20.716007
1093.284449	-2.973600	3.568300	-10.609000	25.456349	0.000850	20.699763
1094.291085	-2.991800	3.565500	-10.666000	25.471083	0.000850	20.718354
1095.286304	-2.997600	3.565900	-10.687000	25.511338	0.000849	20.718949
1096.286551	-3.002500	3.565900	-10.705000	25.487633	0.000850	20.692772
1097.291297	-3.006900	3.564500	-10.717000	25.510333	0.000848	20.723156
1098.292694	-3.012700	3.563900	-10.736000	25.526314	0.000850	20.727825
1099.286003	-2.985500	3.565200	-10.643000	25.523239	0.000846	20.706244
1100.290738	-3.023300	3.563400	-10.773000	25.540055	0.000847	20.721235
1101.291214	-3.007800	3.564500	-10.721000	25.551131	0.000846	20.712444
1102.289160	-3.018300	3.562500	-10.751000	25.492137	0.000845	20.726694
1103.291827	-2.984800	3.563400	-10.636000	25.470308	0.000845	20.714256
1104.291765	-3.019100	3.562600	-10.755000	25.484558	0.000844	20.708651
1105.291955	-2.991900	3.563000	-10.659000	25.490502	0.000845	20.692334
1106.289402	-3.012400	3.562500	-10.731000	25.483541	0.000844	20.709526
1107.294451	-3.001500	3.561700	-10.690000	25.468819	0.000844	20.721296
1108.288571	-3.016200	3.561700	-10.741000	25.468710	0.000844	20.708857
1109.291507	-3.021300	3.559800	-10.754000	25.477947	0.000842	20.728093
1110.290792	-3.010400	3.560600	-10.717000	25.480829	0.000842	20.729090
1111.292853	-3.015800	3.560300	-10.736000	25.496689	0.000840	20.743120
1112.294142	-2.980900	3.560500	-10.612000	25.515320	0.000840	20.703982
1113.298168	-2.969600	3.562500	-10.578000	25.532996	0.000840	20.730743
1114.291730	-2.982400	3.560600	-10.618000	25.526035	0.000839	20.708578
1115.293280	-2.991100	3.561300	-10.652000	25.545550	0.000839	20.728177
1116.295763	-2.993000	3.559900	-10.654000	25.590802	0.000839	20.715776
1117.289695	-2.982200	3.559700	-10.616000	25.593441	0.000840	20.740238
1118.302772	-2.985800	3.559400	-10.627000	25.628498	0.000839	20.735618
1119.295714	-3.006700	3.558700	-10.699000	25.615873	0.000835	20.721989
1120.295031	-2.996000	3.559200	-10.661000	25.609953	0.000837	20.733588
1121.294816	-2.992100	3.558600	-10.646000	25.632227	0.000834	20.727034
1122.295405	-2.992200	3.558400	-10.646000	25.604735	0.000834	20.732141
1123.296097	-3.007900	3.558000	-10.700000	25.607011	0.000835	20.745807
1124.304953	-3.009700	3.557000	-10.705000	25.645264	0.000834	20.743448
1125.296452	-2.977800	3.557200	-10.592000	25.652926	0.000834	20.730281
1126.292305	-2.973100	3.558800	-10.579000	25.667210	0.000835	20.717599
1127.293760	-3.011800	3.556300	-10.709000	25.676458	0.000832	20.728785
1128.292155	-3.002300	3.556300	-10.675000	25.667610	0.000831	20.718949
1129.295952	-2.998900	3.556600	-10.663000	25.682305	0.000832	20.722803
1130.293763	-2.999500	3.555400	-10.662000	25.680150	0.000831	20.717320
1131.297307	-2.987400	3.555900	-10.623000	25.661073	0.000831	20.732773
1132.297362	-3.011900	3.553500	-10.702000	25.682535	0.000829	20.731095
1133.299978	-2.993200	3.554400	-10.638000	25.636004	0.000830	20.730354
1134.297008	-2.979100	3.553900	-10.587000	25.605704	0.000828	20.740701
1135.295439	-3.007000	3.553100	-10.684000	25.583454	0.000829	20.733527
1136.298527	-2.999600	3.553100	-10.657000	25.574157	0.000828	20.736992
1137.293907	-2.984100	3.552500	-10.600000	25.586226	0.000829	20.732043
1138.297632	-2.980800	3.553000	-10.589000	25.609335	0.000826	20.745770
1139.305116	-3.015900	3.550900	-10.708000	25.627469	0.000827	20.735059
1140.299415	-2.987800	3.551700	-10.611000	25.600837	0.000827	20.750038
1141.300344	-3.027300	3.550700	-10.747000	25.609517	0.000825	20.729830
1142.299693	-2.995800	3.550000	-10.633000	25.630120	0.000824	20.747205
1143.301141	-3.006400	3.549500	-10.671000	25.605498	0.000826	20.742390
1144.297683	-3.002800	3.549700	-10.658000	25.619189	0.000824	20.750925
1145.298579	-3.020800	3.548900	-10.720000	25.559302	0.000825	20.749576
1146.302888	-3.006800	3.549400	-10.671000	25.544230	0.000825	20.742499
1147.304162	-3.000600	3.548500	-10.646000	25.484641	0.000824	20.749040
1148.303070	-3.012500	3.548500	-10.688000	25.475222	0.000823	20.741478
1149.304456	-2.993600	3.548300	-10.621000	25.470597	0.000823	20.751058
1150.302875	-3.015500	3.547600	-10.696000	25.493976	0.000822	20.743715
1151.302496	-3.013400	3.547400	-10.688000	25.541687	0.000822	20.731410
1152.303463	-3.025400	3.546800	-10.729000	25.556565	0.000819	20.752517
1153.300495	-2.958100	3.549500	-10.498000	25.577981	0.000820	20.751265
1154.301775	-2.997400	3.546100	-10.628000	25.583828	0.000819	20.757137
1155.304961	-3.006400	3.546500	-10.661000	25.574409	0.000821	20.750523
1156.305663	-2.995400	3.545800	-10.620000	25.609419	0.000817	20.743958
1157.304139	-2.999900	3.546800	-10.639000	25.611743	0.000818	20.732541
1158.303499	-3.011300	3.545200	-10.675000	25.582435	0.000817	20.747678
1159.306799	-2.998800	3.546600	-10.633000	25.605860	0.000818	20.739434
1160.302554	-3.004200	3.545500	-10.649000	25.601393	0.000815	20.766243
1161.307737	-2.975100	3.545500	-10.548000	25.639234	0.000817	20.746401
1162.310087	-2.979300	3.544400	-10.558000	25.599940	0.000815	20.756249
1163.308955	-2.975600	3.544500	-10.546000	25.568937	0.000815	20.751191
1164.312945	-2.976700	3.543300	-10.546000	25.545282	0.000814	20.750194
1165.311918	-2.989900	3.542800	-10.592000	25.533902	0.000814	20.764845
1166.310523	-3.022800	3.541100	-10.703000	25.557436	0.000814	20.751021
1167.312130	-2.998000	3.542700	-10.620000	25.558562	0.000813	20.779653
1168.311522	-3.002500	3.543500	-10.637000	25.570692	0.000812	20.770972
1169.319211	-2.983200	3.542900	-10.567000	25.561903	0.000811	20.746498
1170.310737	-3.007700	3.542700	-10.654000	25.562109	0.000810	20.740540
1171.312076	-3.023400	3.540500	-10.703000	25.551322	0.000811	20.738716
1172.314760	-2.972000	3.542300	-10.527000	25.518478	0.000812	20.742242
1173.311475	-3.006000	3.540900	-10.643000	25.514664	0.000811	20.756431
1174.312096	-3.021800	3.539800	-10.695000	25.530100	0.000809	20.739214
1175.314263	-3.001400	3.540200	-10.624000	25.576357	0.000808	20.758644
1176.313590	-3.003900	3.541300	-10.636000	25.542678	0.000808	20.792151
1177.310799	-2.995800	3.540500	-10.606000	25.525681	0.000808	20.757537
1178.310071	-2.989900	3.539300	-10.581000	25.513344	0.000806	20.759847
1179.311014	-2.979700	3.540400	-10.549000	25.512581	0.000804	20.754339
1180.310571	-2.990500	3.539700	-10.584000	25.511092	0.000806	20.759482
1181.313078	-3.008400	3.538300	-10.643000	25.533017	0.000806	20.756369
1182.316995	-2.995100	3.537600	-10.594000	25.566805	0.000804	20.764698
1183.316509	-3.025500	3.537200	-10.701000	25.561200	0.000804	20.751008
1184.314867	-3.004900	3.537700	-10.630000	25.583850	0.000804	20.770910
1185.312194	-3.017900	3.535700	-10.669000	25.616511	0.000804	20.769573
1186.313764	-3.009500	3.536200	-10.641000	25.682665	0.000802	20.740235
1187.313373	-2.996700	3.537000	-10.597000	25.672218	0.000801	20.758667
1188.314123	-3.009400	3.537200	-10.643000	25.725260	0.000802	20.758837
1189.313540	-2.995800	3.535000	-10.587000	25.702116	0.000803	20.743177
1190.314197	-3.002000	3.536100	-10.615000	25.757674	0.000800	20.769585
1191.315099	-2.992400	3.535200	-10.578000	25.739688	0.000800	20.768588
1192.316570	-2.983400	3.535100	-10.544000	25.764295	0.000800	20.782399
1193.316207	-3.005300	3.534900	-10.622000	25.774801	0.000800	20.762606
1194.319004	-2.987200	3.535000	-10.559000	25.742980	0.000799	20.759566
1195.317186	-3.006600	3.534400	-10.626000	25.729859	0.000799	20.768673
1196.319059	-2.989900	3.533300	-10.563000	25.752881	0.000798	20.782788
1197.316274	-3.014300	3.532600	-10.646000	25.741164	0.000796	20.774338
1198.316005	-3.028300	3.532400	-10.695000	25.700966	0.000796	20.775688
1199.322927	-2.992700	3.531900	-10.569000	25.647512	0.000797	20.774630
1200.316349	-3.010300	3.530800	-10.627000	25.622865	0.000797	20.770739
1201.317742	-3.006500	3.531400	-10.617000	25.622248	0.000796	20.779128
1202.318510	-2.993100	3.531300	-10.568000	25.608884	0.000797	20.775189
1203.318910	-2.989700	3.530300	-10.553000	25.654545	0.000795	20.792125
1204.322114	-2.996900	3.529400	-10.576000	25.656699	0.000796	20.766788
1205.319818	-3.003800	3.529000	-10.599000	25.682107	0.000791	20.785195
1206.323082	-3.009900	3.529100	-10.621000	25.736371	0.000794	20.767153
1207.320726	-2.998200	3.529600	-10.581000	25.738101	0.000792	20.775530
1208.320423	-2.989000	3.527800	-10.544000	25.774994	0.000791	20.770387
1209.317787	-2.991300	3.528700	-10.554000	25.795243	0.000793	20.780295
1210.318398	-2.984400	3.529000	-10.532000	25.843631	0.000790	20.779116
1211.317161	-3.000400	3.528300	-10.584000	25.824412	0.000790	20.784466
1212.324744	-3.006000	3.525900	-10.597000	25.830124	0.000791	20.789256
1213.327250	-3.001600	3.527300	-10.586000	25.826651	0.000790	20.783870
1214.324588	-3.012000	3.526500	-10.620000	25.805979	0.000787	20.785390
1215.327602	-2.993400	3.527900	-10.558000	25.792992	0.000787	20.787043
1216.320881	-3.011000	3.526400	-10.617000	25.787448	0.000787	20.785268
1217.323668	-3.022900	3.525500	-10.656000	25.741914	0.000785	20.776514
1218.325952	-2.981700	3.526200	-10.513000	25.710903	0.000787	20.788988
1219.324708	-3.016500	3.524900	-10.632000	25.675546	0.000787	20.798046
1220.322431	-2.997400	3.526600	-10.569000	25.687215	0.000784	20.784636
1221.327021	-2.993800	3.525400	-10.554000	25.685496	0.000786	20.799979
1222.323199	-3.026700	3.524600	-10.667000	25.700566	0.000784	20.789037
1223.327706	-3.006500	3.523500	-10.592000	25.694563	0.000785	20.796283
1224.326815	-2.990500	3.523700	-10.537000	25.753328	0.000785	20.796514
1225.329342	-3.000700	3.522600	-10.570000	25.753631	0.000782	20.783068
1226.328939	-3.028500	3.520800	-10.661000	25.768966	0.000782	20.810800
1227.331191	-2.986700	3.523700	-10.522000	25.767248	0.000783	20.808599
1228.326025	-2.997700	3.522400	-10.558000	25.796345	0.000783	20.801317
1229.325664	-2.987900	3.521300	-10.520000	25.805216	0.000783	20.787943
1230.328705	-3.008200	3.521000	-10.591000	25.786481	0.000782	20.811797
1231.325378	-2.966300	3.522000	-10.446000	25.752978	0.000781	20.785256
1232.327178	-3.008300	3.519900	-10.588000	25.703641	0.000781	20.802557
1233.328033	-3.001000	3.520000	-10.562000	25.683887	0.000779	20.799785
1234.330059	-3.003100	3.519400	-10.569000	25.674118	0.000778	20.792819
1235.328358	-3.008400	3.519100	-10.585000	25.694684	0.000777	20.807785
1236.329748	-2.995800	3.520300	-10.545000	25.732994	0.000780	20.813548
1237.327863	-3.013100	3.517300	-10.597000	25.740378	0.000778	20.823334
1238.331634	-2.982500	3.518100	-10.491000	25.775043	0.000776	20.818326
1239.332569	-3.006300	3.517900	-10.575000	25.745909	0.000779	20.813244
1240.333098	-3.013100	3.516800	-10.594000	25.744505	0.000776	20.788126
1241.330550	-2.998000	3.516900	-10.543000	25.716678	0.000776	20.815651
1242.339159	-3.015900	3.516200	-10.602000	25.659181	0.000775	20.811481
1243.334298	-3.025600	3.515600	-10.636000	25.642707	0.000774	20.831918
1244.330989	-3.014700	3.515800	-10.598000	25.650308	0.000775	20.825803
1245.334671	-3.012600	3.514500	-10.587000	25.642949	0.000773	20.808928
1246.334916	-3.002100	3.515400	-10.553000	25.668199	0.000774	20.821961
1247.332932	-3.008100	3.515000	-10.573000	25.650151	0.000774	20.818058
1248.335027	-2.988800	3.514600	-10.503000	25.693571	0.000772	20.817098
1249.336174	-3.006300	3.514000	-10.563000	25.691029	0.000770	20.803639
1250.335041	-3.016800	3.513700	-10.598000	25.727693	0.000769	20.842835
1251.336413	-2.988700	3.514200	-10.502000	25.764380	0.000772	20.828951
1252.335948	-2.985600	3.514000	-10.491000	25.775515	0.000770	20.825912
1253.336774	-2.959000	3.514600	-10.399000	25.743343	0.000770	20.832477
1254.335695	-2.976900	3.513200	-10.457000	25.765602	0.000770	20.818326
1255.332768	-2.976300	3.513300	-10.455000	25.786941	0.000770	20.795664
1256.339688	-3.023400	3.511200	-10.614000	25.730126	0.000767	20.827261
1257.334200	-2.993000	3.512600	-10.512000	25.715044	0.000767	20.818277
1258.333516	-3.017500	3.510700	-10.592000	25.744868	0.000767	20.807931
1259.349936	-2.999200	3.510800	-10.528000	25.726773	0.000766	20.821997
1260.336312	-3.022800	3.509300	-10.607000	25.700894	0.000765	20.810229
1261.338511	-2.994400	3.512200	-10.516000	25.674929	0.000763	20.835358
1262.335886	-3.005500	3.509600	-10.548000	25.672775	0.000766	20.834616
1263.339425	-3.004400	3.509300	-10.542000	25.693425	0.000763	20.811262
1264.337803	-2.998900	3.509700	-10.523000	25.710069	0.000763	20.843151
1265.336208	-3.006500	3.509100	-10.548000	25.724594	0.000763	20.822179
1266.334784	-2.996200	3.509900	-10.516000	25.755277	0.000763	20.805584
1267.336508	-3.015500	3.508200	-10.578000	25.800787	0.000761	20.801511
1268.340202	-3.000700	3.508000	-10.525000	25.832340	0.000763	20.837947
1269.342035	-2.995400	3.506600	-10.502000	25.831831	0.000761	20.808040
1270.339979	-2.997100	3.506000	-10.506000	25.865489	0.000761	20.826677
1271.340102	-2.988600	3.506500	-10.478000	25.853773	0.000761	20.810642
1272.341238	-2.999500	3.505600	-10.513000	25.874699	0.000762	20.803213
1273.339154	-3.008300	3.505400	-10.543000	25.855516	0.000760	20.810021
1274.340101	-2.999800	3.506300	-10.516000	25.871758	0.000759	20.815906
1275.336815	-2.981400	3.506900	-10.454000	25.902304	0.000758	20.793487
1276.339575	-3.019700	3.504000	-10.580000	25.893312	0.000759	20.801997
1277.348450	-2.981300	3.506400	-10.452000	25.870306	0.000758	20.789317
1278.340666	-2.989300	3.506000	-10.479000	25.870741	0.000758	20.793548
1279.345776	-3.002700	3.503500	-10.519000	25.863637	0.000758	20.793523
1280.344044	-3.023400	3.503300	-10.591000	25.872060	0.000758	20.807201
1281.345515	-2.986100	3.503000	-10.459000	25.877180	0.000757	20.803809
1282.346069	-2.995700	3.502800	-10.493000	25.876260	0.000754	20.788660
1283.345547	-2.981900	3.502000	-10.441000	25.861846	0.000754	20.790776
1284.343694	-2.985700	3.501500	-10.453000	25.900077	0.000754	20.791724
1285.347098	-2.994800	3.501200	-10.484000	25.895575	0.000755	20.783882
1286.350977	-2.996500	3.501100	-10.490000	25.906116	0.000753	20.784988
1287.355278	-3.014800	3.500400	-10.552000	25.898359	0.000752	20.780514
1288.347755	-3.002400	3.500300	-10.507000	25.876925	0.000753	20.792174
1289.347786	-2.985800	3.500300	-10.450000	25.882420	0.000751	20.794374
1290.348315	-3.005500	3.499000	-10.514000	25.876284	0.000751	20.787736
1291.348738	-2.967500	3.500000	-10.386000	25.869337	0.000751	20.803042
1292.347996	-3.008100	3.498600	-10.523000	25.854535	0.000752	20.809036
1293.348546	-2.991100	3.499600	-10.466000	25.870934	0.000749	20.766240
1294.349125	-2.984700	3.498900	-10.443000	25.846886	0.000750	20.795663
1295.344669	-2.993200	3.498900	-10.472000	25.849501	0.000749	20.771736
1296.350755	-3.016200	3.498600	-10.551000	25.805627	0.000750	20.785511
1297.348650	-2.989800	3.498900	-10.459000	25.768203	0.000749	20.802921
1298.352225	-3.001900	3.496500	-10.495000	25.789990	0.000746	20.776915
1299.349938	-3.005300	3.496700	-10.508000	25.816472	0.000747	20.776015
1300.351946	-3.013700	3.495600	-10.533000	25.807733	0.000745	20.774824
1301.351174	-3.005700	3.496400	-10.509000	25.826747	0.000745	20.777802
1302.349673	-3.014900	3.494900	-10.535000	25.852829	0.000746	20.785985
1303.351019	-3.001200	3.495800	-10.490000	25.887853	0.000745	20.794143
1304.352063	-3.002200	3.494500	-10.490000	25.914720	0.000744	20.785571
1305.349957	-2.986800	3.495700	-10.440000	25.957621	0.000743	20.786945
1306.347171	-2.965500	3.495300	-10.364000	25.959606	0.000743	20.769024
1307.347406	-2.995200	3.494300	-10.465000	25.996575	0.000743	20.754483
1308.351291	-3.011300	3.492200	-10.514000	25.998789	0.000741	20.774252
1309.350554	-3.017100	3.491800	-10.534000	25.982767	0.000740	20.779966
1310.358063	-2.991700	3.492800	-10.449000	25.972869	0.000740	20.763383
1311.357046	-3.014300	3.490900	-10.521000	25.995304	0.000739	20.776915
1312.354164	-2.983000	3.492300	-10.415000	25.968427	0.000741	20.799225
1313.352014	-3.006000	3.490500	-10.491000	25.947419	0.000739	20.766739
1314.356184	-3.008400	3.490000	-10.498000	25.945531	0.000740	20.769109
1315.351763	-2.999400	3.490500	-10.468000	25.947165	0.000740	20.758422
1316.349304	-3.020000	3.490200	-10.539000	25.937060	0.000738	20.783359
1317.354600	-3.007200	3.490500	-10.495000	25.914163	0.000738	20.759881
1318.359969	-2.986200	3.490000	-10.421000	25.885348	0.000737	20.775030
1319.350122	-3.001000	3.489200	-10.470000	25.864411	0.000735	20.773912
1320.355464	-3.002500	3.490100	-10.478000	25.863963	0.000737	20.762556
1321.357323	-3.007200	3.487900	-10.487000	25.885154	0.000735	20.766301
1322.358894	-3.003000	3.488300	-10.475000	25.878244	0.000735	20.782593
1323.357321	-3.002200	3.488200	-10.471000	25.862232	0.000734	20.777887
1324.358581	-2.984700	3.487100	-10.407000	25.851243	0.000733	20.751200
1325.355388	-3.002700	3.485800	-10.464000	25.847648	0.000732	20.760866
1326.354764	-2.991500	3.486900	-10.430000	25.852417	0.000732	20.780830
1327.355072	-2.982400	3.485600	-10.395000	25.861567	0.000731	20.758726
1328.358520	-2.996000	3.486500	-10.445000	25.828671	0.000731	20.771675
1329.357566	-2.982200	3.486100	-10.395000	25.844320	0.000731	20.774593
1330.358228	-3.002000	3.484400	-10.459000	25.881209	0.000728	20.756173
1331.358694	-2.996500	3.484600	-10.441000	25.857210	0.000729	20.743443
1332.360109	-2.979700	3.485200	-10.383000	25.845664	0.000730	20.759346
1333.358841	-2.989600	3.485800	-10.420000	25.790837	0.000730	20.774447
1334.358535	-3.029300	3.481800	-10.545000	25.791720	0.000730	20.753997
1335.355925	-3.000100	3.481700	-10.445000	25.796743	0.000729	20.749559
1336.361754	-3.010300	3.481600	-10.480000	25.804102	0.000728	20.762167
1337.358062	-3.008700	3.481500	-10.473000	25.777898	0.000729	20.763346
1338.359982	-3.003200	3.482600	-10.458000	25.731916	0.000726	20.755091
1339.360935	-3.020300	3.480700	-10.512000	25.724665	0.000727	20.749705
1340.362705	-2.985100	3.481300	-10.391000	25.719291	0.000728	20.765170
1341.363319	-3.016900	3.479200	-10.496000	25.709947	0.000725	20.758629
1342.361196	-3.010200	3.479500	-10.473000	25.740679	0.000726	20.744453
1343.360051	-3.001100	3.479500	-10.441000	25.751693	0.000725	20.753146
1344.361826	-2.978200	3.481900	-10.367000	25.774545	0.000726	20.749073
1345.358815	-3.009000	3.478700	-10.466000	25.774485	0.000725	20.752331
1346.359382	-3.003800	3.478500	-10.448000	25.766133	0.000725	20.762434
1347.363241	-3.022000	3.477800	-10.508000	25.799491	0.000724	20.741413
1348.361939	-2.978400	3.478100	-10.357000	25.841984	0.000723	20.750908
1349.362906	-2.986200	3.477600	-10.384000	25.828925	0.000723	20.753438
1350.370010	-2.990600	3.478300	-10.401000	25.836708	0.000722	20.765049
1351.363598	-2.993900	3.476000	-10.406000	25.812102	0.000723	20.744124
1352.363596	-2.993400	3.476700	-10.407000	25.833210	0.000723	20.749206
1353.367131	-2.986000	3.476600	-10.380000	25.836090	0.000722	20.753997
1354.361085	-2.972900	3.476300	-10.333000	25.831031	0.000719	20.772149
1355.362461	-2.990600	3.476200	-10.394000	25.810529	0.000720	20.766252
1356.369492	-2.992500	3.476200	-10.401000	25.803497	0.000719	20.739747
1357.362720	-2.985500	3.473700	-10.369000	25.824617	0.000720	20.750057
1358.375934	-2.994700	3.474700	-10.405000	25.832798	0.000717	20.757802
1359.368553	-2.995000	3.475200	-10.407000	25.786334	0.000716	20.754751
1360.365591	-2.978400	3.475000	-10.348000	25.770018	0.000716	20.746896
1361.366076	-3.008700	3.472400	-10.446000	25.767053	0.000715	20.724476
1362.369679	-2.976300	3.472900	-10.334000	25.793221	0.000718	20.752185
1363.369292	-3.002600	3.472700	-10.426000	25.809185	0.000715	20.749729
1364.366555	-2.992500	3.472100	-10.389000	25.815963	0.000714	20.751796
1365.366731	-2.990000	3.471500	-10.378000	25.859110	0.000713	20.740610
1366.363806	-2.981700	3.471700	-10.349000	25.877615	0.000716	20.750191
1367.364768	-2.980700	3.471300	-10.346000	25.890721	0.000713	20.752453
1368.365837	-2.993300	3.471700	-10.390000	25.870038	0.000713	20.760599
1369.366100	-2.990000	3.470200	-10.375000	25.870874	0.000712	20.753851
1370.366058	-2.982200	3.469900	-10.346000	25.883012	0.000711	20.737595
1371.369216	-3.000500	3.469300	-10.408000	25.871091	0.000711	20.755492
1372.365054	-2.996500	3.470500	-10.398000	25.896531	0.000710	20.740270
1373.363698	-3.028100	3.467200	-10.499000	25.917274	0.000710	20.739772
1374.371692	-2.996600	3.469100	-10.395000	25.900791	0.000708	20.744550
1375.365936	-3.013300	3.466300	-10.443000	25.862220	0.000711	20.761754
1376.366046	-2.985600	3.468200	-10.354000	25.827425	0.000708	20.730592
1377.367601	-3.003100	3.466900	-10.410000	25.809706	0.000706	20.745985
1378.369715	-2.998400	3.467000	-10.394000	25.806765	0.000707	20.761049
1379.365851	-3.013200	3.465300	-10.440000	25.828187	0.000707	20.734203
1380.373677	-2.982700	3.466900	-10.339000	25.856581	0.000706	20.736173
1381.368407	-2.980600	3.465700	-10.329000	25.875182	0.000708	20.746799
1382.369380	-3.015000	3.462700	-10.439000	25.843110	0.000708	20.736866
1383.371038	-3.008000	3.465000	-10.421000	25.836877	0.000707	20.753839
1384.371109	-3.012100	3.464300	-10.434000	25.829773	0.000704	20.733425
1385.370979	-3.015000	3.463200	-10.440000	25.811413	0.000707	20.747225
1386.371828	-2.998400	3.464800	-10.388000	25.805095	0.000705	20.732817
1387.371033	-2.994600	3.462900	-10.368000	25.808351	0.000705	20.735140
1388.370914	-3.009400	3.462100	-10.418000	25.772815	0.000704	20.739274
1389.372649	-2.980100	3.463400	-10.319000	25.756342	0.000705	20.758289
1390.370886	-2.990000	3.462800	-10.353000	25.744141	0.000702	20.737498
1391.371451	-3.002800	3.462500	-10.395000	25.773469	0.000702	20.756052
1392.377500	-3.003400	3.461100	-10.394000	25.762055	0.000703	20.731784
1393.371907	-2.998200	3.460400	-10.374000	25.794202	0.000702	20.717133
1394.372686	-2.998900	3.460400	-10.377000	25.783999	0.000701	20.720635
1395.373264	-3.014800	3.459100	-10.428000	25.755894	0.000701	20.721802
1396.372969	-2.994100	3.458800	-10.355000	25.749806	0.000700	20.743189
1397.374864	-2.984300	3.460300	-10.326000	25.735197	0.000699	20.713814
1398.379427	-2.976200	3.460900	-10.299000	25.732340	0.000700	20.742240
1399.377610	-2.994200	3.458500	-10.354000	25.738949	0.000699	20.711419
1400.373429	-3.000400	3.458000	-10.375000	25.768724	0.000699	20.729474
1401.377213	-3.013700	3.456400	-10.415000	25.811268	0.000699	20.729061
1402.376276	-2.998200	3.458300	-10.367000	25.868672	0.000697	20.718446
1403.376442	-3.003300	3.457700	-10.384000	25.875727	0.000697	20.741657
1404.374971	-2.991700	3.456300	-10.339000	25.900549	0.000697	20.711589
1405.377142	-2.981700	3.457200	-10.307000	25.909081	0.000697	20.732490
1406.372974	-3.006700	3.456700	-10.392000	25.965947	0.000695	20.719918
1407.376179	-3.000400	3.455100	-10.366000	25.969747	0.000694	20.716148
1408.378860	-3.003300	3.454300	-10.373000	26.005385	0.000696	20.730143
1409.378660	-2.973400	3.454000	-10.269000	26.012827	0.000694	20.730508
1410.400098	-3.005900	3.453400	-10.380000	26.014207	0.000694	20.733316
1411.376944	-3.010000	3.454300	-10.395000	26.030761	0.000693	20.712963
1412.379132	-3.014400	3.453700	-10.410000	26.009584	0.000692	20.734362
1413.376246	-2.995500	3.451800	-10.339000	26.057697	0.000691	20.742399
1414.385546	-2.985100	3.452900	-10.305000	25.991554	0.000690	20.700597
1415.375806	-2.999700	3.451700	-10.353000	25.977395	0.000688	20.743274
1416.376335	-3.007700	3.451200	-10.379000	25.969300	0.000691	20.734192
1417.374955	-3.000200	3.451400	-10.353000	25.962789	0.000691	20.729547
1418.377847	-3.009600	3.450500	-10.383000	25.969288	0.000689	20.727541
1419.375760	-3.002100	3.451100	-10.358000	25.939760	0.000690	20.731067
1420.378769	-2.983200	3.450300	-10.292000	25.980953	0.000688	20.734046
1421.379334	-3.019600	3.449200	-10.414000	25.971998	0.000688	20.740222
1422.378488	-3.001600	3.449700	-10.353000	25.996055	0.000686	20.720769
1423.379994	-2.981800	3.451200	-10.290000	25.981800	0.000686	20.739639
1424.383735	-2.982200	3.449300	-10.286000	25.960550	0.000685	20.733462
1425.383156	-2.999100	3.449000	-10.343000	25.968852	0.000686	20.730897
1426.387394	-3.007200	3.448600	-10.369000	25.982042	0.000686	20.726131
1427.385287	-2.998300	3.447200	-10.333000	25.999782	0.000684	20.714081
1428.381345	-2.992100	3.446700	-10.312000	25.993357	0.000684	20.740344
1429.386377	-2.998100	3.447500	-10.335000	26.029406	0.000682	20.713024
1430.387279	-2.982300	3.446500	-10.277000	26.024081	0.000682	20.701983
1431.384886	-3.015400	3.444700	-10.386000	26.029841	0.000681	20.710142
1432.388672	-2.985800	3.446800	-10.290000	26.042232	0.000681	20.713109
1433.390777	-2.993900	3.444600	-10.312000	26.050981	0.000680	20.719054
1434.383342	-3.004400	3.444700	-10.347000	26.047665	0.000680	20.708136
1435.389161	-3.008600	3.445000	-10.363000	26.092315	0.000679	20.711273
1436.392406	-3.001400	3.444200	-10.336000	26.059802	0.000681	20.721279
1437.388682	-2.989000	3.442600	-10.289000	26.087233	0.000680	20.707115
1438.388422	-2.993800	3.443400	-10.309000	26.072169	0.000679	20.716160
1439.397264	-2.987200	3.442300	-10.282000	26.005409	0.000677	20.705035
1440.390123	-3.005400	3.441500	-10.341000	25.958759	0.000677	20.696099
1441.388087	-3.013200	3.440800	-10.367000	25.970292	0.000680	20.695831
1442.389871	-3.001300	3.442500	-10.331000	25.979852	0.000678	20.724878
1443.396934	-3.015900	3.440500	-10.375000	25.948642	0.000675	20.708221
1444.393411	-3.004800	3.440200	-10.336000	25.977371	0.000676	20.701521
1445.390790	-2.997100	3.439700	-10.308000	25.954475	0.000676	20.707443
1446.390421	-2.991100	3.440200	-10.289000	25.952974	0.000675	20.709728
1447.395374	-2.995300	3.439400	-10.300000	25.962898	0.000673	20.716379
1448.397376	-3.013300	3.439400	-10.363000	25.934713	0.000672	20.698020
1449.390842	-3.015600	3.438700	-10.369000	25.966964	0.000673	20.711455
1450.393023	-2.999900	3.438400	-10.314000	25.956786	0.000672	20.688426
1451.394244	-2.988200	3.439200	-10.276000	25.941260	0.000673	20.692743
1452.390341	-3.002600	3.437400	-10.320000	25.961627	0.000673	20.700877
1453.399394	-3.013300	3.436300	-10.353000	25.963212	0.000671	20.690141
1454.396687	-3.014300	3.437300	-10.360000	25.996055	0.000670	20.689946
1455.391795	-2.983900	3.438100	-10.257000	25.964870	0.000669	20.694652
1456.395747	-2.992300	3.436300	-10.281000	25.955552	0.000671	20.697144
1457.392890	-2.995700	3.436100	-10.293000	25.987693	0.000669	20.704780
1458.391272	-2.979800	3.435800	-10.237000	25.989763	0.000670	20.708282
1459.392249	-2.981100	3.435500	-10.240000	25.999262	0.000668	20.692694
1460.393507	-3.012400	3.434700	-10.345000	26.034367	0.000669	20.699041
1461.390687	-3.021600	3.433500	-10.373000	26.038505	0.000667	20.701777
1462.398207	-2.994000	3.434000	-10.281000	26.057455	0.000667	20.687624
1463.395723	-3.021500	3.432400	-10.370000	26.045741	0.000667	20.708573
1464.394186	-3.008200	3.433300	-10.327000	25.986628	0.000667	20.707503
1465.395242	-3.003800	3.432600	-10.309000	25.973511	0.000666	20.688159
1466.397885	-3.002100	3.432900	-10.305000	25.939844	0.000664	20.704123
1467.394546	-2.996000	3.432900	-10.284000	25.942664	0.000665	20.682772
1468.394607	-2.986900	3.432300	-10.251000	25.965597	0.000664	20.699175
1469.394412	-2.985200	3.430900	-10.241000	25.926690	0.000664	20.704184
1470.393347	-2.999100	3.431100	-10.289000	25.918025	0.000664	20.684572
1471.396166	-2.986700	3.431000	-10.247000	25.929679	0.000664	20.701023
1472.398264	-3.002800	3.429200	-10.295000	25.935633	0.000662	20.697047
1473.396144	-2.987600	3.429800	-10.246000	25.944261	0.000662	20.690542
1474.399399	-2.990100	3.428900	-10.251000	25.915858	0.000662	20.687138
1475.399738	-2.991700	3.429900	-10.260000	25.951656	0.000662	20.681374
1476.397997	-3.010500	3.428100	-10.319000	25.948424	0.000660	20.682870
1477.399324	-3.010500	3.427700	-10.318000	25.944479	0.000661	20.684596
1478.398786	-3.028500	3.426200	-10.374000	25.939300	0.000660	20.671805
1479.400046	-2.992300	3.427200	-10.254000	25.944383	0.000659	20.671696
1480.402111	-3.007300	3.425200	-10.299000	25.973596	0.000659	20.672596
1481.394722	-3.016200	3.425100	-10.329000	25.955298	0.000660	20.679344
1482.399838	-2.992800	3.426300	-10.254000	25.932668	0.000659	20.679842
1483.402998	-2.980700	3.426700	-10.213000	25.932414	0.000659	20.691916
1484.399984	-3.010800	3.423600	-10.307000	25.931918	0.000657	20.699953
1485.400858	-3.007900	3.425100	-10.301000	25.974225	0.000656	20.706422
1486.402871	-3.001000	3.423600	-10.274000	26.022908	0.000654	20.685630
1487.403882	-3.015100	3.423500	-10.320000	26.046250	0.000656	20.706239
1488.397166	-3.019400	3.422100	-10.331000	26.062501	0.000654	20.679417
1489.406071	-3.021000	3.422400	-10.338000	26.098741	0.000656	20.710142
1490.399077	-3.006700	3.422100	-10.288000	26.141936	0.000654	20.685739
1491.403394	-3.007400	3.422500	-10.292000	26.142650	0.000656	20.681241
1492.404579	-2.992900	3.422400	-10.241000	26.141719	0.000652	20.694056
1493.400982	-3.015900	3.422200	-10.320000	26.150975	0.000651	20.701461
1494.399654	-2.995800	3.420600	-10.246000	26.118730	0.000653	20.684232
1495.402593	-3.002400	3.420600	-10.269000	26.107453	0.000653	20.672900
1496.403347	-3.003600	3.421500	-10.276000	26.111107	0.000653	20.675149
1497.404939	-2.988000	3.421000	-10.222000	26.117241	0.000650	20.680839
1498.403723	-3.007400	3.420500	-10.286000	26.108433	0.000650	20.696646
1499.403294	-2.969600	3.419900	-10.154000	26.077457	0.000649	20.682116
1500.402471	-2.991200	3.419600	-10.228000	26.065393	0.000650	20.700342
1501.409492	-2.996700	3.419000	-10.245000	26.073367	0.000650	20.682274
1502.401244	-2.991900	3.419500	-10.230000	26.070862	0.000648	20.671221
1503.405662	-3.013600	3.416600	-10.295000	26.027748	0.000649	20.679113
1504.406478	-2.981300	3.417800	-10.189000	26.026477	0.000648	20.674517
1505.406934	-2.978700	3.417100	-10.178000	26.014497	0.000646	20.687138
1506.406637	-2.994500	3.417300	-10.232000	26.052893	0.000647	20.685885
1507.411596	-2.978000	3.417400	-10.176000	26.069422	0.000647	20.684949
1508.408290	-3.019200	3.415800	-10.312000	26.081462	0.000645	20.691357
1509.420813	-3.040700	3.413800	-10.380000	26.097107	0.000647	20.697120
1510.411140	-3.015100	3.415300	-10.296000	26.065235	0.000644	20.674577
1511.410358	-2.965100	3.415700	-10.126000	26.032068	0.000643	20.702421
1512.411148	-2.999800	3.415200	-10.244000	26.022895	0.000644	20.692257
1513.409983	-2.988400	3.414600	-10.203000	26.032140	0.000644	20.682578
1514.411627	-2.999800	3.413800	-10.240000	26.055301	0.000643	20.674079
1515.409477	-3.008100	3.412500	-10.264000	26.080723	0.000642	20.684450
1516.412499	-2.992800	3.413500	-10.215000	26.073536	0.000642	20.682919
1517.410055	-2.991700	3.413900	-10.211000	26.047907	0.000642	20.673289
1518.409770	-2.991800	3.414000	-10.213000	26.035589	0.000642	20.668972
1519.415824	-2.996800	3.412000	-10.225000	26.015744	0.000641	20.687916
1520.413780	-3.014900	3.411800	-10.286000	26.022895	0.000639	20.678505
1521.410058	-2.996300	3.411000	-10.219000	26.053074	0.000640	20.694129
1522.411949	-2.970100	3.412200	-10.132000	26.020790	0.000640	20.700099
1523.411926	-3.011200	3.410500	-10.269000	25.995717	0.000638	20.684864
1524.416790	-3.007000	3.410800	-10.255000	25.964229	0.000640	20.689740
1525.418237	-2.985800	3.410400	-10.182000	26.004732	0.000636	20.686809
1526.412351	-2.999000	3.408800	-10.222000	25.978327	0.000637	20.696318
1527.412235	-2.997900	3.409600	-10.220000	25.998149	0.000635	20.701534
1528.417961	-3.017000	3.408600	-10.283000	26.010528	0.000636	20.684098
1529.417398	-3.007900	3.407300	-10.247000	26.036001	0.000635	20.696415
1530.415456	-3.014200	3.408500	-10.272000	26.049892	0.000635	20.684292
1531.415010	-2.978400	3.408100	-10.150000	26.074782	0.000636	20.684171
1532.416323	-3.009200	3.406900	-10.250000	26.103859	0.000633	20.692050
1533.413589	-2.997000	3.407900	-10.212000	26.117907	0.000632	20.695734
1534.418592	-3.010100	3.406500	-10.252000	26.132063	0.000634	20.686250
1535.413043	-3.018400	3.406000	-10.278000	26.196395	0.000633	20.716282
1536.416349	-3.007300	3.405700	-10.241000	26.204513	0.000634	20.689825
1537.419278	-3.000900	3.405600	-10.219000	26.219467	0.000631	20.696317
1538.417105	-3.008400	3.403300	-10.238000	26.207102	0.000630	20.685788
1539.416137	-3.017800	3.404400	-10.273000	26.199734	0.000632	20.700670
1540.416513	-2.993100	3.405100	-10.190000	26.226133	0.000629	20.683575
1541.417353	-2.999400	3.403100	-10.206000	26.214700	0.000628	20.705278
1542.414515	-2.994200	3.402800	-10.188000	26.228299	0.000630	20.687174
1543.418467	-2.976100	3.404500	-10.131000	26.238812	0.000629	20.700585
1544.418098	-3.036500	3.400300	-10.324000	26.191470	0.000628	20.681459
1545.418677	-2.995000	3.402300	-10.189000	26.141016	0.000627	20.690505
1546.417750	-2.989300	3.402400	-10.170000	26.126376	0.000628	20.681009
1547.415826	-3.012300	3.400400	-10.243000	26.091105	0.000629	20.692037
1548.415549	-2.982600	3.401500	-10.145000	26.039630	0.000627	20.701959
1549.418386	-3.036900	3.399800	-10.323000	26.024916	0.000627	20.678164
1550.415339	-2.990500	3.401200	-10.170000	26.048609	0.000627	20.680158
1551.419765	-3.015800	3.399300	-10.250000	26.053388	0.000626	20.704403
1552.422973	-3.009600	3.399700	-10.231000	26.068115	0.000624	20.683161
1553.415623	-2.997200	3.399100	-10.187000	26.119370	0.000626	20.682505
1554.420611	-2.981900	3.400000	-10.138000	26.146135	0.000625	20.668145
1555.419001	-2.985700	3.398500	-10.145000	26.156552	0.000623	20.704220
1556.419786	-3.010700	3.398100	-10.229000	26.173092	0.000623	20.677215
1557.419295	-2.990300	3.398800	-10.162000	26.130151	0.000623	20.705667
1558.418555	-2.988900	3.398200	-10.156000	26.089544	0.000623	20.689520
1559.420965	-2.986300	3.397100	-10.143000	26.059318	0.000622	20.708938
1560.419751	-3.014500	3.395700	-10.235000	26.067691	0.000622	20.704549
1561.421106	-2.993200	3.396300	-10.165000	26.084498	0.000623	20.695357
1562.418887	-2.983400	3.396700	-10.132000	26.119479	0.000621	20.691624
1563.417392	-2.993400	3.396000	-10.164000	26.134894	0.000619	20.697156
1564.422745	-3.023400	3.393900	-10.260000	26.145481	0.000619	20.703053
1565.420255	-2.988300	3.395500	-10.146000	26.159686	0.000619	20.690298
1566.424677	-2.987100	3.395000	-10.140000	26.139891	0.000619	20.680839
1567.423056	-2.993300	3.394500	-10.160000	26.148179	0.000617	20.698652
1568.424279	-2.992200	3.393300	-10.152000	26.148530	0.000617	20.703272
1569.426219	-2.997900	3.393100	-10.171000	26.128082	0.000617	20.701691
1570.423981	-3.000100	3.392300	-10.175000	26.171398	0.000617	20.706810
1571.421197	-2.990700	3.392000	-10.142000	26.165844	0.000618	20.691745
1572.435462	-2.987900	3.392500	-10.135000	26.162977	0.000617	20.697399
1573.427835	-2.999100	3.393200	-10.176000	26.127295	0.000615	20.691891
1574.422024	-2.986000	3.391700	-10.126000	26.169510	0.000614	20.720562
1575.422958	-3.013300	3.391300	-10.217000	26.182287	0.000615	20.705898
1576.424126	-2.994000	3.391400	-10.153000	26.172257	0.000613	20.706725
1577.425280	-3.001100	3.391000	-10.176000	26.190841	0.000612	20.706907
1578.423149	-3.010800	3.390600	-10.207000	26.160871	0.000614	20.699551
1579.430080	-3.005000	3.389100	-10.182000	26.165021	0.000611	20.682857
1580.422885	-2.976500	3.391000	-10.091000	26.164707	0.000613	20.690128
1581.428982	-3.010300	3.389800	-10.202000	26.154846	0.000613	20.702506
1582.429945	-2.999000	3.389000	-10.162000	26.166086	0.000610	20.710482
1583.428670	-3.002100	3.389000	-10.173000	26.166074	0.000609	20.707150
1584.426584	-2.999500	3.388900	-10.164000	26.226193	0.000609	20.706397
1585.423910	-2.997500	3.387600	-10.154000	26.245587	0.000609	20.699332
1586.424363	-3.000800	3.388100	-10.166000	26.286369	0.000609	20.702858
1587.429439	-2.985400	3.387200	-10.110000	26.317267	0.000608	20.720160
1588.423971	-2.974000	3.387500	-10.073000	26.307250	0.000607	20.691125
1589.424430	-2.977500	3.387400	-10.084000	26.305060	0.000608	20.707418
1590.427768	-2.998500	3.386100	-10.152000	26.311327	0.000604	20.704232
1591.423526	-2.998200	3.385000	-10.148000	26.296544	0.000605	20.710713
1592.427582	-3.003700	3.384000	-10.164000	26.290289	0.000604	20.710117
1593.427302	-2.980500	3.385300	-10.089000	26.264944	0.000605	20.697448
1594.426389	-3.003400	3.384100	-10.163000	26.269505	0.000607	20.703454
1595.429176	-3.003400	3.384600	-10.164000	26.227984	0.000603	20.715309
1596.429894	-3.005600	3.384700	-10.173000	26.235207	0.000603	20.713558
1597.429349	-3.004300	3.383200	-10.163000	26.245369	0.000603	20.722349
1598.428444	-3.002600	3.382700	-10.156000	26.199286	0.000603	20.724878
1599.434269	-3.000700	3.383500	-10.151000	26.232859	0.000602	20.713570
1600.429109	-2.988100	3.382500	-10.106000	26.203750	0.000601	20.718932
1601.432925	-3.002800	3.381000	-10.151000	26.195160	0.000601	20.724051
1602.434894	-3.008300	3.379100	-10.164000	26.168639	0.000601	20.709728
1603.435830	-3.000500	3.381300	-10.144000	26.131179	0.000600	20.709546
1604.440252	-3.016900	3.379900	-10.194000	26.084498	0.000599	20.714798
1605.437426	-3.023300	3.380100	-10.218000	26.085055	0.000600	20.732902
1606.432438	-3.008100	3.378400	-10.161000	26.062294	0.000599	20.727577
1607.436166	-3.011900	3.379500	-10.178000	26.070849	0.000598	20.724318
1608.441164	-3.007300	3.379000	-10.160000	26.094057	0.000597	20.722507
1609.432435	-2.989400	3.378900	-10.099000	26.086979	0.000597	20.718713
1610.436302	-3.014000	3.379200	-10.184000	26.091601	0.000599	20.711029
1611.436872	-2.983300	3.378400	-10.078000	26.140714	0.000597	20.730507
1612.434012	-2.999400	3.378200	-10.132000	26.163061	0.000594	20.737316
1613.436816	-2.994700	3.377200	-10.112000	26.183025	0.000593	20.719443
1614.438587	-2.978500	3.376300	-10.056000	26.185856	0.000594	20.728452
1615.439051	-2.979500	3.378300	-10.065000	26.161960	0.000596	20.700645
1616.438451	-2.999900	3.376600	-10.128000	26.140327	0.000595	20.723479
1617.435387	-3.003900	3.375600	-10.139000	26.159347	0.000593	20.718409
1618.435997	-2.999300	3.376400	-10.126000	26.183763	0.000594	20.726823
1619.436100	-2.995700	3.375700	-10.110000	26.180678	0.000591	20.703807
1620.443583	-3.003500	3.374000	-10.133000	26.189619	0.000594	20.720853
1621.439627	-2.994400	3.375800	-10.107000	26.209364	0.000593	20.744015
1622.442183	-2.997100	3.374700	-10.114000	26.195874	0.000592	20.729984
1623.442747	-3.011000	3.373100	-10.155000	26.207549	0.000592	20.741717
1624.437530	-3.010900	3.374300	-10.159000	26.187368	0.000591	20.731395
1625.446838	-3.020300	3.373600	-10.188000	26.185541	0.000591	20.723394
1626.442234	-3.019500	3.372200	-10.181000	26.197519	0.000590	20.739225
1627.442252	-3.010300	3.373000	-10.152000	26.214942	0.000588	20.715479
1628.443822	-2.980600	3.371300	-10.048000	26.204379	0.000588	20.751809
1629.443206	-3.000300	3.372000	-10.116000	26.231226	0.000586	20.747018
1630.441253	-3.004700	3.371700	-10.129000	26.237663	0.000588	20.736890
1631.444220	-2.986600	3.371400	-10.068000	26.230379	0.000587	20.737158
1632.441643	-2.984500	3.372400	-10.064000	26.237288	0.000585	20.731298
1633.445831	-3.033700	3.369600	-10.221000	26.244280	0.000588	20.721729
1634.443944	-3.007400	3.369800	-10.134000	26.228008	0.000587	20.743784
1635.441463	-2.994200	3.369700	-10.088000	26.205432	0.000587	20.742909
1636.443290	-3.010300	3.369900	-10.144000	26.224802	0.000585	20.719224
1637.449379	-3.007700	3.370100	-10.135000	26.262319	0.000586	20.746022
1638.442709	-2.991800	3.369900	-10.081000	26.284954	0.000584	20.744587
1639.445922	-3.008600	3.368100	-10.132000	26.298770	0.000584	20.739979
1640.446464	-3.001200	3.368300	-10.108000	26.287374	0.000584	20.733742
1641.451039	-3.001400	3.366400	-10.103000	26.249193	0.000582	20.755116
1642.447503	-2.990900	3.368200	-10.072000	26.221778	0.000582	20.727091
1643.445665	-2.979300	3.367000	-10.031000	26.227053	0.000584	20.751359
1644.447639	-2.976700	3.366900	-10.021000	26.247124	0.000581	20.751615
1645.455730	-2.979700	3.367500	-10.033000	26.215329	0.000580	20.738155
1646.452272	-3.009800	3.365400	-10.127000	26.229376	0.000580	20.760332
1647.451823	-2.971400	3.366700	-10.002000	26.232533	0.000581	20.741694
1648.450030	-2.995100	3.365700	-10.080000	26.221548	0.000577	20.754363
1649.451328	-2.994100	3.365700	-10.076000	26.204586	0.000579	20.768138
1650.450363	-3.005600	3.366000	-10.115000	26.230235	0.000579	20.764515
1651.448948	-3.000600	3.364300	-10.095000	26.178972	0.000577	20.768004
1652.451731	-3.023100	3.363000	-10.166000	26.164357	0.000576	20.743360
1653.450145	-3.005800	3.362800	-10.107000	26.182530	0.000575	20.755457
1654.448230	-2.979500	3.363700	-10.021000	26.144780	0.000576	20.768260
1655.451041	-3.001200	3.363700	-10.094000	26.123788	0.000575	20.755700
1656.448924	-2.977400	3.363500	-10.012000	26.103339	0.000576	20.752697
1657.450965	-3.006900	3.362000	-10.109000	26.133903	0.000575	20.761123
1658.450015	-2.978700	3.362500	-10.015000	26.112753	0.000573	20.757889
1659.451025	-2.994000	3.361900	-10.065000	26.171217	0.000573	20.762582
1660.450592	-3.006700	3.361400	-10.105000	26.175488	0.000573	20.764029
1661.453901	-2.996000	3.360500	-10.067000	26.208542	0.000571	20.745086
1662.448416	-2.979000	3.361800	-10.014000	26.232885	0.000569	20.777135
1663.451547	-3.015100	3.358100	-10.124000	26.259973	0.000570	20.754570
1664.453220	-3.001200	3.359600	-10.082000	26.284399	0.000572	20.731700
1665.448347	-3.002400	3.358700	-10.083000	26.317220	0.000569	20.764685
1666.453394	-3.002700	3.358400	-10.083000	26.322361	0.000570	20.771749
1667.450170	-2.991800	3.359700	-10.051000	26.319409	0.000569	20.773998
1668.453130	-3.014900	3.357900	-10.122000	26.328700	0.000567	20.756783
1669.452865	-2.995800	3.358500	-10.061000	26.335487	0.000567	20.759810
1670.451098	-2.992900	3.356800	-10.046000	26.330346	0.000565	20.783093
1671.451783	-2.979200	3.358100	-10.004000	26.332862	0.000566	20.764284
1672.454774	-2.994100	3.356000	-10.046000	26.386911	0.000567	20.748904
1673.454613	-3.013700	3.356100	-10.112000	26.385073	0.000565	20.762230
1674.451745	-3.008100	3.355100	-10.091000	26.385363	0.000565	20.781962
1675.451066	-3.020500	3.354300	-10.131000	26.334217	0.000562	20.778923
1676.465371	-3.004100	3.353500	-10.073000	26.333951	0.000565	20.762534
1677.453427	-2.993600	3.355200	-10.043000	26.334374	0.000565	20.789987
1678.457015	-3.014100	3.354400	-10.110000	26.358677	0.000562	20.785014
1679.454902	-3.002500	3.354700	-10.072000	26.348649	0.000563	20.767348
1680.456251	-2.987800	3.354000	-10.020000	26.376775	0.000562	20.763373
1681.459069	-3.001300	3.353400	-10.063000	26.402710	0.000563	20.766206
1682.457121	-2.998600	3.354700	-10.058000	26.411649	0.000559	20.778510
1683.457275	-3.004000	3.353000	-10.071000	26.400061	0.000561	20.787725
1684.459506	-3.004100	3.351800	-10.069000	26.348202	0.000559	20.795349
1685.457205	-3.024800	3.352600	-10.140000	26.376799	0.000560	20.773829
1686.457384	-3.027800	3.350700	-10.144000	26.419089	0.000559	20.756589
1687.458944	-3.015500	3.351200	-10.105000	26.430290	0.000558	20.784917
1688.459693	-3.016400	3.351200	-10.108000	26.386101	0.000557	20.791239
1689.459960	-3.024600	3.350300	-10.132000	26.376992	0.000557	20.773549
1690.458570	-3.006300	3.350000	-10.070000	26.376412	0.000559	20.786716
1691.459622	-3.003000	3.350300	-10.060000	26.388860	0.000557	20.768407
1692.457679	-2.993000	3.349700	-10.025000	26.362428	0.000555	20.780248
1693.463243	-3.001700	3.349900	-10.054000	26.365561	0.000557	20.786716
1694.461511	-3.000100	3.349700	-10.049000	26.349242	0.000555	20.784540
1695.463643	-2.994200	3.349000	-10.027000	26.407706	0.000553	20.795410
1696.462611	-2.975600	3.348900	-9.963600	26.425742	0.000553	20.773233
1697.462643	-2.997100	3.348700	-10.035000	26.457216	0.000553	20.793014
1698.465654	-3.005900	3.347400	-10.062000	26.454022	0.000552	20.786486
1699.462539	-2.984500	3.347600	-9.989400	26.413295	0.000552	20.787276
1700.468976	-3.000200	3.346000	-10.037000	26.430205	0.000554	20.790522
1701.463022	-2.994300	3.347200	-10.022000	26.459078	0.000551	20.795835
1702.465455	-2.995900	3.345700	-10.022000	26.464001	0.000550	20.779446
1703.463514	-2.994200	3.346700	-10.019000	26.494857	0.000551	20.772528
1704.463676	-2.983500	3.346000	-9.981700	26.495680	0.000551	20.794692
1705.465501	-3.002400	3.345700	-10.044000	26.521322	0.000550	20.783957
1706.465890	-3.014200	3.344500	-10.080000	26.516206	0.000550	20.803470
1707.466578	-2.995100	3.344700	-10.017000	26.535570	0.000549	20.775519
1708.464745	-2.974900	3.346100	-9.952800	26.530720	0.000547	20.800990
1709.465143	-3.002000	3.343600	-10.035000	26.544254	0.000547	20.806534
1710.461957	-2.994400	3.344300	-10.013000	26.576971	0.000547	20.786316
1711.464780	-2.999400	3.344100	-10.029000	26.611645	0.000547	20.805525
1712.469516	-3.010200	3.343500	-10.064000	26.574262	0.000546	20.796394
1713.465958	-2.992800	3.343100	-10.005000	26.580212	0.000545	20.794790
1714.461527	-3.015800	3.342100	-10.078000	26.545633	0.000547	20.806498
1715.466640	-3.007100	3.342300	-10.048000	26.576632	0.000544	20.806838
1716.462631	-2.981400	3.341800	-9.962800	26.554596	0.000544	20.792747
1717.466170	-3.013500	3.340900	-10.065000	26.495172	0.000542	20.798924
1718.465672	-2.991200	3.341600	-9.993600	26.500494	0.000542	20.812333
1719.470685	-2.998000	3.340100	-10.012000	26.458123	0.000542	20.807677
1720.466422	-2.998600	3.340300	-10.016000	26.425742	0.000542	20.816856
1721.466412	-2.994300	3.340300	-10.001000	26.432226	0.000541	20.792079
1722.466508	-2.998400	3.339100	-10.011000	26.440863	0.000542	20.814510
1723.472100	-3.005200	3.339900	-10.036000	26.433508	0.000541	20.820394
1724.465664	-2.995500	3.339700	-10.002000	26.420033	0.000542	20.809695
1725.463126	-3.002500	3.340100	-10.028000	26.406703	0.000538	20.782547
1726.472464	-3.022500	3.338500	-10.090000	26.413066	0.000540	20.795581
1727.467780	-2.999400	3.339200	-10.014000	26.392163	0.000539	20.811556
1728.470350	-2.997200	3.337100	-10.000000	26.388824	0.000538	20.787338
1729.469656	-2.996900	3.336900	-9.998800	26.381203	0.000537	20.793903
1730.469749	-3.008500	3.336600	-10.037000	26.379316	0.000538	20.823300
1731.478890	-2.983600	3.337100	-9.955300	26.390493	0.000535	20.817464
1732.468209	-2.977800	3.337700	-9.937900	26.430436	0.000534	20.813039
1733.471338	-3.016200	3.334300	-10.056000	26.414638	0.000536	20.816601
1734.472751	-3.007100	3.335500	-10.029000	26.394074	0.000534	20.803520
1735.479378	-3.019800	3.333700	-10.066000	26.359635	0.000534	20.820589
1736.473190	-2.998000	3.334900	-9.996800	26.305028	0.000532	20.814073
1737.470674	-3.025400	3.333900	-10.086000	26.320839	0.000533	20.819057
1738.469515	-3.012500	3.333300	-10.041000	26.298579	0.000533	20.823239
1739.470002	-3.003500	3.333600	-10.011000	26.342953	0.000533	20.825160
1740.477349	-2.978600	3.334500	-9.931200	26.369433	0.000531	20.810049
1741.470352	-3.006900	3.331800	-10.018000	26.423251	0.000533	20.810559
1742.475442	-2.982300	3.333800	-9.941800	26.444843	0.000531	20.803812
1743.474077	-2.976200	3.332800	-9.917700	26.468006	0.000531	20.798645
1744.475206	-3.001400	3.331800	-9.999100	26.472615	0.000530	20.826036
1745.474864	-2.994100	3.330600	-9.971000	26.499165	0.000531	20.798669
1746.471844	-2.996100	3.330500	-9.977100	26.476945	0.000529	20.815216
1747.473824	-3.014700	3.329800	-10.037000	26.480780	0.000529	20.805794
1748.472441	-2.987800	3.330300	-9.948500	26.483695	0.000529	20.808724
1749.476214	-3.002400	3.330400	-9.998500	26.468370	0.000529	20.815131
1750.472533	-2.979600	3.329600	-9.919400	26.401127	0.000529	20.789271
1751.477036	-2.985300	3.330100	-9.940000	26.357591	0.000528	20.813794
1752.478570	-2.977800	3.330000	-9.915500	26.367305	0.000525	20.788469
1753.476312	-2.988100	3.329200	-9.947300	26.403389	0.000529	20.802925
1754.476477	-3.000400	3.328200	-9.985200	26.444517	0.000526	20.808700
1755.475283	-2.979600	3.329600	-9.919000	26.466688	0.000526	20.794949
1756.475697	-2.984000	3.329900	-9.935200	26.527153	0.000526	20.784603
1757.473459	-2.989300	3.326700	-9.942800	26.539031	0.000524	20.797016
1758.479210	-2.993500	3.327300	-9.959900	26.592393	0.000523	20.786645
1759.473968	-2.984000	3.328400	-9.931200	26.615469	0.000523	20.797989
1760.479891	-3.027100	3.327400	-10.071000	26.607801	0.000523	20.777953
1761.474891	-3.010200	3.325300	-10.008000	26.591135	0.000525	20.790123
1762.479949	-3.005400	3.326600	-9.996000	26.610498	0.000520	20.815751
1763.478340	-3.011400	3.325200	-10.012000	26.615191	0.000522	20.797709
1764.479975	-2.983200	3.325700	-9.920200	26.540337	0.000521	20.775096
1765.480856	-3.007100	3.324700	-9.996400	26.483127	0.000518	20.785868
1766.478505	-3.019700	3.323200	-10.033000	26.421123	0.000520	20.776178
1767.485462	-2.989200	3.324300	-9.936000	26.417603	0.000518	20.781175
1768.478518	-2.993400	3.324900	-9.951900	26.436945	0.000518	20.789236
1769.481874	-2.991200	3.324400	-9.941100	26.420821	0.000516	20.772081
1770.478385	-2.995900	3.322800	-9.953300	26.405882	0.000518	20.782670
1771.489247	-2.988200	3.323800	-9.931400	26.361426	0.000517	20.773078
1772.479176	-2.975000	3.321900	-9.881200	26.342857	0.000517	20.773382
1773.483135	-3.006500	3.321800	-9.984600	26.350370	0.000514	20.762440
1774.481367	-2.980300	3.323000	-9.902000	26.393919	0.000515	20.779181
1775.481431	-3.009200	3.321100	-9.992300	26.415148	0.000512	20.768750
1776.486191	-2.993400	3.320100	-9.936700	26.450130	0.000515	20.799643
1777.483149	-2.994800	3.319500	-9.940400	26.437587	0.000514	20.774707
1778.487511	-3.005900	3.319700	-9.978000	26.382270	0.000512	20.793552
1779.483028	-3.010600	3.319200	-9.991900	26.377624	0.000515	20.755218
1780.485161	-2.994500	3.320400	-9.941800	26.369302	0.000513	20.778622
1781.487584	-2.979900	3.318800	-9.888200	26.383322	0.000511	20.786075
1782.482849	-3.048900	3.317100	-10.112000	26.340934	0.000510	20.784726
1783.483398	-3.001100	3.317400	-9.955200	26.344539	0.000510	20.770805
1784.486693	-3.005100	3.316600	-9.965400	26.344164	0.000512	20.767583
1785.485053	-2.991900	3.316500	-9.920300	26.379693	0.000509	20.765832
1786.487438	-2.992300	3.316200	-9.921400	26.413721	0.000508	20.779170
1787.489305	-2.986900	3.316700	-9.904900	26.427595	0.000507	20.779364
1788.487166	-3.004500	3.317100	-9.964600	26.392625	0.000507	20.749905
1789.482652	-2.992600	3.315600	-9.920100	26.393617	0.000506	20.776981
1790.487514	-3.016600	3.314400	-9.996700	26.410818	0.000507	20.764872
1791.487044	-3.002700	3.314400	-9.951100	26.441277	0.000507	20.759450
1792.487808	-3.008300	3.314400	-9.970100	26.456372	0.000505	20.760398
1793.486851	-3.021300	3.314000	-10.011000	26.482765	0.000506	20.752787
1794.487362	-3.026200	3.312800	-10.024000	26.526031	0.000505	20.752653
1795.482611	-3.012400	3.313900	-9.981800	26.561457	0.000504	20.764556
1796.484031	-3.010700	3.313400	-9.974500	26.569850	0.000504	20.756398
1797.481902	-3.001200	3.311800	-9.937900	26.615277	0.000501	20.749431
1798.482469	-3.022200	3.311500	-10.008000	26.641666	0.000502	20.748933
1799.486032	-2.982100	3.312500	-9.876600	26.660375	0.000500	20.761578
1800.482780	-3.012300	3.311800	-9.975400	26.689665	0.000501	20.750720
1801.497985	-2.997700	3.311400	-9.925600	26.720648	0.000499	20.770015
1802.490726	-2.989100	3.311800	-9.896900	26.720575	0.000499	20.753821
1803.486876	-3.000400	3.311800	-9.935200	26.738025	0.000498	20.769468
1804.489381	-2.978800	3.311900	-9.864000	26.736090	0.000498	20.760885
1805.491178	-3.017000	3.309400	-9.982200	26.748522	0.000498	20.754416
1806.485661	-2.986500	3.310500	-9.885700	26.751654	0.000499	20.746185
1807.486315	-2.986800	3.309100	-9.883400	26.742415	0.000496	20.765347
1808.488987	-2.996600	3.309400	-9.915000	26.760711	0.000496	20.743437
1809.490646	-3.020700	3.309300	-9.993100	26.787145	0.000495	20.771438
1810.493062	-2.988800	3.308200	-9.886100	26.774037	0.000495	20.741662
1811.493623	-3.020700	3.307600	-9.990500	26.739851	0.000493	20.749967
1812.490541	-2.991100	3.309300	-9.896700	26.703307	0.000495	20.741675
1813.489716	-2.979900	3.308700	-9.858800	26.700828	0.000494	20.758149
1814.494231	-2.997800	3.307400	-9.914100	26.702049	0.000493	20.761748
1815.488101	-2.962700	3.309100	-9.802000	26.688214	0.000493	20.754003
1816.490528	-2.989700	3.306800	-9.885000	26.717588	0.000491	20.736592
1817.497930	-3.000900	3.306800	-9.922100	26.725509	0.000491	20.754988
1818.493980	-3.006600	3.305700	-9.936600	26.732620	0.000490	20.762137
1819.495562	-3.011600	3.305100	-9.950800	26.735292	0.000491	20.744435
1820.496161	-2.992100	3.306100	-9.891000	26.732946	0.000490	20.753456
1821.497691	-2.991300	3.304400	-9.882400	26.736876	0.000491	20.741760
1822.492950	-2.998000	3.304000	-9.904500	26.758788	0.000489	20.742927
1823.494952	-3.009500	3.303700	-9.940800	26.769659	0.000487	20.742477
1824.492275	-3.007700	3.304200	-9.936300	26.776310	0.000488	20.730197
1825.495448	-2.987100	3.301300	-9.859700	26.772271	0.000490	20.737516
1826.495928	-3.015300	3.302000	-9.955700	26.759465	0.000487	20.746453
1827.496149	-2.994900	3.303200	-9.890800	26.746611	0.000487	20.756763
1828.494255	-3.032000	3.302900	-10.013000	26.740939	0.000487	20.745370
1829.496840	-2.970600	3.303100	-9.810800	26.756152	0.000483	20.750234
1830.498697	-2.984300	3.301700	-9.852100	26.756430	0.000484	20.725856
1831.497547	-3.009100	3.300700	-9.931300	26.737033	0.000484	20.720580
1832.499143	-3.003200	3.300900	-9.911700	26.677717	0.000482	20.739182
1833.495656	-2.978200	3.300300	-9.827500	26.637735	0.000482	20.730282
1834.500776	-3.006900	3.299300	-9.919200	26.646829	0.000481	20.704809
1835.505219	-3.002500	3.299600	-9.906400	26.673955	0.000481	20.722597
1836.499229	-2.995200	3.298300	-9.877800	26.681127	0.000479	20.734075
1837.501084	-3.000000	3.298400	-9.893500	26.696231	0.000480	20.725552
1838.503736	-2.991000	3.298600	-9.865000	26.707949	0.000479	20.729272
1839.500280	-2.992200	3.298600	-9.869000	26.708324	0.000479	20.723485
1840.502154	-2.989500	3.297300	-9.856100	26.712726	0.000481	20.720323
1841.500330	-2.980000	3.298100	-9.826900	26.704962	0.000479	20.723898
1842.498623	-3.000600	3.295500	-9.887300	26.662720	0.000479	20.739278
1843.499925	-2.997200	3.298100	-9.883800	26.613667	0.000477	20.725053
1844.505091	-2.989300	3.295300	-9.849700	26.573659	0.000476	20.737941
1845.500194	-2.991400	3.296800	-9.860200	26.573211	0.000475	20.728481
1846.505474	-2.980400	3.296900	-9.824400	26.559689	0.000473	20.729588
1847.506628	-2.994300	3.295300	-9.865900	26.559326	0.000474	20.713575
1848.506341	-3.002900	3.294600	-9.892100	26.569184	0.000475	20.716371
1849.504935	-3.019000	3.293600	-9.940900	26.604415	0.000473	20.724286
1850.504307	-3.008500	3.294100	-9.909400	26.646755	0.000471	20.719435
1851.502310	-2.968400	3.294700	-9.778800	26.679638	0.000473	20.718353
1852.505034	-2.995100	3.293400	-9.863100	26.736124	0.000471	20.709708
1853.505075	-2.982700	3.293100	-9.820900	26.716171	0.000470	20.716675
1854.506362	-2.986000	3.292200	-9.829700	26.720029	0.000470	20.718182
1855.505922	-2.990900	3.291600	-9.844100	26.709157	0.000470	20.692077
1856.504517	-2.984200	3.292800	-9.825400	26.742159	0.000470	20.723836
1857.502815	-3.005200	3.292300	-9.892600	26.751361	0.000470	20.726924
1858.503632	-3.003500	3.292000	-9.886700	26.791580	0.000468	20.724687
1859.504140	-3.006100	3.290500	-9.890100	26.809500	0.000467	20.695761
1860.506018	-2.997300	3.292500	-9.867600	26.837577	0.000467	20.712613
1861.510714	-3.000100	3.290300	-9.870000	26.826127	0.000466	20.718170
1862.511350	-2.988800	3.290500	-9.832700	26.828001	0.000467	20.707725
1863.509648	-3.020600	3.287500	-9.928200	26.838230	0.000464	20.718485
1864.506898	-3.000400	3.289100	-9.867600	26.853429	0.000465	20.687772
1865.510083	-3.004500	3.287300	-9.875900	26.823200	0.000464	20.727081
1866.509619	-3.023300	3.288200	-9.940100	26.775533	0.000462	20.705706
1867.505844	-2.982800	3.290200	-9.812800	26.741868	0.000461	20.697463
1868.509102	-2.981700	3.288800	-9.804300	26.766923	0.000462	20.710801
1869.509706	-2.996400	3.288800	-9.853900	26.757443	0.000462	20.692259
1870.507598	-2.998900	3.287800	-9.859100	26.773888	0.000461	20.731555
1871.510819	-2.992000	3.286700	-9.832100	26.782208	0.000460	20.696295
1872.512573	-3.012800	3.285700	-9.898100	26.772304	0.000459	20.723324
1873.510009	-3.003600	3.285000	-9.866200	26.800370	0.000457	20.696064
1874.507747	-3.010800	3.284300	-9.887500	26.769595	0.000456	20.708746
1875.510653	-3.006000	3.284300	-9.871800	26.748288	0.000458	20.696331
1876.506948	-2.999400	3.284300	-9.850400	26.743246	0.000456	20.691261
1877.511325	-2.996000	3.284000	-9.837600	26.747248	0.000455	20.694812
1878.512260	-3.004500	3.285100	-9.868900	26.776730	0.000455	20.721609
1879.512794	-3.012800	3.283900	-9.892600	26.781047	0.000455	20.692283
1880.515684	-2.996400	3.283500	-9.837300	26.772582	0.000454	20.713171
1881.512290	-2.996400	3.282800	-9.835700	26.737453	0.000453	20.702034
1882.512971	-2.999500	3.282200	-9.842700	26.755120	0.000451	20.695614
1883.510123	-3.008600	3.282000	-9.873300	26.779994	0.000451	20.704976
1884.517394	-3.002500	3.282300	-9.854000	26.818302	0.000453	20.684695
1885.511624	-3.003800	3.282000	-9.857200	26.848652	0.000451	20.691979
1886.513748	-2.988000	3.281500	-9.804000	26.884950	0.000449	20.690070
1887.515397	-3.015600	3.281000	-9.893500	26.904779	0.000446	20.684878
1888.513250	-2.989100	3.280400	-9.804000	26.925841	0.000448	20.694678
1889.514509	-2.992800	3.280400	-9.817100	26.949829	0.000448	20.677546
1890.517051	-2.999400	3.279300	-9.835100	26.924813	0.000448	20.700757
1891.516040	-3.003500	3.278100	-9.843700	26.886074	0.000447	20.692149
1892.512693	-2.998800	3.278600	-9.830900	26.861820	0.000445	20.698581
1893.516594	-3.018500	3.277900	-9.892200	26.831373	0.000445	20.690252
1894.514633	-3.012400	3.277700	-9.871300	26.838894	0.000443	20.690702
1895.516644	-2.968600	3.279000	-9.732500	26.844879	0.000445	20.670165
1896.517994	-3.011800	3.275500	-9.863900	26.850055	0.000443	20.663988
1897.514906	-3.006600	3.277500	-9.852400	26.889847	0.000443	20.686933
1898.518726	-2.989900	3.277500	-9.798200	26.904223	0.000442	20.696173
1899.520501	-2.995700	3.277100	-9.816300	26.931125	0.000442	20.690033
1900.519871	-2.954800	3.277400	-9.683200	26.894671	0.000441	20.677084
1901.513319	-3.008800	3.274200	-9.850700	26.840115	0.000441	20.681497
1902.516413	-3.019900	3.274500	-9.888100	26.809475	0.000439	20.680561
1903.515343	-2.964600	3.276600	-9.712800	26.797721	0.000438	20.688185
1904.517174	-3.004500	3.274300	-9.837400	26.854093	0.000439	20.668998
1905.514859	-3.005900	3.274500	-9.841900	26.886183	0.000438	20.678980
1906.516300	-2.988200	3.274500	-9.784500	26.881250	0.000438	20.703894
1907.514093	-2.988900	3.273100	-9.782200	26.897258	0.000436	20.673047
1908.520489	-3.000700	3.273800	-9.822700	26.899302	0.000437	20.666092
1909.514915	-2.982900	3.273900	-9.764400	26.883934	0.000433	20.675296
1910.520838	-3.004500	3.271500	-9.826900	26.858023	0.000432	20.682908
1911.520555	-2.997200	3.272300	-9.805900	26.882447	0.000433	20.676646
1912.514660	-3.010300	3.271000	-9.845200	26.875555	0.000433	20.683467
1913.520335	-2.977800	3.272400	-9.743300	26.916652	0.000434	20.668840
1914.521808	-3.006500	3.271500	-9.834900	26.917619	0.000432	20.675977
1915.522464	-3.000400	3.271100	-9.812600	26.891503	0.000432	20.678640
1916.519165	-2.999800	3.269900	-9.807300	26.875204	0.000430	20.675053
1917.517510	-2.998400	3.271600	-9.808100	26.914911	0.000430	20.665666
1918.525783	-2.992000	3.269700	-9.782400	26.892748	0.000430	20.669934
1919.515350	-2.965600	3.269900	-9.696400	26.896508	0.000428	20.679406
1920.516688	-2.998200	3.269200	-9.801300	26.888105	0.000426	20.664316
1921.520516	-3.007400	3.268900	-9.829800	26.901998	0.000427	20.667380
1922.516610	-2.991100	3.267700	-9.773000	26.897838	0.000428	20.681217
1923.521605	-2.999500	3.268100	-9.801600	26.937653	0.000425	20.651549
1924.522098	-3.020800	3.266300	-9.865800	26.951678	0.000425	20.679405
1925.520576	-2.990200	3.266100	-9.765300	26.939793	0.000425	20.651330
1926.523920	-2.978500	3.266600	-9.728500	26.977696	0.000423	20.688026
1927.523798	-3.001600	3.265100	-9.799500	26.944738	0.000424	20.681436
1928.518970	-3.009300	3.265600	-9.826000	26.939104	0.000421	20.676718
1929.521853	-3.006600	3.265000	-9.815400	26.987633	0.000421	20.655816
1930.520138	-2.989800	3.264200	-9.758100	26.990716	0.000421	20.666979
1931.520693	-2.994300	3.265700	-9.777000	26.996507	0.000420	20.658102
1932.525061	-2.996500	3.263300	-9.777300	26.943456	0.000420	20.673034
1933.524803	-3.034000	3.261600	-9.894300	26.913580	0.000417	20.657689
1934.524684	-3.001200	3.262600	-9.791500	26.918332	0.000418	20.660097
1935.528794	-3.009600	3.263900	-9.821500	26.946805	0.000420	20.665969
1936.527519	-2.982300	3.263500	-9.731100	26.996217	0.000420	20.650223
1937.524043	-2.994800	3.263400	-9.772300	27.005079	0.000417	20.673362
1938.526284	-2.998100	3.262600	-9.780200	26.961978	0.000416	20.682177
1939.527870	-2.991200	3.261700	-9.755500	26.945608	0.000415	20.664291
1940.524326	-2.995300	3.261100	-9.767200	26.953974	0.000416	20.666066
1941.524044	-3.002700	3.261600	-9.792100	26.947869	0.000414	20.656607
1942.528493	-2.973200	3.261700	-9.696000	26.992409	0.000415	20.652083
1943.526906	-3.012000	3.260000	-9.818700	26.991079	0.000413	20.655962
1944.523252	-2.997500	3.260400	-9.772400	26.959185	0.000412	20.664194
1945.527384	-3.002300	3.258400	-9.781100	26.898019	0.000413	20.669544
1946.529010	-2.995100	3.257500	-9.754700	26.891248	0.000412	20.664157
1947.528200	-3.003100	3.258800	-9.785700	26.901126	0.000411	20.663659
1948.523588	-3.005100	3.258500	-9.791300	26.898660	0.000412	20.675879
1949.523393	-3.021800	3.257400	-9.841800	26.893364	0.000407	20.671027
1950.524370	-3.019700	3.258700	-9.839300	26.921209	0.000408	20.662990
1951.527610	-3.004800	3.256500	-9.784800	26.942307	0.000408	20.682311
1952.527055	-3.000400	3.257900	-9.774100	26.970501	0.000406	20.642854
1953.526583	-2.992500	3.257200	-9.746400	26.905479	0.000404	20.677994
1954.526941	-3.022900	3.254400	-9.836500	26.898140	0.000405	20.663975
1955.523605	-3.011200	3.254900	-9.800100	26.887500	0.000405	20.677933
1956.526540	-3.013000	3.254900	-9.806100	26.867392	0.000406	20.672887
1957.523650	-2.988400	3.256100	-9.729200	26.825398	0.000405	20.669069
1958.525683	-3.001300	3.254500	-9.765100	26.846812	0.000401	20.651718
1959.525019	-3.010300	3.254100	-9.795100	26.874634	0.000402	20.663573
1960.526911	-2.981000	3.254000	-9.698300	26.897148	0.000401	20.680523
1961.529309	-3.017500	3.252700	-9.814100	26.968748	0.000401	20.680450
1962.528894	-2.999200	3.252600	-9.754400	27.001826	0.000398	20.674358
1963.526827	-2.988100	3.252500	-9.717600	27.006892	0.000400	20.647681
1964.529579	-2.997700	3.252100	-9.747600	27.036172	0.000399	20.647730
1965.530716	-2.967400	3.253000	-9.652300	27.076211	0.000397	20.648642
1966.525035	-2.997600	3.251400	-9.745100	27.102795	0.000397	20.662102
1967.527753	-3.016900	3.249800	-9.803300	27.149322	0.000398	20.668121
1968.529037	-2.966200	3.251000	-9.642000	27.192947	0.000395	20.657943
1969.529338	-3.001800	3.248400	-9.750000	27.180594	0.000396	20.655949
1970.528854	-3.010900	3.249800	-9.784200	27.166862	0.000396	20.653517
1971.530882	-2.977100	3.248900	-9.671200	27.157470	0.000396	20.677264
1972.528336	-3.014200	3.248900	-9.791600	27.161592	0.000394	20.673823
1973.529036	-3.001200	3.248700	-9.748700	27.144971	0.000391	20.668959
1974.526873	-2.997000	3.248600	-9.735000	27.124554	0.000393	20.685411
1975.525679	-2.972400	3.249500	-9.657600	27.107581	0.000391	20.671659
1976.528930	-2.992900	3.247700	-9.719600	27.088904	0.000390	20.652398
1977.538944	-3.008600	3.246800	-9.767200	27.114689	0.000389	20.666005
1978.528807	-2.999700	3.247500	-9.740600	27.142795	0.000388	20.647328
1979.526613	-3.013700	3.244900	-9.778200	27.179760	0.000388	20.677872
1980.531773	-2.997400	3.246200	-9.729200	27.197178	0.000389	20.676425
1981.531781	-3.003600	3.244700	-9.743600	27.201445	0.000390	20.666017
1982.527757	-3.003300	3.243900	-9.742600	27.200973	0.000387	20.660326
1983.529848	-3.000200	3.245000	-9.734600	27.205035	0.000387	20.671051
1984.526615	-3.023300	3.242200	-9.801200	27.196960	0.000385	20.658661
1985.532576	-2.998600	3.244000	-9.726100	27.206352	0.000385	20.670479
1986.536068	-2.993400	3.242800	-9.706100	27.241562	0.000386	20.669859
1987.528374	-2.979900	3.243500	-9.664400	27.253359	0.000385	20.658016
1988.532852	-2.993600	3.242800	-9.706300	27.249842	0.000383	20.685775
1989.527373	-2.997400	3.242700	-9.718600	27.250156	0.000382	20.655268
1990.530949	-3.023100	3.240900	-9.797400	27.261373	0.000382	20.654697
1991.531109	-3.006000	3.241700	-9.743400	27.232219	0.000379	20.663305
1992.531217	-3.021700	3.240300	-9.789700	27.248573	0.000379	20.669324
1993.528038	-3.009800	3.238900	-9.746500	27.277690	0.000379	20.666844
1994.530137	-3.026500	3.238500	-9.799800	27.270764	0.000379	20.685009
1995.532893	-3.013300	3.238200	-9.756000	27.250930	0.000377	20.670747
1996.535565	-3.004300	3.240000	-9.732700	27.219782	0.000374	20.658381
1997.530992	-2.998000	3.239500	-9.710800	27.224242	0.000376	20.685155
1998.540272	-2.979800	3.239700	-9.652800	27.240898	0.000375	20.675829
1999.535835	-3.009500	3.237500	-9.741600	27.230781	0.000374	20.675137
2000.533171	-3.016300	3.236400	-9.760700	27.244488	0.000374	20.682286
2001.536341	-2.990500	3.237200	-9.680700	27.275200	0.000372	20.659123
2002.533922	-3.013200	3.235800	-9.749100	27.280990	0.000371	20.675380
2003.534140	-2.999300	3.235800	-9.703500	27.267839	0.000370	20.674954
2004.539025	-2.986900	3.235000	-9.661800	27.299047	0.000370	20.682165
2005.532556	-3.033100	3.232800	-9.804000	27.272034	0.000368	20.682493
2006.535490	-3.011500	3.234500	-9.739800	27.307338	0.000369	20.668218
2007.535068	-2.981000	3.234900	-9.642600	27.288979	0.000369	20.674881
2008.535673	-2.987500	3.233800	-9.660500	27.245358	0.000369	20.674152
2009.533864	-2.988500	3.233200	-9.660300	27.190869	0.000368	20.677666
2010.542589	-3.009100	3.231200	-9.722300	27.141030	0.000368	20.685387
2011.537608	-3.009100	3.233400	-9.728200	27.131094	0.000367	20.671124
2012.537871	-2.975800	3.233600	-9.622100	27.122656	0.000366	20.686347
2013.541164	-3.000700	3.231000	-9.695000	27.177995	0.000365	20.708817
2014.540390	-2.992700	3.233200	-9.675300	27.196743	0.000366	20.685946
2015.540758	-2.997100	3.231100	-9.682100	27.147812	0.000364	20.685569
2016.545280	-3.019200	3.230300	-9.751000	27.159827	0.000362	20.698129
2017.541955	-2.983700	3.230300	-9.637600	27.181356	0.000361	20.679478
2018.537672	-3.003400	3.230500	-9.701100	27.155113	0.000362	20.684852
2019.544116	-3.029000	3.230200	-9.782700	27.116854	0.000360	20.691892
2020.539317	-2.980600	3.230400	-9.627000	27.071183	0.000361	20.678675
2021.543865	-2.996700	3.229400	-9.675500	27.068330	0.000358	20.689083
2022.544256	-2.983900	3.229400	-9.634400	27.075535	0.000356	20.682104
2023.543559	-2.999600	3.227800	-9.680500	27.073492	0.000356	20.670565
2024.545961	-2.997100	3.226500	-9.668500	27.124071	0.000356	20.694409
2025.547087	-3.002000	3.226800	-9.686000	27.180558	0.000356	20.683891
2026.542996	-2.986400	3.227600	-9.637600	27.218537	0.000357	20.697436
2027.544690	-2.999700	3.225800	-9.675600	27.268686	0.000355	20.699515
2028.543309	-3.010800	3.225100	-9.707900	27.277122	0.000355	20.687612
2029.540571	-2.975400	3.226000	-9.597000	27.252852	0.000354	20.671258
2030.548331	-2.999900	3.224500	-9.671900	27.262232	0.000354	20.702032
2031.543582	-2.985200	3.225300	-9.626000	27.263561	0.000352	20.706689
2032.542330	-2.985500	3.224500	-9.625700	27.276615	0.000351	20.710811
2033.541683	-3.010300	3.222600	-9.699800	27.269907	0.000350	20.696476
2034.549319	-2.995200	3.222400	-9.650700	27.244585	0.000349	20.714629
2035.546393	-2.995800	3.221900	-9.650700	27.229452	0.000348	20.697509
2036.545685	-3.038200	3.222800	-9.789500	27.248283	0.000347	20.695588
2037.549987	-2.975600	3.222400	-9.587000	27.271998	0.000347	20.699528
2038.545561	-3.006100	3.220800	-9.679900	27.339355	0.000345	20.689047
2039.544863	-2.993900	3.220800	-9.641800	27.357060	0.000348	20.687892
2040.548937	-3.005100	3.220700	-9.677000	27.389921	0.000345	20.701036
2041.547260	-3.009100	3.220800	-9.690600	27.405801	0.000345	20.699941
2042.546479	-2.986900	3.220400	-9.618200	27.437089	0.000343	20.699649
2043.546010	-3.008500	3.219100	-9.683600	27.441053	0.000343	20.683721
2044.545887	-2.995700	3.218800	-9.640900	27.463542	0.000342	20.690701
2045.549994	-3.000500	3.216800	-9.650200	27.430986	0.000341	20.711054
2046.547644	-3.018700	3.217200	-9.710800	27.405692	0.000342	20.705996
2047.546662	-3.009100	3.218900	-9.684800	27.425645	0.000342	20.697619
2048.553420	-2.998700	3.216100	-9.642700	27.434322	0.000338	20.683588
2049.549815	-2.995800	3.216600	-9.635300	27.451482	0.000338	20.707492
2050.545347	-3.008300	3.216300	-9.675300	27.451337	0.000338	20.698811
2051.564773	-3.011500	3.214500	-9.679700	27.416871	0.000335	20.706337
2052.549147	-3.016300	3.215600	-9.698300	27.386441	0.000336	20.704647
2053.552226	-2.988500	3.215500	-9.607900	27.362934	0.000336	20.714666
2054.552459	-2.983400	3.214700	-9.589600	27.345616	0.000334	20.699139
2055.557960	-2.980600	3.214500	-9.578900	27.340539	0.000336	20.702094
2056.552682	-3.032000	3.212400	-9.739100	27.325009	0.000335	20.693108
2057.549938	-3.003300	3.213400	-9.650000	27.306819	0.000335	20.709425
2058.558455	-3.021100	3.212100	-9.701900	27.347900	0.000332	20.709024
2059.555256	-3.014300	3.211800	-9.679100	27.399783	0.000330	20.702896
2060.556855	-2.988300	3.212200	-9.597700	27.413705	0.000330	20.695090
2061.555630	-2.994300	3.211900	-9.615300	27.429367	0.000329	20.715116
2062.554267	-3.013800	3.210600	-9.674500	27.419107	0.000331	20.697680
2063.554731	-2.988500	3.211400	-9.596400	27.391565	0.000328	20.717389
2064.555481	-2.946600	3.212200	-9.462800	27.383770	0.000326	20.725669
2065.555068	-3.016200	3.209100	-9.677300	27.402176	0.000327	20.720003
2066.563612	-3.004800	3.208800	-9.641000	27.406732	0.000325	20.701826
2067.555130	-2.993900	3.207800	-9.602400	27.452811	0.000329	20.728271
2068.553826	-2.966800	3.209200	-9.519700	27.463639	0.000326	20.722095
2069.558247	-3.034900	3.206000	-9.728700	27.484497	0.000326	20.707042
2070.564798	-3.007200	3.207800	-9.645900	27.492231	0.000324	20.701072
2071.560841	-3.010800	3.207600	-9.656200	27.515952	0.000323	20.735846
2072.558465	-3.033600	3.205700	-9.724200	27.535491	0.000322	20.724210
2073.559700	-3.022900	3.206600	-9.691100	27.575089	0.000319	20.722800
2074.562162	-2.997700	3.206100	-9.610600	27.619965	0.000319	20.735238
2075.559432	-2.980000	3.206900	-9.554600	27.662882	0.000322	20.718678
2076.557349	-3.001200	3.205100	-9.617200	27.645121	0.000320	20.716927
2077.558005	-2.966200	3.207000	-9.510400	27.626453	0.000320	20.722326
2078.561197	-3.005700	3.205400	-9.633600	27.590797	0.000319	20.718216
2079.559266	-3.015200	3.202500	-9.655200	27.586024	0.000316	20.709620
2080.561678	-2.981700	3.203800	-9.550900	27.566268	0.000316	20.708708
2081.561257	-2.984600	3.201600	-9.554500	27.595026	0.000314	20.720575
2082.563639	-2.995900	3.202600	-9.593700	27.616594	0.000314	20.718569
2083.564057	-3.013500	3.201500	-9.646900	27.653506	0.000316	20.731055
2084.562004	-2.999700	3.201800	-9.603600	27.670095	0.000315	20.746801
2085.559247	-2.978900	3.200600	-9.533400	27.714266	0.000311	20.740041
2086.559857	-2.996600	3.201300	-9.591900	27.722035	0.000310	20.721778
2087.563779	-2.995900	3.201600	-9.590900	27.753350	0.000310	20.731481
2088.559661	-3.011600	3.199100	-9.633400	27.743298	0.000313	20.743652
2089.564210	-3.000800	3.199500	-9.600100	27.696035	0.000311	20.732600
2090.565573	-3.017200	3.198300	-9.649200	27.722977	0.000311	20.738375
2091.565760	-2.999300	3.196300	-9.584800	27.684291	0.000308	20.735955
2092.564754	-3.013500	3.197900	-9.635600	27.682648	0.000308	20.728612
2093.563616	-3.003100	3.196900	-9.598600	27.698500	0.000306	20.735554
2094.567582	-2.993100	3.195900	-9.564000	27.713408	0.000308	20.743445
2095.565022	-3.016500	3.194800	-9.636100	27.741727	0.000307	20.738277
2096.562628	-2.984800	3.197200	-9.542300	27.748988	0.000306	20.738946
2097.565490	-2.996700	3.194800	-9.573200	27.757155	0.000304	20.744794
2098.565051	-2.973400	3.193900	-9.496100	27.745823	0.000303	20.722484
2099.562405	-3.014800	3.193900	-9.627900	27.747188	0.000304	20.711529
2100.565584	-2.991200	3.194300	-9.554100	27.715486	0.000302	20.715189
2101.568589	-2.986300	3.195600	-9.541800	27.704456	0.000302	20.734910
2102.567679	-3.022100	3.193000	-9.648400	27.703840	0.000301	20.741876
2103.573826	-3.001500	3.193700	-9.584600	27.644613	0.000302	20.748187
2104.567144	-3.027800	3.191800	-9.663400	27.624472	0.000301	20.736928
2105.564766	-2.983700	3.191400	-9.520600	27.612848	0.000296	20.738034
2106.570100	-2.999800	3.191000	-9.571700	27.581118	0.000300	20.733134
2107.568742	-2.997600	3.190700	-9.563600	27.563187	0.000297	20.754448
2108.566947	-2.969100	3.191700	-9.474900	27.581166	0.000296	20.734132
2109.570116	-2.998600	3.190600	-9.566600	27.603846	0.000295	20.752211
2110.566928	-3.015900	3.189900	-9.619000	27.627649	0.000294	20.749609
2111.564861	-2.991900	3.190000	-9.542900	27.629583	0.000294	20.739700
2112.571738	-3.018100	3.191000	-9.628700	27.663015	0.000293	20.729718
2113.569166	-2.990600	3.187500	-9.531700	27.676281	0.000294	20.741171
2114.570639	-2.991000	3.186500	-9.529900	27.706558	0.000291	20.759311
2115.571815	-2.997600	3.188100	-9.555500	27.694343	0.000293	20.751287
2116.566701	-3.000300	3.186200	-9.558500	27.728680	0.000291	20.739846
2117.569072	-2.981900	3.186800	-9.501500	27.721020	0.000290	20.739250
2118.570200	-3.031000	3.183300	-9.647500	27.723098	0.000290	20.750825
2119.566546	-2.966100	3.187100	-9.451300	27.747321	0.000290	20.754339
2120.570212	-3.009000	3.184300	-9.581200	27.799692	0.000287	20.751093
2121.570971	-3.009500	3.182400	-9.576900	27.819987	0.000288	20.761561
2122.576385	-2.962700	3.185800	-9.437200	27.826487	0.000287	20.759567
2123.572181	-3.008700	3.182400	-9.573900	27.813766	0.000287	20.761937
2124.573582	-2.980300	3.183800	-9.487800	27.805998	0.000285	20.756965
2125.575195	-2.998200	3.182200	-9.540400	27.773936	0.000285	20.744612
2126.570503	-2.993800	3.181700	-9.524300	27.810758	0.000285	20.745159
2127.576362	-2.993100	3.183200	-9.526900	27.797143	0.000284	20.758485
2128.575346	-2.994800	3.181200	-9.525500	27.800695	0.000285	20.766327
2129.572431	-3.001600	3.179900	-9.544100	27.819553	0.000280	20.756856
2130.574340	-2.993900	3.178000	-9.514400	27.811265	0.000282	20.760369
2131.575895	-3.008100	3.177600	-9.557600	27.825991	0.000279	20.766181
2132.575398	-2.984200	3.180200	-9.489200	27.842421	0.000279	20.776552
2133.577050	-2.999400	3.177900	-9.530300	27.854078	0.000279	20.760308
2134.572735	-3.009400	3.178700	-9.563800	27.868658	0.000279	20.761707
2135.577009	-2.994800	3.176900	-9.513400	27.876196	0.000276	20.769293
2136.579894	-2.995300	3.175600	-9.510500	27.814455	0.000277	20.757415
2137.578949	-2.999000	3.177400	-9.526900	27.776207	0.000276	20.759701
2138.577980	-3.005600	3.174700	-9.541000	27.719377	0.000278	20.766995
2139.581070	-3.004800	3.176900	-9.545100	27.725490	0.000275	20.753706
2140.577830	-3.008900	3.172700	-9.545400	27.717311	0.000276	20.779615
2141.583158	-2.991400	3.174100	-9.493700	27.708987	0.000274	20.766497
2142.582287	-3.006100	3.172300	-9.534300	27.683397	0.000271	20.767299
2143.581662	-3.022500	3.172200	-9.586600	27.678758	0.000273	20.791080
2144.582282	-2.994700	3.173100	-9.501200	27.703598	0.000274	20.743530
2145.581977	-3.004700	3.172400	-9.531400	27.736701	0.000271	20.760722
2146.585726	-3.000600	3.171200	-9.514900	27.761190	0.000269	20.776831
2147.581954	-2.984200	3.170500	-9.460400	27.753362	0.000269	20.773694
2148.583520	-2.966800	3.171400	-9.407500	27.718205	0.000267	20.782886
2149.581523	-2.979100	3.172400	-9.449900	27.701085	0.000269	20.771822
2150.583626	-2.983100	3.171700	-9.460500	27.662459	0.000268	20.781317
2151.585370	-2.985400	3.168200	-9.457300	27.682418	0.000266	20.766788
2152.589714	-2.999100	3.168400	-9.501200	27.692168	0.000268	20.799359
2153.580550	-2.985600	3.168200	-9.457200	27.677308	0.000265	20.758801
2154.581351	-2.990300	3.167300	-9.470200	27.711294	0.000266	20.776405
2155.585369	-3.049900	3.164200	-9.648700	27.695406	0.000266	20.772746
2156.584874	-3.026000	3.166400	-9.579700	27.712816	0.000267	20.778411
2157.585297	-3.010800	3.163700	-9.524400	27.695249	0.000264	20.773062
2158.582241	-2.999400	3.165200	-9.493200	27.705060	0.000264	20.790521
2159.583501	-2.960600	3.164400	-9.366800	27.777765	0.000262	20.767433
2160.585327	-2.995800	3.164000	-9.477200	27.799064	0.000263	20.791238
2161.583606	-2.986500	3.162500	-9.443200	27.843785	0.000261	20.789305
2162.594186	-2.999200	3.161300	-9.480100	27.858994	0.000260	20.797025
2163.586368	-3.000100	3.161200	-9.482700	27.823454	0.000261	20.793499
2164.587795	-2.991300	3.161400	-9.456000	27.798761	0.000260	20.784770
2165.587485	-3.001800	3.161900	-9.490500	27.796357	0.000257	20.800368
2166.587518	-2.994400	3.161800	-9.467100	27.782960	0.000258	20.783092
2167.583921	-3.008900	3.158100	-9.501500	27.733306	0.000256	20.799505
2168.589180	-3.018600	3.159300	-9.536100	27.710267	0.000257	20.795286
2169.588102	-3.012700	3.159100	-9.516100	27.716295	0.000256	20.778119
2170.584383	-3.017300	3.158500	-9.529200	27.740301	0.000254	20.788526
2171.588941	-2.989400	3.157300	-9.437100	27.762929	0.000255	20.795651
2172.583746	-3.001300	3.158200	-9.477400	27.768643	0.000253	20.778168
2173.585595	-2.996000	3.158000	-9.459400	27.806928	0.000254	20.811954
2174.584626	-3.021200	3.155000	-9.530900	27.826993	0.000254	20.795639
2175.586705	-2.991000	3.155700	-9.437000	27.866797	0.000252	20.774532
2176.584910	-2.952500	3.157200	-9.320300	27.911081	0.000255	20.797292
2177.587975	-2.986900	3.154900	-9.422400	27.955218	0.000254	20.796198
2178.589636	-2.979700	3.154500	-9.397900	27.931543	0.000253	20.802240
2179.584603	-2.982000	3.151700	-9.396900	27.867329	0.000252	20.806361
2180.589756	-2.993400	3.152700	-9.436200	27.830472	0.000250	20.795821
2181.588378	-2.997400	3.150800	-9.442800	27.806795	0.000249	20.817984
2182.590930	-2.997500	3.149900	-9.439400	27.851504	0.000249	20.798970
2183.589952	-2.979500	3.150600	-9.386500	27.884953	0.000248	20.804659
2184.585774	-3.007000	3.147900	-9.464600	27.923789	0.000246	20.803444
2185.586127	-3.004900	3.147900	-9.457200	27.959542	0.000246	20.785377
2186.592826	-2.977100	3.149900	-9.376100	27.947476	0.000247	20.794094
2187.587875	-2.977200	3.150100	-9.377500	27.988640	0.000246	20.783371
2188.592638	-3.001700	3.147600	-9.446900	27.989969	0.000244	20.802726
2189.589591	-2.996200	3.146900	-9.428000	28.012579	0.000245	20.816002
2190.587805	-3.006400	3.147600	-9.461900	28.002989	0.000243	20.794970
2191.596232	-3.006800	3.145400	-9.456000	27.982601	0.000241	20.795310
2192.592871	-3.002000	3.145200	-9.440900	27.987046	0.000242	20.796939
2193.592236	-2.989800	3.144800	-9.400800	27.960823	0.000242	20.826494
2194.593218	-3.008600	3.143900	-9.458200	27.960593	0.000241	20.807298
2195.595080	-3.008600	3.142400	-9.452400	27.982891	0.000239	20.812671
2196.589883	-2.996000	3.142300	-9.413700	27.985560	0.000239	20.811565
2197.593107	-2.987200	3.142500	-9.386000	28.004402	0.000240	20.796866
2198.592124	-3.006600	3.140900	-9.442500	28.000984	0.000240	20.812392
2199.589238	-3.003800	3.140400	-9.432300	28.020865	0.000236	20.826713
2200.594358	-3.003100	3.139600	-9.426700	28.016650	0.000235	20.813461
2201.598407	-2.980000	3.140000	-9.356400	27.988519	0.000236	20.801267
2202.594827	-2.990000	3.139100	-9.384500	27.951631	0.000236	20.813923
2203.599131	-3.018600	3.137800	-9.469800	27.988519	0.000233	20.827345
2204.594760	-3.013300	3.138500	-9.455800	28.013835	0.000234	20.819163
2205.594244	-2.994200	3.137700	-9.394500	27.994365	0.000234	20.825169
2206.597014	-2.981700	3.137200	-9.351800	27.995537	0.000234	20.834409
2207.601203	-3.022200	3.133800	-9.469500	28.020599	0.000236	20.838299
2208.594784	-3.006700	3.134700	-9.423600	28.025805	0.000231	20.815565
2209.600437	-2.998000	3.134100	-9.394100	28.043982	0.000231	20.833388
2210.599400	-3.005000	3.134100	-9.416800	28.055094	0.000231	20.821814
2211.597014	-3.019600	3.131800	-9.456300	27.997892	0.000228	20.808805
2212.601878	-2.990000	3.132500	-9.365400	27.972406	0.000231	20.820136
2213.604238	-3.020500	3.130200	-9.454100	27.960980	0.000230	20.817644
2214.601458	-2.998100	3.129900	-9.382900	27.998339	0.000231	20.852876
2215.601987	-3.003400	3.130100	-9.399800	28.012144	0.000228	20.825996
2216.600870	-2.968500	3.129000	-9.286900	28.032689	0.000228	20.818701
2217.598114	-3.007200	3.129300	-9.409100	28.052400	0.000230	20.810568
2218.602574	-2.992500	3.129200	-9.361600	28.085276	0.000227	20.823747
2219.600364	-2.999700	3.129300	-9.385600	28.109563	0.000228	20.824014
2220.599054	-2.989500	3.126900	-9.345700	28.137956	0.000228	20.823674
2221.605079	-3.009700	3.124700	-9.403400	28.149803	0.000224	20.814738
2222.603066	-3.009400	3.125300	-9.404200	28.180152	0.000223	20.820160
2223.596903	-2.999400	3.123900	-9.368300	28.209050	0.000226	20.814166
2224.603856	-3.008600	3.122900	-9.394700	28.229168	0.000226	20.815929
2225.604597	-3.012400	3.123400	-9.407000	28.194571	0.000224	20.796270
2226.601613	-2.995000	3.121800	-9.349100	28.185840	0.000226	20.817826
2227.604843	-3.018800	3.120900	-9.420300	28.163812	0.000223	20.819358
2228.599526	-2.999200	3.122100	-9.361700	28.164778	0.000222	20.802313
2229.603031	-2.996500	3.120300	-9.349500	28.140709	0.000221	20.809850
2230.602186	-3.025600	3.118400	-9.434300	28.061386	0.000223	20.798276
2231.605699	-3.008300	3.117900	-9.378300	28.059792	0.000221	20.788611
2232.603013	-3.005700	3.117200	-9.367300	28.076447	0.000220	20.799687
2233.601612	-3.009900	3.116600	-9.380000	28.120964	0.000220	20.803723
2234.602815	-2.998900	3.115500	-9.341600	28.137727	0.000218	20.817279
2235.603532	-2.998200	3.115800	-9.338900	28.168860	0.000219	20.812112
2236.610673	-2.993700	3.114300	-9.321100	28.130166	0.000220	20.797340
2237.600847	-3.004500	3.113900	-9.354400	28.124068	0.000219	20.804951
2238.606820	-3.014000	3.112400	-9.379700	28.067111	0.000217	20.795030
2239.612228	-3.002400	3.111300	-9.339400	28.028752	0.000218	20.797194
2240.609478	-2.990100	3.111300	-9.302600	28.054345	0.000219	20.794033
2241.605779	-2.994800	3.112000	-9.317900	28.081375	0.000218	20.790897
2242.612306	-2.984400	3.110400	-9.281900	28.107921	0.000219	20.809085
2243.607557	-2.994400	3.107600	-9.302600	28.107607	0.000216	20.806872
2244.604777	-2.986400	3.108900	-9.283000	28.087872	0.000216	20.795067
2245.606594	-2.995700	3.107800	-9.309500	28.070843	0.000214	20.796416
2246.612798	-3.009100	3.107200	-9.347600	28.046917	0.000214	20.802203
2247.609227	-2.998200	3.106500	-9.312900	28.018341	0.000214	20.791456
2248.609056	-3.026200	3.105100	-9.395800	28.021094	0.000214	20.797073
2249.610726	-2.991900	3.104200	-9.285900	28.021300	0.000214	20.791590
2250.609619	-3.012100	3.103400	-9.346700	28.044441	0.000214	20.814410
2251.610528	-2.992500	3.103000	-9.284500	28.079503	0.000215	20.795650
2252.611573	-2.977500	3.102500	-9.236700	28.115046	0.000210	20.786860
2253.607581	-2.993700	3.101100	-9.281800	28.155528	0.000209	20.778775
2254.613164	-2.961900	3.102400	-9.187800	28.198713	0.000210	20.778629
2255.609318	-3.001000	3.100200	-9.302600	28.243212	0.000211	20.800671
2256.613003	-3.004800	3.099200	-9.310500	28.265757	0.000211	20.791602
2257.612224	-2.988200	3.099900	-9.262600	28.285730	0.000209	20.784684
2258.614196	-2.997700	3.097100	-9.283400	28.333293	0.000209	20.787529
2259.615272	-2.993400	3.096300	-9.267700	28.330008	0.000210	20.788015
2260.608776	-2.990300	3.097000	-9.260000	28.382399	0.000209	20.804258
2261.611266	-2.996300	3.095200	-9.272900	28.400522	0.000208	20.782204
2262.609800	-2.984700	3.095800	-9.238300	28.391853	0.000208	20.793863
2263.619168	-2.994900	3.093900	-9.264600	28.364420	0.000210	20.778568
2264.614856	-3.003100	3.093400	-9.288900	28.335321	0.000209	20.769182
2265.618672	-3.015000	3.091400	-9.319000	28.304856	0.000208	20.799200
2266.616200	-2.990900	3.091900	-9.246600	28.268353	0.000207	20.797060
2267.624805	-2.994500	3.091200	-9.255600	28.239070	0.000207	20.788915
2268.614703	-2.994900	3.088800	-9.250100	28.231354	0.000208	20.786362
2269.618563	-3.012700	3.088000	-9.302400	28.195875	0.000207	20.762495
2270.614080	-3.004500	3.087200	-9.274800	28.209654	0.000207	20.782058
2271.616296	-2.979900	3.087900	-9.201000	28.220148	0.000207	20.781717
2272.618568	-3.021800	3.085000	-9.321200	28.273377	0.000206	20.787893
2273.617194	-3.000300	3.084400	-9.253300	28.297768	0.000206	20.778787
2274.619806	-3.014000	3.082700	-9.290700	28.323391	0.000205	20.766179
2275.619783	-2.994400	3.083800	-9.233000	28.384983	0.000204	20.805437
2276.622802	-3.026200	3.081100	-9.323100	28.394135	0.000206	20.780039
2277.618808	-2.996400	3.081200	-9.231700	28.350861	0.000206	20.776295
2278.617850	-3.010100	3.079700	-9.269700	28.275260	0.000202	20.773195
2279.621120	-2.994300	3.079700	-9.220000	28.220751	0.000205	20.786593
2280.625082	-2.988300	3.079300	-9.200400	28.233938	0.000205	20.774739
2281.620678	-3.000500	3.078700	-9.237300	28.266603	0.000204	20.778228
2282.623211	-2.995900	3.077800	-9.219300	28.287094	0.000205	20.773255
2283.621272	-2.997100	3.077000	-9.220200	28.300316	0.000205	20.782301
2284.624913	-3.003800	3.075100	-9.236500	28.325359	0.000203	20.780015
2285.621775	-3.019400	3.074500	-9.281400	28.324430	0.000202	20.774337
2286.629142	-2.983900	3.072400	-9.166000	28.301053	0.000203	20.762654
2287.627428	-2.992900	3.073100	-9.196600	28.299012	0.000204	20.771505
2288.625382	-2.977000	3.072600	-9.146100	28.224253	0.000202	20.754556
2289.624802	-3.035600	3.069900	-9.318000	28.190682	0.000202	20.781924
2290.625201	-2.984000	3.069900	-9.160000	28.168027	0.000202	20.768599
2291.627925	-2.978200	3.071100	-9.144500	28.138705	0.000200	20.756623
2292.625788	-2.991000	3.067400	-9.172600	28.122147	0.000202	20.773146
2293.627934	-2.992500	3.067200	-9.177400	28.162484	0.000201	20.773924
2294.624032	-2.998300	3.066400	-9.192500	28.181347	0.000199	20.771103
2295.629070	-3.030000	3.064600	-9.283700	28.225908	0.000200	20.780404
2296.625687	-2.997100	3.063200	-9.179600	28.273896	0.000201	20.767553
2297.629683	-3.020100	3.063500	-9.251200	28.272435	0.000199	20.779359
2298.628074	-2.978900	3.062600	-9.121200	28.249962	0.000201	20.779966
2299.625806	-2.989600	3.061600	-9.152800	28.202118	0.000199	20.758824
2300.630086	-3.008300	3.060300	-9.205900	28.206731	0.000199	20.756830
2301.632471	-2.996200	3.058600	-9.163400	28.200464	0.000199	20.751942
2302.632054	-3.010600	3.057500	-9.204300	28.148016	0.000200	20.745608
2303.631819	-3.026800	3.055500	-9.247400	28.099189	0.000199	20.776586
2304.627110	-2.999900	3.055900	-9.166000	28.072763	0.000199	20.774641
2305.629504	-2.994300	3.054800	-9.145800	28.105300	0.000200	20.764246
2306.627072	-2.999900	3.054000	-9.160700	28.176396	0.000199	20.788404
2307.627946	-2.998000	3.053000	-9.152000	28.217080	0.000197	20.763930
2308.627738	-2.995500	3.050500	-9.136900	28.266651	0.000199	20.768319
2309.635202	-2.977100	3.051200	-9.083100	28.279535	0.000198	20.743832
2310.628401	-3.005500	3.048100	-9.159800	28.344811	0.000198	20.759298
2311.627480	-2.980900	3.048200	-9.085000	28.355099	0.000196	20.757802
2312.627310	-2.988000	3.047000	-9.103500	28.362838	0.000197	20.768441
2313.626875	-2.997600	3.047400	-9.133900	28.412257	0.000198	20.740914
2314.628540	-3.005800	3.044300	-9.150000	28.409698	0.000197	20.769158
2315.627180	-3.001600	3.044500	-9.136900	28.350824	0.000197	20.765826
2316.627457	-2.997700	3.042800	-9.120300	28.313768	0.000196	20.761705
2317.628096	-3.041400	3.039800	-9.244300	28.300630	0.000196	20.765547
2318.628872	-2.982800	3.040500	-9.067800	28.337712	0.000196	20.741717
2319.630377	-2.988600	3.039900	-9.084100	28.374128	0.000195	20.779334
2320.628421	-2.978700	3.039900	-9.053900	28.391273	0.000195	20.764355
2321.629119	-2.992700	3.038100	-9.090800	28.371170	0.000196	20.754070
2322.628849	-3.000400	3.037900	-9.113700	28.326941	0.000194	20.750787
2323.635914	-2.980300	3.036100	-9.048000	28.317426	0.000196	20.745948
2324.628219	-3.020000	3.033400	-9.160400	28.320227	0.000195	20.753984
2325.629113	-2.998500	3.031800	-9.090300	28.289412	0.000197	20.767054
2326.631735	-3.006300	3.030500	-9.109700	28.231788	0.000192	20.752185
2327.631388	-2.985500	3.030600	-9.046500	28.193846	0.000193	20.767565
2328.634904	-2.999500	3.029100	-9.084600	28.175912	0.000194	20.741923
2329.631698	-2.995900	3.028700	-9.072900	28.202456	0.000194	20.740671
2330.634282	-2.986900	3.026800	-9.039000	28.236244	0.000195	20.750507
2331.637302	-2.985700	3.026200	-9.034000	28.227731	0.000195	20.752841
2332.634663	-2.988800	3.025000	-9.040400	28.181238	0.000192	20.745388
2333.636249	-3.018000	3.024100	-9.125800	28.203664	0.000195	20.759905
2334.635048	-3.008300	3.023700	-9.094900	28.242813	0.000192	20.727248
2335.634611	-3.018400	3.021000	-9.117500	28.274632	0.000193	20.747431
2336.637035	-3.024900	3.019900	-9.133700	28.263342	0.000192	20.754556
2337.636787	-2.989700	3.018900	-9.024600	28.247716	0.000193	20.742142
2338.633800	-3.001100	3.018400	-9.057000	28.258258	0.000192	20.746592
2339.636374	-3.000500	3.016600	-9.049900	28.243127	0.000194	20.750799
2340.633926	-3.001400	3.015400	-9.049800	28.241702	0.000194	20.740829
2341.638194	-3.007100	3.013400	-9.060200	28.286828	0.000193	20.743115
2342.634395	-2.995100	3.013400	-9.024500	28.317269	0.000193	20.738677
2343.636665	-2.979700	3.013400	-8.978100	28.328788	0.000193	20.758337
2344.634043	-3.005800	3.009500	-9.045100	28.317028	0.000193	20.725631
2345.637498	-2.981100	3.010900	-8.974600	28.287589	0.000191	20.741984
2346.637758	-3.010700	3.007900	-9.054800	28.295655	0.000191	20.736355
2347.636012	-3.016000	3.006800	-9.067000	28.334246	0.000192	20.735382
2348.638877	-3.003700	3.004900	-9.024700	28.343652	0.000192	20.738215
2349.637664	-2.968800	3.004900	-8.919200	28.329634	0.000189	20.712719
2350.638762	-2.971800	3.004100	-8.926600	28.353867	0.000192	20.741863
2351.640755	-3.011900	3.000300	-9.035600	28.394472	0.000190	20.747662
2352.641284	-2.988200	3.001500	-8.967300	28.433193	0.000189	20.744926
2353.641371	-2.987600	2.999400	-8.960000	28.470330	0.000190	20.736330
2354.640951	-3.023200	2.996500	-9.058300	28.522883	0.000189	20.745157
2355.636582	-2.986700	2.997000	-8.950200	28.568165	0.000190	20.743346
2356.641920	-3.001300	2.994700	-8.987300	28.589134	0.000187	20.746920
2357.644752	-3.026200	2.993500	-9.057000	28.610911	0.000188	20.712901
2358.640000	-3.002300	2.993400	-8.985400	28.622898	0.000190	20.733035
2359.641087	-2.984900	2.991700	-8.929000	28.641656	0.000188	20.740075
2360.646358	-3.010700	2.989800	-9.000600	28.585838	0.000188	20.714676
2361.643706	-2.984600	2.989000	-8.920000	28.493558	0.000188	20.727479
2362.643128	-3.007700	2.987500	-8.984600	28.419815	0.000188	20.731455
2363.646223	-2.984700	2.985600	-8.910400	28.397116	0.000188	20.721400
2364.644747	-2.995100	2.984500	-8.937500	28.357936	0.000188	20.725096
2365.645562	-2.990100	2.983800	-8.919700	28.341068	0.000188	20.711904
2366.645943	-2.959900	2.983100	-8.829100	28.308648	0.000188	20.727151
2367.642619	-2.990000	2.979900	-8.908700	28.341962	0.000185	20.724184
2368.648753	-2.996700	2.978300	-8.924100	28.302429	0.000187	20.738434
2369.645763	-3.006800	2.976100	-8.947600	28.310036	0.000187	20.728549
2370.641614	-2.989300	2.975400	-8.893000	28.315784	0.000187	20.724853
2371.647549	-2.961400	2.977200	-8.815600	28.341418	0.000186	20.722689
2372.646957	-3.011600	2.972500	-8.950900	28.315832	0.000186	20.720160
2373.647942	-3.025300	2.970200	-8.984200	28.317981	0.000187	20.724221
2374.644492	-3.002000	2.971100	-8.917900	28.251894	0.000188	20.726433
2375.647639	-3.008000	2.968500	-8.927900	28.277663	0.000187	20.725351
2376.644973	-3.005800	2.966500	-8.915000	28.332218	0.000187	20.726227
2377.648067	-3.037300	2.964900	-9.003900	28.342650	0.000184	20.713497
2378.648928	-3.009400	2.963600	-8.918100	28.397708	0.000187	20.725789
2379.651090	-2.980700	2.962800	-8.830000	28.435366	0.000187	20.713448
2380.650794	-3.013900	2.961300	-8.923700	28.454719	0.000184	20.705910
2381.650838	-2.990500	2.961400	-8.855500	28.503735	0.000185	20.714020
2382.649575	-3.005800	2.957100	-8.887400	28.566572	0.000185	20.713290
2383.647398	-3.010500	2.957600	-8.903200	28.584885	0.000184	20.713241
2384.650370	-3.019200	2.955200	-8.920400	28.616524	0.000186	20.711442
2385.647655	-3.032200	2.951900	-8.950000	28.617635	0.000186	20.702603
2386.651042	-3.016400	2.952600	-8.904100	28.612806	0.000186	20.713861
2387.648350	-3.003700	2.949400	-8.858200	28.645616	0.000184	20.702335
2388.650004	-3.009600	2.947900	-8.871500	28.640618	0.000185	20.712475
2389.650622	-2.997100	2.948200	-8.835000	28.650227	0.000183	20.709351
2390.652832	-3.031100	2.944000	-8.921600	28.630479	0.000186	20.724075
2391.650316	-3.014900	2.944500	-8.875200	28.566161	0.000184	20.719515
2392.649260	-3.004500	2.942000	-8.838300	28.550286	0.000187	20.711114
2393.652010	-3.008000	2.941200	-8.845400	28.561405	0.000187	20.701447
2394.647354	-3.026300	2.938300	-8.891400	28.537744	0.000184	20.728829
2395.652356	-2.969700	2.938100	-8.724000	28.542403	0.000184	20.712658
2396.651805	-2.977600	2.938100	-8.747700	28.562479	0.000182	20.728610
2397.655448	-3.020500	2.934600	-8.863100	28.536585	0.000182	20.710117
2398.649525	-3.017200	2.933900	-8.851500	28.541872	0.000185	20.705010
2399.652665	-2.974100	2.933200	-8.722600	28.554982	0.000182	20.679805
2400.651230	-3.021100	2.927700	-8.842200	28.531840	0.000183	20.711503
2401.653016	-2.989800	2.927600	-8.751700	28.497059	0.000185	20.690225
2402.656193	-3.007400	2.926000	-8.797800	28.486206	0.000184	20.728135
2403.649601	-2.985900	2.924500	-8.730500	28.520902	0.000184	20.698590
2404.653550	-2.987100	2.923000	-8.730100	28.567163	0.000183	20.714360
2405.655213	-2.993600	2.923100	-8.748800	28.567368	0.000180	20.695125
2406.658307	-2.991600	2.922400	-8.742100	28.605008	0.000184	20.699368
2407.653440	-2.946200	2.919400	-8.599200	28.642248	0.000186	20.700365
2408.656516	-3.011400	2.916100	-8.780400	28.663251	0.000183	20.690225
2409.657702	-2.990800	2.917000	-8.723000	28.701551	0.000184	20.720269
2410.658218	-3.002000	2.912900	-8.743500	28.719801	0.000183	20.701666
2411.656930	-3.021000	2.910700	-8.791500	28.756096	0.000183	20.682747
2412.652765	-3.024800	2.909200	-8.797600	28.776083	0.000183	20.687708
2413.659019	-3.014400	2.907900	-8.764100	28.798098	0.000182	20.690918
2414.656465	-3.021200	2.906100	-8.779100	28.829719	0.000183	20.680570
2415.658437	-2.973100	2.906200	-8.639400	28.848474	0.000184	20.679549
2416.652946	-3.020300	2.901400	-8.762000	28.837395	0.000181	20.680242
2417.656441	-3.013600	2.900500	-8.740400	28.854593	0.000182	20.708949
2418.656470	-3.021600	2.898700	-8.757700	28.825664	0.000181	20.693082
2419.657406	-3.011300	2.896700	-8.721800	28.829043	0.000183	20.687477
2420.657362	-3.024200	2.896200	-8.756600	28.831915	0.000184	20.669980
2421.655397	-3.006300	2.892700	-8.695400	28.837238	0.000183	20.689568
2422.658592	-2.975300	2.893800	-8.609400	28.871259	0.000182	20.693021
2423.657759	-2.964100	2.891800	-8.569700	28.882688	0.000184	20.668496
2424.656850	-2.982100	2.889100	-8.613700	28.837238	0.000182	20.686723
2425.658001	-3.009300	2.886800	-8.684800	28.862304	0.000181	20.693957
2426.659440	-3.003400	2.884800	-8.663400	28.855401	0.000182	20.687477
2427.661510	-3.002000	2.881700	-8.649600	28.906655	0.000181	20.671779
2428.653946	-2.986000	2.880600	-8.600600	28.893067	0.000182	20.702189
2429.662502	-2.999200	2.878700	-8.633400	28.854001	0.000183	20.685118
2430.658865	-2.990700	2.877800	-8.605200	28.848257	0.000182	20.675062
2431.658883	-3.003300	2.875000	-8.633300	28.849307	0.000183	20.699356
2432.662792	-2.998600	2.873600	-8.613900	28.887660	0.000183	20.682990
2433.665602	-3.000500	2.871200	-8.613700	28.935461	0.000181	20.687525
2434.656622	-2.991500	2.870500	-8.586500	28.955566	0.000181	20.696875
2435.663315	-3.007900	2.866600	-8.621500	28.951137	0.000182	20.700949
2436.662032	-3.014500	2.865200	-8.635700	28.959741	0.000180	20.707721
2437.656231	-2.988900	2.864800	-8.560100	28.976684	0.000182	20.679744
2438.661738	-2.983800	2.861400	-8.536300	28.995026	0.000181	20.682577
2439.666532	-3.008300	2.859500	-8.601300	28.983152	0.000183	20.688632
2440.663453	-2.996500	2.856200	-8.557500	28.985590	0.000182	20.693933
2441.665213	-3.010000	2.854800	-8.592400	28.935920	0.000183	20.670442
2442.666828	-3.022200	2.852400	-8.618500	28.900187	0.000181	20.679962
2443.665531	-2.989500	2.850000	-8.518600	28.821886	0.000178	20.694018
2444.667886	-2.990100	2.850000	-8.521200	28.723386	0.000183	20.667816
2445.663677	-3.011400	2.846600	-8.570100	28.719367	0.000181	20.703599
2446.660898	-2.977400	2.846100	-8.472800	28.712161	0.000181	20.679269
2447.664943	-3.003000	2.843600	-8.536900	28.701382	0.000184	20.677421
2448.663052	-3.000900	2.840400	-8.522600	28.706416	0.000180	20.673482
2449.664275	-3.021400	2.839200	-8.576300	28.687706	0.000184	20.684984
2450.667398	-3.002700	2.836400	-8.516200	28.660620	0.000179	20.686151
2451.664774	-2.999800	2.834300	-8.501200	28.732125	0.000182	20.684206
2452.666014	-2.986900	2.832100	-8.458600	28.700598	0.000183	20.678528
2453.668474	-2.988500	2.831100	-8.460100	28.698980	0.000181	20.677373
2454.668375	-3.000000	2.827600	-8.481900	28.709530	0.000182	20.657176
2455.666057	-2.983500	2.826100	-8.430700	28.748613	0.000181	20.683744
2456.664594	-3.013400	2.823700	-8.507800	28.793379	0.000181	20.679525
2457.665160	-3.004100	2.820900	-8.473200	28.830564	0.000182	20.671938
2458.666590	-3.013800	2.818300	-8.492600	28.877861	0.000181	20.669323
2459.665922	-2.971200	2.816600	-8.368200	28.849814	0.000181	20.669992
2460.668357	-2.986800	2.815200	-8.407000	28.859674	0.000184	20.676607
2461.672803	-3.018100	2.810900	-8.482600	28.848969	0.000183	20.682419
2462.669987	-2.993300	2.809800	-8.410400	28.798074	0.000183	20.692316
2463.666580	-2.978000	2.808100	-8.361300	28.780996	0.000182	20.675111
2464.669374	-2.993000	2.804400	-8.392900	28.774321	0.000182	20.686407
2465.672088	-3.015200	2.801100	-8.444700	28.788382	0.000182	20.681130
2466.668228	-3.020900	2.799600	-8.455200	28.804664	0.000182	20.684255
2467.670569	-2.993700	2.796500	-8.371000	28.861255	0.000181	20.673457
2468.670919	-3.019100	2.794200	-8.434900	28.904109	0.000182	20.686285
2469.667651	-3.001100	2.792900	-8.379900	28.911241	0.000184	20.676874
2470.669823	-3.018000	2.788000	-8.413500	28.866480	0.000180	20.676351
2471.673829	-3.014500	2.785800	-8.395800	28.848920	0.000183	20.683793
2472.667994	-2.989600	2.785000	-8.325000	28.833436	0.000183	20.699016
2473.667747	-2.996900	2.781900	-8.335900	28.823528	0.000181	20.687136
2474.678101	-2.959800	2.779700	-8.225700	28.833219	0.000181	20.694055
2475.677666	-2.984700	2.775500	-8.282700	28.761817	0.000182	20.677604
2476.674157	-3.000000	2.773300	-8.319700	28.681888	0.000181	20.685288
2477.668760	-3.019400	2.769700	-8.362100	28.629694	0.000182	20.690091
2478.673261	-3.031000	2.766300	-8.383200	28.595568	0.000181	20.691757
2479.670436	-3.011900	2.762300	-8.319100	28.640715	0.000182	20.669421
2480.671464	-2.997300	2.761000	-8.274600	28.644324	0.000180	20.667366
2481.672107	-2.970300	2.758600	-8.192500	28.673861	0.000181	20.670089
2482.667603	-2.992500	2.754900	-8.242400	28.721926	0.000181	20.681045
2483.669535	-3.006200	2.752000	-8.271700	28.784266	0.000182	20.694529
2484.676425	-3.034200	2.747800	-8.334100	28.841293	0.000181	20.698870
2485.674956	-2.993100	2.747000	-8.220800	28.879345	0.000183	20.698323
2486.672610	-2.987000	2.743200	-8.192800	28.919206	0.000181	20.692960
2487.672807	-2.962200	2.741200	-8.118600	28.960985	0.000181	20.690954
2488.671639	-2.993600	2.736700	-8.191600	28.971037	0.000181	20.696815
2489.674775	-2.994500	2.732700	-8.182100	29.033531	0.000180	20.691976
2490.674333	-2.990800	2.730800	-8.166400	29.064759	0.000180	20.685033
2491.671830	-2.980200	2.727300	-8.127100	29.125958	0.000182	20.678893
2492.670198	-3.004600	2.723500	-8.182100	29.149015	0.000181	20.708293
2493.672290	-2.989500	2.720600	-8.132400	29.141727	0.000181	20.691465
2494.673451	-2.987300	2.717700	-8.118100	29.143247	0.000182	20.690152
2495.677567	-3.019000	2.712100	-8.186700	29.151367	0.000181	20.708767
2496.676807	-2.998400	2.708800	-8.121000	29.129975	0.000180	20.687209
2497.674792	-3.002200	2.707000	-8.126100	29.162166	0.000181	20.699733
2498.677814	-2.988800	2.703600	-8.078800	29.196949	0.000181	20.694954
2499.672971	-2.996400	2.699700	-8.087900	29.221609	0.000180	20.705581
2500.670852	-2.990400	2.696000	-8.060800	29.234843	0.000178	20.710384
2501.674830	-3.004400	2.690900	-8.083400	29.299132	0.000181	20.695040
2502.675034	-3.001700	2.689600	-8.072500	29.336468	0.000182	20.705642
2503.673427	-2.993000	2.683900	-8.032300	29.382633	0.000182	20.702384
2504.675196	-3.002800	2.679400	-8.044500	29.365914	0.000182	20.711138
2505.675339	-2.992800	2.677300	-8.011500	29.385793	0.000181	20.707466
2506.673356	-3.010300	2.672500	-8.043900	29.373140	0.000181	20.704669
2507.678228	-2.989900	2.669100	-7.979500	29.297624	0.000181	20.694468
2508.682096	-2.990800	2.665600	-7.971700	29.284258	0.000181	20.709922
2509.675934	-3.010000	2.661200	-8.009600	29.270517	0.000182	20.697496
2510.678072	-2.965400	2.656900	-7.878000	29.271410	0.000182	20.697921
2511.681432	-3.029400	2.652500	-8.033800	29.246835	0.000180	20.705873
2512.676540	-2.984800	2.648100	-7.902600	29.275318	0.000183	20.705654
2513.680877	-3.017000	2.643300	-7.973600	29.291436	0.000182	20.696766
2514.681813	-2.995200	2.640500	-7.907800	29.326769	0.000183	20.703928
2515.680111	-2.976500	2.636500	-7.845900	29.343079	0.000181	20.719418
2516.685219	-2.973800	2.632700	-7.827400	29.399339	0.000183	20.714007
2517.677158	-3.026500	2.626100	-7.947100	29.424465	0.000183	20.690492
2518.676387	-2.997400	2.620400	-7.853400	29.435261	0.000182	20.699003
2519.685762	-2.982100	2.616700	-7.802400	29.450905	0.000181	20.710505
2520.678437	-3.003400	2.611500	-7.842100	29.420074	0.000182	20.695550
2521.677174	-2.979800	2.606700	-7.766600	29.430508	0.000181	20.711284
2522.687095	-2.984500	2.601100	-7.762400	29.452352	0.000184	20.706748
2523.679269	-2.986500	2.595900	-7.751100	29.467755	0.000181	20.729862
2524.679575	-3.003500	2.590400	-7.779300	29.500092	0.000180	20.704608
2525.687207	-2.981600	2.585900	-7.709400	29.506701	0.000180	20.732136
2526.678626	-2.975000	2.580500	-7.676100	29.483604	0.000182	20.718336
2527.677225	-3.039100	2.572400	-7.816400	29.491492	0.000183	20.723916
2528.684670	-3.016800	2.568900	-7.748900	29.505905	0.000183	20.718056
2529.682868	-2.987000	2.564200	-7.658300	29.497861	0.000182	20.708049
2530.681619	-2.992100	2.558000	-7.652800	29.489321	0.000179	20.714141
2531.684141	-3.010600	2.550900	-7.679000	29.487005	0.000183	20.725084
2532.683830	-3.006300	2.545900	-7.652600	29.510223	0.000184	20.714348
2533.681738	-3.007600	2.539300	-7.635900	29.502938	0.000181	20.724549
2534.690591	-2.974200	2.535700	-7.540100	29.557321	0.000181	20.710615
2535.685205	-2.995600	2.527100	-7.567500	29.590029	0.000182	20.712293
2536.686449	-3.026600	2.520600	-7.628100	29.634012	0.000181	20.714907
2537.681120	-2.984600	2.516200	-7.509300	29.679982	0.000181	20.720001
2538.680727	-2.969700	2.511300	-7.457300	29.673157	0.000183	20.704584
2539.683301	-3.002300	2.502700	-7.512700	29.702883	0.000183	20.723649
2540.685608	-3.014100	2.497000	-7.524800	29.720887	0.000184	20.714299
