LabVIEW Measurement	
Writer_Version	2
Reader_Version	2
Separator	Tab
Decimal_Separator	.
Multi_Headings	No
X_Columns	One
Time_Pref	Absolute
Operator	admin
Description	Clolumns are: time, Current, Voltage, Power, Battery Temp, and Chamber Temp
Date	2024/08/16
Time	13:06:06.104549407958984375
***End_of_Header***	
	
Channels	6						
Samples	1	1	1	1	1	1	
Date	2024/08/24	2024/08/24	2024/08/24	2024/08/24	2024/08/24	2024/08/24	
Time	21:15:30.6188898086547851562	21:15:30.6250753402709960937	21:15:30.6310863494873046875	21:15:30.5942897796630859375	21:15:30.5942897796630859375	21:15:30.5942897796630859375	
X_Dimension	Time	Time	Time	Time	Time	Time	
X0	0.0000000000000000E+0	0.0000000000000000E+0	0.0000000000000000E+0	0.0000000000000000E+0	0.0000000000000000E+0	0.0000000000000000E+0	
Delta_X	1.000000	1.000000	1.000000	1.000000	1.000000	1.000000	
***End_of_Header***							
X_Value	Untitled	Untitled 1	Untitled 2	Untitled 3	Untitled 4	Untitled 5	Comment
0.000000	0.020962	4.105500	0.086077	21.076370	0.000970	20.932727
0.998287	-3.008800	3.946800	-11.874000	21.095879	0.000969	20.930904
1.997415	-2.995400	3.941700	-11.805000	21.086970	0.000970	20.924839
2.996603	-2.997800	3.937100	-11.802000	21.093631	0.000968	20.947620
4.007508	-3.006500	3.932500	-11.822000	21.087191	0.000969	20.936438
4.998393	-2.988900	3.928900	-11.742000	21.069576	0.000969	20.928303
5.996651	-2.987800	3.926600	-11.731000	21.084094	0.000966	20.935711
7.000457	-2.994900	3.924400	-11.752000	21.106873	0.000965	20.936684
7.997883	-2.994500	3.922700	-11.746000	21.084365	0.000963	20.919389
8.996361	-2.998300	3.919800	-11.752000	21.075981	0.000964	20.921433
10.002185	-2.993800	3.918300	-11.729000	21.079472	0.000964	20.926348
11.004395	-2.996600	3.915900	-11.733000	21.097834	0.000962	20.916266
12.006266	-2.982200	3.914500	-11.673000	21.108062	0.000962	20.917962
13.000978	-2.994400	3.912200	-11.713000	21.108509	0.000962	20.909401
14.006045	-3.008900	3.912000	-11.770000	21.125572	0.000963	20.908450
14.997957	-2.988100	3.911700	-11.688000	21.102119	0.000960	20.936197
15.999243	-2.992700	3.909100	-11.698000	21.105811	0.000959	20.920451
17.005873	-3.012800	3.908100	-11.773000	21.129209	0.000961	20.909244
18.004718	-3.004900	3.907300	-11.740000	21.112445	0.000960	20.914286
19.004202	-3.017400	3.906100	-11.786000	21.125317	0.000959	20.889705
20.007998	-3.017800	3.904600	-11.782000	21.119701	0.000957	20.916802
21.006841	-3.002500	3.904700	-11.723000	21.123345	0.000957	20.917602
22.002018	-3.009600	3.903900	-11.748000	21.136566	0.000957	20.912335
23.006743	-2.994800	3.903000	-11.688000	21.144175	0.000956	20.903826
24.002175	-2.995100	3.901300	-11.683000	21.137463	0.000956	20.901854
25.004900	-3.008000	3.900100	-11.730000	21.160587	0.000957	20.920242
26.006476	-3.010900	3.900000	-11.741000	21.162659	0.000955	20.902876
27.012422	-2.982600	3.900100	-11.632000	21.169345	0.000955	20.895340
28.011250	-2.986300	3.898400	-11.641000	21.168495	0.000955	20.897334
29.011121	-3.009500	3.898100	-11.730000	21.179996	0.000952	20.925432
30.010363	-2.991300	3.898400	-11.660000	21.182043	0.000954	20.898084
31.008444	-3.003300	3.897300	-11.704000	21.178100	0.000954	20.912157
32.012389	-3.009500	3.897200	-11.728000	21.160088	0.000952	20.906468
33.006049	-3.027400	3.895700	-11.793000	21.188551	0.000953	20.906017
34.008041	-3.009200	3.895900	-11.721000	21.178574	0.000953	20.909312
35.014384	-2.991500	3.894800	-11.650000	21.203721	0.000952	20.905545
36.013257	-3.005100	3.894100	-11.701000	21.205143	0.000951	20.905545
37.012982	-2.995800	3.893900	-11.665000	21.199478	0.000951	20.903197
38.013611	-3.009200	3.893200	-11.715000	21.210856	0.000951	20.906044
39.014619	-3.003300	3.893200	-11.692000	21.218563	0.000951	20.884832
40.008544	-2.996900	3.892300	-11.664000	21.209083	0.000950	20.915649
41.013176	-2.993500	3.891500	-11.648000	21.217266	0.000949	20.897284
42.014619	-2.995200	3.891200	-11.654000	21.225973	0.000949	20.900304
43.012442	-3.000900	3.891200	-11.675000	21.267658	0.000948	20.907865
44.013899	-2.999000	3.891300	-11.669000	21.237873	0.000949	20.895139
45.013737	-3.000400	3.890700	-11.671000	21.243886	0.000947	20.893569
46.013290	-3.023500	3.889400	-11.758000	21.266612	0.000948	20.902552
47.014803	-3.018600	3.889200	-11.739000	21.276542	0.000947	20.896365
48.012928	-2.991200	3.888600	-11.631000	21.276665	0.000946	20.900282
49.011669	-3.009100	3.888500	-11.701000	21.243715	0.000946	20.875381
50.012064	-3.009300	3.888300	-11.699000	21.267464	0.000947	20.908145
51.017734	-2.999600	3.887800	-11.661000	21.272053	0.000946	20.893771
52.012557	-2.995700	3.887900	-11.646000	21.267466	0.000946	20.895821
53.024007	-2.976900	3.889200	-11.577000	21.282680	0.000947	20.880697
54.011994	-2.978100	3.887500	-11.576000	21.296327	0.000945	20.886762
55.029321	-2.990500	3.889100	-11.629000	21.312639	0.000942	20.876056
56.010609	-2.975700	3.888300	-11.569000	21.319402	0.000948	20.887088
57.017589	-3.000500	3.886800	-11.661000	21.302566	0.000945	20.902485
58.014228	-2.983700	3.886200	-11.595000	21.304938	0.000944	20.899643
59.019501	-3.005500	3.886200	-11.679000	21.321897	0.000944	20.883421
60.016118	-3.012600	3.885200	-11.703000	21.323595	0.000945	20.882274
61.012355	-2.999500	3.885800	-11.654000	21.339287	0.000943	20.889912
62.017108	-2.989900	3.886200	-11.618000	21.352732	0.000943	20.884398
63.020537	-2.978100	3.885000	-11.568000	21.334550	0.000943	20.878061
64.024375	-2.996100	3.883600	-11.634000	21.342331	0.000944	20.886794
65.014576	-2.993200	3.883500	-11.623000	21.358169	0.000943	20.894578
66.019850	-3.011500	3.883300	-11.693000	21.366278	0.000943	20.858597
67.017190	-2.988500	3.884700	-11.608000	21.363236	0.000941	20.899647
68.019155	-3.011000	3.882800	-11.690000	21.386708	0.000942	20.877615
69.022013	-3.007900	3.882600	-11.676000	21.398955	0.000941	20.901719
70.018180	-2.999900	3.882800	-11.646000	21.393817	0.000941	20.895631
71.019660	-2.968300	3.882400	-11.522000	21.401126	0.000943	20.893935
72.024193	-3.008800	3.882000	-11.679000	21.421704	0.000941	20.896980
73.023246	-3.005100	3.881000	-11.662000	21.417089	0.000939	20.888095
74.022088	-3.000800	3.880800	-11.644000	21.425147	0.000942	20.882408
75.020605	-2.985400	3.880800	-11.585000	21.452931	0.000941	20.892663
76.027586	-3.002800	3.880300	-11.651000	21.442531	0.000942	20.866612
77.020626	-3.005700	3.879900	-11.661000	21.440735	0.000940	20.888522
78.027844	-2.999400	3.879800	-11.636000	21.447071	0.000940	20.863569
79.018362	-3.010400	3.880300	-11.679000	21.445600	0.000942	20.895285
80.021450	-3.021000	3.877600	-11.712000	21.455052	0.000941	20.863968
81.021764	-2.989600	3.880100	-11.599000	21.468198	0.000941	20.872853
82.022700	-3.025800	3.877800	-11.732000	21.473458	0.000942	20.883331
83.022381	-3.007500	3.877600	-11.662000	21.467674	0.000941	20.886552
84.024996	-2.986400	3.880000	-11.586000	21.471488	0.000939	20.864765
85.022174	-3.005500	3.877700	-11.652000	21.485781	0.000941	20.893290
86.028142	-2.994500	3.877600	-11.611000	21.514113	0.000941	20.887974
87.026231	-2.988400	3.877000	-11.585000	21.506433	0.000939	20.871282
88.021131	-2.992000	3.878100	-11.602000	21.511769	0.000939	20.887525
89.023877	-2.991100	3.877000	-11.594000	21.502091	0.000942	20.879265
90.023543	-3.007800	3.877400	-11.661000	21.525686	0.000940	20.885804
91.021451	-2.989800	3.878000	-11.593000	21.527456	0.000941	20.866714
92.025672	-2.999100	3.878300	-11.631000	21.538505	0.000941	20.873977
93.028834	-2.995000	3.877100	-11.611000	21.545415	0.000939	20.868563
94.032037	-3.029500	3.875800	-11.741000	21.561623	0.000939	20.868187
95.024679	-3.023300	3.874900	-11.713000	21.561972	0.000939	20.878492
96.026882	-3.034900	3.875600	-11.761000	21.555837	0.000940	20.888000
97.027693	-3.029600	3.875300	-11.739000	21.571998	0.000940	20.876671
98.024513	-2.997100	3.874800	-11.611000	21.569977	0.000940	20.865641
99.032771	-2.997300	3.875400	-11.614000	21.581625	0.000940	20.870184
100.025818	-2.990400	3.875000	-11.587000	21.582572	0.000941	20.857382
101.039285	-2.993700	3.874600	-11.598000	21.588081	0.000938	20.863368
102.031136	-2.998800	3.875000	-11.619000	21.595115	0.000939	20.870407
103.035579	-2.979300	3.876200	-11.547000	21.597159	0.000939	20.872926
104.027213	-2.998400	3.874100	-11.615000	21.608006	0.000942	20.868134
105.031013	-2.990800	3.875200	-11.589000	21.592944	0.000939	20.877717
106.029941	-3.023600	3.873600	-11.711000	21.622171	0.000940	20.861446
107.030342	-2.997500	3.875600	-11.615000	21.622569	0.000939	20.874173
108.030982	-3.010000	3.873000	-11.657000	21.634465	0.000939	20.862844
109.033513	-3.015000	3.872300	-11.674000	21.628779	0.000940	20.860473
110.035551	-3.015200	3.872300	-11.675000	21.643843	0.000941	20.863694
111.033604	-3.001400	3.873600	-11.625000	21.640700	0.000939	20.850592
112.029692	-2.992700	3.873900	-11.592000	21.650923	0.000941	20.844227
113.030225	-3.000300	3.873100	-11.619000	21.652522	0.000939	20.869060
114.032573	-3.006400	3.872000	-11.640000	21.670499	0.000942	20.853860
115.037784	-3.001900	3.871400	-11.621000	21.663394	0.000939	20.871405
116.030675	-3.017400	3.870000	-11.675000	21.678979	0.000943	20.863295
117.031803	-3.004900	3.872800	-11.636000	21.666586	0.000943	20.867961
118.036864	-2.998700	3.871100	-11.606000	21.655987	0.000943	20.854036
119.037518	-2.994500	3.871300	-11.591000	21.673642	0.000941	20.868859
120.037119	-2.996000	3.871200	-11.597000	21.680273	0.000940	20.866960
121.038801	-3.015600	3.871000	-11.672000	21.713561	0.000943	20.849541
122.034377	-2.998200	3.872000	-11.609000	21.725458	0.000942	20.861921
123.034376	-2.990100	3.871100	-11.574000	21.733886	0.000941	20.835743
124.035560	-3.015300	3.870300	-11.669000	21.719871	0.000944	20.855381
125.044464	-3.007800	3.869900	-11.639000	21.721242	0.000942	20.851538
126.037856	-2.998300	3.870000	-11.602000	21.742760	0.000941	20.868331
127.040163	-2.967800	3.871700	-11.489000	21.744482	0.000943	20.857252
128.039849	-2.984600	3.870200	-11.549000	21.738521	0.000943	20.859347
129.039937	-3.008400	3.870400	-11.643000	21.749668	0.000944	20.866710
130.037668	-2.984600	3.869000	-11.545000	21.763058	0.000944	20.856878
131.038374	-2.997100	3.868700	-11.594000	21.767545	0.000943	20.860895
132.035571	-2.989200	3.869900	-11.567000	21.771335	0.000942	20.837188
133.038611	-2.987600	3.869700	-11.561000	21.751934	0.000943	20.850487
134.041116	-3.009200	3.868300	-11.639000	21.772980	0.000944	20.831722
135.035938	-2.996300	3.869000	-11.591000	21.796991	0.000942	20.834416
136.035528	-2.993300	3.867900	-11.577000	21.816191	0.000944	20.859796
137.040534	-3.010200	3.868600	-11.643000	21.803099	0.000944	20.851435
138.045953	-2.986700	3.869200	-11.556000	21.810030	0.000945	20.850311
139.045266	-3.005200	3.868300	-11.623000	21.805543	0.000944	20.838235
140.038560	-3.000900	3.867100	-11.603000	21.809233	0.000943	20.835764
141.045965	-2.991100	3.867500	-11.567000	21.818858	0.000946	20.840181
142.042311	-2.999000	3.865700	-11.592000	21.824219	0.000944	20.829901
143.041432	-2.989900	3.867000	-11.561000	21.796617	0.000947	20.850163
144.047033	-2.995600	3.864900	-11.577000	21.830651	0.000945	20.851985
145.041753	-3.033700	3.866500	-11.729000	21.812150	0.000944	20.835839
146.045769	-2.992300	3.866600	-11.568000	21.821450	0.000946	20.826655
147.045516	-3.002600	3.866300	-11.607000	21.848204	0.000947	20.821665
148.046766	-2.993000	3.865700	-11.569000	21.843767	0.000946	20.825759
149.044342	-3.004700	3.864300	-11.610000	21.854811	0.000947	20.833493
150.047900	-3.013600	3.864600	-11.645000	21.868799	0.000946	20.824735
151.041472	-2.993700	3.865300	-11.570000	21.884905	0.000947	20.837063
152.044488	-2.995200	3.864500	-11.574000	21.892309	0.000947	20.821241
153.046390	-2.991100	3.864700	-11.558000	21.872614	0.000949	20.816700
154.048137	-3.015000	3.863600	-11.647000	21.896151	0.000948	20.835043
155.042992	-2.997000	3.864100	-11.579000	21.891339	0.000947	20.823589
156.042006	-3.033500	3.863200	-11.718000	21.888470	0.000947	20.818820
157.051920	-2.999500	3.863800	-11.589000	21.895452	0.000947	20.808266
158.049037	-2.973700	3.864600	-11.490000	21.894780	0.000946	20.822292
159.045042	-3.000700	3.863300	-11.591000	21.904452	0.000948	20.830550
160.055198	-2.991100	3.862800	-11.553000	21.933272	0.000949	20.825734
161.047402	-2.999000	3.863700	-11.587000	21.941872	0.000949	20.818695
162.043992	-2.985100	3.863800	-11.531000	21.923498	0.000950	20.808838
163.050869	-3.004100	3.862700	-11.603000	21.939403	0.000949	20.838508
164.055017	-3.007800	3.862700	-11.618000	21.953985	0.000949	20.825604
165.046942	-3.013300	3.864300	-11.643000	21.962037	0.000950	20.817069
166.052981	-2.975900	3.862900	-11.495000	21.969987	0.000951	20.831191
167.049609	-2.980300	3.862300	-11.510000	21.995563	0.000950	20.825973
168.050006	-3.006300	3.860400	-11.604000	21.974697	0.000950	20.832586
169.049296	-3.021100	3.861000	-11.664000	21.979805	0.000951	20.824423
170.050162	-3.009900	3.860000	-11.617000	21.986734	0.000950	20.818084
171.049930	-3.020200	3.859600	-11.655000	22.009044	0.000952	20.820977
172.058639	-3.033500	3.859900	-11.708000	21.998770	0.000951	20.817330
173.054496	-2.995700	3.861300	-11.566000	22.002682	0.000951	20.810815
174.052409	-2.987500	3.860200	-11.531000	22.027262	0.000951	20.813135
175.055441	-3.000100	3.859800	-11.578000	22.017113	0.000952	20.826683
176.055829	-2.978300	3.859200	-11.494000	22.017088	0.000952	20.814330
177.062469	-2.985900	3.859700	-11.523000	21.991009	0.000954	20.838484
178.059573	-2.983400	3.858200	-11.509000	21.990982	0.000955	20.814276
179.055242	-2.980200	3.860500	-11.504000	22.002200	0.000953	20.804642
180.055857	-3.002800	3.858300	-11.585000	22.008806	0.000952	20.820738
181.057599	-2.989900	3.857900	-11.533000	22.018452	0.000953	20.810480
182.057183	-2.994600	3.860100	-11.557000	22.015260	0.000954	20.815345
183.054277	-3.004100	3.858200	-11.589000	22.011170	0.000954	20.820734
184.056406	-3.009700	3.858900	-11.614000	22.041058	0.000955	20.806083
185.055720	-3.006200	3.858000	-11.597000	22.045343	0.000953	20.814167
186.057896	-3.019100	3.857400	-11.644000	22.078372	0.000955	20.809774
187.058476	-2.977000	3.858400	-11.485000	22.054317	0.000955	20.809400
188.057001	-2.992700	3.859000	-11.548000	22.085051	0.000959	20.806029
189.058369	-3.001000	3.857400	-11.575000	22.094221	0.000957	20.797665
190.055588	-3.001100	3.857700	-11.576000	22.068272	0.000958	20.816732
191.056619	-3.014700	3.856700	-11.626000	22.062235	0.000960	20.822068
192.065488	-2.996400	3.857500	-11.557000	22.077815	0.000957	20.802104
193.059954	-3.005000	3.856700	-11.589000	22.102516	0.000959	20.815453
194.059874	-3.012500	3.855200	-11.611000	22.099948	0.000959	20.798658
195.057857	-2.997200	3.856900	-11.558000	22.118742	0.000959	20.822689
196.060368	-2.986600	3.857100	-11.518000	22.107449	0.000960	20.792890
197.060576	-3.005300	3.855100	-11.585000	22.114826	0.000961	20.805492
198.059900	-2.988500	3.854900	-11.520000	22.155080	0.000960	20.801697
199.064324	-2.993800	3.854600	-11.539000	22.133743	0.000960	20.809258
200.062459	-3.016100	3.856100	-11.630000	22.132099	0.000962	20.802871
201.060931	-3.027600	3.854100	-11.667000	22.136585	0.000962	20.793137
202.061544	-3.017300	3.855300	-11.632000	22.154880	0.000960	20.802919
203.059638	-2.994500	3.856000	-11.546000	22.154381	0.000963	20.810954
204.059665	-3.001500	3.854500	-11.567000	22.181672	0.000964	20.799397
205.062955	-2.996400	3.852600	-11.543000	22.152856	0.000963	20.782400
206.064960	-2.993900	3.854100	-11.537000	22.176463	0.000964	20.793233
207.061366	-2.992500	3.854300	-11.533000	22.174020	0.000964	20.793158
208.062679	-2.984500	3.856500	-11.508000	22.177783	0.000963	20.797400
209.063334	-3.022900	3.852700	-11.645000	22.167736	0.000964	20.781651
210.064553	-3.000900	3.853400	-11.563000	22.182118	0.000965	20.808853
211.070832	-2.985500	3.853100	-11.501000	22.201558	0.000966	20.812195
212.064402	-3.008900	3.851500	-11.588000	22.212229	0.000964	20.795852
213.064679	-2.990000	3.854200	-11.523000	22.228228	0.000966	20.802388
214.065347	-2.998000	3.854700	-11.556000	22.212400	0.000966	20.801713
215.069784	-2.997200	3.853300	-11.548000	22.216886	0.000967	20.792454
216.068170	-3.018200	3.851100	-11.622000	22.233661	0.000967	20.787913
217.068187	-3.000100	3.851700	-11.553000	22.270773	0.000968	20.807529
218.068798	-3.002400	3.852500	-11.566000	22.261876	0.000967	20.793404
219.069174	-3.005600	3.850700	-11.573000	22.266786	0.000970	20.815865
220.068159	-3.000600	3.852100	-11.557000	22.260130	0.000969	20.784069
221.067887	-3.001100	3.850400	-11.553000	22.249563	0.000969	20.799094
222.067641	-3.010900	3.850900	-11.594000	22.289617	0.000970	20.801266
223.067830	-3.006700	3.851000	-11.577000	22.284157	0.000972	20.804809
224.068333	-3.007500	3.850600	-11.580000	22.279274	0.000971	20.793755
225.073271	-2.981500	3.849800	-11.478000	22.297690	0.000972	20.804608
226.071612	-2.976200	3.851400	-11.460000	22.325179	0.000974	20.796099
227.071275	-2.995200	3.850000	-11.530000	22.310227	0.000973	20.804360
228.074530	-2.988700	3.849700	-11.504000	22.302600	0.000972	20.778705
229.070860	-2.990000	3.851100	-11.514000	22.341379	0.000972	20.790983
230.071260	-2.997000	3.849300	-11.536000	22.325029	0.000974	20.785991
231.076169	-3.003900	3.848900	-11.561000	22.337366	0.000973	20.783645
232.070664	-3.006300	3.849700	-11.572000	22.326247	0.000972	20.801910
233.073253	-2.992300	3.849600	-11.518000	22.346934	0.000975	20.809348
234.075228	-3.004100	3.847800	-11.558000	22.343720	0.000976	20.797594
235.071681	-2.987800	3.848300	-11.497000	22.328515	0.000975	20.812241
236.072351	-2.995900	3.848800	-11.530000	22.361836	0.000976	20.797718
237.071952	-3.004800	3.848100	-11.562000	22.364875	0.000976	20.802183
238.072125	-3.008900	3.847700	-11.577000	22.364400	0.000975	20.786534
239.073332	-2.999800	3.848900	-11.545000	22.386031	0.000975	20.798238
240.073338	-2.981900	3.848800	-11.475000	22.373843	0.000975	20.790775
241.074784	-3.000000	3.847200	-11.540000	22.394451	0.000978	20.802403
242.073984	-2.981900	3.847600	-11.472000	22.392332	0.000978	20.806919
243.073388	-2.995600	3.845800	-11.520000	22.396493	0.000978	20.789749
244.076347	-3.008700	3.846600	-11.572000	22.408404	0.000980	20.788400
245.081289	-3.011600	3.845700	-11.581000	22.425249	0.000981	20.811433
246.075764	-3.023000	3.844900	-11.622000	22.396690	0.000979	20.793264
247.076966	-3.023200	3.845100	-11.623000	22.406879	0.000982	20.808210
248.075512	-2.990900	3.847000	-11.504000	22.423952	0.000981	20.808711
249.076168	-2.992000	3.847400	-11.510000	22.425320	0.000982	20.798702
250.079081	-3.002900	3.846200	-11.548000	22.418791	0.000981	20.816345
251.078403	-3.019400	3.844000	-11.605000	22.436235	0.000982	20.806313
252.080121	-3.017600	3.845500	-11.603000	22.438427	0.000984	20.819888
253.078011	-2.993500	3.844800	-11.509000	22.423948	0.000982	20.804914
254.078117	-2.984000	3.845400	-11.473000	22.425520	0.000985	20.803644
255.083287	-3.004800	3.844100	-11.550000	22.441940	0.000981	20.803017
256.080583	-3.009700	3.845000	-11.571000	22.428532	0.000984	20.819936
257.079281	-3.012900	3.843500	-11.579000	22.443158	0.000986	20.800444
258.079773	-3.004400	3.844200	-11.548000	22.451580	0.000985	20.800818
259.081557	-3.010000	3.842300	-11.564000	22.478342	0.000987	20.794428
260.082359	-2.978600	3.843300	-11.446000	22.483901	0.000986	20.808529
261.081389	-2.995800	3.843300	-11.512000	22.481878	0.000986	20.777580
262.079509	-2.997800	3.842500	-11.518000	22.527081	0.000987	20.812893
263.081478	-3.002700	3.842700	-11.536000	22.519604	0.000988	20.801612
264.082931	-3.002200	3.842900	-11.536000	22.523066	0.000990	20.812665
265.083359	-3.010500	3.841800	-11.565000	22.520175	0.000990	20.813089
266.082530	-2.991500	3.841800	-11.492000	22.532958	0.000991	20.805029
267.087364	-3.012500	3.840900	-11.570000	22.560092	0.000989	20.819402
268.084729	-2.989500	3.842400	-11.485000	22.549353	0.000991	20.804854
269.084225	-3.005500	3.840600	-11.542000	22.548031	0.000991	20.802107
270.087664	-3.002200	3.841000	-11.530000	22.530040	0.000990	20.808745
271.086660	-3.009000	3.840200	-11.554000	22.562607	0.000992	20.802007
272.086855	-3.000800	3.840700	-11.523000	22.554285	0.000992	20.820699
273.101336	-2.994800	3.839800	-11.497000	22.570280	0.000992	20.799734
274.086281	-3.004600	3.839800	-11.535000	22.577904	0.000993	20.809267
275.085539	-3.006500	3.840300	-11.545000	22.574490	0.000992	20.831926
276.089123	-3.005700	3.839000	-11.536000	22.576659	0.000995	20.830779
277.088470	-2.999600	3.838600	-11.513000	22.579798	0.000995	20.813060
278.088782	-2.980400	3.839300	-11.442000	22.593277	0.000996	20.837465
279.087472	-2.988600	3.839700	-11.475000	22.592928	0.000995	20.807245
280.086666	-2.998100	3.838400	-11.507000	22.591485	0.000996	20.829507
281.095212	-3.006300	3.838700	-11.539000	22.604415	0.000995	20.832500
282.089368	-3.007800	3.838900	-11.545000	22.599856	0.000997	20.801382
283.090598	-2.999500	3.838000	-11.512000	22.618970	0.000998	20.831905
284.091269	-2.996800	3.837300	-11.499000	22.623476	0.000997	20.814608
285.090827	-2.976500	3.839300	-11.426000	22.619741	0.001000	20.826514
286.092352	-2.998200	3.837300	-11.503000	22.625870	0.000999	20.828385
287.089831	-2.988000	3.838700	-11.469000	22.626594	0.001003	20.801610
288.092471	-3.008500	3.836700	-11.542000	22.633543	0.001001	20.817104
289.094393	-3.018700	3.837100	-11.583000	22.633570	0.001001	20.823769
290.094346	-3.006200	3.837100	-11.534000	22.632648	0.001000	20.840389
291.093395	-3.004300	3.837700	-11.527000	22.642838	0.001002	20.816931
292.098611	-2.988500	3.837700	-11.468000	22.622183	0.001002	20.820425
293.093797	-2.989300	3.836300	-11.467000	22.656916	0.001004	20.831506
294.094477	-3.003600	3.836700	-11.522000	22.667280	0.001002	20.819602
295.092381	-3.015800	3.834800	-11.563000	22.659804	0.001005	20.824442
296.090858	-3.009700	3.836700	-11.545000	22.630281	0.001005	20.838018
297.093443	-3.006700	3.836700	-11.534000	22.620538	0.001004	20.835372
298.091992	-3.000800	3.834900	-11.507000	22.636585	0.001005	20.818255
299.095273	-2.986500	3.834200	-11.448000	22.629981	0.001006	20.805950
300.094093	-2.998100	3.834100	-11.494000	22.632598	0.001006	20.802408
301.096996	-3.003800	3.834800	-11.518000	22.646226	0.001007	20.831230
302.097076	-3.019500	3.832800	-11.572000	22.649415	0.001006	20.844381
303.098772	-2.983400	3.834800	-11.440000	22.635436	0.001007	20.824216
304.097550	-2.992300	3.833800	-11.472000	22.664736	0.001009	20.824640
305.095314	-3.016800	3.833000	-11.562000	22.650685	0.001009	20.825739
306.098431	-2.995700	3.833800	-11.484000	22.673507	0.001009	20.815882
307.100550	-3.015200	3.833600	-11.558000	22.675874	0.001009	20.842908
308.100066	-3.013300	3.833500	-11.550000	22.703901	0.001010	20.836843
309.104568	-2.991400	3.833800	-11.468000	22.720594	0.001008	20.835546
310.098696	-3.032000	3.832500	-11.618000	22.715662	0.001010	20.823494
311.099408	-3.014700	3.832000	-11.552000	22.718079	0.001013	20.852466
312.101152	-2.999800	3.831600	-11.493000	22.766957	0.001010	20.856857
313.099504	-2.998400	3.830900	-11.486000	22.762200	0.001012	20.861101
314.100437	-2.977300	3.832100	-11.408000	22.758190	0.001013	20.818205
315.100682	-2.999000	3.832700	-11.494000	22.761702	0.001013	20.846378
316.098201	-3.000200	3.831000	-11.493000	22.763172	0.001013	20.829359
317.098525	-2.988800	3.832500	-11.453000	22.767457	0.001015	20.844082
318.100182	-2.999100	3.831500	-11.490000	22.749297	0.001015	20.840590
319.098912	-2.989100	3.829700	-11.447000	22.778246	0.001015	20.838768
320.101485	-3.007600	3.830300	-11.518000	22.791076	0.001016	20.850672
321.104305	-2.974800	3.832000	-11.399000	22.791672	0.001017	20.837519
322.098618	-2.989100	3.830800	-11.450000	22.775182	0.001015	20.835226
323.099914	-2.982500	3.830400	-11.423000	22.803259	0.001018	20.848652
324.101497	-3.001300	3.830300	-11.494000	22.810905	0.001016	20.868164
325.101584	-3.028800	3.829300	-11.597000	22.810880	0.001018	20.844907
326.100392	-3.024200	3.829000	-11.578000	22.802736	0.001018	20.848602
327.103176	-3.003300	3.829000	-11.498000	22.813074	0.001019	20.847578
328.100949	-3.017000	3.828700	-11.550000	22.837212	0.001017	20.832406
329.100549	-2.987300	3.829100	-11.437000	22.801691	0.001018	20.860831
330.104715	-2.964200	3.830700	-11.354000	22.819204	0.001019	20.857038
331.106961	-3.012000	3.826000	-11.523000	22.825280	0.001018	20.847952
332.099851	-2.984800	3.829000	-11.428000	22.824210	0.001021	20.834553
333.103226	-2.994400	3.827200	-11.459000	22.831781	0.001022	20.845456
334.105970	-3.011000	3.827700	-11.524000	22.833974	0.001022	20.868041
335.101553	-2.998000	3.826900	-11.472000	22.861476	0.001021	20.864298
336.102573	-2.979500	3.828400	-11.405000	22.860106	0.001022	20.851073
337.104961	-2.997800	3.825400	-11.466000	22.848073	0.001023	20.841864
338.105879	-2.987200	3.827900	-11.434000	22.858211	0.001024	20.888052
339.102863	-3.011100	3.827600	-11.525000	22.879805	0.001026	20.866540
340.109403	-3.012300	3.825500	-11.523000	22.871836	0.001024	20.869461
341.108480	-3.005700	3.825100	-11.496000	22.858957	0.001023	20.847551
342.104175	-3.012000	3.825500	-11.521000	22.887055	0.001025	20.859104
343.115089	-2.998600	3.825000	-11.468000	22.885086	0.001025	20.849546
344.112888	-2.991100	3.824100	-11.438000	22.891314	0.001027	20.849147
345.104417	-2.999700	3.824000	-11.470000	22.896245	0.001027	20.842708
346.107574	-3.001600	3.826000	-11.483000	22.889519	0.001027	20.855409
347.111576	-2.987700	3.825200	-11.427000	22.874397	0.001027	20.863018
348.108736	-3.011800	3.823300	-11.514000	22.891859	0.001027	20.844951
349.107346	-3.031300	3.822600	-11.587000	22.899058	0.001028	20.858327
350.109299	-2.983200	3.823800	-11.407000	22.926533	0.001030	20.871628
351.110548	-2.992200	3.822900	-11.438000	22.905160	0.001031	20.854958
352.110842	-2.976600	3.823700	-11.381000	22.931263	0.001028	20.856454
353.114518	-3.001500	3.823800	-11.475000	22.945611	0.001033	20.855182
354.109106	-2.987500	3.822500	-11.419000	22.912658	0.001030	20.862469
355.111403	-3.006500	3.822500	-11.491000	22.920428	0.001029	20.883055
356.111495	-3.010400	3.821100	-11.502000	22.872800	0.001031	20.870427
357.109047	-2.998700	3.822100	-11.460000	22.904610	0.001033	20.872898
358.108396	-2.994800	3.822100	-11.445000	22.904360	0.001031	20.867432
359.107245	-2.999700	3.820900	-11.461000	22.903415	0.001032	20.860322
360.111613	-2.994400	3.822700	-11.446000	22.929519	0.001033	20.870826
361.110435	-2.984600	3.822000	-11.406000	22.919830	0.001035	20.883878
362.110306	-2.991700	3.820900	-11.431000	22.959484	0.001034	20.876666
363.110190	-3.018200	3.820100	-11.527000	22.959284	0.001033	20.862241
364.111701	-2.993800	3.819400	-11.433000	22.970940	0.001034	20.862540
365.113367	-3.016300	3.819400	-11.519000	22.992985	0.001035	20.864238
366.113819	-3.009200	3.820300	-11.494000	22.988774	0.001034	20.865709
367.115839	-2.983800	3.819400	-11.395000	23.001553	0.001039	20.859547
368.114465	-3.001300	3.818500	-11.459000	23.008925	0.001037	20.882579
369.115471	-2.999100	3.818200	-11.450000	23.032536	0.001036	20.865934
370.118401	-2.992700	3.817500	-11.424000	23.049197	0.001038	20.880256
371.114278	-2.989900	3.817200	-11.412000	23.069572	0.001039	20.878387
372.119798	-2.999300	3.818800	-11.453000	23.053881	0.001038	20.873096
373.113431	-2.984500	3.817900	-11.393000	23.031091	0.001039	20.901468
374.114103	-3.023700	3.815800	-11.535000	23.026584	0.001040	20.879884
375.114848	-2.980700	3.817100	-11.377000	23.051042	0.001039	20.873096
376.113427	-2.984600	3.817800	-11.393000	23.057244	0.001042	20.878362
377.115086	-2.983700	3.818700	-11.392000	23.065486	0.001041	20.889465
378.115440	-2.997400	3.817000	-11.440000	23.083070	0.001040	20.905186
379.116168	-3.015200	3.816500	-11.505000	23.077391	0.001042	20.881954
380.118011	-2.986700	3.816100	-11.394000	23.101427	0.001041	20.891338
381.114518	-2.986900	3.815800	-11.396000	23.086755	0.001040	20.883276
382.116925	-2.984700	3.815300	-11.386000	23.105160	0.001041	20.889390
383.118740	-3.021000	3.814700	-11.523000	23.092334	0.001042	20.893606
384.121569	-2.994200	3.816300	-11.426000	23.072311	0.001043	20.880657
385.118216	-2.997700	3.814100	-11.433000	23.105235	0.001045	20.900369
386.117465	-3.022800	3.813200	-11.526000	23.104264	0.001044	20.887543
387.117898	-3.008800	3.814200	-11.476000	23.115495	0.001043	20.870824
388.116760	-2.993000	3.813200	-11.411000	23.123489	0.001045	20.894480
389.118165	-2.993400	3.813700	-11.415000	23.104612	0.001045	20.901167
390.116810	-2.994500	3.812900	-11.417000	23.108921	0.001047	20.889839
391.117153	-2.996200	3.813500	-11.424000	23.109890	0.001044	20.881328
392.117524	-2.990900	3.814700	-11.409000	23.115668	0.001045	20.900867
393.115416	-2.994700	3.812700	-11.417000	23.134471	0.001049	20.891259
394.117461	-2.974800	3.813100	-11.341000	23.105879	0.001046	20.897696
395.119484	-2.982300	3.813600	-11.372000	23.156760	0.001046	20.911696
396.120110	-2.998500	3.812600	-11.430000	23.144558	0.001047	20.883349
397.122576	-3.004500	3.813000	-11.454000	23.156883	0.001046	20.887639
398.120298	-3.005400	3.811700	-11.454000	23.163184	0.001048	20.893005
399.123029	-3.011200	3.811000	-11.475000	23.163407	0.001047	20.912193
400.118337	-3.001700	3.810700	-11.438000	23.184150	0.001050	20.896944
401.119105	-2.996200	3.811500	-11.419000	23.189755	0.001048	20.894027
402.120380	-2.994700	3.810100	-11.408000	23.191995	0.001051	20.892479
403.119803	-3.047800	3.809200	-11.608000	23.175508	0.001048	20.902983
404.122657	-3.020200	3.809300	-11.504000	23.176502	0.001051	20.912987
405.117484	-2.994800	3.810000	-11.409000	23.177523	0.001051	20.916855
406.122681	-2.997700	3.809700	-11.420000	23.160963	0.001051	20.915433
407.121939	-2.991500	3.808700	-11.393000	23.152521	0.001052	20.898440
408.121587	-3.004800	3.809600	-11.447000	23.174009	0.001052	20.888206
409.124190	-3.006900	3.809300	-11.453000	23.182376	0.001052	20.911761
410.124462	-3.008900	3.807500	-11.456000	23.202970	0.001051	20.888778
411.121282	-3.000500	3.808500	-11.426000	23.203266	0.001053	20.890497
412.123041	-3.002500	3.808400	-11.433000	23.232528	0.001053	20.909389
413.124323	-2.993900	3.807200	-11.397000	23.222563	0.001055	20.894662
414.124904	-2.984400	3.808500	-11.366000	23.243680	0.001054	20.906340
415.125790	-2.996600	3.808300	-11.411000	23.235684	0.001053	20.907336
416.126709	-2.987000	3.807200	-11.370000	23.229934	0.001054	20.925279
417.125381	-2.988600	3.806700	-11.376000	23.253985	0.001056	20.911451
418.133690	-2.997000	3.808400	-11.412000	23.266634	0.001055	20.892361
419.128288	-3.012000	3.805100	-11.461000	23.284040	0.001057	20.902691
420.127488	-2.992800	3.807300	-11.392000	23.288048	0.001055	20.890114
421.131176	-2.991000	3.807200	-11.386000	23.297285	0.001056	20.916439
422.128997	-3.000400	3.805700	-11.417000	23.325769	0.001057	20.934553
423.130944	-2.995400	3.805400	-11.398000	23.323229	0.001057	20.909724
424.131016	-3.013900	3.805300	-11.467000	23.297281	0.001057	20.908849
425.133195	-2.989000	3.805000	-11.371000	23.297081	0.001058	20.908175
426.130187	-2.988000	3.804700	-11.367000	23.299247	0.001057	20.914138
427.129592	-3.010800	3.803700	-11.452000	23.293742	0.001057	20.924267
428.135072	-2.980400	3.804200	-11.336000	23.276933	0.001058	20.924491
429.133566	-3.020300	3.802700	-11.484000	23.296627	0.001058	20.922417
430.133383	-2.986400	3.804100	-11.359000	23.291771	0.001059	20.924188
431.135835	-3.004100	3.803600	-11.425000	23.297722	0.001058	20.932522
432.134768	-3.002000	3.803200	-11.416000	23.282978	0.001059	20.916799
433.131827	-3.008800	3.802600	-11.440000	23.281609	0.001060	20.928228
434.133089	-3.011300	3.801900	-11.448000	23.273016	0.001059	20.909661
435.132286	-3.008600	3.801500	-11.436000	23.286390	0.001062	20.920692
436.130858	-2.997200	3.802000	-11.394000	23.310167	0.001062	20.930770
437.134321	-2.988600	3.802800	-11.363000	23.309145	0.001063	20.932591
438.135820	-3.010500	3.800000	-11.439000	23.302743	0.001063	20.928072
439.136930	-3.006000	3.799900	-11.422000	23.299878	0.001064	20.923778
440.135715	-2.984500	3.800500	-11.341000	23.314319	0.001062	20.937301
441.134251	-2.994600	3.799900	-11.378000	23.334414	0.001062	20.922830
442.134314	-3.028600	3.798700	-11.504000	23.320643	0.001063	20.934630
443.135152	-3.012200	3.800500	-11.447000	23.350919	0.001063	20.938895
444.135263	-2.983600	3.799700	-11.335000	23.353879	0.001064	20.930957
445.135373	-3.016600	3.797900	-11.454000	23.373250	0.001064	20.921924
446.136090	-3.035600	3.798500	-11.530000	23.357287	0.001063	20.931528
447.139477	-3.012100	3.797900	-11.439000	23.371504	0.001064	20.947672
448.138733	-3.001300	3.797700	-11.397000	23.394033	0.001065	20.941804
449.136695	-2.989100	3.798900	-11.355000	23.387958	0.001066	20.918648
450.137017	-3.006100	3.798300	-11.417000	23.370427	0.001064	20.955127
451.139443	-3.007300	3.797800	-11.421000	23.424455	0.001068	20.935787
452.139963	-2.998200	3.797100	-11.383000	23.392137	0.001066	20.934215
453.135911	-2.982500	3.798700	-11.329000	23.399081	0.001066	20.946389
454.142703	-2.999100	3.797800	-11.390000	23.417431	0.001066	20.934911
455.139352	-2.999900	3.797300	-11.391000	23.406199	0.001066	20.927447
456.138246	-2.999800	3.795400	-11.385000	23.400247	0.001067	20.932386
457.138484	-2.987500	3.797400	-11.344000	23.410455	0.001068	20.917015
458.140052	-2.987400	3.796000	-11.339000	23.408187	0.001068	20.934655
459.139067	-3.028300	3.794100	-11.489000	23.426612	0.001067	20.933208
460.139075	-2.995900	3.796000	-11.372000	23.425314	0.001069	20.946604
461.141750	-2.998100	3.794400	-11.375000	23.436817	0.001068	20.952917
462.138979	-2.992800	3.795200	-11.357000	23.430145	0.001068	20.938170
463.139069	-3.009300	3.794100	-11.417000	23.450411	0.001067	20.941414
464.139050	-3.018300	3.794300	-11.451000	23.461414	0.001070	20.923522
465.140761	-3.004400	3.793200	-11.395000	23.461937	0.001070	20.927365
466.141634	-2.992300	3.794500	-11.353000	23.450061	0.001071	20.946278
467.141613	-2.980100	3.794000	-11.305000	23.442665	0.001069	20.943607
468.145365	-2.993300	3.793100	-11.353000	23.442815	0.001070	20.928586
469.147765	-3.031600	3.791100	-11.492000	23.426655	0.001070	20.923294
470.142125	-3.011200	3.791500	-11.416000	23.443760	0.001069	20.911517
471.146372	-2.993400	3.792500	-11.351000	23.452822	0.001071	20.931504
472.146362	-2.958700	3.793100	-11.222000	23.470050	0.001071	20.929333
473.147908	-3.011500	3.791400	-11.416000	23.491237	0.001071	20.929706
474.151448	-2.994600	3.791200	-11.353000	23.496738	0.001074	20.935694
475.146149	-2.995200	3.789500	-11.349000	23.509260	0.001073	20.943978
476.146898	-2.973800	3.792400	-11.276000	23.541973	0.001074	20.936467
477.146949	-2.998900	3.791400	-11.369000	23.524222	0.001073	20.935269
478.147643	-2.988200	3.790700	-11.327000	23.523798	0.001072	20.936741
479.146984	-3.009700	3.788100	-11.400000	23.523599	0.001072	20.942704
480.147791	-3.022800	3.788600	-11.451000	23.514759	0.001073	20.931474
481.149967	-3.002300	3.789500	-11.376000	23.547124	0.001072	20.938786
482.147008	-3.000500	3.788900	-11.367000	23.548741	0.001074	20.929503
483.148183	-3.002700	3.790300	-11.380000	23.571743	0.001076	20.921268
484.149718	-3.006300	3.789700	-11.392000	23.562831	0.001074	20.927506
485.149230	-3.012100	3.788300	-11.408000	23.577494	0.001073	20.917550
486.148750	-3.017700	3.788000	-11.430000	23.576298	0.001076	20.924885
487.147994	-3.005700	3.788200	-11.384000	23.568755	0.001076	20.923962
488.151871	-2.975800	3.787300	-11.269000	23.539652	0.001074	20.918970
489.151777	-2.980800	3.788200	-11.290000	23.561984	0.001076	20.904847
490.149077	-3.008600	3.787300	-11.393000	23.537586	0.001076	20.928277
491.149031	-2.994300	3.788000	-11.340000	23.526656	0.001076	20.925382
492.147922	-2.999100	3.786200	-11.354000	23.562705	0.001079	20.914578
493.147805	-2.999500	3.785700	-11.353000	23.558771	0.001080	20.915850
494.151208	-3.034000	3.784100	-11.480000	23.572363	0.001076	20.913829
495.149979	-2.989600	3.785700	-11.316000	23.555560	0.001078	20.912158
496.149912	-2.988000	3.785700	-11.310000	23.586278	0.001075	20.907390
497.149696	-3.010700	3.785600	-11.396000	23.589614	0.001080	20.912630
498.150023	-2.998300	3.783500	-11.342000	23.604000	0.001077	20.912353
499.152878	-2.998500	3.784000	-11.345000	23.601711	0.001079	20.909585
500.152262	-3.003800	3.784000	-11.366000	23.588218	0.001078	20.919291
501.153181	-3.005900	3.782500	-11.369000	23.603776	0.001078	20.932041
502.154922	-3.009200	3.782900	-11.382000	23.610150	0.001079	20.900028
503.153195	-2.991000	3.783200	-11.314000	23.578383	0.001077	20.917019
504.153576	-3.024100	3.781200	-11.433000	23.557796	0.001079	20.912029
505.154122	-3.008900	3.782500	-11.380000	23.558219	0.001077	20.900600
506.154486	-3.029400	3.781700	-11.454000	23.558642	0.001079	20.908136
507.156867	-3.006400	3.780400	-11.364000	23.550974	0.001079	20.904717
508.155951	-2.985600	3.781900	-11.290000	23.564343	0.001080	20.917643
509.154615	-2.982000	3.780700	-11.272000	23.550053	0.001079	20.881036
510.157213	-2.995500	3.780200	-11.322000	23.571562	0.001079	20.895483
511.155961	-2.984200	3.781400	-11.283000	23.577985	0.001080	20.884380
512.157064	-2.967300	3.781300	-11.219000	23.575595	0.001081	20.895260
513.155686	-2.991700	3.780600	-11.308000	23.590706	0.001079	20.897131
514.156414	-3.017500	3.779300	-11.402000	23.609400	0.001082	20.894061
515.159332	-2.979200	3.780500	-11.261000	23.618239	0.001081	20.907662
516.156701	-2.998800	3.780500	-11.336000	23.641066	0.001078	20.892615
517.159864	-3.004600	3.778800	-11.352000	23.645123	0.001081	20.878192
518.156861	-2.990000	3.778300	-11.296000	23.659039	0.001081	20.898305
519.155918	-2.977100	3.778400	-11.248000	23.667725	0.001083	20.885677
520.161512	-2.998200	3.777400	-11.325000	23.678951	0.001083	20.885552
521.161664	-3.020800	3.777300	-11.410000	23.669169	0.001081	20.890918
522.165052	-2.995800	3.778400	-11.319000	23.686793	0.001079	20.905266
523.160110	-2.996700	3.778300	-11.320000	23.689831	0.001081	20.895984
524.160225	-3.016000	3.776200	-11.389000	23.695556	0.001079	20.907887
525.161123	-3.033100	3.775400	-11.450000	23.696700	0.001081	20.904293
526.161330	-3.008000	3.777000	-11.361000	23.695306	0.001080	20.904792
527.165411	-3.008800	3.776200	-11.361000	23.663270	0.001082	20.863195
528.162339	-2.994500	3.777600	-11.311000	23.647590	0.001083	20.878293
529.161641	-2.992400	3.775600	-11.297000	23.674298	0.001082	20.890370
530.165355	-3.006500	3.775700	-11.350000	23.675617	0.001082	20.888373
531.163781	-2.979200	3.776300	-11.249000	23.657445	0.001081	20.874424
532.166311	-2.973000	3.775800	-11.224000	23.655953	0.001082	20.876247
533.167293	-2.980100	3.775800	-11.251000	23.653115	0.001083	20.892841
534.172182	-3.003900	3.775800	-11.342000	23.635066	0.001084	20.897505
535.164313	-3.019400	3.774400	-11.395000	23.659933	0.001082	20.879288
536.165176	-2.998100	3.774000	-11.314000	23.684205	0.001082	20.886078
537.162889	-2.997400	3.775000	-11.315000	23.651596	0.001083	20.902223
538.165579	-2.997000	3.772500	-11.305000	23.680273	0.001084	20.881188
539.165922	-2.985100	3.772700	-11.261000	23.671983	0.001083	20.888998
540.166472	-2.989200	3.773600	-11.280000	23.684976	0.001083	20.878791
541.167051	-2.998800	3.770800	-11.307000	23.684830	0.001083	20.872955
542.167417	-3.007800	3.771200	-11.342000	23.652742	0.001084	20.886778
543.167397	-2.994800	3.771700	-11.295000	23.632505	0.001084	20.875499
544.166730	-2.987000	3.769800	-11.259000	23.659936	0.001086	20.873602
545.169405	-2.963200	3.773000	-11.178000	23.674523	0.001083	20.887751
546.167649	-2.998000	3.770100	-11.301000	23.650003	0.001083	20.886402
547.168633	-3.015900	3.769900	-11.369000	23.678232	0.001083	20.890520
548.166006	-3.012400	3.769600	-11.355000	23.681218	0.001084	20.870282
549.169689	-2.997800	3.769400	-11.299000	23.656924	0.001085	20.875798
550.174019	-2.985100	3.769900	-11.253000	23.687216	0.001084	20.881985
551.171110	-2.999400	3.770000	-11.305000	23.670590	0.001084	20.863420
552.171962	-3.005400	3.769100	-11.326000	23.702152	0.001084	20.879415
553.172621	-3.006200	3.767800	-11.326000	23.698119	0.001086	20.866364
554.171230	-3.009800	3.767500	-11.338000	23.732943	0.001083	20.886577
555.173722	-3.010000	3.766900	-11.336000	23.699091	0.001085	20.853589
556.172732	-2.961700	3.767900	-11.158000	23.712880	0.001084	20.875946
557.193285	-2.999500	3.767800	-11.301000	23.714473	0.001085	20.861898
558.175823	-2.980700	3.767000	-11.227000	23.717213	0.001086	20.871282
559.174694	-2.983600	3.766100	-11.235000	23.741232	0.001083	20.870233
560.176031	-3.010400	3.766200	-11.336000	23.740859	0.001084	20.876971
561.179440	-3.005300	3.766100	-11.317000	23.751163	0.001084	20.855061
562.178403	-2.984500	3.766800	-11.241000	23.758755	0.001083	20.874526
563.184811	-2.998900	3.765600	-11.292000	23.782376	0.001085	20.860751
564.181461	-2.996600	3.766100	-11.284000	23.738769	0.001084	20.878195
565.194959	-2.994700	3.764200	-11.271000	23.740982	0.001082	20.873302
566.176961	-3.004800	3.764200	-11.310000	23.777372	0.001085	20.866639
567.178617	-3.029800	3.764600	-11.405000	23.765151	0.001084	20.856283
568.179693	-2.985700	3.763700	-11.234000	23.773963	0.001083	20.877920
569.205039	-3.006200	3.763000	-11.312000	23.778366	0.001084	20.866687
570.205484	-2.995600	3.763000	-11.270000	23.816447	0.001084	20.859352
571.198403	-3.008800	3.761600	-11.317000	23.809452	0.001083	20.860873
572.214200	-3.001200	3.762900	-11.291000	23.808109	0.001083	20.854310
573.196866	-3.015900	3.762700	-11.347000	23.824908	0.001082	20.856455
574.200739	-2.995300	3.763200	-11.270000	23.829437	0.001082	20.843927
575.208301	-3.004700	3.762200	-11.303000	23.837226	0.001083	20.863116
576.217460	-3.007500	3.761800	-11.313000	23.828912	0.001084	20.850039
577.187448	-3.004800	3.760300	-11.297000	23.841254	0.001082	20.847715
578.201520	-2.999000	3.760600	-11.278000	23.847851	0.001083	20.859545
579.208800	-3.007600	3.760400	-11.308000	23.862931	0.001083	20.847166
580.202122	-2.981100	3.761900	-11.213000	23.852553	0.001085	20.862837
581.188483	-3.016300	3.759300	-11.338000	23.835629	0.001084	20.855826
582.187998	-2.992800	3.760600	-11.253000	23.820645	0.001084	20.837483
583.188181	-3.005400	3.760000	-11.299000	23.802402	0.001083	20.850011
584.188494	-2.995500	3.759600	-11.261000	23.793515	0.001084	20.856273
585.210886	-2.984600	3.759100	-11.218000	23.799861	0.001082	20.839877
586.190292	-3.000000	3.759500	-11.278000	23.788611	0.001083	20.851356
587.188411	-3.006100	3.757800	-11.295000	23.771983	0.001083	20.840849
588.188009	-3.015200	3.757300	-11.327000	23.783158	0.001084	20.880500
589.188506	-3.024500	3.757000	-11.362000	23.793785	0.001082	20.853225
590.190531	-3.003000	3.758000	-11.284000	23.810409	0.001083	20.840970
591.192784	-3.009200	3.756000	-11.300000	23.801573	0.001083	20.849653
592.206700	-3.011500	3.757200	-11.314000	23.788183	0.001084	20.854246
593.207974	-3.012300	3.757300	-11.317000	23.793708	0.001081	20.856941
594.215005	-3.005400	3.756300	-11.288000	23.771257	0.001083	20.838698
595.208067	-3.004500	3.755000	-11.281000	23.810831	0.001084	20.838074
596.192993	-2.992800	3.755600	-11.239000	23.826038	0.001085	20.841468
597.194581	-2.984600	3.755500	-11.208000	23.847964	0.001083	20.850176
598.192365	-2.987000	3.755600	-11.217000	23.838604	0.001082	20.831309
599.198897	-2.976900	3.755200	-11.177000	23.878301	0.001084	20.853568
600.191718	-3.012800	3.753300	-11.307000	23.861078	0.001085	20.833454
601.191449	-3.018200	3.753600	-11.328000	23.885766	0.001083	20.851098
602.196550	-2.988100	3.754100	-11.216000	23.884398	0.001083	20.856363
603.193279	-2.976600	3.754100	-11.173000	23.897911	0.001085	20.849525
604.193184	-2.987800	3.752400	-11.210000	23.880315	0.001084	20.829037
605.212377	-2.971900	3.754200	-11.156000	23.841167	0.001083	20.840042
606.226459	-3.004100	3.752100	-11.271000	23.844975	0.001084	20.842438
607.212103	-3.006100	3.752500	-11.279000	23.850673	0.001083	20.830134
608.211605	-3.007200	3.751000	-11.279000	23.857966	0.001084	20.832705
609.215985	-2.983100	3.751900	-11.191000	23.852441	0.001084	20.829062
610.193302	-2.995300	3.751300	-11.234000	23.874814	0.001083	20.848650
611.199128	-2.996100	3.750600	-11.236000	23.865507	0.001083	20.821774
612.201185	-3.015200	3.750200	-11.306000	23.861922	0.001083	20.826240
613.196640	-3.020200	3.749400	-11.323000	23.867148	0.001084	20.824369
614.200321	-2.995800	3.749500	-11.232000	23.862196	0.001084	20.840266
615.198836	-3.009000	3.750100	-11.282000	23.893404	0.001084	20.843109
616.196885	-3.011200	3.749000	-11.288000	23.879243	0.001084	20.824169
617.197750	-2.997700	3.748000	-11.234000	23.913662	0.001083	20.812689
618.195992	-3.031500	3.747500	-11.360000	23.901692	0.001082	20.854739
619.197896	-3.005800	3.747600	-11.264000	23.926703	0.001084	20.846154
620.199239	-2.988200	3.748500	-11.200000	23.927922	0.001083	20.830781
621.214479	-2.995500	3.748400	-11.228000	23.939743	0.001083	20.825566
622.230886	-2.994500	3.747200	-11.220000	23.930113	0.001083	20.820651
623.215436	-2.993200	3.747400	-11.216000	23.921277	0.001085	20.817955
624.245978	-2.993300	3.745900	-11.212000	23.917121	0.001081	20.847451
625.213414	-2.973900	3.747800	-11.145000	23.911918	0.001082	20.816631
626.221304	-2.978800	3.747200	-11.161000	23.881905	0.001083	20.804079
627.202322	-2.995000	3.746300	-11.219000	23.849825	0.001082	20.835448
628.201196	-3.017000	3.745600	-11.299000	23.865305	0.001080	20.824891
629.199931	-3.013400	3.745100	-11.284000	23.871278	0.001083	20.808121
630.198866	-3.024000	3.744200	-11.321000	23.885613	0.001080	20.808271
631.200205	-3.001100	3.744800	-11.238000	23.878395	0.001082	20.813362
632.224901	-3.002300	3.745000	-11.242000	23.897035	0.001084	20.828733
633.202396	-2.985700	3.746000	-11.183000	23.910898	0.001082	20.806598
634.199787	-3.009300	3.744700	-11.267000	23.916895	0.001082	20.823517
635.202788	-3.020100	3.744200	-11.307000	23.937775	0.001081	20.806523
636.207651	-3.008600	3.744000	-11.263000	23.941483	0.001083	20.814983
637.206176	-3.004600	3.742900	-11.245000	23.951014	0.001083	20.805101
638.223107	-3.003600	3.742300	-11.239000	23.923265	0.001081	20.797189
639.222123	-3.006400	3.741700	-11.249000	23.952829	0.001080	20.811662
640.222273	-2.989800	3.743300	-11.190000	23.971594	0.001081	20.807720
641.219613	-3.004200	3.742500	-11.243000	23.970425	0.001081	20.807497
642.225973	-3.019400	3.740200	-11.292000	23.987272	0.001080	20.793097
643.234539	-2.990900	3.741700	-11.190000	23.983937	0.001081	20.818202
644.231678	-3.010200	3.740700	-11.258000	23.977343	0.001081	20.796416
645.222709	-3.015300	3.739900	-11.276000	23.998944	0.001080	20.808121
646.217681	-2.997300	3.741400	-11.214000	23.986451	0.001082	20.785636
647.223769	-3.009800	3.739100	-11.253000	23.997747	0.001081	20.804076
648.201465	-3.007900	3.739400	-11.247000	23.973187	0.001083	20.804577
649.207329	-3.002300	3.737600	-11.220000	23.995410	0.001082	20.798413
650.202116	-3.019900	3.739500	-11.292000	23.980503	0.001081	20.807171
651.226944	-2.989100	3.740300	-11.180000	23.984958	0.001080	20.807846
652.222945	-3.005800	3.737300	-11.233000	23.993095	0.001080	20.805575
653.224192	-2.999200	3.737300	-11.208000	24.001781	0.001080	20.808595
654.228363	-3.005200	3.738700	-11.234000	24.016936	0.001081	20.813362
655.231259	-3.006100	3.738000	-11.235000	24.016087	0.001079	20.802553
656.222603	-3.008400	3.738700	-11.245000	24.042565	0.001080	20.796865
657.209171	-3.034800	3.735700	-11.336000	24.056351	0.001079	20.801208
658.230739	-2.992100	3.738100	-11.183000	24.032588	0.001081	20.822895
659.206347	-3.008500	3.736800	-11.240000	24.017756	0.001079	20.806598
660.207383	-2.985000	3.736600	-11.152000	23.994740	0.001078	20.802957
661.206386	-3.002100	3.737600	-11.219000	24.002752	0.001079	20.793922
662.222789	-3.010700	3.735800	-11.246000	23.978117	0.001078	20.800985
663.223898	-3.027100	3.734600	-11.304000	24.019674	0.001079	20.809470
664.235822	-3.002500	3.735200	-11.214000	24.031594	0.001078	20.789656
665.223989	-2.984500	3.736000	-11.149000	24.047521	0.001078	20.807999
666.222100	-2.984300	3.735600	-11.147000	24.047446	0.001079	20.810769
667.224363	-3.017800	3.732700	-11.263000	24.063100	0.001078	20.811295
668.228168	-2.993600	3.734700	-11.178000	24.078402	0.001077	20.808624
669.223775	-2.979700	3.733800	-11.124000	24.082757	0.001078	20.798767
670.230494	-2.990500	3.734300	-11.166000	24.075392	0.001077	20.801338
671.222188	-2.987200	3.734400	-11.154000	24.060413	0.001078	20.794850
672.223682	-2.977200	3.735000	-11.119000	24.084052	0.001079	20.789634
673.236893	-3.016300	3.733200	-11.259000	24.081838	0.001077	20.810647
674.226424	-3.006700	3.732900	-11.222000	24.085670	0.001075	20.797895
675.238490	-3.023600	3.732100	-11.284000	24.054939	0.001077	20.792205
676.229810	-3.002700	3.732500	-11.207000	24.020775	0.001077	20.808677
677.232391	-3.002300	3.731900	-11.204000	24.006216	0.001078	20.796922
678.226267	-2.998100	3.731600	-11.186000	23.994123	0.001076	20.793329
679.209409	-3.008600	3.731000	-11.224000	23.996983	0.001077	20.794775
680.210343	-3.000100	3.731400	-11.192000	24.012910	0.001077	20.791781
681.210488	-3.007000	3.731100	-11.219000	24.011790	0.001079	20.801089
682.211560	-3.000100	3.730600	-11.191000	24.003802	0.001076	20.805881
683.211084	-2.996900	3.730600	-11.178000	24.002632	0.001076	20.778154
684.211647	-2.985200	3.729600	-11.133000	23.972470	0.001075	20.809547
685.213253	-2.994100	3.729600	-11.165000	23.964929	0.001075	20.792028
686.211936	-2.998800	3.730100	-11.185000	23.954179	0.001074	20.810645
687.212162	-2.997800	3.728600	-11.177000	23.969807	0.001076	20.800713
688.214976	-2.996600	3.728000	-11.170000	23.972793	0.001075	20.801810
689.214468	-3.013800	3.727500	-11.233000	24.013182	0.001075	20.782096
690.212637	-2.981800	3.730400	-11.122000	24.016341	0.001076	20.790955
691.232241	-2.981800	3.727800	-11.115000	24.006685	0.001075	20.796444
692.235098	-3.006700	3.726800	-11.204000	24.056129	0.001076	20.780123
693.251433	-2.993100	3.727900	-11.157000	24.045279	0.001072	20.807173
694.217168	-2.983500	3.728300	-11.122000	24.058841	0.001073	20.784739
695.218215	-2.996400	3.727700	-11.169000	24.053143	0.001074	20.782343
696.215460	-2.999600	3.726200	-11.176000	24.073023	0.001073	20.786634
697.233829	-2.984300	3.727100	-11.123000	24.076582	0.001072	20.799687
698.233272	-3.001400	3.726100	-11.183000	24.114852	0.001074	20.783540
699.233793	-2.994700	3.725700	-11.156000	24.103530	0.001073	20.778349
700.232036	-2.989600	3.725300	-11.137000	24.129855	0.001074	20.800010
701.234996	-3.019200	3.723800	-11.242000	24.146300	0.001073	20.801331
702.243280	-3.007800	3.724500	-11.201000	24.157671	0.001073	20.787606
703.237697	-3.001500	3.723500	-11.175000	24.165334	0.001073	20.796241
704.229445	-2.993800	3.724900	-11.151000	24.175039	0.001072	20.793172
705.231939	-2.998300	3.724600	-11.166000	24.151675	0.001071	20.758358
706.234866	-3.009600	3.723300	-11.205000	24.166280	0.001071	20.802879
707.237904	-2.981300	3.723900	-11.101000	24.155184	0.001071	20.775628
708.243160	-3.017900	3.722500	-11.233000	24.148589	0.001068	20.785135
709.240330	-3.001400	3.723400	-11.174000	24.138065	0.001071	20.813934
710.238901	-3.003300	3.722600	-11.179000	24.136349	0.001072	20.787083
711.238259	-3.014900	3.720700	-11.216000	24.110420	0.001071	20.795691
712.244774	-3.020400	3.721200	-11.237000	24.129407	0.001072	20.794820
713.230913	-3.014300	3.720700	-11.213000	24.118086	0.001071	20.792474
714.234713	-3.001700	3.722500	-11.172000	24.151129	0.001070	20.797166
715.236314	-2.981500	3.720300	-11.091000	24.162451	0.001069	20.807099
716.234208	-2.995900	3.719200	-11.142000	24.168720	0.001070	20.788257
717.215898	-3.013400	3.720700	-11.211000	24.167377	0.001069	20.795444
718.250372	-2.975500	3.720500	-11.069000	24.140629	0.001068	20.789953
719.246177	-3.020900	3.720100	-11.237000	24.122739	0.001067	20.805201
720.238215	-2.974000	3.719900	-11.062000	24.148940	0.001069	20.799237
721.236467	-3.015100	3.719200	-11.212000	24.153917	0.001069	20.799014
722.240998	-3.012000	3.719700	-11.202000	24.168893	0.001068	20.796017
723.235910	-3.008400	3.719000	-11.187000	24.159214	0.001068	20.809068
724.242485	-2.997600	3.718700	-11.146000	24.134654	0.001068	20.800556
725.237120	-2.976300	3.718600	-11.067000	24.111241	0.001067	20.786557
726.242342	-2.998800	3.718500	-11.151000	24.098400	0.001068	20.779842
727.220080	-2.979400	3.718600	-11.078000	24.095315	0.001066	20.800456
728.216831	-2.993000	3.718700	-11.129000	24.110069	0.001067	20.795339
729.219144	-3.005800	3.717200	-11.172000	24.092926	0.001067	20.802328
730.218914	-2.990200	3.718200	-11.117000	24.129950	0.001068	20.805321
731.222240	-3.006500	3.716200	-11.171000	24.126664	0.001065	20.789223
732.219213	-3.022600	3.716300	-11.233000	24.111386	0.001066	20.797134
733.221509	-3.002100	3.716000	-11.154000	24.095785	0.001066	20.800927
734.220683	-3.012300	3.715200	-11.189000	24.091155	0.001067	20.801500
735.219589	-3.003200	3.716300	-11.159000	24.109195	0.001066	20.792092
736.235133	-3.006700	3.715500	-11.170000	24.130716	0.001067	20.814150
737.238089	-3.000100	3.715100	-11.144000	24.112851	0.001066	20.799077
738.247460	-2.984800	3.715600	-11.089000	24.144973	0.001065	20.796681
739.234509	-2.992200	3.715700	-11.116000	24.160001	0.001066	20.800375
740.243973	-2.999200	3.714200	-11.139000	24.169729	0.001066	20.801597
741.234905	-3.000600	3.714400	-11.145000	24.191923	0.001063	20.805365
742.236451	-2.983300	3.713400	-11.077000	24.219713	0.001066	20.782031
743.223646	-3.022100	3.712300	-11.216000	24.219740	0.001067	20.793912
744.221905	-2.994700	3.713300	-11.119000	24.205011	0.001067	20.811380
745.223889	-2.974200	3.713400	-11.043000	24.223422	0.001066	20.802346
746.224733	-2.986100	3.713100	-11.087000	24.228470	0.001064	20.798875
747.246165	-2.992000	3.712400	-11.106000	24.225834	0.001064	20.808559
748.245716	-2.996700	3.712100	-11.123000	24.232851	0.001065	20.808011
749.245765	-3.035600	3.709600	-11.259000	24.225935	0.001065	20.800126
750.224742	-2.996400	3.710100	-11.116000	24.240739	0.001063	20.803121
751.225519	-2.997000	3.710800	-11.120000	24.236460	0.001061	20.804992
752.225226	-3.002600	3.711300	-11.143000	24.267408	0.001063	20.804268
753.224055	-2.997600	3.711200	-11.124000	24.240989	0.001064	20.816173
754.228974	-2.984200	3.711800	-11.076000	24.249795	0.001061	20.799877
755.243053	-2.996300	3.711000	-11.119000	24.197698	0.001062	20.795037
756.247558	-2.996600	3.711800	-11.121000	24.173091	0.001062	20.825831
757.252696	-3.001300	3.708600	-11.130000	24.158139	0.001061	20.819843
758.224842	-3.008000	3.710100	-11.159000	24.155825	0.001063	20.798556
759.250677	-2.989400	3.710200	-11.091000	24.152118	0.001059	20.808589
760.256709	-2.994500	3.708600	-11.104000	24.137388	0.001061	20.805669
761.242309	-2.989800	3.708600	-11.086000	24.133035	0.001061	20.810312
762.247965	-2.979700	3.709000	-11.051000	24.179262	0.001060	20.817322
763.245628	-2.993800	3.708100	-11.100000	24.181950	0.001059	20.836613
764.249302	-2.996100	3.706600	-11.104000	24.197302	0.001060	20.833520
765.243653	-3.006100	3.705600	-11.139000	24.215216	0.001059	20.814504
766.243980	-3.005200	3.706400	-11.138000	24.213027	0.001059	20.819895
767.247351	-3.006300	3.706500	-11.142000	24.176279	0.001058	20.825235
768.245206	-2.994300	3.706800	-11.098000	24.182872	0.001059	20.818572
769.250093	-2.998100	3.705400	-11.107000	24.178741	0.001058	20.830075
770.256971	-3.007600	3.705800	-11.143000	24.182523	0.001057	20.803523
771.246004	-2.999900	3.704500	-11.112000	24.154481	0.001055	20.815227
772.234657	-3.013600	3.704800	-11.163000	24.169411	0.001055	20.828778
773.231109	-2.997000	3.705900	-11.106000	24.183194	0.001056	20.811308
774.232403	-3.023900	3.704700	-11.201000	24.206532	0.001058	20.809587
775.237234	-2.999300	3.703500	-11.107000	24.200660	0.001056	20.826930
776.234428	-2.991300	3.704400	-11.081000	24.199812	0.001056	20.811382
777.236984	-2.968900	3.704900	-10.998000	24.210685	0.001055	20.806166
778.235071	-3.010300	3.704900	-11.152000	24.230191	0.001057	20.818619
779.237856	-2.980800	3.703500	-11.038000	24.254447	0.001055	20.833466
780.238427	-2.984100	3.704200	-11.052000	24.278132	0.001055	20.829723
781.235927	-2.992900	3.704100	-11.085000	24.286293	0.001058	20.828426
782.239522	-3.001100	3.703600	-11.114000	24.316394	0.001055	20.825905
783.237436	-2.986700	3.703700	-11.061000	24.311643	0.001055	20.834414
784.237252	-2.992700	3.704100	-11.084000	24.335624	0.001055	20.812953
785.238661	-2.996700	3.702400	-11.095000	24.348186	0.001053	20.822235
786.239987	-3.009700	3.702000	-11.141000	24.347068	0.001052	20.837234
787.237779	-3.007300	3.700300	-11.127000	24.334356	0.001055	20.848189
788.237990	-2.986000	3.701900	-11.052000	24.349205	0.001055	20.818516
789.237980	-2.998000	3.701300	-11.096000	24.359903	0.001052	20.802221
790.238313	-3.007200	3.699900	-11.125000	24.390600	0.001052	20.832541
791.236918	-3.006900	3.700800	-11.126000	24.389680	0.001053	20.834463
792.239130	-3.006100	3.699700	-11.120000	24.364455	0.001054	20.848986
793.238651	-3.003600	3.699300	-11.111000	24.354230	0.001052	20.835410
794.238217	-3.010100	3.698500	-11.132000	24.335970	0.001051	20.847438
795.240473	-2.998100	3.698200	-11.085000	24.348732	0.001052	20.830843
796.238857	-2.994700	3.699500	-11.078000	24.355323	0.001051	20.845515
797.239596	-2.995300	3.700400	-11.083000	24.374554	0.001050	20.833987
798.241394	-2.993100	3.698400	-11.068000	24.346665	0.001051	20.844891
799.240838	-2.996900	3.698800	-11.083000	24.334947	0.001049	20.846886
800.243708	-3.012500	3.697900	-11.139000	24.320594	0.001049	20.860462
801.243303	-3.009300	3.696900	-11.123000	24.305764	0.001049	20.826147
802.241727	-3.009400	3.698400	-11.129000	24.325342	0.001049	20.824449
803.244554	-3.007000	3.696300	-11.113000	24.350317	0.001049	20.846657
804.248207	-2.977600	3.697200	-11.007000	24.378080	0.001048	20.835628
805.244146	-2.983300	3.696500	-11.027000	24.369448	0.001047	20.835029
806.242998	-2.988800	3.696700	-11.048000	24.402879	0.001049	20.852919
807.246969	-2.987200	3.696800	-11.041000	24.365712	0.001048	20.854514
808.248036	-2.984800	3.697000	-11.035000	24.381734	0.001047	20.844034
809.248031	-3.010900	3.695700	-11.127000	24.374467	0.001048	20.856659
810.247189	-2.999200	3.695200	-11.081000	24.379568	0.001048	20.860354
811.249737	-3.010700	3.693800	-11.119000	24.338769	0.001047	20.864469
812.247572	-3.006300	3.696100	-11.109000	24.332025	0.001047	20.843006
813.245528	-3.000400	3.695800	-11.088000	24.302471	0.001047	20.858404
814.248119	-2.993600	3.693400	-11.056000	24.301226	0.001047	20.867586
815.248501	-3.005300	3.695200	-11.102000	24.296972	0.001046	20.836767
816.250930	-3.040100	3.693700	-11.228000	24.297343	0.001045	20.840933
817.246525	-2.979800	3.694200	-11.007000	24.265099	0.001046	20.860271
818.250571	-2.983300	3.693100	-11.017000	24.275050	0.001047	20.838486
819.245596	-3.003500	3.692700	-11.090000	24.285202	0.001045	20.844400
820.249960	-2.995000	3.693600	-11.061000	24.300899	0.001046	20.852085
821.246995	-2.992700	3.692300	-11.049000	24.327765	0.001047	20.861017
822.249370	-2.989600	3.692200	-11.037000	24.334407	0.001044	20.838758
823.248789	-3.008500	3.692100	-11.107000	24.301293	0.001044	20.850110
824.248781	-3.004200	3.690600	-11.086000	24.304054	0.001042	20.855725
825.250606	-2.983000	3.690700	-11.008000	24.315148	0.001046	20.871593
826.251967	-3.012900	3.689800	-11.115000	24.316987	0.001044	20.852577
827.251666	-3.004400	3.690100	-11.085000	24.340695	0.001044	20.852652
828.250928	-3.021800	3.690000	-11.149000	24.353209	0.001043	20.838179
829.251647	-2.993300	3.690300	-11.045000	24.378258	0.001042	20.857617
830.253056	-2.988800	3.692200	-11.034000	24.396889	0.001043	20.863505
831.258469	-3.002500	3.689300	-11.076000	24.381840	0.001044	20.857416
832.252921	-2.998600	3.689000	-11.061000	24.365320	0.001043	20.869293
833.255905	-3.000200	3.689600	-11.068000	24.336686	0.001043	20.855268
834.253104	-3.008400	3.689700	-11.099000	24.347135	0.001042	20.864801
835.275087	-2.995400	3.688900	-11.049000	24.368454	0.001041	20.876704
836.278526	-3.014300	3.688700	-11.117000	24.395518	0.001042	20.856914
837.287296	-3.004500	3.688900	-11.082000	24.389722	0.001042	20.846832
838.269712	-2.970300	3.690500	-10.961000	24.411936	0.001040	20.841143
839.284804	-2.995500	3.687600	-11.045000	24.443625	0.001041	20.852545
840.292659	-2.989500	3.687300	-11.022000	24.454422	0.001040	20.879497
841.255810	-3.009200	3.687500	-11.096000	24.425043	0.001039	20.874205
842.275524	-2.983900	3.687300	-11.002000	24.431909	0.001039	20.865921
843.282665	-3.006600	3.685000	-11.077000	24.425740	0.001039	20.854517
844.285385	-3.029500	3.684900	-11.162000	24.434622	0.001039	20.861056
845.274251	-3.017300	3.685700	-11.119000	24.424397	0.001040	20.868816
846.282318	-2.997500	3.685600	-11.046000	24.412259	0.001039	20.891724
847.278213	-2.996700	3.685600	-11.043000	24.415044	0.001037	20.864175
848.288434	-3.006700	3.685400	-11.079000	24.457106	0.001039	20.840467
849.260096	-3.005500	3.684900	-11.075000	24.443900	0.001038	20.862303
850.260341	-2.996700	3.685000	-11.042000	24.484569	0.001038	20.867070
851.259283	-3.010300	3.684700	-11.091000	24.483699	0.001037	20.889428
852.259490	-3.007300	3.684500	-11.078000	24.508325	0.001036	20.872886
853.259513	-3.007800	3.683400	-11.078000	24.511906	0.001034	20.871737
854.287710	-3.030100	3.682700	-11.158000	24.503426	0.001034	20.884565
855.275838	-3.019000	3.682300	-11.117000	24.512206	0.001037	20.852124
856.279089	-3.013600	3.682400	-11.096000	24.507605	0.001035	20.888757
857.286246	-3.003400	3.682600	-11.059000	24.488005	0.001035	20.898964
858.280437	-3.015600	3.682900	-11.105000	24.521013	0.001036	20.875659
859.286125	-3.018000	3.682400	-11.113000	24.543597	0.001035	20.873188
860.282307	-3.001900	3.683000	-11.055000	24.541333	0.001032	20.888932
861.281285	-2.986100	3.683800	-11.000000	24.542727	0.001032	20.894124
862.279699	-3.008400	3.679900	-11.068000	24.583493	0.001034	20.892827
863.281206	-2.981900	3.681400	-10.976000	24.549741	0.001033	20.878877
864.288345	-3.015400	3.681800	-11.101000	24.576305	0.001031	20.903157
865.281861	-2.993800	3.680700	-11.018000	24.561730	0.001033	20.885690
866.286629	-3.000200	3.681500	-11.044000	24.555909	0.001032	20.899763
867.305326	-2.994700	3.681200	-11.024000	24.550886	0.001032	20.899465
868.265662	-3.012700	3.680500	-11.087000	24.572200	0.001031	20.904728
869.266907	-3.000500	3.680200	-11.042000	24.548623	0.001032	20.888186
870.264946	-2.992500	3.679600	-11.010000	24.590580	0.001031	20.872438
871.280668	-2.999300	3.680200	-11.037000	24.565808	0.001031	20.873188
872.295740	-3.000000	3.680000	-11.039000	24.579140	0.001032	20.874710
873.284821	-2.985800	3.679400	-10.985000	24.558146	0.001030	20.887310
874.281213	-3.009000	3.680500	-11.073000	24.545338	0.001029	20.896269
875.293120	-3.009700	3.679800	-11.074000	24.555808	0.001031	20.896343
876.290553	-2.997800	3.676600	-11.021000	24.564041	0.001029	20.877579
877.283660	-2.995700	3.678100	-11.016000	24.527901	0.001030	20.911963
878.288806	-3.014900	3.676800	-11.083000	24.508350	0.001031	20.886186
879.295716	-3.000800	3.677100	-11.033000	24.511484	0.001028	20.915406
880.288384	-3.004100	3.677800	-11.046000	24.499196	0.001029	20.878899
881.284721	-3.016000	3.676100	-11.086000	24.515762	0.001030	20.886036
882.290668	-3.012200	3.677500	-11.076000	24.496436	0.001028	20.888931
883.286853	-2.993300	3.676400	-11.004000	24.545360	0.001026	20.883964
884.295218	-3.010600	3.675200	-11.064000	24.558940	0.001027	20.903278
885.297439	-3.009800	3.675700	-11.062000	24.554986	0.001028	20.911638
886.266698	-2.998100	3.675200	-11.017000	24.554563	0.001024	20.906947
887.266462	-3.022700	3.674700	-11.107000	24.523821	0.001027	20.904551
888.270416	-2.990600	3.675900	-10.992000	24.524766	0.001025	20.911189
889.288366	-3.001600	3.675600	-11.032000	24.491858	0.001025	20.890976
890.268865	-2.996100	3.674800	-11.009000	24.517503	0.001027	20.911014
891.274090	-3.011100	3.675200	-11.065000	24.504495	0.001025	20.920247
892.271477	-3.021700	3.673500	-11.099000	24.529663	0.001025	20.913258
893.271469	-2.982400	3.674600	-10.958000	24.522553	0.001025	20.919399
894.274388	-3.019400	3.673500	-11.090000	24.494395	0.001024	20.910590
895.272429	-3.009700	3.672300	-11.052000	24.496011	0.001026	20.908892
896.272452	-3.007800	3.672700	-11.046000	24.504641	0.001024	20.911860
897.273436	-3.013100	3.672700	-11.065000	24.520611	0.001023	20.915080
898.273430	-3.005700	3.672700	-11.038000	24.548518	0.001022	20.894719
899.274316	-2.989900	3.672400	-10.979000	24.532724	0.001024	20.920120
900.273615	-3.003900	3.671500	-11.027000	24.559759	0.001022	20.917848
901.299662	-3.008600	3.671000	-11.043000	24.579856	0.001023	20.899134
902.291511	-2.988000	3.672400	-10.971000	24.583485	0.001021	20.920792
903.293801	-3.003600	3.670500	-11.023000	24.598409	0.001021	20.925808
904.277184	-2.988300	3.670900	-10.968000	24.631387	0.001020	20.924760
905.275425	-2.989400	3.669500	-10.969000	24.620617	0.001022	20.924858
906.275261	-2.993500	3.668700	-10.981000	24.615246	0.001022	20.917099
907.277407	-2.984900	3.671400	-10.956000	24.635191	0.001019	20.914827
908.292939	-3.001100	3.669800	-11.012000	24.642404	0.001020	20.924908
909.274931	-2.997700	3.669500	-10.999000	24.655435	0.001021	20.932294
910.301512	-2.965100	3.669600	-10.880000	24.680502	0.001019	20.950333
911.289827	-2.985300	3.669600	-10.954000	24.707735	0.001021	20.908438
912.300278	-2.995900	3.669900	-10.994000	24.706068	0.001019	20.922411
913.298590	-2.984500	3.669000	-10.948000	24.705570	0.001020	20.943246
914.296467	-2.979000	3.668900	-10.929000	24.725317	0.001018	20.926080
915.277011	-3.016500	3.668200	-11.064000	24.708928	0.001018	20.938082
916.276765	-2.987100	3.668900	-10.959000	24.717854	0.001015	20.935185
917.280663	-3.005900	3.666300	-11.020000	24.677591	0.001017	20.934611
918.302278	-2.987400	3.666700	-10.952000	24.671027	0.001017	20.946041
919.279895	-3.021200	3.666800	-11.078000	24.633273	0.001017	20.922385
920.296607	-2.990500	3.667800	-10.967000	24.620812	0.001016	20.937381
921.297081	-2.998300	3.667100	-10.994000	24.650780	0.001015	20.931890
922.296671	-2.983700	3.666200	-10.938000	24.649858	0.001015	20.943766
923.299978	-3.000100	3.665600	-10.996000	24.641825	0.001013	20.932388
924.296937	-2.993000	3.665400	-10.969000	24.675175	0.001016	20.926024
925.297096	-2.984400	3.666400	-10.941000	24.679153	0.001014	20.921482
926.307679	-3.006200	3.665200	-11.017000	24.667489	0.001016	20.935380
927.285030	-3.005700	3.665000	-11.015000	24.682931	0.001014	20.940443
928.281369	-2.990400	3.664300	-10.956000	24.682358	0.001015	20.923275
929.285514	-3.017500	3.662800	-11.052000	24.684917	0.001013	20.926791
930.283725	-3.006900	3.663300	-11.015000	24.675467	0.001014	20.936273
931.283440	-2.994800	3.664700	-10.973000	24.690139	0.001014	20.953838
932.283734	-2.977900	3.664000	-10.909000	24.716176	0.001012	20.937295
933.287059	-3.007900	3.663300	-11.017000	24.720973	0.001011	20.957279
934.283153	-2.989800	3.662900	-10.950000	24.713736	0.001012	20.932476
935.302629	-2.979400	3.662900	-10.911000	24.701549	0.001011	20.924041
936.286959	-3.002300	3.661700	-10.991000	24.677897	0.001012	20.938712
937.306908	-2.997100	3.663400	-10.978000	24.681553	0.001013	20.925312
938.302510	-2.979800	3.661800	-10.910000	24.674139	0.001010	20.952008
939.303435	-2.994300	3.662800	-10.966000	24.650089	0.001011	20.933093
940.303556	-3.003100	3.661000	-10.993000	24.632382	0.001012	20.921491
941.309286	-2.983300	3.661900	-10.923000	24.637055	0.001010	20.912430
942.303848	-2.991600	3.659700	-10.948000	24.638148	0.001009	20.925854
943.316309	-3.032000	3.661100	-11.099000	24.649339	0.001011	20.911954
944.305028	-2.988700	3.661000	-10.940000	24.677067	0.001009	20.906114
945.307135	-3.012900	3.661500	-11.031000	24.692088	0.001008	20.919288
946.305622	-3.000600	3.659800	-10.980000	24.709022	0.001007	20.909730
947.308702	-3.026500	3.658800	-11.072000	24.750402	0.001009	20.934657
948.306199	-3.006300	3.658800	-10.998000	24.726105	0.001007	20.913596
949.308705	-3.009500	3.658900	-11.010000	24.762710	0.001007	20.912872
950.309816	-3.008300	3.657800	-11.002000	24.770990	0.001007	20.918810
951.304999	-3.012400	3.658200	-11.019000	24.767881	0.001006	20.911423
952.292420	-3.005200	3.657000	-10.989000	24.776857	0.001008	20.939868
953.289280	-3.005400	3.658600	-10.994000	24.804957	0.001006	20.922551
954.292361	-3.008900	3.657500	-11.003000	24.779715	0.001004	20.917609
955.291484	-3.014700	3.656100	-11.020000	24.783546	0.001004	20.918609
956.308702	-2.997600	3.657400	-10.963000	24.765912	0.001004	20.914663
957.289808	-3.006400	3.656900	-10.992000	24.780883	0.001005	20.908825
958.299798	-3.000500	3.654900	-10.965000	24.764916	0.001003	20.889483
959.295495	-2.998000	3.655800	-10.958000	24.723287	0.001006	20.897493
960.305954	-3.009800	3.656800	-11.005000	24.722167	0.001005	20.919127
961.292395	-3.000600	3.655700	-10.969000	24.717665	0.001002	20.900387
962.292336	-3.004400	3.654900	-10.980000	24.719729	0.001003	20.902931
963.290792	-2.997200	3.656500	-10.958000	24.740816	0.001000	20.881895
964.297748	-3.008200	3.654400	-10.993000	24.776153	0.001002	20.923991
965.294233	-2.985700	3.655900	-10.915000	24.807409	0.001002	20.903678
966.315436	-3.014700	3.654700	-11.015000	24.804475	0.001001	20.917327
967.318691	-3.002200	3.653400	-10.966000	24.806736	0.001001	20.910114
968.314382	-3.007800	3.653200	-10.987000	24.795546	0.001002	20.893196
969.318585	-2.985800	3.654500	-10.910000	24.799897	0.001001	20.890450
970.313240	-2.991300	3.655500	-10.934000	24.790323	0.001001	20.903126
971.316430	-3.003500	3.655300	-10.978000	24.756205	0.001001	20.890699
972.310734	-2.989400	3.653100	-10.919000	24.746928	0.000998	20.871908
973.296280	-3.007700	3.652600	-10.985000	24.716291	0.000998	20.874354
974.297038	-2.981800	3.653000	-10.891000	24.725167	0.000998	20.902699
975.295886	-2.982800	3.651900	-10.892000	24.734642	0.000998	20.900828
976.295743	-2.997100	3.651500	-10.943000	24.753342	0.000997	20.882137
977.314551	-3.005300	3.650600	-10.970000	24.754934	0.000996	20.889424
978.323046	-2.966900	3.653200	-10.838000	24.763762	0.000998	20.893541
979.315231	-3.017200	3.651200	-11.014000	24.782585	0.000997	20.876870
980.326195	-3.006100	3.650700	-10.974000	24.774353	0.000997	20.870981
981.299692	-3.017900	3.650800	-11.016000	24.787235	0.000998	20.891019
982.313567	-2.997000	3.650700	-10.940000	24.796658	0.000994	20.877717
983.318724	-3.003100	3.650100	-10.961000	24.802652	0.000995	20.881361
984.318742	-3.039600	3.649200	-11.091000	24.807899	0.000994	20.863395
985.304697	-3.022400	3.649400	-11.029000	24.772064	0.000993	20.866313
986.314667	-2.998000	3.649600	-10.941000	24.776390	0.000993	20.872076
987.329978	-3.002100	3.649400	-10.955000	24.745032	0.000995	20.869056
988.321093	-3.025800	3.648300	-11.037000	24.742917	0.000993	20.852711
989.319921	-3.005900	3.649000	-10.967000	24.754432	0.000991	20.867110
990.315966	-3.007400	3.647700	-10.969000	24.759131	0.000993	20.883679
991.321710	-3.004400	3.649300	-10.962000	24.754878	0.000991	20.874669
992.316858	-2.988800	3.647800	-10.901000	24.765224	0.000993	20.886000
993.322505	-3.001600	3.650300	-10.956000	24.767063	0.000994	20.871725
994.303577	-3.015400	3.647200	-10.997000	24.788397	0.000993	20.868954
995.302968	-3.002300	3.647000	-10.949000	24.796802	0.000990	20.874069
996.306622	-2.988800	3.648100	-10.901000	24.784643	0.000992	20.877987
997.306298	-2.992400	3.647100	-10.912000	24.777880	0.000990	20.859347
998.303170	-3.002300	3.646500	-10.945000	24.730058	0.000991	20.872996
999.304733	-2.995700	3.647000	-10.925000	24.717475	0.000989	20.870800
1000.304360	-2.991100	3.645700	-10.904000	24.690665	0.000989	20.872820
1001.304763	-3.004500	3.645300	-10.950000	24.691933	0.000990	20.835688
1002.311360	-2.990400	3.645300	-10.900000	24.709739	0.000989	20.844072
1003.305098	-2.986100	3.645900	-10.886000	24.698224	0.000988	20.871397
1004.330968	-2.996400	3.644800	-10.920000	24.694023	0.000988	20.857224
1005.333197	-3.005700	3.644400	-10.953000	24.703297	0.000988	20.867479
1006.329404	-2.992200	3.643900	-10.901000	24.722844	0.000987	20.842525
1007.324160	-3.008600	3.644000	-10.961000	24.735252	0.000987	20.875364
1008.327641	-3.013700	3.644100	-10.981000	24.755245	0.000988	20.866030
1009.322344	-2.986300	3.645000	-10.885000	24.772503	0.000986	20.848262
1010.327815	-2.994000	3.642500	-10.904000	24.738335	0.000986	20.877035
1011.328907	-3.009400	3.643300	-10.963000	24.758453	0.000984	20.860240
1012.326370	-2.975100	3.643200	-10.837000	24.756337	0.000985	20.859066
1013.330831	-3.004600	3.641400	-10.940000	24.736443	0.000986	20.876558
1014.306716	-2.988600	3.643000	-10.886000	24.731270	0.000984	20.854773
1015.328168	-2.998200	3.642600	-10.920000	24.733134	0.000983	20.849532
1016.322453	-3.010300	3.642000	-10.963000	24.705656	0.000985	20.847087
1017.328960	-2.998000	3.642200	-10.917000	24.684269	0.000983	20.857394
1018.323179	-3.013500	3.641400	-10.972000	24.701626	0.000983	20.856794
1019.309593	-2.992800	3.639900	-10.892000	24.696976	0.000982	20.854498
1020.310103	-2.991400	3.642400	-10.894000	24.710057	0.000980	20.833012
1021.325875	-2.991300	3.640500	-10.888000	24.711698	0.000981	20.855996
1022.326190	-3.016200	3.638800	-10.974000	24.720751	0.000982	20.837579
1023.330669	-3.016100	3.640600	-10.978000	24.723014	0.000981	20.854074
1024.334407	-3.024200	3.638500	-11.002000	24.709585	0.000980	20.830643
1025.327018	-2.993000	3.639300	-10.891000	24.733210	0.000979	20.836332
1026.335822	-3.002800	3.637600	-10.922000	24.774739	0.000982	20.839127
1027.330878	-2.979600	3.639700	-10.844000	24.769866	0.000980	20.843245
1028.329870	-2.993900	3.639200	-10.895000	24.766234	0.000979	20.867575
1029.330338	-2.992100	3.637100	-10.881000	24.800104	0.000977	20.854625
1030.328891	-2.979300	3.638900	-10.840000	24.807988	0.000976	20.869648
1031.334308	-2.997000	3.637800	-10.900000	24.855506	0.000977	20.858069
1032.330778	-2.998700	3.637900	-10.908000	24.874802	0.000978	20.843771
1033.312915	-2.989300	3.637600	-10.872000	24.872861	0.000977	20.848935
1034.313722	-3.011900	3.637200	-10.954000	24.883331	0.000977	20.835261
1035.312650	-3.007300	3.637600	-10.937000	24.902376	0.000977	20.838729
1036.338900	-3.016000	3.634600	-10.960000	24.918340	0.000977	20.861389
1037.334603	-2.991200	3.635200	-10.872000	24.927216	0.000974	20.838056
1038.330993	-2.993600	3.637400	-10.887000	24.953423	0.000976	20.847764
1039.340716	-3.015700	3.633900	-10.958000	24.968315	0.000971	20.839953
1040.332072	-3.005600	3.635100	-10.924000	24.940642	0.000973	20.846790
1041.336680	-2.983800	3.636100	-10.849000	24.946437	0.000972	20.852131
1042.342196	-3.007400	3.634200	-10.928000	24.939026	0.000973	20.836634
1043.333688	-3.001300	3.634500	-10.907000	24.959563	0.000973	20.846815
1044.339259	-2.980100	3.633800	-10.828000	24.969982	0.000972	20.851582
1045.337094	-3.002400	3.633200	-10.906000	24.959265	0.000974	20.848886
1046.332815	-2.983000	3.633200	-10.837000	24.989248	0.000971	20.853377
1047.334717	-3.004500	3.633300	-10.915000	24.998871	0.000973	20.830794
1048.344078	-2.998200	3.633200	-10.892000	24.967492	0.000970	20.844342
1049.343746	-3.003700	3.632700	-10.910000	24.992332	0.000971	20.838929
1050.342003	-2.995300	3.633900	-10.884000	24.982436	0.000970	20.828522
1051.318902	-3.006600	3.631300	-10.918000	24.988527	0.000973	20.826101
1052.316888	-2.986200	3.633300	-10.848000	24.999368	0.000968	20.837931
1053.315873	-2.998600	3.631400	-10.888000	24.974703	0.000970	20.844468
1054.341664	-2.978100	3.632600	-10.818000	24.994122	0.000969	20.835984
1055.342049	-2.977600	3.631300	-10.812000	24.959586	0.000968	20.834511
1056.333232	-3.005300	3.629700	-10.907000	24.963565	0.000965	20.831392
1057.337422	-3.004200	3.629700	-10.902000	24.956205	0.000967	20.823530
1058.336300	-2.969400	3.631900	-10.783000	24.942006	0.000967	20.837254
1059.338524	-3.004800	3.629600	-10.905000	24.935468	0.000967	20.842545
1060.318827	-3.013200	3.629400	-10.935000	24.926716	0.000967	20.833287
1061.318996	-2.988300	3.629100	-10.844000	24.940988	0.000963	20.826749
1062.318892	-3.000500	3.629500	-10.888000	24.941933	0.000966	20.835758
1063.318204	-2.997400	3.627900	-10.873000	24.905531	0.000964	20.832413
1064.318235	-3.001900	3.627400	-10.888000	24.932907	0.000964	20.833811
1065.320051	-2.993100	3.630800	-10.865000	24.950435	0.000963	20.834808
1066.320333	-3.022000	3.626900	-10.959000	24.963240	0.000961	20.823953
1067.320315	-3.018800	3.627000	-10.947000	24.981912	0.000964	20.830841
1068.320247	-3.016100	3.625100	-10.932000	24.957273	0.000962	20.829344
1069.320633	-3.004400	3.626800	-10.896000	24.965676	0.000962	20.828296
1070.323320	-3.014100	3.625000	-10.925000	24.988699	0.000963	20.830541
1071.336434	-2.997200	3.625900	-10.867000	24.976914	0.000961	20.822980
1072.344698	-2.998800	3.628200	-10.879000	24.957172	0.000960	20.841096
1073.329049	-2.984100	3.625600	-10.818000	24.942874	0.000959	20.819633
1074.341761	-2.983700	3.626400	-10.819000	24.954835	0.000961	20.828793
1075.350666	-2.998800	3.626200	-10.874000	24.986758	0.000957	20.833335
1076.343651	-2.977200	3.626100	-10.794000	24.980442	0.000960	20.820832
1077.345279	-3.018600	3.622900	-10.934000	25.011246	0.000960	20.816663
1078.347501	-2.996500	3.624400	-10.859000	25.013060	0.000959	20.809002
1079.337036	-2.996000	3.624900	-10.858000	25.019971	0.000956	20.824474
1080.342883	-3.028000	3.622900	-10.969000	25.024296	0.000958	20.819332
1081.346988	-3.004900	3.623300	-10.887000	25.030139	0.000955	20.837050
1082.321867	-2.974400	3.622700	-10.774000	25.063477	0.000954	20.817410
1083.322752	-2.983600	3.623300	-10.810000	25.033668	0.000955	20.818307
1084.320830	-3.019700	3.622600	-10.938000	25.037744	0.000953	20.823348
1085.325155	-3.004400	3.621900	-10.881000	25.016015	0.000954	20.807701
1086.320305	-3.019000	3.620600	-10.930000	24.976931	0.000954	20.834851
1087.323191	-3.034300	3.619200	-10.981000	25.004130	0.000953	20.815211
1088.321242	-2.990600	3.621400	-10.829000	24.975761	0.000954	20.807124
1089.349277	-2.999300	3.620000	-10.856000	24.976257	0.000954	20.799561
1090.354386	-3.017500	3.619700	-10.921000	24.958082	0.000953	20.816406
1091.346678	-2.990100	3.621200	-10.827000	24.952263	0.000954	20.829532
1092.321030	-2.969000	3.621100	-10.750000	24.958105	0.000955	20.804102
1093.344507	-3.023400	3.620300	-10.945000	24.975682	0.000951	20.807519
1094.347672	-2.994700	3.619300	-10.837000	24.964991	0.000951	20.820495
1095.323202	-2.989400	3.620800	-10.823000	24.963522	0.000950	20.809539
1096.334814	-3.007900	3.617800	-10.881000	24.979010	0.000950	20.814653
1097.323008	-3.004600	3.617500	-10.868000	24.953276	0.000950	20.809211
1098.325521	-2.994400	3.619700	-10.837000	24.968219	0.000949	20.832744
1099.326195	-3.017900	3.617900	-10.916000	24.982886	0.000948	20.813327
1100.342722	-2.995800	3.618300	-10.839000	25.000090	0.000948	20.798353
1101.354325	-2.984700	3.618600	-10.799000	24.990192	0.000948	20.796005
1102.324328	-2.991000	3.617300	-10.818000	24.998174	0.000948	20.811129
1103.349089	-3.007800	3.617300	-10.878000	25.001852	0.000947	20.802493
1104.347118	-3.003800	3.615700	-10.859000	25.009956	0.000946	20.809205
1105.342431	-2.985800	3.617600	-10.801000	25.030914	0.000946	20.801793
1106.343542	-2.992900	3.616400	-10.823000	25.036730	0.000947	20.808105
1107.346794	-3.003600	3.615400	-10.858000	25.024869	0.000945	20.808527
1108.334632	-3.011300	3.615900	-10.887000	25.043787	0.000945	20.796697
1109.348465	-3.002700	3.617300	-10.860000	25.036901	0.000945	20.795949
1110.333995	-3.002200	3.615900	-10.854000	25.046421	0.000945	20.801712
1111.348180	-3.022000	3.614600	-10.922000	25.020764	0.000945	20.801562
1112.354307	-3.013400	3.613300	-10.887000	25.025884	0.000944	20.787261
1113.331291	-2.996500	3.614700	-10.830000	25.015241	0.000944	20.803131
1114.353437	-3.004800	3.614600	-10.860000	25.003555	0.000944	20.805151
1115.354018	-2.985700	3.615100	-10.792000	24.995649	0.000943	20.793421
1116.356451	-3.003800	3.614500	-10.856000	25.029858	0.000943	20.810690
1117.351199	-2.997600	3.614100	-10.833000	25.035476	0.000942	20.800208
1118.352825	-3.002700	3.612800	-10.847000	25.058869	0.000941	20.808043
1119.347348	-3.003500	3.614100	-10.853000	25.037463	0.000940	20.803151
1120.352308	-2.993900	3.613500	-10.817000	25.088103	0.000942	20.793293
1121.354080	-3.015600	3.611000	-10.888000	25.073112	0.000939	20.791046
1122.349097	-3.005000	3.612000	-10.852000	25.077237	0.000938	20.792342
1123.348886	-3.006800	3.613100	-10.862000	25.067516	0.000938	20.801550
1124.332547	-3.011700	3.612000	-10.877000	25.024382	0.000938	20.756829
1125.333895	-3.007200	3.610400	-10.856000	25.016500	0.000937	20.782583
1126.333220	-3.014700	3.609600	-10.881000	24.992433	0.000939	20.802996
1127.335606	-2.994800	3.611600	-10.815000	24.980474	0.000940	20.804268
1128.335871	-3.011200	3.608600	-10.865000	24.944645	0.000938	20.797704
1129.336038	-3.011200	3.609400	-10.867000	24.920003	0.000940	20.803316
1130.339441	-2.990700	3.610000	-10.795000	24.931590	0.000937	20.791238
1131.335284	-3.004100	3.610100	-10.845000	24.968287	0.000935	20.772595
1132.336688	-3.021500	3.607200	-10.898000	24.988848	0.000934	20.792285
1133.334116	-2.995600	3.607900	-10.806000	24.973456	0.000935	20.792483
1134.341347	-3.009500	3.607900	-10.856000	24.961770	0.000933	20.779804
1135.333885	-2.974800	3.608700	-10.734000	24.962590	0.000934	20.778731
1136.336844	-2.996500	3.606700	-10.806000	24.968954	0.000933	20.789387
1137.339038	-3.008000	3.606200	-10.846000	24.963682	0.000935	20.793104
1138.337053	-3.020400	3.606100	-10.891000	24.970096	0.000935	20.783420
1139.338881	-3.000400	3.606200	-10.819000	24.951199	0.000933	20.792903
1140.340030	-3.004200	3.606400	-10.834000	24.939315	0.000931	20.776706
1141.341091	-2.994700	3.605800	-10.797000	24.906469	0.000931	20.779775
1142.340650	-3.001900	3.606000	-10.824000	24.892371	0.000932	20.782221
1143.339108	-3.000000	3.606200	-10.816000	24.883941	0.000929	20.799365
1144.338554	-2.995500	3.606000	-10.801000	24.879986	0.000931	20.770739
1145.338609	-2.983300	3.605900	-10.756000	24.910495	0.000931	20.786661
1146.362662	-3.007600	3.603100	-10.835000	24.939660	0.000930	20.782743
1147.361159	-3.009600	3.604600	-10.847000	24.972007	0.000928	20.777751
1148.362164	-2.995300	3.603500	-10.792000	24.997241	0.000929	20.789804
1149.368027	-2.962200	3.605300	-10.677000	25.038561	0.000930	20.783390
1150.368382	-3.013500	3.604400	-10.861000	25.012133	0.000926	20.813761
1151.363769	-3.000600	3.602600	-10.809000	24.996942	0.000926	20.781918
1152.372635	-2.992400	3.603800	-10.782000	25.022426	0.000926	20.789479
1153.368875	-2.990600	3.603000	-10.774000	25.027820	0.000924	20.821446
1154.366925	-3.010100	3.601000	-10.838000	25.048654	0.000926	20.768391
1155.369592	-3.012900	3.601700	-10.851000	25.048927	0.000924	20.771984
1156.362786	-2.991900	3.602000	-10.776000	25.027670	0.000926	20.784313
1157.362563	-2.972400	3.602400	-10.707000	24.986201	0.000924	20.794844
1158.362949	-2.986400	3.602100	-10.756000	24.971582	0.000924	20.800085
1159.369288	-2.997500	3.602100	-10.795000	25.001665	0.000923	20.788081
1160.348893	-2.983400	3.602100	-10.746000	24.968772	0.000923	20.781142
1161.348459	-3.004100	3.599600	-10.812000	24.944779	0.000921	20.784562
1162.346585	-3.007200	3.600700	-10.826000	24.934586	0.000922	20.779073
1163.346732	-2.998900	3.599800	-10.794000	24.947886	0.000923	20.789577
1164.347105	-3.013000	3.598000	-10.839000	24.982346	0.000922	20.786707
1165.347951	-3.000200	3.598500	-10.793000	24.998333	0.000920	20.801331
1166.348377	-3.009600	3.597700	-10.826000	25.007880	0.000922	20.792422
1167.348014	-3.003900	3.599200	-10.811000	25.022027	0.000919	20.790027
1168.349587	-3.023900	3.598500	-10.880000	25.065733	0.000920	20.799761
1169.349909	-2.990700	3.599300	-10.764000	25.080774	0.000920	20.799686
1170.370139	-3.015600	3.597100	-10.845000	25.062278	0.000922	20.804827
1171.368953	-2.998500	3.596500	-10.783000	25.050294	0.000919	20.787107
1172.371062	-3.021500	3.597100	-10.868000	25.028491	0.000918	20.798886
1173.372090	-2.993100	3.596600	-10.764000	25.043905	0.000918	20.784013
1174.374751	-3.016100	3.595300	-10.843000	25.033165	0.000917	20.802631
1175.374402	-3.002900	3.596000	-10.797000	25.053279	0.000916	20.802431
1176.364314	-3.012500	3.595900	-10.831000	25.011064	0.000914	20.793722
1177.378460	-2.984000	3.595500	-10.728000	25.020039	0.000914	20.817429
1178.371713	-2.991900	3.593900	-10.751000	25.016907	0.000914	20.800061
1179.365542	-3.005300	3.594400	-10.801000	25.005172	0.000915	20.788756
1180.371118	-3.003300	3.593600	-10.791000	25.018423	0.000916	20.804902
1181.377872	-3.005500	3.593400	-10.799000	24.991399	0.000913	20.795320
1182.367285	-3.008500	3.593900	-10.811000	24.999181	0.000913	20.807398
1183.369115	-2.995600	3.594800	-10.768000	24.988018	0.000913	20.806151
1184.391078	-2.994600	3.593400	-10.760000	25.000325	0.000911	20.800486
1185.373632	-3.013200	3.592900	-10.824000	25.021482	0.000913	20.801334
1186.372306	-2.997400	3.593500	-10.769000	25.035653	0.000912	20.810817
1187.378895	-2.997500	3.591600	-10.765000	25.025162	0.000910	20.799339
1188.357413	-3.004900	3.591400	-10.791000	25.018823	0.000911	20.817631
1189.355854	-3.000500	3.591800	-10.776000	24.973599	0.000911	20.815860
1190.358734	-3.005200	3.590300	-10.789000	24.981605	0.000910	20.806352
1191.355705	-2.977300	3.590900	-10.691000	24.995179	0.000908	20.824718
1192.356077	-2.983800	3.590600	-10.713000	25.050297	0.000909	20.811766
1193.356333	-2.995200	3.589900	-10.751000	25.052535	0.000909	20.815910
1194.377908	-2.994400	3.589500	-10.748000	25.086843	0.000907	20.825693
1195.373431	-2.996800	3.588300	-10.752000	25.104494	0.000908	20.832506
1196.374350	-2.985300	3.588800	-10.713000	25.123811	0.000907	20.806379
1197.375713	-3.015000	3.589400	-10.821000	25.109194	0.000906	20.811145
1198.356864	-3.012400	3.589000	-10.811000	25.115333	0.000905	20.826791
1199.371366	-3.019000	3.586700	-10.827000	25.114539	0.000907	20.807976
1200.361248	-3.009100	3.587500	-10.794000	25.152225	0.000907	20.848178
1201.356293	-3.018000	3.586900	-10.824000	25.117497	0.000905	20.836076
1202.355841	-3.014600	3.586800	-10.811000	25.085653	0.000904	20.817385
1203.375299	-2.986600	3.586400	-10.710000	25.047093	0.000903	20.822301
1204.373583	-2.966500	3.587600	-10.641000	25.030537	0.000901	20.817061
1205.359941	-2.988800	3.587100	-10.720000	25.007142	0.000902	20.831035
1206.359557	-2.978300	3.586600	-10.681000	24.988868	0.000902	20.831660
1207.361953	-2.985000	3.585900	-10.703000	24.972633	0.000902	20.822950
1208.360221	-3.032500	3.584100	-10.867000	25.010497	0.000900	20.801687
1209.360534	-3.006100	3.585700	-10.777000	25.026607	0.000900	20.826867
1210.364689	-3.002600	3.585900	-10.766000	25.052215	0.000900	20.833605
1211.384407	-2.996700	3.585100	-10.743000	25.084011	0.000900	20.844186
1212.384323	-3.004300	3.583700	-10.765000	25.108522	0.000898	20.813316
1213.389966	-2.976000	3.585700	-10.670000	25.129404	0.000899	20.831434
1214.395128	-3.008200	3.584500	-10.782000	25.135170	0.000898	20.833903
1215.380029	-3.004800	3.582900	-10.765000	25.170321	0.000897	20.835052
1216.388817	-2.993000	3.582800	-10.722000	25.189386	0.000897	20.828588
1217.363346	-2.988700	3.582400	-10.705000	25.196370	0.000897	20.828012
1218.382671	-3.000600	3.583100	-10.751000	25.167932	0.000897	20.809895
1219.381217	-2.994200	3.582100	-10.723000	25.129402	0.000895	20.841388
1220.379684	-3.015500	3.581200	-10.798000	25.122341	0.000895	20.834300
1221.386838	-3.006200	3.580600	-10.762000	25.094995	0.000894	20.839091
1222.364802	-2.996400	3.581800	-10.730000	25.099071	0.000894	20.813786
1223.390542	-2.989100	3.581300	-10.703000	25.059767	0.000896	20.842134
1224.393434	-2.988000	3.581500	-10.701000	25.053775	0.000893	20.826163
1225.385930	-2.999400	3.579900	-10.737000	25.058821	0.000893	20.841185
1226.401520	-2.995000	3.579100	-10.718000	25.027694	0.000892	20.837915
1227.395340	-2.985000	3.580800	-10.688000	25.072592	0.000891	20.832724
1228.390976	-3.009200	3.579200	-10.770000	25.100808	0.000892	20.832599
1229.394804	-3.004900	3.577700	-10.750000	25.131981	0.000889	20.849667
1230.386536	-2.989700	3.578900	-10.698000	25.139488	0.000889	20.843453
1231.384686	-3.000900	3.578600	-10.739000	25.122086	0.000888	20.853958
1232.387482	-3.008000	3.578400	-10.762000	25.102869	0.000887	20.847469
1233.395625	-3.003000	3.578000	-10.743000	25.090786	0.000889	20.841030
1234.399317	-2.978000	3.578500	-10.654000	25.105404	0.000889	20.836738
1235.369506	-3.015500	3.576800	-10.784000	25.110474	0.000888	20.848939
1236.390503	-2.996200	3.578000	-10.719000	25.091654	0.000888	20.840479
1237.391461	-3.007500	3.574800	-10.750000	25.098888	0.000887	20.840154
1238.397994	-2.990100	3.575600	-10.691000	25.107290	0.000885	20.839106
1239.394414	-3.027700	3.575300	-10.824000	25.125213	0.000886	20.835286
1240.389644	-2.999300	3.576000	-10.724000	25.149797	0.000885	20.850483
1241.403071	-2.957100	3.577300	-10.576000	25.185095	0.000883	20.829495
1242.396529	-3.008800	3.576000	-10.758000	25.175972	0.000885	20.841673
1243.409787	-2.990300	3.576600	-10.695000	25.224990	0.000884	20.854848
1244.392544	-2.999100	3.573800	-10.718000	25.269657	0.000883	20.851329
1245.388688	-2.976600	3.575500	-10.641000	25.256930	0.000883	20.852777
1246.377896	-2.999000	3.574500	-10.719000	25.289019	0.000881	20.850381
1247.371976	-2.984500	3.574600	-10.667000	25.282530	0.000880	20.843866
1248.374409	-3.024700	3.573300	-10.807000	25.292521	0.000880	20.870966
1249.375264	-3.010800	3.573000	-10.757000	25.304351	0.000881	20.836378
1250.375413	-3.013500	3.571600	-10.763000	25.298138	0.000881	20.852899
1251.375999	-2.978000	3.573400	-10.640000	25.302388	0.000880	20.848156
1252.379118	-3.020200	3.571100	-10.784000	25.313373	0.000881	20.850177
1253.374553	-2.992700	3.571300	-10.687000	25.332411	0.000879	20.828990
1254.374809	-3.007000	3.572100	-10.740000	25.295427	0.000878	20.852547
1255.392570	-3.024900	3.571700	-10.803000	25.369194	0.000879	20.876826
1256.405337	-3.006100	3.570700	-10.733000	25.346550	0.000877	20.849824
1257.401578	-3.011400	3.569000	-10.746000	25.328183	0.000879	20.846555
1258.378632	-2.996800	3.569900	-10.697000	25.328829	0.000878	20.849100
1259.397929	-2.993400	3.569900	-10.685000	25.340236	0.000875	20.861976
1260.399440	-2.998800	3.570100	-10.705000	25.335090	0.000875	20.830258
1261.394444	-2.995800	3.569400	-10.692000	25.321221	0.000874	20.867539
1262.398582	-3.018200	3.568400	-10.770000	25.358527	0.000876	20.849522
1263.404476	-3.004800	3.568400	-10.722000	25.352139	0.000872	20.846428
1264.397095	-3.012400	3.568900	-10.750000	25.370108	0.000874	20.859727
1265.406157	-3.007300	3.568200	-10.730000	25.343341	0.000873	20.848498
1266.397094	-2.984600	3.569000	-10.651000	25.348858	0.000873	20.852615
1267.397679	-3.007300	3.567800	-10.728000	25.331285	0.000872	20.867687
1268.378856	-2.998200	3.567200	-10.693000	25.302926	0.000872	20.862446
1269.380992	-2.998300	3.566600	-10.693000	25.277075	0.000870	20.861622
1270.380630	-2.978300	3.566700	-10.622000	25.270439	0.000872	20.851640
1271.383397	-3.004800	3.566200	-10.714000	25.285451	0.000870	20.863393
1272.402122	-3.000200	3.567800	-10.702000	25.290074	0.000870	20.870405
1273.399416	-2.986700	3.566500	-10.649000	25.308840	0.000868	20.860798
1274.409718	-2.986500	3.565600	-10.647000	25.329891	0.000868	20.876718
1275.399967	-3.002000	3.565600	-10.704000	25.333271	0.000867	20.857827
1276.407012	-3.002300	3.564700	-10.701000	25.322832	0.000868	20.872949
1277.411543	-3.015100	3.562400	-10.740000	25.349922	0.000868	20.894459
1278.414662	-2.978600	3.565800	-10.620000	25.335680	0.000867	20.885849
1279.401917	-2.983100	3.564800	-10.634000	25.333568	0.000865	20.855281
1280.421398	-3.026300	3.563000	-10.781000	25.330884	0.000865	20.867758
1281.400808	-3.019000	3.561800	-10.752000	25.288108	0.000864	20.877914
1282.411510	-2.994600	3.563800	-10.671000	25.285796	0.000864	20.875592
1283.406106	-3.007200	3.563700	-10.714000	25.307195	0.000863	20.865785
1284.413008	-2.990900	3.563300	-10.656000	25.313136	0.000862	20.876965
1285.405163	-3.010300	3.560700	-10.718000	25.312340	0.000862	20.858623
1286.387971	-2.989400	3.561800	-10.647000	25.315919	0.000862	20.868854
1287.389182	-2.986600	3.561500	-10.635000	25.291113	0.000860	20.866707
1288.390761	-3.004300	3.561400	-10.699000	25.295612	0.000863	20.888292
1289.406252	-2.995000	3.560600	-10.662000	25.324667	0.000859	20.874791
1290.391160	-2.988600	3.560200	-10.639000	25.346638	0.000862	20.874093
1291.390443	-3.009000	3.559300	-10.708000	25.369528	0.000863	20.877636
1292.393470	-3.004300	3.560800	-10.696000	25.368782	0.000862	20.871672
1293.390536	-3.000300	3.558600	-10.676000	25.370645	0.000860	20.901515
1294.390054	-2.993200	3.559800	-10.655000	25.355982	0.000860	20.880630
1295.396777	-3.003700	3.558600	-10.688000	25.377903	0.000861	20.870398
1296.396734	-2.990400	3.558900	-10.642000	25.384762	0.000858	20.877285
1297.413764	-2.973800	3.559300	-10.583000	25.397262	0.000859	20.886518
1298.392309	-3.012700	3.557100	-10.716000	25.387645	0.000858	20.893455
1299.389171	-3.004600	3.558200	-10.690000	25.355135	0.000855	20.887839
1300.409636	-2.992300	3.557200	-10.644000	25.313977	0.000857	20.896299
1301.398390	-2.987800	3.557000	-10.626000	25.289097	0.000857	20.891708
1302.392277	-3.008100	3.556500	-10.697000	25.304930	0.000857	20.883898
1303.395521	-3.021200	3.555700	-10.741000	25.340125	0.000856	20.887467
1304.411744	-2.989500	3.556600	-10.631000	25.342063	0.000854	20.906006
1305.415333	-2.994500	3.557500	-10.652000	25.347755	0.000854	20.874266
1306.427876	-3.006700	3.555400	-10.689000	25.348574	0.000853	20.903536
1307.390860	-2.966200	3.556200	-10.548000	25.371465	0.000853	20.890486
1308.392421	-3.024800	3.553900	-10.749000	25.367912	0.000853	20.913468
1309.397188	-2.993900	3.553900	-10.638000	25.378872	0.000852	20.882751
1310.396261	-3.005400	3.553100	-10.677000	25.385608	0.000851	20.895203
1311.393078	-3.002900	3.553600	-10.670000	25.365029	0.000849	20.906307
1312.395010	-2.998600	3.553700	-10.654000	25.344873	0.000849	20.919732
1313.391638	-2.999600	3.553800	-10.658000	25.352652	0.000849	20.904311
1314.391912	-3.002700	3.552900	-10.668000	25.384638	0.000849	20.903238
1315.411449	-3.003900	3.553600	-10.673000	25.372436	0.000849	20.913744
1316.413941	-3.004000	3.550400	-10.664000	25.385907	0.000848	20.914468
1317.393008	-2.984100	3.553100	-10.601000	25.383148	0.000848	20.898422
1318.392502	-3.009000	3.551100	-10.683000	25.418538	0.000846	20.899820
1319.391960	-3.010500	3.550400	-10.688000	25.429150	0.000848	20.904312
1320.391026	-3.009500	3.550400	-10.684000	25.416477	0.000846	20.909129
1321.392533	-3.017800	3.550900	-10.715000	25.420378	0.000846	20.916838
1322.394060	-3.005400	3.549300	-10.665000	25.420403	0.000844	20.928716
1323.392425	-2.997700	3.550100	-10.641000	25.414861	0.000845	20.894705
1324.392220	-3.021400	3.548800	-10.721000	25.441553	0.000846	20.910127
1325.394607	-2.999100	3.548500	-10.642000	25.458054	0.000844	20.925273
1326.418602	-2.986900	3.549600	-10.601000	25.479004	0.000844	20.915966
1327.416313	-2.995200	3.550500	-10.633000	25.468069	0.000844	20.925373
1328.413846	-2.996300	3.548900	-10.631000	25.478830	0.000842	20.919584
1329.395714	-3.001900	3.548700	-10.650000	25.469958	0.000843	20.910202
1330.419089	-2.996700	3.549100	-10.635000	25.470679	0.000842	20.920882
1331.422916	-3.005600	3.547600	-10.661000	25.467895	0.000842	20.935154
1332.412076	-3.008600	3.546400	-10.669000	25.494760	0.000840	20.906659
1333.418544	-2.974000	3.548100	-10.550000	25.465833	0.000840	20.922179
1334.431066	-3.019000	3.547100	-10.707000	25.466877	0.000841	20.922279
1335.426191	-2.986100	3.547900	-10.593000	25.470755	0.000840	20.934707
1336.418153	-2.989500	3.548100	-10.605000	25.448860	0.000839	20.927894
1337.418744	-3.011000	3.545400	-10.674000	25.456863	0.000838	20.925500
1338.415542	-2.992000	3.544900	-10.605000	25.454527	0.000838	20.935006
1339.403254	-3.002800	3.545900	-10.648000	25.466829	0.000837	20.922231
1340.422284	-3.008300	3.544500	-10.662000	25.448114	0.000838	20.932835
1341.400387	-2.969200	3.546400	-10.529000	25.427165	0.000836	20.921282
1342.398339	-2.993900	3.544800	-10.612000	25.413869	0.000837	20.915518
1343.399491	-2.998800	3.543700	-10.626000	25.399852	0.000834	20.946010
1344.399984	-2.981300	3.543400	-10.563000	25.335184	0.000836	20.916642
1345.415868	-2.977800	3.543100	-10.549000	25.338240	0.000835	20.942941
1346.398912	-3.003900	3.542000	-10.639000	25.289053	0.000834	20.936703
1347.400935	-2.995200	3.543000	-10.611000	25.333990	0.000834	20.938675
1348.401409	-3.021200	3.542900	-10.702000	25.329293	0.000834	20.915943
1349.405545	-3.009200	3.541700	-10.657000	25.355091	0.000833	20.921931
1350.405797	-2.992000	3.543100	-10.600000	25.374353	0.000831	20.926099
1351.398952	-3.014100	3.542200	-10.676000	25.383996	0.000833	20.931987
1352.400359	-2.997200	3.540700	-10.611000	25.418616	0.000833	20.911751
1353.417957	-2.973600	3.541000	-10.529000	25.385512	0.000833	20.906011
1354.428577	-2.978600	3.540600	-10.545000	25.360385	0.000829	20.931513
1355.427600	-2.972700	3.540900	-10.525000	25.365580	0.000830	20.918238
1356.404292	-2.995400	3.540900	-10.606000	25.342715	0.000829	20.900971
1357.422692	-2.998900	3.540000	-10.615000	25.337420	0.000830	20.906561
1358.427012	-2.997000	3.539400	-10.607000	25.322259	0.000827	20.919311
1359.421809	-3.020800	3.538600	-10.688000	25.359740	0.000827	20.900996
1360.419960	-3.007500	3.538200	-10.640000	25.373758	0.000829	20.918863
1361.425373	-2.988900	3.538800	-10.574000	25.402561	0.000828	20.890890
1362.403916	-3.013100	3.537600	-10.657000	25.414764	0.000826	20.887496
1363.407609	-3.004800	3.536100	-10.624000	25.398659	0.000825	20.914945
1364.407752	-2.989300	3.538500	-10.577000	25.415659	0.000825	20.906411
1365.404567	-3.005500	3.536300	-10.628000	25.426444	0.000826	20.908232
1366.409234	-3.009800	3.536200	-10.642000	25.419983	0.000825	20.910278
1367.405229	-3.009600	3.537100	-10.644000	25.435118	0.000823	20.907933
1368.405881	-3.027700	3.534700	-10.701000	25.470706	0.000822	20.907634
1369.408313	-3.001400	3.535500	-10.610000	25.478583	0.000822	20.912225
1370.405716	-3.001100	3.536000	-10.611000	25.488175	0.000821	20.892461
1371.434447	-2.994600	3.535900	-10.588000	25.467548	0.000820	20.876965
1372.431478	-3.028100	3.534200	-10.700000	25.465982	0.000822	20.903839
1373.425260	-2.989300	3.536300	-10.570000	25.473736	0.000820	20.897875
1374.428012	-3.002100	3.533400	-10.607000	25.478110	0.000818	20.916016
1375.409797	-2.993900	3.534700	-10.581000	25.461683	0.000817	20.906160
1376.408136	-2.990900	3.533400	-10.566000	25.430369	0.000818	20.917387
1377.407671	-2.979600	3.534000	-10.529000	25.401092	0.000818	20.883251
1378.422936	-2.991100	3.533500	-10.568000	25.381085	0.000817	20.900619
1379.406440	-3.013300	3.532900	-10.645000	25.345941	0.000817	20.893306
1380.409486	-2.994800	3.533000	-10.579000	25.320714	0.000816	20.897847
1381.409059	-3.008700	3.533600	-10.630000	25.317781	0.000815	20.896325
1382.410285	-2.998200	3.532500	-10.589000	25.317407	0.000816	20.881727
1383.433999	-3.005300	3.530500	-10.609000	25.342460	0.000815	20.889812
1384.430161	-3.001600	3.530800	-10.596000	25.321308	0.000814	20.891332
1385.428601	-3.001300	3.531200	-10.596000	25.344721	0.000814	20.901564
1386.431626	-2.998200	3.530600	-10.584000	25.359236	0.000812	20.882474
1387.424069	-3.012300	3.530800	-10.635000	25.350189	0.000813	20.877184
1388.427848	-3.014400	3.529400	-10.638000	25.380286	0.000812	20.883696
1389.428529	-3.004700	3.528900	-10.602000	25.402156	0.000811	20.888113
1390.428437	-3.004500	3.529400	-10.603000	25.404990	0.000813	20.883371
1391.428135	-3.003200	3.529000	-10.597000	25.424970	0.000810	20.896796
1392.436975	-2.993600	3.528900	-10.563000	25.412519	0.000810	20.893302
1393.408721	-2.990000	3.528400	-10.549000	25.409909	0.000811	20.885466
1394.410039	-3.004200	3.526600	-10.594000	25.420447	0.000813	20.897469
1395.414523	-3.002800	3.528900	-10.594000	25.433195	0.000807	20.892727
1396.412314	-3.025800	3.527400	-10.670000	25.424919	0.000807	20.863082
1397.410780	-3.003100	3.525600	-10.586000	25.418657	0.000809	20.866276
1398.413424	-3.001600	3.526800	-10.585000	25.409511	0.000810	20.885540
1399.433189	-3.006200	3.525700	-10.599000	25.395544	0.000809	20.869620
1400.432899	-3.015600	3.526600	-10.633000	25.399297	0.000807	20.868647
1401.414521	-3.012200	3.524800	-10.617000	25.392362	0.000805	20.887287
1402.430304	-2.995200	3.524800	-10.556000	25.411772	0.000807	20.873587
1403.428517	-3.033600	3.523400	-10.687000	25.438414	0.000804	20.876632
1404.416179	-3.001100	3.524500	-10.577000	25.445596	0.000806	20.853973
1405.415608	-3.001100	3.524800	-10.577000	25.460159	0.000805	20.886139
1406.412091	-3.015100	3.523900	-10.623000	25.491744	0.000803	20.854322
1407.428602	-3.000400	3.524500	-10.573000	25.492042	0.000803	20.869794
1408.415869	-2.985500	3.523700	-10.519000	25.492963	0.000801	20.891106
1409.436766	-2.984100	3.523800	-10.515000	25.478152	0.000802	20.869121
1410.419476	-3.013100	3.522300	-10.612000	25.516173	0.000802	20.860362
1411.435081	-2.997000	3.523200	-10.558000	25.541992	0.000800	20.877281
1412.414126	-3.005300	3.522700	-10.585000	25.551260	0.000800	20.857666
1413.423177	-3.014900	3.522400	-10.618000	25.536550	0.000800	20.874661
1414.446463	-2.970000	3.520800	-10.456000	25.548925	0.000800	20.880924
1415.436800	-3.005700	3.521400	-10.583000	25.535978	0.000799	20.878828
1416.432540	-3.029400	3.519200	-10.660000	25.524598	0.000799	20.857917
1417.440850	-2.984600	3.522600	-10.513000	25.523006	0.000800	20.856793
1418.447266	-2.996200	3.519600	-10.545000	25.520372	0.000798	20.864579
1419.433215	-2.990400	3.519800	-10.525000	25.510010	0.000797	20.862707
1420.445840	-3.006900	3.518600	-10.579000	25.478075	0.000796	20.867148
1421.446392	-2.986000	3.519900	-10.509000	25.503846	0.000796	20.862208
1422.443857	-3.008600	3.518300	-10.585000	25.520471	0.000796	20.867997
1423.437412	-2.981900	3.518800	-10.492000	25.489134	0.000796	20.865451
1424.441274	-3.010500	3.516700	-10.585000	25.486774	0.000797	20.867349
1425.436560	-3.012700	3.517400	-10.596000	25.511252	0.000796	20.896669
1426.443456	-3.022600	3.516600	-10.628000	25.563212	0.000794	20.864927
1427.424695	-2.989700	3.515900	-10.509000	25.532325	0.000795	20.868047
1428.421596	-3.003800	3.516000	-10.560000	25.531529	0.000793	20.871989
1429.422714	-3.005000	3.515200	-10.562000	25.508021	0.000791	20.866874
1430.423585	-3.022000	3.515600	-10.623000	25.502826	0.000790	20.866399
1431.420533	-2.978100	3.516400	-10.471000	25.482549	0.000793	20.866899
1432.420856	-2.995500	3.515000	-10.529000	25.463016	0.000792	20.850129
1433.423429	-3.011400	3.515500	-10.586000	25.482077	0.000791	20.881122
1434.423307	-2.995700	3.517100	-10.535000	25.462544	0.000789	20.838277
1435.422441	-2.992500	3.515200	-10.518000	25.455312	0.000790	20.863730
1436.424589	-2.993100	3.514500	-10.517000	25.445496	0.000791	20.851977
1437.423432	-2.998700	3.513200	-10.534000	25.416395	0.000787	20.874436
1438.443955	-2.996000	3.514100	-10.527000	25.457276	0.000786	20.864279
1439.424160	-2.998100	3.512200	-10.529000	25.461525	0.000786	20.835357
1440.422515	-3.000600	3.513000	-10.540000	25.485731	0.000785	20.841646
1441.421790	-2.990800	3.513300	-10.506000	25.462420	0.000787	20.859488
1442.443255	-3.015100	3.511400	-10.587000	25.468410	0.000786	20.856968
1443.441129	-3.013200	3.510700	-10.578000	25.449497	0.000786	20.846037
1444.438810	-3.029100	3.510200	-10.632000	25.451485	0.000784	20.858939
1445.443027	-2.987700	3.511400	-10.490000	25.444452	0.000784	20.861833
1446.442141	-2.995600	3.509800	-10.512000	25.426385	0.000784	20.848908
1447.440475	-2.969500	3.510500	-10.424000	25.392162	0.000784	20.861483
1448.449769	-3.012300	3.509800	-10.572000	25.403146	0.000782	20.857340
1449.454366	-2.990200	3.511700	-10.499000	25.366240	0.000782	20.842568
1450.453232	-3.009600	3.509100	-10.559000	25.385476	0.000781	20.835805
1451.440561	-2.992300	3.508500	-10.497000	25.418928	0.000781	20.849006
1452.449389	-2.998800	3.508700	-10.521000	25.388260	0.000783	20.846660
1453.448777	-2.991300	3.509600	-10.497000	25.420320	0.000781	20.829067
1454.444505	-2.998700	3.508700	-10.521000	25.372353	0.000779	20.848232
1455.429898	-3.017000	3.508500	-10.584000	25.385451	0.000780	20.840521
1456.449766	-3.003200	3.507900	-10.534000	25.415722	0.000779	20.840097
1457.445887	-2.996500	3.506800	-10.507000	25.441841	0.000779	20.863479
1458.442842	-3.001800	3.507700	-10.528000	25.452428	0.000778	20.852773
1459.450672	-2.982600	3.507400	-10.461000	25.442486	0.000778	20.838998
1460.448320	-2.994300	3.507100	-10.501000	25.439653	0.000779	20.835679
1461.444668	-3.003500	3.505800	-10.529000	25.421611	0.000777	20.845062
1462.456359	-3.003400	3.504900	-10.525000	25.413882	0.000778	20.827344
1463.446305	-3.004700	3.504300	-10.528000	25.412092	0.000776	20.846883
1464.444443	-2.989100	3.506200	-10.479000	25.423748	0.000778	20.828242
1465.464783	-2.995300	3.504000	-10.494000	25.417733	0.000776	20.848755
1466.441416	-3.007000	3.503000	-10.532000	25.425785	0.000775	20.833133
1467.443828	-3.005000	3.502600	-10.524000	25.443356	0.000776	20.853621
1468.429441	-2.987200	3.502200	-10.461000	25.482994	0.000774	20.828941
1469.451158	-3.003000	3.503200	-10.519000	25.488237	0.000776	20.856490
1470.427614	-2.994800	3.503300	-10.491000	25.481528	0.000775	20.844537
1471.448954	-2.995000	3.502300	-10.488000	25.468331	0.000773	20.844562
1472.458609	-3.024300	3.500800	-10.586000	25.440573	0.000772	20.821904
1473.452899	-3.019800	3.499100	-10.564000	25.429563	0.000772	20.824124
1474.452057	-2.980400	3.502500	-10.438000	25.434981	0.000770	20.848530
1475.462220	-3.015700	3.500400	-10.554000	25.397852	0.000772	20.825473
1476.431610	-2.990900	3.499200	-10.465000	25.379884	0.000771	20.844414
1477.448334	-2.993600	3.499600	-10.474000	25.386221	0.000770	20.839398
1478.435213	-3.003700	3.500800	-10.514000	25.430757	0.000771	20.831487
1479.433853	-2.991800	3.499800	-10.469000	25.433565	0.000769	20.804910
1480.432765	-3.022800	3.497200	-10.570000	25.469576	0.000768	20.827320
1481.434831	-3.012100	3.498400	-10.537000	25.477529	0.000768	20.824875
1482.431287	-2.976300	3.498400	-10.412000	25.470272	0.000767	20.835131
1483.432861	-3.013100	3.498000	-10.538000	25.442960	0.000767	20.830465
1484.433802	-2.987800	3.497200	-10.447000	25.464656	0.000768	20.830914
1485.436254	-2.987400	3.496900	-10.445000	25.499894	0.000767	20.817937
1486.452465	-3.007400	3.498500	-10.519000	25.494278	0.000765	20.835056
1487.458595	-3.020700	3.495700	-10.558000	25.512095	0.000766	20.829716
1488.458749	-2.979800	3.496800	-10.419000	25.527254	0.000766	20.827395
1489.468233	-3.011100	3.495400	-10.524000	25.499595	0.000765	20.825698
1490.439013	-3.015600	3.496600	-10.544000	25.504764	0.000767	20.817612
1491.440342	-3.001000	3.496300	-10.492000	25.515995	0.000765	20.824624
1492.438979	-2.979900	3.496900	-10.420000	25.492014	0.000763	20.828990
1493.454914	-3.018900	3.493600	-10.546000	25.491418	0.000764	20.822702
1494.462339	-3.033100	3.492800	-10.593000	25.485951	0.000764	20.833806
1495.461809	-3.006900	3.494700	-10.506000	25.499916	0.000763	20.834555
1496.467419	-2.993800	3.494400	-10.461000	25.523822	0.000763	20.837699
1497.440969	-2.980100	3.493500	-10.409000	25.541217	0.000763	20.828141
1498.442005	-3.008500	3.491800	-10.504000	25.524766	0.000762	20.811621
1499.439788	-2.984100	3.493400	-10.424000	25.520666	0.000760	20.822202
1500.440989	-2.978100	3.491800	-10.398000	25.534805	0.000761	20.824547
1501.439942	-3.015300	3.491800	-10.528000	25.527251	0.000761	20.812693
1502.442449	-3.007500	3.490400	-10.496000	25.523771	0.000760	20.835751
1503.443696	-3.009200	3.491300	-10.505000	25.546235	0.000759	20.809948
1504.444916	-3.000500	3.490300	-10.472000	25.515521	0.000760	20.812293
1505.443745	-2.970900	3.491700	-10.372000	25.521932	0.000759	20.815412
1506.443949	-2.999900	3.491000	-10.471000	25.534033	0.000759	20.825194
1507.463552	-3.018300	3.490000	-10.532000	25.536145	0.000756	20.804556
1508.443058	-2.989300	3.489600	-10.431000	25.564250	0.000756	20.833255
1509.444853	-2.995100	3.487800	-10.445000	25.550981	0.000758	20.816136
1510.445086	-2.991900	3.488500	-10.436000	25.572674	0.000757	20.806154
1511.444819	-2.985500	3.488400	-10.413000	25.568972	0.000754	20.806703
1512.443811	-2.990300	3.489400	-10.434000	25.544818	0.000756	20.813266
1513.461659	-2.999800	3.486800	-10.459000	25.566784	0.000753	20.812567
1514.462544	-2.983400	3.489200	-10.407000	25.591137	0.000751	20.799566
1515.473494	-2.996600	3.488400	-10.453000	25.570586	0.000752	20.806428
1516.464163	-3.005500	3.486400	-10.476000	25.538480	0.000752	20.811643
1517.463693	-3.018200	3.484400	-10.515000	25.558061	0.000751	20.804281
1518.471015	-2.995600	3.485000	-10.439000	25.508112	0.000752	20.805801
1519.472650	-3.000700	3.484100	-10.454000	25.526079	0.000752	20.784964
1520.472188	-2.994900	3.484900	-10.436000	25.502868	0.000752	20.810493
1521.474516	-2.986600	3.484800	-10.406000	25.505875	0.000749	20.800710
1522.468510	-2.971800	3.485400	-10.356000	25.487534	0.000751	20.819276
1523.466153	-3.001200	3.483700	-10.454000	25.481794	0.000749	20.788855
1524.471813	-3.023900	3.483300	-10.531000	25.456867	0.000747	20.793221
1525.470999	-2.997900	3.484200	-10.444000	25.470088	0.000749	20.769039
1526.449365	-2.996600	3.482700	-10.435000	25.489892	0.000748	20.797462
1527.468609	-3.003300	3.481200	-10.453000	25.539244	0.000747	20.814781
1528.472542	-3.010900	3.480400	-10.478000	25.558899	0.000747	20.791372
1529.471304	-3.007100	3.482300	-10.471000	25.552836	0.000748	20.788602
1530.452699	-2.998500	3.482500	-10.441000	25.562799	0.000745	20.797185
1531.450791	-2.989800	3.482100	-10.411000	25.568862	0.000745	20.787153
1532.449925	-2.985200	3.480600	-10.389000	25.547641	0.000745	20.798083
1533.452511	-3.017400	3.480800	-10.502000	25.561555	0.000744	20.794513
1534.484178	-3.008700	3.479800	-10.467000	25.578552	0.000743	20.792616
1535.477804	-3.000200	3.478900	-10.437000	25.563120	0.000742	20.769532
1536.453438	-2.998200	3.479300	-10.430000	25.556335	0.000741	20.792116
1537.453104	-2.964200	3.479400	-10.313000	25.585806	0.000743	20.792789
1538.454733	-2.999500	3.478200	-10.432000	25.617313	0.000743	20.785552
1539.454306	-3.003500	3.480100	-10.451000	25.627053	0.000744	20.781109
1540.455203	-2.979800	3.478800	-10.364000	25.626133	0.000742	20.771176
1541.454889	-3.020100	3.475800	-10.496000	25.581057	0.000742	20.788020
1542.457117	-2.998800	3.477900	-10.429000	25.546864	0.000741	20.764586
1543.485463	-2.998900	3.476700	-10.426000	25.515976	0.000739	20.790465
1544.475842	-2.988300	3.477100	-10.389000	25.491820	0.000740	20.778535
1545.476988	-2.975300	3.477500	-10.345000	25.508817	0.000738	20.781854
1546.475430	-3.004500	3.476600	-10.444000	25.515253	0.000741	20.784998
1547.479165	-3.002400	3.477500	-10.440000	25.498181	0.000739	20.770698
1548.476004	-2.977400	3.475400	-10.346000	25.538985	0.000738	20.743870
1549.483708	-3.001100	3.474500	-10.426000	25.552651	0.000738	20.781304
1550.477542	-2.999700	3.475100	-10.423000	25.568505	0.000738	20.771620
1551.475524	-3.003900	3.474700	-10.436000	25.541046	0.000737	20.778184
1552.476480	-3.010400	3.473200	-10.454000	25.523029	0.000737	20.780953
1553.457806	-3.006000	3.473300	-10.439000	25.469004	0.000738	20.778382
1554.457597	-2.986000	3.473900	-10.371000	25.470644	0.000735	20.770546
1555.473070	-2.991400	3.473000	-10.388000	25.455608	0.000735	20.765879
1556.477324	-2.981800	3.472600	-10.354000	25.473576	0.000736	20.779181
1557.478353	-2.987000	3.472500	-10.371000	25.462368	0.000735	20.757493
1558.475960	-2.995000	3.472300	-10.399000	25.509361	0.000737	20.790461
1559.458500	-3.010400	3.471600	-10.450000	25.469699	0.000736	20.763907
1560.458483	-2.997800	3.471000	-10.404000	25.464380	0.000735	20.770894
1561.457474	-2.996600	3.471500	-10.401000	25.460131	0.000734	20.766153
1562.464366	-2.988900	3.471100	-10.374000	25.443281	0.000733	20.773415
1563.474541	-2.986300	3.469800	-10.362000	25.468506	0.000733	20.752752
1564.479494	-3.010300	3.468800	-10.441000	25.471935	0.000733	20.788912
1565.483202	-3.002000	3.470000	-10.415000	25.435751	0.000731	20.771069
1566.485616	-2.994300	3.468400	-10.384000	25.397156	0.000730	20.766927
1567.486201	-3.000500	3.468700	-10.407000	25.356273	0.000731	20.782301
1568.486348	-2.985100	3.469800	-10.356000	25.351600	0.000733	20.768125
1569.481257	-2.988300	3.468100	-10.363000	25.379833	0.000728	20.759964
1570.461692	-2.996200	3.467300	-10.387000	25.379884	0.000730	20.759066
1571.462878	-3.018000	3.465800	-10.459000	25.377896	0.000728	20.774140
1572.462881	-3.002000	3.466400	-10.405000	25.361293	0.000728	20.780229
1573.484490	-2.997000	3.466300	-10.388000	25.358659	0.000726	20.753876
1574.478173	-2.998900	3.466100	-10.393000	25.373745	0.000727	20.752428
1575.502701	-2.979200	3.466500	-10.326000	25.399269	0.000727	20.765256
1576.483366	-2.969900	3.465900	-10.293000	25.409285	0.000726	20.769624
1577.476949	-2.981100	3.464900	-10.328000	25.391938	0.000726	20.752204
1578.485110	-2.989300	3.465100	-10.357000	25.398301	0.000727	20.782302
1579.483706	-2.974000	3.464000	-10.301000	25.380506	0.000726	20.774865
1580.481343	-3.012300	3.463400	-10.432000	25.394946	0.000725	20.744793
1581.488740	-2.993000	3.463600	-10.366000	25.425117	0.000722	20.761813
1582.480308	-2.994400	3.465100	-10.375000	25.462743	0.000723	20.779682
1583.462222	-2.971500	3.463600	-10.291000	25.449447	0.000725	20.772494
1584.462897	-3.022400	3.462400	-10.463000	25.432027	0.000723	20.764010
1585.465863	-2.987300	3.461600	-10.340000	25.425341	0.000721	20.772944
1586.467939	-2.991500	3.462100	-10.356000	25.462669	0.000723	20.747838
1587.465184	-2.977900	3.462000	-10.308000	25.469330	0.000724	20.765433
1588.467377	-2.994500	3.460700	-10.362000	25.449946	0.000721	20.787220
1589.473125	-2.980400	3.461500	-10.316000	25.427231	0.000722	20.778635
1590.463532	-3.016800	3.460400	-10.438000	25.423330	0.000721	20.779459
1591.466331	-3.002800	3.459400	-10.387000	25.403298	0.000720	20.771672
1592.470549	-2.988700	3.462100	-10.345000	25.438639	0.000720	20.782030
1593.473775	-3.005900	3.458600	-10.395000	25.444256	0.000718	20.765859
1594.467600	-2.987600	3.460000	-10.336000	25.487869	0.000719	20.797802
1595.467749	-2.990000	3.459700	-10.344000	25.534315	0.000718	20.765260
1596.468670	-2.963600	3.459200	-10.251000	25.542963	0.000718	20.791014
1597.490469	-3.003000	3.457000	-10.380000	25.516771	0.000718	20.773720
1598.468876	-2.997400	3.457300	-10.362000	25.550393	0.000718	20.773820
1599.468889	-3.004800	3.456800	-10.386000	25.538739	0.000716	20.805739
1600.467028	-3.029200	3.455900	-10.467000	25.579641	0.000716	20.781856
1601.470288	-3.002300	3.456300	-10.375000	25.553773	0.000716	20.790017
1602.469410	-3.035900	3.454700	-10.487000	25.588363	0.000716	20.768805
1603.492540	-3.001000	3.454300	-10.366000	25.576211	0.000713	20.789792
1604.493879	-2.981600	3.455800	-10.302000	25.583791	0.000714	20.795507
1605.471416	-2.994600	3.454200	-10.341000	25.580237	0.000713	20.785774
1606.470881	-2.982300	3.455200	-10.304000	25.567515	0.000712	20.784377
1607.479828	-3.003600	3.455000	-10.377000	25.585457	0.000713	20.788171
1608.471269	-2.980700	3.453400	-10.293000	25.599023	0.000711	20.778562
1609.472496	-2.986100	3.453900	-10.313000	25.574225	0.000712	20.793486
1610.473197	-2.985200	3.453300	-10.308000	25.572857	0.000711	20.767457
1611.471000	-2.976600	3.454600	-10.282000	25.581207	0.000709	20.772997
1612.474749	-3.022600	3.453500	-10.437000	25.617933	0.000709	20.780484
1613.483041	-2.991100	3.453400	-10.329000	25.611248	0.000708	20.797953
1614.472470	-3.002800	3.452300	-10.366000	25.574373	0.000710	20.803118
1615.476121	-3.001900	3.450500	-10.356000	25.590226	0.000711	20.801496
1616.476151	-2.991000	3.450700	-10.320000	25.579045	0.000709	20.785525
1617.474380	-2.987200	3.451700	-10.310000	25.574025	0.000707	20.787596
1618.476630	-3.018800	3.449600	-10.412000	25.574373	0.000707	20.775143
1619.476883	-2.999000	3.450300	-10.346000	25.579541	0.000708	20.790291
1620.482748	-3.017900	3.449300	-10.408000	25.566148	0.000705	20.784901
1621.476235	-3.000000	3.448400	-10.343000	25.562047	0.000707	20.804490
1622.477931	-3.017500	3.448000	-10.403000	25.584660	0.000706	20.791638
1623.476877	-3.016800	3.448100	-10.401000	25.622727	0.000707	20.777713
1624.477973	-3.002000	3.449000	-10.352000	25.619520	0.000705	20.789665
1625.478360	-3.002400	3.447800	-10.351000	25.617358	0.000704	20.795555
1626.477780	-3.018500	3.446600	-10.402000	25.603941	0.000705	20.798200
1627.479833	-2.980800	3.447100	-10.275000	25.578297	0.000703	20.808956
1628.479436	-2.989200	3.446000	-10.300000	25.517192	0.000702	20.785522
1629.479930	-2.985800	3.446600	-10.289000	25.516744	0.000702	20.805935
1630.479726	-2.987400	3.446100	-10.294000	25.495671	0.000700	20.806110
1631.479112	-3.000100	3.444600	-10.332000	25.514756	0.000701	20.811051
1632.479294	-3.004500	3.444300	-10.348000	25.523453	0.000700	20.794655
1633.480551	-3.006000	3.443400	-10.349000	25.547681	0.000701	20.810925
1634.484849	-2.985200	3.445600	-10.285000	25.546463	0.000699	20.794055
1635.482437	-3.006000	3.444100	-10.353000	25.522086	0.000700	20.800394
1636.480190	-3.018600	3.444700	-10.396000	25.510529	0.000699	20.808703
1637.482805	-2.994600	3.442900	-10.310000	25.497905	0.000699	20.805035
1638.481357	-2.992600	3.444100	-10.306000	25.511895	0.000698	20.804385
1639.478125	-3.003700	3.442300	-10.338000	25.485628	0.000697	20.789861
1640.484023	-2.979400	3.444200	-10.261000	25.500787	0.000697	20.803661
1641.477817	-3.000200	3.442200	-10.326000	25.509633	0.000696	20.807803
1642.481245	-3.033200	3.440300	-10.435000	25.546262	0.000694	20.797172
1643.481484	-2.983300	3.441700	-10.266000	25.532494	0.000693	20.789036
1644.479586	-3.002700	3.441400	-10.332000	25.560375	0.000695	20.824148
1645.481153	-2.985300	3.441700	-10.274000	25.568401	0.000694	20.790008
1646.484934	-3.006100	3.440600	-10.342000	25.579806	0.000696	20.801462
1647.483030	-2.988400	3.439200	-10.276000	25.554882	0.000693	20.803459
1648.480927	-2.990000	3.439700	-10.282000	25.527100	0.000695	20.797369
1649.485673	-2.997700	3.439300	-10.309000	25.570785	0.000693	20.813739
1650.484043	-2.996700	3.438500	-10.303000	25.559404	0.000693	20.814163
1651.485351	-3.010200	3.438200	-10.349000	25.618021	0.000692	20.793849
1652.483003	-2.993600	3.438300	-10.292000	25.616132	0.000693	20.791478
1653.486732	-2.987100	3.437500	-10.267000	25.646818	0.000693	20.814237
1654.487440	-2.983000	3.438700	-10.256000	25.673230	0.000692	20.811841
1655.489007	-2.982400	3.437800	-10.252000	25.681702	0.000690	20.808970
1656.491007	-2.990900	3.436200	-10.277000	25.692286	0.000690	20.814859
1657.485430	-3.030700	3.435000	-10.409000	25.696783	0.000689	20.818901
1658.488702	-3.000700	3.436600	-10.311000	25.712883	0.000690	20.815632
1659.495000	-3.005000	3.434700	-10.321000	25.731118	0.000689	20.798387
1660.486850	-2.978000	3.435600	-10.231000	25.748833	0.000688	20.809069
1661.487391	-2.993200	3.434100	-10.278000	25.746522	0.000688	20.814333
1662.492481	-2.994000	3.435300	-10.285000	25.741652	0.000687	20.838365
1663.489563	-3.030200	3.433300	-10.403000	25.730944	0.000688	20.833773
1664.490415	-3.007200	3.434400	-10.327000	25.716880	0.000687	20.806371
1665.493261	-3.004500	3.433900	-10.316000	25.714421	0.000685	20.814332
1666.488693	-3.005500	3.434100	-10.320000	25.709302	0.000687	20.800182
1667.488209	-2.994100	3.432400	-10.276000	25.712755	0.000684	20.827832
1668.491430	-2.984500	3.432600	-10.244000	25.695686	0.000684	20.809265
1669.491627	-2.991100	3.433800	-10.270000	25.710096	0.000685	20.813782
1670.488958	-2.995200	3.432400	-10.279000	25.721301	0.000684	20.814130
1671.494089	-3.012400	3.431900	-10.336000	25.708754	0.000682	20.815278
1672.491829	-3.002200	3.430900	-10.298000	25.695237	0.000683	20.816875
1673.493521	-2.999200	3.431000	-10.289000	25.678490	0.000684	20.796736
1674.499697	-2.997800	3.430000	-10.280000	25.660650	0.000682	20.821491
1675.491344	-2.990600	3.429900	-10.257000	25.617888	0.000682	20.831173
1676.492657	-3.006900	3.429300	-10.310000	25.589908	0.000679	20.830574
1677.494345	-2.977900	3.430300	-10.215000	25.577832	0.000679	20.830299
1678.495739	-2.997500	3.429400	-10.277000	25.589236	0.000680	20.815201
1679.491194	-2.998300	3.428100	-10.276000	25.588366	0.000681	20.829973
1680.496759	-2.984600	3.430200	-10.237000	25.579644	0.000679	20.815050
1681.511579	-3.013000	3.427300	-10.325000	25.568512	0.000680	20.807663
1682.496336	-3.006700	3.428100	-10.306000	25.611773	0.000679	20.840678
1683.497904	-2.984500	3.426500	-10.225000	25.604343	0.000679	20.818044
1684.496108	-3.014700	3.425200	-10.324000	25.630010	0.000678	20.815373
1685.496502	-2.993400	3.427800	-10.259000	25.647203	0.000678	20.822210
1686.499429	-2.989800	3.426200	-10.243000	25.644942	0.000676	20.831319
1687.500337	-2.984800	3.428100	-10.229000	25.658881	0.000678	20.805964
1688.498875	-2.976600	3.428000	-10.203000	25.652321	0.000677	20.832092
1689.501747	-2.989600	3.425600	-10.240000	25.614354	0.000677	20.820986
1690.501766	-2.993900	3.425500	-10.255000	25.626703	0.000676	20.834336
1691.499391	-3.008500	3.425000	-10.302000	25.589157	0.000674	20.809431
1692.502947	-2.980600	3.424100	-10.205000	25.566520	0.000675	20.819887
1693.499800	-3.012500	3.424700	-10.315000	25.524748	0.000674	20.836258
1694.499425	-3.007700	3.423900	-10.297000	25.543857	0.000674	20.820835
1695.503688	-2.992400	3.423700	-10.244000	25.552206	0.000673	20.833961
1696.502801	-2.980400	3.425300	-10.207000	25.606898	0.000673	20.833412
1697.501082	-3.011900	3.422100	-10.306000	25.625161	0.000673	20.819038
1698.503746	-3.030700	3.420700	-10.366000	25.604015	0.000673	20.821508
1699.501387	-3.023700	3.420600	-10.342000	25.609531	0.000674	20.823255
1700.499374	-2.997000	3.423000	-10.257000	25.618451	0.000672	20.836481
1701.500216	-3.007600	3.420400	-10.286000	25.623818	0.000672	20.830965
1702.499546	-3.026400	3.419700	-10.348000	25.648069	0.000669	20.841097
1703.499688	-3.000000	3.420600	-10.261000	25.623719	0.000669	20.832288
1704.502368	-3.005800	3.418900	-10.275000	25.640540	0.000670	20.841122
1705.503857	-2.992700	3.418600	-10.230000	25.684221	0.000668	20.832837
1706.505486	-2.998900	3.418600	-10.249000	25.687426	0.000669	20.834159
1707.505432	-3.009800	3.418000	-10.287000	25.683798	0.000668	20.825774
1708.503417	-3.022900	3.419800	-10.337000	25.683475	0.000667	20.849157
1709.501822	-3.009100	3.418500	-10.285000	25.667275	0.000671	20.843791
1710.503348	-2.988700	3.417500	-10.213000	25.628390	0.000669	20.850729
1711.503614	-3.013000	3.417100	-10.295000	25.626054	0.000667	20.848383
1712.505240	-2.967300	3.417400	-10.140000	25.586446	0.000667	20.832312
1713.503150	-2.967900	3.416300	-10.139000	25.590844	0.000665	20.842419
1714.504128	-2.988700	3.416900	-10.211000	25.610449	0.000666	20.850728
1715.502405	-3.027300	3.416400	-10.341000	25.613108	0.000666	20.842494
1716.507514	-3.009000	3.415500	-10.276000	25.635198	0.000664	20.844291
1717.503361	-2.992000	3.416900	-10.222000	25.666679	0.000664	20.827546
1718.503518	-3.020700	3.414700	-10.313000	25.653958	0.000664	20.850804
1719.506390	-3.022200	3.414200	-10.318000	25.668220	0.000663	20.847111
1720.506823	-2.989100	3.416400	-10.210000	25.651274	0.000662	20.850005
1721.504652	-3.016500	3.414400	-10.298000	25.663921	0.000663	20.843742
1722.506983	-3.018000	3.413500	-10.301000	25.639248	0.000662	20.834134
1723.507452	-2.985300	3.414300	-10.192000	25.645510	0.000662	20.858914
1724.506022	-2.980700	3.414300	-10.176000	25.665264	0.000663	20.835607
1725.507378	-3.003100	3.412300	-10.246000	25.670307	0.000661	20.838776
1726.509574	-2.997200	3.412800	-10.228000	25.702757	0.000661	20.837703
1727.513965	-3.013400	3.410600	-10.276000	25.710012	0.000660	20.838352
1728.505929	-2.995300	3.412200	-10.220000	25.727627	0.000661	20.848933
1729.506469	-3.013600	3.412500	-10.283000	25.685588	0.000661	20.855071
1730.510702	-3.014600	3.411000	-10.282000	25.682458	0.000659	20.856195
1731.507995	-3.005200	3.410900	-10.250000	25.672146	0.000658	20.850106
1732.509031	-2.968300	3.411000	-10.124000	25.661288	0.000659	20.854847
1733.509999	-2.998400	3.410300	-10.224000	25.629583	0.000658	20.864729
1734.510021	-3.008200	3.410400	-10.258000	25.634478	0.000656	20.863482
1735.508519	-2.983900	3.411400	-10.178000	25.637187	0.000659	20.849607
1736.509199	-2.995300	3.409200	-10.210000	25.613979	0.000658	20.861859
1737.509799	-2.989900	3.409600	-10.193000	25.619719	0.000657	20.867624
1738.509219	-3.014000	3.407600	-10.269000	25.676992	0.000659	20.854024
1739.510804	-3.022200	3.408900	-10.301000	25.703701	0.000658	20.878479
1740.509717	-3.015000	3.407700	-10.274000	25.717242	0.000656	20.888286
1741.510316	-3.000000	3.407200	-10.220000	25.722012	0.000656	20.857043
1742.510547	-2.993200	3.407700	-10.200000	25.757665	0.000655	20.859664
1743.512656	-3.011000	3.408200	-10.261000	25.719006	0.000655	20.876308
1744.509509	-3.002100	3.406600	-10.226000	25.669140	0.000655	20.877431
1745.509973	-2.994100	3.406600	-10.198000	25.651002	0.000653	20.862060
1746.509782	-3.001400	3.406400	-10.224000	25.617582	0.000652	20.863581
1747.512213	-3.034400	3.406100	-10.334000	25.604189	0.000654	20.873838
1748.511317	-3.012300	3.405600	-10.258000	25.589579	0.000652	20.879078
1749.514025	-2.985200	3.405200	-10.165000	25.591889	0.000654	20.900837
1750.513836	-3.008500	3.405100	-10.244000	25.580037	0.000651	20.882297
1751.511888	-2.975900	3.406800	-10.137000	25.620017	0.000651	20.880725
1752.511572	-2.984400	3.404900	-10.161000	25.639747	0.000650	20.880152
1753.512185	-2.995100	3.403800	-10.194000	25.665712	0.000650	20.881100
1754.510664	-3.007500	3.403500	-10.234000	25.671278	0.000648	20.863458
1755.512547	-3.010000	3.403000	-10.242000	25.678185	0.000648	20.885093
1756.514145	-3.004500	3.402600	-10.222000	25.688645	0.000648	20.894175
1757.519022	-3.013900	3.401700	-10.252000	25.714634	0.000648	20.878554
1758.510787	-2.991700	3.402100	-10.176000	25.748796	0.000648	20.880626
1759.513397	-2.995600	3.401700	-10.189000	25.745567	0.000647	20.883546
1760.511389	-2.973500	3.402400	-10.116000	25.723530	0.000646	20.894126
1761.510537	-2.976000	3.402000	-10.124000	25.771654	0.000645	20.902161
1762.513062	-3.020500	3.399100	-10.266000	25.762560	0.000645	20.887812
1763.515332	-2.996600	3.401200	-10.191000	25.763405	0.000646	20.892928
1764.512692	-3.020600	3.400400	-10.271000	25.781790	0.000645	20.885792
1765.514572	-3.015000	3.399700	-10.249000	25.770710	0.000644	20.882248
1766.516303	-3.019100	3.398900	-10.259000	25.794759	0.000644	20.881749
1767.511117	-2.996900	3.398800	-10.185000	25.800845	0.000642	20.900189
1768.515667	-2.996100	3.399900	-10.186000	25.788945	0.000642	20.910046
1769.513282	-2.988400	3.399900	-10.160000	25.778188	0.000640	20.882647
1770.513370	-2.984800	3.398900	-10.144000	25.798435	0.000641	20.897295
1771.519737	-3.007500	3.397300	-10.216000	25.815080	0.000641	20.907376
1772.513320	-3.002000	3.398100	-10.200000	25.839426	0.000640	20.889634
1773.514287	-3.016300	3.396700	-10.245000	25.852394	0.000638	20.898867
1774.516714	-3.011900	3.397300	-10.231000	25.851499	0.000640	20.890382
1775.514892	-3.020500	3.396900	-10.259000	25.850207	0.000638	20.907100
1776.523029	-3.008200	3.397000	-10.218000	25.833314	0.000639	20.883020
1777.515778	-2.993200	3.397600	-10.169000	25.844816	0.000638	20.895048
1778.514153	-2.986100	3.397000	-10.143000	25.844270	0.000637	20.893551
1779.520286	-3.001000	3.395300	-10.189000	25.832395	0.000636	20.898217
1780.518559	-2.994000	3.394700	-10.163000	25.846505	0.000635	20.909071
1781.517128	-2.997900	3.394900	-10.176000	25.827302	0.000636	20.906376
1782.516167	-3.018600	3.393900	-10.243000	25.821637	0.000637	20.894049
1783.519377	-3.006100	3.392800	-10.198000	25.795179	0.000636	20.918678
1784.518421	-2.984800	3.395100	-10.132000	25.815948	0.000634	20.901136
1785.517558	-3.007900	3.393100	-10.205000	25.820122	0.000634	20.904380
1786.517501	-3.028800	3.392100	-10.273000	25.803899	0.000634	20.911791
1787.517400	-3.015900	3.392300	-10.230000	25.796769	0.000634	20.920275
1788.516554	-2.996900	3.390800	-10.161000	25.806284	0.000633	20.907074
1789.525357	-3.001400	3.393100	-10.183000	25.832544	0.000633	20.921597
1790.522139	-3.004400	3.391800	-10.189000	25.832568	0.000632	20.911192
1791.517649	-2.991700	3.391500	-10.144000	25.790906	0.000633	20.922919
1792.519998	-3.010300	3.390400	-10.205000	25.769838	0.000633	20.915983
1793.521210	-3.034300	3.389800	-10.284000	25.778136	0.000630	20.917679
1794.521494	-3.014100	3.390100	-10.217000	25.778608	0.000630	20.930006
1795.519038	-3.009000	3.390300	-10.201000	25.765837	0.000630	20.923817
1796.522635	-3.012200	3.390200	-10.211000	25.795625	0.000631	20.916756
1797.524460	-2.998100	3.389200	-10.159000	25.812246	0.000629	20.931553
1798.522706	-2.987500	3.389800	-10.126000	25.794930	0.000628	20.929332
1799.521538	-2.983900	3.389300	-10.113000	25.839996	0.000627	20.926239
1800.524310	-2.992000	3.389100	-10.140000	25.859398	0.000629	20.923918
1801.522625	-3.004100	3.388000	-10.177000	25.857932	0.000628	20.906800
1802.528697	-3.024300	3.387600	-10.244000	25.874775	0.000628	20.922295
1803.523814	-3.028800	3.388600	-10.262000	25.901157	0.000627	20.934098
1804.522768	-2.998900	3.387900	-10.159000	25.892264	0.000626	20.923269
1805.520416	-3.017500	3.385900	-10.215000	25.871347	0.000626	20.928334
1806.524912	-2.997700	3.387700	-10.155000	25.853982	0.000625	20.932701
1807.524195	-2.986500	3.386600	-10.112000	25.795526	0.000625	20.906700
1808.526953	-2.977000	3.387100	-10.082000	25.784049	0.000625	20.917929
1809.524828	-3.012300	3.384800	-10.194000	25.762708	0.000624	20.911666
1810.526560	-2.973800	3.386100	-10.068000	25.769515	0.000624	20.923244
1811.523746	-2.992700	3.385300	-10.130000	25.793514	0.000622	20.921273
1812.522314	-3.008500	3.383700	-10.179000	25.809986	0.000623	20.920275
1813.522465	-2.989300	3.386400	-10.122000	25.831599	0.000624	20.908322
1814.522137	-3.021200	3.384600	-10.225000	25.845139	0.000622	20.933300
1815.522497	-3.005300	3.384100	-10.169000	25.877806	0.000623	20.922022
1816.523306	-3.011900	3.382900	-10.188000	25.864168	0.000622	20.899788
1817.524112	-2.998100	3.384000	-10.145000	25.859796	0.000623	20.914361
1818.533037	-3.006100	3.383300	-10.170000	25.877856	0.000620	20.915434
1819.526946	-3.008700	3.381500	-10.173000	25.885582	0.000622	20.923669
1820.528086	-2.996700	3.382900	-10.136000	25.913131	0.000620	20.895397
1821.522160	-2.993300	3.381600	-10.121000	25.912634	0.000621	20.904854
1822.522480	-3.006600	3.381000	-10.164000	25.916186	0.000619	20.900362
1823.525080	-3.038800	3.379400	-10.268000	25.910896	0.000619	20.910693
1824.526653	-3.016100	3.380400	-10.194000	25.915267	0.000619	20.925515
1825.525958	-2.963800	3.382100	-10.023000	25.929253	0.000617	20.900688
1826.529706	-3.013200	3.379600	-10.183000	25.941798	0.000618	20.901436
1827.526084	-2.995300	3.381200	-10.127000	25.917404	0.000616	20.904904
1828.531075	-3.016500	3.379000	-10.192000	25.934246	0.000619	20.906177
1829.525196	-3.011300	3.379700	-10.176000	25.909629	0.000619	20.915110
1830.525665	-2.994200	3.379300	-10.117000	25.919094	0.000615	20.902335
1831.526543	-2.989100	3.378600	-10.098000	25.941202	0.000616	20.888036
1832.525481	-3.009000	3.378800	-10.166000	25.931961	0.000615	20.907200
1833.526730	-2.991000	3.378700	-10.105000	25.977791	0.000615	20.890657
1834.524813	-3.011100	3.378900	-10.174000	25.973295	0.000614	20.899889
1835.529099	-2.998600	3.379000	-10.132000	25.956503	0.000612	20.890133
1836.528728	-2.975500	3.376900	-10.047000	25.968700	0.000613	20.890532
1837.530262	-2.981400	3.377500	-10.068000	25.945127	0.000612	20.907151
1838.527408	-3.015300	3.376800	-10.181000	25.915342	0.000611	20.899989
1839.538630	-3.013200	3.375700	-10.171000	25.932011	0.000613	20.894924
1840.530262	-2.995900	3.377100	-10.116000	25.953821	0.000612	20.902135
1841.533357	-2.998200	3.376900	-10.123000	25.930943	0.000610	20.893377
1842.531777	-2.997100	3.377400	-10.121000	25.981865	0.000611	20.902809
1843.529753	-2.987400	3.375600	-10.084000	25.984498	0.000609	20.888860
1844.532413	-3.016600	3.374800	-10.179000	25.922845	0.000609	20.905154
1845.534048	-3.014800	3.373800	-10.170000	25.929800	0.000608	20.875635
1846.534019	-2.996200	3.374000	-10.108000	25.926397	0.000607	20.909197
1847.535156	-3.020300	3.373100	-10.186000	25.956404	0.000608	20.885291
1848.534298	-2.983800	3.373700	-10.065000	25.952255	0.000609	20.874486
1849.533606	-2.999200	3.373400	-10.117000	25.938171	0.000607	20.875509
1850.537820	-3.008600	3.372700	-10.145000	25.925154	0.000605	20.870019
1851.533884	-3.002500	3.373000	-10.127000	25.903741	0.000606	20.875060
1852.533696	-2.969800	3.373400	-10.018000	25.899717	0.000604	20.891878
1853.535339	-2.983700	3.371500	-10.059000	25.907790	0.000606	20.883868
1854.532146	-2.993300	3.371900	-10.092000	25.889333	0.000602	20.883818
1855.533834	-3.004600	3.370900	-10.128000	25.856094	0.000606	20.875559
1856.535793	-2.986600	3.370800	-10.067000	25.862305	0.000605	20.878478
1857.531481	-3.015700	3.370100	-10.163000	25.865261	0.000606	20.877654
1858.532195	-3.006300	3.370000	-10.130000	25.879793	0.000603	20.867124
1859.532196	-2.980400	3.371700	-10.048000	25.890574	0.000601	20.891229
1860.536926	-2.986200	3.370800	-10.065000	25.916186	0.000602	20.857217
1861.537617	-2.986700	3.369200	-10.062000	25.919390	0.000602	20.878927
1862.537441	-2.982300	3.371100	-10.052000	25.895592	0.000602	20.859762
1863.540380	-2.965600	3.370500	-9.994600	25.896511	0.000601	20.877754
1864.538171	-2.987700	3.369300	-10.065000	25.893058	0.000600	20.861009
1865.535080	-2.985700	3.367800	-10.054000	25.899293	0.000599	20.872962
1866.533855	-2.996200	3.367400	-10.089000	25.900510	0.000600	20.871814
1867.536205	-2.997900	3.368700	-10.098000	25.886028	0.000600	20.865326
1868.542515	-3.018500	3.367700	-10.164000	25.908807	0.000598	20.856917
1869.539268	-2.998900	3.367200	-10.097000	25.924581	0.000598	20.877029
1870.540955	-3.007500	3.366700	-10.124000	25.921153	0.000597	20.856992
1871.542716	-2.980400	3.367400	-10.035000	25.890126	0.000595	20.882244
1872.540372	-2.986500	3.367700	-10.056000	25.901727	0.000596	20.874459
1873.534657	-2.992200	3.366500	-10.072000	25.916929	0.000597	20.857016
1874.539030	-3.014300	3.364700	-10.141000	25.935287	0.000594	20.883992
1875.542248	-2.998600	3.365800	-10.092000	25.966933	0.000596	20.852250
1876.542955	-3.002900	3.366200	-10.108000	26.000144	0.000595	20.875657
1877.541800	-2.992000	3.366600	-10.072000	26.008987	0.000595	20.867472
1878.537678	-2.989300	3.365100	-10.058000	26.010129	0.000595	20.844913
1879.542663	-2.997900	3.364900	-10.087000	25.963953	0.000591	20.851152
1880.542408	-2.974800	3.365500	-10.011000	25.931536	0.000593	20.858414
1881.546965	-3.010200	3.363900	-10.125000	25.884139	0.000593	20.832610
1882.543075	-3.011500	3.363400	-10.127000	25.882947	0.000590	20.852275
1883.551610	-3.019300	3.361600	-10.149000	25.865881	0.000591	20.859786
1884.541014	-3.024800	3.360900	-10.165000	25.872812	0.000590	20.846361
1885.550972	-2.990200	3.363900	-10.057000	25.917004	0.000589	20.863255
1886.544270	-2.980200	3.362900	-10.021000	25.896337	0.000588	20.843915
1887.543520	-2.996700	3.361900	-10.074000	25.869880	0.000589	20.843416
1888.547241	-3.016300	3.359600	-10.133000	25.825959	0.000589	20.856193
1889.542283	-2.953200	3.361900	-9.926800	25.858180	0.000589	20.880024
1890.546730	-2.989800	3.361500	-10.050000	25.865011	0.000587	20.848008
1891.543688	-3.027400	3.359300	-10.169000	25.882176	0.000588	20.855768
1892.541541	-2.989900	3.359500	-10.044000	25.881928	0.000587	20.847459
1893.539708	-3.000400	3.359100	-10.078000	25.892511	0.000588	20.840072
1894.538913	-3.004600	3.360700	-10.096000	25.872215	0.000586	20.840546
1895.542529	-2.993900	3.360000	-10.058000	25.843398	0.000585	20.849530
1896.540313	-3.008600	3.358800	-10.104000	25.820791	0.000586	20.843890
1897.543786	-2.999000	3.359200	-10.073000	25.792494	0.000584	20.854346
1898.543457	-3.002400	3.358700	-10.083000	25.834703	0.000584	20.855019
1899.546501	-2.977500	3.358900	-9.999900	25.849434	0.000583	20.848481
1900.544998	-2.995900	3.359000	-10.062000	25.860141	0.000583	20.844538
1901.545667	-2.988500	3.357200	-10.031000	25.896310	0.000580	20.818285
1902.542364	-2.983500	3.357800	-10.018000	25.922642	0.000581	20.838573
1903.544462	-3.000900	3.356900	-10.073000	25.964249	0.000582	20.849553
1904.542371	-2.972400	3.356500	-9.975800	25.952401	0.000581	20.832909
1905.550031	-3.013900	3.355300	-10.112000	25.981587	0.000581	20.832359
1906.549928	-3.001300	3.355600	-10.070000	26.014076	0.000582	20.825172
1907.550992	-2.971300	3.355900	-9.970400	26.013207	0.000578	20.840893
1908.546708	-3.003200	3.354300	-10.072000	26.032257	0.000579	20.833482
1909.548928	-3.006000	3.355000	-10.084000	26.033425	0.000579	20.841293
1910.546181	-3.013500	3.354100	-10.107000	25.989609	0.000580	20.835203
1911.549902	-3.010400	3.354600	-10.098000	25.943308	0.000579	20.839421
1912.546808	-3.000500	3.353500	-10.061000	25.953641	0.000577	20.847431
1913.548149	-3.001900	3.353900	-10.067000	25.978009	0.000579	20.832084
1914.547808	-2.990400	3.354200	-10.030000	25.986280	0.000577	20.838971
1915.551286	-3.024300	3.353200	-10.140000	25.974854	0.000575	20.832708
1916.547833	-3.029900	3.350500	-10.150000	25.957665	0.000576	20.825870
1917.551384	-3.002100	3.353400	-10.066000	25.941643	0.000575	20.828266
1918.553881	-2.996200	3.352700	-10.044000	25.944202	0.000575	20.828939
1919.550296	-2.987400	3.353400	-10.017000	25.918517	0.000576	20.830162
1920.554468	-3.002300	3.352400	-10.064000	25.914567	0.000576	20.832833
1921.550155	-3.008400	3.351500	-10.082000	25.929297	0.000575	20.830087
1922.552254	-3.016800	3.351600	-10.110000	25.963403	0.000575	20.827367
1923.553246	-2.991900	3.352100	-10.027000	25.980096	0.000573	20.823749
1924.554432	-2.985400	3.352500	-10.007000	25.969787	0.000573	20.825720
1925.552138	-2.991000	3.349700	-10.018000	25.997607	0.000574	20.835178
1926.554193	-3.005000	3.348900	-10.063000	25.990901	0.000573	20.828440
1927.555161	-2.979500	3.350100	-9.981000	25.952846	0.000570	20.819132
1928.558789	-2.988200	3.349100	-10.006000	25.919610	0.000571	20.836950
1929.552760	-2.996100	3.348900	-10.033000	25.935558	0.000570	20.811721
1930.556163	-2.999500	3.348400	-10.042000	25.933993	0.000570	20.822951
1931.552046	-3.029100	3.348700	-10.143000	25.951207	0.000570	20.830287
1932.557101	-2.990000	3.348500	-10.012000	25.957144	0.000569	20.829140
1933.556241	-3.005400	3.346700	-10.057000	25.938241	0.000568	20.833856
1934.556732	-2.977800	3.347900	-9.968300	25.960199	0.000568	20.810873
1935.556016	-3.007000	3.345500	-10.059000	25.979078	0.000567	20.852597
1936.567126	-3.001800	3.345500	-10.042000	25.999049	0.000566	20.827144
1937.557940	-3.014000	3.346500	-10.085000	25.993211	0.000566	20.827443
1938.560294	-3.018800	3.345700	-10.099000	25.961044	0.000566	20.829265
1939.559521	-2.974400	3.346000	-9.951200	25.943532	0.000563	20.822103
1940.559049	-2.995600	3.346300	-10.024000	25.985461	0.000563	20.818234
1941.562478	-2.988700	3.346200	-9.998500	26.017901	0.000564	20.819058
1942.565726	-3.010500	3.344500	-10.068000	26.015194	0.000562	20.817286
1943.559954	-3.010100	3.346000	-10.071000	26.065391	0.000561	20.826469
1944.559633	-3.026000	3.342800	-10.114000	26.073166	0.000562	20.814367
1945.566844	-2.982200	3.345800	-9.977000	26.111712	0.000560	20.809949
1946.571354	-3.006500	3.343400	-10.051000	26.147203	0.000561	20.824273
1947.564842	-3.000500	3.342900	-10.029000	26.141441	0.000562	20.813268
1948.566822	-2.994200	3.344000	-10.012000	26.131556	0.000560	20.816138
1949.559767	-3.004800	3.343500	-10.045000	26.153709	0.000560	20.825121
1950.563597	-3.010800	3.342100	-10.062000	26.148767	0.000559	20.802138
1951.560412	-3.014700	3.340000	-10.068000	26.129743	0.000558	20.828540
1952.560204	-3.008800	3.341300	-10.052000	26.098747	0.000558	20.827742
1953.562412	-3.017000	3.341500	-10.080000	26.069215	0.000557	20.800440
1954.563021	-3.005400	3.340200	-10.038000	26.078927	0.000558	20.813991
1955.561444	-3.001800	3.341000	-10.028000	26.052624	0.000556	20.795150
1956.565648	-2.987900	3.340200	-9.979700	26.048177	0.000555	20.823873
1957.563682	-2.979400	3.340100	-9.949000	26.060919	0.000555	20.810597
1958.562276	-3.016900	3.340000	-10.075000	26.071848	0.000554	20.804508
1959.564889	-2.981900	3.339700	-9.958100	26.059106	0.000555	20.796921
1960.561018	-2.998100	3.338500	-10.008000	26.086080	0.000555	20.823548
1961.562665	-2.995600	3.338200	-9.999000	26.146903	0.000554	20.804058
1962.563814	-3.005600	3.337900	-10.031000	26.137491	0.000553	20.809299
1963.564747	-2.984000	3.337400	-9.958000	26.103266	0.000552	20.792454
1964.562134	-3.006700	3.337100	-10.033000	26.117547	0.000554	20.792104
1965.561832	-2.986500	3.338700	-9.969000	26.115958	0.000553	20.809948
1966.559834	-2.993200	3.338000	-9.990700	26.137242	0.000551	20.792928
1967.562571	-3.011300	3.336500	-10.046000	26.128873	0.000550	20.794476
1968.561480	-3.006700	3.336800	-10.031000	26.104011	0.000551	20.798418
1969.560454	-3.010300	3.335700	-10.040000	26.075921	0.000550	20.784418
1970.560345	-3.005400	3.335200	-10.023000	26.054238	0.000550	20.791082
1971.560312	-3.014400	3.335600	-10.053000	26.077585	0.000551	20.805056
1972.560259	-3.017700	3.335400	-10.064000	26.103117	0.000549	20.798942
1973.560534	-3.004600	3.334900	-10.019000	26.146084	0.000549	20.792329
1974.562637	-3.008000	3.334600	-10.030000	26.150356	0.000547	20.808001
1975.569057	-2.991200	3.333900	-9.970400	26.159793	0.000547	20.803734
1976.565421	-2.983000	3.335000	-9.947200	26.164834	0.000547	20.810222
1977.568739	-2.995800	3.335000	-9.988800	26.174595	0.000547	20.798693
1978.576339	-2.996800	3.333700	-9.989400	26.163196	0.000545	20.771591
1979.564392	-2.996900	3.334000	-9.991300	26.133716	0.000544	20.792704
1980.571351	-3.007700	3.333400	-10.025000	26.078604	0.000545	20.771467
1981.570539	-3.028900	3.331400	-10.089000	26.051655	0.000545	20.778055
1982.570767	-3.000400	3.331500	-9.995100	26.070283	0.000545	20.805781
1983.566978	-2.996300	3.333100	-9.985600	26.090700	0.000543	20.778405
1984.569461	-2.989800	3.332400	-9.961800	26.086974	0.000545	20.808326
1985.567085	-2.988000	3.330500	-9.949300	26.093730	0.000544	20.811321
1986.569442	-3.001900	3.330600	-9.997200	26.062460	0.000544	20.806929
1987.564094	-2.984900	3.331500	-9.942200	26.080393	0.000542	20.807877
1988.563230	-2.987500	3.329900	-9.946500	26.105850	0.000542	20.798369
1989.563765	-2.970100	3.331400	-9.892500	26.093258	0.000542	20.801364
1990.573666	-2.989100	3.330400	-9.954500	26.028581	0.000540	20.779054
1991.578552	-2.968800	3.331800	-9.890100	26.012983	0.000539	20.802263
1992.574417	-3.009900	3.329900	-10.021000	26.005159	0.000540	20.787290
1993.572424	-2.970000	3.330900	-9.890900	25.995248	0.000537	20.809575
1994.570669	-3.012700	3.328200	-10.026000	26.048030	0.000538	20.791956
1995.565637	-2.997600	3.328800	-9.977400	26.050439	0.000538	20.775411
1996.568300	-3.019200	3.327200	-10.045000	26.062163	0.000538	20.781974
1997.575298	-2.993100	3.327100	-9.958100	26.085982	0.000537	20.764655
1998.566968	-3.001500	3.326700	-9.983500	26.124578	0.000537	20.778781
1999.570240	-2.980400	3.327400	-9.915000	26.167742	0.000536	20.767625
2000.572146	-2.992500	3.325800	-9.951000	26.148570	0.000535	20.795775
2001.571945	-2.983700	3.327900	-9.928300	26.165955	0.000536	20.771519
2002.578778	-2.992300	3.326600	-9.953200	26.178273	0.000534	20.784845
2003.572730	-2.979800	3.326400	-9.911200	26.134836	0.000532	20.788613
2004.572268	-2.995000	3.324200	-9.956000	26.107094	0.000532	20.799144
2005.573314	-3.001900	3.324400	-9.978200	26.086951	0.000532	20.766577
2006.573844	-3.018000	3.324600	-10.033000	26.126739	0.000533	20.810349
2007.574448	-3.013400	3.323100	-10.013000	26.134811	0.000532	20.789063
2008.581461	-2.986200	3.323700	-9.923900	26.168711	0.000531	20.780927
2009.574254	-2.998500	3.322600	-9.960600	26.182842	0.000531	20.788963
2010.576709	-3.002800	3.323900	-9.979300	26.177876	0.000531	20.781127
2011.578408	-2.995000	3.324200	-9.955100	26.181452	0.000530	20.789462
2012.573644	-2.990000	3.322300	-9.932300	26.162527	0.000528	20.795102
2013.578091	-2.990400	3.323000	-9.936400	26.163397	0.000525	20.795501
2014.577850	-3.008600	3.322200	-9.994500	26.166451	0.000527	20.775337
2015.581575	-3.014900	3.322100	-10.014000	26.159274	0.000528	20.784246
2016.574803	-3.002200	3.321600	-9.971200	26.170475	0.000526	20.778906
2017.579803	-3.007900	3.320300	-9.986100	26.191063	0.000525	20.758342
2018.578340	-3.009700	3.320600	-9.992800	26.161857	0.000525	20.773091
2019.579048	-3.002600	3.320400	-9.968500	26.141814	0.000521	20.774763
2020.582726	-2.973000	3.320900	-9.871600	26.173926	0.000523	20.788538
2021.578187	-3.016600	3.318300	-10.009000	26.181402	0.000525	20.787515
2022.585983	-3.000500	3.319600	-9.959100	26.175615	0.000525	20.787390
2023.579612	-2.989600	3.318600	-9.920200	26.185946	0.000521	20.785443
2024.583885	-3.003000	3.319300	-9.966600	26.152915	0.000524	20.771692
2025.578044	-3.004600	3.318100	-9.968700	26.129594	0.000521	20.796623
2026.590440	-2.994400	3.320000	-9.940300	26.114196	0.000523	20.784469
2027.583076	-3.001200	3.317300	-9.954900	26.092191	0.000520	20.785118
2028.583550	-3.011000	3.317000	-9.986500	26.101181	0.000520	20.778031
2029.585697	-3.000600	3.317700	-9.954000	26.077785	0.000519	20.780127
2030.580080	-3.009600	3.316400	-9.980000	26.020906	0.000519	20.785567
2031.585244	-3.016200	3.317000	-10.004000	25.990205	0.000517	20.779852
2032.582308	-3.008900	3.316000	-9.975700	26.018472	0.000520	20.760836
2033.581117	-2.997200	3.314800	-9.934200	26.077760	0.000518	20.774886
2034.581278	-3.026900	3.315100	-10.032000	26.091271	0.000518	20.787988
2035.585404	-2.991900	3.315300	-9.918100	26.121248	0.000518	20.775435
2036.585585	-2.988600	3.315600	-9.907100	26.155249	0.000516	20.765503
2037.593177	-3.005000	3.314900	-9.959900	26.190366	0.000516	20.762383
2038.588656	-3.007200	3.313700	-9.964000	26.226648	0.000516	20.786515
2039.585215	-3.015200	3.314900	-9.994200	26.245497	0.000515	20.761834
2040.586765	-3.011200	3.313400	-9.975700	26.228858	0.000514	20.781149
2041.588225	-3.022000	3.313000	-10.010000	26.171764	0.000513	20.793004
2042.586958	-3.016900	3.312000	-9.989800	26.167095	0.000513	20.769345
2043.586860	-3.007000	3.312900	-9.961000	26.124750	0.000513	20.789385
2044.589993	-3.013000	3.312900	-9.980200	26.104806	0.000513	20.793527
2045.587976	-2.977900	3.313200	-9.865000	26.116728	0.000511	20.768995
2046.587535	-3.028800	3.311000	-10.027000	26.159271	0.000510	20.778554
2047.593765	-2.983700	3.311200	-9.878900	26.161879	0.000512	20.791606
2048.594125	-2.992700	3.312000	-9.910000	26.213089	0.000509	20.784269
2049.585386	-3.015600	3.311100	-9.984000	26.269932	0.000510	20.809149
2050.585541	-3.002700	3.310500	-9.939000	26.287935	0.000509	20.777930
2051.586797	-3.002600	3.309700	-9.936800	26.329355	0.000508	20.781623
2052.586806	-3.023800	3.309700	-10.007000	26.314754	0.000506	20.793976
2053.591914	-3.000400	3.309300	-9.928600	26.326772	0.000507	20.779502
2054.588228	-3.006700	3.308500	-9.946400	26.279889	0.000508	20.791655
2055.588952	-2.965400	3.310100	-9.813500	26.262308	0.000505	20.777779
2056.591611	-2.991000	3.309500	-9.898000	26.254063	0.000506	20.783245
2057.585948	-3.011800	3.308100	-9.961700	26.254286	0.000506	20.788685
2058.584970	-3.010000	3.308200	-9.955900	26.275295	0.000505	20.784667
2059.586967	-2.982100	3.307800	-9.863100	26.259178	0.000504	20.770841
2060.587686	-2.998200	3.308200	-9.917700	26.290840	0.000505	20.788435
2061.589642	-3.000000	3.305200	-9.914100	26.278647	0.000501	20.793726
2062.590187	-3.011200	3.305900	-9.953600	26.278249	0.000502	20.790955
2063.587850	-2.997800	3.306000	-9.909500	26.271098	0.000502	20.787087
2064.591571	-3.013600	3.305300	-9.959500	26.286047	0.000500	20.800213
2065.592723	-2.996800	3.306800	-9.909500	26.324188	0.000500	20.781172
2066.588428	-2.986500	3.305700	-9.871300	26.319595	0.000499	20.787461
2067.594387	-2.992700	3.305600	-9.891800	26.332482	0.000499	20.789507
2068.592377	-3.011500	3.303400	-9.947100	26.330843	0.000500	20.793550
2069.589417	-3.013400	3.303200	-9.951200	26.352967	0.000499	20.815311
2070.589649	-2.986200	3.303900	-9.864500	26.340204	0.000496	20.785414
2071.595316	-2.992000	3.304300	-9.885900	26.299207	0.000497	20.799214
2072.593563	-2.997200	3.302900	-9.897400	26.273381	0.000497	20.811667
2073.595907	-2.997600	3.303800	-9.902400	26.266949	0.000498	20.789082
2074.600504	-2.984500	3.304300	-9.861300	26.289050	0.000495	20.785688
2075.591742	-2.965900	3.304100	-9.798500	26.311398	0.000496	20.779224
2076.598789	-2.979400	3.302800	-9.839500	26.304173	0.000497	20.810369
2077.593216	-2.993400	3.301500	-9.881500	26.311746	0.000494	20.799014
2078.597336	-2.978600	3.302000	-9.833800	26.347603	0.000494	20.804704
2079.589805	-3.010400	3.301300	-9.937100	26.349514	0.000492	20.813263
2080.594566	-3.011600	3.300300	-9.936600	26.357609	0.000493	20.810019
2081.598096	-3.020000	3.300700	-9.967000	26.335782	0.000493	20.793773
2082.599876	-3.008500	3.299100	-9.923000	26.338166	0.000490	20.786685
2083.595254	-2.999400	3.300300	-9.898500	26.350805	0.000490	20.779473
2084.593323	-2.983900	3.299100	-9.842900	26.307275	0.000490	20.777925
2085.598528	-2.981800	3.301000	-9.842600	26.308889	0.000490	20.809893
2086.596662	-2.995100	3.298900	-9.880000	26.250980	0.000490	20.801009
2087.595164	-3.003400	3.297500	-9.901900	26.293964	0.000488	20.809593
2088.600496	-2.996500	3.298400	-9.883100	26.272758	0.000487	20.810092
2089.593792	-2.999900	3.296900	-9.889600	26.291109	0.000487	20.792498
2090.595803	-2.998800	3.296900	-9.886100	26.277128	0.000486	20.812587
2091.600518	-2.994800	3.296200	-9.870700	26.313805	0.000487	20.812937
2092.603647	-3.005900	3.295900	-9.905500	26.360611	0.000484	20.811614
2093.599261	-3.002000	3.296500	-9.895500	26.387180	0.000487	20.780469
2094.596585	-2.987200	3.296200	-9.844300	26.421941	0.000484	20.795966
2095.603549	-2.995300	3.295600	-9.870200	26.456950	0.000484	20.787531
2096.605862	-2.992100	3.296200	-9.861900	26.469885	0.000484	20.783463
2097.598040	-3.012300	3.294600	-9.922600	26.446769	0.000482	20.805748
2098.604678	-3.016500	3.293900	-9.934400	26.441580	0.000481	20.817602
2099.600472	-2.986100	3.295000	-9.838100	26.435845	0.000482	20.801406
2100.605614	-2.997200	3.294500	-9.873900	26.463255	0.000481	20.786283
2101.603054	-3.024600	3.294300	-9.961700	26.455682	0.000479	20.807120
2102.597679	-3.011500	3.292600	-9.914300	26.456452	0.000479	20.808368
2103.598083	-3.019500	3.292600	-9.941000	26.485649	0.000479	20.785084
2104.597322	-3.000500	3.293000	-9.879500	26.478623	0.000478	20.823066
2105.599345	-3.013200	3.291600	-9.916600	26.493371	0.000479	20.809915
2106.599653	-2.994600	3.292400	-9.858400	26.518247	0.000479	20.790824
2107.600375	-2.992500	3.292200	-9.850500	26.523163	0.000478	20.812360
2108.601562	-3.004700	3.289900	-9.884200	26.549082	0.000477	20.800007
2109.600533	-2.987400	3.291900	-9.832500	26.560576	0.000478	20.807768
2110.602799	-2.991900	3.292200	-9.849200	26.562215	0.000477	20.794242
2111.604363	-3.001700	3.290800	-9.876100	26.577954	0.000476	20.809589
2112.599885	-2.986800	3.291000	-9.828600	26.568942	0.000474	20.801479
2113.608642	-3.002300	3.289700	-9.876000	26.536867	0.000474	20.811910
2114.601670	-2.980600	3.290700	-9.806200	26.540690	0.000473	20.792994
2115.600437	-3.012200	3.287300	-9.900600	26.545506	0.000471	20.798309
2116.605047	-3.003200	3.288600	-9.875800	26.529965	0.000471	20.808291
2117.607037	-3.019100	3.287600	-9.923400	26.533192	0.000472	20.814854
2118.602533	-3.006700	3.286900	-9.881100	26.524378	0.000472	20.817375
2119.604447	-3.004700	3.286900	-9.874700	26.566260	0.000471	20.814904
2120.605737	-2.998900	3.288000	-9.859400	26.564696	0.000468	20.817599
2121.600745	-3.001500	3.286400	-9.863000	26.568693	0.000471	20.805970
2122.608765	-3.023600	3.287200	-9.937200	26.546300	0.000468	20.813806
2123.604480	-2.994200	3.287200	-9.841700	26.529616	0.000469	20.802726
2124.604734	-2.995300	3.287000	-9.845100	26.530163	0.000468	20.817973
2125.607112	-3.025500	3.283700	-9.933700	26.536468	0.000468	20.832372
2126.604781	-3.012000	3.286300	-9.897500	26.535699	0.000465	20.803624
2127.604570	-2.984200	3.284700	-9.801100	26.575247	0.000467	20.816825
2128.611998	-2.975300	3.284800	-9.772700	26.546846	0.000466	20.820518
2129.605777	-3.019200	3.283100	-9.911400	26.567948	0.000464	20.813756
2130.603091	-2.981200	3.283600	-9.788200	26.570232	0.000464	20.815577
2131.607125	-2.984300	3.283300	-9.797800	26.552233	0.000464	20.811235
2132.605412	-3.006000	3.282200	-9.865800	26.521150	0.000462	20.809862
2133.606074	-2.989500	3.282600	-9.812400	26.506875	0.000462	20.819221
2134.603434	-3.002400	3.283100	-9.855900	26.492425	0.000463	20.822240
2135.605365	-2.990600	3.282300	-9.815800	26.477429	0.000461	20.815702
2136.605400	-3.021000	3.281000	-9.910800	26.504293	0.000461	20.811884
2137.605750	-2.989900	3.281800	-9.810700	26.514968	0.000459	20.803175
2138.601707	-3.000700	3.280300	-9.842300	26.535699	0.000459	20.831124
2139.604501	-3.012600	3.280100	-9.880600	26.539274	0.000458	20.814804
2140.605272	-2.999200	3.279600	-9.834700	26.483437	0.000459	20.829802
2141.610089	-2.999400	3.279000	-9.834400	26.463004	0.000457	20.823014
2142.609252	-3.011600	3.278700	-9.871700	26.455133	0.000457	20.814629
2143.604641	-3.005000	3.279000	-9.852900	26.403117	0.000456	20.819720
2144.608954	-2.990800	3.278500	-9.804300	26.372128	0.000456	20.818447
2145.604270	-2.993700	3.278500	-9.813800	26.380695	0.000457	20.838436
2146.605502	-3.013800	3.279100	-9.881600	26.365946	0.000456	20.809863
2147.613020	-2.986500	3.279100	-9.790500	26.418784	0.000454	20.837363
2148.606613	-3.019900	3.275800	-9.891400	26.427698	0.000455	20.813132
2149.604140	-3.000400	3.277200	-9.832200	26.458063	0.000452	20.814729
2150.608069	-3.019600	3.275900	-9.891100	26.468193	0.000453	20.833919
2151.606755	-3.017200	3.275000	-9.880100	26.467200	0.000453	20.830550
2152.607882	-3.039300	3.273900	-9.948500	26.492673	0.000454	20.839559
2153.607338	-3.000300	3.275000	-9.825100	26.478199	0.000453	20.836390
2154.607514	-3.033700	3.275100	-9.934700	26.476635	0.000453	20.830550
2155.614677	-3.003600	3.276100	-9.839100	26.493642	0.000449	20.833894
2156.612037	-2.991500	3.275000	-9.796400	26.545133	0.000450	20.824012
2157.608950	-2.996700	3.273600	-9.809300	26.578425	0.000451	20.819545
2158.606872	-3.017300	3.272800	-9.874700	26.630855	0.000448	20.843801
2159.607478	-2.999100	3.273600	-9.816800	26.629986	0.000448	20.840083
2160.608707	-3.012500	3.272200	-9.857200	26.647239	0.000446	20.858375
2161.609430	-3.002800	3.272300	-9.825100	26.662134	0.000445	20.860546
2162.610543	-2.997400	3.272200	-9.807700	26.675538	0.000446	20.858375
2163.610116	-3.010400	3.271200	-9.846600	26.646495	0.000444	20.840083
2164.610526	-3.011100	3.272300	-9.852200	26.636466	0.000444	20.824786
2165.610211	-3.011000	3.271100	-9.848400	26.635349	0.000446	20.846896
2166.612606	-2.993600	3.270700	-9.789600	26.636367	0.000444	20.849816
2167.608952	-2.977500	3.273700	-9.745300	26.657467	0.000443	20.838312
2168.608566	-3.022500	3.269500	-9.880800	26.673131	0.000442	20.869230
2169.610790	-3.016200	3.268900	-9.858700	26.675886	0.000443	20.846397
2170.611300	-2.988000	3.269500	-9.768000	26.713617	0.000442	20.851139
2171.608362	-2.998400	3.268100	-9.798400	26.704309	0.000441	20.873074
2172.611494	-3.005900	3.268000	-9.821800	26.721238	0.000441	20.838886
2173.613601	-2.999200	3.269100	-9.801900	26.715752	0.000438	20.845699
2174.608173	-2.986500	3.268100	-9.758600	26.743454	0.000439	20.870703
2175.611159	-3.000700	3.268100	-9.805000	26.757503	0.000440	20.853535
2176.610253	-2.999200	3.267600	-9.798200	26.759811	0.000440	20.866760
2177.615678	-3.001600	3.267600	-9.807300	26.773860	0.000440	20.850066
2178.611936	-2.974300	3.267500	-9.717700	26.826256	0.000438	20.867659
2179.612111	-3.012400	3.265800	-9.837200	26.774828	0.000436	20.862418
2180.611981	-2.997600	3.264500	-9.784700	26.745266	0.000435	20.893386
2181.613661	-2.994200	3.266500	-9.779900	26.666429	0.000436	20.876717
2182.612857	-2.971800	3.267000	-9.707900	26.659528	0.000435	20.865039
2183.612725	-2.997900	3.263800	-9.783900	26.678593	0.000434	20.866187
2184.613361	-2.992200	3.265000	-9.768700	26.693388	0.000434	20.859724
2185.615695	-3.012200	3.264100	-9.831100	26.679785	0.000431	20.869755
2186.617412	-3.009700	3.263700	-9.821000	26.710615	0.000432	20.837215
2187.612453	-2.998100	3.262600	-9.780800	26.754302	0.000432	20.868333
2188.619614	-2.977700	3.263100	-9.715400	26.766812	0.000430	20.879962
2189.617832	-2.986600	3.263700	-9.746600	26.775251	0.000431	20.876593
2190.621180	-3.013500	3.260400	-9.824100	26.801859	0.000432	20.872052
2191.622821	-3.018200	3.262100	-9.844600	26.836359	0.000431	20.886350
2192.617204	-3.019700	3.259800	-9.842600	26.834547	0.000427	20.902545
2193.617465	-2.998600	3.259600	-9.772900	26.836334	0.000429	20.876843
2194.617973	-3.001800	3.260200	-9.784800	26.844748	0.000428	20.902371
2195.619062	-3.016600	3.261200	-9.836500	26.864852	0.000426	20.875171
2196.620464	-3.012800	3.263300	-9.830800	26.837327	0.000424	20.869307
2197.623362	-3.000100	3.258800	-9.775900	26.834374	0.000424	20.871553
2198.628727	-3.019600	3.257100	-9.833600	26.832090	0.000424	20.897705
2199.619481	-3.007800	3.257500	-9.795800	26.806327	0.000424	20.886501
2200.622619	-2.996100	3.258300	-9.760200	26.814915	0.000422	20.879489
2201.621435	-3.015200	3.257000	-9.819200	26.793297	0.000422	20.882882
2202.619149	-3.011700	3.256800	-9.806600	26.787265	0.000421	20.882982
2203.623910	-2.995200	3.258700	-9.759700	26.758249	0.000421	20.881785
2204.622160	-3.014800	3.255700	-9.814200	26.757555	0.000420	20.890094
2205.622777	-3.031300	3.255800	-9.867600	26.761998	0.000419	20.887449
2206.625065	-3.011800	3.256300	-9.806400	26.753087	0.000420	20.896507
2207.619968	-2.999000	3.257000	-9.765500	26.727024	0.000420	20.899227
2208.618228	-3.003700	3.254600	-9.774700	26.702499	0.000417	20.876469
2209.624881	-2.999300	3.255000	-9.761800	26.718758	0.000418	20.890443
2210.623420	-2.983200	3.255200	-9.710400	26.743456	0.000414	20.892514
2211.624300	-3.007000	3.253200	-9.781500	26.734023	0.000417	20.905790
2212.623041	-3.026900	3.251500	-9.841200	26.707240	0.000416	20.884080
2213.624478	-2.978400	3.254000	-9.690100	26.672984	0.000414	20.894211
2214.623829	-2.994300	3.252000	-9.736000	26.675144	0.000414	20.883581
2215.621336	-2.983700	3.252100	-9.701600	26.649997	0.000412	20.887224
2216.624009	-2.982100	3.253300	-9.699800	26.660423	0.000412	20.905290
2217.622566	-3.016800	3.251000	-9.807000	26.690087	0.000412	20.887698
2218.623716	-2.990000	3.250900	-9.718100	26.726378	0.000413	20.895733
2219.624115	-2.972300	3.251900	-9.664800	26.768252	0.000411	20.929769
2220.623335	-3.006300	3.249700	-9.768400	26.791459	0.000410	20.897629
2221.629977	-2.989400	3.250800	-9.716700	26.799849	0.000411	20.896581
2222.625131	-3.013800	3.249700	-9.792900	26.819506	0.000410	20.912551
2223.624917	-3.006500	3.250300	-9.771200	26.837203	0.000409	20.900948
2224.626897	-3.000000	3.249000	-9.745300	26.868847	0.000407	20.909532
2225.628975	-2.970600	3.251900	-9.658700	26.903643	0.000405	20.911328
2226.633496	-2.979300	3.250000	-9.681300	26.923770	0.000406	20.910704
2227.629497	-2.989400	3.248200	-9.707600	26.899746	0.000406	20.910255
2228.632442	-3.016200	3.247000	-9.792200	26.904288	0.000405	20.926674
2229.630936	-2.981800	3.246000	-9.678100	26.905206	0.000404	20.902944
2230.631640	-2.991000	3.249500	-9.718200	26.912229	0.000402	20.895308
2231.633534	-3.002300	3.245900	-9.744100	26.932058	0.000403	20.915245
2232.633798	-2.999400	3.245500	-9.733600	26.946626	0.000402	20.909032
2233.633365	-2.999400	3.245700	-9.733900	26.924638	0.000402	20.907310
2234.640139	-2.993500	3.244500	-9.712200	26.922528	0.000399	20.915145
2235.635721	-3.037100	3.242900	-9.847700	26.909846	0.000401	20.924677
2236.635359	-3.012500	3.245500	-9.775600	26.912477	0.000400	20.936804
2237.637249	-3.030000	3.243400	-9.826000	26.923471	0.000397	20.926523
2238.636806	-3.006700	3.242900	-9.747700	26.918830	0.000396	20.896255
2239.636856	-2.995100	3.243400	-9.712600	26.951539	0.000396	20.918713
2240.634936	-2.980900	3.243100	-9.665900	26.976777	0.000397	20.906636
2241.633745	-3.014300	3.241700	-9.770900	26.993354	0.000395	20.923778
2242.636382	-3.012300	3.240900	-9.761800	26.984991	0.000395	20.904938
2243.637545	-3.000200	3.241800	-9.724200	26.985438	0.000393	20.910129
2244.642847	-2.993600	3.240300	-9.699500	26.936946	0.000396	20.938649
2245.637598	-3.013700	3.240600	-9.763500	26.945458	0.000393	20.934407
2246.639018	-2.991800	3.238900	-9.689100	26.928830	0.000393	20.930490
2247.635838	-2.990600	3.241300	-9.692600	26.918804	0.000392	20.914719
2248.636495	-2.994200	3.240000	-9.700200	26.929028	0.000392	20.920259
2249.641632	-2.986900	3.239400	-9.673900	26.904856	0.000391	20.917289
2250.634351	-2.976100	3.239100	-9.638400	26.920938	0.000391	20.932984
2251.636394	-3.001300	3.237100	-9.714100	26.938087	0.000390	20.927470
2252.639671	-3.010600	3.237800	-9.746300	26.939551	0.000390	20.910452
2253.638161	-3.023400	3.236600	-9.784300	26.985213	0.000388	20.913696
2254.640464	-2.999300	3.235400	-9.702400	26.969604	0.000388	20.932136
2255.640350	-2.995600	3.236300	-9.693400	26.998961	0.000385	20.920408
2256.641350	-3.006300	3.235900	-9.727200	27.035043	0.000386	20.907856
2257.639194	-2.989500	3.237000	-9.676600	27.000152	0.000387	20.923976
2258.641460	-3.007600	3.235600	-9.730300	26.980324	0.000385	20.925373
2259.639345	-3.015800	3.234300	-9.752000	26.927489	0.000384	20.892635
2260.640244	-3.003900	3.233400	-9.711700	26.923319	0.000385	20.909303
2261.643019	-3.014700	3.234100	-9.748300	26.919473	0.000384	20.897850
2262.642045	-3.002100	3.232000	-9.701100	26.935902	0.000383	20.911524
2263.642840	-2.991300	3.233300	-9.670900	26.956847	0.000381	20.905086
2264.642413	-3.005900	3.231100	-9.711100	26.944612	0.000381	20.907007
2265.638739	-3.012200	3.232800	-9.736500	26.961835	0.000381	20.902990
2266.640484	-3.001500	3.232800	-9.701600	26.973003	0.000381	20.910900
2267.640762	-3.006900	3.230400	-9.713200	26.959527	0.000377	20.899247
2268.640910	-3.002600	3.229800	-9.696900	26.943049	0.000379	20.915865
2269.644948	-2.984400	3.231200	-9.642600	26.944190	0.000379	20.898523
2270.644680	-2.992800	3.230900	-9.668500	26.944215	0.000379	20.917512
2271.642900	-2.988800	3.229000	-9.649500	26.964813	0.000378	20.894131
2272.649373	-2.973300	3.231200	-9.606300	27.022932	0.000375	20.909901
2273.646063	-2.999900	3.228600	-9.684300	27.013775	0.000377	20.892160
2274.644739	-2.999700	3.228500	-9.682200	27.013155	0.000376	20.904811
2275.643290	-3.007500	3.227500	-9.705600	26.972059	0.000375	20.882453
2276.643407	-2.977200	3.227600	-9.608200	26.898799	0.000374	20.893183
2277.648147	-2.985500	3.226700	-9.633000	26.864797	0.000375	20.893607
2278.644365	-3.000400	3.225800	-9.677800	26.794036	0.000376	20.891211
2279.651544	-2.967700	3.227100	-9.576700	26.791727	0.000373	20.886994
2280.645516	-2.988400	3.226300	-9.640400	26.767626	0.000374	20.888841
2281.645064	-2.972300	3.226700	-9.589200	26.757226	0.000373	20.883126
2282.649029	-2.993000	3.226400	-9.655700	26.781650	0.000371	20.884923
2283.646259	-2.988000	3.225200	-9.636500	26.788724	0.000370	20.887294
2284.643434	-2.973400	3.225500	-9.589200	26.805081	0.000371	20.890937
2285.647136	-2.967500	3.225400	-9.571100	26.875816	0.000369	20.899471
2286.652130	-2.998500	3.222700	-9.662600	26.898203	0.000369	20.855128
2287.647447	-3.009700	3.221700	-9.695700	26.912448	0.000369	20.881779
2288.653387	-2.986900	3.223000	-9.626300	26.888251	0.000366	20.872147
2289.650517	-2.990400	3.221900	-9.632600	26.894455	0.000367	20.885971
2290.648317	-3.003600	3.221700	-9.675800	26.916866	0.000366	20.868678
2291.651694	-3.001300	3.220600	-9.665100	26.930813	0.000367	20.896926
2292.650358	-2.991700	3.220600	-9.634200	26.926768	0.000366	20.867256
2293.646676	-2.983600	3.221100	-9.609200	26.921805	0.000364	20.896402
2294.648782	-2.986800	3.219300	-9.614500	26.961909	0.000364	20.898323
2295.651978	-3.011400	3.217800	-9.689000	26.947193	0.000363	20.874517
2296.647626	-3.000100	3.218500	-9.654800	26.968411	0.000364	20.881629
2297.657764	-3.027700	3.217700	-9.741300	26.980745	0.000362	20.871747
2298.652860	-3.003700	3.216300	-9.659500	27.013800	0.000361	20.866108
2299.652457	-3.011400	3.216500	-9.685200	27.049012	0.000361	20.875915
2300.652324	-2.998700	3.217800	-9.647900	27.070204	0.000361	20.867830
2301.650379	-2.992800	3.217400	-9.628700	27.098715	0.000361	20.864261
2302.649171	-3.005900	3.215300	-9.662600	27.074323	0.000360	20.864860
2303.651685	-2.992700	3.214700	-9.619700	27.116283	0.000358	20.866283
2304.658349	-3.002700	3.213500	-9.648100	27.146257	0.000358	20.869402
2305.650987	-2.993200	3.214800	-9.620800	27.166503	0.000356	20.861791
2306.654782	-2.965800	3.216200	-9.537600	27.163427	0.000356	20.863438
2307.650715	-2.968100	3.215100	-9.541600	27.151318	0.000356	20.852683
2308.658144	-2.989100	3.215100	-9.609500	27.149185	0.000355	20.875191
2309.655251	-2.996800	3.214200	-9.631000	27.146232	0.000356	20.862265
2310.652396	-3.020500	3.211800	-9.700200	27.124471	0.000355	20.858872
2311.653180	-2.993200	3.212100	-9.612700	27.127796	0.000356	20.885922
2312.655474	-2.990400	3.210900	-9.599200	27.155835	0.000356	20.862440
2313.655196	-2.969600	3.212400	-9.538200	27.120427	0.000354	20.857649
2314.653918	-2.997400	3.210500	-9.621600	27.104150	0.000353	20.865934
2315.661120	-3.004600	3.210100	-9.643100	27.104844	0.000351	20.860943
2316.662307	-3.018800	3.210300	-9.689500	27.106631	0.000351	20.868903
2317.662269	-2.990000	3.208700	-9.592700	27.119187	0.000349	20.850712
2318.655037	-3.024000	3.206300	-9.693900	27.123703	0.000349	20.849090
2319.657203	-2.984000	3.207900	-9.571200	27.170524	0.000349	20.859671
2320.656987	-3.002800	3.208400	-9.633600	27.175858	0.000350	20.854131
2321.658804	-3.007100	3.206000	-9.638700	27.157497	0.000348	20.843725
2322.666883	-3.006900	3.206100	-9.639000	27.116705	0.000347	20.840631
2323.656074	-2.992100	3.205700	-9.590800	27.086235	0.000348	20.847917
2324.659675	-3.007000	3.205700	-9.638100	27.050229	0.000347	20.851536
2325.659423	-3.004600	3.206500	-9.633600	27.042958	0.000348	20.856077
2326.661599	-3.016000	3.205100	-9.665700	27.075416	0.000347	20.836089
2327.658261	-2.979200	3.205000	-9.547200	27.073902	0.000347	20.849265
2328.659148	-2.984300	3.204400	-9.561600	27.100205	0.000344	20.856277
2329.667952	-3.029700	3.202500	-9.702000	27.109684	0.000346	20.841155
2330.658813	-3.003000	3.203700	-9.620100	27.124199	0.000345	20.857176
2331.662169	-2.993500	3.203100	-9.587600	27.074324	0.000344	20.850638
2332.659747	-2.983800	3.203000	-9.555800	27.035291	0.000343	20.842203
2333.661775	-2.981600	3.201400	-9.544600	27.070875	0.000345	20.822514
2334.658819	-3.006800	3.200600	-9.623100	27.049758	0.000343	20.863389
2335.659832	-3.011000	3.200300	-9.635100	27.028616	0.000344	20.838809
2336.658054	-3.002300	3.199300	-9.604700	27.035093	0.000341	20.851960
2337.659634	-3.016300	3.199000	-9.648000	27.022189	0.000340	20.847993
2338.663186	-3.017200	3.198800	-9.650300	27.059883	0.000341	20.852709
2339.668971	-3.004400	3.199700	-9.612200	27.079213	0.000339	20.846071
2340.662883	-2.987500	3.198800	-9.554600	27.076483	0.000339	20.839533
2341.661907	-3.011200	3.197100	-9.626200	27.098195	0.000339	20.812058
2342.663606	-3.009700	3.197200	-9.621000	27.136854	0.000338	20.837188
2343.663312	-3.008500	3.196300	-9.615200	27.168614	0.000339	20.838785
2344.667663	-2.980300	3.198300	-9.530900	27.190349	0.000338	20.823188
2345.663222	-3.026400	3.195600	-9.669700	27.184990	0.000335	20.840082
2346.660888	-3.031600	3.194600	-9.683400	27.167721	0.000337	20.846895
2347.666202	-3.000200	3.194700	-9.584100	27.132338	0.000336	20.835491
2348.664700	-2.998800	3.194900	-9.579900	27.159508	0.000335	20.831049
2349.665485	-3.006500	3.194400	-9.603300	27.131073	0.000334	20.846545
2350.664026	-3.000100	3.194700	-9.583400	27.091843	0.000333	20.833170
2351.666969	-3.012200	3.192700	-9.616400	27.104002	0.000333	20.847768
2352.664193	-3.009000	3.193200	-9.606900	27.074126	0.000332	20.833844
2353.676250	-3.019500	3.192100	-9.636200	27.044473	0.000333	20.814454
2354.666573	-3.005200	3.192400	-9.592600	27.079982	0.000331	20.832621
2355.664523	-3.009900	3.190900	-9.602800	27.096980	0.000330	20.825534
2356.664771	-2.998700	3.190200	-9.565800	27.121396	0.000330	20.839184
2357.668311	-2.982900	3.190400	-9.515200	27.104052	0.000331	20.827430
2358.674170	-3.000400	3.189700	-9.569700	27.147052	0.000331	20.826108
2359.664080	-2.974800	3.190600	-9.490100	27.173998	0.000331	20.837562
2360.675602	-2.986200	3.189700	-9.523400	27.222306	0.000329	20.829726
2361.664113	-2.998000	3.188100	-9.556700	27.249448	0.000329	20.821940
2362.666894	-3.013700	3.187700	-9.605900	27.251284	0.000328	20.828529
2363.670825	-2.996200	3.186600	-9.547200	27.211389	0.000328	20.837712
2364.669158	-2.983000	3.186800	-9.505200	27.174594	0.000328	20.802600
2365.671859	-3.022000	3.186600	-9.628500	27.119684	0.000326	20.836988
2366.671906	-2.994200	3.185500	-9.537700	27.093779	0.000328	20.834642
2367.668292	-2.991700	3.187000	-9.533100	27.108468	0.000327	20.823338
2368.665986	-2.998000	3.183800	-9.544300	27.159111	0.000327	20.813581
2369.671083	-3.008900	3.182800	-9.575500	27.160104	0.000325	20.835915
2370.665568	-2.992100	3.184600	-9.527500	27.160798	0.000325	20.826657
2371.669239	-3.008600	3.182400	-9.573800	27.102985	0.000323	20.834892
2372.672522	-3.017600	3.182400	-9.601300	27.067774	0.000324	20.824611
2373.671187	-2.997600	3.183700	-9.541200	27.010501	0.000323	20.828179
2374.669538	-3.021500	3.179900	-9.607300	26.993701	0.000324	20.800379
2375.674975	-3.007200	3.181100	-9.565500	27.011469	0.000324	20.812557
2376.673835	-2.992100	3.180500	-9.515200	27.009359	0.000322	20.822764
2377.672332	-3.006500	3.181000	-9.559900	26.996951	0.000322	20.811234
2378.670560	-2.972300	3.180800	-9.452000	26.978612	0.000320	20.839733
2379.668642	-3.034400	3.177000	-9.639000	26.987323	0.000321	20.822888
2380.672142	-2.998000	3.177700	-9.526100	27.047996	0.000321	20.816101
2381.680287	-2.983500	3.178300	-9.480700	27.097227	0.000321	20.820567
2382.678518	-3.019700	3.176000	-9.589800	27.097624	0.000321	20.830450
2383.673117	-3.010000	3.177800	-9.564300	27.116855	0.000319	20.815177
2384.674041	-2.993600	3.177400	-9.510700	27.162361	0.000320	20.837237
2385.672360	-3.020600	3.176100	-9.592300	27.153726	0.000317	20.818596
2386.672631	-3.028200	3.174700	-9.612300	27.148491	0.000318	20.816649
2387.671633	-2.996400	3.173500	-9.506900	27.173104	0.000316	20.835241
2388.679806	-3.007800	3.172900	-9.542700	27.173898	0.000317	20.835091
2389.674306	-2.963300	3.175900	-9.410600	27.174221	0.000316	20.804596
2390.672368	-2.995400	3.173100	-9.504300	27.188165	0.000316	20.820991
2391.675023	-3.009800	3.174100	-9.552500	27.242104	0.000316	20.818820
2392.674004	-2.993200	3.171700	-9.493200	27.266293	0.000314	20.805694
2393.678381	-2.991600	3.172500	-9.490000	27.278723	0.000314	20.817722
2394.677816	-2.969200	3.173100	-9.421000	27.292517	0.000312	20.797459
2395.678320	-3.013300	3.171100	-9.554500	27.337445	0.000313	20.803298
2396.676637	-2.980500	3.170300	-9.448100	27.340992	0.000310	20.789797
2397.674390	-2.968200	3.170000	-9.408100	27.324892	0.000313	20.827180
2398.679924	-3.005400	3.171400	-9.529400	27.340025	0.000311	20.824385
2399.683380	-2.985200	3.169100	-9.459200	27.371927	0.000311	20.807640
2400.680001	-3.014300	3.166500	-9.544000	27.365006	0.000310	20.805893
2401.678433	-3.002600	3.167000	-9.508300	27.354736	0.000309	20.811683
2402.678814	-2.994200	3.167200	-9.482400	27.329804	0.000311	20.819793
2403.678980	-3.016800	3.164600	-9.546100	27.322064	0.000311	20.806792
2404.677830	-2.995400	3.165000	-9.479600	27.351089	0.000310	20.813704
2405.682451	-3.002300	3.164600	-9.499900	27.361955	0.000309	20.812781
2406.678986	-3.026100	3.163400	-9.571500	27.370067	0.000308	20.818096
2407.678728	-3.042300	3.162600	-9.618700	27.289564	0.000308	20.836688
2408.679626	-2.993700	3.162300	-9.465800	27.210222	0.000307	20.794339
2409.683148	-2.995300	3.163800	-9.475400	27.166380	0.000308	20.812831
2410.681413	-2.994500	3.162400	-9.469600	27.166678	0.000306	20.813130
2411.686650	-3.032500	3.160100	-9.582400	27.181143	0.000307	20.806343
2412.692576	-2.989300	3.161000	-9.448700	27.200695	0.000306	20.801352
2413.685736	-2.991700	3.161200	-9.457400	27.230170	0.000304	20.810610
2414.686150	-2.979900	3.158600	-9.411900	27.255278	0.000304	20.813580
2415.681288	-2.978700	3.159100	-9.408400	27.227590	0.000306	20.819868
2416.683292	-2.993800	3.158600	-9.455600	27.264681	0.000304	20.804546
2417.686234	-2.984600	3.158700	-9.426200	27.295171	0.000303	20.804396
2418.682885	-3.033700	3.154100	-9.567300	27.311024	0.000303	20.807066
2419.686828	-2.982200	3.154900	-9.407500	27.357589	0.000303	20.807441
2420.688751	-2.999300	3.156000	-9.464900	27.348038	0.000303	20.788350
2421.686158	-2.999000	3.153900	-9.457500	27.348410	0.000304	20.803897
2422.690778	-3.023000	3.153600	-9.532600	27.332831	0.000303	20.787277
2423.684859	-3.013500	3.152200	-9.497200	27.343498	0.000302	20.814603
2424.685546	-2.997400	3.153300	-9.450700	27.372523	0.000303	20.804920
2425.695126	-3.012100	3.151700	-9.492900	27.388374	0.000301	20.789099
2426.690685	-2.985800	3.152000	-9.410800	27.379965	0.000300	20.803398
2427.686152	-3.003400	3.151500	-9.464700	27.357837	0.000302	20.799630
2428.686778	-3.008600	3.151000	-9.479300	27.330226	0.000300	20.799829
2429.686936	-3.009100	3.149400	-9.475500	27.317201	0.000300	20.804746
2430.686262	-3.010300	3.150500	-9.482000	27.256518	0.000300	20.795388
2431.688362	-3.000800	3.147800	-9.444800	27.237712	0.000299	20.809662
2432.692114	-3.003600	3.149000	-9.457200	27.230840	0.000298	20.789473
2433.685936	-2.997200	3.147300	-9.431300	27.190721	0.000298	20.785156
2434.691587	-2.988100	3.146800	-9.401900	27.165041	0.000297	20.816225
2435.689731	-2.979100	3.146400	-9.373000	27.150104	0.000299	20.804995
2436.688828	-2.972000	3.146500	-9.350000	27.118443	0.000296	20.779316
2437.686497	-3.012700	3.144900	-9.473700	27.112959	0.000298	20.787077
2438.687253	-2.998700	3.144000	-9.427400	27.050155	0.000298	20.798357
2439.687281	-3.005600	3.142900	-9.445700	27.027623	0.000294	20.809837
2440.686958	-2.983600	3.141300	-9.371100	27.032909	0.000295	20.786703
2441.689622	-2.990000	3.140800	-9.390300	27.067600	0.000295	20.796935
2442.691372	-2.996200	3.140100	-9.406700	27.128716	0.000295	20.769734
2443.688177	-3.025200	3.139900	-9.497900	27.188935	0.000294	20.780989
2444.690549	-3.003300	3.139200	-9.426500	27.249845	0.000294	20.789149
2445.689813	-3.004000	3.137400	-9.423200	27.316557	0.000294	20.783235
2446.691861	-2.992400	3.137900	-9.387800	27.372102	0.000292	20.777944
2447.690766	-3.004500	3.136600	-9.421800	27.376567	0.000291	20.787652
2448.689173	-3.013400	3.136600	-9.449100	27.417796	0.000292	20.793093
2449.689794	-2.996600	3.135700	-9.395600	27.405294	0.000293	20.780515
2450.696508	-2.987700	3.135100	-9.363700	27.434094	0.000290	20.774401
2451.696337	-2.997700	3.135200	-9.397500	27.427123	0.000290	20.777820
2452.702338	-3.017500	3.131300	-9.447300	27.445901	0.000289	20.774426
2453.692403	-3.017900	3.130900	-9.447300	27.447489	0.000289	20.796886
2454.697067	-3.028700	3.129400	-9.476500	27.464109	0.000289	20.786580
2455.697331	-3.008800	3.132300	-9.422600	27.443967	0.000287	20.780541
2456.694969	-3.018200	3.130100	-9.446200	27.407304	0.000287	20.794866
2457.698229	-3.013000	3.128800	-9.425700	27.417599	0.000289	20.806645
2458.696158	-3.002700	3.127700	-9.390400	27.473857	0.000290	20.778844
2459.693134	-3.005600	3.127700	-9.400200	27.487922	0.000289	20.778769
2460.701143	-2.977700	3.128000	-9.313500	27.520316	0.000289	20.774851
2461.699419	-2.991800	3.125800	-9.350600	27.545889	0.000287	20.765967
2462.695049	-3.012500	3.126400	-9.417300	27.536935	0.000288	20.779244
2463.696668	-3.011400	3.124000	-9.406600	27.513446	0.000286	20.780267
2464.698472	-2.995100	3.124500	-9.356800	27.432061	0.000286	20.779943
2465.694784	-2.969900	3.124500	-9.277800	27.383392	0.000286	20.773180
2466.702529	-3.022100	3.121100	-9.430800	27.335091	0.000285	20.783861
2467.698489	-3.007900	3.122700	-9.390400	27.289816	0.000286	20.776250
2468.698334	-3.002900	3.121100	-9.371000	27.320653	0.000287	20.777398
2469.704268	-2.996900	3.121200	-9.352900	27.356451	0.000285	20.765993
2470.702312	-3.013800	3.119000	-9.399400	27.396018	0.000285	20.784460
2471.694822	-2.985300	3.120500	-9.314900	27.442455	0.000284	20.790874
2472.701766	-2.993100	3.118000	-9.331400	27.459670	0.000285	20.780692
2473.701296	-2.988700	3.116600	-9.313000	27.474305	0.000284	20.765544
2474.695460	-2.997800	3.118000	-9.346300	27.516696	0.000284	20.774054
2475.697791	-2.973500	3.117600	-9.267900	27.539316	0.000283	20.783063
2476.699993	-3.012700	3.113600	-9.379200	27.583738	0.000285	20.767540
2477.693939	-3.005900	3.113800	-9.359100	27.596040	0.000286	20.771858
2478.708414	-3.019300	3.114300	-9.402000	27.616724	0.000284	20.777498
2479.700177	-3.007000	3.112500	-9.358600	27.628332	0.000283	20.756934
2480.699776	-3.001700	3.110300	-9.334700	27.642840	0.000284	20.771059
2481.702698	-2.989800	3.111400	-9.300800	27.664813	0.000282	20.771833
2482.700967	-3.012200	3.108100	-9.360800	27.685844	0.000284	20.762175
2483.697475	-2.997600	3.109000	-9.318300	27.691746	0.000282	20.759105
2484.703425	-3.011200	3.106200	-9.351500	27.663425	0.000281	20.782289
2485.707736	-3.002500	3.106600	-9.326600	27.679694	0.000283	20.775901
2486.701573	-3.003300	3.105600	-9.324700	27.693805	0.000282	20.777772
2487.708218	-2.985000	3.106000	-9.270000	27.695318	0.000282	20.780243
2488.710529	-2.993300	3.104200	-9.290800	27.678454	0.000283	20.768015
2489.708043	-3.015400	3.102200	-9.352800	27.625157	0.000281	20.777448
2490.709806	-2.999800	3.102000	-9.304800	27.596387	0.000281	20.777897
2491.706814	-2.984900	3.102100	-9.258200	27.578555	0.000280	20.786033
2492.700874	-3.016700	3.100000	-9.350600	27.523343	0.000280	20.764621
2493.705411	-3.001800	3.099900	-9.304100	27.489883	0.000282	20.777897
2494.704943	-3.009300	3.098900	-9.324700	27.480730	0.000279	20.766792
2495.708511	-2.995100	3.097100	-9.274500	27.520838	0.000278	20.755462
2496.709733	-3.007000	3.096700	-9.311000	27.541550	0.000279	20.749273
2497.705581	-2.990900	3.096600	-9.259800	27.591601	0.000280	20.776875
2498.703423	-2.996900	3.095800	-9.276700	27.579895	0.000276	20.779320
2499.702051	-2.989300	3.095900	-9.253600	27.573124	0.000280	20.766343
2500.706967	-2.976800	3.094600	-9.210800	27.538226	0.000279	20.786233
2501.707366	-3.006600	3.092300	-9.296700	27.488172	0.000279	20.781866
2502.704004	-2.990900	3.092500	-9.248800	27.503030	0.000278	20.766468
2503.708774	-3.009000	3.090500	-9.298600	27.480557	0.000278	20.787956
2504.706278	-2.970500	3.090400	-9.178600	27.457613	0.000277	20.788105
2505.706901	-2.987700	3.087900	-9.224800	27.438091	0.000279	20.785535
2506.714000	-2.981600	3.087900	-9.206300	27.484899	0.000278	20.789952
2507.703517	-2.969300	3.088700	-9.169800	27.527537	0.000278	20.757460
2508.704273	-2.995500	3.085800	-9.242700	27.542939	0.000277	20.771535
2509.709539	-3.007400	3.085000	-9.277000	27.603185	0.000278	20.749174
2510.711230	-2.992900	3.084800	-9.231800	27.623150	0.000277	20.781592
2511.706332	-2.990700	3.082600	-9.218300	27.650208	0.000275	20.772309
2512.712126	-3.028700	3.081400	-9.331200	27.642817	0.000276	20.791899
2513.716217	-3.001800	3.082100	-9.250300	27.677042	0.000275	20.776077
2514.714210	-2.987200	3.080300	-9.200700	27.659459	0.000276	20.776876
2515.707013	-3.005700	3.080200	-9.257000	27.686888	0.000275	20.772708
2516.712842	-2.991500	3.077900	-9.206900	27.720417	0.000277	20.786060
2517.706082	-2.994900	3.078700	-9.219900	27.779139	0.000276	20.801532
2518.712465	-3.002600	3.075700	-9.234400	27.785239	0.000275	20.767842
2519.719365	-2.984600	3.074500	-9.175500	27.793175	0.000275	20.781518
2520.711416	-2.985200	3.074500	-9.176700	27.809590	0.000275	20.782866
2521.712785	-2.992100	3.072900	-9.193100	27.830717	0.000275	20.768092
2522.719230	-3.005100	3.072900	-9.233200	27.804210	0.000276	20.792150
2523.712594	-3.004100	3.071400	-9.226400	27.771502	0.000275	20.780096
2524.720176	-3.013900	3.070000	-9.251600	27.748068	0.000275	20.783066
2525.721414	-2.989200	3.069100	-9.173100	27.686839	0.000276	20.812489
2526.713077	-2.970500	3.069900	-9.118700	27.671786	0.000276	20.796867
2527.717538	-3.005200	3.068700	-9.221200	27.680416	0.000275	20.783266
2528.715867	-2.994700	3.067200	-9.184500	27.736339	0.000276	20.776952
2529.715539	-2.980800	3.067400	-9.142400	27.778223	0.000275	20.773584
2530.719697	-3.001300	3.064300	-9.195200	27.791192	0.000275	20.785687
2531.716787	-2.993900	3.063100	-9.169600	27.807509	0.000273	20.791676
2532.717874	-2.987600	3.062100	-9.147400	27.838777	0.000273	20.794222
2533.717391	-3.024900	3.059400	-9.253100	27.871830	0.000273	20.785288
2534.719390	-2.980600	3.060400	-9.120600	27.862061	0.000274	20.793474
2535.720381	-3.001900	3.059200	-9.182500	27.888121	0.000275	20.787459
2536.715569	-3.022200	3.056400	-9.235400	27.884080	0.000272	20.789082
2537.716163	-3.001800	3.057000	-9.174900	27.906891	0.000272	20.795920
2538.720542	-3.021600	3.055100	-9.229900	27.939917	0.000275	20.789332
2539.723566	-2.995500	3.053900	-9.147500	27.932529	0.000273	20.802284
2540.721147	-2.989900	3.052200	-9.125000	27.918223	0.000273	20.803531
2541.728479	-3.017500	3.052000	-9.208500	27.901412	0.000272	20.788983
2542.721880	-3.027600	3.049400	-9.230900	27.887180	0.000273	20.798366
2543.723677	-3.007000	3.049500	-9.168800	27.853483	0.000273	20.798117
2544.723987	-3.025700	3.049300	-9.225400	27.864542	0.000271	20.794074
2545.724227	-3.022100	3.047400	-9.208400	27.873295	0.000272	20.812840
2546.720932	-3.005200	3.047400	-9.156900	27.907735	0.000273	20.774958
2547.720546	-3.013300	3.044100	-9.171400	27.867592	0.000271	20.794299
2548.724276	-3.020400	3.044900	-9.194500	27.817480	0.000273	20.811668
2549.723366	-2.995300	3.043000	-9.113100	27.832804	0.000272	20.794374
2550.725075	-3.011100	3.042700	-9.161500	27.835408	0.000272	20.774709
2551.723408	-3.018000	3.042000	-9.179600	27.773291	0.000272	20.788061
2552.725368	-3.023600	3.040200	-9.191400	27.754668	0.000272	20.790656
2553.726652	-2.992000	3.040000	-9.094300	27.698822	0.000272	20.785192
2554.726633	-2.990900	3.039000	-9.088400	27.656984	0.000272	20.807103
2555.732382	-2.995900	3.036200	-9.096400	27.646841	0.000272	20.791206
2556.731427	-2.973900	3.036900	-9.030500	27.638781	0.000272	20.800640
2557.726645	-2.993600	3.035000	-9.083100	27.669757	0.000273	20.809524
2558.728541	-3.001100	3.033500	-9.101700	27.699889	0.000272	20.800965
2559.727203	-3.023100	3.031700	-9.163000	27.743907	0.000270	20.811121
2560.725424	-3.000300	3.032100	-9.096300	27.763920	0.000273	20.784794
2561.729427	-2.998800	3.030800	-9.088500	27.805878	0.000271	20.805682
2562.729420	-2.985200	3.030300	-9.045400	27.782147	0.000272	20.817835
2563.736425	-2.988900	3.026800	-9.045600	27.801861	0.000271	20.794527
2564.726368	-2.997400	3.027300	-9.073100	27.833006	0.000272	20.802164
2565.727924	-2.973500	3.025400	-8.995000	27.803399	0.000270	20.788963
2566.732947	-3.010800	3.023900	-9.102800	27.772923	0.000271	20.816140
2567.726346	-2.994300	3.023400	-9.052300	27.763079	0.000271	20.798172
2568.730559	-2.979200	3.023000	-9.005500	27.783959	0.000270	20.791210
2569.726503	-2.985400	3.019800	-9.014500	27.778776	0.000271	20.808279
2570.728113	-2.964700	3.020200	-8.953400	27.778603	0.000270	20.803364
2571.729807	-3.003700	3.017900	-9.063800	27.735578	0.000270	20.781877
2572.727903	-3.005200	3.016700	-9.065100	27.705993	0.000270	20.805685
2573.734068	-3.022500	3.013800	-9.108400	27.718319	0.000270	20.805760
2574.730454	-3.041900	3.014000	-9.167600	27.735727	0.000270	20.804786
2575.732912	-2.996300	3.013200	-9.027700	27.788647	0.000271	20.809204
2576.726616	-2.984100	3.011300	-8.984900	27.779075	0.000270	20.820434
2577.731410	-2.998200	3.010700	-9.026000	27.778852	0.000268	20.814046
2578.733409	-2.989000	3.010600	-8.997300	27.783564	0.000270	20.801718
2579.728610	-3.013300	3.008500	-9.065000	27.746889	0.000269	20.819337
2580.733288	-3.011400	3.005300	-9.049000	27.708971	0.000271	20.833811
2581.727507	-2.993900	3.004900	-8.994600	27.648707	0.000269	20.811576
2582.729233	-3.003800	3.005600	-9.026900	27.659397	0.000270	20.810005
2583.734682	-3.004600	3.002300	-9.019500	27.684371	0.000268	20.807160
2584.736876	-2.995900	3.001400	-8.990300	27.713783	0.000269	20.817316
2585.730912	-3.033200	3.001100	-9.101300	27.740393	0.000269	20.808533
2586.736600	-3.005900	2.999300	-9.014400	27.764100	0.000269	20.814373
2587.738928	-3.024100	2.998600	-9.066900	27.783443	0.000269	20.815820
2588.730566	-2.992600	2.998100	-8.971000	27.783170	0.000270	20.806063
2589.732810	-3.013300	2.996400	-9.028700	27.800925	0.000269	20.821560
2590.730320	-2.987000	2.993200	-8.939300	27.818506	0.000270	20.811753
2591.733662	-2.990400	2.992600	-8.947500	27.817663	0.000269	20.827499
2592.734056	-3.009800	2.991400	-9.002400	27.813423	0.000270	20.818965
2593.733912	-2.989400	2.991000	-8.940200	27.790783	0.000271	20.825104
2594.731987	-2.991800	2.989000	-8.941700	27.760357	0.000270	20.816295
2595.735345	-3.015300	2.986900	-9.005500	27.755298	0.000269	20.816420
2596.735641	-2.975300	2.987700	-8.887600	27.723605	0.000270	20.834312
2597.732310	-2.985800	2.985800	-8.913700	27.667807	0.000268	20.822734
2598.733362	-3.017700	2.984200	-9.004700	27.654538	0.000268	20.811754
2599.735609	-3.020000	2.981500	-9.003200	27.688043	0.000268	20.807536
2600.735330	-2.991500	2.980900	-8.915700	27.700518	0.000268	20.817245
2601.736401	-3.025800	2.979300	-9.014100	27.736352	0.000268	20.817269
2602.738242	-2.986500	2.981000	-8.901500	27.732708	0.000271	20.809334
2603.733123	-3.011500	2.977400	-8.965600	27.728442	0.000268	20.826853
2604.735602	-3.023700	2.975500	-8.996500	27.744761	0.000268	20.827153
2605.737454	-2.995200	2.973700	-8.905300	27.796092	0.000267	20.829499
2606.743830	-2.993300	2.972400	-8.896000	27.843504	0.000268	20.806091
2607.738060	-2.991400	2.972500	-8.891100	27.902740	0.000269	20.818294
2608.734434	-2.994200	2.970700	-8.893800	27.906782	0.000269	20.812405
2609.740410	-3.015000	2.967300	-8.944700	27.919873	0.000269	20.825581
2610.737525	-3.027100	2.966900	-8.978600	27.895625	0.000268	20.817297
2611.737515	-2.975600	2.966200	-8.825100	27.857118	0.000268	20.840180
2612.739217	-3.013200	2.963600	-8.929200	27.825503	0.000268	20.850561
2613.733604	-2.999500	2.962300	-8.884600	27.825776	0.000269	20.818595
2614.734984	-3.009300	2.960100	-8.907200	27.824684	0.000268	20.828876
2615.738854	-3.014000	2.960800	-8.922200	27.814344	0.000268	20.837910
2616.736174	-2.997000	2.958000	-8.864600	27.813278	0.000267	20.835889
2617.738295	-3.007000	2.958400	-8.895400	27.812881	0.000267	20.837386
2618.740134	-3.003500	2.956000	-8.876500	27.805939	0.000267	20.834666
2619.736570	-3.028900	2.953000	-8.942600	27.781960	0.000267	20.837087
2620.736125	-3.003700	2.954500	-8.872400	27.750244	0.000269	20.838360
2621.738415	-2.982700	2.952700	-8.805600	27.713987	0.000268	20.852609
2622.742001	-3.042400	2.948400	-8.969000	27.702183	0.000269	20.840257
2623.747220	-3.003200	2.948900	-8.854800	27.718576	0.000266	20.818346
2624.741377	-3.011300	2.947800	-8.875500	27.753542	0.000268	20.851162
2625.735259	-3.019500	2.944200	-8.889300	27.793788	0.000268	20.833344
2626.736188	-2.997800	2.944200	-8.824300	27.832819	0.000267	20.818571
2627.736720	-3.029200	2.943100	-8.914800	27.874650	0.000269	20.838859
2628.739921	-3.009000	2.940700	-8.847800	27.883352	0.000267	20.838609
2629.737973	-3.005000	2.939800	-8.832800	27.878865	0.000271	20.840731
2630.739261	-3.020400	2.937300	-8.870400	27.887915	0.000267	20.853158
2631.738172	-3.030100	2.937000	-8.897900	27.939264	0.000267	20.849839
2632.740104	-3.043000	2.933400	-8.925700	27.995496	0.000269	20.835790
2633.739213	-3.013000	2.932800	-8.834800	28.029337	0.000268	20.840456
2634.737508	-2.986000	2.931800	-8.752700	28.074184	0.000268	20.874219
2635.740580	-2.999700	2.930800	-8.791100	28.102222	0.000267	20.866882
2636.738792	-3.024200	2.927600	-8.852700	28.082464	0.000269	20.851735
2637.743512	-2.987500	2.926600	-8.742400	28.081076	0.000269	20.852709
2638.742825	-3.000600	2.925800	-8.778700	28.122549	0.000269	20.858423
2639.740014	-3.002300	2.924100	-8.778400	28.143942	0.000268	20.853881
2640.740356	-3.019800	2.921300	-8.821300	28.198676	0.000270	20.857300
2641.747168	-3.012000	2.921000	-8.796200	28.187744	0.000267	20.846769
2642.744123	-2.990400	2.919900	-8.731200	28.212483	0.000269	20.849390
2643.748315	-2.977900	2.919100	-8.691200	28.213771	0.000268	20.855903
2644.748163	-2.981300	2.915800	-8.690800	28.228817	0.000269	20.869153
2645.743461	-2.999400	2.915100	-8.742700	28.210376	0.000267	20.865285
2646.741500	-3.017900	2.912100	-8.787200	28.181770	0.000268	20.863039
2647.740201	-2.990200	2.911500	-8.705400	28.186778	0.000267	20.841529
2648.744081	-3.026700	2.906800	-8.795500	28.171458	0.000267	20.872098
2649.744986	-2.999300	2.906800	-8.716800	28.176589	0.000268	20.847867
2650.745795	-2.966200	2.908400	-8.625800	28.187620	0.000268	20.876988
2651.746240	-2.989000	2.904300	-8.679300	28.211788	0.000267	20.857699
2652.745328	-3.001000	2.903700	-8.713100	28.224777	0.000267	20.897326
2653.743765	-2.972900	2.901500	-8.624800	28.223289	0.000266	20.883027
2654.749812	-2.998600	2.898900	-8.691300	28.247209	0.000268	20.880556
2655.744489	-3.006300	2.896900	-8.707700	28.275936	0.000268	20.875815
2656.749947	-2.987800	2.896300	-8.652300	28.301267	0.000267	20.885672
2657.745152	-3.013400	2.894300	-8.720900	28.292344	0.000269	20.886645
2658.739870	-2.982700	2.893400	-8.629300	28.244556	0.000267	20.883102
2659.744962	-2.999900	2.890500	-8.669900	28.202269	0.000268	20.871822
2660.747163	-3.033400	2.886100	-8.753800	28.203136	0.000268	20.886445
2661.744682	-3.007200	2.887100	-8.681500	28.185364	0.000267	20.888466
2662.746349	-3.012900	2.884400	-8.690000	28.163897	0.000268	20.881080
2663.746836	-3.014600	2.882700	-8.689000	28.131671	0.000265	20.872346
2664.745889	-3.001200	2.882200	-8.648400	28.146644	0.000267	20.879359
2665.750421	-3.016600	2.879600	-8.685700	28.133134	0.000267	20.883301
2666.744397	-3.012500	2.876300	-8.664800	28.165781	0.000269	20.881080
2667.752815	-3.012200	2.874600	-8.658000	28.182191	0.000267	20.877212
2668.747921	-2.965600	2.875400	-8.525800	28.195353	0.000268	20.904686
2669.745064	-2.996600	2.870700	-8.601500	28.234171	0.000267	20.912946
2670.753367	-3.035000	2.869600	-8.708400	28.256454	0.000266	20.896027
2671.750206	-3.005900	2.867700	-8.618900	28.307662	0.000268	20.901118
2672.749807	-3.030000	2.865500	-8.682000	28.308108	0.000267	20.886396
2673.752201	-3.009500	2.864100	-8.618600	28.295591	0.000267	20.913145
2674.753068	-3.002000	2.861500	-8.589600	28.271227	0.000266	20.886721
2675.747990	-3.009200	2.859200	-8.603300	28.243913	0.000266	20.918012
2676.754791	-3.012500	2.856800	-8.605300	28.242425	0.000266	20.880482
2677.753852	-3.001400	2.856400	-8.571900	28.242004	0.000267	20.891911
2678.751181	-3.036600	2.854600	-8.666900	28.218729	0.000269	20.894082
2679.754154	-3.021800	2.852300	-8.617900	28.191760	0.000268	20.893483
2680.751375	-3.017800	2.849900	-8.599200	28.135366	0.000268	20.926322
2681.751082	-3.002800	2.847100	-8.548600	28.139258	0.000268	20.892785
2682.750842	-3.012400	2.845900	-8.571900	28.122575	0.000268	20.902068
2683.753275	-3.022100	2.845000	-8.596700	28.163800	0.000268	20.904214
2684.747989	-2.996200	2.841800	-8.513600	28.209906	0.000266	20.886622
2685.750782	-3.023800	2.838300	-8.581900	28.219127	0.000267	20.920558
2686.751337	-2.995700	2.839100	-8.503400	28.257423	0.000267	20.905537
2687.751849	-3.029300	2.835300	-8.587100	28.254597	0.000268	20.904589
2688.753193	-3.006700	2.833300	-8.518000	28.271154	0.000268	20.906560
2689.748173	-3.004900	2.832100	-8.509200	28.251103	0.000266	20.909605
2690.753950	-2.989900	2.830300	-8.461000	28.244361	0.000267	20.907084
2691.753480	-3.007800	2.825900	-8.498300	28.284912	0.000266	20.888644
2692.752808	-3.000100	2.825500	-8.475800	28.275195	0.000269	20.890715
2693.750909	-2.987100	2.822900	-8.431200	28.282754	0.000268	20.895481
2694.753392	-2.969800	2.820700	-8.374400	28.343851	0.000267	20.906736
2695.753959	-3.000300	2.818400	-8.454900	28.362984	0.000267	20.911776
2696.758102	-2.994400	2.814800	-8.427400	28.369750	0.000266	20.905314
2697.756077	-3.017900	2.813600	-8.490000	28.394211	0.000266	20.917141
2698.752634	-3.018000	2.810400	-8.481000	28.387248	0.000267	20.898277
2699.761514	-3.034700	2.808400	-8.521400	28.358077	0.000266	20.923904
2700.750226	-2.969300	2.808600	-8.338100	28.337085	0.000266	20.902295
2701.750658	-3.019100	2.804000	-8.464800	28.329451	0.000266	20.948183
2702.754347	-3.017000	2.802200	-8.452900	28.337457	0.000266	20.904565
2703.753942	-3.005100	2.799300	-8.411400	28.319786	0.000268	20.899576
2704.754086	-3.007700	2.796400	-8.408600	28.270239	0.000268	20.896631
2705.753798	-2.985900	2.793900	-8.340600	28.260424	0.000268	20.915670
2706.757936	-2.994000	2.792000	-8.357800	28.273064	0.000266	20.913698
2707.757096	-3.023200	2.787300	-8.425000	28.329873	0.000267	20.916369
2708.753921	-2.995700	2.787000	-8.348700	28.376343	0.000267	20.919063
2709.760113	-3.010300	2.783600	-8.377300	28.422738	0.000268	20.922632
2710.752741	-3.017000	2.780700	-8.388000	28.475746	0.000267	20.918165
2711.751570	-3.014700	2.778400	-8.375500	28.477679	0.000268	20.914422
2712.756746	-3.012400	2.774700	-8.357400	28.545701	0.000266	20.898527
2713.759670	-2.992200	2.771500	-8.292100	28.554152	0.000266	20.918415
2714.757563	-2.997500	2.770100	-8.302400	28.578484	0.000264	20.900723
2715.753633	-2.973400	2.767100	-8.226800	28.549864	0.000267	20.923105
2716.759968	-2.964400	2.764800	-8.194100	28.542703	0.000267	20.898826
2717.753892	-2.989100	2.761700	-8.254000	28.483924	0.000267	20.889893
2718.757464	-3.025300	2.758000	-8.343500	28.445537	0.000267	20.911452
2719.756295	-2.990300	2.755400	-8.238400	28.429800	0.000265	20.900348
2720.756972	-3.038400	2.749500	-8.352600	28.398574	0.000266	20.897354
2721.759341	-2.968800	2.749300	-8.161200	28.340158	0.000266	20.907759
2722.762504	-2.996600	2.744800	-8.224600	28.335053	0.000266	20.901197
2723.765281	-2.990400	2.742200	-8.199700	28.336589	0.000266	20.902744
2724.757772	-2.992000	2.738100	-8.191000	28.349676	0.000265	20.907859
2725.758477	-2.959200	2.736500	-8.097100	28.352526	0.000265	20.888446
2726.759829	-3.055200	2.731800	-8.343300	28.405291	0.000268	20.899850
2727.758600	-3.003800	2.729500	-8.197500	28.467816	0.000266	20.892164
2728.757426	-2.977800	2.726300	-8.117200	28.523649	0.000267	20.900499
2729.767421	-3.032000	2.722200	-8.252700	28.584433	0.000267	20.895808
2730.761324	-3.005700	2.719300	-8.171800	28.625217	0.000267	20.888047
2731.759060	-3.007400	2.716900	-8.169600	28.629306	0.000267	20.900225
2732.763318	-3.001300	2.711400	-8.136300	28.635402	0.000266	20.894511
2733.760316	-3.011500	2.708700	-8.156600	28.640085	0.000266	20.878367
2734.762303	-2.995700	2.705800	-8.104600	28.618058	0.000265	20.879415
2735.764155	-2.988900	2.702400	-8.075600	28.638079	0.000266	20.881087
2736.766800	-2.991500	2.699000	-8.072600	28.589910	0.000266	20.888523
2737.765780	-2.975700	2.695900	-8.021400	28.541517	0.000267	20.890994
2738.767946	-2.980600	2.691000	-8.019800	28.538197	0.000266	20.870108
2739.768397	-2.982400	2.688000	-8.015700	28.507519	0.000266	20.862922
2740.764909	-2.980900	2.684100	-8.000400	28.470894	0.000266	20.873927
2741.769080	-3.003200	2.679700	-8.045100	28.457809	0.000266	20.861700
2742.770236	-3.001200	2.676300	-8.031200	28.464352	0.000266	20.898158
2743.769546	-2.988000	2.671700	-7.981500	28.470523	0.000267	20.888252
2744.765825	-3.000000	2.667700	-8.002300	28.497733	0.000268	20.884833
2745.771089	-2.987000	2.665000	-7.959200	28.544742	0.000268	20.881440
2746.772719	-2.996300	2.659900	-7.969300	28.582481	0.000269	20.884360
2747.771115	-3.013200	2.655100	-7.999800	28.632261	0.000267	20.876650
2748.771792	-3.002500	2.651100	-7.959700	28.672375	0.000266	20.878647
2749.771830	-3.010500	2.647500	-7.968900	28.699679	0.000268	20.863000
2750.767302	-3.024900	2.642100	-7.990800	28.683773	0.000267	20.880169
2751.769350	-3.006000	2.637800	-7.928400	28.676712	0.000266	20.879696
2752.767977	-3.033000	2.632800	-7.983800	28.697153	0.000267	20.868043
2753.771988	-3.010300	2.629300	-7.914200	28.737290	0.000268	20.867220
2754.774178	-2.975200	2.626500	-7.813600	28.789837	0.000266	20.867045
2755.772934	-3.003700	2.620600	-7.870300	28.777922	0.000268	20.881120
2756.773180	-3.000500	2.615200	-7.846100	28.752850	0.000269	20.870565
2757.770894	-3.003100	2.610200	-7.837900	28.690738	0.000266	20.865375
2758.776095	-3.010100	2.604300	-7.837900	28.634396	0.000268	20.855568
2759.770588	-2.983400	2.600600	-7.757300	28.608404	0.000267	20.846460
2760.772963	-3.002100	2.594200	-7.786500	28.598122	0.000265	20.866923
2761.779059	-2.995900	2.590100	-7.758400	28.628921	0.000266	20.852425
2762.772608	-2.997600	2.584700	-7.745200	28.647233	0.000267	20.861859
2763.774678	-3.019200	2.579200	-7.785800	28.696216	0.000267	20.858564
2764.779855	-2.994500	2.574100	-7.706400	28.726989	0.000267	20.853999
2765.775970	-2.970200	2.569700	-7.631800	28.671292	0.000267	20.860961
2766.777142	-2.963900	2.562500	-7.593000	28.685291	0.000268	20.858940
2767.779533	-2.988200	2.558400	-7.644500	28.678503	0.000265	20.854474
2768.772803	-2.999100	2.552000	-7.652800	28.686828	0.000266	20.853377
2769.791478	-3.029700	2.546000	-7.712600	28.739056	0.000267	20.836283
2770.776442	-3.006600	2.541200	-7.639100	28.764277	0.000267	20.850308
2771.773217	-2.988200	2.535400	-7.574900	28.804238	0.000266	20.848835
2772.775934	-2.994300	2.530400	-7.575400	28.865081	0.000267	20.861762
2773.779944	-3.003600	2.522200	-7.574300	28.866989	0.000267	20.848512
2774.777488	-2.993400	2.517300	-7.534200	28.859855	0.000266	20.854128
2775.778329	-3.001300	2.509300	-7.530500	28.899688	0.000266	20.850160
2776.782628	-3.001300	2.504700	-7.516400	28.941254	0.000266	20.834663
2777.778738	-2.979800	2.498300	-7.443500	28.962209	0.000268	20.874739
