LabVIEW Measurement	
Writer_Version	2
Reader_Version	2
Separator	Tab
Decimal_Separator	.
Multi_Headings	No
X_Columns	One
Time_Pref	Absolute
Operator	admin
Description	Clolumns are: time, Current, Voltage, Power, Battery Temp, and Chamber Temp
Date	2024/08/16
Time	13:06:06.104549407958984375
***End_of_Header***	
	
Channels	6						
Samples	1	1	1	1	1	1	
Date	2024/09/04	2024/09/04	2024/09/04	2024/09/04	2024/09/04	2024/09/04	
Time	13:13:12.97104644775390625	13:13:12.9775385856628417969	13:13:12.9835376739501953125	13:13:12.9552526473999023438	13:13:12.9552526473999023438	13:13:12.9552526473999023438	
X_Dimension	Time	Time	Time	Time	Time	Time	
X0	0.0000000000000000E+0	0.0000000000000000E+0	0.0000000000000000E+0	0.0000000000000000E+0	0.0000000000000000E+0	0.0000000000000000E+0	
Delta_X	1.000000	1.000000	1.000000	1.000000	1.000000	1.000000	
***End_of_Header***							
X_Value	Untitled	Untitled 1	Untitled 2	Untitled 3	Untitled 4	Untitled 5	Comment
0.000000	0.026351	4.100300	0.107960	20.974973	0.000930	20.863085
1.004348	-3.015300	3.931500	-11.853000	20.992288	0.000928	20.845315
2.002258	-2.998300	3.923800	-11.764000	20.983973	0.000928	20.851698
3.003161	-2.991000	3.919300	-11.721000	20.989687	0.000929	20.856464
4.004143	-3.008100	3.913900	-11.772000	20.985668	0.000925	20.853393
5.001742	-3.006000	3.910800	-11.755000	20.987865	0.000927	20.848004
5.999218	-2.996800	3.909700	-11.714000	20.979331	0.000924	20.838995
7.004980	-2.998200	3.907600	-11.714000	20.983071	0.000923	20.829459
8.001473	-3.027700	3.903600	-11.817000	20.982395	0.000922	20.832576
8.998003	-2.964400	3.904400	-11.573000	20.991901	0.000923	20.852515
10.010206	-3.031300	3.899500	-11.820000	20.995591	0.000922	20.851464
11.003598	-3.004200	3.899000	-11.712000	20.979571	0.000922	20.829752
12.001135	-3.024100	3.896600	-11.783000	20.999606	0.000920	20.843626
13.007154	-2.999500	3.895500	-11.683000	21.004223	0.000920	20.823589
14.004935	-3.019800	3.895200	-11.762000	20.996634	0.000917	20.829749
15.002846	-3.006700	3.891300	-11.699000	21.032663	0.000920	20.845869
16.004248	-3.004000	3.892100	-11.691000	21.010782	0.000918	20.832519
17.004270	-2.989600	3.891300	-11.632000	21.012497	0.000917	20.826174
18.007138	-3.005100	3.890400	-11.689000	21.033933	0.000917	20.834338
19.005784	-2.976500	3.889700	-11.576000	21.041295	0.000917	20.821787
20.006081	-2.993400	3.889000	-11.640000	21.024798	0.000913	20.842270
21.003887	-2.996200	3.888200	-11.649000	21.054589	0.000915	20.833662
22.007653	-3.006700	3.887900	-11.688000	21.040771	0.000913	20.831221
23.007935	-2.999900	3.885800	-11.655000	21.055619	0.000913	20.829002
24.005562	-3.001400	3.885300	-11.660000	21.048331	0.000912	20.827403
25.005861	-3.022900	3.882900	-11.736000	21.040920	0.000911	20.840378
26.007317	-3.000800	3.883500	-11.651000	21.060756	0.000911	20.812803
27.008873	-2.989000	3.884100	-11.608000	21.066770	0.000909	20.843948
28.015042	-3.000600	3.882900	-11.649000	21.063253	0.000910	20.839483
29.007522	-2.998600	3.882700	-11.641000	21.073757	0.000908	20.840979
30.007305	-3.001400	3.881000	-11.647000	21.083390	0.000910	20.825959
31.009890	-3.006600	3.880400	-11.665000	21.094515	0.000908	20.833768
32.006336	-3.007800	3.878300	-11.663000	21.095970	0.000909	20.836171
33.007426	-3.011500	3.880600	-11.685000	21.088435	0.000909	20.828635
34.009546	-2.995600	3.879100	-11.619000	21.096497	0.000907	20.831483
35.008348	-2.991500	3.877100	-11.597000	21.094626	0.000906	20.824396
36.011297	-2.992400	3.877300	-11.602000	21.105557	0.000907	20.815416
37.014521	-2.996500	3.877100	-11.617000	21.116757	0.000907	20.830411
38.017442	-3.012100	3.875500	-11.672000	21.118929	0.000907	20.828317
39.011935	-2.982100	3.877900	-11.563000	21.140536	0.000906	20.815791
40.016288	-3.010600	3.876100	-11.667000	21.152538	0.000907	20.825426
41.013583	-3.021300	3.873800	-11.704000	21.160770	0.000904	20.827496
42.010669	-3.004300	3.874500	-11.638000	21.161569	0.000906	20.805537
43.012376	-3.005000	3.874700	-11.641000	21.177063	0.000906	20.819613
44.012972	-3.016000	3.873000	-11.679000	21.169503	0.000904	20.817741
45.014983	-3.024100	3.873100	-11.712000	21.161322	0.000905	20.810505
46.013552	-3.007900	3.872600	-11.648000	21.189213	0.000905	20.816595
47.012127	-3.004600	3.872000	-11.632000	21.179556	0.000904	20.808831
48.011918	-2.990800	3.872400	-11.581000	21.191781	0.000903	20.819164
49.012390	-2.998000	3.871500	-11.606000	21.207720	0.000904	20.827047
50.012825	-3.004300	3.871600	-11.630000	21.212662	0.000903	20.814447
51.012260	-3.020500	3.871700	-11.694000	21.210391	0.000902	20.805063
52.014251	-3.025800	3.868400	-11.704000	21.205255	0.000904	20.814624
53.013313	-3.016300	3.869900	-11.672000	21.216326	0.000904	20.802940
54.013069	-3.006800	3.868800	-11.631000	21.232095	0.000904	20.801171
55.012466	-3.007500	3.869000	-11.635000	21.242794	0.000902	20.801917
56.014981	-2.984400	3.869700	-11.548000	21.228851	0.000905	20.827323
57.013143	-2.994000	3.869900	-11.584000	21.251754	0.000903	20.801871
58.014199	-2.997700	3.870300	-11.600000	21.265046	0.000902	20.810901
59.015405	-2.987400	3.870100	-11.561000	21.271706	0.000903	20.803814
60.015141	-3.016500	3.868100	-11.667000	21.266224	0.000904	20.815399
61.017325	-2.996800	3.869200	-11.594000	21.281065	0.000903	20.806539
62.015002	-2.977600	3.869000	-11.518000	21.278869	0.000903	20.795806
63.014746	-2.993600	3.866900	-11.575000	21.299224	0.000902	20.803368
64.019695	-2.981300	3.868100	-11.531000	21.296681	0.000902	20.815523
65.019424	-3.001900	3.867200	-11.607000	21.304565	0.000902	20.804444
66.017350	-3.011000	3.867200	-11.643000	21.284886	0.000901	20.792817
67.019178	-3.003800	3.866300	-11.613000	21.310055	0.000901	20.795711
68.021817	-3.014100	3.866700	-11.653000	21.317588	0.000901	20.798507
69.021701	-3.016100	3.865300	-11.657000	21.315272	0.000901	20.799508
70.020075	-2.989500	3.865500	-11.556000	21.331637	0.000901	20.812562
71.021961	-3.008800	3.864000	-11.625000	21.362438	0.000902	20.796911
72.019905	-2.988600	3.865400	-11.551000	21.339422	0.000903	20.791901
73.019526	-3.012500	3.864100	-11.639000	21.345653	0.000901	20.804774
74.024664	-3.003300	3.862600	-11.599000	21.326329	0.000900	20.779750
75.020305	-3.003800	3.863400	-11.604000	21.332391	0.000904	20.793402
76.020989	-2.991400	3.865100	-11.561000	21.351875	0.000902	20.788714
77.026329	-3.020400	3.862400	-11.664000	21.354966	0.000902	20.820255
78.023533	-2.995600	3.863800	-11.573000	21.363303	0.000901	20.786870
79.022198	-3.001600	3.863000	-11.594000	21.392459	0.000901	20.805610
80.024590	-3.005700	3.862900	-11.610000	21.406948	0.000902	20.806830
81.022161	-3.008400	3.862100	-11.617000	21.383834	0.000901	20.785600
82.027055	-2.983500	3.862900	-11.524000	21.403787	0.000900	20.788021
83.025395	-3.019300	3.862500	-11.661000	21.409301	0.000900	20.801124
84.022035	-2.996800	3.861600	-11.571000	21.419401	0.000902	20.795582
85.025670	-2.987700	3.862000	-11.537000	21.427985	0.000900	20.790894
86.025990	-3.001800	3.862000	-11.591000	21.436812	0.000902	20.772699
87.021969	-2.994500	3.860700	-11.560000	21.471784	0.000901	20.801527
88.026319	-2.996600	3.861200	-11.569000	21.451832	0.000900	20.791995
89.025213	-3.000100	3.862300	-11.585000	21.466250	0.000902	20.783188
90.022477	-3.007700	3.860400	-11.610000	21.472555	0.000900	20.798031
91.028736	-3.002600	3.860600	-11.591000	21.482411	0.000901	20.778022
92.024227	-3.003700	3.860200	-11.594000	21.478967	0.000902	20.785006
93.026824	-3.005700	3.859100	-11.599000	21.511837	0.000905	20.799404
94.025328	-2.999700	3.859400	-11.575000	21.482436	0.000902	20.790374
95.034274	-2.997900	3.858700	-11.567000	21.506381	0.000900	20.789677
96.026016	-2.994800	3.857800	-11.550000	21.506649	0.000902	20.770031
97.026927	-2.998600	3.858900	-11.571000	21.523617	0.000904	20.793174
98.029405	-3.012000	3.858700	-11.622000	21.529999	0.000903	20.780120
99.026255	-3.001500	3.857700	-11.577000	21.537231	0.000904	20.778821
100.026473	-3.023400	3.858000	-11.663000	21.538776	0.000903	20.788902
101.032054	-3.011800	3.858300	-11.618000	21.539547	0.000902	20.788725
102.027681	-3.013700	3.856600	-11.621000	21.558953	0.000904	20.794868
103.027564	-3.007400	3.856200	-11.596000	21.566383	0.000905	20.774327
104.036135	-2.983600	3.857200	-11.507000	21.557730	0.000904	20.765194
105.033659	-2.997800	3.857000	-11.561000	21.543960	0.000905	20.797883
106.028656	-2.989100	3.856900	-11.527000	21.565661	0.000904	20.784511
107.042335	-2.992000	3.857000	-11.539000	21.576630	0.000906	20.770831
108.027416	-2.992600	3.856500	-11.539000	21.595534	0.000904	20.767936
109.032429	-3.006000	3.855500	-11.588000	21.611743	0.000905	20.755233
110.034617	-2.991200	3.856500	-11.534000	21.609423	0.000907	20.763343
111.036931	-3.003000	3.855500	-11.577000	21.591615	0.000905	20.778240
112.036637	-3.005400	3.854800	-11.583000	21.622810	0.000907	20.769627
113.033385	-2.994900	3.856000	-11.547000	21.627544	0.000905	20.763933
114.034391	-2.999900	3.854800	-11.562000	21.625896	0.000907	20.774613
115.032040	-3.001500	3.855100	-11.570000	21.620634	0.000906	20.760812
116.037651	-2.985700	3.854600	-11.507000	21.631157	0.000906	20.795051
117.036784	-3.015800	3.853500	-11.620000	21.659359	0.000905	20.771590
118.037651	-3.006100	3.853400	-11.583000	21.651972	0.000907	20.757560
119.037010	-2.998200	3.855400	-11.558000	21.655784	0.000907	20.758055
120.040674	-2.987800	3.853100	-11.512000	21.673866	0.000907	20.775203
121.034894	-3.000600	3.853100	-11.560000	21.673063	0.000906	20.770131
122.037745	-2.980600	3.853100	-11.482000	21.669998	0.000908	20.753313
123.040349	-2.976500	3.853900	-11.469000	21.662887	0.000908	20.771327
124.042764	-3.006100	3.851400	-11.576000	21.673331	0.000907	20.781780
125.036650	-3.008000	3.853900	-11.592000	21.678939	0.000908	20.771744
126.036367	-2.993200	3.852600	-11.531000	21.696115	0.000909	20.765700
127.039790	-3.005800	3.852200	-11.577000	21.685592	0.000909	20.766549
128.047721	-3.017200	3.850700	-11.618000	21.719400	0.000908	20.767667
129.040050	-2.985200	3.851100	-11.496000	21.725263	0.000908	20.767370
130.040931	-2.998700	3.850000	-11.544000	21.719524	0.000910	20.765894
131.039145	-2.994000	3.851300	-11.530000	21.748865	0.000910	20.777716
132.042398	-2.977100	3.853600	-11.472000	21.738142	0.000908	20.765561
133.041873	-2.968600	3.852000	-11.434000	21.711603	0.000910	20.769821
134.040376	-2.986600	3.849200	-11.495000	21.739061	0.000910	20.769800
135.038517	-2.992800	3.849900	-11.521000	21.733944	0.000910	20.757092
136.037840	-3.002700	3.850000	-11.559000	21.757806	0.000910	20.758214
137.044523	-2.982700	3.850100	-11.483000	21.766828	0.000910	20.771037
138.041208	-3.016500	3.848400	-11.607000	21.775034	0.000909	20.767871
139.038797	-3.016400	3.849700	-11.611000	21.750222	0.000909	20.779073
140.042198	-3.017700	3.850300	-11.618000	21.802479	0.000911	20.764993
141.040413	-2.994500	3.848200	-11.523000	21.797762	0.000911	20.754108
142.040740	-3.005700	3.849600	-11.570000	21.793004	0.000913	20.764519
143.046235	-3.007000	3.849400	-11.574000	21.792827	0.000910	20.758178
144.039369	-2.999400	3.848300	-11.541000	21.794319	0.000912	20.772473
145.042324	-3.008100	3.848800	-11.576000	21.827208	0.000913	20.768882
146.040978	-2.999100	3.848400	-11.540000	21.802146	0.000911	20.757547
147.040437	-3.013600	3.848400	-11.596000	21.801824	0.000913	20.759596
148.040126	-3.000100	3.846900	-11.539000	21.829524	0.000911	20.752233
149.043550	-2.986000	3.848500	-11.491000	21.841313	0.000914	20.771620
150.042302	-3.015500	3.847800	-11.602000	21.854479	0.000914	20.767728
151.040223	-2.984000	3.847000	-11.478000	21.876715	0.000913	20.750155
152.041415	-2.985300	3.846800	-11.482000	21.869387	0.000916	20.763209
153.041304	-2.990200	3.846400	-11.501000	21.881551	0.000914	20.760212
154.041059	-2.997100	3.846800	-11.527000	21.898654	0.000914	20.774012
155.044248	-2.987000	3.847600	-11.492000	21.902316	0.000916	20.748279
156.041403	-2.995900	3.845700	-11.520000	21.904758	0.000916	20.756889
157.042706	-2.991600	3.846300	-11.506000	21.899774	0.000915	20.773711
158.042332	-2.974100	3.845300	-11.435000	21.907798	0.000916	20.758035
159.041020	-3.005100	3.845300	-11.555000	21.902308	0.000919	20.750168
160.042538	-3.010000	3.844900	-11.571000	21.896426	0.000919	20.728158
161.042123	-2.994100	3.843900	-11.508000	21.899194	0.000917	20.755586
162.046229	-2.997600	3.844200	-11.523000	21.897172	0.000918	20.740285
163.042403	-3.003800	3.844800	-11.547000	21.928036	0.000916	20.766913
164.041668	-3.019400	3.843200	-11.603000	21.925915	0.000917	20.751987
165.044277	-3.017200	3.843200	-11.594000	21.936534	0.000920	20.757875
166.043337	-3.008500	3.843900	-11.563000	21.953084	0.000919	20.754053
167.062439	-2.994600	3.842300	-11.504000	21.970239	0.000918	20.770278
168.043165	-2.997500	3.844100	-11.522000	21.951812	0.000922	20.758943
169.043797	-2.994000	3.842700	-11.504000	21.943236	0.000919	20.758894
170.044300	-3.002900	3.842000	-11.537000	21.947446	0.000920	20.763582
171.048566	-3.001200	3.844200	-11.537000	21.931040	0.000920	20.759488
172.060610	-2.993000	3.842100	-11.497000	21.967159	0.000922	20.764350
173.046889	-3.006500	3.842500	-11.551000	21.992840	0.000922	20.767772
174.046168	-3.010000	3.841800	-11.563000	21.978606	0.000922	20.752099
175.050305	-3.005000	3.841500	-11.542000	22.014250	0.000922	20.756013
176.046666	-2.997100	3.841200	-11.511000	22.002207	0.000922	20.762449
177.048186	-3.000600	3.841400	-11.526000	22.013055	0.000922	20.752446
178.052740	-2.990800	3.841700	-11.489000	22.034588	0.000921	20.755036
179.047798	-2.993300	3.841400	-11.497000	22.056499	0.000924	20.759427
180.049099	-2.983000	3.842000	-11.459000	22.050066	0.000924	20.760100
181.049006	-2.989800	3.840400	-11.480000	22.076222	0.000923	20.757361
182.050570	-2.995200	3.840100	-11.501000	22.046804	0.000926	20.759204
183.049179	-2.992100	3.840500	-11.489000	22.077113	0.000924	20.751140
184.050056	-3.001800	3.840800	-11.528000	22.067372	0.000925	20.757984
185.050481	-2.994600	3.840000	-11.499000	22.064551	0.000926	20.748047
186.051872	-3.006800	3.839700	-11.544000	22.025193	0.000925	20.764597
187.051366	-3.007700	3.839300	-11.547000	22.031598	0.000925	20.748249
188.051218	-2.996300	3.839800	-11.504000	22.067319	0.000927	20.760301
189.055200	-3.003100	3.838000	-11.524000	22.072677	0.000927	20.760924
190.053777	-2.988100	3.838400	-11.469000	22.094340	0.000927	20.772180
191.051374	-3.000800	3.838200	-11.516000	22.120640	0.000925	20.745878
192.057469	-3.013800	3.837600	-11.564000	22.132126	0.000926	20.773026
193.054285	-3.005600	3.837600	-11.533000	22.128136	0.000927	20.773298
194.054049	-3.006000	3.838600	-11.538000	22.128609	0.000929	20.764289
195.057866	-3.003300	3.837300	-11.524000	22.154007	0.000929	20.772173
196.055392	-3.005700	3.837600	-11.534000	22.167193	0.000929	20.764986
197.054578	-2.984900	3.839500	-11.459000	22.172378	0.000930	20.765435
198.058883	-2.987700	3.838400	-11.467000	22.187907	0.000930	20.754430
199.055841	-3.005100	3.836800	-11.528000	22.207197	0.000933	20.757622
200.057423	-3.032500	3.836000	-11.632000	22.188003	0.000931	20.756422
201.064425	-2.997400	3.837300	-11.501000	22.193958	0.000931	20.771394
202.061055	-3.004200	3.836500	-11.525000	22.214074	0.000932	20.752180
203.057022	-3.002100	3.834600	-11.510000	22.199414	0.000932	20.760736
204.063233	-2.994800	3.834800	-11.482000	22.196923	0.000933	20.760612
205.063464	-3.024800	3.834800	-11.598000	22.197820	0.000932	20.762933
206.058743	-2.980100	3.835200	-11.428000	22.188370	0.000931	20.790930
207.068450	-2.995300	3.835000	-11.485000	22.186776	0.000933	20.752823
208.062922	-2.994800	3.834800	-11.483000	22.182188	0.000935	20.764352
209.059261	-2.976100	3.835200	-11.413000	22.175286	0.000935	20.775934
210.065238	-2.985700	3.834800	-11.449000	22.201132	0.000933	20.765775
211.065390	-3.010900	3.832600	-11.539000	22.222298	0.000934	20.764207
212.063312	-2.979000	3.835600	-11.425000	22.227528	0.000937	20.768022
213.062822	-2.997500	3.834400	-11.492000	22.241014	0.000935	20.761610
214.061310	-2.993700	3.833800	-11.476000	22.238770	0.000935	20.765527
215.065098	-2.994600	3.833400	-11.479000	22.237851	0.000935	20.775039
216.064713	-3.007700	3.831400	-11.522000	22.252132	0.000935	20.776535
217.061779	-2.993400	3.831100	-11.467000	22.255941	0.000939	20.770392
218.061409	-3.006200	3.831100	-11.516000	22.277926	0.000939	20.753998
219.060997	-3.000900	3.833000	-11.502000	22.317855	0.000936	20.759367
220.064651	-3.010000	3.831100	-11.529000	22.296398	0.000938	20.766805
221.065699	-3.019900	3.831900	-11.571000	22.294355	0.000940	20.771872
222.066395	-2.987600	3.832300	-11.448000	22.298938	0.000941	20.768400
223.066684	-3.002200	3.831400	-11.501000	22.293956	0.000941	20.763411
224.069269	-3.000300	3.832700	-11.498000	22.270081	0.000942	20.767955
225.067838	-2.996900	3.830500	-11.477000	22.316216	0.000940	20.775743
226.068463	-3.010000	3.831300	-11.530000	22.308586	0.000942	20.779957
227.067255	-3.001700	3.831400	-11.500000	22.315714	0.000943	20.765283
228.066400	-3.003500	3.830500	-11.504000	22.323916	0.000943	20.758323
229.066150	-3.005400	3.831800	-11.514000	22.336450	0.000942	20.779409
230.067432	-3.002300	3.830000	-11.498000	22.350708	0.000944	20.770453
231.065787	-2.993200	3.830600	-11.465000	22.359482	0.000945	20.770230
232.068546	-3.003500	3.830000	-11.502000	22.343959	0.000945	20.775549
233.071489	-2.987700	3.830000	-11.442000	22.372041	0.000945	20.770952
234.069788	-2.985700	3.830400	-11.435000	22.406882	0.000946	20.792565
235.071643	-2.995400	3.828200	-11.466000	22.407850	0.000947	20.772197
236.071942	-3.002100	3.828400	-11.493000	22.419715	0.000948	20.771752
237.073777	-3.001600	3.828000	-11.489000	22.404016	0.000949	20.782583
238.070466	-2.999800	3.828600	-11.484000	22.418641	0.000947	20.775892
239.071673	-2.986500	3.828600	-11.434000	22.411790	0.000948	20.793687
240.074433	-2.994800	3.827400	-11.461000	22.444184	0.000951	20.762116
241.076073	-2.985700	3.827200	-11.426000	22.449046	0.000949	20.776943
242.072281	-3.012100	3.826900	-11.526000	22.448304	0.000950	20.773355
243.076923	-3.016700	3.827900	-11.547000	22.438481	0.000951	20.770630
244.076042	-3.013200	3.826800	-11.529000	22.445460	0.000951	20.795163
245.075773	-2.993700	3.828300	-11.460000	22.452809	0.000951	20.773599
246.073100	-3.005100	3.826800	-11.499000	22.471006	0.000952	20.772382
247.076737	-2.990100	3.827300	-11.443000	22.483962	0.000953	20.770185
248.075519	-3.022500	3.825500	-11.561000	22.495922	0.000953	20.789749
249.086176	-3.015100	3.824100	-11.529000	22.512394	0.000954	20.800555
250.077738	-2.999000	3.827000	-11.476000	22.494901	0.000955	20.788252
251.075089	-2.992200	3.825600	-11.446000	22.509649	0.000957	20.782159
252.073922	-2.998200	3.825400	-11.468000	22.519146	0.000956	20.781713
253.074590	-2.996400	3.825900	-11.463000	22.514609	0.000958	20.796136
254.073922	-2.987900	3.824800	-11.427000	22.544609	0.000959	20.799628
255.073681	-2.958400	3.825800	-11.317000	22.524029	0.000958	20.777594
256.074923	-2.978500	3.825600	-11.394000	22.540973	0.000958	20.761848
257.074238	-2.983300	3.824200	-11.406000	22.539722	0.000960	20.750163
258.074548	-2.983800	3.823000	-11.405000	22.550039	0.000957	20.784204
259.076834	-2.990300	3.823100	-11.431000	22.550710	0.000960	20.802894
260.075434	-2.989500	3.823800	-11.430000	22.581931	0.000960	20.784377
261.077980	-3.014300	3.821000	-11.516000	22.563493	0.000963	20.784876
262.077101	-2.981900	3.823700	-11.400000	22.548668	0.000962	20.798478
263.076740	-3.002600	3.823200	-11.478000	22.575703	0.000962	20.804691
264.078395	-2.973000	3.824000	-11.368000	22.566330	0.000964	20.784398
265.078242	-2.989800	3.822500	-11.428000	22.553773	0.000963	20.781780
266.078254	-2.984000	3.821700	-11.403000	22.555388	0.000962	20.800940
267.077507	-3.004800	3.822500	-11.484000	22.544774	0.000963	20.783673
268.087327	-3.016300	3.822200	-11.528000	22.584694	0.000964	20.792360
269.076661	-3.024300	3.819900	-11.550000	22.570936	0.000963	20.786167
270.079025	-3.031200	3.821000	-11.580000	22.585036	0.000965	20.808350
271.078642	-2.980000	3.823200	-11.390000	22.601206	0.000967	20.792303
272.077725	-3.005100	3.821100	-11.481000	22.631108	0.000967	20.779104
273.078302	-2.996600	3.821300	-11.449000	22.603697	0.000965	20.793849
274.082372	-2.996900	3.820100	-11.448000	22.604121	0.000965	20.787161
275.078551	-3.012700	3.819100	-11.505000	22.602330	0.000966	20.799118
276.080979	-2.992400	3.820300	-11.429000	22.588371	0.000970	20.801733
277.084234	-2.999700	3.819000	-11.454000	22.589816	0.000966	20.779946
278.083967	-2.993000	3.818800	-11.429000	22.608378	0.000969	20.792847
279.081862	-3.009600	3.819000	-11.492000	22.604912	0.000969	20.822092
280.089308	-2.999900	3.818800	-11.455000	22.624148	0.000969	20.793944
281.081371	-2.994100	3.819400	-11.433000	22.622350	0.000972	20.796885
282.081077	-2.994100	3.817300	-11.429000	22.621378	0.000971	20.804446
283.086006	-2.995100	3.818300	-11.435000	22.670685	0.000972	20.805943
284.080741	-2.968100	3.819300	-11.334000	22.685734	0.000972	20.809163
285.080537	-2.990700	3.816900	-11.414000	22.685455	0.000972	20.813625
286.081036	-2.985100	3.816600	-11.391000	22.676086	0.000973	20.821784
287.079724	-3.011800	3.815000	-11.488000	22.691358	0.000971	20.796304
288.090459	-3.001000	3.816400	-11.452000	22.704180	0.000974	20.814838
289.082273	-2.999600	3.816600	-11.447000	22.709889	0.000974	20.810599
290.079448	-3.019600	3.815000	-11.518000	22.731561	0.000974	20.807651
291.081362	-2.992300	3.816600	-11.418000	22.737114	0.000973	20.814162
292.082526	-3.015000	3.814600	-11.500000	22.736291	0.000974	20.806699
293.082969	-3.026400	3.814000	-11.542000	22.720621	0.000975	20.801908
294.080781	-2.998600	3.815800	-11.441000	22.722012	0.000976	20.825587
295.083610	-3.015600	3.814500	-11.502000	22.727141	0.000977	20.805595
296.081688	-3.010900	3.814400	-11.484000	22.708907	0.000977	20.809141
297.080706	-3.005200	3.812600	-11.457000	22.732023	0.000977	20.816649
298.087842	-3.002800	3.814100	-11.452000	22.758852	0.000977	20.808910
299.081493	-3.005600	3.813200	-11.460000	22.787203	0.000978	20.814077
300.082335	-2.987200	3.814400	-11.393000	22.774695	0.000980	20.827151
301.082538	-3.013400	3.814200	-11.493000	22.795744	0.000980	20.810779
302.082521	-3.026600	3.812900	-11.539000	22.836597	0.000981	20.812824
303.081260	-2.993400	3.813300	-11.414000	22.819233	0.000980	20.834309
304.087352	-3.001800	3.812700	-11.444000	22.825488	0.000980	20.821610
305.082822	-2.997000	3.814100	-11.430000	22.838783	0.000982	20.825445
306.085898	-3.004100	3.812600	-11.451000	22.834425	0.000980	20.824398
307.085733	-2.988300	3.813000	-11.393000	22.818830	0.000983	20.798818
308.084052	-2.988200	3.812800	-11.392000	22.813249	0.000982	20.803659
309.084216	-3.010300	3.811000	-11.471000	22.835964	0.000984	20.817880
310.084770	-3.019800	3.810600	-11.506000	22.838635	0.000982	20.818184
311.085401	-2.985200	3.812000	-11.379000	22.850810	0.000984	20.833226
312.087656	-2.978900	3.812400	-11.355000	22.850563	0.000984	20.827288
313.089837	-3.023800	3.809700	-11.519000	22.862445	0.000983	20.819752
314.088835	-3.005000	3.810900	-11.451000	22.866853	0.000986	20.809943
315.089618	-2.996000	3.810300	-11.415000	22.882694	0.000985	20.821545
316.092422	-3.028900	3.809200	-11.536000	22.891962	0.000986	20.832727
317.088545	-2.999700	3.809400	-11.426000	22.914951	0.000986	20.838215
318.088796	-2.988900	3.810300	-11.387000	22.905206	0.000989	20.829400
319.094404	-3.007100	3.809100	-11.451000	22.904906	0.000986	20.829100
320.089704	-2.997900	3.809000	-11.417000	22.908399	0.000988	20.830703
321.088271	-3.000900	3.807900	-11.427000	22.911062	0.000989	20.831948
322.090096	-2.997300	3.809900	-11.418000	22.916738	0.000988	20.825781
323.088659	-3.005600	3.807100	-11.441000	22.938784	0.000989	20.852134
324.088582	-2.979100	3.809300	-11.348000	22.949097	0.000988	20.852035
325.090708	-2.982500	3.809700	-11.361000	22.933874	0.000991	20.834888
326.088533	-3.009700	3.807100	-11.456000	22.926228	0.000991	20.837659
327.090137	-3.002300	3.806600	-11.426000	22.921940	0.000993	20.849010
328.092123	-2.987000	3.807500	-11.372000	22.921615	0.000992	20.859115
329.087908	-2.995700	3.807900	-11.405000	22.926644	0.000994	20.814843
330.088051	-2.987600	3.807700	-11.374000	22.933542	0.000993	20.819857
331.101885	-3.006400	3.806500	-11.442000	22.940267	0.000993	20.848405
332.090646	-2.987200	3.806800	-11.370000	22.910648	0.000994	20.828689
333.092395	-3.013800	3.805800	-11.469000	22.922975	0.000994	20.835822
334.104726	-3.002900	3.805000	-11.424000	22.948856	0.000994	20.835199
335.092485	-3.019000	3.805300	-11.486000	22.950819	0.000993	20.835270
336.093240	-3.002500	3.804800	-11.423000	22.939631	0.000996	20.837810
337.098866	-3.003600	3.803900	-11.424000	22.957819	0.000996	20.851766
338.096094	-3.014300	3.804800	-11.468000	22.983347	0.000998	20.841306
339.094989	-3.022600	3.804500	-11.499000	22.966137	0.000998	20.846823
340.099547	-3.046900	3.802500	-11.585000	22.974125	0.000998	20.838706
341.092897	-3.023100	3.802600	-11.495000	22.989870	0.000999	20.833143
342.092910	-3.018700	3.803900	-11.482000	22.985381	0.000999	20.858516
343.097681	-3.015900	3.803300	-11.468000	23.029815	0.000999	20.849933
344.092682	-2.993100	3.803600	-11.383000	23.018528	0.000998	20.843365
345.093307	-3.018900	3.802200	-11.477000	23.020294	0.000999	20.836600
346.097133	-3.005200	3.802700	-11.427000	23.016081	0.000999	20.849922
347.105751	-2.990400	3.802100	-11.369000	23.051523	0.001002	20.842760
348.095603	-2.990800	3.802200	-11.370000	23.021135	0.001001	20.849770
349.097217	-3.016800	3.801300	-11.467000	23.036098	0.001000	20.841055
350.096156	-3.013700	3.799700	-11.450000	23.054627	0.001003	20.862465
351.096114	-2.959400	3.803800	-11.256000	23.061100	0.001003	20.865157
352.100458	-2.992300	3.799600	-11.368000	23.063841	0.001003	20.864584
353.094906	-2.988700	3.802400	-11.363000	23.066578	0.001001	20.865904
354.098013	-2.995400	3.800400	-11.382000	23.060447	0.001003	20.850279
355.100242	-3.017200	3.799200	-11.462000	23.058649	0.001003	20.875503
356.106868	-3.011100	3.799600	-11.439000	23.052868	0.001004	20.849798
357.101544	-3.015100	3.798600	-11.452000	23.061814	0.001004	20.861131
358.104043	-3.003800	3.798300	-11.408000	23.081459	0.001004	20.867064
359.101823	-2.997500	3.799000	-11.387000	23.074806	0.001005	20.883630
360.101337	-2.991300	3.799600	-11.364000	23.077818	0.001007	20.860572
361.103757	-2.995900	3.799300	-11.381000	23.105588	0.001006	20.874173
362.103757	-3.016800	3.798100	-11.457000	23.095598	0.001006	20.866059
363.102777	-3.003400	3.799600	-11.411000	23.121373	0.001009	20.856800
364.105766	-2.999200	3.796800	-11.387000	23.127394	0.001007	20.854772
365.104218	-3.001900	3.797600	-11.400000	23.153193	0.001008	20.881571
366.107177	-2.998400	3.796500	-11.381000	23.131649	0.001007	20.869941
367.106525	-3.010000	3.797800	-11.429000	23.149107	0.001008	20.872736
368.103001	-2.988000	3.796900	-11.344000	23.159937	0.001009	20.875528
369.103889	-3.000200	3.796600	-11.389000	23.172787	0.001008	20.887929
370.105662	-2.994600	3.795800	-11.366000	23.160011	0.001010	20.872283
371.104792	-3.022400	3.796600	-11.474000	23.173359	0.001008	20.895140
372.105699	-2.998900	3.794400	-11.378000	23.163292	0.001010	20.884578
373.105389	-2.987800	3.795100	-11.338000	23.168800	0.001008	20.886305
374.107711	-3.009000	3.794900	-11.418000	23.193005	0.001011	20.877845
375.109668	-2.996600	3.795700	-11.373000	23.189139	0.001011	20.896254
376.107024	-2.987100	3.793800	-11.332000	23.182536	0.001011	20.886319
377.110665	-3.001000	3.794300	-11.385000	23.203602	0.001012	20.875662
378.107093	-2.989900	3.793500	-11.341000	23.199693	0.001011	20.863211
379.109139	-3.013400	3.793400	-11.429000	23.229346	0.001013	20.885813
380.109134	-2.976500	3.794800	-11.294000	23.219710	0.001013	20.892278
381.106881	-2.974500	3.795900	-11.290000	23.228675	0.001012	20.888460
382.112107	-3.006500	3.792700	-11.401000	23.177080	0.001012	20.893654
383.109872	-3.009600	3.791900	-11.411000	23.210346	0.001012	20.882420
384.107565	-2.996200	3.793000	-11.363000	23.213782	0.001013	20.889656
385.117241	-2.985200	3.793600	-11.323000	23.252876	0.001013	20.896591
386.111160	-2.998000	3.791500	-11.366000	23.251029	0.001013	20.876250
387.110012	-3.008200	3.791200	-11.403000	23.271628	0.001015	20.890254
388.116061	-3.037200	3.790500	-11.511000	23.257928	0.001018	20.907343
389.111142	-2.971200	3.792900	-11.268000	23.259125	0.001017	20.877251
390.110117	-2.970300	3.790900	-11.259000	23.259471	0.001017	20.885658
391.116393	-3.009400	3.789200	-11.402000	23.261435	0.001016	20.897581
392.114541	-3.017000	3.790700	-11.434000	23.252445	0.001016	20.890944
393.112245	-2.986600	3.789600	-11.317000	23.280833	0.001015	20.886677
394.112378	-2.994900	3.790500	-11.351000	23.271790	0.001016	20.881882
395.113747	-3.000600	3.790200	-11.370000	23.260036	0.001017	20.899973
396.112520	-2.995100	3.788800	-11.347000	23.257593	0.001019	20.893732
397.118326	-2.989800	3.789100	-11.327000	23.279583	0.001018	20.910552
398.113427	-3.009600	3.787900	-11.399000	23.297307	0.001019	20.912194
399.112512	-3.005900	3.789400	-11.388000	23.318847	0.001019	20.914816
400.115259	-2.984400	3.788800	-11.306000	23.293473	0.001019	20.887965
401.115660	-3.016300	3.786900	-11.421000	23.301018	0.001020	20.889362
402.112479	-3.010100	3.788000	-11.401000	23.289836	0.001021	20.913241
403.114714	-3.018700	3.786100	-11.428000	23.299369	0.001019	20.919475
404.115048	-2.986500	3.787100	-11.309000	23.323970	0.001019	20.908097
405.114677	-3.018400	3.787200	-11.430000	23.329870	0.001020	20.938188
406.117763	-3.003600	3.786800	-11.373000	23.328476	0.001021	20.908345
407.132792	-3.016900	3.785500	-11.419000	23.370256	0.001021	20.914182
408.114421	-3.011100	3.784200	-11.394000	23.356487	0.001022	20.914607
409.118256	-3.005800	3.785900	-11.378000	23.355565	0.001021	20.905624
410.115793	-3.016200	3.784600	-11.414000	23.365698	0.001020	20.910563
411.115119	-2.995000	3.786200	-11.338000	23.401323	0.001021	20.925405
412.119770	-3.021200	3.784400	-11.433000	23.385359	0.001022	20.916518
413.119597	-2.995400	3.785200	-11.337000	23.396988	0.001021	20.895459
414.114721	-2.995900	3.783300	-11.333000	23.378934	0.001023	20.906760
415.123950	-3.012800	3.783100	-11.397000	23.402386	0.001023	20.909877
416.118333	-3.024400	3.782300	-11.438000	23.390983	0.001024	20.915517
417.118365	-2.983700	3.784600	-11.291000	23.388367	0.001024	20.911473
418.115993	-2.988600	3.783400	-11.306000	23.389956	0.001025	20.886515
419.117914	-2.998800	3.781200	-11.338000	23.396508	0.001023	20.919157
420.116319	-2.985300	3.783600	-11.294000	23.410323	0.001024	20.898866
421.119293	-2.984100	3.781500	-11.283000	23.416942	0.001025	20.907397
422.118468	-2.979400	3.782800	-11.269000	23.424811	0.001025	20.903905
423.117842	-2.983900	3.782000	-11.284000	23.426004	0.001026	20.898463
424.120540	-3.019300	3.780900	-11.415000	23.454211	0.001024	20.893071
425.119389	-2.983500	3.782800	-11.286000	23.434466	0.001024	20.908841
426.117390	-3.015100	3.779600	-11.395000	23.459361	0.001025	20.892544
427.122060	-2.983200	3.781700	-11.280000	23.458415	0.001026	20.901552
428.120214	-2.997500	3.779500	-11.328000	23.462521	0.001026	20.901874
429.119651	-2.993700	3.780100	-11.316000	23.500886	0.001025	20.883907
430.129413	-3.004800	3.779200	-11.354000	23.491351	0.001025	20.905642
431.125390	-2.986000	3.779600	-11.284000	23.487218	0.001028	20.886327
432.120395	-2.999900	3.779700	-11.338000	23.493664	0.001027	20.891366
433.126941	-3.005500	3.779400	-11.358000	23.508603	0.001027	20.892116
434.124554	-2.995200	3.779300	-11.319000	23.490278	0.001026	20.905041
435.124170	-3.011100	3.777500	-11.374000	23.490550	0.001028	20.861694
436.124504	-3.028000	3.776300	-11.433000	23.493413	0.001027	20.882581
437.124910	-3.010100	3.778500	-11.373000	23.512433	0.001028	20.900222
438.120130	-2.996900	3.777900	-11.321000	23.538996	0.001027	20.896977
439.123694	-3.016900	3.777500	-11.396000	23.522490	0.001030	20.895605
440.126160	-2.993600	3.777400	-11.307000	23.504092	0.001027	20.874319
441.124396	-2.993500	3.776200	-11.303000	23.506256	0.001029	20.872221
442.123936	-3.012900	3.774700	-11.371000	23.507276	0.001029	20.883200
443.125203	-2.975800	3.777200	-11.239000	23.492114	0.001030	20.867055
444.120869	-2.980000	3.777900	-11.257000	23.503559	0.001030	20.886586
445.126232	-3.011400	3.774400	-11.365000	23.526768	0.001031	20.897048
446.120772	-2.990200	3.775600	-11.289000	23.516782	0.001030	20.883246
447.121136	-3.001600	3.775100	-11.330000	23.510509	0.001032	20.875062
448.123786	-2.989000	3.776100	-11.284000	23.503982	0.001034	20.885588
449.125088	-3.005000	3.774300	-11.341000	23.515854	0.001033	20.883264
450.124289	-3.002300	3.773700	-11.328000	23.536271	0.001032	20.873385
451.122649	-2.978700	3.775100	-11.244000	23.528925	0.001032	20.883091
452.126432	-2.999400	3.772600	-11.314000	23.520560	0.001031	20.865223
453.127242	-2.986600	3.773200	-11.268000	23.531562	0.001032	20.882415
454.125116	-3.026900	3.771400	-11.415000	23.559714	0.001034	20.877918
455.127912	-2.983500	3.773500	-11.257000	23.554362	0.001034	20.870658
456.130207	-3.001900	3.771800	-11.322000	23.552220	0.001033	20.887001
457.128571	-3.002400	3.771900	-11.324000	23.574797	0.001035	20.869331
458.125977	-2.987200	3.773200	-11.270000	23.553434	0.001033	20.876365
459.126368	-3.007900	3.771500	-11.344000	23.567349	0.001034	20.859021
460.129385	-2.992600	3.771200	-11.284000	23.600878	0.001035	20.867976
461.124646	-3.006800	3.770100	-11.335000	23.598513	0.001035	20.876510
462.132635	-3.000200	3.769600	-11.309000	23.614838	0.001036	20.857790
463.127653	-2.993600	3.770300	-11.286000	23.624595	0.001034	20.868992
464.128809	-3.012600	3.771000	-11.359000	23.629995	0.001036	20.873457
465.125098	-3.005200	3.769500	-11.327000	23.605647	0.001035	20.857111
466.132052	-3.021900	3.769200	-11.389000	23.598324	0.001035	20.861148
467.134973	-3.004500	3.770200	-11.326000	23.624238	0.001034	20.873376
468.127264	-3.021300	3.767900	-11.383000	23.592567	0.001034	20.876713
469.127926	-2.996800	3.769000	-11.294000	23.612058	0.001035	20.873019
470.128237	-3.011300	3.768500	-11.346000	23.645215	0.001036	20.874965
471.127911	-2.989500	3.767900	-11.262000	23.631277	0.001036	20.851510
472.131114	-3.001600	3.767000	-11.307000	23.644294	0.001037	20.873568
473.132416	-3.001000	3.767700	-11.305000	23.625125	0.001035	20.863834
474.132237	-3.006400	3.766900	-11.324000	23.585864	0.001035	20.850555
475.129761	-3.003600	3.766500	-11.312000	23.598857	0.001035	20.865476
476.134301	-2.991500	3.766600	-11.265000	23.570926	0.001036	20.862132
477.132473	-3.011700	3.765600	-11.339000	23.568484	0.001038	20.865374
478.131366	-3.018400	3.765900	-11.366000	23.555963	0.001036	20.883641
479.133419	-3.003900	3.764900	-11.307000	23.545953	0.001036	20.858435
480.132197	-2.983300	3.765900	-11.234000	23.565544	0.001038	20.857685
481.133144	-3.000000	3.765700	-11.295000	23.556486	0.001036	20.850028
482.134987	-3.002800	3.765000	-11.303000	23.570023	0.001039	20.868813
483.134384	-3.008900	3.764500	-11.326000	23.586210	0.001039	20.864178
484.135075	-3.026500	3.763400	-11.389000	23.595642	0.001039	20.853719
485.133268	-3.004000	3.765200	-11.308000	23.606591	0.001037	20.859953
486.137137	-2.987900	3.764400	-11.247000	23.597954	0.001037	20.847502
487.133913	-3.022500	3.762400	-11.371000	23.612765	0.001036	20.857133
488.134685	-2.997600	3.763400	-11.279000	23.602808	0.001038	20.854264
489.138645	-3.019500	3.762100	-11.358000	23.614657	0.001037	20.859978
490.136338	-3.026800	3.762300	-11.387000	23.599815	0.001038	20.849367
491.133584	-2.983900	3.762600	-11.226000	23.588170	0.001037	20.867564
492.135411	-2.989700	3.763000	-11.249000	23.634194	0.001035	20.855382
493.137051	-3.003600	3.761300	-11.297000	23.626231	0.001038	20.829382
494.136414	-3.000300	3.761200	-11.283000	23.647267	0.001038	20.860427
495.137938	-3.007800	3.759800	-11.308000	23.672856	0.001037	20.856210
496.140491	-3.019900	3.760100	-11.353000	23.646346	0.001037	20.844806
497.137787	-2.999000	3.760500	-11.276000	23.688142	0.001038	20.848776
498.139994	-3.009700	3.758400	-11.311000	23.697078	0.001036	20.853942
499.137823	-2.993100	3.759200	-11.251000	23.675722	0.001039	20.852445
500.139210	-3.020800	3.757900	-11.351000	23.695836	0.001038	20.862653
501.140710	-2.993700	3.761100	-11.257000	23.696828	0.001039	20.863173
502.137524	-3.003600	3.757600	-11.286000	23.687672	0.001037	20.834081
503.139112	-3.006500	3.759100	-11.300000	23.709251	0.001039	20.842913
504.143921	-2.997100	3.757500	-11.260000	23.668581	0.001038	20.832011
505.139058	-2.983800	3.756900	-11.208000	23.674949	0.001039	20.829860
506.137516	-3.007400	3.757100	-11.297000	23.665768	0.001039	20.823975
507.141008	-2.989300	3.757800	-11.232000	23.654170	0.001038	20.851702
508.139359	-3.012400	3.755600	-11.311000	23.666989	0.001038	20.846536
509.139092	-3.012300	3.755900	-11.313000	23.675203	0.001039	20.843864
510.141370	-3.002700	3.755000	-11.274000	23.663506	0.001037	20.834509
511.139016	-3.003100	3.755700	-11.278000	23.668730	0.001037	20.828841
512.139843	-3.013500	3.756100	-11.317000	23.705319	0.001039	20.843238
513.139320	-2.992700	3.754800	-11.236000	23.671020	0.001039	20.853421
514.140793	-3.006200	3.755100	-11.288000	23.702411	0.001038	20.837478
515.139601	-2.996100	3.754900	-11.250000	23.717072	0.001041	20.829417
516.138350	-2.989400	3.755300	-11.225000	23.699743	0.001038	20.825320
517.147365	-3.003900	3.754200	-11.276000	23.724413	0.001040	20.848156
518.143379	-3.009700	3.752600	-11.293000	23.684093	0.001039	20.825277
519.140315	-2.997600	3.754700	-11.254000	23.693722	0.001039	20.833508
520.141513	-3.012300	3.754300	-11.307000	23.682519	0.001040	20.844561
521.141349	-3.019000	3.753300	-11.330000	23.688322	0.001039	20.816240
522.140083	-3.002900	3.752200	-11.266000	23.700841	0.001039	20.822153
523.147138	-2.990400	3.752400	-11.220000	23.706516	0.001040	20.846808
524.144245	-2.994200	3.752300	-11.235000	23.708361	0.001038	20.835383
525.140174	-3.007300	3.750900	-11.280000	23.731853	0.001039	20.822426
526.145769	-3.002300	3.751700	-11.262000	23.718092	0.001041	20.839923
527.152123	-3.015300	3.750500	-11.309000	23.735068	0.001039	20.826123
528.139978	-3.012500	3.751300	-11.298000	23.727526	0.001038	20.822829
529.143109	-2.991800	3.750200	-11.218000	23.737507	0.001039	20.819559
530.141473	-3.011400	3.749900	-11.292000	23.727152	0.001040	20.817712
531.139190	-3.013800	3.749600	-11.299000	23.695864	0.001038	20.820009
532.143090	-3.005800	3.749100	-11.268000	23.721378	0.001039	20.817613
533.141643	-3.019000	3.748500	-11.315000	23.749457	0.001041	20.818264
534.143344	-3.003800	3.749000	-11.261000	23.767978	0.001038	20.802695
535.144802	-3.004400	3.748500	-11.262000	23.782762	0.001038	20.804241
536.149606	-2.992500	3.747900	-11.215000	23.783210	0.001038	20.800897
537.143491	-3.007800	3.747000	-11.269000	23.794541	0.001039	20.810362
538.144189	-2.979200	3.748100	-11.165000	23.788418	0.001038	20.796637
539.144927	-2.997300	3.746700	-11.229000	23.814251	0.001040	20.845297
540.147673	-2.981200	3.746800	-11.168000	23.822968	0.001038	20.840286
541.144738	-2.976700	3.747900	-11.155000	23.838428	0.001038	20.813115
542.144881	-2.998100	3.745300	-11.228000	23.848732	0.001038	20.817283
543.147706	-2.988600	3.747100	-11.197000	23.891389	0.001039	20.822124
544.145792	-2.964500	3.747200	-11.108000	23.865258	0.001040	20.812043
545.148464	-3.005100	3.746800	-11.258000	23.864242	0.001040	20.819084
546.146725	-2.977700	3.747500	-11.158000	23.838357	0.001038	20.814466
547.145946	-2.998500	3.744700	-11.227000	23.822484	0.001040	20.795705
548.147113	-2.990400	3.746400	-11.201000	23.822480	0.001041	20.790960
549.147311	-2.981600	3.745200	-11.165000	23.819897	0.001038	20.810655
550.147017	-2.989400	3.745100	-11.194000	23.850730	0.001040	20.834932
551.150527	-2.986300	3.744600	-11.181000	23.857508	0.001042	20.787202
552.155283	-3.012400	3.742800	-11.274000	23.890062	0.001039	20.810835
553.146513	-3.004400	3.743300	-11.245000	23.923310	0.001041	20.805768
554.150771	-3.008400	3.744000	-11.263000	23.927445	0.001041	20.813234
555.149123	-2.997100	3.743400	-11.218000	23.934538	0.001040	20.818450
556.149163	-3.006100	3.741200	-11.246000	23.917537	0.001042	20.797609
557.157025	-2.977800	3.743200	-11.146000	23.924580	0.001042	20.795188
558.148955	-2.981500	3.742700	-11.158000	23.909128	0.001041	20.796763
559.151011	-2.999800	3.741900	-11.223000	23.915695	0.001042	20.808564
560.150423	-2.996100	3.742300	-11.211000	23.905842	0.001040	20.814331
561.151885	-3.003000	3.741100	-11.234000	23.927022	0.001041	20.814706
562.150311	-2.983600	3.740400	-11.158000	23.955117	0.001043	20.811111
563.151660	-2.976100	3.740400	-11.130000	23.971267	0.001041	20.789849
564.154052	-2.978500	3.739500	-11.137000	23.954097	0.001042	20.799183
565.154650	-3.001400	3.739400	-11.221000	23.938589	0.001041	20.788373
566.154086	-3.013500	3.738800	-11.265000	23.931747	0.001041	20.814229
567.156800	-2.987100	3.739200	-11.167000	23.933687	0.001043	20.787252
568.153579	-2.985700	3.738800	-11.160000	23.932491	0.001042	20.793164
569.152496	-3.038900	3.737600	-11.356000	23.940501	0.001042	20.788869
570.157865	-3.005300	3.737700	-11.232000	23.948635	0.001041	20.801293
571.158788	-2.981700	3.738300	-11.145000	23.940600	0.001041	20.779959
572.156503	-2.966900	3.738400	-11.090000	23.935639	0.001041	20.800115
573.157860	-2.991600	3.738400	-11.182000	23.950075	0.001043	20.805107
574.157859	-2.973200	3.737300	-11.111000	23.938102	0.001041	20.783144
575.157301	-3.012500	3.735100	-11.251000	23.925163	0.001042	20.790083
576.159440	-2.996800	3.737000	-11.198000	23.930812	0.001040	20.795748
577.160185	-3.004600	3.735500	-11.222000	23.942457	0.001040	20.800313
578.158874	-3.017500	3.735100	-11.269000	23.954624	0.001038	20.799237
579.161796	-3.027800	3.735200	-11.308000	23.924711	0.001041	20.783466
580.159545	-2.999000	3.735600	-11.202000	23.958054	0.001041	20.796513
581.162387	-3.020700	3.733500	-11.277000	23.967958	0.001042	20.772306
582.162577	-2.994800	3.733900	-11.182000	23.988886	0.001038	20.784284
583.163226	-2.998900	3.736300	-11.204000	23.998543	0.001038	20.783063
584.161840	-2.990200	3.733100	-11.163000	23.966833	0.001040	20.803894
585.164936	-3.023400	3.733300	-11.286000	23.961286	0.001041	20.777469
586.161362	-3.018700	3.732200	-11.266000	23.954243	0.001040	20.787950
587.160813	-3.026400	3.732800	-11.296000	23.958223	0.001039	20.768708
588.163390	-3.008000	3.731500	-11.224000	23.962055	0.001039	20.785353
589.165402	-3.010100	3.732600	-11.234000	23.968001	0.001040	20.779935
590.162678	-2.981000	3.732100	-11.124000	23.939705	0.001038	20.768630
591.161356	-2.998100	3.731200	-11.185000	23.965090	0.001039	20.785551
592.164935	-2.988600	3.732100	-11.153000	23.966156	0.001039	20.789939
593.162636	-2.995600	3.732100	-11.179000	23.985044	0.001039	20.761939
594.163133	-3.005600	3.732200	-11.216000	23.981014	0.001039	20.789666
595.168144	-2.989000	3.730500	-11.149000	23.994846	0.001040	20.760863
596.163676	-3.010000	3.731800	-11.230000	23.996960	0.001039	20.771518
597.163939	-2.998800	3.729500	-11.184000	24.009577	0.001040	20.774688
598.167091	-2.974800	3.730300	-11.096000	24.007238	0.001041	20.761911
599.164338	-2.996000	3.729400	-11.172000	24.055562	0.001041	20.771493
600.164374	-2.994400	3.729600	-11.167000	24.055813	0.001039	20.767002
601.167097	-2.986900	3.728900	-11.137000	24.056056	0.001039	20.761557
602.165871	-2.980800	3.729500	-11.116000	24.066355	0.001040	20.748178
603.165257	-3.012500	3.727100	-11.227000	24.082955	0.001040	20.754869
604.163926	-2.985000	3.728600	-11.129000	24.081657	0.001041	20.761154
605.168267	-3.030800	3.726300	-11.291000	24.057450	0.001039	20.768645
606.166975	-2.995600	3.726700	-11.163000	24.040998	0.001041	20.763525
607.168581	-3.013000	3.726100	-11.225000	24.070283	0.001037	20.781515
608.170945	-2.988800	3.727700	-11.140000	24.076750	0.001038	20.766189
609.168998	-3.004100	3.726600	-11.194000	24.085757	0.001040	20.761473
610.168673	-2.990500	3.725700	-11.141000	24.081330	0.001040	20.753712
611.168735	-3.020500	3.725200	-11.250000	24.110860	0.001039	20.762467
612.172157	-3.016100	3.725400	-11.235000	24.124870	0.001038	20.762768
613.172029	-2.992800	3.725100	-11.147000	24.146095	0.001039	20.757977
614.170189	-2.992800	3.724100	-11.144000	24.147012	0.001037	20.760319
615.170151	-2.999000	3.724000	-11.167000	24.130070	0.001039	20.762768
616.170677	-2.985900	3.724200	-11.119000	24.138573	0.001037	20.760865
617.176514	-2.985700	3.723500	-11.116000	24.143527	0.001038	20.775790
618.172471	-2.996000	3.724100	-11.155000	24.117024	0.001039	20.750631
619.170750	-3.001200	3.723000	-11.173000	24.115807	0.001038	20.764584
620.169124	-3.007200	3.722000	-11.192000	24.093417	0.001037	20.761568
621.172312	-3.017800	3.722200	-11.232000	24.072834	0.001034	20.751356
622.175030	-2.975400	3.723500	-11.078000	24.047780	0.001037	20.760369
623.169722	-3.006400	3.722100	-11.189000	24.046810	0.001036	20.771250
624.172959	-2.995500	3.722400	-11.149000	24.073085	0.001035	20.751608
625.172026	-2.991000	3.722100	-11.132000	24.105237	0.001035	20.772474
626.177036	-3.004200	3.720700	-11.176000	24.096226	0.001037	20.754902
627.172299	-2.981900	3.721800	-11.097000	24.102202	0.001035	20.751887
628.175183	-2.986600	3.722100	-11.115000	24.115214	0.001035	20.772524
629.172054	-3.029000	3.720600	-11.268000	24.129728	0.001034	20.741087
630.176376	-3.007900	3.721300	-11.193000	24.110246	0.001035	20.750945
631.175282	-2.985600	3.720000	-11.105000	24.130973	0.001034	20.742336
632.179015	-3.002900	3.720000	-11.169000	24.121592	0.001033	20.758532
633.176201	-2.996700	3.719100	-11.143000	24.100670	0.001033	20.751299
634.175154	-3.010700	3.718800	-11.194000	24.076460	0.001035	20.757364
635.175506	-2.994200	3.719500	-11.136000	24.071312	0.001035	20.764055
636.176878	-3.005000	3.718200	-11.172000	24.101715	0.001036	20.753294
637.174767	-2.993800	3.718400	-11.131000	24.116102	0.001035	20.738800
638.180866	-2.993600	3.718800	-11.131000	24.109085	0.001034	20.748832
639.176806	-2.975600	3.717800	-11.062000	24.091469	0.001033	20.737328
640.176866	-3.018000	3.716200	-11.214000	24.050908	0.001033	20.738375
641.175090	-2.994800	3.718300	-11.135000	24.053399	0.001036	20.751779
642.174649	-2.993900	3.717600	-11.130000	24.031203	0.001033	20.745166
643.180041	-2.996100	3.715300	-11.131000	24.041234	0.001034	20.742423
644.176991	-3.004800	3.715400	-11.163000	24.057855	0.001033	20.721634
645.175559	-3.004800	3.714600	-11.161000	24.040186	0.001034	20.727147
646.180886	-2.988400	3.715600	-11.102000	24.065194	0.001034	20.744168
647.175250	-3.005800	3.713900	-11.162000	24.071587	0.001035	20.736829
648.178562	-2.997700	3.714700	-11.135000	24.060911	0.001035	20.757417
649.177536	-3.004300	3.714700	-11.158000	24.096895	0.001035	20.745615
650.178061	-2.985100	3.715000	-11.089000	24.076241	0.001032	20.736280
651.179410	-3.028000	3.713100	-11.243000	24.107815	0.001034	20.745187
652.180257	-2.993200	3.714700	-11.118000	24.108785	0.001033	20.753273
653.182199	-2.976400	3.714000	-11.053000	24.101143	0.001032	20.738022
654.179413	-2.995600	3.713200	-11.122000	24.136702	0.001035	20.739547
655.178457	-3.005600	3.711900	-11.154000	24.148472	0.001033	20.757516
656.181454	-2.984400	3.712900	-11.080000	24.153672	0.001033	20.744239
657.179121	-2.999400	3.711800	-11.131000	24.130084	0.001032	20.748082
658.179914	-2.983400	3.713300	-11.077000	24.140555	0.001031	20.760481
659.180409	-3.009700	3.710900	-11.167000	24.145237	0.001031	20.748107
660.181402	-2.997000	3.710500	-11.119000	24.167974	0.001032	20.719228
661.180238	-3.013000	3.710600	-11.179000	24.163970	0.001030	20.733705
662.180598	-2.993900	3.711000	-11.109000	24.174148	0.001032	20.752923
663.181819	-3.009000	3.711800	-11.167000	24.183575	0.001030	20.744834
664.182368	-3.009500	3.710400	-11.165000	24.146355	0.001029	20.730261
665.182621	-2.992700	3.711300	-11.105000	24.132469	0.001031	20.742413
666.181931	-2.986300	3.712300	-11.084000	24.161282	0.001029	20.755191
667.181406	-3.002900	3.709600	-11.139000	24.173799	0.001031	20.772962
668.182124	-2.978200	3.708900	-11.044000	24.174120	0.001029	20.731083
669.183659	-2.999300	3.708000	-11.120000	24.168821	0.001030	20.743312
670.185617	-2.994700	3.710100	-11.108000	24.227686	0.001028	20.735973
671.181605	-2.984700	3.708900	-11.069000	24.197809	0.001029	20.767647
672.185025	-2.986800	3.709400	-11.078000	24.215748	0.001026	20.753397
673.184011	-2.994800	3.708500	-11.105000	24.218433	0.001027	20.746606
674.181923	-2.982500	3.707600	-11.057000	24.212188	0.001028	20.736550
675.185556	-2.990900	3.707200	-11.087000	24.256376	0.001028	20.740569
676.186444	-2.997000	3.706900	-11.109000	24.241101	0.001028	20.748482
677.181625	-2.987800	3.707100	-11.074000	24.269686	0.001027	20.731634
678.186841	-3.005900	3.705100	-11.136000	24.270631	0.001028	20.771939
679.190177	-2.982200	3.705800	-11.050000	24.217466	0.001027	20.757491
680.183926	-2.988800	3.706900	-11.077000	24.216570	0.001028	20.729564
681.194161	-2.995900	3.704500	-11.097000	24.184700	0.001026	20.741220
682.187379	-2.998000	3.705100	-11.106000	24.171862	0.001025	20.748259
683.186187	-2.981100	3.705000	-11.044000	24.149544	0.001025	20.748160
684.184838	-3.001400	3.704300	-11.117000	24.177538	0.001024	20.733563
685.186388	-3.006600	3.703900	-11.134000	24.201001	0.001025	20.753779
686.186466	-2.989000	3.704300	-11.071000	24.193734	0.001024	20.762137
687.185089	-3.001500	3.703400	-11.115000	24.230409	0.001027	20.737756
688.186328	-2.997200	3.704000	-11.101000	24.231830	0.001025	20.749614
689.184773	-2.998900	3.704300	-11.107000	24.218245	0.001026	20.747841
690.184189	-3.005500	3.702600	-11.127000	24.201728	0.001025	20.741705
691.186806	-3.009500	3.702300	-11.141000	24.183147	0.001023	20.748672
692.188121	-3.006000	3.701900	-11.126000	24.175110	0.001024	20.728282
693.187799	-2.991600	3.700200	-11.068000	24.179319	0.001023	20.750997
694.192186	-2.993200	3.700500	-11.075000	24.184692	0.001024	20.744532
695.187422	-2.989200	3.701700	-11.063000	24.173074	0.001023	20.742837
696.186343	-2.986500	3.701900	-11.055000	24.165637	0.001022	20.755766
697.189732	-3.002000	3.699800	-11.105000	24.142381	0.001023	20.753777
698.192654	-3.006100	3.700000	-11.122000	24.169129	0.001023	20.736035
699.190941	-3.001600	3.699300	-11.103000	24.147112	0.001024	20.736236
700.189171	-2.999100	3.698400	-11.091000	24.184984	0.001024	20.742928
701.189552	-3.004700	3.700100	-11.117000	24.198866	0.001022	20.755430
702.191962	-3.018600	3.698700	-11.164000	24.210264	0.001023	20.740783
703.188708	-2.994100	3.697600	-11.070000	24.248003	0.001025	20.757776
704.190698	-2.997500	3.698500	-11.085000	24.270298	0.001024	20.768759
705.191937	-2.982300	3.698500	-11.029000	24.252187	0.001024	20.752489
706.190996	-2.995600	3.699200	-11.080000	24.291868	0.001022	20.764793
707.190142	-2.986500	3.699000	-11.046000	24.305929	0.001024	20.736222
708.195037	-2.999800	3.697000	-11.089000	24.316599	0.001023	20.742659
709.195342	-2.999000	3.696700	-11.086000	24.315679	0.001022	20.752167
710.196715	-3.002800	3.696400	-11.098000	24.338466	0.001025	20.769810
711.196835	-3.007900	3.696300	-11.117000	24.358391	0.001024	20.758979
712.194647	-3.009300	3.695600	-11.120000	24.363665	0.001024	20.757630
713.195149	-2.987000	3.696500	-11.040000	24.364786	0.001022	20.754962
714.194951	-3.007200	3.695200	-11.111000	24.379163	0.001025	20.752790
715.198795	-2.982700	3.696100	-11.024000	24.366624	0.001024	20.755383
716.198167	-3.000000	3.694600	-11.083000	24.371323	0.001022	20.767210
717.195029	-3.004000	3.694700	-11.098000	24.373361	0.001021	20.757875
718.194695	-3.003100	3.694400	-11.094000	24.356346	0.001021	20.772100
719.194893	-2.974900	3.695600	-10.992000	24.321789	0.001022	20.756874
720.195733	-3.013700	3.693800	-11.131000	24.303629	0.001023	20.765210
721.194550	-2.993500	3.693500	-11.054000	24.290490	0.001021	20.768625
722.196948	-3.013800	3.693400	-11.130000	24.310490	0.001021	20.757394
723.199991	-2.991800	3.695400	-11.054000	24.321909	0.001020	20.772167
724.199565	-3.029000	3.690900	-11.179000	24.361337	0.001020	20.753399
725.199458	-3.008200	3.692300	-11.106000	24.383478	0.001019	20.752376
726.198545	-3.003800	3.691000	-11.086000	24.408972	0.001020	20.772263
727.200493	-2.996200	3.692300	-11.062000	24.412380	0.001018	20.775207
728.201624	-2.998300	3.691900	-11.068000	24.433599	0.001019	20.769942
729.201199	-2.973000	3.692000	-10.975000	24.443972	0.001017	20.764227
730.201262	-2.990900	3.689500	-11.034000	24.448670	0.001018	20.752345
731.200349	-2.989500	3.690500	-11.032000	24.421582	0.001021	20.761205
732.200981	-3.002000	3.690400	-11.077000	24.435412	0.001018	20.764174
733.201241	-3.014800	3.689400	-11.122000	24.437151	0.001017	20.772083
734.202588	-3.021100	3.689700	-11.146000	24.435881	0.001019	20.759903
735.201656	-3.019600	3.689500	-11.140000	24.436851	0.001018	20.766092
736.202269	-2.998300	3.689900	-11.062000	24.443965	0.001019	20.782239
737.205873	-3.001000	3.690600	-11.074000	24.441454	0.001017	20.793944
738.202939	-2.994500	3.688000	-11.043000	24.402077	0.001017	20.758233
739.203795	-3.005600	3.688600	-11.085000	24.393545	0.001017	20.761053
740.205490	-2.982500	3.690000	-11.004000	24.405086	0.001016	20.774054
741.203200	-3.011300	3.687000	-11.101000	24.431902	0.001017	20.780568
742.204429	-3.000600	3.688500	-11.066000	24.433839	0.001015	20.778244
743.202993	-2.985200	3.687600	-11.007000	24.436847	0.001016	20.767986
744.203328	-3.025900	3.688500	-11.161000	24.459434	0.001015	20.760300
745.204274	-3.019800	3.686200	-11.131000	24.447594	0.001016	20.774500
746.206154	-2.991900	3.688700	-11.035000	24.433313	0.001015	20.792416
747.208324	-2.991300	3.686600	-11.027000	24.431127	0.001013	20.782635
748.210691	-3.007500	3.685100	-11.082000	24.425730	0.001015	20.798084
749.207280	-3.011800	3.686600	-11.103000	24.448092	0.001015	20.780689
750.209542	-3.000800	3.685300	-11.057000	24.476275	0.001013	20.758230
751.206459	-2.985600	3.686200	-11.004000	24.489110	0.001016	20.773477
752.207973	-2.998900	3.684400	-11.048000	24.482895	0.001014	20.777674
753.205682	-2.976900	3.685300	-10.970000	24.490009	0.001013	20.782914
754.210731	-3.028100	3.683400	-11.152000	24.480554	0.001013	20.777695
755.208309	-2.997700	3.684500	-11.042000	24.465684	0.001014	20.791700
756.205687	-3.006600	3.682000	-11.069000	24.493722	0.001013	20.777157
757.212354	-3.003200	3.683300	-11.060000	24.461409	0.001012	20.778877
758.213740	-3.003300	3.683400	-11.061000	24.482754	0.001013	20.798869
759.207019	-2.985700	3.683200	-10.996000	24.471115	0.001011	20.790037
760.208726	-3.000000	3.683000	-11.048000	24.477657	0.001013	20.775264
761.212672	-3.011800	3.683800	-11.094000	24.449276	0.001011	20.774765
762.207107	-2.987000	3.682900	-11.000000	24.444349	0.001011	20.781201
763.209901	-2.982000	3.682600	-10.979000	24.449977	0.001012	20.805340
764.212343	-3.021400	3.680800	-11.120000	24.466917	0.001009	20.791041
765.208328	-3.024000	3.680100	-11.127000	24.449085	0.001012	20.775996
766.212262	-2.996400	3.681300	-11.029000	24.453709	0.001011	20.790118
767.207976	-3.009300	3.679600	-11.072000	24.454707	0.001010	20.787800
768.210325	-2.989000	3.681100	-11.001000	24.465380	0.001009	20.779541
769.209809	-2.983600	3.681000	-10.982000	24.472095	0.001009	20.773476
770.209957	-2.989800	3.680200	-11.001000	24.476602	0.001009	20.783688
771.210535	-3.000400	3.679900	-11.040000	24.453264	0.001011	20.792991
772.209938	-3.006300	3.680300	-11.063000	24.441727	0.001010	20.798486
773.214118	-3.030600	3.679800	-11.151000	24.456703	0.001007	20.781742
774.211370	-3.002400	3.680500	-11.050000	24.451279	0.001007	20.779145
775.210694	-2.982900	3.678500	-10.971000	24.427101	0.001008	20.807046
776.214048	-2.980400	3.679100	-10.963000	24.428268	0.001009	20.778345
777.212467	-3.008800	3.677700	-11.064000	24.441085	0.001007	20.792626
778.212797	-3.004600	3.677400	-11.048000	24.437153	0.001010	20.792000
779.214726	-2.996000	3.677800	-11.018000	24.463722	0.001005	20.791154
780.212707	-3.002400	3.676800	-11.038000	24.469315	0.001006	20.789180
781.215075	-2.991900	3.677800	-11.002000	24.479864	0.001006	20.798815
782.213734	-3.017100	3.676000	-11.089000	24.518716	0.001007	20.801759
783.211236	-3.020600	3.676800	-11.104000	24.544683	0.001006	20.778026
784.211733	-2.998000	3.677100	-11.023000	24.557094	0.001009	20.820350
785.211813	-2.989300	3.677100	-10.991000	24.559756	0.001005	20.801210
786.213994	-2.996400	3.675800	-11.014000	24.574131	0.001005	20.789555
787.213232	-3.000600	3.674500	-11.024000	24.607090	0.001005	20.808875
788.215255	-2.983800	3.675400	-10.966000	24.611663	0.001006	20.799240
789.213058	-2.995400	3.674800	-11.007000	24.629493	0.001005	20.790103
790.215270	-3.005900	3.674100	-11.042000	24.637181	0.001005	20.794498
791.217686	-3.002800	3.675000	-11.033000	24.674560	0.001003	20.809720
792.214190	-2.983600	3.674100	-10.961000	24.666051	0.001004	20.802605
793.213983	-3.009000	3.674000	-11.053000	24.673470	0.001003	20.810049
794.219066	-3.000100	3.671600	-11.014000	24.641084	0.001003	20.797941
795.217819	-3.003100	3.672400	-11.026000	24.611738	0.001000	20.804055
796.216972	-3.005800	3.673200	-11.040000	24.590473	0.001001	20.793150
797.220300	-2.979900	3.673100	-10.945000	24.582714	0.001002	20.783469
798.217397	-2.995500	3.673000	-11.001000	24.556624	0.001001	20.802336
799.215817	-3.013600	3.672700	-11.067000	24.551899	0.001001	20.807077
800.215473	-2.977000	3.673800	-10.936000	24.551803	0.001000	20.814568
801.219824	-3.008900	3.671300	-11.046000	24.528721	0.001001	20.800418
802.224749	-3.000500	3.672100	-11.017000	24.537549	0.001001	20.811171
803.231091	-3.014800	3.671700	-11.068000	24.535856	0.001001	20.785765
804.216172	-2.991200	3.671900	-10.982000	24.581998	0.000999	20.815941
805.218214	-3.000100	3.670800	-11.012000	24.566132	0.000997	20.786745
806.217197	-2.992900	3.670700	-10.984000	24.563624	0.000998	20.796557
807.217247	-2.979700	3.670900	-10.937000	24.567578	0.000998	20.805265
808.221373	-3.010200	3.670000	-11.046000	24.545466	0.000999	20.822908
809.219071	-3.001200	3.669500	-11.011000	24.539149	0.000999	20.807561
810.214598	-2.991500	3.670200	-10.979000	24.535947	0.000999	20.813831
811.217109	-2.986200	3.670100	-10.958000	24.502838	0.000997	20.809062
812.216092	-3.008000	3.668600	-11.034000	24.522044	0.000997	20.817900
813.217806	-3.007800	3.668800	-11.034000	24.498288	0.000997	20.818721
814.217268	-3.011300	3.668000	-11.045000	24.478016	0.001000	20.801228
815.217148	-2.983200	3.670900	-10.950000	24.469339	0.000996	20.810541
816.217834	-2.996100	3.667900	-10.989000	24.469269	0.000996	20.835599
817.218048	-3.005900	3.666500	-11.019000	24.469935	0.000995	20.798336
818.217269	-3.005700	3.668300	-11.024000	24.509560	0.000997	20.821970
819.220271	-2.979000	3.668100	-10.926000	24.545627	0.000995	20.818329
820.220038	-2.985800	3.666700	-10.947000	24.538761	0.000996	20.800534
821.218730	-2.975800	3.667400	-10.913000	24.551323	0.000996	20.831155
822.219254	-2.980300	3.665800	-10.924000	24.572589	0.000994	20.835897
823.222365	-2.973100	3.666300	-10.899000	24.576447	0.000994	20.836448
824.219306	-3.002300	3.664600	-11.002000	24.572017	0.000994	20.839116
825.218515	-2.999800	3.666100	-10.997000	24.604229	0.000996	20.819754
826.221483	-3.012700	3.665000	-11.041000	24.615817	0.000995	20.829011
827.221922	-2.990700	3.664200	-10.956000	24.637529	0.000994	20.821400
828.220588	-3.007300	3.663300	-11.015000	24.668815	0.000994	20.828137
829.219710	-2.985900	3.664700	-10.941000	24.642702	0.000993	20.819953
830.220993	-3.030100	3.662600	-11.097000	24.613133	0.000993	20.823947
831.221540	-3.009800	3.663500	-11.024000	24.599253	0.000994	20.807175
832.221384	-3.015800	3.663800	-11.048000	24.624048	0.000995	20.834425
833.222078	-2.998000	3.662800	-10.980000	24.621089	0.000992	20.825292
834.221035	-3.010500	3.662000	-11.024000	24.609949	0.000992	20.819330
835.221057	-3.008500	3.661500	-11.014000	24.639617	0.000991	20.842460
836.223051	-2.985100	3.662000	-10.930000	24.627285	0.000992	20.824871
837.226451	-3.000300	3.661200	-10.984000	24.641260	0.000991	20.832730
838.222671	-2.996600	3.661000	-10.970000	24.641955	0.000991	20.846703
839.223703	-2.995000	3.662200	-10.967000	24.646507	0.000992	20.838469
840.225937	-3.004900	3.661700	-11.001000	24.664167	0.000991	20.835327
841.225247	-2.991400	3.660800	-10.948000	24.675109	0.000993	20.818332
842.225162	-2.986100	3.661300	-10.932000	24.642773	0.000991	20.834248
843.229214	-2.982300	3.662000	-10.919000	24.654286	0.000990	20.829206
844.228878	-2.999300	3.660400	-10.978000	24.664410	0.000992	20.849321
845.228809	-3.000000	3.659200	-10.977000	24.687687	0.000990	20.853712
846.228505	-3.024000	3.658600	-11.061000	24.699250	0.000991	20.851564
847.227750	-3.011500	3.658700	-11.018000	24.714867	0.000989	20.843529
848.227957	-3.001400	3.659000	-10.980000	24.747695	0.000992	20.848022
849.231962	-3.008100	3.659900	-11.008000	24.753065	0.000990	20.848196
850.228867	-3.003900	3.657700	-10.987000	24.773805	0.000988	20.843879
851.228385	-3.001300	3.658900	-10.980000	24.801007	0.000989	20.870703
852.233859	-2.999500	3.656800	-10.968000	24.775215	0.000988	20.841502
853.230248	-2.991900	3.657400	-10.942000	24.801349	0.000989	20.849710
854.228606	-2.958400	3.658600	-10.822000	24.811521	0.000986	20.845694
855.228311	-2.984200	3.657100	-10.912000	24.829746	0.000986	20.861613
856.228992	-2.994600	3.657200	-10.949000	24.832408	0.000985	20.852431
857.232754	-3.000300	3.656500	-10.970000	24.820597	0.000986	20.840578
858.231374	-2.993200	3.657500	-10.946000	24.823781	0.000986	20.878384
859.234829	-3.007500	3.654700	-10.990000	24.823876	0.000985	20.850033
860.236522	-2.994500	3.655300	-10.945000	24.814229	0.000985	20.886816
861.234100	-2.998800	3.654700	-10.959000	24.820971	0.000983	20.845694
862.233355	-2.990700	3.656300	-10.933000	24.810400	0.000983	20.856897
863.232363	-2.991400	3.655500	-10.934000	24.835440	0.000984	20.866853
864.230957	-3.017600	3.653600	-11.024000	24.837281	0.000982	20.844046
865.234556	-3.009600	3.653800	-10.996000	24.831460	0.000984	20.852428
866.234075	-3.001700	3.653400	-10.966000	24.856101	0.000983	20.861985
867.230584	-3.006200	3.654000	-10.983000	24.845013	0.000983	20.863658
868.231686	-2.994900	3.652300	-10.936000	24.859729	0.000983	20.866100
869.234848	-2.988700	3.654000	-10.920000	24.865624	0.000982	20.851154
870.231098	-2.981600	3.654100	-10.893000	24.882501	0.000981	20.886109
871.235819	-2.994800	3.653600	-10.941000	24.884045	0.000980	20.872487
872.233606	-2.996700	3.652000	-10.943000	24.880763	0.000979	20.871563
873.231506	-2.987900	3.651100	-10.908000	24.875344	0.000980	20.870392
874.237569	-3.012800	3.651600	-11.000000	24.883570	0.000981	20.885758
875.237569	-3.012600	3.652400	-11.002000	24.872157	0.000979	20.890899
876.235514	-3.002200	3.652400	-10.965000	24.864771	0.000981	20.876375
877.236352	-3.006400	3.651300	-10.976000	24.848906	0.000979	20.867091
878.238504	-3.002000	3.650700	-10.957000	24.858256	0.000979	20.881690
879.234453	-3.015300	3.649800	-11.004000	24.882124	0.000978	20.863921
880.238890	-3.005300	3.650900	-10.969000	24.850199	0.000979	20.883087
881.239334	-2.976500	3.651700	-10.868000	24.866605	0.000980	20.876319
882.238145	-2.982100	3.650500	-10.885000	24.871005	0.000978	20.881209
883.238039	-2.992700	3.650500	-10.924000	24.849371	0.000979	20.892687
884.239967	-2.992400	3.648900	-10.918000	24.843578	0.000978	20.869805
885.237370	-2.983800	3.649600	-10.888000	24.809114	0.000978	20.869356
886.238476	-3.011700	3.648500	-10.987000	24.797052	0.000980	20.885699
887.238148	-2.999200	3.649000	-10.944000	24.771091	0.000977	20.897102
888.238678	-2.992900	3.648600	-10.918000	24.801079	0.000978	20.872671
889.239891	-2.989400	3.647000	-10.901000	24.828756	0.000976	20.891912
890.240172	-2.965700	3.648500	-10.819000	24.853271	0.000976	20.890436
891.240109	-3.007400	3.647800	-10.969000	24.830868	0.000976	20.886919
892.239900	-2.976400	3.646700	-10.853000	24.818659	0.000975	20.899321
893.242404	-2.991200	3.648200	-10.911000	24.804210	0.000975	20.905682
894.241355	-2.978600	3.648100	-10.865000	24.814984	0.000976	20.886626
895.239589	-3.006800	3.646200	-10.963000	24.811476	0.000975	20.892587
896.243580	-3.003600	3.647500	-10.954000	24.849794	0.000977	20.896904
897.239879	-2.989000	3.646900	-10.899000	24.889726	0.000975	20.915168
898.241904	-2.985200	3.645700	-10.882000	24.911630	0.000974	20.875990
899.240296	-3.003400	3.646000	-10.949000	24.884829	0.000974	20.907883
900.240042	-3.002800	3.645100	-10.944000	24.858845	0.000975	20.896504
901.239346	-3.011600	3.645200	-10.977000	24.819681	0.000973	20.897028
902.241890	-3.025300	3.643900	-11.022000	24.794517	0.000975	20.900697
903.245751	-3.003200	3.644200	-10.943000	24.792179	0.000974	20.891714
904.243466	-3.009400	3.643400	-10.964000	24.775241	0.000971	20.883725
905.242276	-2.989100	3.644900	-10.894000	24.749283	0.000973	20.867633
906.247214	-2.990900	3.643300	-10.896000	24.735630	0.000971	20.901344
907.243574	-2.994800	3.643000	-10.909000	24.754082	0.000972	20.906110
908.244200	-2.992500	3.642200	-10.898000	24.766486	0.000971	20.897223
909.246636	-2.994400	3.643700	-10.910000	24.789810	0.000970	20.904982
910.243510	-3.000300	3.643100	-10.929000	24.807097	0.000970	20.918536
911.243726	-3.007200	3.642000	-10.952000	24.832085	0.000969	20.902364
912.245214	-3.003500	3.641200	-10.935000	24.839644	0.000970	20.886244
913.247366	-2.980700	3.643400	-10.858000	24.858394	0.000970	20.901741
914.246301	-2.990000	3.642400	-10.889000	24.887512	0.000968	20.918635
915.248177	-3.011200	3.639900	-10.960000	24.911753	0.000968	20.917362
916.247296	-2.982700	3.641600	-10.861000	24.925154	0.000967	20.904734
917.245969	-2.998600	3.639800	-10.914000	24.936241	0.000966	20.892156
918.249157	-2.982500	3.642500	-10.862000	24.941219	0.000967	20.911375
919.249669	-3.000000	3.638800	-10.916000	24.967226	0.000965	20.900969
920.245761	-2.983300	3.639600	-10.858000	24.961585	0.000966	20.895782
921.247668	-2.998300	3.639800	-10.912000	24.944378	0.000963	20.921657
922.248305	-2.991600	3.638700	-10.883000	24.931228	0.000963	20.889969
923.250725	-3.017600	3.636900	-10.973000	24.922157	0.000964	20.887029
924.247284	-2.995600	3.638200	-10.897000	24.927850	0.000963	20.893691
925.249621	-2.975200	3.637900	-10.823000	24.930639	0.000962	20.905972
926.248853	-3.026100	3.637900	-11.007000	24.889764	0.000961	20.909517
927.246551	-2.990800	3.637600	-10.879000	24.899808	0.000961	20.881194
928.249896	-3.012200	3.635500	-10.950000	24.885413	0.000960	20.893772
929.251031	-2.999500	3.635800	-10.905000	24.887060	0.000961	20.884046
930.247776	-2.976200	3.637400	-10.824000	24.906429	0.000961	20.887839
931.250222	-3.007200	3.636500	-10.935000	24.879973	0.000961	20.879304
932.248621	-2.997200	3.636900	-10.899000	24.899568	0.000960	20.890910
933.249903	-3.008100	3.635100	-10.935000	24.914245	0.000960	20.874821
934.249522	-3.005400	3.636700	-10.929000	24.928720	0.000961	20.896935
935.250128	-2.987000	3.636600	-10.861000	24.950007	0.000959	20.888903
936.253092	-2.977100	3.636900	-10.826000	24.913529	0.000960	20.878844
937.251022	-3.022500	3.633700	-10.982000	24.909009	0.000959	20.870515
938.250776	-2.980000	3.636200	-10.835000	24.895312	0.000960	20.871941
939.251971	-3.002300	3.633700	-10.909000	24.923266	0.000959	20.888616
940.252779	-2.968900	3.634200	-10.788000	24.905240	0.000956	20.866732
941.256130	-3.009800	3.633300	-10.935000	24.923467	0.000958	20.874594
942.253563	-3.003500	3.631700	-10.907000	24.900671	0.000958	20.862621
943.253753	-2.992900	3.633300	-10.873000	24.933119	0.000957	20.864369
944.256209	-2.985400	3.631400	-10.840000	24.935608	0.000956	20.877297
945.253501	-2.990000	3.631500	-10.856000	24.942899	0.000954	20.847632
946.254718	-3.012300	3.632500	-10.942000	24.971937	0.000955	20.879622
947.257209	-3.039200	3.630100	-11.031000	24.988203	0.000956	20.855172
948.254062	-3.013400	3.630300	-10.938000	24.989299	0.000956	20.871919
949.254547	-3.013600	3.630300	-10.940000	25.001207	0.000954	20.868225
950.256720	-3.006100	3.631500	-10.916000	25.017197	0.000951	20.870999
951.256042	-3.018800	3.630600	-10.958000	24.987889	0.000953	20.853435
952.255682	-3.011200	3.630900	-10.932000	24.992144	0.000951	20.856757
953.254390	-3.002200	3.630600	-10.898000	25.019471	0.000952	20.868540
954.254891	-2.990500	3.630600	-10.855000	25.013231	0.000953	20.855639
955.257150	-2.999200	3.629300	-10.883000	24.969205	0.000951	20.844165
956.263370	-3.006100	3.629000	-10.908000	24.970171	0.000952	20.855565
957.255959	-2.989400	3.627600	-10.844000	24.905130	0.000951	20.843390
958.256425	-3.008700	3.628800	-10.916000	24.920723	0.000948	20.859039
959.257136	-3.002700	3.628700	-10.895000	24.903244	0.000949	20.841971
960.257222	-2.990800	3.628500	-10.851000	24.878879	0.000950	20.865405
961.261352	-2.998700	3.627800	-10.878000	24.874105	0.000950	20.847338
962.257838	-3.004900	3.627500	-10.899000	24.892480	0.000949	20.864357
963.260434	-3.009700	3.627500	-10.917000	24.883406	0.000947	20.842448
964.259512	-2.997400	3.627400	-10.872000	24.901608	0.000948	20.845544
965.262393	-3.011100	3.626800	-10.919000	24.906456	0.000948	20.842349
966.260211	-3.007000	3.626800	-10.905000	24.905959	0.000948	20.843747
967.263064	-2.993600	3.626800	-10.855000	24.934702	0.000947	20.857897
968.261366	-2.984600	3.627800	-10.827000	24.952406	0.000946	20.839632
969.260691	-3.000900	3.625300	-10.878000	24.941167	0.000946	20.864860
970.265219	-3.039600	3.623500	-11.013000	24.960067	0.000946	20.846372
971.264149	-3.005100	3.625100	-10.892000	24.950619	0.000946	20.848743
972.263638	-3.000100	3.624400	-10.873000	24.937589	0.000945	20.836614
973.266722	-2.991800	3.625000	-10.845000	24.942986	0.000946	20.829229
974.269951	-3.006800	3.623200	-10.893000	24.934109	0.000944	20.838811
975.263999	-2.984600	3.623400	-10.813000	24.952854	0.000946	20.841978
976.266369	-2.988300	3.624100	-10.829000	24.965461	0.000945	20.827605
977.266553	-2.978500	3.624300	-10.793000	24.971827	0.000945	20.838737
978.264385	-3.008100	3.623300	-10.897000	24.964519	0.000945	20.831402
979.267618	-3.013800	3.621800	-10.915000	24.982171	0.000945	20.834420
980.266901	-3.000900	3.623000	-10.871000	25.017645	0.000942	20.819768
981.264558	-2.997000	3.622100	-10.853000	25.017525	0.000942	20.836242
982.266914	-2.997100	3.623200	-10.858000	25.004718	0.000943	20.823387
983.265702	-2.996800	3.622300	-10.854000	24.977221	0.000943	20.846521
984.268507	-3.016200	3.621400	-10.921000	24.984381	0.000941	20.839483
985.268275	-2.997700	3.621800	-10.856000	25.009392	0.000941	20.835665
986.267085	-3.006600	3.619800	-10.882000	25.003502	0.000942	20.830227
987.266979	-3.009400	3.619800	-10.892000	24.987585	0.000939	20.819941
988.268956	-3.011800	3.619200	-10.899000	24.943135	0.000942	20.827955
989.269130	-3.008700	3.618600	-10.885000	24.947707	0.000940	20.820217
990.267950	-2.999700	3.620100	-10.858000	24.947661	0.000939	20.821119
991.267397	-3.006300	3.619500	-10.879000	24.977789	0.000940	20.846617
992.272022	-2.998800	3.619700	-10.853000	24.981296	0.000939	20.819792
993.267687	-3.009700	3.617900	-10.888000	24.984850	0.000939	20.840902
994.265466	-3.016100	3.617700	-10.910000	24.971154	0.000940	20.815776
995.270022	-2.973900	3.619900	-10.764000	24.995299	0.000939	20.814407
996.272316	-2.987100	3.618600	-10.808000	24.971323	0.000938	20.819739
997.270455	-2.964700	3.617700	-10.723000	24.951208	0.000938	20.824205
998.271217	-3.003900	3.617100	-10.864000	24.976393	0.000935	20.824827
999.267057	-2.994100	3.617600	-10.831000	24.997876	0.000936	20.822209
1000.265995	-2.987300	3.617900	-10.806000	25.003717	0.000938	20.840400
1001.271029	-2.986100	3.616900	-10.800000	25.003093	0.000937	20.811799
1002.271059	-3.000000	3.616000	-10.847000	24.977732	0.000938	20.829017
1003.266873	-3.015500	3.615300	-10.900000	24.971292	0.000937	20.829190
1004.267946	-2.987600	3.616500	-10.803000	24.994985	0.000936	20.807454
1005.269506	-3.016800	3.616300	-10.908000	24.997142	0.000936	20.827637
1006.272659	-3.001400	3.614900	-10.848000	25.015040	0.000933	20.812885
1007.269430	-2.992600	3.615100	-10.817000	25.007658	0.000935	20.824916
1008.272370	-2.990500	3.615500	-10.812000	24.977697	0.000934	20.825188
1009.270066	-2.982600	3.614900	-10.780000	24.984282	0.000932	20.824212
1010.272888	-3.003500	3.613100	-10.851000	24.990124	0.000933	20.816799
1011.270559	-3.023500	3.612400	-10.921000	25.016478	0.000933	20.816700
1012.271270	-3.003500	3.612100	-10.847000	25.013940	0.000932	20.830273
1013.271200	-3.017100	3.612100	-10.897000	25.006128	0.000931	20.803466
1014.274221	-2.980600	3.614000	-10.772000	24.974479	0.000930	20.827648
1015.270751	-2.996000	3.613200	-10.824000	24.969258	0.000931	20.812450
1016.275974	-2.990000	3.612500	-10.800000	24.960755	0.000928	20.810554
1017.271322	-2.996200	3.612100	-10.822000	24.987156	0.000927	20.821406
1018.271507	-3.004500	3.611900	-10.851000	24.971116	0.000928	20.818108
1019.271034	-3.010300	3.611400	-10.870000	24.966942	0.000928	20.820083
1020.273766	-2.989300	3.612700	-10.797000	24.962958	0.000926	20.813240
1021.272946	-3.016600	3.611200	-10.892000	24.983595	0.000927	20.819729
1022.273412	-2.995500	3.611000	-10.816000	25.007933	0.000926	20.807175
1023.277333	-2.977800	3.610800	-10.751000	25.031799	0.000925	20.803629
1024.275278	-2.970100	3.609600	-10.720000	25.025559	0.000924	20.800685
1025.273379	-2.985900	3.609800	-10.778000	25.018918	0.000924	20.816304
1026.275450	-2.989700	3.609500	-10.790000	25.079203	0.000926	20.811860
1027.273893	-2.998700	3.608300	-10.820000	25.069312	0.000923	20.807621
1028.272776	-2.986900	3.610000	-10.782000	25.101731	0.000923	20.819301
1029.274413	-3.002400	3.607200	-10.829000	25.101957	0.000923	20.807674
1030.277627	-3.006000	3.608200	-10.846000	25.145456	0.000923	20.808194
1031.273833	-2.974300	3.610000	-10.736000	25.169245	0.000920	20.804574
1032.274471	-3.023000	3.605400	-10.897000	25.190276	0.000921	20.812412
1033.278041	-2.974300	3.609100	-10.734000	25.183269	0.000922	20.792101
1034.275646	-2.992200	3.607500	-10.791000	25.159629	0.000921	20.801085
1035.276691	-3.007400	3.606800	-10.845000	25.135566	0.000920	20.800636
1036.276807	-3.018300	3.606400	-10.884000	25.139792	0.000918	20.807723
1037.279195	-2.993200	3.607500	-10.795000	25.114882	0.000919	20.809744
1038.276382	-3.019400	3.605000	-10.883000	25.070060	0.000917	20.805526
1039.276811	-2.996600	3.604800	-10.802000	25.079432	0.000916	20.795969
1040.279004	-3.024900	3.603600	-10.899000	25.097237	0.000918	20.788711
1041.278716	-3.003000	3.604800	-10.825000	25.055491	0.000918	20.806549
1042.278703	-2.991400	3.604300	-10.781000	25.040030	0.000917	20.800038
1043.278945	-3.006300	3.603000	-10.831000	25.088534	0.000918	20.793251
1044.279049	-3.011100	3.602800	-10.848000	25.105781	0.000916	20.803927
1045.282506	-2.997700	3.602400	-10.797000	25.108044	0.000916	20.816155
1046.278799	-3.010100	3.603000	-10.844000	25.095492	0.000916	20.778425
1047.279087	-3.011800	3.602500	-10.848000	25.133574	0.000916	20.796740
1048.281115	-3.015200	3.601900	-10.860000	25.150077	0.000916	20.803350
1049.280325	-2.999200	3.603500	-10.807000	25.148435	0.000914	20.797434
1050.281003	-2.997000	3.602600	-10.796000	25.144061	0.000915	20.794465
1051.281867	-2.987200	3.601200	-10.757000	25.154229	0.000913	20.805147
1052.281209	-3.010200	3.601200	-10.839000	25.169689	0.000914	20.810710
1053.285503	-3.002900	3.601300	-10.813000	25.182469	0.000913	20.790350
1054.283935	-3.006500	3.598600	-10.817000	25.223312	0.000911	20.780144
1055.282557	-3.002300	3.600500	-10.809000	25.240557	0.000913	20.797458
1056.285483	-2.975500	3.600200	-10.711000	25.231858	0.000912	20.790622
1057.283641	-3.010700	3.599300	-10.835000	25.196835	0.000911	20.793393
1058.283301	-3.008500	3.599900	-10.829000	25.157162	0.000910	20.809988
1059.288006	-3.013600	3.599300	-10.846000	25.124029	0.000910	20.814659
1060.285145	-2.990300	3.598700	-10.760000	25.134145	0.000909	20.776924
1061.286010	-2.991600	3.599300	-10.766000	25.124974	0.000908	20.788580
1062.290649	-3.022200	3.596400	-10.868000	25.146101	0.000911	20.799833
1063.285720	-3.002900	3.599000	-10.807000	25.104015	0.000909	20.795042
1064.287744	-3.002700	3.598400	-10.803000	25.121446	0.000908	20.789780
1065.292914	-3.011600	3.597400	-10.832000	25.135019	0.000907	20.774483
1066.289986	-2.992300	3.597500	-10.764000	25.132157	0.000909	20.800059
1067.288632	-3.015400	3.596700	-10.845000	25.157490	0.000909	20.789928
1068.290265	-3.000900	3.596900	-10.792000	25.166915	0.000907	20.779950
1069.289283	-3.017300	3.596700	-10.851000	25.137927	0.000905	20.791627
1070.290982	-3.016300	3.594800	-10.842000	25.158808	0.000906	20.784139
1071.292671	-2.988600	3.593500	-10.738000	25.135643	0.000905	20.779377
1072.291986	-2.989000	3.595600	-10.747000	25.127938	0.000904	20.790608
1073.291975	-3.013100	3.594600	-10.830000	25.164303	0.000902	20.784914
1074.293377	-2.995200	3.594700	-10.766000	25.178701	0.000904	20.781825
1075.294710	-3.020600	3.594300	-10.855000	25.209922	0.000904	20.769546
1076.294748	-3.004900	3.593500	-10.797000	25.210320	0.000905	20.786068
1077.293019	-3.003500	3.594200	-10.793000	25.183001	0.000903	20.777133
1078.293350	-3.011600	3.593600	-10.822000	25.148103	0.000903	20.767229
1079.294303	-2.998200	3.592200	-10.768000	25.182356	0.000903	20.769847
1080.296209	-3.013900	3.590700	-10.821000	25.191305	0.000902	20.759391
1081.296222	-3.011200	3.591900	-10.815000	25.207684	0.000901	20.749281
1082.297454	-2.961800	3.594300	-10.645000	25.247133	0.000900	20.757593
1083.296067	-2.983800	3.592400	-10.718000	25.226427	0.000901	20.763832
1084.297400	-2.999400	3.590900	-10.770000	25.260832	0.000900	20.773718
1085.295396	-3.000900	3.591800	-10.778000	25.262943	0.000898	20.760665
1086.296410	-2.975700	3.592200	-10.688000	25.281488	0.000898	20.756999
1087.300303	-2.975900	3.591500	-10.687000	25.323494	0.000898	20.783053
1088.300716	-3.002500	3.591300	-10.781000	25.264836	0.000899	20.755926
1089.297346	-3.002800	3.591000	-10.782000	25.225341	0.000899	20.771751
1090.300353	-2.990400	3.589800	-10.734000	25.220590	0.000897	20.759868
1091.296708	-3.001000	3.588600	-10.768000	25.231731	0.000899	20.769631
1092.299502	-2.983300	3.588500	-10.705000	25.244060	0.000896	20.782483
1093.299800	-2.998100	3.589000	-10.758000	25.257530	0.000896	20.773248
1094.298776	-3.000400	3.587500	-10.763000	25.227181	0.000894	20.780236
1095.299697	-2.989300	3.587100	-10.722000	25.229493	0.000896	20.753159
1096.299067	-2.992000	3.587900	-10.733000	25.215198	0.000894	20.754454
1097.299850	-3.007600	3.588200	-10.791000	25.204734	0.000896	20.755328
1098.301815	-2.983000	3.587700	-10.700000	25.205801	0.000894	20.769203
1099.299717	-2.994900	3.585500	-10.737000	25.254101	0.000890	20.733293
1100.298245	-2.990700	3.588400	-10.731000	25.254820	0.000893	20.759147
1101.302639	-2.997600	3.586500	-10.750000	25.292949	0.000891	20.761394
1102.299518	-3.019000	3.585700	-10.823000	25.284470	0.000890	20.755251
1103.300229	-3.001400	3.585300	-10.759000	25.269382	0.000891	20.773768
1104.304723	-3.003100	3.584700	-10.764000	25.257477	0.000889	20.757547
1105.300005	-3.017500	3.583400	-10.811000	25.252152	0.000888	20.763106
1106.300790	-2.977300	3.586400	-10.677000	25.215015	0.000888	20.768021
1107.302432	-2.984200	3.584600	-10.695000	25.184217	0.000889	20.743740
1108.303464	-3.009500	3.584100	-10.785000	25.157916	0.000888	20.776606
1109.301333	-2.977100	3.584800	-10.672000	25.179692	0.000887	20.762430
1110.303657	-2.994300	3.583800	-10.730000	25.208547	0.000888	20.743510
1111.304893	-3.005600	3.582300	-10.766000	25.201118	0.000886	20.752646
1112.302534	-3.007000	3.583800	-10.775000	25.196765	0.000886	20.752070
1113.304210	-2.988700	3.583000	-10.708000	25.145005	0.000885	20.760799
1114.303472	-2.997500	3.583000	-10.739000	25.168896	0.000884	20.769610
1115.303265	-3.011300	3.581400	-10.784000	25.133345	0.000884	20.758577
1116.305101	-3.018600	3.580900	-10.809000	25.107293	0.000882	20.762770
1117.303830	-3.030400	3.579600	-10.846000	25.128795	0.000883	20.755906
1118.304357	-3.000600	3.580500	-10.743000	25.153881	0.000883	20.771606
1119.305109	-2.982500	3.581600	-10.682000	25.173665	0.000882	20.750690
1120.303878	-3.016700	3.580000	-10.799000	25.215523	0.000883	20.777066
1121.304084	-3.017300	3.579900	-10.801000	25.231108	0.000882	20.745297
1122.303315	-3.012800	3.580400	-10.785000	25.268985	0.000881	20.760092
1123.306440	-3.011100	3.578900	-10.775000	25.292474	0.000881	20.753330
1124.305486	-2.982200	3.579100	-10.673000	25.329059	0.000879	20.765407
1125.306107	-2.982000	3.578900	-10.671000	25.347497	0.000881	20.776334
1126.311907	-2.989800	3.579300	-10.700000	25.338102	0.000880	20.766900
1127.309635	-2.999800	3.578500	-10.734000	25.320975	0.000879	20.763454
1128.308546	-2.990700	3.579100	-10.703000	25.287495	0.000881	20.768245
1129.311500	-3.004600	3.577100	-10.747000	25.258384	0.000879	20.756087
1130.309038	-2.986400	3.576900	-10.681000	25.256396	0.000878	20.771635
1131.305630	-3.018300	3.576600	-10.794000	25.243641	0.000878	20.765942
1132.309803	-3.013100	3.575800	-10.771000	25.253978	0.000878	20.765414
1133.309946	-3.000300	3.576500	-10.729000	25.299164	0.000877	20.747244
1134.308704	-3.000500	3.575900	-10.728000	25.305701	0.000875	20.740531
1135.309677	-3.003000	3.575200	-10.735000	25.288549	0.000874	20.756975
1136.309493	-3.009000	3.575200	-10.756000	25.274057	0.000875	20.766133
1137.309951	-3.008700	3.573700	-10.751000	25.271019	0.000875	20.757867
1138.309683	-3.016200	3.574200	-10.778000	25.254416	0.000872	20.756844
1139.316288	-2.977300	3.574000	-10.640000	25.269750	0.000870	20.767499
1140.310902	-3.008000	3.574100	-10.750000	25.290900	0.000872	20.767397
1141.311171	-2.982100	3.574300	-10.658000	25.291023	0.000871	20.764201
1142.313787	-3.004100	3.574400	-10.736000	25.300193	0.000872	20.769141
1143.310285	-3.008400	3.574000	-10.751000	25.343044	0.000871	20.750525
1144.312532	-3.019200	3.572000	-10.784000	25.352164	0.000870	20.743561
1145.311643	-3.009200	3.571100	-10.745000	25.400725	0.000870	20.750596
1146.316838	-3.016400	3.571800	-10.772000	25.353084	0.000869	20.762503
1147.313426	-2.999800	3.571500	-10.713000	25.336880	0.000868	20.777527
1148.311542	-3.011700	3.570600	-10.752000	25.317395	0.000868	20.769817
1149.315289	-2.993100	3.572100	-10.691000	25.354152	0.000868	20.749824
1150.316320	-2.984300	3.572200	-10.660000	25.365168	0.000866	20.759937
1151.311367	-2.979500	3.569600	-10.634000	25.395781	0.000866	20.751321
1152.315646	-2.973100	3.572400	-10.620000	25.410352	0.000865	20.767849
1153.314959	-3.004600	3.570800	-10.728000	25.410923	0.000863	20.756568
1154.311459	-2.980200	3.570500	-10.640000	25.431178	0.000863	20.780227
1155.312095	-2.989800	3.570700	-10.675000	25.412861	0.000863	20.762782
1156.311947	-2.989400	3.569500	-10.669000	25.429666	0.000864	20.767803
1157.312809	-2.994100	3.568200	-10.682000	25.425913	0.000865	20.758819
1158.314384	-3.010900	3.568900	-10.744000	25.412219	0.000862	20.763086
1159.314662	-3.004100	3.567700	-10.716000	25.405908	0.000862	20.769077
1160.316070	-2.998700	3.567000	-10.696000	25.406327	0.000863	20.782775
1161.315742	-2.991300	3.566700	-10.668000	25.422382	0.000860	20.768550
1162.319323	-2.985300	3.569100	-10.654000	25.461799	0.000860	20.754551
1163.316060	-3.010000	3.566000	-10.731000	25.465724	0.000860	20.777934
1164.318106	-3.016100	3.565900	-10.755000	25.454790	0.000859	20.765531
1165.324661	-2.988500	3.567000	-10.658000	25.437992	0.000860	20.769526
1166.318959	-3.004400	3.565900	-10.712000	25.450798	0.000859	20.771954
1167.319126	-2.982300	3.566300	-10.635000	25.444606	0.000858	20.763840
1168.327041	-3.002600	3.564700	-10.702000	25.403797	0.000859	20.779760
1169.319818	-3.003100	3.564900	-10.704000	25.423383	0.000858	20.793263
1170.320008	-3.013500	3.563600	-10.738000	25.435511	0.000857	20.789321
1171.321020	-2.998400	3.565200	-10.689000	25.437376	0.000857	20.772700
1172.322062	-2.999200	3.564100	-10.688000	25.454748	0.000856	20.782084
1173.323309	-3.026500	3.563400	-10.783000	25.469734	0.000855	20.789547
1174.323915	-2.995400	3.563700	-10.673000	25.467574	0.000855	20.781214
1175.323825	-2.997500	3.561900	-10.675000	25.498166	0.000853	20.781589
1176.327886	-3.008500	3.562100	-10.715000	25.464247	0.000854	20.772183
1177.324390	-3.014600	3.561400	-10.735000	25.429651	0.000855	20.768737
1178.324577	-3.000000	3.562700	-10.687000	25.415165	0.000853	20.763199
1179.327298	-3.001000	3.561000	-10.686000	25.439546	0.000853	20.758284
1180.326091	-3.017800	3.561600	-10.746000	25.433136	0.000853	20.757537
1181.328790	-2.976900	3.561700	-10.602000	25.425232	0.000852	20.770464
1182.329051	-3.001800	3.561600	-10.689000	25.379309	0.000852	20.772714
1183.327765	-2.996300	3.560300	-10.667000	25.372250	0.000852	20.776532
1184.326742	-3.004100	3.561500	-10.697000	25.380426	0.000854	20.772413
1185.327864	-3.007100	3.559500	-10.703000	25.366386	0.000851	20.786291
1186.327685	-3.009200	3.559800	-10.710000	25.353812	0.000851	20.774140
1187.328691	-2.977000	3.560700	-10.599000	25.398919	0.000852	20.767749
1188.328499	-3.000300	3.558100	-10.674000	25.367482	0.000851	20.773167
1189.331373	-2.992900	3.559800	-10.654000	25.370414	0.000850	20.773266
1190.330341	-2.976400	3.559700	-10.594000	25.368853	0.000852	20.777388
1191.329974	-3.034800	3.557500	-10.795000	25.372898	0.000847	20.771019
1192.329562	-3.021500	3.556800	-10.746000	25.362210	0.000848	20.769770
1193.328961	-3.007400	3.559000	-10.702000	25.370513	0.000848	20.776684
1194.329550	-2.990700	3.556600	-10.635000	25.373173	0.000849	20.775562
1195.330717	-3.003300	3.555700	-10.679000	25.415474	0.000849	20.768252
1196.332319	-2.988800	3.557000	-10.630000	25.416070	0.000846	20.797774
1197.332973	-2.978700	3.556800	-10.594000	25.425042	0.000848	20.772169
1198.331601	-2.984100	3.555900	-10.610000	25.435578	0.000845	20.779430
1199.332384	-3.006300	3.555400	-10.688000	25.475340	0.000845	20.790435
1200.332785	-2.980700	3.557300	-10.602000	25.450564	0.000844	20.796376
1201.332811	-2.983400	3.553600	-10.601000	25.422779	0.000843	20.784122
1202.331072	-2.987000	3.554500	-10.615000	25.430828	0.000842	20.790308
1203.334040	-3.007500	3.554000	-10.688000	25.396953	0.000842	20.787586
1204.335034	-3.015300	3.553600	-10.714000	25.397573	0.000843	20.802908
1205.333154	-3.004200	3.554400	-10.677000	25.393623	0.000840	20.796571
1206.335451	-3.013500	3.552800	-10.706000	25.358626	0.000839	20.789405
1207.332731	-2.989200	3.553300	-10.620000	25.312598	0.000843	20.797717
1208.335303	-2.980100	3.552600	-10.587000	25.326740	0.000840	20.808598
1209.335048	-2.983300	3.553400	-10.599000	25.325919	0.000840	20.797816
1210.334313	-2.984900	3.551300	-10.600000	25.306730	0.000839	20.790403
1211.335577	-2.975200	3.551900	-10.566000	25.315304	0.000839	20.793797
1212.340218	-3.010700	3.551500	-10.692000	25.290846	0.000839	20.811913
1213.337237	-3.020800	3.550500	-10.725000	25.282941	0.000838	20.806348
1214.336714	-3.006200	3.550600	-10.672000	25.298603	0.000837	20.806425
1215.342597	-3.010700	3.550600	-10.688000	25.325937	0.000838	20.794989
1216.339341	-2.994400	3.549700	-10.629000	25.354197	0.000837	20.809614
1217.340848	-3.008000	3.549400	-10.676000	25.382530	0.000834	20.810088
1218.346040	-3.003200	3.550000	-10.659000	25.388443	0.000836	20.814603
1219.339837	-3.015700	3.548900	-10.702000	25.369132	0.000836	20.798531
1220.340155	-3.004900	3.549500	-10.664000	25.370996	0.000836	20.813679
1221.340142	-2.986900	3.549600	-10.601000	25.365601	0.000834	20.804469
1222.341400	-3.017300	3.547900	-10.704000	25.386924	0.000835	20.799328
1223.343029	-3.020400	3.548200	-10.716000	25.425994	0.000836	20.811532
1224.344143	-2.976200	3.548700	-10.561000	25.436280	0.000830	20.810481
1225.345883	-3.002900	3.546200	-10.648000	25.451414	0.000833	20.802919
1226.349555	-3.016100	3.546300	-10.694000	25.483293	0.000833	20.820233
1227.345702	-2.996800	3.546300	-10.627000	25.494974	0.000833	20.800669
1228.347296	-3.016600	3.546000	-10.695000	25.472233	0.000830	20.820031
1229.347059	-3.025500	3.545200	-10.725000	25.476429	0.000830	20.824720
1230.347332	-2.998900	3.545200	-10.630000	25.484460	0.000830	20.820456
1231.347080	-3.002200	3.544600	-10.641000	25.466715	0.000830	20.809749
1232.346899	-3.005400	3.545700	-10.655000	25.471334	0.000829	20.808698
1233.345975	-3.012100	3.545200	-10.678000	25.467307	0.000827	20.821723
1234.346453	-2.966900	3.545300	-10.517000	25.491363	0.000827	20.834500
1235.348520	-2.998200	3.545200	-10.628000	25.527071	0.000824	20.814883
1236.349171	-2.996300	3.544800	-10.620000	25.561932	0.000826	20.829030
1237.350502	-2.992300	3.544700	-10.606000	25.562206	0.000825	20.826461
1238.354737	-2.987200	3.544900	-10.588000	25.578879	0.000824	20.817127
1239.353628	-2.994600	3.542800	-10.608000	25.592348	0.000824	20.827809
1240.350593	-2.996600	3.542500	-10.615000	25.558257	0.000825	20.822494
1241.352840	-3.022800	3.542300	-10.707000	25.544138	0.000823	20.814006
1242.354018	-3.006600	3.540800	-10.644000	25.539438	0.000822	20.834415
1243.353757	-3.004700	3.541500	-10.641000	25.557904	0.000822	20.822615
1244.353760	-3.003700	3.541100	-10.635000	25.565036	0.000820	20.827880
1245.356919	-2.995100	3.539700	-10.601000	25.569884	0.000820	20.830378
1246.357222	-3.006700	3.540000	-10.643000	25.583621	0.000823	20.828053
1247.355346	-3.002600	3.540800	-10.631000	25.571621	0.000819	20.821691
1248.356627	-3.012800	3.540400	-10.666000	25.569458	0.000820	20.838484
1249.356425	-2.993000	3.540800	-10.597000	25.585260	0.000818	20.821638
1250.360544	-2.995200	3.539500	-10.600000	25.604891	0.000818	20.817647
1251.357461	-3.015900	3.537600	-10.667000	25.602880	0.000817	20.827954
1252.357737	-2.986700	3.538900	-10.569000	25.614806	0.000818	20.808638
1253.357202	-2.980700	3.538200	-10.545000	25.621613	0.000815	20.820216
1254.359344	-3.017100	3.536900	-10.669000	25.596791	0.000814	20.822314
1255.361608	-3.014700	3.536900	-10.661000	25.557457	0.000815	20.843027
1256.358268	-2.988400	3.537300	-10.570000	25.517575	0.000813	20.811037
1257.358414	-3.018200	3.536700	-10.673000	25.510993	0.000813	20.825764
1258.362461	-3.001000	3.536700	-10.613000	25.515485	0.000815	20.831223
1259.359913	-3.001400	3.536500	-10.614000	25.507959	0.000813	20.834571
1260.359674	-3.008000	3.536300	-10.636000	25.561759	0.000812	20.835494
1261.363259	-2.999100	3.536100	-10.604000	25.540315	0.000813	20.839563
1262.359210	-3.031000	3.535200	-10.714000	25.568696	0.000812	20.834401
1263.360813	-2.998900	3.534900	-10.600000	25.566808	0.000812	20.822547
1264.361232	-2.960000	3.536800	-10.466000	25.578636	0.000811	20.830158
1265.363434	-2.987200	3.535200	-10.558000	25.579830	0.000810	20.841789
1266.365043	-2.979500	3.534800	-10.531000	25.583505	0.000811	20.846427
1267.363488	-2.972500	3.533700	-10.503000	25.584822	0.000812	20.830208
1268.364325	-2.998200	3.534000	-10.594000	25.586267	0.000810	20.835451
1269.368816	-2.982500	3.534500	-10.541000	25.550906	0.000810	20.845932
1270.364396	-3.015700	3.532600	-10.651000	25.575584	0.000809	20.837999
1271.364634	-2.991400	3.532800	-10.568000	25.609577	0.000811	20.833258
1272.365383	-2.991100	3.533200	-10.568000	25.605007	0.000807	20.823927
1273.363284	-2.995100	3.531600	-10.576000	25.612610	0.000806	20.845787
1274.365548	-3.007700	3.532700	-10.625000	25.609580	0.000808	20.858864
1275.365735	-2.978300	3.532700	-10.521000	25.590523	0.000807	20.844941
1276.365474	-3.001800	3.532600	-10.603000	25.621584	0.000804	20.853376
1277.369621	-3.011300	3.530200	-10.629000	25.642779	0.000807	20.836732
1278.364910	-3.018700	3.530400	-10.656000	25.668716	0.000805	20.838126
1279.366457	-3.002400	3.529600	-10.596000	25.651301	0.000804	20.843395
1280.365841	-2.996800	3.530000	-10.578000	25.660694	0.000805	20.863259
1281.366725	-3.005000	3.528800	-10.603000	25.678534	0.000802	20.855099
1282.369749	-3.005900	3.530000	-10.610000	25.704101	0.000803	20.857070
1283.367691	-2.990300	3.529200	-10.553000	25.683234	0.000802	20.851285
1284.369262	-3.012500	3.528600	-10.628000	25.670460	0.000802	20.865006
1285.366834	-2.975800	3.528200	-10.498000	25.661243	0.000802	20.847216
1286.368266	-2.990600	3.526300	-10.545000	25.679658	0.000801	20.857650
1287.371239	-3.011400	3.527900	-10.623000	25.689547	0.000801	20.841979
1288.371381	-3.008900	3.527400	-10.613000	25.709124	0.000799	20.855478
1289.372507	-2.991200	3.527700	-10.550000	25.701543	0.000801	20.858768
1290.373035	-2.995600	3.527300	-10.566000	25.693771	0.000798	20.853808
1291.372094	-3.013100	3.526100	-10.624000	25.713126	0.000797	20.848118
1292.372395	-3.012800	3.526400	-10.623000	25.719242	0.000800	20.859950
1293.375628	-3.010300	3.525100	-10.610000	25.704882	0.000800	20.844580
1294.377394	-2.993700	3.525400	-10.552000	25.713876	0.000797	20.859302
1295.373124	-2.990800	3.525400	-10.542000	25.690329	0.000797	20.864100
1296.376459	-2.997500	3.523300	-10.560000	25.707743	0.000796	20.870685
1297.374785	-2.991700	3.524400	-10.543000	25.701409	0.000795	20.854841
1298.372826	-2.975600	3.523700	-10.484000	25.713161	0.000796	20.878497
1299.372082	-2.999600	3.522900	-10.566000	25.743070	0.000795	20.858280
1300.372494	-3.003000	3.522400	-10.577000	25.745113	0.000794	20.861754
1301.374914	-2.991500	3.522400	-10.536000	25.760962	0.000792	20.867242
1302.374822	-3.003200	3.521000	-10.573000	25.767620	0.000794	20.871559
1303.377401	-3.009400	3.521700	-10.596000	25.768268	0.000792	20.842340
1304.375451	-3.006800	3.522200	-10.589000	25.777533	0.000793	20.863499
1305.378325	-3.030700	3.520900	-10.671000	25.760071	0.000792	20.877726
1306.379493	-3.000700	3.520100	-10.561000	25.788590	0.000792	20.874131
1307.377265	-2.986600	3.521300	-10.515000	25.752571	0.000790	20.881572
1308.380013	-2.990400	3.520900	-10.528000	25.721834	0.000793	20.872510
1309.380394	-2.974300	3.522100	-10.475000	25.737063	0.000790	20.880220
1310.378972	-3.009700	3.518900	-10.590000	25.726160	0.000789	20.883493
1311.379998	-3.013400	3.519300	-10.604000	25.717984	0.000789	20.888556
1312.383561	-2.996800	3.519000	-10.544000	25.724991	0.000786	20.880422
1313.381601	-3.001600	3.518100	-10.559000	25.671748	0.000786	20.868197
1314.379385	-2.987800	3.518100	-10.510000	25.656716	0.000786	20.891503
1315.384447	-2.981800	3.517900	-10.489000	25.662504	0.000787	20.862232
1316.380713	-3.012300	3.517000	-10.593000	25.648739	0.000785	20.879700
1317.380845	-2.993000	3.518000	-10.529000	25.662205	0.000787	20.880422
1318.385222	-2.989300	3.517000	-10.511000	25.634453	0.000786	20.900911
1319.383333	-3.000400	3.517600	-10.553000	25.607592	0.000783	20.900961
1320.382746	-3.031600	3.515700	-10.657000	25.634876	0.000785	20.882846
1321.388403	-3.005400	3.514900	-10.563000	25.612144	0.000784	20.877085
1322.384414	-3.012000	3.515800	-10.588000	25.623320	0.000784	20.879300
1323.384687	-3.006300	3.516000	-10.567000	25.570795	0.000783	20.881076
1324.387495	-3.021300	3.513900	-10.616000	25.596734	0.000784	20.893849
1325.384018	-2.986800	3.515900	-10.500000	25.606549	0.000783	20.888535
1326.384473	-3.025700	3.513600	-10.629000	25.605876	0.000782	20.894497
1327.388082	-2.991600	3.514900	-10.514000	25.574495	0.000781	20.888584
1328.387183	-3.010800	3.513100	-10.576000	25.584008	0.000781	20.899086
1329.386482	-2.997000	3.512900	-10.527000	25.636592	0.000781	20.883146
1330.387569	-2.988900	3.512900	-10.499000	25.669036	0.000779	20.892024
1331.387167	-2.997000	3.513100	-10.528000	25.650057	0.000779	20.879601
1332.389164	-2.987800	3.513200	-10.496000	25.665213	0.000778	20.876332
1333.388405	-3.010500	3.511200	-10.570000	25.676346	0.000778	20.890831
1334.390646	-3.009100	3.511100	-10.564000	25.686182	0.000777	20.896917
1335.390602	-2.985400	3.511300	-10.481000	25.703600	0.000778	20.892600
1336.390146	-2.997300	3.509900	-10.520000	25.724617	0.000774	20.870564
1337.390302	-3.014000	3.509500	-10.576000	25.723574	0.000775	20.920247
1338.394580	-2.987900	3.509300	-10.484000	25.763206	0.000773	20.897943
1339.393619	-2.999000	3.509500	-10.524000	25.746955	0.000774	20.910068
1340.389739	-2.976300	3.509700	-10.444000	25.726012	0.000775	20.888560
1341.389452	-2.992600	3.509600	-10.502000	25.686707	0.000772	20.885591
1342.390687	-3.003900	3.508200	-10.537000	25.674109	0.000772	20.886214
1343.390807	-3.018600	3.507100	-10.586000	25.663430	0.000771	20.879757
1344.389096	-3.013200	3.506600	-10.565000	25.669617	0.000773	20.909201
1345.389505	-2.999900	3.508300	-10.524000	25.673344	0.000773	20.897299
1346.394985	-3.012400	3.506300	-10.561000	25.676251	0.000772	20.928190
1347.391146	-2.974400	3.507300	-10.431000	25.695933	0.000771	20.899124
1348.390421	-3.003000	3.505000	-10.525000	25.694190	0.000769	20.908752
1349.391098	-2.984400	3.505400	-10.460000	25.706414	0.000771	20.912969
1350.391789	-3.020900	3.504800	-10.586000	25.704304	0.000769	20.918436
1351.393122	-2.990900	3.506600	-10.486000	25.700725	0.000771	20.892084
1352.393142	-3.002100	3.504500	-10.519000	25.720851	0.000769	20.912297
1353.393215	-3.000300	3.504000	-10.512000	25.716208	0.000768	20.909056
1354.395007	-2.999800	3.504900	-10.513000	25.705375	0.000768	20.899124
1355.394957	-2.994300	3.505900	-10.495000	25.698769	0.000768	20.893913
1356.396980	-2.985300	3.504900	-10.462000	25.699611	0.000768	20.921782
1357.400311	-3.020400	3.503400	-10.581000	25.707767	0.000767	20.911009
1358.402531	-2.998600	3.503700	-10.505000	25.713058	0.000766	20.899255
1359.397039	-2.998800	3.502900	-10.503000	25.724036	0.000767	20.911228
1360.397793	-3.007900	3.502600	-10.533000	25.738405	0.000764	20.918548
1361.399544	-3.005200	3.502200	-10.524000	25.746377	0.000767	20.894316
1362.397033	-2.996300	3.501100	-10.490000	25.790647	0.000765	20.894213
1363.398055	-3.000500	3.500600	-10.503000	25.780541	0.000765	20.884062
1364.398376	-2.996900	3.500500	-10.489000	25.735347	0.000765	20.892720
1365.400187	-3.000600	3.501700	-10.506000	25.725684	0.000764	20.903402
1366.398851	-3.000500	3.499700	-10.500000	25.737584	0.000764	20.888329
1367.397590	-2.987700	3.499800	-10.455000	25.699072	0.000763	20.900854
1368.397600	-3.013500	3.498400	-10.541000	25.686876	0.000762	20.896665
1369.398309	-2.991100	3.499900	-10.466000	25.633829	0.000762	20.875631
1370.399264	-2.995200	3.500400	-10.483000	25.618274	0.000762	20.895568
1371.399748	-2.993900	3.498500	-10.473000	25.607067	0.000761	20.903752
1372.399017	-3.002300	3.497900	-10.501000	25.603466	0.000759	20.876430
1373.400183	-3.005000	3.496500	-10.505000	25.577721	0.000759	20.895144
1374.401119	-2.981900	3.497500	-10.429000	25.568205	0.000760	20.894121
1375.399867	-3.011500	3.495600	-10.526000	25.567712	0.000761	20.867075
1376.401160	-3.009400	3.496800	-10.522000	25.522559	0.000758	20.886213
1377.401011	-2.990800	3.496100	-10.455000	25.498257	0.000758	20.883620
1378.401293	-3.013900	3.496000	-10.536000	25.529243	0.000757	20.885814
1379.402989	-2.983800	3.496000	-10.430000	25.557825	0.000756	20.881801
1380.399414	-3.026600	3.493500	-10.573000	25.595817	0.000756	20.876335
1381.400571	-3.015900	3.494600	-10.539000	25.606031	0.000755	20.874739
1382.402194	-2.988500	3.495100	-10.444000	25.605083	0.000755	20.892752
1383.405864	-2.989200	3.494400	-10.444000	25.609755	0.000753	20.869945
1384.402479	-2.991000	3.494300	-10.451000	25.612637	0.000754	20.886114
1385.402640	-2.988900	3.493100	-10.440000	25.668147	0.000752	20.878804
1386.403263	-2.977700	3.492600	-10.398000	25.655450	0.000752	20.880276
1387.402932	-3.009700	3.490900	-10.506000	25.677142	0.000751	20.867450
1388.403235	-2.989800	3.492500	-10.441000	25.716673	0.000751	20.870171
1389.405545	-2.994300	3.491100	-10.452000	25.741392	0.000752	20.906377
1390.404597	-3.017700	3.491800	-10.536000	25.752944	0.000750	20.888584
1391.403502	-2.995800	3.490900	-10.457000	25.777145	0.000749	20.877807
1392.406849	-3.002400	3.489400	-10.476000	25.766608	0.000751	20.871491
1393.407884	-3.018800	3.490400	-10.535000	25.729767	0.000747	20.889960
1394.403588	-3.009000	3.488700	-10.496000	25.709814	0.000749	20.862334
1395.408521	-2.989500	3.490100	-10.432000	25.684945	0.000749	20.871968
1396.412415	-3.009600	3.487000	-10.493000	25.673939	0.000746	20.875139
1397.407321	-2.994500	3.488400	-10.445000	25.704522	0.000748	20.877881
1398.409877	-3.012900	3.488100	-10.509000	25.710958	0.000747	20.884819
1399.407813	-3.001800	3.488100	-10.469000	25.743654	0.000746	20.880676
1400.406577	-3.017800	3.486500	-10.521000	25.751305	0.000745	20.858017
1401.407238	-3.000200	3.489000	-10.467000	25.744027	0.000745	20.871569
1402.407207	-2.990400	3.488300	-10.429000	25.756375	0.000743	20.871169
1403.408625	-2.995700	3.486700	-10.444000	25.745447	0.000744	20.883425
1404.407554	-2.992100	3.487300	-10.433000	25.729940	0.000743	20.869272
1405.409994	-3.007100	3.486100	-10.481000	25.719160	0.000742	20.869824
1406.407111	-2.985800	3.487200	-10.410000	25.690839	0.000742	20.855130
1407.407427	-2.988900	3.485000	-10.415000	25.724081	0.000741	20.868129
1408.410323	-2.997900	3.484700	-10.446000	25.742319	0.000742	20.854680
1409.406085	-3.023600	3.484000	-10.533000	25.713252	0.000740	20.867684
1410.409527	-3.013600	3.483000	-10.495000	25.690046	0.000740	20.852911
1411.406787	-3.005700	3.484500	-10.471000	25.698198	0.000739	20.862995
1412.407236	-3.012500	3.484500	-10.495000	25.685051	0.000739	20.852161
1413.410499	-2.985800	3.483200	-10.399000	25.713579	0.000738	20.863745
1414.410464	-3.000600	3.482800	-10.449000	25.737704	0.000739	20.862847
1415.407832	-3.003300	3.483500	-10.461000	25.761856	0.000737	20.846330
1416.408637	-2.991800	3.481400	-10.415000	25.761930	0.000738	20.870111
1417.409649	-2.985500	3.482000	-10.395000	25.767101	0.000739	20.860607
1418.408852	-2.992900	3.481100	-10.417000	25.756121	0.000737	20.863802
1419.412185	-2.991600	3.480800	-10.413000	25.753165	0.000734	20.845661
1420.408125	-3.011700	3.479300	-10.477000	25.767922	0.000735	20.851001
1421.412728	-2.984700	3.480400	-10.387000	25.797889	0.000735	20.857868
1422.410550	-2.998600	3.479900	-10.433000	25.823378	0.000734	20.848860
1423.409274	-2.987000	3.480100	-10.394000	25.864345	0.000735	20.853028
1424.409413	-2.979500	3.479700	-10.365000	25.849663	0.000734	20.851556
1425.409505	-3.015000	3.478800	-10.488000	25.819458	0.000732	20.851560
1426.408305	-3.016300	3.479100	-10.492000	25.804230	0.000733	20.837686
1427.412472	-2.999700	3.477100	-10.428000	25.791189	0.000733	20.833121
1428.412000	-2.996800	3.476400	-10.417000	25.752404	0.000734	20.840156
1429.413006	-2.996000	3.476500	-10.414000	25.772928	0.000734	20.845123
1430.413388	-2.981300	3.477100	-10.364000	25.763737	0.000732	20.855805
1431.412965	-3.008100	3.476200	-10.456000	25.750379	0.000732	20.858035
1432.413113	-3.000800	3.475100	-10.426000	25.726399	0.000733	20.829682
1433.411954	-3.003400	3.474800	-10.435000	25.701555	0.000733	20.846928
1434.413486	-3.004400	3.474500	-10.438000	25.717010	0.000730	20.829735
1435.413817	-3.007600	3.475000	-10.451000	25.724116	0.000729	20.848251
1436.413638	-3.013100	3.473600	-10.464000	25.712438	0.000729	20.832254
1437.414570	-3.011700	3.474300	-10.463000	25.718849	0.000730	20.833005
1438.413033	-2.988500	3.474500	-10.382000	25.712015	0.000730	20.839890
1439.414114	-2.993000	3.473500	-10.395000	25.706526	0.000729	20.843386
1440.417699	-2.983200	3.473600	-10.362000	25.677656	0.000728	20.833355
1441.416667	-3.002400	3.473400	-10.427000	25.645825	0.000728	20.842162
1442.416487	-2.988100	3.472100	-10.374000	25.660985	0.000729	20.842215
1443.413788	-3.019200	3.471000	-10.478000	25.695894	0.000726	20.835552
1444.412753	-3.006100	3.470000	-10.430000	25.712265	0.000727	20.844409
1445.413654	-2.997700	3.473100	-10.409000	25.753310	0.000725	20.842487
1446.415946	-3.020400	3.468700	-10.475000	25.762102	0.000725	20.835672
1447.415843	-2.993100	3.471200	-10.388000	25.745855	0.000724	20.841164
1448.417713	-3.006200	3.468900	-10.426000	25.683518	0.000726	20.840191
1449.413888	-3.010600	3.470200	-10.446000	25.710250	0.000725	20.831480
1450.413172	-2.998400	3.470200	-10.404000	25.705755	0.000725	20.853516
1451.419259	-3.015100	3.468700	-10.457000	25.740691	0.000724	20.822227
1452.415622	-2.993900	3.467800	-10.381000	25.752066	0.000722	20.849299
1453.416182	-3.021200	3.467500	-10.474000	25.773160	0.000722	20.825917
1454.417240	-3.009000	3.467300	-10.431000	25.796639	0.000722	20.848552
1455.415629	-3.023500	3.466700	-10.481000	25.779004	0.000723	20.835580
1456.415861	-2.996900	3.467600	-10.391000	25.750305	0.000719	20.835202
1457.418321	-3.015300	3.466200	-10.450000	25.767422	0.000718	20.828688
1458.415514	-2.990100	3.466500	-10.364000	25.783150	0.000719	20.830262
1459.417499	-3.001300	3.467600	-10.407000	25.797861	0.000721	20.847883
1460.415516	-2.991800	3.467600	-10.373000	25.778381	0.000718	20.836851
1461.416317	-2.993000	3.466000	-10.373000	25.758460	0.000716	20.850031
1462.426839	-2.993400	3.464800	-10.370000	25.743580	0.000715	20.825128
1463.417014	-2.998900	3.463500	-10.384000	25.725494	0.000717	20.824980
1464.418474	-3.006600	3.464200	-10.415000	25.722538	0.000715	20.833864
1465.415392	-3.023000	3.461900	-10.463000	25.751481	0.000718	20.831642
1466.416047	-3.020400	3.463100	-10.459000	25.764378	0.000715	20.837958
1467.421219	-3.006300	3.462800	-10.409000	25.753947	0.000715	20.835067
1468.418839	-3.008200	3.461800	-10.413000	25.757128	0.000716	20.817875
1469.416039	-2.993100	3.463000	-10.364000	25.749079	0.000714	20.832074
1470.417455	-2.991300	3.462500	-10.356000	25.759291	0.000712	20.819099
1471.416665	-3.002200	3.461000	-10.390000	25.791788	0.000712	20.828507
1472.417220	-2.986300	3.463500	-10.341000	25.745405	0.000712	20.813685
1473.420050	-3.020500	3.459600	-10.449000	25.749607	0.000711	20.806053
1474.417262	-2.974300	3.460100	-10.289000	25.761134	0.000712	20.810044
1475.422318	-3.003600	3.461600	-10.397000	25.785683	0.000709	20.800565
1476.416986	-3.013700	3.458200	-10.421000	25.796241	0.000709	20.818756
1477.417199	-3.018600	3.458800	-10.439000	25.833580	0.000709	20.821176
1478.417982	-2.974700	3.459300	-10.287000	25.878026	0.000710	20.837849
1479.419670	-3.004400	3.457800	-10.388000	25.898818	0.000708	20.822701
1480.417995	-2.979600	3.458400	-10.304000	25.910744	0.000709	20.828992
1481.419940	-2.987900	3.457200	-10.329000	25.911540	0.000708	20.794705
1482.418860	-2.994200	3.457400	-10.351000	25.916383	0.000707	20.823278
1483.420319	-2.993800	3.456400	-10.347000	25.917852	0.000707	20.800098
1484.421086	-2.991300	3.457100	-10.341000	25.874630	0.000709	20.800299
1485.420489	-3.003700	3.455900	-10.380000	25.813117	0.000709	20.813423
1486.420484	-2.999000	3.454400	-10.359000	25.800447	0.000707	20.794058
1487.419600	-2.990200	3.454900	-10.328000	25.792796	0.000707	20.806286
1488.420017	-3.006300	3.454100	-10.382000	25.806238	0.000707	20.812203
1489.427474	-3.001700	3.455600	-10.372000	25.833168	0.000704	20.819814
1490.421188	-2.992200	3.454100	-10.334000	25.849413	0.000704	20.805313
1491.422335	-2.996200	3.453600	-10.345000	25.846380	0.000705	20.828345
1492.421369	-2.991300	3.452000	-10.324000	25.858903	0.000707	20.811053
1493.421999	-3.012800	3.452900	-10.401000	25.821290	0.000703	20.797925
1494.424365	-2.983600	3.454600	-10.305000	25.776176	0.000704	20.815196
1495.423193	-2.999200	3.451800	-10.352000	25.767154	0.000702	20.802341
1496.421956	-3.006000	3.452100	-10.376000	25.779801	0.000703	20.812199
1497.422387	-3.000900	3.452500	-10.359000	25.792493	0.000703	20.796973
1498.422507	-3.004000	3.450800	-10.365000	25.806749	0.000703	20.800388
1499.422502	-2.997800	3.451300	-10.346000	25.818179	0.000700	20.801913
1500.425316	-3.012600	3.450100	-10.392000	25.841199	0.000700	20.799906
1501.425313	-2.988700	3.451100	-10.313000	25.840287	0.000702	20.822697
1502.430670	-3.015900	3.450000	-10.404000	25.837278	0.000699	20.797865
1503.425184	-3.015900	3.449000	-10.400000	25.785056	0.000698	20.818427
1504.426778	-3.006000	3.449100	-10.367000	25.806844	0.000699	20.809492
1505.429367	-3.002200	3.449100	-10.354000	25.828705	0.000697	20.804899
1506.427052	-3.036500	3.446700	-10.465000	25.843534	0.000697	20.800830
1507.425908	-3.003300	3.447000	-10.351000	25.874362	0.000697	20.786754
1508.425588	-2.996300	3.446700	-10.326000	25.868226	0.000694	20.818522
1509.428033	-2.979400	3.448700	-10.273000	25.884221	0.000695	20.791917
1510.426748	-2.981300	3.446100	-10.272000	25.824900	0.000694	20.804397
1511.429903	-3.012600	3.446700	-10.382000	25.798467	0.000694	20.796810
1512.426706	-3.004900	3.446300	-10.355000	25.755557	0.000695	20.786425
1513.429590	-2.993900	3.446600	-10.318000	25.740032	0.000693	20.795487
1514.427703	-2.985100	3.445500	-10.284000	25.715756	0.000693	20.794811
1515.428898	-2.979800	3.445500	-10.265000	25.677645	0.000692	20.809163
1516.435102	-2.994200	3.445100	-10.313000	25.695235	0.000693	20.783683
1517.430830	-3.000100	3.444300	-10.332000	25.672128	0.000693	20.778492
1518.431497	-3.012100	3.445900	-10.379000	25.663306	0.000692	20.806615
1519.430768	-3.016400	3.443200	-10.385000	25.685473	0.000690	20.789050
1520.431246	-3.019700	3.443300	-10.396000	25.718198	0.000689	20.789677
1521.433579	-3.013500	3.442500	-10.373000	25.742023	0.000688	20.791322
1522.432354	-2.989000	3.442400	-10.288000	25.792482	0.000689	20.805497
1523.433777	-2.990800	3.442500	-10.295000	25.770599	0.000689	20.807698
1524.438437	-2.999500	3.441000	-10.320000	25.761655	0.000688	20.786386
1525.433981	-3.019700	3.441500	-10.391000	25.763120	0.000687	20.801134
1526.439311	-3.010700	3.439900	-10.355000	25.750625	0.000686	20.791428
1527.433108	-2.992200	3.440200	-10.292000	25.765357	0.000688	20.779199
1528.433797	-3.004200	3.439900	-10.333000	25.788265	0.000687	20.777080
1529.433097	-3.004200	3.438900	-10.330000	25.795846	0.000687	20.795600
1530.438835	-2.992500	3.440500	-10.295000	25.797558	0.000686	20.767922
1531.436852	-2.994400	3.439200	-10.296000	25.788044	0.000686	20.783969
1532.437611	-2.989900	3.438100	-10.279000	25.788248	0.000686	20.782752
1533.437427	-2.999700	3.437700	-10.311000	25.786409	0.000685	20.787543
1534.436467	-2.975600	3.438300	-10.230000	25.782457	0.000685	20.772667
1535.435987	-3.007800	3.435900	-10.334000	25.769018	0.000687	20.780979
1536.442104	-3.016200	3.436400	-10.364000	25.778582	0.000683	20.783474
1537.439354	-3.017700	3.436500	-10.368000	25.800246	0.000684	20.780579
1538.439036	-2.988100	3.436300	-10.267000	25.829191	0.000684	20.763188
1539.440047	-3.012900	3.435800	-10.350000	25.835623	0.000684	20.774865
1540.437047	-2.980000	3.435800	-10.238000	25.804822	0.000684	20.780909
1541.437453	-2.996200	3.435700	-10.294000	25.777416	0.000684	20.759069
1542.441882	-3.025000	3.434600	-10.388000	25.765914	0.000681	20.780707
1543.438651	-3.010900	3.433500	-10.336000	25.783454	0.000682	20.778410
1544.444219	-3.014400	3.434100	-10.351000	25.785764	0.000682	20.773145
1545.439542	-3.012900	3.433900	-10.345000	25.780773	0.000679	20.789942
1546.441613	-3.009900	3.434800	-10.338000	25.806759	0.000679	20.765785
1547.441305	-3.002700	3.433600	-10.309000	25.831576	0.000679	20.767954
1548.439330	-3.025200	3.431400	-10.379000	25.854778	0.000679	20.776089
1549.440301	-2.993700	3.432400	-10.275000	25.892411	0.000677	20.747986
1550.440307	-2.977800	3.432200	-10.220000	25.913678	0.000676	20.775042
1551.440062	-3.016300	3.430800	-10.347000	25.942219	0.000676	20.774316
1552.440989	-3.004300	3.430200	-10.304000	25.944283	0.000677	20.778286
1553.442609	-2.999900	3.431000	-10.290000	25.956501	0.000676	20.752154
1554.440639	-2.978400	3.431500	-10.219000	25.961323	0.000675	20.759844
1555.441577	-2.987400	3.429500	-10.244000	25.941201	0.000670	20.783725
1556.441830	-2.989700	3.431000	-10.256000	25.922766	0.000672	20.756195
1557.441209	-2.957300	3.431400	-10.147000	25.872291	0.000671	20.769026
1558.446590	-2.990900	3.430100	-10.259000	25.878649	0.000670	20.757869
1559.444321	-2.998900	3.429300	-10.283000	25.876613	0.000671	20.767204
1560.445349	-3.028500	3.428200	-10.381000	25.883249	0.000670	20.762965
1561.444149	-3.011300	3.427900	-10.322000	25.845440	0.000670	20.774769
1562.444818	-3.005200	3.428400	-10.302000	25.802261	0.000669	20.766956
1563.447505	-3.004000	3.427700	-10.296000	25.788449	0.000669	20.781531
1564.445943	-2.997300	3.427000	-10.270000	25.780921	0.000669	20.755951
1565.444099	-3.017900	3.427000	-10.341000	25.771956	0.000669	20.768283
1566.446622	-3.001500	3.426400	-10.283000	25.794687	0.000668	20.754607
1567.447211	-3.004000	3.425400	-10.289000	25.807288	0.000665	20.760626
1568.444942	-3.032900	3.425400	-10.387000	25.780107	0.000667	20.750392
1569.446414	-2.983900	3.425800	-10.221000	25.771438	0.000667	20.770608
1570.446266	-3.012300	3.423600	-10.310000	25.760433	0.000667	20.754812
1571.449499	-2.994500	3.425700	-10.258000	25.747096	0.000664	20.767020
1572.446283	-3.007100	3.423600	-10.294000	25.732508	0.000663	20.737193
1573.446508	-2.989300	3.423300	-10.232000	25.778177	0.000664	20.731383
1574.448152	-3.004300	3.422500	-10.282000	25.794029	0.000664	20.771015
1575.447785	-2.988800	3.423400	-10.232000	25.824217	0.000663	20.750130
1576.448113	-2.976500	3.423000	-10.187000	25.841259	0.000661	20.744016
1577.447141	-2.997400	3.423000	-10.259000	25.874870	0.000663	20.750753
1578.446096	-2.993600	3.421800	-10.242000	25.887543	0.000660	20.747838
1579.449831	-3.017100	3.421800	-10.323000	25.872986	0.000661	20.761663
1580.448445	-3.007900	3.420300	-10.287000	25.862433	0.000660	20.783779
1581.446901	-3.003200	3.420500	-10.272000	25.841541	0.000660	20.758524
1582.447515	-3.008400	3.420200	-10.289000	25.865117	0.000658	20.749490
1583.446931	-3.001600	3.420800	-10.267000	25.907674	0.000658	20.745301
1584.448216	-2.995800	3.419700	-10.244000	25.927694	0.000657	20.740283
1585.450454	-3.015900	3.418100	-10.308000	25.954800	0.000658	20.751394
1586.447625	-2.997100	3.418600	-10.245000	25.932540	0.000658	20.749420
1587.448246	-3.002300	3.417100	-10.258000	25.951595	0.000655	20.763822
1588.446373	-3.002900	3.418800	-10.265000	25.972090	0.000655	20.753592
1589.446167	-3.015800	3.416000	-10.301000	25.985949	0.000657	20.741911
1590.447886	-3.004300	3.417400	-10.266000	25.989257	0.000656	20.760407
1591.448815	-3.026900	3.416200	-10.340000	26.016805	0.000655	20.758213
1592.447367	-3.004400	3.416800	-10.264000	26.001929	0.000654	20.738050
1593.446977	-3.040100	3.415400	-10.382000	25.991645	0.000654	20.753323
1594.447672	-3.024100	3.415600	-10.327000	26.006948	0.000655	20.765853
1595.449530	-3.031900	3.413600	-10.347000	26.000122	0.000655	20.742874
1596.448073	-3.040400	3.413500	-10.378000	25.989285	0.000653	20.740994
1597.449330	-2.995600	3.412800	-10.222000	25.954466	0.000654	20.736833
1598.446444	-3.008200	3.413800	-10.268000	25.954491	0.000655	20.741125
1599.446542	-3.019500	3.412900	-10.304000	25.970442	0.000651	20.772325
1600.446293	-3.016900	3.414000	-10.297000	25.977419	0.000652	20.745669
1601.450953	-3.016500	3.412700	-10.294000	26.024962	0.000654	20.757400
1602.447342	-2.989900	3.414200	-10.206000	26.017809	0.000653	20.754954
1603.446974	-3.002500	3.412800	-10.246000	26.043892	0.000653	20.747021
1604.448383	-2.999500	3.411800	-10.233000	26.044385	0.000652	20.764112
1605.448868	-2.995300	3.411100	-10.215000	26.042977	0.000652	20.732824
1606.451954	-2.990300	3.413200	-10.205000	26.058965	0.000651	20.752208
1607.447856	-2.984400	3.411800	-10.181000	26.057233	0.000651	20.726759
1608.450001	-3.009800	3.410200	-10.263000	26.054672	0.000650	20.746473
1609.447329	-2.987100	3.409100	-10.182000	26.025462	0.000651	20.746048
1610.449536	-3.003900	3.409800	-10.242000	26.020669	0.000649	20.753560
1611.450883	-2.986900	3.410100	-10.185000	25.997122	0.000649	20.735591
1612.451173	-3.020000	3.408600	-10.293000	26.014978	0.000648	20.756851
1613.451235	-3.002500	3.409800	-10.236000	26.011005	0.000649	20.754756
1614.457813	-2.977900	3.409400	-10.153000	26.054271	0.000648	20.751285
1615.453753	-2.973700	3.408600	-10.134000	26.039691	0.000649	20.735687
1616.456277	-2.981600	3.409600	-10.165000	26.049728	0.000649	20.755729
1617.462431	-3.025000	3.407100	-10.306000	26.014153	0.000649	20.741798
1618.457907	-3.003600	3.407100	-10.231000	25.997417	0.000647	20.765761
1619.463490	-2.984000	3.408400	-10.169000	25.939265	0.000646	20.735312
1620.456282	-2.993700	3.407300	-10.200000	25.882972	0.000645	20.753677
1621.463089	-3.005000	3.406100	-10.234000	25.900862	0.000645	20.772123
1622.458043	-3.002300	3.405800	-10.223000	25.919068	0.000647	20.752007
1623.458850	-3.011700	3.404700	-10.253000	25.919544	0.000644	20.756752
1624.458644	-3.010600	3.406800	-10.255000	25.922643	0.000646	20.735683
1625.462110	-2.968200	3.404800	-10.105000	25.929522	0.000643	20.754922
1626.458510	-3.013700	3.403900	-10.257000	25.910893	0.000644	20.745690
1627.458729	-2.993800	3.404900	-10.193000	25.939233	0.000641	20.749031
1628.464021	-2.985400	3.404200	-10.162000	25.939036	0.000644	20.758790
1629.461986	-2.992300	3.403800	-10.184000	25.960844	0.000642	20.774537
1630.460222	-3.010200	3.401900	-10.239000	25.984241	0.000641	20.756316
1631.462403	-3.012100	3.402100	-10.247000	25.972668	0.000639	20.758440
1632.461280	-3.002200	3.401700	-10.211000	25.959749	0.000640	20.756366
1633.465670	-3.016600	3.401900	-10.261000	25.952543	0.000639	20.765722
1634.465667	-2.978900	3.401400	-10.132000	25.968462	0.000638	20.760853
1635.469496	-3.010200	3.401200	-10.237000	25.961929	0.000636	20.742909
1636.462636	-2.991500	3.401500	-10.174000	25.986499	0.000636	20.755265
1637.464898	-3.015000	3.399800	-10.249000	26.024448	0.000638	20.777272
1638.464005	-3.024900	3.398800	-10.281000	26.016129	0.000637	20.766069
1639.463637	-2.994800	3.399000	-10.178000	26.015410	0.000636	20.742587
1640.463146	-3.008500	3.399200	-10.225000	26.025194	0.000636	20.774228
1641.465047	-3.004600	3.399700	-10.214000	26.030090	0.000635	20.746430
1642.465252	-3.004400	3.399200	-10.211000	26.026835	0.000635	20.766394
1643.463571	-2.983700	3.398300	-10.138000	26.047153	0.000634	20.783963
1644.467838	-3.003400	3.398200	-10.205000	26.055049	0.000634	20.773878
1645.464389	-2.992700	3.398400	-10.169000	26.046008	0.000631	20.739664
1646.469883	-3.020300	3.397300	-10.260000	26.041166	0.000631	20.777947
1647.464921	-3.004400	3.397200	-10.206000	26.044691	0.000632	20.765842
1648.469538	-3.020000	3.396700	-10.256000	26.056264	0.000630	20.760874
1649.470221	-2.996700	3.396600	-10.177000	26.074048	0.000631	20.774476
1650.467685	-2.999200	3.395300	-10.182000	26.061553	0.000633	20.765240
1651.471325	-2.996300	3.394800	-10.170000	26.014209	0.000631	20.774572
1652.466933	-2.971900	3.397300	-10.096000	25.999850	0.000631	20.761567
1653.468515	-2.987400	3.394800	-10.140000	25.961302	0.000631	20.765039
1654.471491	-3.003900	3.394700	-10.196000	25.988400	0.000631	20.775194
1655.473313	-3.012100	3.393900	-10.221000	25.991627	0.000629	20.756624
1656.469574	-2.987600	3.394800	-10.140000	25.988844	0.000628	20.760467
1657.473280	-2.984400	3.393300	-10.125000	25.987678	0.000628	20.775891
1658.469223	-3.000100	3.392700	-10.178000	25.967233	0.000630	20.771946
1659.471864	-2.984200	3.394300	-10.128000	25.966786	0.000626	20.774341
1660.475231	-2.999400	3.392200	-10.173000	25.986583	0.000628	20.749186
1661.471669	-3.007600	3.392200	-10.202000	25.987794	0.000626	20.774585
1662.481540	-2.993600	3.392400	-10.155000	25.990999	0.000627	20.791556
1663.469574	-2.978200	3.392300	-10.102000	25.970751	0.000625	20.779748
1664.473199	-3.017000	3.392700	-10.235000	25.951898	0.000624	20.751323
1665.472785	-2.994100	3.390100	-10.149000	25.971773	0.000622	20.752324
1666.473031	-2.985600	3.390900	-10.123000	25.998867	0.000624	20.788555
1667.472395	-3.007500	3.390100	-10.194000	26.036076	0.000624	20.786584
1668.473540	-2.981600	3.389300	-10.105000	26.049339	0.000621	20.761029
1669.476585	-2.995900	3.389800	-10.155000	26.079292	0.000623	20.785909
1670.472861	-3.014900	3.387700	-10.213000	26.088726	0.000620	20.791595
1671.476852	-3.003000	3.387000	-10.170000	26.078496	0.000621	20.777522
1672.475329	-2.991000	3.389500	-10.136000	26.068536	0.000621	20.800706
1673.476352	-3.001800	3.388900	-10.171000	26.038059	0.000619	20.761549
1674.474334	-2.979900	3.388400	-10.096000	26.060813	0.000619	20.775403
1675.474936	-3.024800	3.386100	-10.240000	26.053435	0.000619	20.786956
1676.478867	-3.018100	3.386400	-10.219000	26.113642	0.000618	20.791025
1677.475610	-3.008900	3.385600	-10.184000	26.119973	0.000617	20.794068
1678.477572	-3.003300	3.387000	-10.170000	26.125460	0.000617	20.773977
1679.474907	-2.990000	3.385800	-10.122000	26.123203	0.000618	20.794942
1680.486142	-3.035700	3.384800	-10.273000	26.109867	0.000616	20.790077
1681.481805	-3.011700	3.385500	-10.195000	26.092033	0.000617	20.778322
1682.478139	-3.001700	3.386000	-10.163000	26.079123	0.000619	20.783368
1683.477718	-3.009800	3.384900	-10.187000	26.095565	0.000616	20.798941
1684.477690	-2.975800	3.385400	-10.073000	26.086501	0.000618	20.793626
1685.481777	-3.018800	3.385400	-10.217000	26.070805	0.000617	20.808675
1686.481435	-3.002800	3.382000	-10.154000	26.015318	0.000615	20.794178
1687.478490	-3.005500	3.384600	-10.171000	26.011067	0.000616	20.780898
1688.479332	-3.015400	3.382500	-10.199000	26.031459	0.000615	20.780523
1689.478930	-3.001400	3.383600	-10.154000	25.993060	0.000615	20.785565
1690.479539	-3.008700	3.382300	-10.176000	26.013131	0.000613	20.812369
1691.480227	-3.012000	3.379600	-10.178000	25.992067	0.000612	20.787413
1692.480191	-2.998000	3.381400	-10.136000	25.965338	0.000614	20.800388
1693.483107	-2.996300	3.382200	-10.132000	25.956149	0.000614	20.804433
1694.480633	-2.988400	3.381200	-10.103000	25.945885	0.000612	20.808820
1695.481839	-2.997500	3.381300	-10.134000	25.992711	0.000612	20.789008
1696.486578	-2.991400	3.379400	-10.108000	26.028328	0.000610	20.794921
1697.480470	-2.980600	3.381400	-10.078000	26.037693	0.000611	20.808123
1698.481011	-2.996000	3.378800	-10.122000	26.066828	0.000609	20.784766
1699.481262	-2.996500	3.378600	-10.123000	26.092956	0.000607	20.787784
1700.481082	-3.008000	3.377400	-10.157000	26.101971	0.000607	20.808696
1701.481242	-3.000100	3.379200	-10.136000	26.087342	0.000607	20.815808
1702.485455	-3.015200	3.377800	-10.184000	26.081503	0.000607	20.807571
1703.483108	-2.986800	3.377600	-10.087000	26.059697	0.000607	20.795144
1704.485748	-3.012100	3.376900	-10.171000	26.053935	0.000605	20.802631
1705.482698	-3.004500	3.376600	-10.145000	26.054932	0.000606	20.807426
1706.483305	-2.986700	3.377500	-10.087000	26.023408	0.000604	20.806573
1707.487379	-2.979100	3.378600	-10.064000	26.059253	0.000604	20.810819
1708.482723	-2.984300	3.376400	-10.075000	26.064666	0.000606	20.807249
1709.485920	-2.970000	3.376300	-10.027000	26.035604	0.000605	20.811715
1710.484148	-2.991100	3.375200	-10.095000	26.037767	0.000605	20.802033
1711.483853	-3.000600	3.376000	-10.129000	26.011835	0.000603	20.805851
1712.484836	-3.004200	3.375500	-10.138000	26.006176	0.000605	20.804907
1713.485208	-3.021200	3.375400	-10.195000	25.989432	0.000603	20.811318
1714.484181	-3.015100	3.373300	-10.170000	26.023563	0.000602	20.808151
1715.483976	-2.992500	3.375000	-10.098000	26.041792	0.000603	20.817457
1716.486497	-3.009500	3.372900	-10.149000	26.080690	0.000602	20.804383
1717.487622	-3.006400	3.372400	-10.138000	26.085828	0.000602	20.798640
1718.486574	-3.016300	3.372800	-10.171000	26.092910	0.000602	20.811920
1719.487365	-2.992400	3.372800	-10.092000	26.056869	0.000600	20.799415
1720.489904	-2.996500	3.372700	-10.105000	26.040253	0.000600	20.809273
1721.486630	-3.022100	3.370000	-10.184000	26.037024	0.000600	20.814089
1722.486171	-2.994400	3.371600	-10.095000	26.032456	0.000602	20.808077
1723.490181	-3.003100	3.370700	-10.122000	26.016731	0.000601	20.812666
1724.490528	-3.038900	3.370800	-10.242000	26.006919	0.000599	20.816559
1725.491405	-2.992200	3.371500	-10.087000	25.993408	0.000598	20.823848
1726.487597	-3.003200	3.368400	-10.115000	25.999561	0.000599	20.829081
1727.489314	-3.004600	3.369400	-10.123000	26.011888	0.000598	20.827715
1728.493075	-3.014500	3.369000	-10.155000	26.041123	0.000596	20.799242
1729.493243	-2.997200	3.369300	-10.097000	26.091790	0.000596	20.822174
1730.491257	-2.989700	3.368400	-10.070000	26.117646	0.000596	20.794574
1731.489335	-2.999500	3.367400	-10.100000	26.128947	0.000593	20.832956
1732.490160	-2.986900	3.368100	-10.058000	26.141983	0.000597	20.815235
1733.492473	-3.007500	3.367200	-10.126000	26.124749	0.000594	20.832531
1734.494983	-3.004700	3.368000	-10.118000	26.117889	0.000593	20.814733
1735.492626	-3.022400	3.366500	-10.174000	26.117146	0.000594	20.827262
1736.497674	-3.006000	3.366900	-10.120000	26.145131	0.000594	20.830726
1737.492719	-2.991200	3.367400	-10.071000	26.141877	0.000592	20.834569
1738.495373	-3.019600	3.366400	-10.164000	26.152009	0.000593	20.826257
1739.498414	-3.014600	3.365100	-10.143000	26.167954	0.000593	20.818572
1740.493867	-3.010500	3.365300	-10.130000	26.166858	0.000591	20.835963
1741.494386	-2.995400	3.366300	-10.083000	26.190353	0.000592	20.822588
1742.495086	-3.013400	3.365600	-10.140000	26.218094	0.000589	20.832446
1743.494418	-3.005500	3.364900	-10.113000	26.216650	0.000590	20.838107
1744.494967	-3.001600	3.364000	-10.097000	26.235942	0.000592	20.826201
1745.497043	-3.002300	3.363900	-10.098000	26.236242	0.000590	20.828872
1746.494973	-2.991900	3.364300	-10.064000	26.254640	0.000587	20.843093
1747.495684	-3.018300	3.362100	-10.147000	26.237055	0.000585	20.833008
1748.495103	-2.995000	3.362200	-10.069000	26.247685	0.000586	20.831363
1749.495834	-2.994700	3.363200	-10.071000	26.252154	0.000586	20.846758
1750.497299	-2.992200	3.362200	-10.059000	26.251957	0.000585	20.845612
1751.497251	-2.988000	3.361600	-10.043000	26.271970	0.000584	20.854344
1752.498534	-2.985200	3.362700	-10.037000	26.271323	0.000584	20.852745
1753.497189	-3.000900	3.361300	-10.087000	26.227495	0.000584	20.847109
1754.498383	-2.998200	3.359800	-10.073000	26.188152	0.000583	20.846928
1755.497884	-3.029100	3.359700	-10.175000	26.158005	0.000582	20.831335
1756.498085	-3.001900	3.359600	-10.084000	26.126735	0.000585	20.851595
1757.496444	-2.988200	3.360400	-10.040000	26.091913	0.000581	20.831306
1758.496099	-3.009500	3.358400	-10.106000	26.076316	0.000582	20.854514
1759.496705	-2.977800	3.359900	-10.004000	26.061045	0.000581	20.845810
1760.497283	-2.972500	3.360600	-9.988200	26.054090	0.000580	20.835977
1761.501708	-3.018500	3.358300	-10.136000	26.013131	0.000580	20.840817
1762.497976	-3.002400	3.358800	-10.083000	25.966757	0.000579	20.853969
1763.506432	-2.996400	3.358300	-10.062000	25.979200	0.000579	20.845608
1764.500674	-2.995800	3.358800	-10.061000	25.988217	0.000581	20.858459
1765.497489	-2.986500	3.358600	-10.029000	26.016780	0.000578	20.854440
1766.500916	-2.962300	3.357100	-9.942900	26.047258	0.000580	20.870836
1767.506294	-2.994700	3.356100	-10.049000	26.083394	0.000579	20.861152
1768.498913	-3.004200	3.355800	-10.081000	26.107658	0.000578	20.841437
1769.497395	-2.975700	3.356200	-9.986200	26.142208	0.000577	20.842962
1770.498058	-2.975400	3.357200	-9.988300	26.165252	0.000576	20.855685
1771.500433	-2.985700	3.356500	-10.019000	26.189194	0.000578	20.859829
1772.504329	-2.993900	3.355200	-10.045000	26.201984	0.000575	20.851818
1773.499182	-3.025000	3.354800	-10.147000	26.234516	0.000575	20.853690
1774.499671	-2.973100	3.355500	-9.974100	26.246041	0.000573	20.867641
1775.500222	-2.999400	3.352700	-10.056000	26.264263	0.000573	20.854659
1776.499044	-2.989800	3.353700	-10.026000	26.283882	0.000572	20.868685
1777.500378	-2.975600	3.353700	-9.978800	26.302828	0.000573	20.862121
1778.499269	-3.004400	3.353100	-10.071000	26.270048	0.000573	20.859998
1779.502029	-3.001600	3.352700	-10.062000	26.232573	0.000573	20.883977
1780.500433	-3.002600	3.351500	-10.061000	26.155787	0.000571	20.876044
1781.502146	-3.007600	3.352500	-10.082000	26.140958	0.000573	20.869205
1782.504009	-3.002500	3.352000	-10.064000	26.102390	0.000572	20.879289
1783.502835	-2.995800	3.351400	-10.039000	26.078791	0.000571	20.846096
1784.508557	-2.996000	3.351400	-10.038000	26.097294	0.000569	20.861842
1785.503242	-3.006400	3.350800	-10.072000	26.105933	0.000571	20.870995
1786.503602	-3.000600	3.351100	-10.054000	26.138148	0.000569	20.860692
1787.506214	-3.000100	3.350800	-10.052000	26.154364	0.000567	20.861339
1788.504561	-2.975400	3.351800	-9.971900	26.185807	0.000567	20.869700
1789.504528	-3.019500	3.350200	-10.115000	26.190124	0.000566	20.878305
1790.504758	-2.979800	3.350300	-9.982600	26.146046	0.000569	20.878111
1791.505655	-3.004200	3.348500	-10.059000	26.130017	0.000566	20.876702
1792.506440	-2.987900	3.349300	-10.007000	26.098650	0.000568	20.885488
1793.508903	-2.995900	3.348800	-10.032000	26.061912	0.000564	20.881766
1794.509449	-2.982700	3.348600	-9.986800	26.052149	0.000565	20.871009
1795.508067	-3.005600	3.347600	-10.060000	26.067103	0.000564	20.880343
1796.508624	-2.993700	3.348000	-10.021000	26.107957	0.000564	20.867814
1797.508617	-2.963100	3.348900	-9.922600	26.174440	0.000565	20.871554
1798.508613	-3.000800	3.348600	-10.048000	26.193983	0.000564	20.891665
1799.507496	-3.021200	3.346800	-10.110000	26.220505	0.000563	20.882282
1800.513407	-2.985700	3.346600	-9.990300	26.198279	0.000562	20.888870
1801.508049	-3.000600	3.346900	-10.042000	26.237115	0.000563	20.868154
1802.508935	-2.991200	3.346000	-10.008000	26.247471	0.000560	20.889465
1803.512482	-2.991600	3.344600	-10.005000	26.283206	0.000560	20.898823
1804.510365	-3.021100	3.344100	-10.102000	26.293012	0.000559	20.895402
1805.512323	-2.979900	3.344400	-9.964900	26.326507	0.000560	20.877382
1806.511563	-3.004600	3.344800	-10.047000	26.315705	0.000559	20.897344
1807.511961	-2.983400	3.342900	-9.972400	26.309469	0.000559	20.883966
1808.514917	-2.995200	3.344000	-10.015000	26.320468	0.000560	20.868943
1809.514900	-2.997400	3.342200	-10.017000	26.305195	0.000558	20.904325
1810.520078	-2.978500	3.343800	-9.958000	26.271520	0.000559	20.884235
1811.513070	-2.996500	3.342900	-10.017000	26.239414	0.000557	20.897963
1812.512783	-2.993200	3.343200	-10.006000	26.201959	0.000557	20.900628
1813.516403	-3.012600	3.340300	-10.062000	26.211720	0.000556	20.905694
1814.518148	-3.010500	3.340000	-10.054000	26.228477	0.000556	20.917317
1815.514207	-2.994600	3.340300	-10.001000	26.221379	0.000555	20.894538
1816.514089	-3.025400	3.339900	-10.103000	26.279460	0.000556	20.892214
1817.515201	-2.999000	3.341200	-10.019000	26.267932	0.000556	20.906706
1818.515818	-2.990100	3.340000	-9.985900	26.219562	0.000556	20.904566
1819.518692	-3.011300	3.339200	-10.054000	26.247918	0.000556	20.906034
1820.516218	-3.004600	3.338600	-10.031000	26.254027	0.000553	20.916440
1821.516258	-3.004700	3.338200	-10.029000	26.224375	0.000553	20.892808
1822.515802	-2.998700	3.338400	-10.010000	26.225393	0.000554	20.890038
1823.516877	-2.989900	3.338600	-9.979800	26.251819	0.000552	20.911377
1824.517166	-3.009200	3.337700	-10.042000	26.289136	0.000552	20.912841
1825.517636	-2.995700	3.337200	-9.996200	26.317993	0.000553	20.932357
1826.518795	-3.006000	3.337000	-10.030000	26.347590	0.000551	20.902836
1827.522045	-3.013300	3.336100	-10.051000	26.356254	0.000552	20.905854
1828.518008	-3.016300	3.335400	-10.059000	26.367355	0.000550	20.923647
1829.517501	-3.009100	3.336500	-10.038000	26.347611	0.000550	20.920399
1830.518967	-3.012500	3.335300	-10.047000	26.359796	0.000551	20.919843
1831.519783	-3.021700	3.333400	-10.071000	26.383512	0.000548	20.925660
1832.518326	-3.020900	3.334500	-10.073000	26.404069	0.000547	20.903175
1833.523157	-2.982000	3.334900	-9.943300	26.402851	0.000549	20.912856
1834.520182	-3.006900	3.334700	-10.026000	26.438705	0.000548	20.922338
1835.523751	-2.982700	3.335300	-9.946900	26.447171	0.000546	20.928002
1836.521381	-2.963500	3.336000	-9.884600	26.488209	0.000545	20.920413
1837.523716	-2.980200	3.334200	-9.935500	26.498858	0.000545	20.906937
1838.520629	-2.974200	3.334000	-9.914200	26.459951	0.000544	20.898650
1839.521350	-2.995400	3.333400	-9.983800	26.474726	0.000545	20.902595
1840.525881	-2.996500	3.332100	-9.983400	26.467372	0.000545	20.928392
1841.524299	-2.994400	3.331900	-9.975700	26.505582	0.000542	20.924599
1842.523288	-3.003100	3.331900	-10.005000	26.501206	0.000545	20.923994
1843.522413	-2.994500	3.332100	-9.977300	26.517273	0.000542	20.929237
1844.530690	-3.006700	3.332800	-10.019000	26.520522	0.000540	20.923969
1845.525085	-3.004100	3.331300	-10.007000	26.539915	0.000543	20.954364
1846.528885	-3.034200	3.329600	-10.102000	26.523056	0.000540	20.907078
1847.526327	-2.987400	3.330600	-9.949300	26.497285	0.000542	20.956084
1848.533607	-2.966200	3.329800	-9.875600	26.452442	0.000538	20.929032
1849.529227	-2.990500	3.330900	-9.958800	26.433773	0.000540	20.947250
1850.527733	-2.986900	3.329700	-9.944700	26.387413	0.000540	20.957552
1851.536509	-2.979500	3.329100	-9.917900	26.309766	0.000538	20.938787
1852.528825	-3.000400	3.329400	-9.988600	26.270010	0.000537	20.933448
1853.527107	-2.995800	3.328100	-9.969400	26.269933	0.000537	20.938585
1854.527944	-3.008300	3.327600	-10.010000	26.278471	0.000538	20.936261
1855.528158	-3.003400	3.327200	-9.991700	26.262577	0.000535	20.934039
1856.528630	-3.002000	3.327100	-9.986600	26.265260	0.000536	20.932468
1857.533529	-2.994800	3.326200	-9.960500	26.282369	0.000533	20.935436
1858.528945	-2.997100	3.325500	-9.966100	26.302037	0.000534	20.934340
1859.529355	-2.986500	3.326400	-9.932900	26.322966	0.000532	20.930243
1860.528604	-3.001000	3.325900	-9.979600	26.327804	0.000532	20.921355
1861.529121	-2.998100	3.325700	-9.968900	26.331751	0.000533	20.913943
1862.533154	-2.977100	3.326000	-9.901400	26.315787	0.000532	20.946259
1863.530309	-3.005200	3.323800	-9.987700	26.290827	0.000532	20.924971
1864.532790	-2.989100	3.324300	-9.935300	26.302492	0.000532	20.931952
1865.530953	-3.005500	3.323300	-9.986400	26.329483	0.000531	20.912613
1866.531114	-2.982800	3.324100	-9.914500	26.331944	0.000528	20.925516
1867.533883	-2.992800	3.324400	-9.948400	26.331768	0.000528	20.924865
1868.531370	-2.965000	3.324900	-9.857400	26.337529	0.000531	20.915956
1869.531383	-3.004300	3.322700	-9.981000	26.332360	0.000530	20.932571
1870.533104	-2.990600	3.322400	-9.934500	26.378820	0.000527	20.928057
1871.532884	-2.962400	3.324900	-9.847600	26.393217	0.000527	20.926405
1872.532949	-3.013000	3.321200	-10.006000	26.406398	0.000526	20.919739
1873.534334	-2.998400	3.322100	-9.960200	26.379831	0.000527	20.923857
1874.532765	-2.989600	3.320700	-9.926100	26.335853	0.000526	20.918540
1875.536616	-2.982300	3.320900	-9.902400	26.305978	0.000524	20.907483
1876.534253	-2.979400	3.321300	-9.894600	26.304658	0.000525	20.920854
1877.535993	-2.994900	3.319800	-9.942000	26.266441	0.000524	20.910423
1878.540004	-2.984900	3.319500	-9.906900	26.259142	0.000524	20.900244
1879.534744	-2.992600	3.319200	-9.931400	26.259783	0.000523	20.916534
1880.536913	-2.991700	3.320600	-9.932400	26.287247	0.000523	20.914263
1881.534573	-3.005500	3.318400	-9.971900	26.306465	0.000523	20.893274
1882.535376	-3.011200	3.318700	-9.993200	26.332710	0.000522	20.911588
1883.535397	-2.994800	3.319100	-9.938200	26.331738	0.000521	20.907767
1884.545477	-3.003100	3.317900	-9.963800	26.345469	0.000521	20.915402
1885.536157	-3.011200	3.317400	-9.988700	26.348374	0.000518	20.922588
1886.540056	-3.015900	3.316500	-10.001000	26.383958	0.000520	20.891024
1887.538072	-3.000300	3.316600	-9.949300	26.408465	0.000517	20.903801
1888.538298	-3.006800	3.316100	-9.970400	26.424157	0.000518	20.897761
1889.543035	-2.960400	3.317400	-9.818500	26.465223	0.000516	20.904423
1890.537786	-2.995000	3.316300	-9.930900	26.485005	0.000517	20.911978
1891.538299	-2.987100	3.315100	-9.902200	26.492654	0.000515	20.893590
1892.538175	-3.022200	3.313600	-10.013000	26.488532	0.000515	20.914100
1893.537972	-3.005200	3.314800	-9.960700	26.450349	0.000516	20.896112
1894.539857	-3.025200	3.314500	-10.025000	26.370295	0.000515	20.899102
1895.539590	-3.019300	3.312200	-9.998900	26.339952	0.000514	20.905117
1896.540410	-3.020800	3.313200	-10.007000	26.372333	0.000515	20.904470
1897.541278	-2.983500	3.313300	-9.883800	26.398031	0.000513	20.899003
1898.540307	-3.010000	3.313000	-9.970300	26.453346	0.000512	20.892486
1899.540492	-2.985300	3.313300	-9.889600	26.482421	0.000513	20.894209
1900.542769	-3.005200	3.312000	-9.952500	26.482076	0.000512	20.888173
1901.540499	-3.007500	3.312700	-9.962400	26.500624	0.000512	20.879791
1902.543568	-3.005200	3.313400	-9.956000	26.469314	0.000512	20.890519
1903.540654	-2.994800	3.313600	-9.922200	26.446840	0.000511	20.902542
1904.541444	-2.995900	3.311400	-9.919500	26.385564	0.000510	20.909232
1905.542222	-3.003200	3.310200	-9.939700	26.362123	0.000510	20.895157
1906.541979	-3.002900	3.310300	-9.938100	26.361007	0.000509	20.882183
1907.542173	-3.013200	3.310900	-9.975800	26.374516	0.000507	20.887699
1908.543111	-2.997900	3.309100	-9.918300	26.369847	0.000507	20.871154
1909.543672	-3.025300	3.309300	-10.011000	26.350008	0.000508	20.881086
1910.548868	-2.986300	3.309600	-9.882300	26.336280	0.000507	20.874876
1911.544351	-3.017200	3.308200	-9.979100	26.327710	0.000504	20.869109
1912.542837	-3.019700	3.307700	-9.986800	26.342709	0.000507	20.884182
1913.543429	-3.001400	3.307600	-9.925800	26.401685	0.000507	20.866643
1914.544408	-2.993400	3.307400	-9.899000	26.439425	0.000506	20.875651
1915.546727	-2.998200	3.306500	-9.912700	26.491020	0.000504	20.890051
1916.544024	-2.991100	3.306700	-9.888500	26.540501	0.000504	20.869141
1917.543711	-2.990500	3.306800	-9.887600	26.577790	0.000503	20.882915
1918.544425	-2.980100	3.306200	-9.852300	26.574688	0.000503	20.883591
1919.544651	-2.993900	3.306500	-9.897900	26.605073	0.000502	20.869565
1920.544609	-2.969800	3.308200	-9.824000	26.626274	0.000502	20.883764
1921.546654	-2.992500	3.305400	-9.890500	26.653362	0.000500	20.866426
1922.547097	-2.984600	3.305400	-9.864200	26.616992	0.000501	20.871115
1923.547446	-2.985000	3.304100	-9.861100	26.637073	0.000499	20.860956
1924.547625	-2.994100	3.304800	-9.893300	26.607907	0.000500	20.867198
1925.546957	-2.989100	3.305100	-9.877000	26.604211	0.000498	20.865379
1926.550137	-2.991500	3.303300	-9.880400	26.533383	0.000497	20.875261
1927.547570	-3.001900	3.303200	-9.915300	26.530056	0.000497	20.884719
1928.553038	-2.988600	3.303300	-9.870600	26.552304	0.000496	20.876737
1929.550758	-3.007400	3.302900	-9.932400	26.569883	0.000497	20.853632
1930.550145	-2.996000	3.302100	-9.892300	26.587163	0.000496	20.871949
1931.551963	-2.969600	3.303100	-9.807300	26.601514	0.000495	20.853186
1932.555849	-3.004700	3.302100	-9.920700	26.591908	0.000495	20.872452
1933.552520	-2.991100	3.302100	-9.876000	26.587216	0.000493	20.881485
1934.552864	-3.004100	3.302500	-9.917900	26.573290	0.000492	20.852789
1935.553285	-3.016900	3.300500	-9.956400	26.530693	0.000493	20.876825
1936.552385	-2.997800	3.301200	-9.894100	26.556246	0.000493	20.858889
1937.556143	-3.012700	3.299600	-9.938300	26.545344	0.000489	20.879697
1938.553103	-3.013800	3.300400	-9.944500	26.577099	0.000489	20.841445
1939.557106	-3.004100	3.299900	-9.911400	26.605705	0.000490	20.860244
1940.555069	-3.024700	3.298100	-9.974200	26.592843	0.000489	20.857272
1941.553554	-3.001300	3.300000	-9.903400	26.563155	0.000489	20.848766
1942.558407	-3.005400	3.298000	-9.910600	26.478845	0.000487	20.856953
1943.553030	-3.008700	3.296400	-9.916100	26.457146	0.000487	20.844152
1944.552655	-2.990200	3.298200	-9.861900	26.458219	0.000487	20.854239
1945.553949	-2.991800	3.297000	-9.861600	26.464228	0.000486	20.856012
1946.554315	-3.001800	3.296600	-9.895500	26.487421	0.000486	20.839495
1947.556067	-2.984300	3.297900	-9.841100	26.505793	0.000486	20.849427
1948.553591	-2.983900	3.296300	-9.833900	26.511063	0.000485	20.860413
1949.557072	-2.976300	3.298200	-9.815100	26.516702	0.000485	20.864185
1950.555035	-2.999000	3.296100	-9.883500	26.559202	0.000484	20.849059
1951.554478	-3.001500	3.294300	-9.886100	26.592617	0.000481	20.865105
1952.558466	-2.991000	3.295700	-9.855700	26.595775	0.000482	20.846469
1953.558888	-3.017600	3.294000	-9.937300	26.609805	0.000482	20.868632
1954.556371	-3.005400	3.295100	-9.902300	26.614152	0.000480	20.853563
1955.556327	-2.995200	3.292700	-9.861100	26.650840	0.000482	20.850141
1956.556985	-3.004200	3.293700	-9.893100	26.669389	0.000480	20.847926
1957.557765	-2.984600	3.294500	-9.832500	26.646254	0.000481	20.845057
1958.559062	-2.980900	3.292100	-9.812800	26.609196	0.000480	20.831986
1959.556923	-3.009400	3.291800	-9.903300	26.600065	0.000477	20.839876
1960.563774	-2.990700	3.290900	-9.840000	26.603715	0.000477	20.833589
1961.557291	-3.002300	3.292500	-9.884400	26.649914	0.000478	20.838779
1962.558441	-2.975600	3.293100	-9.797700	26.643635	0.000476	20.855225
1963.565033	-3.004100	3.290800	-9.885000	26.611565	0.000476	20.849539
1964.558510	-3.004100	3.289800	-9.881500	26.615564	0.000476	20.841706
1965.559007	-3.010000	3.290300	-9.902600	26.620629	0.000477	20.832573
1966.560062	-2.979000	3.290500	-9.801300	26.628006	0.000475	20.849472
1967.557872	-2.979700	3.291000	-9.805000	26.645708	0.000473	20.826965
1968.560225	-2.982600	3.289200	-9.809500	26.669716	0.000475	20.814117
1969.565793	-3.012200	3.288600	-9.904500	26.716412	0.000474	20.834508
1970.561288	-3.027400	3.287000	-9.949900	26.726639	0.000473	20.831041
1971.562873	-3.016000	3.287800	-9.915100	26.768856	0.000473	20.832233
1972.562973	-3.008000	3.287200	-9.886700	26.749752	0.000473	20.843372
1973.564458	-3.001900	3.287800	-9.867600	26.776166	0.000472	20.822039
1974.565613	-3.010100	3.287200	-9.893100	26.728431	0.000471	20.833316
1975.562466	-2.999700	3.287200	-9.859500	26.734192	0.000470	20.839108
1976.562474	-3.012600	3.286100	-9.898700	26.673623	0.000470	20.828950
1977.562621	-3.030100	3.285300	-9.954300	26.668614	0.000470	20.826759
1978.563935	-3.013400	3.285300	-9.898900	26.671645	0.000469	20.824590
1979.569288	-3.008800	3.284800	-9.881700	26.647263	0.000469	20.858873
1980.563239	-2.986400	3.285400	-9.810900	26.653993	0.000468	20.840035
1981.563374	-2.994300	3.285400	-9.836500	26.686262	0.000466	20.827432
1982.563816	-3.018900	3.285000	-9.914800	26.685270	0.000465	20.821692
1983.563350	-3.008000	3.283400	-9.875100	26.663275	0.000464	20.819495
1984.565959	-2.992800	3.284000	-9.827400	26.664271	0.000464	20.812436
1985.566278	-2.996600	3.282300	-9.835300	26.621252	0.000465	20.826087
1986.566080	-2.992100	3.282300	-9.820300	26.587118	0.000465	20.832077
1987.568551	-2.992300	3.281800	-9.818500	26.603800	0.000462	20.834622
1988.566073	-2.966100	3.283700	-9.739000	26.626785	0.000462	20.825960
1989.571583	-3.016100	3.281000	-9.893900	26.638281	0.000463	20.809067
1990.572435	-3.018200	3.281700	-9.903900	26.661487	0.000463	20.819120
1991.566976	-2.988900	3.281800	-9.807600	26.667048	0.000461	20.800055
1992.568228	-2.997100	3.280600	-9.831300	26.676309	0.000459	20.830701
1993.566314	-2.993500	3.280300	-9.818800	26.685741	0.000461	20.839710
1994.567292	-2.991800	3.280200	-9.812800	26.676259	0.000459	20.814531
1995.570901	-3.005400	3.279500	-9.855100	26.701284	0.000459	20.805550
1996.568350	-2.983600	3.279300	-9.783100	26.674823	0.000459	20.816880
1997.574939	-3.017300	3.277300	-9.887400	26.688701	0.000457	20.803806
1998.575509	-2.994700	3.278100	-9.815200	26.718062	0.000458	20.813409
1999.573089	-2.995500	3.277600	-9.817800	26.680881	0.000457	20.809694
2000.575461	-3.019800	3.276600	-9.893700	26.704512	0.000456	20.817804
2001.575401	-2.994900	3.278400	-9.817700	26.768799	0.000456	20.821745
2002.574920	-2.993700	3.278000	-9.812200	26.786396	0.000454	20.814782
2003.573390	-2.966400	3.277200	-9.720600	26.814692	0.000454	20.794393
2004.575913	-3.010200	3.275600	-9.859500	26.887067	0.000455	20.829707
2005.575027	-2.992100	3.277200	-9.805100	26.882323	0.000455	20.827782
2006.577090	-2.991800	3.276500	-9.802200	26.895850	0.000454	20.821469
2007.576615	-3.002600	3.276600	-9.837400	26.891627	0.000453	20.812482
2008.578461	-3.010200	3.276300	-9.861000	26.860283	0.000451	20.802776
2009.578232	-2.984200	3.275700	-9.773700	26.811535	0.000450	20.814927
2010.576990	-2.988800	3.274900	-9.786200	26.821167	0.000448	20.801853
2011.576901	-3.004400	3.274000	-9.835600	26.808209	0.000449	20.800204
2012.574619	-2.991800	3.274400	-9.795800	26.768916	0.000449	20.804793
2013.576726	-3.030500	3.273200	-9.917700	26.779639	0.000449	20.783806
2014.578259	-2.995200	3.272500	-9.800200	26.786861	0.000447	20.798654
2015.578083	-2.988700	3.272500	-9.780100	26.785823	0.000446	20.800929
2016.577275	-2.989100	3.272600	-9.780200	26.761743	0.000447	20.807065
2017.580393	-3.008400	3.270700	-9.838800	26.722525	0.000446	20.811732
2018.576709	-2.990500	3.270500	-9.779600	26.682285	0.000444	20.821063
2019.577569	-2.994900	3.273000	-9.801400	26.672036	0.000443	20.818345
2020.578225	-2.979300	3.272000	-9.747300	26.664834	0.000443	20.790243
2021.576793	-2.995300	3.271600	-9.798400	26.634599	0.000442	20.815797
2022.581985	-3.003700	3.268700	-9.816800	26.665383	0.000440	20.804545
2023.580661	-2.975700	3.270000	-9.729700	26.677889	0.000442	20.818066
2024.584330	-3.024100	3.268600	-9.882900	26.719097	0.000439	20.803544
2025.579721	-2.988800	3.269500	-9.770800	26.760575	0.000440	20.802097
2026.580341	-3.005400	3.267900	-9.820200	26.783261	0.000438	20.787447
2027.584331	-3.035300	3.267900	-9.916400	26.789712	0.000437	20.789666
2028.587682	-2.997500	3.267500	-9.792800	26.832105	0.000436	20.782030
2029.581550	-3.023200	3.265800	-9.871900	26.874124	0.000435	20.781131
2030.581342	-3.011400	3.267900	-9.839600	26.867846	0.000435	20.796630
2031.582408	-3.024400	3.266900	-9.878900	26.928151	0.000434	20.812224
2032.583906	-2.977400	3.267900	-9.728400	26.930332	0.000437	20.792132
2033.582403	-3.020900	3.265200	-9.862800	26.919241	0.000434	20.772918
2034.581760	-3.004900	3.265700	-9.812400	26.935023	0.000434	20.790211
2035.584555	-2.992200	3.266500	-9.773200	26.932693	0.000434	20.808257
2036.582859	-3.006000	3.263800	-9.810200	26.933091	0.000433	20.786846
2037.582506	-3.003800	3.264900	-9.806200	26.904546	0.000433	20.805083
2038.591025	-2.997300	3.263400	-9.780400	26.837908	0.000430	20.789762
2039.585394	-3.005200	3.263300	-9.805100	26.839179	0.000429	20.773969
2040.584981	-3.002400	3.263300	-9.796400	26.867300	0.000431	20.790866
2041.583275	-2.987800	3.265000	-9.753700	26.874595	0.000428	20.779235
2042.584277	-2.997000	3.263700	-9.778700	26.863302	0.000428	20.796329
2043.588873	-2.989400	3.262200	-9.750400	26.865738	0.000426	20.779337
2044.588477	-2.974000	3.262000	-9.700200	26.860476	0.000425	20.773099
2045.584763	-3.001700	3.260800	-9.787400	26.877801	0.000426	20.809011
2046.585759	-3.003700	3.260900	-9.794000	26.886014	0.000426	20.780286
2047.588165	-3.003700	3.261000	-9.794300	26.898993	0.000426	20.796180
2048.587991	-3.016600	3.260100	-9.833200	26.892391	0.000423	20.808034
2049.591046	-2.983000	3.261900	-9.729700	26.892268	0.000422	20.790367
2050.587170	-3.003400	3.259000	-9.786800	26.887257	0.000421	20.777741
2051.590238	-3.007900	3.259200	-9.801500	26.896512	0.000419	20.811704
2052.586423	-2.990800	3.258500	-9.743900	26.905147	0.000420	20.786722
2053.587910	-2.993700	3.258500	-9.753400	26.918822	0.000419	20.799524
2054.592190	-2.968200	3.259100	-9.672700	26.946347	0.000420	20.787847
2055.587159	-2.984200	3.258700	-9.723100	26.954338	0.000418	20.777865
2056.585636	-3.003000	3.257500	-9.780400	26.967171	0.000417	20.806891
2057.588466	-3.000100	3.255700	-9.765800	26.968881	0.000416	20.812878
2058.586767	-3.016000	3.255000	-9.816100	26.962033	0.000416	20.796509
2059.587975	-3.006000	3.256100	-9.787000	26.967868	0.000415	20.794316
2060.590799	-3.024600	3.254200	-9.840800	26.974789	0.000415	20.769033
2061.588713	-3.019300	3.253500	-9.822000	26.973948	0.000414	20.792844
2062.587912	-3.016500	3.254000	-9.815000	26.942360	0.000415	20.776726
2063.588134	-2.991400	3.255500	-9.737700	26.955042	0.000413	20.784263
2064.589802	-2.964000	3.254900	-9.645900	26.957621	0.000412	20.795391
2065.590208	-2.991200	3.254500	-9.734100	27.016239	0.000412	20.773732
2066.588107	-2.981900	3.255500	-9.706100	27.055946	0.000413	20.788534
2067.588154	-2.989000	3.254900	-9.728100	27.096439	0.000410	20.792274
2068.591341	-3.023500	3.253100	-9.834300	27.097410	0.000409	20.775707
2069.590685	-3.014600	3.252200	-9.803100	27.128403	0.000410	20.780799
2070.592792	-2.980500	3.251700	-9.690900	27.100242	0.000410	20.782823
2071.590417	-2.984700	3.252500	-9.706700	27.092622	0.000409	20.803133
2072.591847	-2.993400	3.252000	-9.733600	27.092597	0.000410	20.770392
2073.589901	-3.008800	3.251000	-9.781000	27.078383	0.000407	20.767002
2074.591387	-2.981800	3.250600	-9.691700	27.107659	0.000410	20.781747
2075.592504	-3.009600	3.248700	-9.776000	27.137856	0.000406	20.782246
2076.591189	-2.997800	3.250200	-9.742100	27.136315	0.000407	20.788757
2077.591939	-2.988800	3.250400	-9.714000	27.156812	0.000407	20.765749
2078.593656	-2.987900	3.250500	-9.711300	27.117756	0.000405	20.780048
2079.593712	-3.006300	3.249500	-9.768300	27.137751	0.000406	20.780243
2080.592961	-3.015400	3.248100	-9.793200	27.134528	0.000405	20.775579
2081.596287	-2.972900	3.247400	-9.653300	27.159387	0.000404	20.767865
2082.594951	-2.990000	3.247500	-9.709200	27.157526	0.000401	20.771683
2083.595382	-2.997200	3.246200	-9.728700	27.160925	0.000401	20.763247
2084.597108	-3.007700	3.246200	-9.761500	27.188566	0.000399	20.760703
2085.594598	-3.002800	3.246200	-9.746500	27.183156	0.000399	20.772331
2086.598546	-2.985300	3.247300	-9.693200	27.179901	0.000399	20.782808
2087.594086	-3.002500	3.245900	-9.744500	27.160598	0.000398	20.777143
2088.596861	-3.001200	3.244500	-9.735800	27.137596	0.000399	20.774397
2089.598436	-2.990300	3.244400	-9.700500	27.140544	0.000399	20.782104
2090.596277	-2.995200	3.243900	-9.714300	27.154863	0.000395	20.754780
2091.599519	-2.982800	3.244200	-9.675500	27.175233	0.000396	20.780958
2092.599623	-3.008700	3.242100	-9.753700	27.181481	0.000396	20.762586
2093.602444	-3.002800	3.243600	-9.737800	27.200461	0.000394	20.773615
2094.598033	-3.004100	3.242700	-9.739800	27.212967	0.000395	20.771022
2095.598274	-2.989500	3.242800	-9.694000	27.197854	0.000394	20.793279
2096.604073	-2.985200	3.242700	-9.678900	27.191951	0.000394	20.789238
2097.600068	-3.005000	3.240800	-9.737600	27.140161	0.000393	20.762278
2098.599824	-2.993700	3.241700	-9.703300	27.131953	0.000393	20.781050
2099.604901	-3.005100	3.239500	-9.734200	27.080311	0.000393	20.778424
2100.600286	-3.017200	3.239400	-9.773100	27.049190	0.000391	20.775576
2101.601642	-2.978200	3.241100	-9.650700	27.034870	0.000390	20.805745
2102.607567	-2.997300	3.239300	-9.708000	27.060555	0.000387	20.773729
2103.603595	-3.003000	3.239300	-9.726300	27.111097	0.000389	20.787575
2104.602862	-3.002600	3.238500	-9.722300	27.138940	0.000387	20.798509
2105.604423	-2.997400	3.239900	-9.710300	27.122981	0.000388	20.774872
2106.607688	-2.986800	3.238100	-9.671000	27.090402	0.000387	20.784305
2107.604611	-2.984100	3.238400	-9.661700	27.087570	0.000386	20.804216
2108.607038	-3.002300	3.236200	-9.714800	27.113348	0.000386	20.786995
2109.605385	-3.011500	3.235800	-9.743200	27.109626	0.000386	20.787044
2110.606944	-2.994300	3.236300	-9.689100	27.163740	0.000383	20.791683
2111.606716	-2.986500	3.237800	-9.668600	27.185003	0.000383	20.796949
2112.606035	-2.992200	3.236200	-9.682900	27.218150	0.000384	20.799468
2113.609111	-3.007100	3.235500	-9.726900	27.267941	0.000383	20.809248
2114.605773	-2.992800	3.234600	-9.679800	27.296695	0.000380	20.799765
2115.605938	-2.988900	3.235000	-9.667700	27.294958	0.000380	20.784267
2116.604679	-2.987400	3.233900	-9.660300	27.248513	0.000381	20.814361
2117.605165	-3.009900	3.233100	-9.730300	27.249652	0.000379	20.778050
2118.605924	-3.016100	3.232300	-9.747900	27.269697	0.000379	20.792996
2119.604439	-3.007000	3.230600	-9.713200	27.252182	0.000377	20.789129
2120.604788	-3.035400	3.230700	-9.805100	27.283662	0.000375	20.792819
2121.605490	-2.998600	3.230500	-9.685700	27.258556	0.000377	20.801230
2122.605352	-2.997300	3.230100	-9.680800	27.234220	0.000376	20.775803
2123.607989	-2.991100	3.232900	-9.668900	27.174643	0.000373	20.796959
2124.609694	-3.036400	3.230500	-9.806600	27.135394	0.000373	20.789727
2125.609542	-3.013700	3.228500	-9.728200	27.178115	0.000372	20.791917
2126.611373	-2.982600	3.229800	-9.631600	27.143901	0.000370	20.788800
2127.608274	-3.005700	3.228400	-9.700900	27.153326	0.000371	20.818668
2128.610712	-3.014900	3.225800	-9.722400	27.151715	0.000369	20.795710
2129.615156	-3.009000	3.229700	-9.717700	27.157147	0.000370	20.777466
2130.607808	-2.995500	3.227400	-9.666500	27.196127	0.000367	20.796758
2131.608616	-3.001900	3.227200	-9.686400	27.181886	0.000371	20.807564
2132.611334	-2.974800	3.226100	-9.595400	27.158635	0.000368	20.786075
2133.610728	-3.013700	3.226500	-9.722900	27.151965	0.000368	20.795013
2134.614399	-2.988700	3.225600	-9.640000	27.103030	0.000366	20.808859
2135.615422	-3.015100	3.226300	-9.725600	27.082335	0.000366	20.805116
2136.608840	-2.990400	3.226600	-9.648700	27.076082	0.000366	20.817320
2137.609653	-2.999800	3.225100	-9.673600	27.100078	0.000363	20.826279
2138.609889	-2.995000	3.224300	-9.656800	27.136552	0.000364	20.819814
2139.611179	-2.983400	3.224300	-9.618600	27.165953	0.000364	20.812401
2140.612738	-3.007000	3.224300	-9.694500	27.227339	0.000363	20.818194
2141.610107	-3.001900	3.224600	-9.678800	27.260210	0.000360	20.810006
2142.610970	-3.011000	3.221100	-9.698200	27.303625	0.000362	20.818116
2143.610824	-2.995700	3.222300	-9.652100	27.298761	0.000360	20.801843
2144.612688	-2.978700	3.221700	-9.595200	27.278938	0.000361	20.822206
2145.611999	-2.982300	3.222300	-9.608800	27.255988	0.000359	20.821407
2146.612464	-2.989900	3.222200	-9.633200	27.279705	0.000357	20.810650
2147.612785	-2.984300	3.222200	-9.615300	27.278587	0.000357	20.797671
2148.613338	-2.994400	3.220800	-9.643900	27.304287	0.000358	20.803134
2149.612328	-2.994400	3.218700	-9.637100	27.333610	0.000357	20.798018
2150.616409	-2.962000	3.219200	-9.533800	27.363181	0.000354	20.833929
2151.614047	-3.012200	3.218800	-9.695000	27.357501	0.000355	20.802611
2152.613896	-3.023200	3.216900	-9.724400	27.352685	0.000354	20.836647
2153.617143	-3.009100	3.217200	-9.680000	27.365412	0.000352	20.811991
2154.617807	-3.013500	3.216600	-9.692200	27.367621	0.000354	20.821800
2155.619678	-3.004100	3.217200	-9.663900	27.368905	0.000352	20.824988
2156.616017	-3.029600	3.215800	-9.741500	27.357719	0.000353	20.811839
2157.614984	-2.996500	3.217700	-9.640600	27.385331	0.000349	20.825391
2158.615233	-3.014700	3.215600	-9.693600	27.380241	0.000350	20.800357
2159.615680	-2.997900	3.216000	-9.639700	27.404775	0.000348	20.828831
2160.622705	-3.006600	3.213600	-9.660800	27.414050	0.000347	20.838161
2161.618267	-2.996000	3.214600	-9.630800	27.380614	0.000347	20.806896
2162.617135	-2.989900	3.213700	-9.607700	27.415788	0.000346	20.830426
2163.617376	-3.012700	3.213800	-9.680500	27.437271	0.000345	20.818849
2164.623795	-3.009900	3.211300	-9.665100	27.413083	0.000346	20.815852
2165.619681	-3.002300	3.211600	-9.640900	27.419013	0.000344	20.813757
2166.618353	-3.003000	3.212300	-9.645300	27.411395	0.000344	20.822688
2167.617766	-2.992700	3.212400	-9.611000	27.427669	0.000344	20.841431
2168.619122	-3.002700	3.210400	-9.639200	27.436750	0.000343	20.825437
2169.620735	-2.992200	3.210800	-9.605800	27.437225	0.000341	20.823544
2170.620164	-3.000000	3.210500	-9.630300	27.430205	0.000340	20.826438
2171.621965	-3.012100	3.209700	-9.666200	27.419438	0.000341	20.827935
2172.620475	-2.995500	3.210800	-9.616600	27.440472	0.000338	20.834870
2173.621958	-3.033400	3.208300	-9.731500	27.451164	0.000340	20.832825
2174.620856	-2.998700	3.208700	-9.620600	27.463119	0.000336	20.827309
2175.620283	-2.991500	3.208100	-9.595400	27.507989	0.000339	20.822667
2176.628425	-3.001900	3.207300	-9.627100	27.518283	0.000337	20.841558
2177.620338	-2.997900	3.207700	-9.614700	27.543334	0.000335	20.842106
2178.623082	-2.997000	3.205800	-9.607100	27.580612	0.000337	20.823665
2179.628841	-2.987200	3.205200	-9.573600	27.574859	0.000335	20.827833
2180.623149	-2.997100	3.205000	-9.604600	27.543091	0.000334	20.814362
2181.622512	-3.005900	3.204200	-9.630600	27.562607	0.000333	20.832100
2182.624917	-2.999800	3.205500	-9.615300	27.535249	0.000332	20.838239
2183.620565	-2.992900	3.204900	-9.590500	27.556804	0.000332	20.842856
2184.621281	-2.989900	3.203600	-9.577400	27.595344	0.000331	20.832797
2185.621716	-2.995000	3.204700	-9.596900	27.566647	0.000331	20.851338
2186.622359	-3.014900	3.202900	-9.654800	27.568311	0.000332	20.833098
2187.625747	-3.006800	3.201600	-9.625200	27.537922	0.000329	20.834290
2188.623092	-3.007800	3.202700	-9.632600	27.490250	0.000331	20.848440
2189.626062	-3.004100	3.204600	-9.626000	27.412112	0.000328	20.842375
2190.625385	-3.006600	3.200700	-9.622100	27.377231	0.000329	20.837631
2191.623577	-3.004200	3.200300	-9.612600	27.351430	0.000327	20.843918
2192.629960	-3.011700	3.201000	-9.639800	27.357653	0.000327	20.832161
2193.626449	-2.984200	3.200100	-9.548800	27.383478	0.000327	20.822579
2194.625577	-2.989200	3.201200	-9.568200	27.417012	0.000324	20.840193
2195.626209	-2.995000	3.199300	-9.580500	27.416340	0.000326	20.849000
2196.629725	-2.982900	3.199300	-9.542200	27.413365	0.000325	20.846480
2197.628902	-2.994400	3.198000	-9.575100	27.411947	0.000324	20.838891
2198.631204	-2.973000	3.197900	-9.505700	27.367987	0.000322	20.861996
2199.629702	-2.985400	3.196900	-9.542600	27.348560	0.000322	20.845773
2200.628461	-2.993000	3.196500	-9.566300	27.312660	0.000324	20.849014
2201.628136	-2.984400	3.197200	-9.540300	27.282489	0.000322	20.861812
2202.633140	-2.970400	3.197800	-9.497200	27.309034	0.000322	20.844892
2203.633834	-2.975300	3.196100	-9.508500	27.302980	0.000321	20.842596
2204.631260	-2.987400	3.194100	-9.541100	27.315281	0.000320	20.850702
2205.631447	-3.010900	3.194300	-9.616200	27.346785	0.000317	20.853470
2206.630298	-3.009100	3.192900	-9.606400	27.387570	0.000317	20.853721
2207.644325	-2.984100	3.193300	-9.527800	27.414527	0.000318	20.850494
2208.635592	-2.991500	3.193600	-9.552500	27.447248	0.000317	20.863971
2209.631340	-2.999600	3.193100	-9.576100	27.487677	0.000317	20.867188
2210.636756	-3.017300	3.190700	-9.627300	27.513917	0.000315	20.851864
2211.631526	-2.994700	3.191600	-9.556400	27.558909	0.000317	20.848768
2212.632141	-3.015100	3.190800	-9.619800	27.578972	0.000317	20.878910
2213.638723	-3.001700	3.189300	-9.572200	27.590753	0.000313	20.875117
2214.632599	-3.031200	3.188800	-9.664100	27.558410	0.000313	20.861067
2215.632946	-3.023300	3.188100	-9.637700	27.566741	0.000312	20.873716
2216.633597	-3.013700	3.188300	-9.607900	27.567684	0.000314	20.856648
2217.632778	-2.979200	3.189700	-9.501200	27.506047	0.000310	20.864333
2218.633962	-2.986400	3.187400	-9.517900	27.476405	0.000310	20.831193
2219.633126	-2.984300	3.188100	-9.514100	27.491138	0.000311	20.848386
2220.637916	-3.008900	3.186200	-9.586000	27.490864	0.000310	20.862808
2221.637201	-3.006200	3.186000	-9.577100	27.493618	0.000310	20.861311
2222.635457	-2.996400	3.185900	-9.543700	27.522316	0.000307	20.866477
2223.639257	-3.015100	3.184300	-9.600200	27.557239	0.000308	20.870320
2224.638249	-2.993100	3.184600	-9.530500	27.593645	0.000305	20.867596
2225.636386	-2.982800	3.184400	-9.497200	27.613070	0.000305	20.862960
2226.636936	-2.966500	3.187300	-9.454600	27.627577	0.000304	20.870444
2227.636874	-3.000400	3.187300	-9.561700	27.599974	0.000303	20.873964
2228.635861	-2.973900	3.183800	-9.466400	27.537967	0.000304	20.870369
2229.638591	-3.002800	3.183000	-9.556800	27.517034	0.000303	20.882024
2230.638216	-2.997000	3.183700	-9.540900	27.534692	0.000302	20.883195
2231.641081	-3.003400	3.181100	-9.552900	27.547093	0.000300	20.889508
2232.638507	-3.002400	3.180800	-9.548800	27.564779	0.000299	20.876483
2233.644445	-3.013700	3.177900	-9.575700	27.569572	0.000300	20.868030
2234.643478	-3.003900	3.179700	-9.550200	27.557837	0.000298	20.894153
2235.639770	-2.988000	3.178600	-9.496200	27.547743	0.000300	20.874516
2236.638686	-2.985000	3.179100	-9.487300	27.568602	0.000300	20.879855
2237.637875	-2.964000	3.179700	-9.423200	27.552453	0.000299	20.874987
2238.638246	-2.986900	3.178600	-9.492100	27.561934	0.000298	20.863190
2239.637669	-2.973300	3.178300	-9.449000	27.567462	0.000296	20.883450
2240.640553	-3.039300	3.175700	-9.651200	27.552086	0.000298	20.898324
2241.639779	-3.020100	3.176500	-9.592900	27.603326	0.000297	20.897723
2242.641284	-3.022100	3.175400	-9.595500	27.580857	0.000296	20.884600
2243.640299	-3.022400	3.174000	-9.591700	27.624731	0.000296	20.898399
2244.641128	-3.015800	3.174100	-9.571100	27.619372	0.000296	20.880205
2245.644322	-2.978300	3.175000	-9.455600	27.643056	0.000297	20.897397
2246.641043	-3.031500	3.172200	-9.615400	27.643232	0.000295	20.865808
2247.641020	-3.023100	3.172900	-9.591300	27.680704	0.000293	20.883598
2248.639330	-3.002900	3.171400	-9.522700	27.706095	0.000293	20.881649
2249.639006	-3.007700	3.170700	-9.535900	27.727176	0.000291	20.884844
2250.641928	-2.991200	3.173300	-9.490700	27.753684	0.000292	20.898717
2251.638710	-2.992000	3.171900	-9.488600	27.764472	0.000292	20.874488
2252.641236	-2.970400	3.171700	-9.420200	27.806229	0.000290	20.902284
2253.640266	-3.002100	3.171300	-9.519300	27.806528	0.000291	20.887887
2254.639463	-2.979300	3.170700	-9.446000	27.811805	0.000289	20.899836
2255.640304	-2.973200	3.169300	-9.420800	27.791075	0.000289	20.894146
2256.641826	-2.989000	3.169700	-9.473400	27.788543	0.000290	20.892547
2257.641250	-3.003400	3.168900	-9.516700	27.842028	0.000288	20.898010
2258.643090	-2.974100	3.167600	-9.419400	27.834392	0.000287	20.907867
2259.642601	-2.981800	3.169600	-9.450500	27.878009	0.000287	20.891549
2260.640558	-2.987800	3.166000	-9.458300	27.843642	0.000287	20.901530
2261.644800	-3.008300	3.164800	-9.517800	27.847091	0.000284	20.899312
2262.641499	-3.039800	3.163400	-9.614600	27.778896	0.000284	20.903699
2263.640603	-3.011500	3.164400	-9.527900	27.761062	0.000285	20.903296
2264.640742	-3.000500	3.164400	-9.493400	27.746213	0.000284	20.882191
2265.641551	-3.013400	3.163400	-9.531800	27.740928	0.000283	20.901527
2266.642896	-3.017100	3.162900	-9.541900	27.751023	0.000281	20.915478
2267.645713	-3.020000	3.160700	-9.543500	27.731308	0.000282	20.904648
2268.641512	-2.996500	3.162000	-9.472800	27.753354	0.000279	20.927306
2269.643216	-3.007500	3.161200	-9.506500	27.751839	0.000279	20.908713
2270.642866	-3.011100	3.161000	-9.517000	27.772401	0.000280	20.900483
2271.641507	-3.019700	3.160400	-9.542500	27.759501	0.000278	20.897932
2272.645796	-3.002500	3.160700	-9.488000	27.768505	0.000281	20.908416
2273.642962	-3.012100	3.158700	-9.513400	27.769247	0.000278	20.914852
2274.643429	-3.014300	3.157200	-9.515500	27.762824	0.000277	20.894638
2275.640693	-3.004000	3.158800	-9.487600	27.751420	0.000276	20.902128
2276.641769	-2.991600	3.158100	-9.446300	27.715137	0.000276	20.912081
2277.642750	-3.034100	3.156600	-9.576500	27.693539	0.000275	20.904573
2278.642225	-3.011200	3.156500	-9.503500	27.715485	0.000275	20.923336
2279.641811	-2.996900	3.155200	-9.454300	27.717197	0.000273	20.910836
2280.642510	-3.014500	3.154600	-9.507500	27.714050	0.000274	20.934219
2281.643743	-2.994200	3.155500	-9.446800	27.762282	0.000273	20.915902
2282.644752	-2.995100	3.153800	-9.445000	27.748396	0.000273	20.918524
2283.643915	-2.979100	3.153200	-9.393200	27.784848	0.000273	20.909215
2284.643931	-2.999900	3.151100	-9.452300	27.772872	0.000272	20.937463
2285.645161	-2.989200	3.151800	-9.420000	27.778129	0.000270	20.931848
2286.646301	-3.016000	3.150000	-9.498600	27.765734	0.000270	20.924592
2287.657637	-2.996200	3.151800	-9.442700	27.752021	0.000269	20.905104
2288.647824	-2.994300	3.150200	-9.430500	27.686302	0.000268	20.923842
2289.647830	-3.000700	3.150000	-9.449600	27.678643	0.000268	20.920876
2290.647267	-2.999700	3.147300	-9.438700	27.692234	0.000269	20.926965
2291.649801	-3.006200	3.146300	-9.457600	27.745949	0.000266	20.928388
2292.647109	-3.001300	3.147800	-9.446500	27.773701	0.000267	20.912222
2293.649480	-2.999000	3.146500	-9.435800	27.803381	0.000267	20.937820
2294.649827	-3.019600	3.143800	-9.491300	27.832721	0.000267	20.931313
2295.648497	-2.996600	3.146100	-9.426400	27.843483	0.000265	20.923179
2296.649965	-2.977600	3.145800	-9.365800	27.873410	0.000265	20.929590
2297.650992	-2.980700	3.145600	-9.374300	27.903364	0.000265	20.941719
2298.649643	-2.997600	3.143000	-9.419900	27.921290	0.000265	20.946958
2299.650325	-2.981400	3.142000	-9.365900	27.944475	0.000265	20.927623
2300.653989	-2.996900	3.140900	-9.411600	27.929625	0.000265	20.918841
2301.651146	-2.987700	3.140900	-9.382800	27.925835	0.000262	20.925457
2302.651491	-3.001600	3.139800	-9.423700	27.887972	0.000262	20.929073
2303.655611	-3.003900	3.139800	-9.430600	27.894472	0.000262	20.928504
2304.652589	-3.001700	3.139400	-9.422800	27.908257	0.000261	20.940954
2305.657321	-3.015800	3.137500	-9.461500	27.955788	0.000262	20.935215
2306.653469	-3.025900	3.137600	-9.493100	27.955443	0.000264	20.933920
2307.654366	-3.004200	3.137900	-9.426300	27.992088	0.000260	20.942355
2308.656315	-3.000900	3.136400	-9.411400	27.987377	0.000260	20.913909
2309.659511	-2.964900	3.137600	-9.300400	28.011450	0.000261	20.931974
2310.654701	-2.992600	3.135100	-9.381100	28.018667	0.000260	20.928808
2311.656372	-3.004900	3.136200	-9.423000	27.948602	0.000258	20.918027
2312.658547	-2.998400	3.135400	-9.400600	27.895966	0.000261	20.928585
2313.663856	-3.015400	3.134900	-9.451500	27.838265	0.000259	20.904653
2314.660407	-2.988100	3.134700	-9.365100	27.853914	0.000259	20.941261
2315.655530	-3.007000	3.132900	-9.420200	27.891747	0.000260	20.918650
2316.661794	-2.990900	3.131500	-9.365000	27.912251	0.000259	20.920794
2317.656890	-2.995100	3.131300	-9.376700	27.891600	0.000256	20.918027
2318.657146	-3.009500	3.130500	-9.419500	27.934146	0.000255	20.912487
2319.662473	-3.003600	3.130200	-9.400400	27.902013	0.000257	20.919025
2320.659278	-2.994700	3.129300	-9.370900	27.904239	0.000256	20.923161
2321.658110	-3.009200	3.128400	-9.411900	27.866356	0.000256	20.905425
2322.659422	-3.003000	3.127400	-9.389700	27.812472	0.000256	20.899084
2323.659799	-2.991400	3.128100	-9.356100	27.785518	0.000254	20.907045
2324.659134	-3.019200	3.126000	-9.436700	27.772200	0.000254	20.897436
2325.675447	-3.010200	3.124600	-9.404000	27.746285	0.000252	20.912607
2326.660682	-3.026200	3.123500	-9.449600	27.813956	0.000254	20.911008
2327.662808	-2.992500	3.124000	-9.347900	27.817827	0.000252	20.910162
2328.664360	-3.002700	3.121700	-9.372800	27.847979	0.000251	20.902576
2329.661370	-3.014600	3.121700	-9.408900	27.893280	0.000251	20.901228
2330.662976	-3.027800	3.120600	-9.446600	27.943192	0.000250	20.904522
2331.663326	-3.015800	3.119400	-9.406000	27.986136	0.000252	20.892273
2332.662514	-3.010300	3.119500	-9.389500	28.024289	0.000251	20.909812
2333.662015	-2.997100	3.118800	-9.345500	28.043678	0.000251	20.913683
2334.660935	-3.016800	3.116800	-9.401700	28.070475	0.000250	20.905570
2335.664201	-3.010100	3.117800	-9.383800	28.071740	0.000250	20.888827
2336.663894	-2.999300	3.117200	-9.348300	28.093210	0.000250	20.900956
2337.664456	-3.005600	3.114800	-9.360700	28.081530	0.000248	20.906741
2338.665009	-2.976500	3.115000	-9.270100	28.084830	0.000249	20.888728
2339.664815	-2.976600	3.115500	-9.272500	28.102360	0.000248	20.892149
2340.662787	-3.001600	3.112800	-9.342000	28.119734	0.000250	20.901105
2341.666336	-3.014700	3.112200	-9.381200	28.099038	0.000249	20.898288
2342.665204	-2.966400	3.113300	-9.233900	28.117900	0.000247	20.894042
2343.666448	-3.002900	3.112600	-9.345900	28.146852	0.000247	20.880516
2344.665762	-3.014900	3.109500	-9.374000	28.178063	0.000248	20.912883
2345.669515	-3.029800	3.109500	-9.418900	28.168665	0.000248	20.896785
2346.672959	-2.996000	3.110200	-9.316600	28.114803	0.000246	20.909416
2347.666717	-2.982300	3.108500	-9.269200	28.107042	0.000246	20.881691
2348.669544	-2.997800	3.105900	-9.309600	28.088598	0.000245	20.891099
2349.667026	-2.998000	3.107200	-9.314700	28.068517	0.000245	20.892694
2350.667892	-3.023800	3.105300	-9.387900	28.059321	0.000248	20.885335
2351.668168	-2.978400	3.107000	-9.252800	28.089316	0.000244	20.887554
2352.671438	-2.986700	3.104500	-9.271600	28.106247	0.000242	20.907916
2353.668947	-2.998900	3.105000	-9.310100	28.102082	0.000246	20.893292
2354.668603	-3.007800	3.101500	-9.327900	28.127988	0.000243	20.879069
2355.671465	-3.022100	3.100000	-9.367800	28.103991	0.000246	20.887154
2356.669450	-2.997700	3.098700	-9.287400	28.114251	0.000243	20.869983
2357.671764	-2.988000	3.100300	-9.263000	28.098191	0.000243	20.884160
2358.670549	-3.028100	3.097600	-9.378800	28.084184	0.000243	20.888551
2359.671987	-3.015800	3.098400	-9.342900	28.063184	0.000240	20.880690
2360.673154	-3.013600	3.097100	-9.332800	28.019005	0.000240	20.862298
2361.670972	-3.009000	3.096600	-9.315800	27.977503	0.000240	20.892592
2362.673290	-3.009400	3.095300	-9.314200	27.981992	0.000241	20.875775
2363.672121	-3.004100	3.094900	-9.294700	28.005274	0.000241	20.903949
2364.671627	-3.008200	3.092600	-9.302400	28.014245	0.000239	20.870308
2365.672587	-3.015300	3.093200	-9.325500	28.026194	0.000238	20.889921
2366.669710	-2.972200	3.093300	-9.192800	28.028479	0.000239	20.847653
2367.669434	-3.002700	3.092800	-9.285100	28.065466	0.000240	20.881089
2368.673069	-2.997800	3.090500	-9.264100	28.105281	0.000239	20.873280
2369.670344	-2.985600	3.090200	-9.225100	28.089815	0.000239	20.859134
2370.675681	-2.999300	3.090200	-9.267100	28.071912	0.000237	20.886630
2371.670520	-2.992900	3.088300	-9.241900	28.087456	0.000238	20.844433
2372.670981	-3.000400	3.087000	-9.261100	28.124817	0.000236	20.850749
2373.674993	-2.994400	3.086400	-9.240600	28.112567	0.000239	20.875400
2374.670610	-2.958500	3.086300	-9.129700	28.129154	0.000236	20.862227
2375.669998	-3.009400	3.085000	-9.283000	28.157140	0.000236	20.864322
2376.680223	-3.011800	3.083600	-9.286300	28.142465	0.000236	20.864247
2377.671338	-3.003900	3.082200	-9.257200	28.135355	0.000239	20.878425
2378.672002	-3.013100	3.081800	-9.284500	28.137685	0.000235	20.867495
2379.674818	-2.991100	3.081500	-9.215100	28.154099	0.000234	20.864579
2380.672022	-2.976300	3.080700	-9.167500	28.137390	0.000235	20.864827
2381.671440	-2.995200	3.078200	-9.217000	28.153474	0.000238	20.872958
2382.671427	-2.986400	3.079200	-9.194700	28.166317	0.000234	20.870241
2383.672949	-2.983700	3.078200	-9.183300	28.179701	0.000236	20.863327
2384.677891	-3.011100	3.075800	-9.260700	28.128961	0.000232	20.851601
2385.673000	-2.990500	3.076200	-9.198700	28.129558	0.000236	20.863582
2386.673215	-2.994700	3.074700	-9.207300	28.097108	0.000234	20.859838
2387.672698	-3.019700	3.072900	-9.277900	28.126237	0.000233	20.869720
2388.672909	-2.982200	3.071400	-9.158400	28.113741	0.000232	20.862357
2389.674943	-3.000500	3.071100	-9.213900	28.097431	0.000233	20.865379
2390.673441	-2.975400	3.070400	-9.133900	28.130303	0.000233	20.848211
2391.675998	-2.998500	3.069300	-9.201400	28.114616	0.000234	20.867031
2392.676733	-3.002300	3.069000	-9.213000	28.109730	0.000233	20.862587
2393.676042	-2.979400	3.068700	-9.140900	28.083350	0.000232	20.861161
2394.676712	-3.006900	3.066500	-9.220200	28.124036	0.000232	20.866083
2395.678515	-3.044400	3.063900	-9.325600	28.091786	0.000231	20.854481
2396.678935	-3.008800	3.063300	-9.216200	28.115734	0.000234	20.848243
2397.679501	-2.974500	3.063100	-9.110400	28.126665	0.000233	20.847868
2398.678478	-2.982100	3.062100	-9.130500	28.174980	0.000235	20.857152
2399.678647	-3.007800	3.061000	-9.205700	28.193594	0.000231	20.837961
2400.683075	-2.984700	3.061500	-9.137000	28.175029	0.000233	20.848667
2401.678301	-3.006900	3.059400	-9.198200	28.190298	0.000233	20.850762
2402.682577	-3.024200	3.058500	-9.248900	28.187025	0.000232	20.848416
2403.679574	-3.031400	3.055700	-9.261800	28.221381	0.000233	20.851236
2404.683046	-2.995800	3.056100	-9.153800	28.273804	0.000234	20.852333
2405.683295	-3.002500	3.056200	-9.174800	28.264909	0.000231	20.862343
2406.686570	-3.003700	3.053700	-9.171300	28.263243	0.000231	20.854502
2407.682696	-2.979700	3.053100	-9.096400	28.236055	0.000233	20.839457
2408.684354	-3.008400	3.051200	-9.178800	28.258681	0.000231	20.857022
2409.682005	-2.995100	3.051100	-9.137200	28.295959	0.000231	20.839079
2410.683014	-2.999300	3.048300	-9.142100	28.309321	0.000232	20.846842
2411.685936	-3.007600	3.047500	-9.164300	28.327261	0.000231	20.840250
2412.683390	-2.982600	3.047700	-9.088500	28.341635	0.000231	20.847610
2413.688632	-3.010400	3.045300	-9.166400	28.335636	0.000230	20.824501
2414.687995	-2.997300	3.044800	-9.125000	28.334965	0.000230	20.859860
2415.684081	-2.981200	3.044200	-9.073800	28.343065	0.000230	20.846680
2416.687388	-3.004700	3.042700	-9.141200	28.316100	0.000230	20.837073
2417.684069	-2.975200	3.041900	-9.049600	28.268413	0.000227	20.837423
2418.686987	-3.025200	3.039900	-9.195800	28.267198	0.000229	20.842363
2419.685568	-2.995700	3.039100	-9.102800	28.283427	0.000228	20.839738
2420.684019	-3.012400	3.037400	-9.148200	28.299045	0.000227	20.860203
2421.686165	-3.011100	3.036000	-9.140800	28.289697	0.000229	20.834197
2422.684806	-2.993400	3.036100	-9.086700	28.280229	0.000227	20.855483
2423.684631	-3.019400	3.035000	-9.162600	28.329898	0.000227	20.849068
2424.685797	-2.999600	3.033600	-9.097800	28.342292	0.000227	20.856332
2425.686287	-3.021000	3.032300	-9.159800	28.353717	0.000227	20.844603
2426.684614	-3.025000	3.031000	-9.165700	28.361898	0.000228	20.820599
2427.687609	-3.006300	3.029900	-9.107000	28.392801	0.000227	20.834646
2428.686203	-2.998800	3.029900	-9.085500	28.412483	0.000227	20.834550
2429.685345	-2.989100	3.028000	-9.050300	28.417933	0.000225	20.821547
2430.686877	-3.014300	3.026300	-9.121700	28.402594	0.000225	20.827912
2431.685859	-2.982600	3.027500	-9.029000	28.321674	0.000226	20.827987
2432.692868	-2.997100	3.024600	-9.064200	28.322542	0.000226	20.830283
2433.685268	-2.999700	3.024800	-9.071300	28.326235	0.000226	20.835898
2434.692181	-2.991200	3.022400	-9.040200	28.343859	0.000226	20.841316
2435.687999	-3.031600	3.020300	-9.155200	28.362123	0.000225	20.833153
2436.689523	-2.983400	3.019900	-9.008600	28.393851	0.000227	20.829066
2437.690855	-3.011700	3.018600	-9.089700	28.388173	0.000225	20.820503
2438.692496	-2.965700	3.019500	-8.953000	28.392189	0.000226	20.838771
2439.688302	-2.995900	3.015500	-9.033700	28.397941	0.000225	20.821805
2440.688818	-2.999800	3.014600	-9.042400	28.384015	0.000223	20.839550
2441.697424	-3.016700	3.013300	-9.088700	28.389096	0.000224	20.812424
2442.691969	-2.982000	3.012500	-8.982500	28.414324	0.000225	20.812223
2443.692884	-2.989900	3.010900	-9.001800	28.413484	0.000222	20.825601
2444.688795	-2.998300	3.010000	-9.024100	28.427262	0.000223	20.830467
2445.694230	-3.018900	3.008700	-9.082000	28.398191	0.000224	20.818263
2446.689808	-3.006900	3.008100	-9.043500	28.333039	0.000223	20.829472
2447.689466	-2.997900	3.005200	-9.008400	28.281234	0.000222	20.818089
2448.694482	-3.010800	3.004100	-9.043800	28.213692	0.000223	20.819314
2449.690203	-3.010100	3.003500	-9.040300	28.186945	0.000225	20.814197
2450.690409	-2.993700	3.003100	-8.989900	28.200606	0.000224	20.806140
2451.690133	-2.991200	3.001900	-8.978100	28.189180	0.000225	20.818344
2452.688755	-3.016500	2.998400	-9.044100	28.252636	0.000222	20.799254
2453.689605	-3.013300	2.998800	-9.035300	28.276131	0.000222	20.830021
2454.694275	-3.011600	2.997500	-9.026200	28.304784	0.000224	20.822360
2455.689890	-2.996900	2.996400	-8.978200	28.279578	0.000224	20.813578
2456.689405	-3.030900	2.992800	-9.070000	28.211094	0.000225	20.827604
2457.689916	-3.000500	2.993700	-8.980700	28.143741	0.000225	20.814324
2458.690061	-3.016200	2.992300	-9.024600	28.103115	0.000223	20.792393
2459.690613	-2.980200	2.990900	-8.912500	28.102050	0.000223	20.790847
2460.690135	-2.973000	2.989400	-8.886400	28.157153	0.000223	20.814551
2461.690945	-2.989700	2.988000	-8.932700	28.186129	0.000220	20.808160
2462.693991	-3.015300	2.985500	-9.001300	28.186302	0.000223	20.824929
2463.690648	-3.000300	2.986300	-8.959000	28.238280	0.000224	20.812775
2464.689619	-2.998000	2.983600	-8.944200	28.248444	0.000222	20.789817
2465.692643	-2.971300	2.983800	-8.864600	28.242272	0.000224	20.810156
2466.689627	-3.002400	2.980600	-8.947700	28.257539	0.000224	20.814148
2467.690648	-3.006400	2.979000	-8.955200	28.258903	0.000223	20.805563
2468.692249	-3.020800	2.977600	-8.993800	28.291394	0.000222	20.826897
2469.695803	-2.990100	2.978100	-8.903500	28.334051	0.000221	20.812948
2470.694538	-2.996800	2.975300	-8.915200	28.386538	0.000222	20.798469
2471.690182	-3.004400	2.974200	-8.934600	28.401905	0.000224	20.796873
2472.696891	-2.979100	2.972600	-8.854400	28.430727	0.000222	20.815464
2473.691774	-3.019400	2.970300	-8.967400	28.445524	0.000222	20.806657
2474.693016	-2.977700	2.969800	-8.841400	28.463564	0.000222	20.809176
2475.699113	-3.021000	2.969200	-8.969700	28.429167	0.000222	20.816738
2476.693643	-2.993600	2.965700	-8.877200	28.375807	0.000220	20.815163
2477.694926	-2.987400	2.965200	-8.856800	28.391571	0.000221	20.794053
2478.693440	-3.004300	2.964300	-8.904600	28.388570	0.000221	20.793402
2479.694529	-2.994100	2.963200	-8.871000	28.403213	0.000221	20.777327
2480.695502	-2.992600	2.961100	-8.859400	28.422821	0.000220	20.804184
2481.697046	-3.019000	2.960300	-8.936700	28.467774	0.000222	20.810097
2482.696311	-3.000300	2.958300	-8.874900	28.481924	0.000219	20.790681
2483.697581	-3.004300	2.956300	-8.880300	28.446884	0.000220	20.798069
2484.697071	-2.997900	2.954400	-8.855600	28.372187	0.000219	20.800139
2485.697535	-2.988200	2.953900	-8.825700	28.329806	0.000220	20.781647
2486.700189	-2.984900	2.952700	-8.812500	28.275130	0.000220	20.802461
2487.697840	-2.989200	2.950700	-8.819000	28.259989	0.000222	20.793381
2488.700085	-2.968700	2.949500	-8.754500	28.240877	0.000221	20.798320
2489.697297	-3.004000	2.947500	-8.853300	28.301009	0.000221	20.779206
2490.698255	-2.998200	2.947200	-8.835400	28.280707	0.000222	20.784842
2491.698236	-2.997100	2.943900	-8.822500	28.224569	0.000220	20.789962
2492.701329	-3.006000	2.943400	-8.846900	28.271242	0.000221	20.768675
2493.698109	-2.999100	2.940600	-8.818900	28.307104	0.000222	20.784867
2494.699069	-2.986300	2.940000	-8.776900	28.340095	0.000222	20.779680
2495.704816	-3.000900	2.938000	-8.815400	28.339649	0.000222	20.792507
2496.701780	-2.985700	2.936000	-8.764800	28.322025	0.000222	20.801788
2497.703269	-3.006500	2.937000	-8.828700	28.280239	0.000220	20.792432
2498.699522	-2.963900	2.933600	-8.693700	28.310751	0.000221	20.789962
2499.700667	-3.005000	2.930300	-8.804900	28.344604	0.000221	20.793229
2500.698565	-2.984700	2.929900	-8.744400	28.353678	0.000222	20.779131
2501.699669	-2.988900	2.929400	-8.754700	28.342798	0.000220	20.779082
2502.699968	-3.001200	2.926600	-8.781600	28.339249	0.000221	20.789259
2503.700289	-3.017200	2.924500	-8.823000	28.344407	0.000221	20.772167
2504.698449	-3.036900	2.922500	-8.873800	28.369660	0.000221	20.789535
2505.701623	-3.022900	2.921100	-8.829300	28.405873	0.000219	20.777160
2506.699785	-2.988000	2.921800	-8.729100	28.401160	0.000221	20.768622
2507.699763	-3.007400	2.918500	-8.775600	28.366613	0.000221	20.768448
2508.702862	-3.007300	2.917000	-8.770600	28.317042	0.000219	20.780175
2509.699954	-3.021900	2.915500	-8.808500	28.312231	0.000222	20.776754
2510.700394	-3.004700	2.913300	-8.752700	28.339916	0.000221	20.779499
2511.698622	-3.030800	2.912000	-8.825200	28.362717	0.000220	20.764050
2512.701377	-3.007800	2.909700	-8.750600	28.361402	0.000219	20.778374
2513.703786	-3.037000	2.908500	-8.831700	28.374784	0.000220	20.781418
2514.702650	-2.979000	2.908600	-8.663800	28.400686	0.000221	20.744436
2515.710423	-2.982400	2.906100	-8.666500	28.396740	0.000220	20.783137
2516.701345	-3.019000	2.904100	-8.766000	28.428067	0.000219	20.770112
2517.701861	-2.990500	2.902600	-8.679100	28.466899	0.000220	20.800681
2518.702429	-3.001400	2.901000	-8.705700	28.486699	0.000220	20.780791
2519.701377	-3.015800	2.898900	-8.741800	28.537475	0.000221	20.782139
2520.702549	-3.009100	2.896700	-8.715400	28.549495	0.000219	20.789503
2521.704373	-3.001300	2.895300	-8.688200	28.554994	0.000221	20.775600
2522.702964	-3.007500	2.892700	-8.699100	28.581482	0.000219	20.768612
2523.703037	-3.015200	2.890300	-8.712800	28.604052	0.000220	20.792766
2524.706381	-3.008100	2.890200	-8.692300	28.615723	0.000221	20.787451
2525.704426	-3.026300	2.886900	-8.734700	28.637326	0.000220	20.785501
2526.705363	-3.006800	2.883800	-8.669800	28.595128	0.000220	20.773347
2527.704056	-2.966800	2.885700	-8.560600	28.600208	0.000220	20.774196
2528.704635	-2.990200	2.883300	-8.621000	28.587149	0.000221	20.763414
2529.708218	-2.980100	2.881100	-8.585400	28.616286	0.000221	20.778534
2530.705575	-2.975500	2.878900	-8.564400	28.651025	0.000221	20.776539
2531.708233	-2.963600	2.877300	-8.525500	28.610116	0.000223	20.775166
2532.706337	-3.001800	2.875500	-8.629100	28.626590	0.000222	20.783697
2533.705687	-3.025400	2.872100	-8.688400	28.613682	0.000222	20.782551
2534.708046	-3.024100	2.870600	-8.679700	28.622107	0.000223	20.763535
2535.707853	-2.973300	2.869500	-8.530600	28.549921	0.000220	20.779501
2536.705081	-3.031700	2.865200	-8.685200	28.556042	0.000221	20.770492
2537.706543	-3.034500	2.862500	-8.685400	28.562261	0.000221	20.764901
2538.705613	-3.030200	2.861400	-8.669900	28.527866	0.000222	20.782894
2539.707236	-3.008000	2.859900	-8.602000	28.492452	0.000221	20.789430
2540.711877	-3.005700	2.859300	-8.593400	28.453945	0.000221	20.774834
2541.708888	-3.025900	2.857400	-8.645000	28.381153	0.000220	20.770761
2542.720058	-3.001600	2.854400	-8.566600	28.384720	0.000220	20.780991
2543.709627	-2.988800	2.852900	-8.525300	28.432282	0.000220	20.749699
2544.708321	-2.983800	2.853000	-8.511300	28.469181	0.000219	20.769314
2545.713265	-3.005200	2.848000	-8.557900	28.487421	0.000220	20.774880
2546.708567	-2.981500	2.847200	-8.488200	28.502783	0.000220	20.774703
2547.718187	-3.020500	2.844300	-8.588400	28.566762	0.000220	20.792668
2548.711372	-3.008700	2.842000	-8.549200	28.589856	0.000219	20.781787
2549.710298	-3.017600	2.840700	-8.571400	28.602574	0.000220	20.791277
2550.717958	-2.985800	2.837900	-8.472000	28.632254	0.000221	20.780867
2551.712589	-2.978400	2.836900	-8.448000	28.656260	0.000221	20.776596
2552.713707	-3.008900	2.833300	-8.523400	28.681562	0.000219	20.777898
2553.711654	-2.979000	2.832700	-8.437700	28.663796	0.000218	20.793669
2554.712357	-3.013100	2.828400	-8.520300	28.654507	0.000220	20.777675
2555.712621	-2.975600	2.827900	-8.413600	28.604531	0.000218	20.766695
2556.718708	-3.012100	2.825700	-8.509600	28.539338	0.000221	20.783068
2557.712846	-2.993000	2.824500	-8.452600	28.501300	0.000219	20.801659
2558.713434	-3.014300	2.819800	-8.499500	28.471141	0.000219	20.777452
2559.713154	-3.033100	2.817800	-8.544800	28.487224	0.000220	20.771362
2560.714749	-2.984000	2.816700	-8.403900	28.450870	0.000218	20.785014
2561.718406	-2.996900	2.814100	-8.432200	28.494364	0.000219	20.796570
2562.715659	-2.982600	2.811200	-8.384300	28.506978	0.000219	20.778928
2563.717043	-3.016400	2.808000	-8.469200	28.514490	0.000222	20.765629
2564.714479	-2.978100	2.807400	-8.359600	28.557753	0.000222	20.786914
2565.716609	-3.018200	2.803500	-8.460500	28.580450	0.000220	20.779426
2566.717660	-2.993700	2.802400	-8.388800	28.629612	0.000221	20.791482
2567.719774	-2.992200	2.800200	-8.377800	28.640960	0.000221	20.808127
2568.723586	-3.017400	2.797400	-8.440000	28.676685	0.000221	20.766822
2569.716221	-2.999800	2.795000	-8.383000	28.685482	0.000221	20.792752
2570.715625	-2.962500	2.793900	-8.274400	28.688679	0.000220	20.779377
2571.719758	-3.010600	2.789100	-8.395400	28.680381	0.000219	20.788089
2572.716816	-2.996000	2.786300	-8.346800	28.675424	0.000222	20.798269
2573.719930	-3.000500	2.784500	-8.354300	28.661273	0.000221	20.788758
2574.719288	-3.004800	2.780900	-8.354100	28.648390	0.000221	20.776730
2575.718296	-2.994600	2.777600	-8.316700	28.641926	0.000223	20.788237
2576.719593	-3.007300	2.776400	-8.348600	28.684713	0.000222	20.791503
2577.716986	-3.061900	2.770500	-8.480800	28.751434	0.000222	20.777629
2578.719682	-3.016900	2.770100	-8.356800	28.783120	0.000222	20.782993
2579.717603	-2.998200	2.768000	-8.298000	28.818914	0.000220	20.787282
2580.719356	-3.007700	2.764600	-8.314500	28.872769	0.000223	20.782739
2581.720793	-2.989800	2.761200	-8.253900	28.905420	0.000222	20.797140
2582.717937	-2.996700	2.760000	-8.269700	28.884960	0.000220	20.804978
2583.721725	-2.972300	2.757200	-8.194400	28.876879	0.000221	20.779293
2584.716100	-3.020700	2.752400	-8.313000	28.878438	0.000222	20.787976
2585.725904	-3.027800	2.749200	-8.322100	28.872470	0.000221	20.805198
2586.727082	-2.996300	2.746100	-8.226900	28.871104	0.000221	20.789123
2587.717981	-3.024700	2.743600	-8.297800	28.873454	0.000220	20.810930
2588.718427	-3.007600	2.739500	-8.237600	28.791850	0.000222	20.796055
2589.719858	-3.014300	2.737100	-8.249300	28.784589	0.000221	20.796802
2590.719765	-3.001600	2.733100	-8.201400	28.819692	0.000221	20.793755
2591.718984	-2.960700	2.731900	-8.087500	28.863564	0.000222	20.782475
2592.720860	-3.015500	2.727000	-8.222600	28.922294	0.000223	20.794700
2593.721526	-3.016400	2.723300	-8.213400	28.951696	0.000221	20.802036
2594.719315	-3.007600	2.721400	-8.184300	28.957961	0.000221	20.785589
2595.719361	-3.027600	2.717300	-8.225700	28.972748	0.000220	20.800960
2596.718947	-3.017900	2.713900	-8.188700	28.947334	0.000221	20.818503
2597.722160	-2.990300	2.711000	-8.105800	29.010176	0.000224	20.795995
2598.719203	-2.992700	2.707600	-8.101000	29.000385	0.000219	20.783760
2599.719803	-2.982600	2.704700	-8.066200	28.984113	0.000220	20.803876
2600.718803	-2.955900	2.703100	-7.989000	28.934546	0.000220	20.816526
2601.719172	-3.018600	2.697000	-8.140400	28.893476	0.000221	20.809764
2602.720931	-3.016100	2.692300	-8.119600	28.826170	0.000219	20.807393
2603.721339	-2.996000	2.690100	-8.058800	28.845391	0.000221	20.809212
2604.721648	-2.995500	2.687200	-8.048200	28.873930	0.000218	20.808565
2605.722008	-2.993200	2.683400	-8.031100	28.933328	0.000220	20.802022
2606.723488	-2.983700	2.677500	-7.987600	28.991833	0.000218	20.799800
2607.723590	-2.990800	2.674300	-7.996800	29.036270	0.000220	20.817071
2608.723398	-2.984400	2.670200	-7.968100	29.021141	0.000219	20.794241
2609.723099	-2.976400	2.667000	-7.937400	29.011974	0.000220	20.824360
2610.723274	-2.991400	2.662400	-7.963400	29.055986	0.000221	20.799478
2611.723375	-3.002300	2.657400	-7.977300	29.088804	0.000220	20.801251
2612.724465	-3.013100	2.653400	-7.993500	29.119141	0.000221	20.805741
2613.727211	-2.983600	2.649300	-7.903400	29.158025	0.000219	20.822637
2614.727067	-3.003200	2.646000	-7.945500	29.157775	0.000220	20.805791
2615.728681	-3.004000	2.639200	-7.927600	29.173577	0.000221	20.820291
2616.726576	-3.002400	2.637800	-7.917900	29.131453	0.000222	20.807715
2617.728326	-3.012100	2.631200	-7.924500	29.160971	0.000220	20.794786
2618.727427	-3.001600	2.628300	-7.887600	29.195418	0.000219	20.825705
2619.728013	-3.027800	2.621600	-7.936700	29.231402	0.000220	20.814552
2620.728135	-2.992300	2.618300	-7.833800	29.250145	0.000221	20.828698
2621.727110	-2.984800	2.613300	-7.798700	29.227835	0.000220	20.811431
2622.729605	-3.040400	2.608700	-7.930400	29.171347	0.000219	20.833217
2623.728526	-2.981700	2.602300	-7.758300	29.076965	0.000217	20.822513
2624.730540	-3.008600	2.599000	-7.818100	29.063073	0.000218	20.830326
2625.728267	-2.989500	2.593400	-7.751700	29.101783	0.000220	20.852260
2626.733284	-3.000500	2.587400	-7.762300	29.117311	0.000220	20.825234
2627.727447	-3.005200	2.581400	-7.756500	29.129300	0.000219	20.844426
2628.727494	-3.004800	2.576300	-7.739900	29.145889	0.000218	20.817521
2629.732862	-2.986000	2.571300	-7.677200	29.181232	0.000218	20.825634
2630.728394	-2.997700	2.566700	-7.693200	29.214270	0.000220	20.824314
2631.728124	-3.002400	2.560700	-7.687300	29.234600	0.000217	20.835792
2632.729063	-2.995300	2.555600	-7.653100	29.256493	0.000219	20.837940
2633.728187	-2.992300	2.548700	-7.625100	29.238835	0.000219	20.825361
2634.728981	-2.979100	2.543400	-7.574900	29.259537	0.000218	20.839585
2635.734697	-2.982400	2.538100	-7.568200	29.301835	0.000217	20.846177
2636.730535	-2.983600	2.531700	-7.552700	29.289971	0.000218	20.826635
2637.732164	-3.010800	2.525300	-7.601300	29.276826	0.000219	20.822870
2638.730841	-2.997200	2.518500	-7.547100	29.266696	0.000220	20.829731
2639.738194	-2.973300	2.514400	-7.475300	29.270909	0.000221	20.824494
2640.730789	-3.017100	2.506100	-7.560000	29.273809	0.000221	20.861554
2641.733841	-2.970400	2.499700	-7.424400	29.299142	0.000219	20.842040
