LabVIEW Measurement	
Writer_Version	2
Reader_Version	2
Separator	Tab
Decimal_Separator	.
Multi_Headings	No
X_Columns	One
Time_Pref	Absolute
Operator	admin
Description	Clolumns are: time, Current, Voltage, Power, Battery Temp, and Chamber Temp
Date	2024/08/16
Time	13:06:06.104549407958984375
***End_of_Header***	
	
Channels	6						
Samples	1	1	1	1	1	1	
Date	2024/09/19	2024/09/19	2024/09/19	2024/09/19	2024/09/19	2024/09/19	
Time	08:42:21.9305329322814941406	08:42:21.9355382919311523438	08:42:21.940532684326171875	08:42:21.9142680168151855469	08:42:21.9142680168151855469	08:42:21.9142680168151855469	
X_Dimension	Time	Time	Time	Time	Time	Time	
X0	0.0000000000000000E+0	0.0000000000000000E+0	0.0000000000000000E+0	0.0000000000000000E+0	0.0000000000000000E+0	0.0000000000000000E+0	
Delta_X	1.000000	1.000000	1.000000	1.000000	1.000000	1.000000	
***End_of_Header***							
X_Value	Untitled	Untitled 1	Untitled 2	Untitled 3	Untitled 4	Untitled 5	Comment
0.000000	0.032256	4.088300	0.131740	21.003584	0.001009	20.846657
1.002408	-2.998600	3.903500	-11.704000	21.003388	0.001007	20.842667
2.003978	-3.001800	3.896000	-11.694000	21.003855	0.001007	20.850246
3.001899	-2.983600	3.891600	-11.610000	21.019376	0.001007	20.871459
4.001602	-3.005300	3.887600	-11.683000	21.007524	0.001004	20.847753
5.003488	-3.007600	3.884600	-11.682000	20.995592	0.001004	20.869956
6.002728	-3.002200	3.881300	-11.651000	21.017227	0.001004	20.853664
7.003570	-2.993900	3.878500	-11.611000	21.008785	0.001002	20.845695
8.002247	-2.990900	3.876200	-11.591000	21.015952	0.001002	20.847173
9.005054	-3.004100	3.872300	-11.632000	21.040653	0.001000	20.860498
10.003843	-2.972200	3.872800	-11.508000	21.000210	0.001001	20.847549
11.005114	-2.982600	3.871300	-11.546000	21.029995	0.000999	20.851261
12.004965	-2.995800	3.866900	-11.583000	21.035129	0.000999	20.850707
13.004726	-2.990100	3.867400	-11.564000	21.032088	0.001000	20.859992
14.005574	-2.991100	3.866900	-11.564000	21.035782	0.000998	20.849463
15.003741	-2.988000	3.864400	-11.545000	21.052048	0.000995	20.846766
16.004848	-3.001500	3.863600	-11.596000	21.052694	0.000996	20.853102
17.006444	-2.997300	3.861900	-11.574000	21.029040	0.000996	20.856944
18.007211	-2.992300	3.860300	-11.549000	21.072554	0.000995	20.831242
19.008288	-2.994100	3.857900	-11.549000	21.080996	0.000995	20.845849
20.009589	-2.997200	3.859400	-11.567000	21.059657	0.000994	20.861489
21.008048	-2.988800	3.857600	-11.529000	21.061701	0.000994	20.851679
22.013551	-3.006900	3.854600	-11.588000	21.073608	0.000993	20.827555
23.007563	-2.984400	3.855900	-11.505000	21.088524	0.000993	20.857646
24.007805	-3.003700	3.855100	-11.579000	21.106267	0.000994	20.826083
25.007496	-2.984600	3.854900	-11.504000	21.126576	0.000993	20.848294
26.008951	-2.994900	3.854900	-11.544000	21.100400	0.000989	20.833964
27.007717	-2.991600	3.852400	-11.524000	21.106741	0.000991	20.825609
28.010481	-3.017200	3.851000	-11.618000	21.107190	0.000991	20.823688
29.009629	-2.994800	3.852200	-11.535000	21.119287	0.000989	20.817770
30.008307	-2.992900	3.850000	-11.521000	21.129698	0.000991	20.814907
31.011357	-2.993400	3.850800	-11.526000	21.133107	0.000990	20.824482
32.011895	-3.017700	3.849400	-11.615000	21.125769	0.000991	20.817615
33.009780	-3.004400	3.849900	-11.565000	21.129617	0.000989	20.826206
34.010403	-2.976200	3.847900	-11.451000	21.147001	0.000990	20.834112
35.012954	-3.025100	3.846000	-11.633000	21.163363	0.000990	20.833884
36.012131	-3.022500	3.847000	-11.627000	21.161067	0.000989	20.833483
37.014244	-2.989800	3.846900	-11.500000	21.158075	0.000990	20.836655
38.015224	-3.009000	3.845300	-11.569000	21.160544	0.000989	20.816839
39.013279	-3.008800	3.845400	-11.569000	21.171316	0.000989	20.822873
40.015733	-3.011700	3.845000	-11.578000	21.177910	0.000990	20.809081
41.017072	-2.993200	3.845100	-11.508000	21.202206	0.000989	20.799246
42.016572	-3.003000	3.842900	-11.539000	21.199787	0.000991	20.822430
43.016332	-3.011900	3.843900	-11.577000	21.201708	0.000990	20.827671
44.017478	-3.000100	3.843100	-11.529000	21.212160	0.000991	20.822954
45.018360	-2.981100	3.843200	-11.456000	21.203130	0.000990	20.820559
46.020470	-2.993700	3.842400	-11.502000	21.220987	0.000989	20.798119
47.018338	-3.003600	3.841300	-11.536000	21.240869	0.000989	20.807103
48.017060	-2.987200	3.841900	-11.475000	21.236301	0.000988	20.818655
49.020978	-2.995700	3.840800	-11.504000	21.252318	0.000990	20.819505
50.019439	-3.005700	3.841400	-11.545000	21.271449	0.000988	20.819677
51.017518	-2.999600	3.839200	-11.514000	21.257125	0.000989	20.802028
52.018497	-3.011600	3.840500	-11.565000	21.257002	0.000988	20.794793
53.025584	-2.976800	3.840500	-11.432000	21.259494	0.000989	20.820994
54.017907	-3.001300	3.837600	-11.517000	21.294020	0.000988	20.801006
55.021046	-3.011700	3.837200	-11.554000	21.303344	0.000988	20.807964
56.018040	-2.995200	3.837500	-11.493000	21.302698	0.000988	20.811111
57.017395	-2.980500	3.838000	-11.437000	21.319058	0.000989	20.806615
58.020449	-3.004700	3.838600	-11.532000	21.323046	0.000988	20.809657
59.019361	-2.997200	3.837700	-11.501000	21.339012	0.000989	20.798130
60.018137	-2.988600	3.837000	-11.466000	21.329681	0.000988	20.806812
61.018637	-3.014200	3.835200	-11.559000	21.343801	0.000990	20.817619
62.019166	-3.000400	3.834600	-11.503000	21.361908	0.000989	20.796381
63.018262	-2.994700	3.835400	-11.484000	21.350731	0.000989	20.810328
64.018429	-2.989500	3.835800	-11.466000	21.360087	0.000990	20.801670
65.022598	-3.001000	3.834600	-11.506000	21.370987	0.000988	20.802619
66.017883	-2.997500	3.833500	-11.488000	21.379591	0.000989	20.792735
67.022208	-2.984700	3.834600	-11.444000	21.384249	0.000988	20.806879
68.022501	-2.975600	3.833100	-11.405000	21.384028	0.000989	20.793856
69.022755	-2.993800	3.835000	-11.480000	21.401791	0.000988	20.789342
70.022787	-3.019300	3.831700	-11.568000	21.411866	0.000988	20.785672
71.022666	-3.028500	3.831900	-11.603000	21.413811	0.000987	20.796627
72.023371	-2.990300	3.832500	-11.459000	21.422587	0.000989	20.811571
73.026816	-2.987100	3.832000	-11.445000	21.427357	0.000988	20.785050
74.030526	-2.980600	3.833400	-11.425000	21.436305	0.000989	20.778356
75.023025	-3.007400	3.830800	-11.520000	21.453365	0.000990	20.793055
76.026451	-2.991700	3.831900	-11.462000	21.451445	0.000988	20.805358
77.021492	-2.997100	3.830900	-11.480000	21.461175	0.000989	20.791386
78.021440	-3.003500	3.829500	-11.501000	21.489313	0.000989	20.791566
79.024453	-3.004100	3.830900	-11.508000	21.484272	0.000990	20.787944
80.024335	-3.009900	3.829800	-11.527000	21.501977	0.000990	20.787642
81.023357	-2.997300	3.828700	-11.474000	21.509215	0.000989	20.781608
82.028577	-2.989000	3.830200	-11.448000	21.528938	0.000991	20.779058
83.026104	-2.996500	3.829300	-11.473000	21.524126	0.000989	20.786097
84.027054	-2.999000	3.828300	-11.479000	21.530434	0.000991	20.779132
85.032496	-3.002400	3.829000	-11.495000	21.541536	0.000989	20.792138
86.027285	-2.995500	3.828000	-11.465000	21.548047	0.000991	20.801972
87.025415	-2.994700	3.828600	-11.464000	21.545358	0.000990	20.784583
88.027277	-3.000300	3.826300	-11.478000	21.558299	0.000991	20.793265
89.028059	-3.006200	3.827200	-11.503000	21.562957	0.000992	20.802194
90.029035	-3.004800	3.826500	-11.496000	21.570914	0.000991	20.776965
91.029622	-3.011600	3.826500	-11.522000	21.574754	0.000989	20.780333
92.029044	-3.001000	3.826800	-11.483000	21.577418	0.000994	20.801965
93.033133	-2.993900	3.826400	-11.454000	21.611010	0.000990	20.792433
94.031563	-3.007200	3.825700	-11.504000	21.618869	0.000990	20.798875
95.031596	-3.000500	3.824700	-11.474000	21.612284	0.000991	20.775690
96.031096	-2.990200	3.825400	-11.437000	21.620690	0.000992	20.792637
97.033674	-3.000200	3.824900	-11.475000	21.621515	0.000994	20.784453
98.036346	-2.992700	3.826100	-11.448000	21.644553	0.000993	20.791386
99.035850	-2.995000	3.825500	-11.455000	21.624432	0.000990	20.774095
100.032639	-3.012100	3.823800	-11.517000	21.647027	0.000993	20.777741
101.036932	-2.990000	3.825200	-11.436000	21.645753	0.000994	20.782156
102.035995	-3.003700	3.823700	-11.485000	21.641113	0.000992	20.780832
103.038102	-3.003100	3.823900	-11.482000	21.656306	0.000995	20.764268
104.034544	-3.009400	3.822600	-11.503000	21.682365	0.000992	20.791295
105.037501	-3.001800	3.822800	-11.474000	21.669271	0.000995	20.775346
106.038082	-3.006000	3.823000	-11.490000	21.688124	0.000993	20.783782
107.035937	-2.998700	3.821900	-11.459000	21.723689	0.000996	20.766270
108.038321	-3.008900	3.821100	-11.496000	21.701292	0.000996	20.783684
109.037232	-3.023800	3.820900	-11.552000	21.713912	0.000995	20.774977
110.035564	-2.998200	3.822000	-11.457000	21.706276	0.000998	20.770653
111.038737	-3.010100	3.820800	-11.501000	21.724212	0.000996	20.786234
112.036011	-3.027900	3.819400	-11.564000	21.709950	0.000997	20.792823
113.036988	-3.000700	3.821200	-11.465000	21.740222	0.000996	20.763850
114.037332	-2.977100	3.822400	-11.378000	21.758723	0.000996	20.766719
115.037578	-2.989800	3.821600	-11.425000	21.739854	0.000997	20.763007
116.038123	-2.994100	3.818700	-11.433000	21.759548	0.000999	20.763277
117.037151	-2.978500	3.820800	-11.380000	21.757530	0.001000	20.771215
118.039134	-2.985600	3.820300	-11.404000	21.745686	0.000999	20.768370
119.041254	-2.984000	3.820400	-11.399000	21.770648	0.000999	20.754946
120.038652	-3.017600	3.818400	-11.521000	21.784559	0.001001	20.766024
121.039007	-2.970400	3.820900	-11.348000	21.788472	0.000999	20.768992
122.040376	-3.023600	3.818700	-11.545000	21.790040	0.000999	20.750647
123.040252	-2.993000	3.817700	-11.425000	21.808474	0.001002	20.768149
124.042979	-2.983600	3.818300	-11.391000	21.817991	0.001002	20.768191
125.042499	-2.994400	3.818400	-11.433000	21.821830	0.001002	20.760654
126.043734	-2.993900	3.816400	-11.425000	21.842446	0.001003	20.773702
127.042994	-3.016000	3.818500	-11.515000	21.841376	0.001004	20.757931
128.041526	-3.004100	3.817100	-11.466000	21.836066	0.001004	20.767316
129.043681	-2.999500	3.815700	-11.443000	21.849201	0.001002	20.768135
130.043361	-3.014700	3.815300	-11.501000	21.857254	0.001002	20.756755
131.045622	-2.975600	3.815800	-11.353000	21.892881	0.001004	20.761121
132.043436	-2.996400	3.814900	-11.430000	21.893975	0.001006	20.776916
133.053040	-2.981300	3.815700	-11.374000	21.899425	0.001003	20.756292
134.044405	-2.981400	3.817000	-11.379000	21.880533	0.001005	20.763934
135.044020	-2.991100	3.815900	-11.413000	21.912622	0.001005	20.770450
136.044845	-3.025800	3.813200	-11.536000	21.910801	0.001004	20.757247
137.045723	-3.006500	3.814200	-11.466000	21.898822	0.001006	20.775602
138.044997	-3.031800	3.813900	-11.560000	21.905208	0.001006	20.752597
139.044573	-3.009300	3.814000	-11.476000	21.937948	0.001006	20.757394
140.045319	-3.025400	3.812300	-11.533000	21.931113	0.001008	20.751975
141.044123	-3.015600	3.814100	-11.501000	21.940538	0.001007	20.773263
142.046715	-2.995200	3.813300	-11.419000	21.966436	0.001007	20.765996
143.046741	-2.997200	3.813900	-11.430000	21.969068	0.001008	20.751561
144.046743	-2.984000	3.813800	-11.379000	21.990333	0.001010	20.768107
145.046666	-2.993000	3.813100	-11.412000	21.987835	0.001011	20.757072
146.046609	-2.980700	3.812400	-11.363000	22.016052	0.001011	20.761610
147.047979	-3.005400	3.811600	-11.455000	22.011413	0.001013	20.746060
148.045413	-3.020200	3.811100	-11.509000	22.022023	0.001012	20.738664
149.049744	-3.005900	3.812500	-11.457000	22.033514	0.001012	20.764392
150.051705	-2.989500	3.811200	-11.391000	22.051505	0.001013	20.773868
151.048314	-3.006300	3.811000	-11.456000	22.053922	0.001014	20.762063
152.050513	-3.011400	3.809200	-11.470000	22.042899	0.001014	20.772839
153.053881	-2.998000	3.811800	-11.426000	22.048158	0.001014	20.737800
154.050014	-3.020700	3.811400	-11.511000	22.043643	0.001016	20.740866
155.050825	-3.000800	3.810300	-11.433000	22.076913	0.001016	20.778442
156.052312	-3.007700	3.810800	-11.461000	22.088982	0.001014	20.778196
157.050572	-2.990800	3.810700	-11.395000	22.091940	0.001018	20.762190
158.052568	-2.996100	3.809900	-11.414000	22.093680	0.001017	20.747337
159.052710	-3.007000	3.808700	-11.452000	22.114389	0.001015	20.757164
160.053567	-3.013600	3.809800	-11.479000	22.127675	0.001017	20.749128
161.056164	-3.005700	3.808300	-11.445000	22.123290	0.001018	20.759911
162.057368	-3.015000	3.807200	-11.477000	22.120336	0.001017	20.766912
163.054314	-3.018900	3.807400	-11.493000	22.125921	0.001018	20.754959
164.055317	-3.007700	3.807900	-11.450000	22.143936	0.001018	20.761615
165.056637	-3.015400	3.807900	-11.481000	22.154551	0.001020	20.734310
166.053726	-3.001800	3.808100	-11.430000	22.146346	0.001019	20.764028
167.054475	-3.003300	3.807600	-11.435000	22.167553	0.001017	20.744482
168.056675	-3.019100	3.807500	-11.495000	22.200721	0.001022	20.771528
169.054865	-3.019200	3.806900	-11.493000	22.184244	0.001019	20.748866
170.055129	-2.995200	3.807100	-11.402000	22.187423	0.001021	20.766274
171.057937	-2.999000	3.806100	-11.412000	22.188942	0.001021	20.740293
172.055752	-3.003900	3.806800	-11.433000	22.196691	0.001021	20.730033
173.058197	-2.983600	3.807800	-11.360000	22.208401	0.001024	20.756931
174.056071	-2.990200	3.807300	-11.384000	22.222731	0.001021	20.771753
175.055607	-2.988700	3.805900	-11.373000	22.212533	0.001021	20.740205
176.061053	-3.003100	3.804900	-11.425000	22.232072	0.001024	20.756450
177.056314	-3.006900	3.805600	-11.442000	22.223184	0.001024	20.735696
178.060038	-3.015500	3.804900	-11.472000	22.210453	0.001023	20.755667
179.058675	-2.991900	3.805100	-11.382000	22.193422	0.001025	20.741934
180.059413	-3.008000	3.802600	-11.437000	22.222703	0.001024	20.759398
181.059045	-2.994500	3.804900	-11.393000	22.196239	0.001026	20.750444
182.058513	-3.016600	3.804600	-11.476000	22.207248	0.001025	20.772372
183.060836	-2.985200	3.802800	-11.351000	22.206122	0.001025	20.748959
184.060189	-2.987100	3.804800	-11.364000	22.224124	0.001026	20.747069
185.059599	-3.019100	3.804300	-11.484000	22.226478	0.001025	20.749901
186.058241	-2.994900	3.803500	-11.389000	22.228902	0.001028	20.726722
187.059433	-3.010300	3.801700	-11.444000	22.256485	0.001028	20.731106
188.063247	-3.004800	3.802000	-11.423000	22.292702	0.001029	20.756940
189.059969	-2.985000	3.803000	-11.351000	22.290783	0.001028	20.742216
190.059254	-2.987200	3.801200	-11.354000	22.273704	0.001029	20.738865
191.062771	-2.996500	3.801600	-11.391000	22.287707	0.001031	20.731075
192.060699	-2.999600	3.802200	-11.404000	22.287535	0.001031	20.740860
193.062487	-3.019000	3.801100	-11.475000	22.307995	0.001031	20.733846
194.063446	-3.017400	3.799900	-11.464000	22.310307	0.001031	20.754179
195.061428	-2.997900	3.801000	-11.395000	22.312152	0.001031	20.738482
196.061473	-3.003400	3.800100	-11.412000	22.332759	0.001031	20.736832
197.062666	-2.979600	3.800000	-11.321000	22.366828	0.001032	20.729694
198.064580	-2.998200	3.800900	-11.395000	22.395360	0.001034	20.740249
199.062458	-3.019100	3.799500	-11.469000	22.393947	0.001033	20.748791
200.068012	-3.021800	3.798700	-11.478000	22.405875	0.001035	20.745090
201.063458	-2.993800	3.798700	-11.371000	22.415622	0.001034	20.743470
202.064122	-3.011200	3.797700	-11.435000	22.407019	0.001034	20.747657
203.068383	-3.005000	3.798900	-11.415000	22.416169	0.001036	20.750182
204.063702	-3.012400	3.797000	-11.436000	22.428719	0.001037	20.742835
205.064512	-3.023400	3.796100	-11.476000	22.448457	0.001034	20.748852
206.066615	-3.004100	3.797900	-11.408000	22.448611	0.001037	20.737152
207.064741	-2.987800	3.798000	-11.347000	22.432808	0.001035	20.716109
208.065113	-2.984300	3.797200	-11.331000	22.459870	0.001037	20.741314
209.066750	-2.993700	3.797600	-11.367000	22.472457	0.001039	20.709821
210.068320	-2.990900	3.799100	-11.362000	22.469960	0.001039	20.730556
211.066717	-3.013700	3.796100	-11.439000	22.467943	0.001040	20.729958
212.075325	-2.998600	3.797300	-11.386000	22.488695	0.001039	20.714704
213.068819	-2.990100	3.798500	-11.357000	22.489894	0.001039	20.706895
214.067164	-2.979400	3.797200	-11.312000	22.489870	0.001041	20.738167
215.076610	-2.995400	3.794700	-11.366000	22.497536	0.001041	20.733043
216.068624	-3.007100	3.795600	-11.413000	22.503723	0.001043	20.712684
217.067541	-2.990900	3.795900	-11.351000	22.500728	0.001043	20.720591
218.072542	-3.013400	3.794300	-11.432000	22.512638	0.001042	20.721613
219.068922	-2.995200	3.795500	-11.367000	22.495397	0.001043	20.710510
220.072405	-2.990400	3.795300	-11.348000	22.514605	0.001043	20.719316
221.078247	-3.008100	3.793400	-11.410000	22.506809	0.001044	20.720043
222.073518	-2.998800	3.793500	-11.375000	22.488860	0.001043	20.712024
223.075162	-2.999900	3.794500	-11.382000	22.489709	0.001047	20.711926
224.079196	-2.982500	3.794100	-11.314000	22.507995	0.001045	20.716015
225.074105	-3.007000	3.793300	-11.404000	22.492304	0.001047	20.710257
226.073430	-3.017400	3.793300	-11.444000	22.490852	0.001047	20.708329
227.084942	-3.007600	3.791900	-11.404000	22.509341	0.001047	20.726373
228.072529	-3.021700	3.791300	-11.454000	22.510344	0.001048	20.695132
229.074307	-2.985900	3.792700	-11.323000	22.532540	0.001047	20.715467
230.078092	-3.018900	3.791100	-11.444000	22.545624	0.001050	20.716243
231.078624	-3.021300	3.790100	-11.450000	22.543485	0.001048	20.694658
232.075870	-3.007900	3.789900	-11.398000	22.565957	0.001049	20.713373
233.083649	-3.013100	3.791900	-11.424000	22.558578	0.001052	20.720208
234.084136	-3.026100	3.791500	-11.472000	22.584125	0.001052	20.700749
235.082412	-3.005800	3.791200	-11.395000	22.579637	0.001050	20.709056
236.078123	-2.987100	3.790400	-11.321000	22.604205	0.001051	20.731768
237.082060	-2.994900	3.791100	-11.353000	22.593969	0.001051	20.696383
238.084126	-2.996300	3.790900	-11.357000	22.606505	0.001050	20.709414
239.078728	-3.011300	3.789900	-11.412000	22.646116	0.001052	20.707837
240.088490	-2.986100	3.789500	-11.315000	22.669736	0.001051	20.713478
241.085459	-2.995900	3.788400	-11.347000	22.673604	0.001052	20.696962
242.083911	-2.983400	3.789400	-11.304000	22.682801	0.001055	20.713762
243.085768	-3.009600	3.788700	-11.402000	22.669799	0.001055	20.725395
244.084534	-3.017100	3.788600	-11.430000	22.666436	0.001054	20.696421
245.084021	-2.964600	3.789800	-11.233000	22.663522	0.001055	20.722902
246.086092	-2.972800	3.789200	-11.264000	22.666769	0.001054	20.699599
247.089847	-2.997700	3.788500	-11.355000	22.652960	0.001057	20.734134
248.082893	-2.988500	3.787600	-11.318000	22.672197	0.001056	20.708830
249.086235	-3.011300	3.788200	-11.406000	22.668515	0.001057	20.716522
250.089809	-3.003900	3.786100	-11.372000	22.649309	0.001059	20.711984
251.086450	-2.977800	3.788000	-11.279000	22.664188	0.001057	20.707446
252.091459	-2.987900	3.787800	-11.316000	22.653528	0.001059	20.706726
253.090593	-2.983800	3.787000	-11.298000	22.663665	0.001060	20.697439
254.089446	-3.022300	3.785200	-11.439000	22.690956	0.001060	20.713870
255.088261	-2.995400	3.786600	-11.342000	22.698590	0.001060	20.708240
256.090438	-3.005200	3.785700	-11.375000	22.696187	0.001060	20.706307
257.089438	-3.016600	3.783800	-11.412000	22.709441	0.001062	20.706782
258.092062	-2.980900	3.784200	-11.280000	22.708716	0.001062	20.719806
259.091733	-3.009500	3.783900	-11.386000	22.698284	0.001061	20.694182
260.090148	-3.000900	3.785200	-11.357000	22.714052	0.001062	20.722781
261.088913	-2.978700	3.783700	-11.268000	22.734063	0.001062	20.686398
262.091431	-2.995200	3.783400	-11.331000	22.738323	0.001063	20.688295
263.090588	-3.010300	3.782700	-11.386000	22.733067	0.001064	20.700101
264.092543	-3.002400	3.784100	-11.361000	22.745724	0.001066	20.696184
265.092746	-2.987200	3.783800	-11.301000	22.726895	0.001065	20.720947
266.088707	-3.000800	3.781400	-11.345000	22.740297	0.001066	20.697385
267.092782	-3.013700	3.782400	-11.397000	22.714939	0.001067	20.704227
268.093975	-3.016700	3.782500	-11.410000	22.749616	0.001067	20.695341
269.089831	-3.006900	3.781100	-11.368000	22.751344	0.001068	20.704659
270.091447	-2.996900	3.781400	-11.332000	22.763381	0.001067	20.700595
271.093541	-3.003300	3.781700	-11.356000	22.770555	0.001069	20.726749
272.090884	-3.007600	3.779800	-11.367000	22.803681	0.001068	20.698291
273.093814	-2.981100	3.781200	-11.271000	22.803712	0.001068	20.707806
274.096022	-2.971500	3.781700	-11.235000	22.802089	0.001070	20.710448
275.090014	-2.997300	3.778900	-11.325000	22.800848	0.001070	20.714895
276.094205	-3.000300	3.779500	-11.338000	22.828504	0.001071	20.701347
277.097946	-2.984000	3.779800	-11.278000	22.817740	0.001071	20.694831
278.107733	-2.961600	3.780500	-11.196000	22.810844	0.001073	20.694086
279.094021	-2.964600	3.780900	-11.208000	22.825394	0.001071	20.700128
280.096100	-2.990500	3.780100	-11.303000	22.839814	0.001073	20.713152
281.093745	-2.979700	3.780800	-11.265000	22.846188	0.001073	20.687293
282.096061	-3.017500	3.778300	-11.399000	22.852968	0.001072	20.707838
283.096684	-3.034500	3.775900	-11.456000	22.878077	0.001074	20.719717
284.092959	-2.997600	3.777800	-11.322000	22.908620	0.001073	20.708115
285.099620	-2.996900	3.777800	-11.321000	22.925338	0.001072	20.715382
286.100932	-3.014000	3.777900	-11.385000	22.916241	0.001075	20.723338
287.095623	-2.997900	3.778700	-11.327000	22.929892	0.001076	20.701926
288.096292	-2.988900	3.776900	-11.289000	22.948283	0.001075	20.698540
289.098612	-3.011200	3.774400	-11.365000	22.946832	0.001076	20.703724
290.095460	-3.006100	3.775900	-11.348000	22.967459	0.001077	20.719650
291.099013	-2.973500	3.777400	-11.231000	22.996130	0.001079	20.712815
292.099531	-3.003000	3.774800	-11.335000	22.983612	0.001078	20.719239
293.096130	-2.989700	3.775400	-11.285000	23.025078	0.001077	20.715266
294.101525	-3.009300	3.774500	-11.357000	23.020198	0.001078	20.707057
295.099645	-2.990700	3.773100	-11.282000	23.038328	0.001080	20.715740
296.098175	-3.011300	3.773800	-11.363000	23.053177	0.001079	20.724929
297.102661	-3.001700	3.773800	-11.327000	23.057761	0.001081	20.705340
298.102119	-2.994900	3.773400	-11.300000	23.057190	0.001079	20.706664
299.098306	-2.999600	3.774200	-11.319000	23.059808	0.001080	20.710710
300.103028	-2.994700	3.772900	-11.297000	23.063987	0.001080	20.715845
301.104584	-3.014400	3.771800	-11.368000	23.061750	0.001081	20.694163
302.100195	-2.982800	3.774000	-11.256000	23.065813	0.001083	20.699656
303.102893	-2.995800	3.773200	-11.303000	23.049976	0.001082	20.709393
304.105655	-2.995100	3.772200	-11.298000	23.042828	0.001081	20.699860
305.101326	-3.016400	3.770400	-11.373000	23.033364	0.001082	20.721672
306.104414	-3.030500	3.771100	-11.427000	23.032147	0.001083	20.716660
307.105510	-2.993300	3.772100	-11.290000	23.030360	0.001085	20.714868
308.102796	-2.998600	3.769900	-11.302000	23.037612	0.001085	20.714074
309.105370	-2.986400	3.771100	-11.260000	23.017417	0.001084	20.715651
310.105065	-2.976900	3.771300	-11.225000	23.037409	0.001085	20.724777
311.118522	-3.009300	3.768100	-11.338000	23.016348	0.001087	20.706993
312.103878	-3.008600	3.769600	-11.340000	23.026531	0.001086	20.713878
313.103891	-3.015900	3.770100	-11.369000	23.029851	0.001086	20.700607
314.102179	-2.996800	3.769100	-11.294000	23.010873	0.001086	20.718103
315.106243	-2.981200	3.769900	-11.238000	23.032690	0.001087	20.710091
316.104725	-3.009800	3.768400	-11.341000	23.074431	0.001087	20.721096
317.103409	-2.995600	3.768800	-11.290000	23.060168	0.001088	20.720080
318.106328	-3.012500	3.767700	-11.350000	23.083355	0.001088	20.726719
319.107793	-3.010000	3.767900	-11.340000	23.089482	0.001089	20.713417
320.104846	-3.002000	3.767300	-11.308000	23.129311	0.001088	20.729620
321.104911	-3.010500	3.767400	-11.341000	23.138466	0.001089	20.716034
322.108324	-2.984000	3.766600	-11.238000	23.115263	0.001091	20.707955
323.102845	-3.002900	3.766100	-11.306000	23.124057	0.001090	20.719613
324.106287	-3.004800	3.766500	-11.316000	23.110790	0.001090	20.725285
325.107677	-3.003300	3.765900	-11.309000	23.101572	0.001091	20.712254
326.104093	-3.026900	3.764400	-11.394000	23.123573	0.001090	20.728137
327.104833	-2.995200	3.765000	-11.276000	23.129472	0.001092	20.725514
328.106112	-3.002000	3.764300	-11.300000	23.125466	0.001091	20.719602
329.109263	-2.992300	3.765400	-11.266000	23.147631	0.001092	20.724744
330.107450	-3.021600	3.764100	-11.372000	23.179986	0.001093	20.716862
331.106099	-2.990500	3.763500	-11.254000	23.191268	0.001093	20.717263
332.104903	-2.996500	3.764300	-11.278000	23.186438	0.001093	20.715267
333.107721	-2.989700	3.763000	-11.249000	23.182537	0.001092	20.720367
334.107758	-3.004800	3.764000	-11.309000	23.185818	0.001095	20.722707
335.105289	-2.997400	3.762200	-11.276000	23.188264	0.001094	20.710459
336.106862	-3.008200	3.762600	-11.315000	23.212493	0.001095	20.721463
337.108765	-3.009100	3.761400	-11.317000	23.203307	0.001095	20.726008
338.107512	-3.000900	3.761800	-11.288000	23.221864	0.001096	20.732752
339.109609	-2.970600	3.763100	-11.177000	23.246345	0.001096	20.735474
340.109977	-3.003600	3.761400	-11.296000	23.255734	0.001098	20.717856
341.109900	-2.998200	3.761000	-11.275000	23.277873	0.001095	20.733405
342.111260	-2.980600	3.762600	-11.214000	23.295034	0.001100	20.729268
343.112037	-2.997600	3.760400	-11.270000	23.324546	0.001097	20.726601
344.112119	-2.992500	3.758800	-11.248000	23.323845	0.001098	20.723054
345.112150	-3.007400	3.759400	-11.304000	23.308737	0.001098	20.728776
346.112254	-2.995900	3.760400	-11.265000	23.292823	0.001098	20.718990
347.113857	-3.014900	3.760000	-11.334000	23.305450	0.001098	20.731171
348.115781	-2.991900	3.760300	-11.249000	23.306550	0.001098	20.724213
349.115678	-2.992400	3.759500	-11.249000	23.334347	0.001100	20.730735
350.114930	-2.986600	3.758800	-11.225000	23.322740	0.001101	20.731905
351.116862	-3.006400	3.758200	-11.298000	23.350979	0.001099	20.736025
352.117913	-2.990300	3.757600	-11.234000	23.321303	0.001100	20.746587
353.115503	-2.990800	3.757800	-11.238000	23.317445	0.001101	20.745565
354.115904	-2.994600	3.757300	-11.251000	23.304180	0.001102	20.721364
355.116989	-3.002200	3.756400	-11.277000	23.311375	0.001103	20.736636
356.114347	-3.006300	3.756300	-11.292000	23.312795	0.001102	20.750387
357.117650	-2.998200	3.756400	-11.262000	23.306823	0.001103	20.741557
358.114649	-3.014800	3.756000	-11.323000	23.308691	0.001101	20.739161
359.115470	-2.992100	3.756700	-11.240000	23.373708	0.001104	20.739839
360.115905	-2.993800	3.754400	-11.238000	23.342165	0.001103	20.739045
361.115085	-3.003400	3.755900	-11.280000	23.360044	0.001105	20.751275
362.116788	-3.015400	3.753800	-11.318000	23.375232	0.001103	20.757489
363.118235	-2.997400	3.754300	-11.252000	23.396730	0.001104	20.738258
364.118500	-3.009800	3.753500	-11.296000	23.392417	0.001105	20.726822
365.118860	-2.999000	3.755000	-11.260000	23.410025	0.001104	20.743998
366.119377	-2.966700	3.753400	-11.134000	23.428524	0.001107	20.744995
367.120462	-3.020100	3.753100	-11.334000	23.443539	0.001105	20.738708
368.118923	-2.984600	3.752400	-11.198000	23.437413	0.001106	20.748216
369.120208	-2.984800	3.753100	-11.201000	23.423131	0.001107	20.739589
370.119853	-2.989100	3.752900	-11.216000	23.431050	0.001105	20.740415
371.120498	-3.042000	3.749600	-11.405000	23.444516	0.001107	20.725936
372.122304	-3.008000	3.752400	-11.285000	23.440339	0.001106	20.738346
373.122102	-3.015700	3.749700	-11.305000	23.453739	0.001107	20.730913
374.127234	-3.003000	3.750800	-11.262000	23.478564	0.001107	20.731616
375.124785	-2.991500	3.749400	-11.214000	23.479111	0.001107	20.744967
376.123982	-3.003800	3.750700	-11.265000	23.527962	0.001108	20.736087
377.122841	-3.003700	3.748700	-11.259000	23.506977	0.001107	20.759149
378.126229	-2.989800	3.750200	-11.211000	23.522661	0.001108	20.748317
379.124769	-2.978700	3.749700	-11.168000	23.474713	0.001109	20.765689
380.124999	-2.990700	3.749900	-11.214000	23.466808	0.001111	20.741644
381.127006	-3.009900	3.748200	-11.280000	23.446664	0.001109	20.746582
382.127415	-2.983700	3.749400	-11.185000	23.416167	0.001110	20.751577
383.127216	-3.032100	3.747800	-11.362000	23.415442	0.001112	20.756540
384.126826	-3.009100	3.747200	-11.274000	23.429241	0.001111	20.757095
385.127440	-3.012300	3.748900	-11.291000	23.420653	0.001112	20.759866
386.126324	-2.976900	3.748700	-11.158000	23.450308	0.001110	20.745493
387.128465	-3.020000	3.746400	-11.313000	23.518571	0.001111	20.758443
388.126606	-3.011900	3.745100	-11.279000	23.524265	0.001112	20.738546
389.126627	-2.992000	3.746800	-11.209000	23.548298	0.001113	20.752205
390.126165	-3.013300	3.745500	-11.286000	23.563409	0.001111	20.765457
391.127501	-2.994600	3.745000	-11.214000	23.573735	0.001113	20.747832
392.129713	-2.996600	3.745300	-11.221000	23.581880	0.001111	20.760740
393.129228	-3.008400	3.744700	-11.265000	23.601918	0.001112	20.748584
394.130105	-2.991800	3.745500	-11.205000	23.572978	0.001114	20.760351
395.130347	-2.999700	3.744200	-11.229000	23.585682	0.001113	20.758387
396.131278	-2.996700	3.745100	-11.221000	23.631014	0.001114	20.767323
397.130817	-3.013600	3.742500	-11.278000	23.633747	0.001114	20.765321
398.128813	-3.006600	3.742400	-11.251000	23.642506	0.001113	20.751816
399.130548	-2.988300	3.742600	-11.184000	23.637009	0.001113	20.753891
400.132081	-3.007600	3.741900	-11.252000	23.663894	0.001113	20.774207
401.132195	-3.005100	3.741400	-11.243000	23.666756	0.001115	20.774706
402.132555	-2.996500	3.742500	-11.213000	23.666651	0.001114	20.788351
403.134242	-3.005800	3.742100	-11.246000	23.680759	0.001115	20.768355
404.133119	-3.009000	3.742200	-11.259000	23.678401	0.001115	20.771207
405.134964	-2.985800	3.740700	-11.167000	23.676159	0.001115	20.764218
406.135129	-2.974400	3.742500	-11.131000	23.688775	0.001115	20.767382
407.136620	-2.986300	3.742300	-11.174000	23.717176	0.001116	20.750811
408.136924	-3.009200	3.740200	-11.254000	23.711231	0.001115	20.784681
409.135739	-3.002700	3.739900	-11.228000	23.682006	0.001117	20.789520
410.135709	-2.994300	3.739700	-11.196000	23.707423	0.001117	20.781337
411.136965	-3.027800	3.738600	-11.317000	23.696139	0.001116	20.772395
412.139764	-2.983600	3.740000	-11.158000	23.740896	0.001115	20.784551
413.141081	-3.004000	3.738900	-11.231000	23.731511	0.001116	20.773245
414.140049	-3.001700	3.739500	-11.224000	23.736566	0.001116	20.798227
415.141020	-3.009900	3.737200	-11.247000	23.733851	0.001116	20.764211
416.139829	-3.008700	3.736500	-11.240000	23.719540	0.001117	20.774045
417.140763	-2.988600	3.738000	-11.170000	23.743561	0.001118	20.780585
418.143817	-3.006000	3.736500	-11.231000	23.758001	0.001116	20.785106
419.141098	-2.998500	3.736400	-11.203000	23.758450	0.001118	20.771330
420.140662	-3.002900	3.736400	-11.218000	23.757798	0.001119	20.783954
421.142434	-3.008900	3.737000	-11.243000	23.784330	0.001118	20.770252
422.146383	-3.000400	3.735300	-11.206000	23.789858	0.001118	20.792390
423.140196	-2.994000	3.735100	-11.182000	23.789311	0.001119	20.786626
424.143121	-3.024800	3.733800	-11.293000	23.784435	0.001117	20.783160
425.145370	-3.004600	3.735000	-11.220000	23.743120	0.001119	20.800531
426.141444	-3.001600	3.733900	-11.207000	23.768959	0.001120	20.788979
427.144286	-3.001000	3.734300	-11.205000	23.784754	0.001118	20.762142
428.147239	-2.995600	3.734300	-11.186000	23.787574	0.001119	20.777772
429.141586	-3.004400	3.734000	-11.217000	23.773362	0.001118	20.782489
430.142240	-2.986600	3.733500	-11.149000	23.772343	0.001119	20.798536
431.145395	-3.018100	3.732100	-11.262000	23.749692	0.001119	20.797163
432.141829	-3.008800	3.732700	-11.230000	23.757486	0.001119	20.796443
433.144197	-3.005100	3.732100	-11.214000	23.798555	0.001119	20.793524
434.146709	-2.988200	3.731700	-11.150000	23.801589	0.001120	20.797988
435.143999	-2.965500	3.733500	-11.070000	23.827150	0.001120	20.792797
436.146362	-3.003000	3.732100	-11.205000	23.852839	0.001121	20.790581
437.145194	-2.992600	3.730600	-11.163000	23.867327	0.001120	20.803211
438.144934	-2.981600	3.731900	-11.125000	23.857249	0.001121	20.784097
439.147166	-2.979700	3.731500	-11.118000	23.875537	0.001119	20.789159
440.149376	-2.996500	3.730400	-11.177000	23.881407	0.001122	20.804528
441.145704	-3.007600	3.729400	-11.215000	23.868696	0.001122	20.800317
442.146108	-3.007600	3.729700	-11.216000	23.883036	0.001121	20.802842
443.149144	-2.992300	3.729700	-11.159000	23.860437	0.001120	20.817639
444.147485	-2.996600	3.728900	-11.172000	23.864065	0.001124	20.807053
445.147716	-3.001300	3.728200	-11.188000	23.867032	0.001122	20.786795
446.148742	-3.003900	3.727500	-11.195000	23.889281	0.001122	20.810527
447.147546	-3.011100	3.728200	-11.225000	23.870563	0.001121	20.809301
448.149499	-2.979600	3.729100	-11.109000	23.901274	0.001122	20.813544
449.148250	-3.017600	3.727600	-11.246000	23.928307	0.001122	20.799874
450.148489	-3.012400	3.727500	-11.227000	23.950426	0.001124	20.795502
451.151104	-2.993700	3.726400	-11.154000	23.952047	0.001123	20.826999
452.149187	-2.986100	3.726200	-11.126000	23.981166	0.001123	20.795034
453.149802	-3.003700	3.726500	-11.192000	23.981614	0.001122	20.810657
454.152184	-3.000700	3.725500	-11.178000	24.004309	0.001120	20.828200
455.152522	-2.983500	3.725000	-11.112000	23.995799	0.001124	20.797381
456.152213	-3.012300	3.724300	-11.218000	23.973675	0.001122	20.797005
457.155930	-2.989100	3.725200	-11.134000	23.938888	0.001123	20.803847
458.150824	-2.990500	3.724600	-11.137000	23.952079	0.001123	20.803323
459.151309	-2.994800	3.723500	-11.150000	23.960467	0.001123	20.820270
460.155436	-2.988000	3.722700	-11.121000	23.988363	0.001123	20.805571
461.153523	-2.982600	3.722700	-11.102000	24.005556	0.001124	20.809062
462.154733	-2.964500	3.723700	-11.037000	23.991183	0.001124	20.820252
463.157136	-3.019000	3.721500	-11.234000	23.978042	0.001124	20.817505
464.156109	-2.999700	3.722800	-11.167000	23.980234	0.001124	20.831083
465.158077	-3.009100	3.722600	-11.200000	23.963157	0.001123	20.821070
466.158316	-3.009500	3.721400	-11.198000	23.961917	0.001123	20.808447
467.155898	-2.994500	3.720900	-11.141000	23.974529	0.001123	20.809715
468.157821	-3.015100	3.721200	-11.218000	24.000198	0.001123	20.835930
469.159245	-3.014600	3.720200	-11.213000	23.964312	0.001125	20.829816
470.157660	-3.022500	3.719900	-11.242000	23.959854	0.001124	20.830560
471.157342	-3.016600	3.719500	-11.219000	23.940100	0.001123	20.808855
472.159099	-2.960200	3.721800	-11.016000	23.967850	0.001125	20.833837
473.160003	-3.002600	3.719000	-11.166000	23.990888	0.001123	20.803362
474.162385	-3.003900	3.718900	-11.170000	24.002211	0.001125	20.824674
475.164422	-3.008600	3.718300	-11.185000	24.033644	0.001124	20.818738
476.159295	-2.982600	3.719100	-11.092000	24.037777	0.001126	20.844219
477.159975	-2.995100	3.718400	-11.135000	24.034663	0.001125	20.834933
478.163379	-3.007000	3.718800	-11.182000	24.024391	0.001125	20.851183
479.160481	-2.990500	3.718100	-11.117000	24.047393	0.001123	20.827785
480.160850	-2.994300	3.718300	-11.132000	24.042340	0.001125	20.824614
481.163059	-2.998100	3.717100	-11.143000	24.050549	0.001124	20.828579
482.161443	-3.028800	3.716200	-11.254000	24.086911	0.001126	20.830908
483.161299	-3.013500	3.716200	-11.197000	24.096317	0.001125	20.844134
484.164566	-2.972000	3.716000	-11.043000	24.110647	0.001125	20.827687
485.162461	-2.998400	3.714300	-11.135000	24.124210	0.001126	20.843660
486.162056	-2.981400	3.715000	-11.076000	24.137031	0.001124	20.828070
487.164819	-3.021700	3.714700	-11.223000	24.130910	0.001126	20.839948
488.162256	-2.996600	3.713700	-11.126000	24.109415	0.001125	20.840675
489.162297	-3.013800	3.713800	-11.191000	24.123769	0.001126	20.838950
490.165650	-2.985400	3.713900	-11.087000	24.108396	0.001125	20.835860
491.163373	-3.001500	3.713300	-11.145000	24.132034	0.001124	20.828273
492.162911	-3.011600	3.713900	-11.183000	24.114769	0.001125	20.826131
493.165554	-3.023600	3.710800	-11.218000	24.096846	0.001127	20.843242
494.164454	-2.988900	3.713200	-11.097000	24.081073	0.001123	20.822208
495.164653	-2.991000	3.712100	-11.101000	24.111453	0.001123	20.816641
496.166063	-3.011900	3.711800	-11.179000	24.119896	0.001125	20.836488
497.164261	-2.994900	3.711800	-11.115000	24.128927	0.001125	20.823262
498.164970	-2.979200	3.712700	-11.060000	24.134201	0.001126	20.830447
499.164560	-2.996200	3.709800	-11.114000	24.144031	0.001127	20.825134
500.164407	-3.006800	3.709600	-11.152000	24.117490	0.001125	20.844032
501.163974	-3.002300	3.710800	-11.139000	24.138432	0.001125	20.829949
502.164824	-2.979700	3.710200	-11.055000	24.154806	0.001124	20.807966
503.164086	-2.994000	3.709800	-11.106000	24.153615	0.001125	20.829531
504.164790	-2.993900	3.709700	-11.105000	24.172592	0.001125	20.813951
505.166969	-2.995200	3.708700	-11.108000	24.204117	0.001125	20.819493
506.164756	-2.991000	3.709600	-11.093000	24.200213	0.001124	20.803723
507.164260	-2.999500	3.707600	-11.119000	24.181612	0.001126	20.818731
508.166254	-2.984500	3.708700	-11.066000	24.175957	0.001123	20.801205
509.164075	-3.019400	3.706400	-11.189000	24.186928	0.001124	20.803200
510.164761	-3.003900	3.706200	-11.131000	24.173194	0.001123	20.784683
511.168901	-2.985600	3.707500	-11.068000	24.182428	0.001125	20.814808
512.166430	-3.003400	3.705200	-11.126000	24.177708	0.001126	20.808651
513.162899	-3.012000	3.705800	-11.161000	24.210571	0.001123	20.807000
514.168437	-3.012600	3.704500	-11.159000	24.185632	0.001124	20.812806
515.166937	-3.007700	3.704400	-11.140000	24.178303	0.001123	20.808774
516.165869	-3.004000	3.705400	-11.130000	24.156778	0.001124	20.785761
517.168206	-3.006700	3.703900	-11.135000	24.174840	0.001125	20.809093
518.164542	-2.975500	3.704800	-11.023000	24.175092	0.001124	20.800337
519.164757	-2.989300	3.705000	-11.074000	24.187285	0.001122	20.788859
520.164808	-2.963800	3.704500	-10.977000	24.214556	0.001122	20.805781
521.164477	-3.002700	3.704700	-11.123000	24.232225	0.001123	20.802167
522.173498	-2.996300	3.703100	-11.095000	24.205476	0.001124	20.790510
523.169305	-2.992600	3.702700	-11.080000	24.181840	0.001124	20.794777
524.166307	-2.999700	3.703900	-11.110000	24.174307	0.001124	20.805240
525.168510	-3.013000	3.701600	-11.152000	24.154477	0.001124	20.793411
526.168488	-2.991000	3.703100	-11.074000	24.180036	0.001124	20.802926
527.168840	-3.021400	3.701400	-11.182000	24.195685	0.001124	20.805346
528.172915	-3.019000	3.700700	-11.171000	24.172602	0.001123	20.790254
529.169621	-2.998800	3.700600	-11.097000	24.159040	0.001124	20.791349
530.170292	-2.993400	3.701500	-11.078000	24.165080	0.001123	20.793615
531.169647	-2.978200	3.701900	-11.023000	24.150684	0.001123	20.787711
532.170403	-3.005900	3.699300	-11.118000	24.192058	0.001126	20.776103
533.170562	-2.974100	3.701100	-11.006000	24.162625	0.001124	20.779299
534.171348	-2.986000	3.698600	-11.043000	24.157271	0.001126	20.787679
535.170700	-2.996500	3.698500	-11.081000	24.156154	0.001122	20.773282
536.171803	-2.979500	3.700700	-11.025000	24.140855	0.001122	20.784490
537.171984	-2.979900	3.698600	-11.020000	24.140130	0.001125	20.770486
538.170685	-2.985800	3.699400	-11.043000	24.110948	0.001125	20.774410
539.171101	-2.977000	3.699100	-11.011000	24.098135	0.001123	20.785740
540.170881	-2.992900	3.696900	-11.063000	24.090970	0.001125	20.803684
541.172629	-2.987900	3.697800	-11.047000	24.084326	0.001122	20.780900
542.172194	-2.987200	3.697400	-11.045000	24.097606	0.001124	20.779046
543.172000	-2.984300	3.696700	-11.031000	24.109302	0.001123	20.767069
544.177761	-3.011300	3.695900	-11.127000	24.172830	0.001123	20.768196
545.173920	-2.996400	3.696200	-11.074000	24.190940	0.001122	20.793474
546.178090	-3.003700	3.694100	-11.094000	24.200395	0.001123	20.770240
547.174704	-2.988900	3.696200	-11.047000	24.254978	0.001122	20.780893
548.178916	-2.999500	3.695300	-11.083000	24.276907	0.001122	20.766380
549.177574	-2.994700	3.695200	-11.066000	24.283175	0.001123	20.781677
550.174241	-2.995900	3.693500	-11.064000	24.304113	0.001122	20.765696
551.178202	-2.998300	3.692900	-11.072000	24.293763	0.001123	20.771909
552.176461	-2.987900	3.693300	-11.034000	24.286298	0.001122	20.757308
553.172413	-2.986900	3.692900	-11.030000	24.319834	0.001120	20.782888
554.177646	-3.009100	3.691700	-11.108000	24.305149	0.001122	20.776693
555.178737	-2.993800	3.692000	-11.052000	24.311847	0.001122	20.785308
556.176136	-2.983700	3.692800	-11.017000	24.305303	0.001121	20.766416
557.177684	-3.000500	3.693500	-11.081000	24.316893	0.001120	20.768084
558.178385	-2.979600	3.691700	-10.999000	24.321269	0.001122	20.779113
559.173414	-3.003200	3.690700	-11.083000	24.360556	0.001122	20.752141
560.176991	-3.007500	3.691100	-11.100000	24.360206	0.001123	20.754635
561.177420	-2.993300	3.691400	-11.048000	24.370948	0.001122	20.756876
562.172112	-3.003200	3.690900	-11.083000	24.379333	0.001121	20.768133
563.176191	-2.995700	3.690800	-11.055000	24.413787	0.001119	20.774248
564.181079	-3.017200	3.688400	-11.128000	24.421846	0.001123	20.752461
565.175659	-3.002600	3.689200	-11.076000	24.432513	0.001121	20.756999
566.179424	-3.004500	3.688900	-11.083000	24.417267	0.001119	20.773472
567.181252	-2.999500	3.689600	-11.065000	24.398190	0.001122	20.782783
568.177643	-3.025200	3.687800	-11.154000	24.365619	0.001120	20.771919
569.177883	-3.014400	3.686100	-11.110000	24.363508	0.001123	20.781656
570.176664	-2.996400	3.687100	-11.047000	24.380972	0.001120	20.748913
571.176322	-2.996600	3.686400	-11.044000	24.367492	0.001120	20.741555
572.178030	-3.015300	3.686000	-11.114000	24.399730	0.001121	20.771526
573.177140	-2.978900	3.686800	-10.981000	24.379879	0.001120	20.761569
574.174977	-2.967100	3.686500	-10.937000	24.389063	0.001119	20.763669
575.177502	-2.985000	3.685300	-11.000000	24.407895	0.001121	20.750318
576.177506	-2.973800	3.686800	-10.962000	24.399534	0.001118	20.752363
577.176734	-2.981800	3.686200	-10.990000	24.431925	0.001120	20.766366
578.183717	-3.000600	3.683900	-11.052000	24.408864	0.001118	20.747498
579.178003	-3.011800	3.683400	-11.093000	24.418391	0.001118	20.747098
580.178905	-2.975900	3.686400	-10.968000	24.389339	0.001119	20.760627
581.181912	-2.987200	3.684200	-11.005000	24.366781	0.001119	20.749377
582.178739	-3.015500	3.682200	-11.103000	24.346776	0.001119	20.750171
583.179560	-3.013800	3.683700	-11.100000	24.308913	0.001117	20.751070
584.182601	-3.009400	3.683400	-11.082000	24.285801	0.001119	20.736420
585.179572	-2.995000	3.681700	-11.026000	24.308938	0.001118	20.757733
586.178464	-3.011900	3.682700	-11.091000	24.297814	0.001118	20.759851
587.180992	-2.987500	3.681800	-10.998000	24.297569	0.001119	20.773356
588.179222	-2.996600	3.681400	-11.030000	24.299435	0.001118	20.745355
589.179840	-3.020300	3.680800	-11.115000	24.313038	0.001118	20.760898
590.183089	-3.017100	3.679900	-11.102000	24.281393	0.001118	20.769457
591.179019	-2.972300	3.680600	-10.938000	24.290080	0.001119	20.764421
592.184854	-3.006500	3.680800	-11.066000	24.304432	0.001117	20.760799
593.181777	-2.987900	3.679700	-10.994000	24.311767	0.001119	20.766735
594.178900	-2.987900	3.680100	-10.994000	24.327838	0.001117	20.738285
595.181837	-2.983600	3.678200	-10.974000	24.354485	0.001117	20.756957
596.181916	-2.983400	3.679500	-10.976000	24.349710	0.001118	20.749795
597.181750	-2.994600	3.678700	-11.015000	24.341594	0.001118	20.748766
598.181258	-3.013800	3.677900	-11.083000	24.379904	0.001116	20.759222
599.183755	-3.005500	3.677000	-11.050000	24.400308	0.001118	20.739862
600.181671	-2.992000	3.677300	-11.001000	24.436725	0.001116	20.737041
601.181117	-2.989700	3.677500	-10.993000	24.482341	0.001116	20.742977
602.186119	-2.996100	3.676700	-11.014000	24.473596	0.001116	20.746058
603.184496	-3.009700	3.677200	-11.066000	24.444759	0.001115	20.747948
604.184257	-3.016000	3.677300	-11.089000	24.432926	0.001115	20.760733
605.185595	-2.998000	3.676200	-11.020000	24.424738	0.001115	20.761526
606.185150	-3.019000	3.673900	-11.089000	24.432307	0.001117	20.750153
607.183107	-2.994100	3.675600	-11.005000	24.404243	0.001114	20.751397
608.185852	-3.010900	3.674100	-11.061000	24.403476	0.001114	20.743989
609.182613	-3.010600	3.673600	-11.058000	24.369299	0.001114	20.741945
610.185613	-2.979700	3.674300	-10.947000	24.399370	0.001113	20.747456
611.194612	-3.018900	3.672800	-11.086000	24.429993	0.001114	20.763479
612.190257	-3.011500	3.673600	-11.062000	24.442459	0.001114	20.748011
613.184794	-2.996600	3.672800	-11.003000	24.475752	0.001116	20.756282
614.187333	-2.985900	3.675500	-10.973000	24.469853	0.001115	20.728552
615.184331	-2.990100	3.672400	-10.981000	24.458038	0.001114	20.737561
616.185941	-3.010000	3.671300	-11.049000	24.452619	0.001114	20.738288
617.187336	-2.989100	3.672700	-10.977000	24.432328	0.001114	20.742113
618.185141	-3.018400	3.670400	-11.077000	24.441031	0.001113	20.742784
619.187149	-3.007600	3.672300	-11.044000	24.455265	0.001113	20.739995
620.187725	-3.017000	3.669600	-11.070000	24.487322	0.001111	20.729008
621.187253	-2.999100	3.670400	-11.007000	24.519767	0.001110	20.749707
622.187627	-3.007900	3.670000	-11.038000	24.524573	0.001112	20.728450
623.188440	-3.011700	3.669500	-11.051000	24.546728	0.001111	20.738352
624.189258	-3.001100	3.669400	-11.011000	24.573672	0.001111	20.722711
625.187558	-2.988800	3.669900	-10.968000	24.557555	0.001111	20.745896
626.189151	-2.993200	3.670800	-10.985000	24.563895	0.001112	20.746567
627.189488	-3.002900	3.668100	-11.014000	24.576367	0.001112	20.726838
628.188495	-2.996900	3.668100	-10.993000	24.569874	0.001112	20.728857
629.189764	-2.997500	3.668700	-10.996000	24.541765	0.001113	20.731000
630.190984	-3.008000	3.667700	-11.032000	24.534112	0.001112	20.729960
631.190015	-3.008100	3.665800	-11.026000	24.521524	0.001110	20.733452
632.189269	-2.983700	3.668100	-10.943000	24.503744	0.001109	20.727941
633.192024	-2.992500	3.667800	-10.975000	24.505635	0.001112	20.719405
634.191308	-2.984100	3.667100	-10.942000	24.500779	0.001110	20.724491
635.188977	-2.975400	3.668800	-10.914000	24.527104	0.001109	20.730515
636.190939	-2.990400	3.666400	-10.962000	24.503475	0.001109	20.732412
637.190077	-2.984800	3.665400	-10.940000	24.497698	0.001109	20.725668
638.189460	-3.013500	3.663200	-11.038000	24.493998	0.001109	20.723378
639.190595	-2.998300	3.664400	-10.986000	24.513522	0.001109	20.718309
640.190312	-2.982600	3.665200	-10.931000	24.493851	0.001111	20.713273
641.191168	-2.991600	3.665000	-10.963000	24.499676	0.001109	20.717695
642.193725	-2.996800	3.663600	-10.977000	24.493883	0.001109	20.714253
643.191973	-2.983700	3.663900	-10.930000	24.511050	0.001110	20.713459
644.191837	-3.004100	3.663700	-11.006000	24.495798	0.001107	20.717596
645.191769	-2.975200	3.664200	-10.900000	24.523257	0.001108	20.730449
646.193530	-3.001000	3.663600	-10.993000	24.535821	0.001108	20.720294
647.193596	-2.999300	3.663300	-10.986000	24.506513	0.001107	20.725503
648.193757	-3.001000	3.663900	-10.992000	24.509706	0.001108	20.724439
649.191450	-3.008900	3.662200	-11.018000	24.511719	0.001107	20.708914
650.192810	-3.016700	3.660700	-11.042000	24.513431	0.001107	20.715847
651.196188	-3.005500	3.662000	-11.005000	24.533458	0.001107	20.725510
652.192093	-2.998500	3.662100	-10.980000	24.524258	0.001107	20.723866
653.193259	-3.011300	3.660000	-11.020000	24.519907	0.001106	20.716655
654.193883	-3.013500	3.660800	-11.031000	24.550274	0.001107	20.722942
655.193899	-3.003300	3.660300	-10.992000	24.603975	0.001106	20.708545
656.196494	-2.997100	3.659400	-10.966000	24.624049	0.001105	20.716360
657.195091	-2.986400	3.660600	-10.930000	24.613874	0.001106	20.729384
658.193398	-2.986600	3.658400	-10.926000	24.604104	0.001104	20.723849
659.193510	-2.983800	3.658500	-10.915000	24.597912	0.001106	20.726170
660.194669	-2.973300	3.659300	-10.879000	24.621711	0.001106	20.710220
661.196699	-2.981700	3.659000	-10.908000	24.630763	0.001105	20.710294
662.194357	-2.968500	3.659400	-10.862000	24.653770	0.001104	20.722001
663.196229	-3.003900	3.657900	-10.987000	24.656255	0.001104	20.699837
664.194352	-2.985000	3.658800	-10.921000	24.634477	0.001104	20.721134
665.196096	-2.988900	3.656900	-10.929000	24.655391	0.001103	20.724576
666.195765	-3.003800	3.658400	-10.989000	24.662195	0.001104	20.711488
667.195704	-2.993500	3.655600	-10.942000	24.651260	0.001106	20.730863
668.198795	-3.000300	3.656400	-10.969000	24.628586	0.001103	20.705264
669.195710	-2.983000	3.656200	-10.905000	24.620553	0.001103	20.703842
670.198351	-2.982200	3.656600	-10.904000	24.630833	0.001102	20.694716
671.196404	-3.000300	3.655200	-10.966000	24.651551	0.001103	20.706971
672.197558	-3.016400	3.654200	-11.022000	24.642744	0.001104	20.719946
673.197566	-2.979600	3.654700	-10.889000	24.625065	0.001102	20.698885
674.196693	-2.988000	3.653700	-10.915000	24.582861	0.001103	20.696367
675.197885	-3.002500	3.652700	-10.966000	24.595270	0.001103	20.692696
676.201903	-2.985500	3.653700	-10.907000	24.654166	0.001099	20.703905
677.196462	-2.993800	3.652700	-10.934000	24.638628	0.001099	20.695426
678.198160	-2.987200	3.654900	-10.917000	24.645912	0.001101	20.706054
679.197146	-2.996800	3.652800	-10.945000	24.634676	0.001100	20.684347
680.198082	-3.019600	3.650400	-11.022000	24.661569	0.001103	20.705169
681.197865	-3.023100	3.649600	-11.032000	24.670491	0.001100	20.703216
682.197954	-3.010200	3.651600	-10.991000	24.680795	0.001100	20.691745
683.199018	-2.985400	3.652100	-10.902000	24.689447	0.001100	20.699953
684.199032	-2.998900	3.649900	-10.944000	24.691614	0.001097	20.689324
685.200161	-2.985400	3.651800	-10.901000	24.710318	0.001101	20.711415
686.198911	-3.002800	3.650700	-10.961000	24.716779	0.001099	20.714105
687.204179	-3.020400	3.648400	-11.018000	24.715939	0.001100	20.699511
688.203253	-3.014900	3.649600	-11.002000	24.698702	0.001100	20.696911
689.199413	-3.000000	3.649200	-10.946000	24.722782	0.001099	20.686462
690.202427	-3.007300	3.649600	-10.973000	24.718571	0.001099	20.688401
691.203010	-2.993200	3.648200	-10.919000	24.712453	0.001099	20.702651
692.201560	-3.022700	3.648100	-11.026000	24.726579	0.001095	20.672253
693.210166	-3.011300	3.649300	-10.988000	24.701274	0.001097	20.701864
694.209283	-3.001300	3.649100	-10.949000	24.696843	0.001098	20.709272
695.202362	-2.990000	3.648000	-10.906000	24.687890	0.001095	20.696494
696.206730	-3.013500	3.647300	-10.990000	24.711368	0.001096	20.679749
697.208233	-2.988100	3.648600	-10.901000	24.744118	0.001096	20.707874
698.203944	-2.990800	3.647700	-10.908000	24.738448	0.001097	20.682268
699.208304	-2.987500	3.647400	-10.896000	24.774374	0.001095	20.684182
700.209484	-3.016900	3.646100	-10.998000	24.827395	0.001095	20.686658
701.208181	-2.994800	3.645900	-10.917000	24.799601	0.001093	20.683894
702.207126	-2.989700	3.645800	-10.899000	24.801508	0.001096	20.700508
703.210035	-2.979100	3.646300	-10.862000	24.816007	0.001093	20.697041
704.207747	-2.992300	3.645800	-10.907000	24.827437	0.001094	20.690494
705.211758	-3.017300	3.644200	-10.995000	24.842010	0.001093	20.697533
706.209044	-3.004000	3.643900	-10.945000	24.851514	0.001094	20.687631
707.208282	-2.992600	3.645100	-10.907000	24.888830	0.001094	20.691892
708.211436	-2.999600	3.643400	-10.927000	24.897781	0.001093	20.683332
709.214302	-3.000500	3.644100	-10.933000	24.923740	0.001094	20.697533
710.210526	-3.005900	3.641700	-10.946000	24.914512	0.001092	20.689219
711.212565	-3.006800	3.641700	-10.948000	24.900021	0.001092	20.708341
712.213696	-3.011400	3.641500	-10.964000	24.865110	0.001092	20.710761
713.209006	-3.004500	3.642400	-10.941000	24.848624	0.001092	20.693265
714.212145	-2.992900	3.641900	-10.899000	24.827584	0.001092	20.697754
715.214837	-3.019100	3.641700	-10.992000	24.811724	0.001091	20.701278
716.211061	-3.030800	3.639700	-11.030000	24.823885	0.001092	20.694516
717.214016	-2.994000	3.641800	-10.903000	24.818835	0.001090	20.673324
718.212686	-3.022900	3.640100	-11.002000	24.847206	0.001091	20.689946
719.210478	-3.011500	3.639200	-10.959000	24.864540	0.001090	20.690747
720.214580	-2.994200	3.639500	-10.895000	24.873988	0.001091	20.695489
721.213817	-2.972100	3.641700	-10.822000	24.893218	0.001088	20.687287
722.211180	-2.992900	3.639600	-10.892000	24.847630	0.001090	20.688948
723.214830	-2.994700	3.639100	-10.897000	24.822842	0.001089	20.689201
724.215461	-2.996700	3.639000	-10.904000	24.799016	0.001088	20.696585
725.211211	-3.009800	3.638300	-10.949000	24.788524	0.001087	20.680364
726.213618	-2.998400	3.638200	-10.907000	24.816791	0.001088	20.676015
727.212586	-3.007300	3.637800	-10.938000	24.828113	0.001087	20.692120
728.212379	-2.997400	3.637300	-10.901000	24.847476	0.001087	20.693062
729.215945	-2.970800	3.639100	-10.810000	24.873012	0.001088	20.696406
730.213359	-2.983600	3.637000	-10.848000	24.884627	0.001087	20.679138
731.214135	-2.995800	3.637700	-10.897000	24.895941	0.001086	20.699504
732.219429	-3.022100	3.635500	-10.985000	24.888032	0.001086	20.705791
733.216703	-2.974700	3.636900	-10.818000	24.861674	0.001086	20.677912
734.216017	-2.999500	3.635400	-10.904000	24.900511	0.001086	20.684649
735.216227	-2.999200	3.635500	-10.903000	24.901505	0.001086	20.700347
736.214892	-2.980500	3.636000	-10.837000	24.914708	0.001084	20.698425
737.216148	-3.008800	3.635100	-10.935000	24.898229	0.001086	20.704646
738.214544	-2.991200	3.636300	-10.875000	24.887633	0.001086	20.695433
739.214163	-2.974400	3.635000	-10.811000	24.891633	0.001084	20.694706
740.213948	-2.998300	3.633700	-10.894000	24.897774	0.001084	20.705138
741.217081	-3.001700	3.633300	-10.905000	24.878307	0.001084	20.694133
742.216474	-2.969300	3.634700	-10.790000	24.868190	0.001082	20.686823
743.216781	-2.986600	3.634100	-10.852000	24.886688	0.001083	20.697329
744.217139	-2.969200	3.634900	-10.792000	24.930990	0.001082	20.692008
745.218511	-3.017000	3.633700	-10.961000	24.935543	0.001082	20.707484
746.216430	-2.985400	3.632900	-10.846000	24.949887	0.001082	20.685843
747.220433	-2.995400	3.632000	-10.878000	24.956728	0.001082	20.696978
748.216756	-2.997900	3.631700	-10.886000	24.935518	0.001084	20.696079
749.216722	-2.974900	3.631900	-10.803000	24.920020	0.001080	20.692851
750.226589	-2.996000	3.630400	-10.876000	24.902995	0.001082	20.698524
751.218209	-2.988800	3.631400	-10.852000	24.894418	0.001079	20.671895
752.219403	-2.995500	3.630000	-10.873000	24.849334	0.001081	20.723852
753.222002	-2.995200	3.630600	-10.872000	24.882055	0.001080	20.695050
754.220253	-2.994700	3.630200	-10.871000	24.900406	0.001080	20.720108
755.222413	-3.005900	3.629700	-10.910000	24.904584	0.001080	20.697747
756.221506	-3.028800	3.629500	-10.992000	24.875889	0.001079	20.705457
757.223232	-3.006300	3.627700	-10.904000	24.854352	0.001077	20.705180
758.226538	-3.004400	3.628200	-10.899000	24.851665	0.001078	20.705327
759.220188	-2.992900	3.629000	-10.860000	24.867630	0.001077	20.703806
760.222016	-3.019000	3.627800	-10.952000	24.883594	0.001077	20.694698
761.221394	-2.988000	3.629300	-10.843000	24.909277	0.001077	20.704829
762.221573	-3.000700	3.627600	-10.884000	24.932345	0.001077	20.718025
763.222490	-2.982200	3.627700	-10.817000	24.960118	0.001076	20.707495
764.222056	-2.986500	3.626300	-10.829000	24.960437	0.001076	20.683156
765.223335	-3.003500	3.627400	-10.894000	24.961374	0.001076	20.691685
766.222791	-3.010400	3.626700	-10.917000	24.925797	0.001077	20.718566
767.225411	-2.983300	3.628100	-10.822000	24.909483	0.001076	20.690810
768.223499	-2.998100	3.625000	-10.867000	24.935515	0.001076	20.717888
769.229521	-3.018500	3.625700	-10.942000	24.956350	0.001075	20.673837
770.226204	-3.005900	3.624300	-10.894000	24.978674	0.001074	20.704309
771.227133	-2.984800	3.624900	-10.817000	25.001968	0.001076	20.722475
772.225347	-3.009600	3.623400	-10.903000	25.004680	0.001073	20.715714
773.227682	-2.970200	3.625800	-10.767000	25.002986	0.001073	20.721127
774.232634	-2.966100	3.625000	-10.751000	25.013673	0.001074	20.706722
775.230072	-2.996800	3.622900	-10.855000	24.985844	0.001074	20.726206
776.230577	-3.017400	3.622900	-10.931000	25.003273	0.001071	20.727579
777.230064	-3.012600	3.622100	-10.910000	25.035003	0.001073	20.708218
778.230438	-3.009500	3.623900	-10.904000	25.058410	0.001071	20.692833
779.229886	-3.018600	3.621400	-10.930000	25.082556	0.001069	20.713754
780.232231	-3.016500	3.621400	-10.922000	25.074341	0.001072	20.717835
781.231813	-3.004100	3.621000	-10.877000	25.078274	0.001070	20.723206
782.230941	-3.013700	3.621600	-10.913000	25.115532	0.001070	20.718408
783.231072	-3.019500	3.620500	-10.932000	25.113178	0.001071	20.735485
784.231859	-3.019300	3.620900	-10.931000	25.121763	0.001069	20.711861
785.231318	-3.027000	3.619300	-10.955000	25.095148	0.001072	20.715963
786.231335	-3.000900	3.621200	-10.865000	25.061734	0.001071	20.725096
787.232790	-2.994700	3.619900	-10.840000	25.031350	0.001072	20.723044
788.231293	-3.001800	3.619700	-10.864000	25.020706	0.001071	20.716153
789.233129	-3.006900	3.620300	-10.884000	25.014050	0.001068	20.720852
790.232485	-3.008200	3.618100	-10.882000	24.972743	0.001068	20.707839
791.233480	-3.012800	3.618600	-10.902000	24.988650	0.001069	20.718590
792.233084	-3.006500	3.618300	-10.877000	24.995939	0.001067	20.697456
793.234354	-3.016800	3.618700	-10.916000	24.981166	0.001069	20.733838
794.239946	-3.003700	3.618300	-10.867000	24.993840	0.001068	20.724274
795.233440	-3.017200	3.617400	-10.913000	24.984766	0.001066	20.738875
796.234629	-2.998900	3.617900	-10.848000	24.971564	0.001068	20.722303
797.237293	-2.985300	3.617000	-10.797000	24.966368	0.001066	20.715190
798.234784	-3.007300	3.615700	-10.872000	24.952588	0.001065	20.742612
799.237090	-2.979900	3.616200	-10.775000	24.935501	0.001065	20.728780
800.243742	-2.982300	3.615800	-10.783000	24.908223	0.001067	20.720368
801.236467	-3.002500	3.614300	-10.851000	24.921157	0.001064	20.720073
802.236738	-3.009000	3.615800	-10.879000	24.951034	0.001064	20.729672
803.238986	-2.988700	3.616600	-10.808000	24.994991	0.001065	20.742026
804.234374	-2.992300	3.613800	-10.812000	25.027056	0.001065	20.737702
805.239997	-3.008800	3.614600	-10.874000	25.064520	0.001062	20.753971
806.239576	-3.002800	3.614700	-10.853000	25.087591	0.001063	20.758639
807.237533	-3.025500	3.611800	-10.925000	25.109588	0.001063	20.741839
808.239738	-2.985000	3.614400	-10.787000	25.142171	0.001063	20.738513
809.239982	-3.006400	3.612700	-10.860000	25.167228	0.001063	20.739012
810.238594	-3.004700	3.612200	-10.853000	25.175079	0.001061	20.725556
811.239323	-3.004400	3.611200	-10.849000	25.214997	0.001061	20.740501
812.240852	-2.987600	3.614000	-10.796000	25.206097	0.001061	20.736307
813.240036	-3.004700	3.611200	-10.850000	25.241192	0.001061	20.745939
814.242906	-3.004800	3.611700	-10.851000	25.249043	0.001061	20.766623
815.238940	-3.014400	3.609300	-10.878000	25.254035	0.001058	20.724692
816.239106	-3.024000	3.609700	-10.913000	25.218093	0.001059	20.741713
817.242894	-3.029100	3.609400	-10.930000	25.221773	0.001059	20.752521
818.240094	-3.021600	3.608700	-10.903000	25.240192	0.001058	20.740192
819.240717	-3.001200	3.610900	-10.835000	25.227440	0.001057	20.736399
820.252857	-3.011300	3.608700	-10.866000	25.211743	0.001057	20.731071
821.242249	-3.013500	3.608700	-10.873000	25.233671	0.001058	20.737439
822.241356	-3.001200	3.609200	-10.830000	25.244233	0.001056	20.730024
823.245537	-3.011800	3.608200	-10.867000	25.221539	0.001059	20.751811
824.242188	-2.994400	3.607800	-10.802000	25.214412	0.001058	20.746553
825.241540	-2.998500	3.607500	-10.814000	25.188853	0.001056	20.743652
826.245302	-3.026100	3.606400	-10.913000	25.200587	0.001055	20.746423
827.245926	-3.010800	3.607100	-10.859000	25.211148	0.001056	20.755131
828.241216	-3.010400	3.606400	-10.856000	25.199268	0.001054	20.748418
829.246538	-3.012000	3.607200	-10.864000	25.154399	0.001053	20.756479
830.240802	-2.995100	3.607600	-10.805000	25.147559	0.001053	20.754828
831.241632	-2.994700	3.606000	-10.798000	25.146517	0.001054	20.753308
832.243884	-3.016900	3.605400	-10.875000	25.175530	0.001055	20.767262
833.243991	-3.005600	3.605700	-10.836000	25.224047	0.001052	20.740105
834.244206	-3.017100	3.605900	-10.879000	25.256365	0.001054	20.764491
835.243929	-3.016800	3.603800	-10.870000	25.261136	0.001051	20.738461
836.244226	-3.014900	3.603800	-10.863000	25.289570	0.001052	20.756578
837.245366	-2.996000	3.604400	-10.798000	25.272796	0.001052	20.758703
838.246646	-2.987300	3.604700	-10.768000	25.234119	0.001052	20.761123
839.248312	-2.982200	3.604200	-10.746000	25.213737	0.001051	20.777645
840.247376	-2.968100	3.605400	-10.700000	25.206922	0.001051	20.739982
841.251886	-3.001700	3.604500	-10.819000	25.190172	0.001050	20.754934
842.247051	-3.002100	3.602600	-10.815000	25.216123	0.001049	20.756806
843.248288	-2.983200	3.603700	-10.749000	25.232083	0.001050	20.777097
844.249323	-2.984100	3.602000	-10.748000	25.256046	0.001049	20.770335
845.251822	-3.006100	3.602900	-10.829000	25.256599	0.001047	20.758562
846.249698	-3.002300	3.601700	-10.812000	25.226993	0.001045	20.762503
847.251140	-3.009900	3.601200	-10.837000	25.198208	0.001048	20.756363
848.252606	-3.026400	3.599500	-10.892000	25.220650	0.001046	20.784111
849.248391	-3.022200	3.600300	-10.880000	25.208850	0.001046	20.782221
850.253964	-2.981900	3.601700	-10.739000	25.191456	0.001047	20.764758
851.250497	-3.013100	3.600700	-10.849000	25.180243	0.001046	20.771993
852.250660	-3.010100	3.601000	-10.839000	25.195405	0.001045	20.784845
853.255448	-3.011400	3.600400	-10.842000	25.224988	0.001046	20.760964
854.253390	-2.992800	3.598500	-10.769000	25.242665	0.001044	20.769229
855.252780	-2.980700	3.599700	-10.729000	25.242168	0.001043	20.771101
856.257325	-2.995200	3.598600	-10.778000	25.261409	0.001042	20.771452
857.261617	-2.999900	3.598000	-10.794000	25.230704	0.001043	20.783773
858.252807	-2.985500	3.598800	-10.743000	25.213930	0.001042	20.768829
859.256921	-2.997000	3.598500	-10.782000	25.204134	0.001042	20.778435
860.253677	-3.000200	3.597000	-10.789000	25.199110	0.001042	20.758218
861.253661	-3.004100	3.597800	-10.807000	25.205250	0.001041	20.756321
862.259383	-2.989300	3.596200	-10.749000	25.217750	0.001041	20.786889
863.257619	-3.034100	3.594600	-10.905000	25.229606	0.001039	20.792154
864.255912	-3.007400	3.596100	-10.814000	25.261395	0.001040	20.764326
865.260019	-2.996200	3.596300	-10.775000	25.280733	0.001040	20.777578
866.256496	-3.006100	3.594400	-10.804000	25.307424	0.001040	20.779246
867.255499	-2.995100	3.596000	-10.770000	25.356414	0.001040	20.770114
868.256681	-3.014000	3.593800	-10.830000	25.376468	0.001038	20.777448
869.257312	-3.023300	3.593100	-10.861000	25.401771	0.001038	20.774880
870.256909	-3.008100	3.592900	-10.806000	25.396146	0.001038	20.797682
871.257091	-2.992400	3.593600	-10.752000	25.374425	0.001036	20.759749
872.258816	-2.996100	3.592800	-10.763000	25.354014	0.001036	20.794732
873.256808	-2.980300	3.594000	-10.709000	25.382673	0.001036	20.794584
874.258780	-3.004400	3.591500	-10.789000	25.401554	0.001036	20.789836
875.257745	-2.997700	3.592800	-10.768000	25.406105	0.001036	20.774016
876.260385	-3.011500	3.592100	-10.817000	25.396759	0.001035	20.781701
877.259185	-3.011100	3.591100	-10.813000	25.377993	0.001036	20.776134
878.276647	-3.012300	3.591200	-10.817000	25.361360	0.001035	20.788831
879.261906	-3.004000	3.591400	-10.787000	25.334811	0.001034	20.792993
880.258999	-3.020900	3.591100	-10.846000	25.316964	0.001033	20.804946
881.260876	-3.019900	3.588900	-10.836000	25.327419	0.001034	20.790314
882.259773	-3.026600	3.589100	-10.861000	25.357415	0.001033	20.797198
883.262877	-3.018000	3.589300	-10.832000	25.389256	0.001032	20.790763
884.263572	-3.008000	3.589000	-10.795000	25.391341	0.001031	20.807081
885.262612	-2.993000	3.589000	-10.741000	25.365516	0.001031	20.795849
886.260411	-2.987300	3.587900	-10.717000	25.371501	0.001030	20.782418
887.264462	-2.978500	3.590200	-10.692000	25.367478	0.001031	20.805880
888.261917	-2.996300	3.588000	-10.749000	25.356936	0.001031	20.813312
889.260446	-2.972000	3.589300	-10.666000	25.370298	0.001031	20.799702
890.263107	-2.998800	3.588300	-10.759000	25.406063	0.001029	20.805269
891.262660	-2.997100	3.588100	-10.751000	25.437106	0.001029	20.829327
892.262074	-2.990200	3.587200	-10.725000	25.488713	0.001029	20.801968
893.263367	-3.005000	3.588500	-10.781000	25.486205	0.001027	20.799449
894.262200	-3.006100	3.587500	-10.783000	25.506207	0.001028	20.797725
895.262785	-3.002500	3.586900	-10.769000	25.512045	0.001025	20.802639
896.263880	-3.030600	3.584600	-10.863000	25.491049	0.001026	20.808581
897.264125	-2.983000	3.585900	-10.696000	25.478399	0.001026	20.810102
898.262618	-2.981200	3.585100	-10.686000	25.465073	0.001026	20.806203
899.264754	-2.985300	3.585300	-10.702000	25.482991	0.001023	20.803334
900.262486	-2.993000	3.585600	-10.730000	25.447602	0.001026	20.813790
901.264577	-2.966900	3.585600	-10.636000	25.455899	0.001024	20.799362
902.265364	-2.986500	3.582900	-10.699000	25.476251	0.001023	20.800359
903.263727	-2.993600	3.584600	-10.729000	25.467070	0.001023	20.808209
904.263211	-2.996600	3.583800	-10.738000	25.479102	0.001022	20.833567
905.269897	-2.983100	3.583000	-10.687000	25.481806	0.001022	20.808782
906.267704	-2.978400	3.584200	-10.672000	25.457609	0.001021	20.816252
907.266801	-2.987700	3.583200	-10.704000	25.447466	0.001021	20.826929
908.269084	-2.989700	3.581800	-10.707000	25.427456	0.001019	20.795456
909.265289	-3.007300	3.580600	-10.766000	25.422776	0.001020	20.824422
910.266570	-3.016100	3.580400	-10.798000	25.450911	0.001021	20.819483
911.278121	-2.994300	3.581100	-10.721000	25.469302	0.001021	20.818511
912.272200	-3.039300	3.579300	-10.876000	25.495320	0.001019	20.822353
913.269529	-3.005700	3.579200	-10.756000	25.509933	0.001018	20.812371
914.271436	-3.000200	3.580500	-10.742000	25.489899	0.001017	20.818806
915.271104	-2.986400	3.580400	-10.690000	25.479837	0.001018	20.824822
916.267670	-2.980600	3.578600	-10.666000	25.461887	0.001018	20.830979
917.269889	-2.995200	3.579700	-10.721000	25.462391	0.001018	20.838597
918.267051	-3.020200	3.578400	-10.806000	25.468896	0.001016	20.831379
919.268197	-2.966400	3.580500	-10.620000	25.472373	0.001015	20.809741
920.269537	-3.011500	3.578100	-10.775000	25.475979	0.001017	20.825690
921.271097	-3.008300	3.577600	-10.762000	25.495778	0.001014	20.833718
922.268278	-3.003200	3.577900	-10.744000	25.522919	0.001016	20.832050
923.268722	-2.993300	3.577300	-10.706000	25.528056	0.001015	20.834365
924.273827	-3.003600	3.576600	-10.741000	25.540136	0.001013	20.834168
925.268662	-2.970700	3.577200	-10.626000	25.544134	0.001012	20.827751
926.269160	-2.997300	3.576300	-10.719000	25.551191	0.001011	20.847166
927.274619	-3.004700	3.575600	-10.743000	25.526769	0.001012	20.860572
928.272241	-3.007800	3.575700	-10.754000	25.521870	0.001010	20.849014
929.271101	-2.991500	3.575100	-10.694000	25.535702	0.001011	20.796999
930.270968	-3.018800	3.574800	-10.790000	25.568856	0.001010	20.857794
931.272753	-2.993800	3.575400	-10.703000	25.543190	0.001011	20.821587
932.272933	-2.988100	3.574300	-10.679000	25.568881	0.001008	20.818465
933.272266	-3.012800	3.572500	-10.762000	25.550394	0.001008	20.848736
934.273794	-2.987400	3.572400	-10.672000	25.577795	0.001008	20.842116
935.273375	-2.997500	3.573300	-10.709000	25.569126	0.001007	20.833884
936.274368	-2.985500	3.573800	-10.669000	25.560302	0.001008	20.838773
937.276175	-2.996900	3.574300	-10.710000	25.549418	0.001008	20.860084
938.275133	-3.009700	3.572700	-10.752000	25.545942	0.001007	20.849481
939.274837	-3.029100	3.570000	-10.813000	25.572602	0.001006	20.865348
940.277267	-2.983700	3.571500	-10.655000	25.531778	0.001005	20.837153
941.278605	-2.997000	3.571700	-10.703000	25.525787	0.001006	20.850577
942.278570	-2.986000	3.570500	-10.660000	25.519820	0.001006	20.838896
943.278803	-2.990400	3.571600	-10.679000	25.504645	0.001004	20.843096
944.279178	-2.999400	3.570800	-10.709000	25.520464	0.001004	20.836697
945.278629	-2.994200	3.569800	-10.687000	25.536401	0.001001	20.866925
946.283296	-2.995400	3.570400	-10.693000	25.557910	0.001002	20.837319
947.278819	-2.997600	3.569400	-10.698000	25.548799	0.001001	20.853773
948.279152	-2.994000	3.569400	-10.686000	25.549167	0.001002	20.860305
949.280342	-2.998800	3.567800	-10.698000	25.530183	0.001002	20.827492
950.283168	-2.994200	3.568600	-10.684000	25.522034	0.000999	20.852024
951.279702	-3.009800	3.567800	-10.737000	25.569696	0.000999	20.831137
952.277845	-2.967100	3.568800	-10.587000	25.573130	0.000999	20.837905
953.279791	-2.974700	3.568400	-10.614000	25.570769	0.001000	20.843595
954.278454	-2.996700	3.567500	-10.689000	25.571560	0.000998	20.844388
955.278976	-2.986100	3.566200	-10.648000	25.600961	0.000998	20.816544
956.279014	-3.018000	3.565300	-10.759000	25.594676	0.000995	20.828250
957.279635	-2.987000	3.567100	-10.654000	25.553251	0.000997	20.823157
958.280394	-2.998000	3.566000	-10.690000	25.545501	0.000996	20.846668
959.281854	-3.017800	3.564900	-10.756000	25.536856	0.000995	20.821865
960.283346	-3.015800	3.565100	-10.750000	25.548383	0.000997	20.825381
961.283078	-3.005400	3.565200	-10.715000	25.551167	0.000994	20.805417
962.284785	-3.010000	3.564700	-10.728000	25.528137	0.000995	20.827333
963.281495	-3.018700	3.563600	-10.755000	25.517970	0.000992	20.822813
964.280290	-2.987900	3.564700	-10.650000	25.534446	0.000995	20.811859
965.280642	-2.999800	3.562600	-10.684000	25.537034	0.000992	20.832475
966.283683	-3.013900	3.563000	-10.736000	25.566933	0.000993	20.839742
967.280630	-3.000100	3.562400	-10.686000	25.594138	0.000990	20.824390
968.281094	-2.995500	3.563600	-10.673000	25.617369	0.000990	20.794143
969.285736	-3.011300	3.563100	-10.728000	25.612508	0.000991	20.819132
970.283293	-2.995100	3.562400	-10.668000	25.638554	0.000991	20.817316
971.282554	-3.013100	3.561800	-10.730000	25.653637	0.000989	20.822033
972.283344	-3.004900	3.560200	-10.697000	25.673139	0.000989	20.829293
973.285145	-3.016200	3.560600	-10.738000	25.672807	0.000987	20.821373
974.285372	-2.971400	3.560700	-10.579000	25.666733	0.000987	20.820488
975.284589	-3.007600	3.559500	-10.704000	25.681857	0.000988	20.809126
976.284023	-2.975500	3.561900	-10.596000	25.658620	0.000988	20.791951
977.284402	-2.999900	3.558300	-10.674000	25.665236	0.000985	20.793381
978.285329	-3.000000	3.559100	-10.677000	25.690624	0.000985	20.800388
979.285612	-3.010700	3.558400	-10.712000	25.698495	0.000985	20.809242
980.284209	-3.002000	3.558300	-10.681000	25.677350	0.000985	20.812659
981.284416	-3.003900	3.557700	-10.687000	25.647185	0.000984	20.803700
982.288365	-3.001900	3.556900	-10.676000	25.655284	0.000984	20.798558
983.285366	-3.009600	3.557900	-10.707000	25.670391	0.000983	20.797610
984.285352	-3.002500	3.556900	-10.678000	25.715263	0.000981	20.810910
985.284574	-2.991200	3.556500	-10.637000	25.726886	0.000982	20.806464
986.283473	-3.001000	3.556000	-10.671000	25.740331	0.000980	20.783459
987.283538	-3.018500	3.555200	-10.730000	25.782857	0.000981	20.799148
988.285085	-2.996000	3.553700	-10.645000	25.781619	0.000981	20.801698
989.286944	-2.973800	3.554300	-10.569000	25.767856	0.000978	20.797357
990.285289	-3.016300	3.554100	-10.718000	25.777616	0.000980	20.819487
991.286295	-2.994900	3.554100	-10.643000	25.741887	0.000980	20.794031
992.288854	-3.004300	3.555300	-10.680000	25.698488	0.000978	20.787424
993.285159	-3.011600	3.555800	-10.707000	25.693890	0.000977	20.805565
994.285757	-3.007600	3.554500	-10.690000	25.683627	0.000978	20.800946
995.286330	-2.997800	3.553000	-10.650000	25.685638	0.000976	20.796802
996.288182	-3.021000	3.552300	-10.730000	25.646657	0.000976	20.796057
997.288897	-2.957300	3.553300	-10.507000	25.661757	0.000974	20.778981
998.286797	-2.989400	3.552900	-10.620000	25.650084	0.000974	20.784326
999.288260	-2.983300	3.551600	-10.595000	25.659900	0.000972	20.793711
1000.288723	-3.017500	3.550800	-10.712000	25.671475	0.000972	20.805337
1001.287672	-3.022000	3.551600	-10.731000	25.722337	0.000972	20.810429
1002.288244	-2.979500	3.552800	-10.584000	25.723704	0.000972	20.790940
1003.289641	-2.996800	3.550700	-10.640000	25.765073	0.000970	20.807837
1004.293985	-2.985200	3.551600	-10.601000	25.769493	0.000971	20.800423
1005.293669	-2.970400	3.551300	-10.547000	25.764870	0.000969	20.775391
1006.289529	-2.996000	3.549900	-10.634000	25.694411	0.000968	20.788545
1007.294595	-3.010300	3.548100	-10.679000	25.703632	0.000969	20.795436
1008.292682	-3.004600	3.548800	-10.662000	25.715091	0.000968	20.778496
1009.295379	-2.995000	3.548700	-10.626000	25.668943	0.000970	20.792837
1010.294789	-3.010000	3.547900	-10.678000	25.648000	0.000967	20.781285
1011.293057	-2.981400	3.548500	-10.577000	25.652266	0.000967	20.766129
1012.292112	-2.996600	3.547000	-10.628000	25.662610	0.000965	20.783631
1013.294633	-3.008100	3.545700	-10.663000	25.681665	0.000965	20.793760
1014.295197	-3.002900	3.546800	-10.650000	25.648269	0.000964	20.771124
1015.293630	-3.005000	3.545400	-10.653000	25.700702	0.000965	20.798656
1016.293873	-3.013700	3.545500	-10.684000	25.725949	0.000965	20.783237
1017.294601	-2.996500	3.546700	-10.626000	25.740453	0.000963	20.770779
1018.293432	-3.002600	3.546600	-10.648000	25.749251	0.000964	20.799057
1019.294578	-2.968100	3.547000	-10.526000	25.741086	0.000963	20.788959
1020.295845	-3.010600	3.543900	-10.667000	25.731774	0.000961	20.778183
1021.295658	-3.002300	3.545100	-10.643000	25.659694	0.000962	20.784020
1022.295836	-2.994300	3.544800	-10.613000	25.629105	0.000960	20.790757
1023.296750	-3.034300	3.543300	-10.750000	25.623839	0.000962	20.776458
1024.296793	-2.987800	3.544600	-10.589000	25.648143	0.000959	20.774316
1025.299260	-2.994700	3.543000	-10.609000	25.659228	0.000959	20.770277
1026.301283	-3.000100	3.543300	-10.629000	25.709269	0.000958	20.774070
1027.299513	-2.997200	3.542100	-10.615000	25.696334	0.000956	20.795691
1028.299367	-3.020800	3.540600	-10.694000	25.721004	0.000958	20.766891
1029.301467	-3.009300	3.540500	-10.653000	25.721948	0.000958	20.769736
1030.303827	-2.995900	3.540800	-10.607000	25.717731	0.000956	20.785889
1031.303081	-2.972500	3.541500	-10.526000	25.717087	0.000954	20.803260
1032.304386	-3.006300	3.540400	-10.641000	25.726112	0.000957	20.782928
1033.304696	-3.001700	3.539300	-10.622000	25.733610	0.000955	20.776707
1034.301218	-2.981900	3.540100	-10.556000	25.746152	0.000954	20.761805
1035.304626	-3.018600	3.537000	-10.674000	25.778559	0.000954	20.786770
1036.305299	-3.000600	3.540600	-10.623000	25.809713	0.000955	20.795305
1037.301809	-2.996500	3.537600	-10.600000	25.828171	0.000952	20.765956
1038.308620	-2.997500	3.540700	-10.612000	25.794584	0.000953	20.795754
1039.302881	-2.992800	3.538900	-10.590000	25.822066	0.000951	20.771678
1040.302531	-2.998800	3.538700	-10.610000	25.829723	0.000951	20.780792
1041.302345	-2.949700	3.540200	-10.442000	25.812479	0.000952	20.770108
1042.303464	-2.995200	3.537000	-10.593000	25.840003	0.000949	20.762669
1043.306143	-2.988300	3.537500	-10.570000	25.837870	0.000949	20.759578
1044.303803	-2.983400	3.538000	-10.554000	25.849596	0.000949	20.765668
1045.305035	-3.013200	3.535600	-10.651000	25.842890	0.000949	20.748974
1046.304525	-3.012700	3.534800	-10.648000	25.870543	0.000948	20.765847
1047.306863	-2.984700	3.536100	-10.554000	25.861582	0.000948	20.753526
1048.308933	-2.986700	3.536100	-10.559000	25.868693	0.000947	20.754031
1049.307085	-3.006100	3.535100	-10.626000	25.840722	0.000945	20.768608
1050.307408	-2.978500	3.535100	-10.528000	25.835904	0.000947	20.762819
1051.314273	-2.995300	3.534100	-10.585000	25.797971	0.000945	20.767389
1052.308287	-3.003900	3.532900	-10.611000	25.735735	0.000943	20.774575
1053.306789	-2.986400	3.534300	-10.554000	25.737574	0.000943	20.754137
1054.309594	-3.011600	3.532200	-10.636000	25.726472	0.000943	20.755787
1055.310830	-2.986200	3.531800	-10.545000	25.734186	0.000942	20.757846
1056.310166	-2.995700	3.531000	-10.576000	25.748292	0.000941	20.763954
1057.311033	-2.989700	3.531400	-10.557000	25.734137	0.000944	20.754951
1058.306949	-2.986200	3.531400	-10.544000	25.788926	0.000941	20.770156
1059.308917	-2.994400	3.530500	-10.571000	25.788754	0.000940	20.759553
1060.310704	-2.988700	3.531300	-10.552000	25.815237	0.000940	20.780465
1061.307278	-3.019100	3.530100	-10.657000	25.797999	0.000940	20.771684
1062.308596	-2.980300	3.529600	-10.517000	25.778272	0.000936	20.758506
1063.309103	-2.981800	3.530400	-10.526000	25.759593	0.000939	20.766770
1064.309620	-3.010900	3.527700	-10.620000	25.721902	0.000936	20.754516
1065.309098	-3.015400	3.528700	-10.639000	25.693585	0.000937	20.751678
1066.309457	-3.004400	3.526900	-10.595000	25.732668	0.000937	20.753476
1067.310036	-2.988400	3.529100	-10.544000	25.765638	0.000936	20.747238
1068.309810	-3.014700	3.526300	-10.629000	25.816642	0.000935	20.752004
1069.310803	-2.982800	3.528800	-10.525000	25.847771	0.000935	20.752454
1070.310773	-3.015600	3.526000	-10.632000	25.867840	0.000933	20.756967
1071.311248	-3.017200	3.525400	-10.635000	25.856438	0.000932	20.753100
1072.311658	-3.012000	3.526500	-10.621000	25.888387	0.000933	20.742047
1073.312854	-3.009300	3.526400	-10.610000	25.864469	0.000931	20.744572
1074.314323	-3.011900	3.524000	-10.612000	25.884440	0.000930	20.741875
1075.310621	-3.006200	3.524400	-10.594000	25.886108	0.000930	20.756827
1076.313201	-2.989100	3.524100	-10.533000	25.872444	0.000928	20.742626
1077.316926	-3.011300	3.522800	-10.607000	25.825495	0.000929	20.745724
1078.313510	-3.021100	3.522600	-10.641000	25.782044	0.000928	20.747122
1079.316569	-2.998400	3.524400	-10.567000	25.762390	0.000929	20.761519
1080.313886	-3.022200	3.521800	-10.643000	25.752134	0.000928	20.720870
1081.316579	-2.994300	3.523200	-10.548000	25.770226	0.000927	20.734302
1082.317486	-3.022000	3.522200	-10.643000	25.744239	0.000929	20.739019
1083.313886	-3.000900	3.522100	-10.569000	25.789384	0.000926	20.737898
1084.313667	-3.006600	3.520700	-10.583000	25.822824	0.000927	20.765801
1085.315495	-2.995200	3.522800	-10.550000	25.809373	0.000926	20.744228
1086.313101	-2.984500	3.522200	-10.512000	25.767009	0.000925	20.738183
1087.317013	-3.011900	3.520100	-10.600000	25.741162	0.000924	20.734031
1088.313513	-3.004800	3.519800	-10.575000	25.707823	0.000924	20.757919
1089.314432	-2.996900	3.519800	-10.547000	25.712317	0.000924	20.727818
1090.314232	-3.004300	3.518400	-10.570000	25.704757	0.000921	20.743933
1091.314840	-2.995200	3.518400	-10.537000	25.686524	0.000920	20.747905
1092.315302	-2.982100	3.521000	-10.499000	25.679737	0.000922	20.734449
1093.316264	-3.024500	3.517300	-10.636000	25.690700	0.000922	20.745461
1094.315830	-2.998800	3.518300	-10.550000	25.703071	0.000922	20.746033
1095.319457	-2.993900	3.518000	-10.531000	25.749001	0.000919	20.747596
1096.316912	-2.981500	3.518300	-10.488000	25.783142	0.000920	20.746802
1097.317884	-3.014200	3.515400	-10.595000	25.812310	0.000921	20.735798
1098.320534	-3.028600	3.515500	-10.645000	25.810593	0.000919	20.737867
1099.319017	-3.006200	3.515100	-10.566000	25.794097	0.000917	20.739314
1100.318255	-3.027000	3.515400	-10.640000	25.812016	0.000916	20.734555
1101.320951	-3.003400	3.515400	-10.556000	25.822118	0.000915	20.734270
1102.317803	-3.014900	3.513700	-10.592000	25.839680	0.000915	20.718246
1103.323046	-2.991700	3.516000	-10.517000	25.879010	0.000914	20.725988
1104.319126	-2.996600	3.514900	-10.531000	25.888971	0.000913	20.714182
1105.319674	-3.003700	3.514100	-10.554000	25.877343	0.000913	20.732848
1106.320222	-3.002500	3.512900	-10.546000	25.891558	0.000912	20.727214
1107.321096	-2.987900	3.514800	-10.500000	25.876650	0.000913	20.718401
1108.321596	-2.983200	3.513100	-10.479000	25.904173	0.000912	20.708590
1109.322874	-2.977300	3.512800	-10.458000	25.914752	0.000912	20.742454
1110.331942	-3.008000	3.512200	-10.564000	25.931498	0.000909	20.725138
1111.327083	-2.999100	3.511300	-10.529000	25.936732	0.000912	20.725654
1112.323779	-3.002800	3.512200	-10.544000	25.925289	0.000911	20.728383
1113.324736	-2.975400	3.512900	-10.451000	25.911259	0.000911	20.719978
1114.324844	-2.992200	3.511500	-10.505000	25.893366	0.000908	20.728081
1115.324485	-3.021500	3.511200	-10.607000	25.887254	0.000907	20.724787
1116.325560	-2.997100	3.511200	-10.523000	25.850015	0.000909	20.721042
1117.324866	-3.013600	3.509800	-10.576000	25.822670	0.000909	20.730083
1118.325835	-2.995500	3.510300	-10.514000	25.815614	0.000906	20.723944
1119.326003	-3.035100	3.506500	-10.641000	25.848673	0.000905	20.729651
1120.325423	-3.004900	3.509100	-10.544000	25.844652	0.000905	20.724664
1121.326704	-3.024400	3.507000	-10.605000	25.853155	0.000905	20.727516
1122.328187	-3.018000	3.506200	-10.580000	25.866812	0.000905	20.723216
1123.326818	-3.008200	3.505800	-10.546000	25.846320	0.000906	20.714959
1124.327501	-2.991300	3.508000	-10.492000	25.825667	0.000902	20.718394
1125.327643	-3.000900	3.506000	-10.521000	25.807737	0.000901	20.712236
1126.326533	-3.000700	3.505100	-10.516000	25.748529	0.000903	20.698755
1127.325977	-3.002100	3.504900	-10.521000	25.749001	0.000901	20.718197
1128.330554	-3.008500	3.505400	-10.545000	25.740326	0.000902	20.718966
1129.327445	-2.993700	3.504800	-10.491000	25.744176	0.000900	20.723782
1130.326203	-2.992100	3.505500	-10.488000	25.726465	0.000900	20.705517
1131.326312	-3.014200	3.503500	-10.559000	25.759827	0.000898	20.713424
1132.326437	-2.971300	3.506000	-10.415000	25.773681	0.000899	20.744885
1133.329913	-2.997800	3.502500	-10.499000	25.796125	0.000897	20.736609
1134.328402	-2.987300	3.503100	-10.464000	25.785838	0.000898	20.722482
1135.326369	-3.016800	3.502200	-10.565000	25.834107	0.000898	20.711699
1136.326479	-3.002600	3.501800	-10.513000	25.847593	0.000898	20.715289
1137.327101	-2.994500	3.501800	-10.485000	25.873210	0.000894	20.708780
1138.326590	-2.991100	3.502000	-10.474000	25.839324	0.000897	20.718362
1139.327971	-2.990300	3.501000	-10.468000	25.814884	0.000896	20.707087
1140.327351	-3.011200	3.498900	-10.534000	25.802506	0.000893	20.735907
1141.330366	-3.012700	3.500500	-10.545000	25.795922	0.000894	20.707006
1142.327808	-2.990100	3.501300	-10.466000	25.803922	0.000893	20.709353
1143.327572	-3.000000	3.500400	-10.500000	25.849016	0.000890	20.708657
1144.329999	-3.017200	3.498200	-10.554000	25.871549	0.000891	20.717070
1145.328144	-3.015000	3.497700	-10.544000	25.904809	0.000891	20.694530
1146.330021	-3.015600	3.498100	-10.548000	25.944553	0.000890	20.709802
1147.333305	-2.982100	3.498500	-10.432000	25.976653	0.000891	20.711232
1148.329995	-2.970500	3.498300	-10.389000	26.008493	0.000888	20.709082
1149.329782	-2.982800	3.497100	-10.428000	26.017491	0.000889	20.692517
1150.333437	-2.998800	3.495600	-10.480000	26.016376	0.000890	20.723167
1151.336533	-3.008100	3.495400	-10.513000	26.021714	0.000889	20.679689
1152.331251	-3.024200	3.495400	-10.570000	26.041112	0.000888	20.694438
1153.332970	-2.990000	3.495600	-10.451000	26.061258	0.000886	20.723216
1154.331730	-3.007500	3.495200	-10.511000	26.058524	0.000887	20.703873
1155.330744	-3.006600	3.494000	-10.504000	26.033740	0.000885	20.719275
1156.338099	-3.002200	3.494700	-10.490000	25.983690	0.000885	20.690799
1157.333857	-3.010700	3.493800	-10.518000	25.961183	0.000883	20.698060
1158.334069	-3.013400	3.493200	-10.525000	25.932711	0.000885	20.707863
1159.333407	-2.999600	3.492700	-10.475000	25.923996	0.000884	20.701952
1160.333513	-2.980600	3.491500	-10.405000	25.935770	0.000882	20.699556
1161.332990	-3.027400	3.491200	-10.568000	25.928390	0.000883	20.702099
1162.334809	-3.037100	3.491800	-10.604000	25.891300	0.000883	20.698503
1163.334710	-3.007300	3.491100	-10.498000	25.885335	0.000880	20.707210
1164.334967	-3.004200	3.493000	-10.492000	25.891698	0.000878	20.694635
1165.334957	-3.013500	3.490300	-10.517000	25.844026	0.000880	20.695584
1166.338061	-2.977800	3.490700	-10.392000	25.829069	0.000880	20.701896
1167.336874	-2.984500	3.490500	-10.415000	25.814705	0.000881	20.678456
1168.335599	-3.012700	3.488700	-10.509000	25.790933	0.000879	20.696304
1169.337366	-3.000200	3.488900	-10.467000	25.836093	0.000877	20.687614
1170.335670	-3.000700	3.488100	-10.466000	25.860987	0.000878	20.695078
1171.337162	-3.015800	3.488300	-10.519000	25.910637	0.000876	20.686634
1172.337779	-3.015800	3.487000	-10.514000	25.885304	0.000876	20.684891
1173.339616	-2.998400	3.487800	-10.457000	25.917042	0.000873	20.683585
1174.336425	-3.025200	3.485400	-10.542000	25.938232	0.000875	20.696339
1175.335133	-2.998400	3.486900	-10.454000	25.962725	0.000873	20.700557
1176.336696	-3.030100	3.485000	-10.557000	25.984239	0.000872	20.696093
1177.341483	-2.990000	3.486400	-10.423000	26.007536	0.000872	20.695317
1178.341900	-3.003300	3.485800	-10.468000	26.052914	0.000872	20.696813
1179.338840	-2.991700	3.486300	-10.428000	26.041263	0.000871	20.701703
1180.341206	-3.012900	3.484500	-10.497000	26.014412	0.000872	20.687052
1181.345251	-2.987700	3.484600	-10.410000	25.981823	0.000871	20.683708
1182.341158	-3.003200	3.483700	-10.462000	25.953653	0.000870	20.691442
1183.340489	-2.988300	3.483700	-10.409000	25.899068	0.000870	20.696350
1184.341495	-3.015500	3.481800	-10.498000	25.877332	0.000868	20.687789
1185.338100	-2.991900	3.482900	-10.420000	25.855865	0.000869	20.701787
1186.342477	-3.004500	3.482300	-10.462000	25.834226	0.000870	20.710870
1187.340269	-2.991200	3.482000	-10.414000	25.886636	0.000867	20.709465
1188.338684	-2.992500	3.482600	-10.419000	25.944658	0.000866	20.701373
1189.342672	-3.005200	3.481000	-10.460000	25.972601	0.000864	20.676813
1190.340710	-2.988000	3.480100	-10.397000	25.960379	0.000865	20.697252
1191.339985	-2.986100	3.480400	-10.391000	25.937197	0.000865	20.698145
1192.342889	-2.999200	3.480200	-10.437000	25.981439	0.000864	20.695177
1193.340249	-2.983600	3.479500	-10.379000	25.979121	0.000864	20.701383
1194.343286	-2.991500	3.481000	-10.412000	26.036072	0.000865	20.693168
1195.349962	-3.021500	3.478900	-10.510000	26.055494	0.000865	20.704148
1196.343184	-2.972100	3.477900	-10.335000	26.089269	0.000862	20.697305
1197.341648	-2.988200	3.478600	-10.394000	26.094282	0.000860	20.698075
1198.343814	-2.986500	3.477100	-10.383000	26.056253	0.000860	20.689736
1199.343105	-3.008700	3.476100	-10.457000	26.051883	0.000860	20.705261
1200.343475	-3.000700	3.477000	-10.433000	26.003845	0.000860	20.698247
1201.343153	-2.996600	3.474700	-10.411000	25.975993	0.000857	20.708672
1202.343458	-2.978900	3.476900	-10.356000	25.953265	0.000859	20.714763
1203.343602	-2.988700	3.476000	-10.387000	25.903016	0.000859	20.713119
1204.345397	-3.004700	3.474700	-10.440000	25.880808	0.000859	20.688436
1205.346862	-3.013000	3.473700	-10.464000	25.855460	0.000857	20.695690
1206.349230	-3.002500	3.474200	-10.429000	25.866802	0.000857	20.676736
1207.349529	-2.979000	3.474100	-10.348000	25.869008	0.000857	20.692704
1208.347789	-2.988900	3.471900	-10.376000	25.915564	0.000856	20.690161
1209.348251	-2.988500	3.473100	-10.378000	25.976993	0.000857	20.699244
1210.347690	-3.000400	3.473000	-10.420000	26.000265	0.000855	20.707927
1211.350520	-3.010300	3.470800	-10.447000	26.039264	0.000855	20.695426
1212.351704	-2.984700	3.472600	-10.363000	26.045976	0.000854	20.721138
1213.349090	-2.986700	3.471800	-10.367000	26.037187	0.000853	20.706143
1214.351140	-3.002700	3.470300	-10.418000	26.062136	0.000853	20.717460
1215.348914	-2.998600	3.469900	-10.403000	26.065121	0.000851	20.696750
1216.349293	-2.992500	3.469900	-10.381000	26.082656	0.000851	20.704411
1217.349728	-3.019200	3.469200	-10.473000	26.083036	0.000851	20.719020
1218.350742	-2.998300	3.468100	-10.398000	26.104150	0.000850	20.696610
1219.349630	-2.978800	3.469500	-10.333000	26.135263	0.000850	20.694682
1220.349972	-2.999300	3.468100	-10.401000	26.142561	0.000848	20.686842
1221.350791	-2.989900	3.468100	-10.368000	26.166260	0.000849	20.697379
1222.349147	-2.992700	3.467700	-10.376000	26.179699	0.000847	20.692865
1223.350122	-3.001600	3.466000	-10.402000	26.182824	0.000848	20.707386
1224.353501	-3.015400	3.465300	-10.448000	26.191691	0.000845	20.718669
1225.351531	-3.020100	3.465300	-10.464000	26.145148	0.000847	20.697502
1226.350682	-3.009300	3.464700	-10.425000	26.133976	0.000846	20.700976
1227.350137	-3.018400	3.464200	-10.455000	26.126769	0.000846	20.727401
1228.351502	-2.995700	3.463500	-10.374000	26.140551	0.000844	20.709954
1229.352761	-2.969100	3.465900	-10.289000	26.180091	0.000845	20.722659
1230.351498	-3.000500	3.464100	-10.392000	26.173338	0.000841	20.712079
1231.353719	-3.013600	3.462100	-10.431000	26.172254	0.000843	20.713835
1232.352560	-2.968000	3.464600	-10.282000	26.171408	0.000843	20.710614
1233.352002	-3.002100	3.461700	-10.392000	26.163663	0.000839	20.723221
1234.354248	-3.018500	3.461400	-10.447000	26.157228	0.000841	20.711538
1235.351716	-2.986400	3.463300	-10.341000	26.180797	0.000840	20.717678
1236.355321	-2.987400	3.462400	-10.342000	26.197864	0.000840	20.712068
1237.354456	-3.008300	3.460200	-10.409000	26.212173	0.000840	20.697049
1238.355595	-3.012600	3.459800	-10.422000	26.211254	0.000839	20.695177
1239.354737	-3.006600	3.460200	-10.402000	26.166606	0.000838	20.719065
1240.356008	-2.996200	3.460500	-10.367000	26.141897	0.000837	20.715100
1241.358752	-2.988800	3.459900	-10.340000	26.070120	0.000837	20.723586
1242.357149	-3.006400	3.459400	-10.399000	26.076776	0.000836	20.720790
1243.360564	-2.997200	3.457600	-10.362000	26.077695	0.000837	20.731671
1244.373637	-3.026900	3.457300	-10.464000	26.107481	0.000834	20.708967
1245.357590	-3.015300	3.457200	-10.424000	26.138324	0.000834	20.727158
1246.359304	-3.013000	3.455700	-10.410000	26.144546	0.000834	20.732462
1247.360478	-3.023000	3.455800	-10.445000	26.126192	0.000832	20.706431
1248.365323	-2.999300	3.456500	-10.366000	26.089230	0.000831	20.717182
1249.358723	-3.018700	3.456200	-10.432000	26.097413	0.000831	20.717818
1250.357979	-3.024300	3.454600	-10.447000	26.056480	0.000831	20.730744
1251.357766	-3.036900	3.455500	-10.492000	26.071109	0.000831	20.718415
1252.358431	-3.006700	3.455800	-10.390000	26.089692	0.000830	20.715749
1253.358881	-3.030700	3.453500	-10.465000	26.068935	0.000830	20.700108
1254.361171	-3.019200	3.453900	-10.427000	26.064240	0.000829	20.717677
1255.359109	-2.987900	3.453100	-10.317000	26.089754	0.000829	20.716286
1256.358216	-3.005800	3.453400	-10.379000	26.097102	0.000830	20.725092
1257.358428	-3.033000	3.451400	-10.466000	26.102674	0.000827	20.720259
1258.359955	-2.973000	3.452100	-10.262000	26.127562	0.000827	20.710178
1259.360450	-2.998900	3.453200	-10.355000	26.133200	0.000828	20.724379
1260.361701	-3.001500	3.452600	-10.362000	26.117855	0.000826	20.726030
1261.359526	-2.989300	3.451900	-10.318000	26.078443	0.000825	20.729103
1262.363198	-2.999900	3.450400	-10.350000	26.049037	0.000825	20.723266
1263.361615	-2.973200	3.451600	-10.261000	26.069801	0.000826	20.726111
1264.361637	-2.982700	3.451000	-10.292000	26.061859	0.000826	20.712440
1265.363974	-2.993500	3.450100	-10.327000	26.077286	0.000823	20.746908
1266.360940	-3.018700	3.448300	-10.408000	26.111287	0.000822	20.725120
1267.364106	-2.961500	3.449200	-10.214000	26.131235	0.000823	20.722879
1268.361094	-2.987700	3.448500	-10.302000	26.125573	0.000824	20.717663
1269.362003	-2.989200	3.448900	-10.307000	26.140631	0.000823	20.722837
1270.360959	-2.977800	3.448400	-10.268000	26.142470	0.000820	20.737013
1271.362377	-2.979700	3.448000	-10.273000	26.127971	0.000822	20.738092
1272.363960	-3.009000	3.446300	-10.369000	26.080267	0.000820	20.713866
1273.365448	-3.003500	3.447500	-10.354000	26.057021	0.000820	20.725124
1274.363933	-3.010500	3.445000	-10.370000	26.020463	0.000820	20.740076
1275.370564	-3.002700	3.445200	-10.344000	25.982316	0.000819	20.723561
1276.364740	-3.011100	3.444100	-10.370000	25.981372	0.000819	20.716448
1277.364690	-2.993200	3.444100	-10.309000	26.035222	0.000819	20.717920
1278.368003	-3.002000	3.443500	-10.337000	26.083438	0.000815	20.712310
1279.372115	-3.012500	3.443400	-10.373000	26.113597	0.000816	20.725071
1280.365095	-2.999600	3.443800	-10.328000	26.158353	0.000816	20.727842
1281.367365	-3.005500	3.441700	-10.342000	26.177423	0.000814	20.740368
1282.370260	-3.007000	3.441900	-10.349000	26.179489	0.000815	20.747659
1283.364902	-3.006000	3.442400	-10.346000	26.216569	0.000815	20.732763
1284.365038	-2.998000	3.442200	-10.318000	26.229218	0.000814	20.732198
1285.366861	-2.992300	3.441300	-10.296000	26.232147	0.000812	20.728503
1286.366294	-2.985100	3.441300	-10.271000	26.258650	0.000812	20.715306
1287.367105	-3.000100	3.441000	-10.322000	26.232651	0.000812	20.714783
1288.371196	-3.014600	3.439300	-10.367000	26.232210	0.000812	20.726669
1289.373596	-2.982300	3.440600	-10.259000	26.226793	0.000811	20.736873
1290.368576	-3.011700	3.439100	-10.357000	26.213060	0.000811	20.725918
1291.375587	-3.028100	3.439200	-10.413000	26.187807	0.000810	20.744165
1292.376303	-3.040500	3.436800	-10.447000	26.137845	0.000809	20.718615
1293.374586	-2.971500	3.439300	-10.219000	26.141627	0.000809	20.732373
1294.369947	-2.970000	3.440000	-10.216000	26.162016	0.000807	20.732946
1295.371349	-2.999400	3.436700	-10.307000	26.195389	0.000805	20.731868
1296.372794	-2.997000	3.435700	-10.296000	26.234608	0.000807	20.732398
1297.373415	-3.002200	3.436000	-10.315000	26.250839	0.000806	20.741597
1298.372969	-2.982600	3.436100	-10.248000	26.237788	0.000805	20.759777
1299.372493	-3.000500	3.434900	-10.305000	26.275762	0.000806	20.740090
1300.372280	-3.007900	3.434400	-10.330000	26.239480	0.000805	20.738243
1301.378339	-2.971800	3.436100	-10.210000	26.240228	0.000803	20.720501
1302.371989	-2.992000	3.434400	-10.275000	26.223420	0.000803	20.748183
1303.372202	-2.986700	3.434500	-10.257000	26.250119	0.000802	20.740399
1304.372627	-2.981700	3.434700	-10.241000	26.276265	0.000803	20.731113
1305.372032	-2.993600	3.431100	-10.270000	26.283318	0.000800	20.732985
1306.372724	-2.977700	3.433300	-10.222000	26.306395	0.000801	20.747642
1307.371785	-2.987100	3.431800	-10.250000	26.327374	0.000803	20.754976
1308.379886	-2.967400	3.432300	-10.184000	26.297154	0.000801	20.757322
1309.374233	-2.997200	3.432000	-10.285000	26.266493	0.000801	20.757803
1310.374725	-3.033600	3.429700	-10.403000	26.246222	0.000801	20.750708
1311.376664	-2.981900	3.431800	-10.232000	26.275710	0.000799	20.746676
1312.379478	-2.990500	3.430600	-10.257000	26.230145	0.000799	20.737871
1313.377748	-3.026500	3.429600	-10.378000	26.226793	0.000797	20.743037
1314.378751	-2.993900	3.429700	-10.267000	26.171813	0.000798	20.750378
1315.381656	-3.007300	3.428400	-10.310000	26.150076	0.000796	20.752718
1316.381217	-2.998600	3.428200	-10.279000	26.079722	0.000795	20.749356
1317.377841	-3.010000	3.427800	-10.317000	26.067550	0.000795	20.747084
1318.379557	-3.009200	3.427900	-10.314000	26.081984	0.000793	20.746887
1319.378604	-3.009800	3.427600	-10.316000	26.109581	0.000795	20.745693
1320.377938	-2.995000	3.426500	-10.261000	26.136178	0.000793	20.761038
1321.387074	-3.004300	3.425900	-10.291000	26.211033	0.000794	20.740477
1322.382926	-2.992300	3.426100	-10.251000	26.191394	0.000793	20.749191
1323.381436	-3.013100	3.424800	-10.318000	26.198528	0.000790	20.740712
1324.383224	-2.976200	3.426600	-10.196000	26.203564	0.000793	20.769956
1325.383323	-2.983500	3.424800	-10.217000	26.197738	0.000790	20.763153
1326.384106	-3.005000	3.424000	-10.289000	26.213211	0.000790	20.758787
1327.384043	-3.013900	3.423600	-10.317000	26.244727	0.000789	20.746835
1328.387745	-3.002700	3.422700	-10.276000	26.266633	0.000789	20.752254
1329.388394	-2.985600	3.422400	-10.216000	26.316572	0.000788	20.779208
1330.386322	-2.986900	3.422800	-10.222000	26.315929	0.000788	20.760543
1331.390044	-2.984700	3.422000	-10.212000	26.364996	0.000787	20.759595
1332.386944	-3.034400	3.420500	-10.377000	26.398352	0.000787	20.760403
1333.386330	-3.014100	3.421100	-10.311000	26.377196	0.000786	20.760477
1334.386467	-2.989700	3.420800	-10.226000	26.424421	0.000786	20.774277
1335.389632	-3.002600	3.420600	-10.269000	26.386939	0.000785	20.745138
1336.387174	-2.999900	3.419400	-10.257000	26.405411	0.000786	20.758015
1337.388083	-3.019700	3.418700	-10.323000	26.356371	0.000783	20.764204
1338.387265	-2.990100	3.419900	-10.225000	26.348903	0.000785	20.759069
1339.388996	-3.036900	3.418600	-10.380000	26.354036	0.000783	20.760435
1340.389036	-2.992600	3.418200	-10.228000	26.383025	0.000781	20.760646
1341.389849	-3.017300	3.417200	-10.310000	26.389776	0.000782	20.768380
1342.393235	-2.993700	3.419200	-10.235000	26.402000	0.000781	20.758854
1343.389302	-3.000400	3.417000	-10.250000	26.391775	0.000781	20.790778
1344.389170	-2.987200	3.417100	-10.207000	26.376679	0.000781	20.760906
1345.387845	-2.993400	3.415800	-10.223000	26.387114	0.000779	20.781825
1346.388657	-3.014000	3.415800	-10.294000	26.370056	0.000780	20.774165
1347.388532	-2.989800	3.415400	-10.210000	26.394557	0.000780	20.775556
1348.389215	-3.000900	3.415200	-10.247000	26.378947	0.000778	20.761289
1349.390317	-3.012300	3.414000	-10.283000	26.392181	0.000778	20.758942
1350.390715	-2.991800	3.414200	-10.213000	26.444619	0.000777	20.785569
1351.391541	-3.014400	3.412800	-10.286000	26.443707	0.000779	20.786549
1352.390054	-3.013900	3.414300	-10.290000	26.435356	0.000778	20.766775
1353.389904	-2.994100	3.412700	-10.217000	26.445042	0.000776	20.796900
1354.392993	-3.006300	3.412300	-10.257000	26.429621	0.000776	20.784245
1355.389208	-3.012100	3.413000	-10.280000	26.450158	0.000775	20.762212
1356.389459	-2.967900	3.413300	-10.129000	26.489532	0.000773	20.766701
1357.393417	-3.016900	3.410500	-10.288000	26.494518	0.000773	20.793999
1358.393026	-3.020500	3.409700	-10.297000	26.465792	0.000772	20.775556
1359.391257	-3.027500	3.410500	-10.324000	26.475129	0.000772	20.779251
1360.395500	-2.993100	3.410700	-10.208000	26.473168	0.000772	20.771590
1361.392249	-3.004200	3.408900	-10.241000	26.473933	0.000773	20.795593
1362.389713	-3.009500	3.409300	-10.259000	26.474381	0.000771	20.775654
1363.390471	-3.010100	3.409300	-10.260000	26.464530	0.000773	20.786616
1364.390547	-3.021200	3.407200	-10.291000	26.452136	0.000770	20.789805
1365.391166	-3.004600	3.407000	-10.236000	26.460138	0.000768	20.778408
1366.390323	-3.000800	3.407200	-10.223000	26.466368	0.000769	20.795102
1367.391321	-3.003000	3.407600	-10.232000	26.445832	0.000767	20.791530
1368.391256	-3.002100	3.406300	-10.225000	26.443791	0.000769	20.789004
1369.390982	-2.990000	3.407700	-10.188000	26.420326	0.000770	20.792920
1370.392756	-3.001300	3.406300	-10.223000	26.456074	0.000766	20.783332
1371.394533	-2.998000	3.404000	-10.204000	26.458310	0.000766	20.787950
1372.394833	-2.999200	3.406500	-10.216000	26.454033	0.000765	20.790289
1373.394310	-3.018100	3.404600	-10.274000	26.405995	0.000766	20.782310
1374.394075	-3.000000	3.404300	-10.211000	26.414626	0.000766	20.806632
1375.394033	-3.003700	3.404900	-10.227000	26.369158	0.000765	20.797918
1376.398274	-2.970900	3.404500	-10.113000	26.368857	0.000765	20.797616
1377.400306	-3.005000	3.404000	-10.228000	26.381497	0.000763	20.793250
1378.400006	-3.032100	3.401300	-10.311000	26.389486	0.000762	20.817400
1379.395482	-3.009000	3.402600	-10.238000	26.428936	0.000764	20.812480
1380.399102	-2.971300	3.402200	-10.109000	26.425658	0.000764	20.802073
1381.401685	-2.987100	3.401900	-10.160000	26.414157	0.000762	20.802842
1382.395617	-3.005100	3.401000	-10.220000	26.449752	0.000762	20.777926
1383.398531	-2.969700	3.400800	-10.098000	26.450248	0.000761	20.808770
1384.402258	-2.995600	3.400200	-10.185000	26.475568	0.000762	20.813357
1385.403141	-3.009200	3.400500	-10.230000	26.447411	0.000758	20.801177
1386.398284	-2.991400	3.398900	-10.166000	26.431560	0.000759	20.793306
1387.397186	-2.989200	3.399600	-10.161000	26.432430	0.000759	20.792758
1388.396874	-2.984400	3.399100	-10.143000	26.436595	0.000758	20.798367
1389.400802	-3.009800	3.397900	-10.226000	26.416310	0.000759	20.810695
1390.406273	-2.971900	3.398600	-10.099000	26.440222	0.000756	20.825720
1391.400893	-3.001200	3.397800	-10.196000	26.446698	0.000757	20.806150
1392.405241	-3.002300	3.396700	-10.196000	26.436067	0.000755	20.808742
1393.402916	-3.016500	3.394500	-10.238000	26.435425	0.000755	20.820898
1394.400576	-2.997500	3.394900	-10.175000	26.404313	0.000754	20.815233
1395.400717	-2.998100	3.395100	-10.177000	26.381001	0.000753	20.803656
1396.408814	-3.015100	3.395200	-10.235000	26.358048	0.000754	20.815675
1397.400675	-2.982600	3.395200	-10.125000	26.347920	0.000754	20.829204
1398.405737	-2.990300	3.394500	-10.149000	26.381888	0.000753	20.824463
1399.411366	-2.990900	3.394200	-10.151000	26.363195	0.000751	20.825590
1400.407855	-2.978600	3.393400	-10.107000	26.367508	0.000750	20.823286
1401.400913	-2.993500	3.392900	-10.155000	26.333424	0.000751	20.801359
1402.402381	-3.002200	3.393200	-10.185000	26.372257	0.000751	20.834697
1403.401122	-2.989100	3.390900	-10.134000	26.417921	0.000749	20.805202
1404.399897	-3.013400	3.390800	-10.217000	26.436620	0.000747	20.840116
1405.402646	-3.016500	3.391000	-10.228000	26.428869	0.000750	20.838490
1406.402337	-3.020400	3.392100	-10.244000	26.455538	0.000748	20.838269
1407.401981	-3.022600	3.389800	-10.245000	26.496058	0.000746	20.848177
1408.405740	-2.987800	3.391100	-10.131000	26.503735	0.000747	20.829815
1409.402244	-3.010700	3.390000	-10.204000	26.519480	0.000745	20.828098
1410.402917	-3.006600	3.390200	-10.191000	26.507768	0.000746	20.833868
1411.406973	-2.981600	3.390900	-10.108000	26.483011	0.000744	20.831744
1412.404892	-3.023800	3.387000	-10.240000	26.457017	0.000744	20.830272
1413.402972	-3.014200	3.387800	-10.211000	26.424050	0.000744	20.827483
1414.406855	-3.013000	3.388600	-10.209000	26.408978	0.000741	20.830353
1415.409480	-3.009200	3.387600	-10.193000	26.438252	0.000741	20.832748
1416.408383	-2.986200	3.387400	-10.115000	26.453379	0.000739	20.848426
1417.406089	-3.000100	3.385600	-10.157000	26.447351	0.000742	20.829566
1418.429277	-2.999000	3.386100	-10.154000	26.433744	0.000741	20.850976
1419.414874	-3.003900	3.385200	-10.168000	26.437948	0.000740	20.833865
1420.417525	-2.994500	3.386200	-10.139000	26.440251	0.000740	20.833335
1421.408254	-3.012600	3.384200	-10.193000	26.464617	0.000739	20.821790
1422.410955	-2.998700	3.385100	-10.150000	26.525494	0.000737	20.843625
1423.411674	-3.013500	3.384200	-10.197000	26.509707	0.000739	20.848620
1424.408651	-3.005900	3.384500	-10.173000	26.465990	0.000736	20.844507
1425.414050	-2.992500	3.382800	-10.121000	26.458988	0.000736	20.853589
1426.412503	-2.988400	3.384400	-10.112000	26.469073	0.000736	20.844760
1427.410134	-2.994200	3.383300	-10.130000	26.455895	0.000735	20.835783
1428.414514	-2.998200	3.381700	-10.138000	26.503093	0.000734	20.818264
1429.415765	-2.996100	3.381600	-10.130000	26.487233	0.000733	20.818444
1430.420294	-3.004500	3.382300	-10.161000	26.530362	0.000734	20.846622
1431.416158	-3.008900	3.382300	-10.176000	26.545131	0.000733	20.835864
1432.412083	-2.983000	3.381300	-10.085000	26.558866	0.000733	20.844929
1433.417592	-3.012200	3.379300	-10.178000	26.569789	0.000731	20.849270
1434.418252	-2.986800	3.381200	-10.099000	26.537542	0.000732	20.852417
1435.413128	-2.993300	3.379800	-10.116000	26.488833	0.000731	20.831432
1436.414032	-2.995400	3.379000	-10.120000	26.476208	0.000730	20.834389
1437.416294	-3.024500	3.378700	-10.218000	26.439210	0.000729	20.828970
1438.414837	-3.036000	3.376500	-10.251000	26.434468	0.000728	20.837006
1439.415411	-2.998200	3.378500	-10.128000	26.444536	0.000728	20.833374
1440.415869	-3.024100	3.376800	-10.211000	26.434507	0.000727	20.822346
1441.419520	-3.020400	3.377500	-10.201000	26.392992	0.000727	20.813337
1442.417714	-2.987900	3.376800	-10.089000	26.403402	0.000728	20.822852
1443.419131	-2.999600	3.376100	-10.125000	26.395382	0.000725	20.829016
1444.420894	-3.026300	3.376300	-10.217000	26.427598	0.000726	20.828205
1445.416688	-3.015600	3.375300	-10.176000	26.466795	0.000723	20.823031
1446.417510	-3.001600	3.376000	-10.131000	26.448079	0.000724	20.818918
1447.417313	-3.008800	3.374400	-10.152000	26.454967	0.000724	20.832953
1448.418101	-2.989100	3.375600	-10.089000	26.510159	0.000723	20.826789
1449.421812	-3.000200	3.375400	-10.125000	26.517909	0.000724	20.831735
1450.418230	-2.996700	3.374800	-10.112000	26.558721	0.000722	20.831980
1451.423680	-2.998700	3.372600	-10.112000	26.588451	0.000721	20.822512
1452.418789	-3.014200	3.374100	-10.169000	26.580597	0.000722	20.812246
1453.419279	-3.017400	3.371500	-10.171000	26.601438	0.000720	20.793842
1454.421476	-2.978100	3.373600	-10.046000	26.588549	0.000720	20.818343
1455.421782	-2.994200	3.372600	-10.096000	26.617419	0.000719	20.825079
1456.419926	-2.982900	3.371800	-10.056000	26.639601	0.000719	20.822249
1457.423564	-2.987500	3.371800	-10.072000	26.652808	0.000718	20.821300
1458.421910	-2.984300	3.371200	-10.059000	26.645408	0.000718	20.847051
1459.417909	-3.011800	3.369200	-10.146000	26.639374	0.000717	20.799261
1460.420357	-3.003400	3.369700	-10.119000	26.650345	0.000717	20.815505
1461.425910	-2.982000	3.370500	-10.050000	26.656850	0.000717	20.795967
1462.420139	-3.013000	3.370600	-10.155000	26.658957	0.000714	20.815154
1463.422090	-2.998700	3.369200	-10.101000	26.664372	0.000714	20.802106
1464.421907	-2.996300	3.368800	-10.093000	26.636391	0.000716	20.812383
1465.424195	-3.009100	3.369000	-10.137000	26.669455	0.000714	20.814803
1466.426320	-2.991700	3.367400	-10.074000	26.671562	0.000714	20.805067
1467.425771	-2.984100	3.367800	-10.049000	26.669399	0.000713	20.801470
1468.424984	-2.998100	3.367600	-10.096000	26.646760	0.000712	20.806686
1469.425475	-3.017400	3.365400	-10.154000	26.574839	0.000712	20.797923
1470.428301	-2.984100	3.366300	-10.045000	26.576187	0.000712	20.798330
1471.426583	-3.028400	3.364000	-10.187000	26.599789	0.000711	20.790287
1472.426286	-3.008200	3.364900	-10.121000	26.634661	0.000711	20.788833
1473.426558	-2.999900	3.365300	-10.095000	26.640101	0.000709	20.806155
1474.426069	-2.995300	3.365600	-10.080000	26.657056	0.000709	20.801863
1475.426573	-3.010200	3.363600	-10.125000	26.660773	0.000707	20.786634
1476.425784	-3.005900	3.363200	-10.109000	26.687713	0.000708	20.811821
1477.428956	-2.990100	3.364700	-10.060000	26.721873	0.000708	20.775989
1478.428102	-3.006600	3.362700	-10.109000	26.723857	0.000707	20.783674
1479.429061	-2.991500	3.363100	-10.060000	26.672564	0.000705	20.769564
1480.432789	-2.992200	3.362700	-10.061000	26.666506	0.000706	20.800458
1481.432497	-3.008700	3.361000	-10.110000	26.672980	0.000706	20.806018
1482.428670	-2.991700	3.362000	-10.056000	26.657601	0.000705	20.787238
1483.432349	-3.001400	3.360000	-10.084000	26.634954	0.000704	20.804301
1484.430660	-2.977200	3.362200	-10.009000	26.634685	0.000702	20.794073
1485.431446	-2.979500	3.360600	-10.012000	26.638962	0.000703	20.801691
1486.431401	-3.007200	3.361000	-10.105000	26.659512	0.000704	20.803858
1487.429976	-3.026400	3.359700	-10.166000	26.655592	0.000701	20.801340
1488.431322	-2.990200	3.360500	-10.046000	26.660658	0.000700	20.793157
1489.431214	-3.012800	3.358000	-10.116000	26.691762	0.000699	20.796451
1490.430597	-2.998200	3.359000	-10.070000	26.699430	0.000699	20.788039
1491.433260	-3.004000	3.358900	-10.089000	26.641149	0.000700	20.783027
1492.432861	-2.975000	3.359900	-9.993800	26.654135	0.000699	20.799876
1493.436410	-2.982300	3.358400	-10.015000	26.659414	0.000698	20.776259
1494.434088	-2.989300	3.358500	-10.039000	26.673197	0.000697	20.774468
1495.432463	-2.985200	3.357700	-10.021000	26.685914	0.000698	20.786304
1496.436719	-2.996900	3.355900	-10.057000	26.727938	0.000696	20.773551
1497.436534	-2.999800	3.355900	-10.066000	26.743907	0.000696	20.779175
1498.435014	-2.996200	3.354800	-10.051000	26.750257	0.000696	20.794569
1499.434581	-2.990700	3.356200	-10.036000	26.801393	0.000693	20.781970
1500.434366	-2.989300	3.355800	-10.031000	26.783179	0.000694	20.795426
1501.433567	-3.000600	3.354300	-10.063000	26.735627	0.000691	20.774170
1502.437283	-3.017800	3.354300	-10.122000	26.713999	0.000691	20.787513
1503.434279	-3.016200	3.353800	-10.115000	26.662304	0.000693	20.780587
1504.436193	-2.990900	3.354000	-10.031000	26.638606	0.000690	20.777626
1505.435991	-3.003400	3.354300	-10.073000	26.647446	0.000691	20.794573
1506.437039	-3.002500	3.352800	-10.066000	26.634637	0.000690	20.766524
1507.436344	-2.996900	3.352700	-10.047000	26.634043	0.000690	20.765453
1508.437701	-3.002100	3.351900	-10.062000	26.610247	0.000690	20.778515
1509.438000	-3.002200	3.350700	-10.058000	26.630302	0.000686	20.774968
1510.437996	-3.017500	3.350600	-10.110000	26.650615	0.000687	20.771206
1511.437525	-3.008500	3.350600	-10.079000	26.666829	0.000687	20.775179
1512.440660	-2.992400	3.350400	-10.024000	26.692965	0.000686	20.770634
1513.436517	-2.992000	3.350600	-10.024000	26.702510	0.000684	20.765056
1514.436821	-3.011700	3.349000	-10.085000	26.698590	0.000685	20.782453
1515.441396	-2.980000	3.349900	-9.982000	26.673415	0.000683	20.784645
1516.440549	-3.000700	3.346900	-10.041000	26.674079	0.000683	20.764923
1517.439639	-2.987400	3.347500	-9.999600	26.677852	0.000682	20.772510
1518.441240	-2.968400	3.349000	-9.939400	26.722982	0.000682	20.757189
1519.445185	-3.002900	3.346600	-10.048000	26.714623	0.000683	20.786718
1520.440662	-3.003600	3.346200	-10.048000	26.718176	0.000682	20.766107
1521.441494	-2.988900	3.347100	-10.004000	26.748960	0.000682	20.754857
1522.441156	-3.021300	3.344300	-10.102000	26.777582	0.000678	20.779841
1523.440252	-3.005900	3.345200	-10.054000	26.805982	0.000679	20.778998
1524.442000	-3.006800	3.344300	-10.055000	26.829170	0.000680	20.762483
1525.445124	-3.022300	3.343900	-10.105000	26.802713	0.000679	20.751054
1526.441650	-2.987400	3.344600	-9.990700	26.846999	0.000676	20.773298
1527.442605	-3.003600	3.342900	-10.039000	26.864349	0.000677	20.776993
1528.441741	-2.995500	3.343900	-10.015000	26.839957	0.000678	20.761476
1529.441794	-2.999400	3.343300	-10.027000	26.855795	0.000678	20.765547
1530.443244	-2.993000	3.343200	-10.005000	26.837956	0.000676	20.762308
1531.445442	-2.995300	3.342100	-10.010000	26.778072	0.000675	20.759471
1532.446993	-3.011200	3.342100	-10.062000	26.766209	0.000675	20.747068
1533.443672	-2.985900	3.342200	-9.977300	26.713150	0.000674	20.762952
1534.445747	-3.012500	3.342000	-10.066000	26.663604	0.000672	20.739219
1535.444236	-3.008200	3.342100	-10.053000	26.676370	0.000675	20.744941
1536.445747	-3.002700	3.340700	-10.030000	26.695781	0.000673	20.749756
1537.443638	-3.010100	3.340200	-10.053000	26.698251	0.000672	20.749395
1538.447080	-2.992400	3.341100	-9.996900	26.723621	0.000671	20.738865
1539.443878	-3.017800	3.338100	-10.072000	26.724889	0.000672	20.744407
1540.446422	-3.003000	3.339500	-10.027000	26.721302	0.000670	20.772096
1541.446412	-3.019900	3.338000	-10.079000	26.705990	0.000669	20.767133
1542.449450	-3.010300	3.338200	-10.048000	26.728261	0.000668	20.747323
1543.446293	-3.000900	3.336900	-10.013000	26.695995	0.000668	20.749498
1544.449909	-2.991900	3.336300	-9.980600	26.671079	0.000666	20.754320
1545.446347	-3.018700	3.335900	-10.069000	26.675778	0.000666	20.749087
1546.446968	-3.004900	3.336000	-10.023000	26.677850	0.000667	20.751645
1547.451294	-3.008100	3.336000	-10.034000	26.688349	0.000665	20.747026
1548.448343	-3.013100	3.333900	-10.044000	26.686868	0.000666	20.755494
1549.449645	-3.019800	3.334100	-10.067000	26.682347	0.000664	20.747630
1550.451149	-3.001100	3.333300	-10.002000	26.684835	0.000663	20.744915
1551.451940	-3.011400	3.335400	-10.043000	26.701227	0.000664	20.741006
1552.457181	-2.989900	3.334300	-9.968000	26.710220	0.000660	20.741512
1553.451242	-3.008600	3.334200	-10.030000	26.731922	0.000662	20.753848
1554.453808	-3.036300	3.333200	-10.120000	26.736093	0.000659	20.739075
1555.452847	-2.990600	3.334000	-9.969700	26.718797	0.000660	20.740652
1556.452761	-2.986600	3.332800	-9.951300	26.669429	0.000658	20.734169
1557.455500	-2.989100	3.332700	-9.960300	26.649903	0.000661	20.724970
1558.453278	-2.978300	3.332400	-9.923700	26.669101	0.000657	20.741900
1559.452581	-2.974500	3.332400	-9.910000	26.681347	0.000659	20.728606
1560.455160	-2.981000	3.331700	-9.931300	26.707905	0.000656	20.748669
1561.453978	-2.995800	3.330000	-9.975000	26.672295	0.000656	20.742267
1562.454311	-2.999600	3.330400	-9.988800	26.699650	0.000653	20.749853
1563.455825	-2.989400	3.330600	-9.954400	26.717059	0.000653	20.708558
1564.454879	-2.991500	3.330200	-9.960700	26.754373	0.000652	20.737540
1565.455656	-2.963700	3.330700	-9.869800	26.701510	0.000654	20.745559
1566.457282	-2.985900	3.330900	-9.944400	26.721612	0.000655	20.739215
1567.455909	-2.979500	3.328600	-9.916700	26.748159	0.000653	20.739827
1568.455101	-3.030400	3.327300	-10.082000	26.743182	0.000651	20.757108
1569.456052	-3.013600	3.328800	-10.030000	26.772722	0.000650	20.732279
1570.457884	-2.984800	3.327300	-9.929800	26.725040	0.000652	20.746456
1571.456891	-2.998600	3.327100	-9.976000	26.710452	0.000651	20.723253
1572.456233	-2.988100	3.325200	-9.934800	26.678583	0.000649	20.759020
1573.458302	-2.984700	3.328300	-9.932900	26.698197	0.000649	20.727054
1574.457382	-3.034000	3.323500	-10.082000	26.723445	0.000649	20.731100
1575.455661	-3.004900	3.325900	-9.993400	26.719931	0.000647	20.723774
1576.456518	-2.987400	3.326400	-9.935300	26.698627	0.000646	20.709467
1577.458973	-3.003900	3.324400	-9.985500	26.647533	0.000648	20.722113
1578.455716	-2.978200	3.325200	-9.901900	26.634197	0.000646	20.740002
1579.456211	-3.020300	3.323200	-10.037000	26.624527	0.000646	20.735496
1580.458834	-2.990200	3.323100	-9.934300	26.619688	0.000644	20.727786
1581.456296	-2.989900	3.323000	-9.934000	26.604821	0.000644	20.703831
1582.455638	-2.976000	3.323900	-9.890900	26.578781	0.000644	20.741193
1583.460275	-2.993500	3.321200	-9.940000	26.562345	0.000643	20.724671
1584.455917	-2.998400	3.320800	-9.955200	26.521339	0.000643	20.716167
1585.456767	-2.974400	3.322800	-9.882400	26.552318	0.000641	20.705106
1586.456665	-2.987700	3.321300	-9.922700	26.563890	0.000641	20.717688
1587.457121	-2.994000	3.321900	-9.944100	26.598428	0.000641	20.719216
1588.465275	-3.007800	3.320200	-9.985400	26.632672	0.000640	20.731830
1589.457036	-3.028900	3.319700	-10.054000	26.683782	0.000640	20.716354
1590.460069	-2.994900	3.320200	-9.943400	26.690937	0.000640	20.725919
1591.459553	-2.992700	3.319200	-9.932100	26.714396	0.000638	20.726745
1592.459238	-3.006000	3.319700	-9.977500	26.747507	0.000638	20.717833
1593.460592	-3.015200	3.317000	-10.000000	26.769827	0.000637	20.697124
1594.459379	-2.992800	3.318400	-9.929400	26.803383	0.000637	20.720433
1595.460544	-2.982200	3.318800	-9.895900	26.844711	0.000638	20.697974
1596.460454	-3.015900	3.316600	-10.000000	26.870127	0.000635	20.709780
1597.459658	-3.001300	3.316500	-9.953300	26.878898	0.000636	20.712910
1598.459719	-3.010700	3.314900	-9.979300	26.869914	0.000634	20.711937
1599.461910	-2.990800	3.317700	-9.921700	26.889199	0.000631	20.709991
1600.460999	-2.976700	3.315500	-9.867600	26.890558	0.000633	20.706141
1601.461065	-2.975300	3.317100	-9.867800	26.897907	0.000632	20.717325
1602.462122	-2.987700	3.314400	-9.901700	26.917956	0.000632	20.711406
1603.462070	-3.005100	3.313000	-9.955200	26.916346	0.000631	20.723538
1604.461623	-2.992200	3.314400	-9.916400	26.878444	0.000632	20.707711
1605.462662	-3.012500	3.313200	-9.980200	26.868150	0.000628	20.714431
1606.462060	-3.020300	3.311800	-10.001000	26.899297	0.000628	20.725361
1607.463150	-2.976700	3.312700	-9.860200	26.894298	0.000628	20.712748
1608.463863	-3.009100	3.310300	-9.960200	26.930956	0.000628	20.713573
1609.463536	-3.011100	3.310000	-9.965300	26.930712	0.000626	20.713327
1610.464441	-3.010500	3.310600	-9.964600	26.966987	0.000626	20.707605
1611.468664	-3.013900	3.310200	-9.975800	27.008829	0.000625	20.719811
1612.465934	-3.014900	3.310200	-9.979300	26.978279	0.000627	20.713745
1613.465829	-2.989000	3.310600	-9.894400	26.935964	0.000625	20.679252
1614.467563	-3.020600	3.309000	-9.993800	26.850817	0.000623	20.707433
1615.468443	-3.003100	3.309200	-9.936300	26.792285	0.000621	20.702161
1616.471807	-3.007000	3.309500	-9.950600	26.804896	0.000622	20.694925
1617.469972	-2.992700	3.309500	-9.903000	26.826215	0.000621	20.708300
1618.469731	-3.022200	3.307700	-9.995200	26.850817	0.000621	20.693207
1619.473134	-2.997900	3.308000	-9.914500	26.881542	0.000620	20.700394
1620.471872	-3.006000	3.307000	-9.939300	26.866867	0.000620	20.706976
1621.469643	-2.997000	3.307400	-9.911800	26.896055	0.000619	20.699340
1622.468689	-3.026500	3.306400	-10.005000	26.909014	0.000617	20.700991
1623.470120	-3.013800	3.304800	-9.959100	26.933460	0.000617	20.707556
1624.469704	-3.009400	3.306700	-9.949500	26.957305	0.000617	20.703559
1625.472071	-3.008800	3.304900	-9.941800	26.942695	0.000618	20.695979
1626.470964	-3.007000	3.305500	-9.937800	26.918533	0.000615	20.688276
1627.471131	-2.967900	3.304800	-9.807500	26.910094	0.000615	20.686903
1628.473013	-3.002400	3.304800	-9.921400	26.948337	0.000614	20.700230
1629.471632	-3.006500	3.304300	-9.933400	26.935588	0.000613	20.704954
1630.470462	-3.000500	3.301800	-9.905900	26.915557	0.000613	20.703303
1631.470800	-2.979800	3.304600	-9.846100	26.878825	0.000613	20.710939
1632.472598	-2.975400	3.303600	-9.828500	26.901247	0.000613	20.705510
1633.469987	-2.980200	3.302800	-9.842300	26.910995	0.000612	20.698242
1634.470611	-2.985800	3.303000	-9.861100	26.906629	0.000609	20.691480
1635.485037	-3.006000	3.301200	-9.922800	26.898369	0.000611	20.686967
1636.470342	-3.007900	3.300800	-9.927500	26.905247	0.000611	20.702419
1637.471051	-2.964000	3.300900	-9.782600	26.949920	0.000609	20.685699
1638.470879	-2.993200	3.301400	-9.880500	26.983820	0.000608	20.698928
1639.471139	-2.991800	3.300400	-9.872700	27.004095	0.000607	20.709360
1640.469979	-2.997500	3.299800	-9.889500	27.032629	0.000606	20.702018
1641.470672	-2.985300	3.300000	-9.851100	27.052756	0.000607	20.697129
1642.473015	-2.992500	3.299500	-9.872900	27.043805	0.000604	20.711362
1643.473044	-3.003900	3.297200	-9.903600	27.030465	0.000605	20.687987
1644.470533	-2.999800	3.298300	-9.893200	27.001745	0.000605	20.704625
1645.473119	-2.996200	3.298600	-9.882400	27.028977	0.000603	20.684120
1646.470105	-3.006000	3.297500	-9.910500	27.054625	0.000602	20.717502
1647.470506	-2.999000	3.297900	-9.888400	27.060095	0.000602	20.706881
1648.473077	-2.985300	3.297100	-9.841600	27.053917	0.000601	20.695925
1649.470394	-2.973900	3.298500	-9.808200	27.076848	0.000601	20.704289
1650.470145	-3.006000	3.296000	-9.906300	27.057371	0.000600	20.697029
1651.472723	-3.010800	3.296400	-9.923600	27.064443	0.000599	20.703193
1652.471020	-3.023900	3.293900	-9.958800	27.049908	0.000600	20.684781
1653.481606	-3.009100	3.295700	-9.916000	27.029861	0.000599	20.693545
1654.471108	-3.019700	3.294000	-9.945300	26.996378	0.000599	20.690218
1655.473758	-2.989100	3.293300	-9.842800	26.942950	0.000596	20.674422
1656.472832	-3.002100	3.293100	-9.884200	26.922137	0.000596	20.680046
1657.471076	-3.003400	3.292200	-9.886000	26.943998	0.000597	20.676425
1658.471034	-2.998500	3.292500	-9.871900	26.964574	0.000594	20.693324
1659.470982	-2.980000	3.292000	-9.809500	26.996913	0.000593	20.682221
1660.470718	-3.041200	3.289700	-10.002000	26.959273	0.000594	20.690837
1661.475923	-2.990500	3.292400	-9.845100	26.938648	0.000595	20.688115
1662.470579	-3.010200	3.289100	-9.899800	26.898983	0.000595	20.689007
1663.472352	-3.015300	3.290600	-9.920500	26.884421	0.000593	20.691434
1664.470909	-3.004700	3.290200	-9.885600	26.872144	0.000590	20.695211
1665.472469	-3.026500	3.290900	-9.958100	26.901551	0.000590	20.705815
1666.473815	-2.998200	3.287700	-9.855900	26.922005	0.000593	20.701727
1667.473291	-2.981500	3.290100	-9.807100	26.954687	0.000591	20.699977
1668.474912	-2.980900	3.290000	-9.806200	26.915006	0.000590	20.672874
1669.474122	-3.005100	3.289100	-9.880800	26.905673	0.000588	20.699054
1670.472121	-2.990300	3.287500	-9.829100	26.922819	0.000590	20.693061
1671.475867	-2.991200	3.288200	-9.834600	26.935233	0.000586	20.679464
1672.473005	-3.007400	3.286900	-9.884400	26.879364	0.000586	20.694884
1673.474488	-2.998000	3.287100	-9.854300	26.872916	0.000585	20.684607
1674.474018	-2.987400	3.284900	-9.812900	26.832557	0.000587	20.692865
1675.473114	-3.009900	3.284900	-9.885200	26.822800	0.000585	20.692064
1676.473698	-3.011900	3.284400	-9.891100	26.833751	0.000583	20.686953
1677.476561	-2.993300	3.285400	-9.833100	26.863338	0.000584	20.684934
1678.474922	-3.004800	3.285200	-9.869900	26.891722	0.000582	20.706837
1679.474736	-3.010300	3.283000	-9.882100	26.888054	0.000581	20.686078
1680.478304	-2.979500	3.282800	-9.780000	26.882997	0.000582	20.693796
1681.476233	-2.997900	3.283300	-9.841600	26.887859	0.000581	20.683511
1682.476577	-2.983000	3.284300	-9.796000	26.892948	0.000579	20.675351
1683.478242	-3.014900	3.283100	-9.896500	26.917615	0.000580	20.698260
1684.476449	-3.013900	3.281200	-9.888000	26.940720	0.000579	20.707744
1685.476694	-2.990000	3.281300	-9.810400	26.953622	0.000577	20.690371
1686.476686	-3.006300	3.281400	-9.864100	26.958240	0.000577	20.684582
1687.475904	-2.997000	3.281700	-9.834500	27.001049	0.000577	20.720048
1688.478302	-3.013600	3.281000	-9.887000	26.977621	0.000573	20.696486
1689.476110	-3.009000	3.281200	-9.872100	26.971467	0.000576	20.680339
1690.478738	-3.004700	3.280200	-9.854600	26.984596	0.000575	20.717726
1691.482815	-2.997000	3.278600	-9.822900	27.002618	0.000572	20.689855
1692.478208	-2.989800	3.280000	-9.805200	26.986750	0.000573	20.703297
1693.482605	-3.001300	3.279800	-9.842300	26.994375	0.000573	20.699110
1694.483006	-2.969000	3.278800	-9.733600	26.992887	0.000571	20.701882
1695.479526	-2.997100	3.277900	-9.821400	27.012519	0.000572	20.707400
1696.482311	-2.986100	3.279200	-9.791600	26.996286	0.000569	20.704825
1697.481848	-2.986500	3.275600	-9.781700	27.017723	0.000571	20.685604
1698.480400	-2.982900	3.277500	-9.774800	27.067082	0.000570	20.714383
1699.483021	-3.004800	3.276400	-9.844400	27.059489	0.000570	20.707695
1700.498643	-2.989400	3.275400	-9.790300	27.036167	0.000571	20.696567
1701.485868	-3.000000	3.275000	-9.824500	27.071828	0.000569	20.700189
1702.485436	-2.994300	3.275600	-9.806900	27.104034	0.000569	20.689904
1703.481651	-2.996900	3.275100	-9.812700	27.117259	0.000566	20.707000
1704.483556	-3.007100	3.272900	-9.840200	27.136076	0.000566	20.698897
1705.484166	-2.995500	3.273900	-9.806300	27.093743	0.000566	20.699943
1706.483293	-2.970100	3.273900	-9.722400	27.087443	0.000566	20.699771
1707.484474	-3.021300	3.272600	-9.886500	27.114609	0.000564	20.707653
1708.485846	-3.000800	3.273600	-9.822300	27.113999	0.000562	20.709410
1709.483727	-2.978500	3.272900	-9.747600	27.113275	0.000562	20.713425
1710.484578	-2.992500	3.271800	-9.790500	27.108463	0.000562	20.699101
1711.484806	-3.010700	3.270700	-9.845800	27.095043	0.000562	20.705993
1712.485273	-2.989700	3.271600	-9.780400	27.111422	0.000562	20.709663
1713.484712	-2.960100	3.271600	-9.683400	27.137278	0.000561	20.708167
1714.484717	-2.974800	3.270700	-9.728400	27.134278	0.000561	20.704202
1715.486344	-3.026700	3.268500	-9.891400	27.159939	0.000560	20.702983
1716.487190	-3.001700	3.269300	-9.812300	27.196661	0.000559	20.706727
1717.486730	-3.000400	3.269500	-9.809000	27.214445	0.000558	20.710391
1718.489016	-2.983000	3.268400	-9.748300	27.265094	0.000559	20.712499
1719.486757	-2.994900	3.269500	-9.790700	27.278488	0.000555	20.707479
1720.487302	-3.014000	3.266600	-9.844500	27.304892	0.000556	20.715548
1721.491619	-2.984100	3.267800	-9.750800	27.287207	0.000556	20.704870
1722.486806	-3.023900	3.266400	-9.875400	27.299764	0.000555	20.728408
1723.488082	-2.966200	3.268200	-9.693100	27.322812	0.000553	20.706072
1724.486671	-3.013700	3.266600	-9.843800	27.289418	0.000555	20.716578
1725.486510	-3.024100	3.263900	-9.869300	27.280982	0.000552	20.715678
1726.488232	-2.976600	3.265800	-9.720500	27.297334	0.000551	20.719324
1727.487154	-3.013400	3.263500	-9.833200	27.288304	0.000551	20.716880
1728.489842	-2.995200	3.265700	-9.780400	27.284809	0.000552	20.710519
1729.487309	-2.987500	3.266000	-9.755400	27.305281	0.000550	20.717836
1730.487566	-3.007300	3.263000	-9.812000	27.326939	0.000549	20.725398
1731.492312	-2.997100	3.264400	-9.782400	27.326395	0.000547	20.723428
1732.489362	-2.999500	3.264000	-9.788800	27.352148	0.000547	20.739378
1733.491862	-3.015000	3.260800	-9.830300	27.328036	0.000547	20.721285
1734.494145	-2.983800	3.262100	-9.733100	27.324387	0.000548	20.725202
1735.491540	-3.006600	3.261700	-9.805900	27.298836	0.000546	20.708981
1736.490034	-3.010200	3.261900	-9.817200	27.249634	0.000545	20.724924
1737.493568	-3.021400	3.261200	-9.851000	27.208459	0.000545	20.720492
1738.489827	-3.017400	3.260200	-9.836300	27.175086	0.000544	20.733393
1739.490203	-2.988500	3.261600	-9.746400	27.128397	0.000541	20.708244
1740.488901	-3.008700	3.260300	-9.808500	27.115619	0.000544	20.712463
1741.491384	-2.996000	3.259500	-9.764200	27.110873	0.000542	20.735666
1742.489144	-2.997600	3.260400	-9.770400	27.148417	0.000541	20.727433
1743.491596	-2.997200	3.259600	-9.767800	27.166640	0.000542	20.741494
1744.489307	-3.009200	3.257500	-9.801200	27.199168	0.000539	20.719207
1745.489512	-2.994200	3.259600	-9.759000	27.259189	0.000538	20.729320
1746.489561	-3.036900	3.256100	-9.887600	27.258547	0.000537	20.726303
1747.489530	-2.995500	3.257800	-9.757500	27.265195	0.000538	20.728723
1748.491187	-3.031900	3.256300	-9.870400	27.220916	0.000538	20.739661
1749.489346	-2.982800	3.258200	-9.717100	27.198191	0.000536	20.727234
1750.489319	-3.028800	3.257000	-9.864000	27.208789	0.000535	20.709444
1751.492414	-3.005300	3.255200	-9.781700	27.240771	0.000536	20.721699
1752.492626	-3.035000	3.254500	-9.874700	27.266380	0.000535	20.754572
1753.490737	-3.024500	3.254100	-9.839600	27.315508	0.000534	20.745669
1754.493533	-2.995100	3.254400	-9.746800	27.324212	0.000534	20.746838
1755.495621	-2.991100	3.253100	-9.729000	27.344261	0.000534	20.743772
1756.495226	-2.976600	3.255000	-9.687800	27.361132	0.000533	20.717120
1757.494823	-2.976900	3.252700	-9.681200	27.431586	0.000533	20.718771
1758.494267	-2.975600	3.253500	-9.679200	27.427816	0.000531	20.749118
1759.492227	-3.018500	3.251800	-9.813800	27.469981	0.000530	20.746494
1760.493027	-3.003600	3.251200	-9.764300	27.457630	0.000530	20.752560
1761.495842	-3.023500	3.251200	-9.828800	27.377458	0.000531	20.743502
1762.493142	-3.003300	3.251700	-9.764500	27.341758	0.000529	20.755005
1763.493665	-2.991200	3.251000	-9.723200	27.329429	0.000529	20.756354
1764.495381	-3.003900	3.251200	-9.764900	27.327495	0.000528	20.731648
1765.494853	-3.003100	3.250200	-9.757600	27.310802	0.000527	20.748047
1766.493762	-2.997400	3.250000	-9.739800	27.300205	0.000528	20.726481
1767.496773	-3.005300	3.249500	-9.764100	27.278026	0.000525	20.742578
1768.496160	-3.006100	3.249200	-9.766100	27.303009	0.000524	20.743052
1769.496289	-2.992400	3.248400	-9.719800	27.326137	0.000523	20.734549
1770.499129	-2.986000	3.247300	-9.695800	27.370339	0.000523	20.739185
1771.497258	-3.003900	3.248500	-9.757400	27.380195	0.000522	20.750998
1772.497258	-3.000400	3.248300	-9.745300	27.361659	0.000521	20.757482
1773.499147	-3.017400	3.245900	-9.793100	27.367323	0.000520	20.735677
1774.496215	-2.993500	3.248100	-9.722000	27.357701	0.000521	20.752551
1775.498099	-2.989100	3.245800	-9.699700	27.352533	0.000519	20.752094
1776.501738	-3.002700	3.245300	-9.742900	27.385388	0.000518	20.755273
1777.498148	-3.036600	3.243900	-9.848700	27.399698	0.000515	20.755919
1778.497275	-2.990100	3.246900	-9.707400	27.370403	0.000517	20.746362
1779.503913	-3.004900	3.244300	-9.747200	27.363154	0.000516	20.742863
1780.498417	-3.013900	3.243200	-9.773700	27.388467	0.000515	20.769751
1781.499113	-3.004600	3.244600	-9.747200	27.416471	0.000515	20.771844
1782.504381	-2.996700	3.242200	-9.714800	27.430349	0.000514	20.755460
1783.502868	-3.006900	3.242100	-9.747200	27.419558	0.000514	20.755984
1784.500753	-3.003400	3.242300	-9.736700	27.415885	0.000513	20.770781
1785.503098	-3.003900	3.242400	-9.738600	27.409318	0.000511	20.754691
1786.498829	-3.013700	3.240100	-9.763000	27.373766	0.000512	20.754013
1787.498358	-3.018800	3.241700	-9.784100	27.342316	0.000512	20.775955
1788.505554	-3.016400	3.240700	-9.774800	27.343315	0.000511	20.758468
1789.502249	-2.974300	3.241000	-9.638900	27.383923	0.000511	20.758542
1790.504816	-2.991200	3.240900	-9.692800	27.432965	0.000508	20.763782
1791.498635	-2.995300	3.239900	-9.703100	27.452735	0.000509	20.781776
1792.501198	-3.010500	3.239700	-9.753000	27.503017	0.000507	20.772145
1793.500839	-2.996000	3.240300	-9.707000	27.503683	0.000507	20.752426
1794.501290	-3.004100	3.239600	-9.730700	27.531708	0.000507	20.772088
1795.503240	-3.011000	3.237200	-9.746700	27.569863	0.000505	20.758320
1796.502367	-3.005100	3.237500	-9.728700	27.588940	0.000503	20.766610
1797.503559	-3.009200	3.236200	-9.737100	27.595041	0.000503	20.776543
1798.503590	-2.988100	3.236500	-9.670000	27.574680	0.000504	20.784979
1799.504428	-2.995500	3.236600	-9.694100	27.574517	0.000503	20.786712
1800.506074	-2.999500	3.235600	-9.704500	27.540538	0.000502	20.762955
1801.506606	-3.032200	3.234200	-9.805500	27.502617	0.000501	20.760837
1802.504844	-3.001900	3.235500	-9.710900	27.481555	0.000500	20.783270
1803.506160	-2.996000	3.235100	-9.689700	27.430338	0.000497	20.768726
1804.504679	-2.979200	3.235800	-9.638600	27.429054	0.000499	20.802521
1805.506298	-3.008900	3.235200	-9.732200	27.433564	0.000498	20.777661
1806.512275	-2.998600	3.233800	-9.695700	27.506004	0.000497	20.784160
1807.506805	-2.988700	3.234700	-9.666800	27.546338	0.000498	20.769264
1808.505729	-2.989100	3.233000	-9.662000	27.578935	0.000495	20.761285
1809.510208	-3.004700	3.232100	-9.710200	27.534141	0.000495	20.769795
1810.513077	-3.002700	3.232500	-9.705100	27.505296	0.000493	20.785819
1811.505425	-3.001900	3.230400	-9.696200	27.443264	0.000494	20.766083
1812.506960	-3.010700	3.229400	-9.722100	27.429223	0.000491	20.783251
1813.507944	-2.991500	3.232400	-9.668400	27.382992	0.000492	20.791745
1814.517077	-2.998400	3.228800	-9.680800	27.373858	0.000491	20.793462
1815.507961	-2.981600	3.231100	-9.632300	27.354907	0.000491	20.790045
1816.510789	-2.983000	3.229500	-9.632000	27.285706	0.000490	20.769270
1817.508698	-3.027000	3.229100	-9.773400	27.305625	0.000489	20.776506
1818.509449	-3.005400	3.227500	-9.698500	27.342025	0.000487	20.797474
1819.510945	-2.992900	3.227700	-9.658100	27.366591	0.000488	20.783306
1820.510991	-3.008500	3.227100	-9.707000	27.410449	0.000487	20.788547
1821.514159	-2.996700	3.227900	-9.672000	27.463561	0.000485	20.790296
1822.510154	-3.014000	3.227000	-9.724700	27.488295	0.000485	20.782938
1823.515689	-3.023700	3.226800	-9.756100	27.543710	0.000484	20.774681
1824.512314	-3.004200	3.224600	-9.686900	27.555687	0.000482	20.793370
1825.511161	-3.009400	3.225600	-9.706200	27.621350	0.000482	20.767453
1826.514161	-3.007900	3.224800	-9.698100	27.635219	0.000483	20.762916
1827.513653	-2.995200	3.224500	-9.656800	27.656399	0.000482	20.792289
1828.511570	-2.995500	3.223500	-9.655000	27.680138	0.000481	20.796262
1829.513725	-3.001300	3.223300	-9.673400	27.721659	0.000477	20.784465
1830.514908	-3.031000	3.223300	-9.768700	27.702738	0.000479	20.786762
1831.511112	-3.025600	3.222100	-9.748000	27.683224	0.000479	20.796997
1832.511833	-2.994900	3.222800	-9.651200	27.649175	0.000478	20.777434
1833.513425	-3.013000	3.222600	-9.708800	27.558333	0.000478	20.774695
1834.514228	-3.003300	3.221700	-9.674900	27.553896	0.000475	20.807689
1835.510816	-2.989000	3.221200	-9.627000	27.490844	0.000475	20.801624
1836.517981	-2.986400	3.221600	-9.620000	27.490924	0.000473	20.803127
1837.512308	-2.988400	3.219500	-9.620300	27.532218	0.000474	20.800103
1838.513606	-3.022800	3.219000	-9.728600	27.527115	0.000476	20.789279
1839.513511	-3.004600	3.220400	-9.674400	27.544210	0.000474	20.813591
1840.512931	-3.009900	3.218400	-9.686300	27.582804	0.000472	20.789834
1841.518881	-3.000200	3.219000	-9.656400	27.604010	0.000473	20.802636
1842.515164	-2.993400	3.218100	-9.631800	27.645355	0.000471	20.811048
1843.516264	-3.011200	3.218300	-9.689300	27.673481	0.000470	20.806634
1844.513718	-3.047000	3.216500	-9.799100	27.611760	0.000468	20.801426
1845.520124	-3.003500	3.216900	-9.660600	27.568772	0.000469	20.812225
1846.515608	-2.998700	3.217300	-9.647100	27.554236	0.000466	20.788591
1847.523423	-3.020100	3.216200	-9.712000	27.572420	0.000466	20.799300
1848.515780	-3.016700	3.216400	-9.701500	27.611110	0.000465	20.813574
1849.513680	-2.986600	3.215800	-9.603600	27.603002	0.000463	20.818691
1850.516070	-3.010600	3.216000	-9.681300	27.597574	0.000465	20.788574
1851.516200	-2.987000	3.216600	-9.606200	27.633363	0.000465	20.818421
1852.520102	-3.003200	3.213800	-9.650900	27.658540	0.000461	20.805349
1853.514768	-3.005000	3.214000	-9.656200	27.696090	0.000461	20.805202
1854.518675	-3.019400	3.213300	-9.701200	27.742615	0.000462	20.808872
1855.516559	-3.020600	3.212300	-9.702100	27.773436	0.000462	20.819500
1856.517687	-3.004500	3.211700	-9.649200	27.767440	0.000460	20.822001
1857.521140	-2.998900	3.212600	-9.633300	27.783370	0.000461	20.803893
1858.519049	-3.010600	3.211700	-9.667300	27.788789	0.000460	20.830683
1859.522150	-3.013300	3.210100	-9.671600	27.789690	0.000460	20.812624
1860.520589	-2.991100	3.210500	-9.601800	27.819201	0.000455	20.818142
1861.521168	-3.001600	3.210600	-9.635500	27.805790	0.000455	20.812706
1862.523118	-3.000600	3.209900	-9.629700	27.772452	0.000455	20.805708
1863.525742	-2.988300	3.209700	-9.590400	27.740023	0.000455	20.808635
1864.524828	-2.992700	3.209700	-9.604400	27.697072	0.000453	20.831794
1865.522009	-2.987600	3.209200	-9.586200	27.696267	0.000453	20.830510
1866.523436	-2.976900	3.210400	-9.556400	27.713522	0.000453	20.841235
1867.527864	-3.003500	3.207900	-9.634100	27.769323	0.000451	20.817733
1868.523323	-2.996300	3.207800	-9.609800	27.816390	0.000451	20.821951
1869.524187	-2.987200	3.207000	-9.579200	27.818599	0.000448	20.816114
1870.524566	-3.001100	3.206100	-9.619800	27.816365	0.000449	20.843262
1871.530284	-3.011400	3.206000	-9.653100	27.835340	0.000446	20.822531
1872.525882	-3.020400	3.205600	-9.680300	27.907226	0.000444	20.846041
1873.528160	-2.987100	3.207200	-9.578700	27.918239	0.000446	20.824885
1874.530774	-3.002000	3.203400	-9.615400	27.931276	0.000445	20.828523
1875.525998	-3.010200	3.204500	-9.645100	27.975589	0.000444	20.821443
1876.528028	-2.988000	3.204700	-9.575100	28.006037	0.000443	20.811314
1877.528294	-2.974200	3.205400	-9.532000	28.053954	0.000443	20.820666
1878.531409	-3.007800	3.202400	-9.630800	28.070821	0.000443	20.807774
1879.526941	-2.990400	3.203700	-9.577700	28.096410	0.000442	20.806507
1880.529327	-2.973200	3.203700	-9.523900	28.115519	0.000440	20.791130
1881.525993	-3.003600	3.202600	-9.618300	28.112766	0.000438	20.831980
1882.528983	-2.984200	3.202600	-9.555100	28.103078	0.000438	20.819382
1883.531284	-2.998400	3.201000	-9.597200	28.137583	0.000436	20.817608
1884.530116	-2.978400	3.201900	-9.535000	28.121650	0.000436	20.784025
1885.532938	-2.987600	3.201400	-9.563000	28.144680	0.000437	20.828072
1886.531915	-3.018200	3.199300	-9.654300	28.134042	0.000435	20.817363
1887.532102	-3.008400	3.198200	-9.620100	28.110305	0.000433	20.813381
1888.531266	-3.014300	3.199100	-9.641300	28.053912	0.000432	20.836745
1889.532026	-2.994800	3.199400	-9.581000	28.018267	0.000433	20.817460
1890.537349	-3.003500	3.198100	-9.604400	27.967563	0.000432	20.802459
1891.536629	-2.993500	3.197400	-9.570200	27.919147	0.000433	20.804461
1892.543526	-2.980200	3.199800	-9.535500	27.932093	0.000431	20.791414
1893.531206	-2.990400	3.197800	-9.562000	27.961032	0.000432	20.802998
1894.543476	-3.000500	3.197100	-9.591200	27.963087	0.000430	20.789419
1895.532196	-3.006500	3.195300	-9.606300	27.994656	0.000428	20.788478
1896.531662	-2.993500	3.196600	-9.568600	27.985357	0.000429	20.807093
1897.536389	-3.014300	3.194400	-9.627700	27.991261	0.000426	20.787906
1898.532583	-2.997700	3.198300	-9.586700	28.011541	0.000426	20.794569
1899.532417	-2.987900	3.194700	-9.544900	27.989353	0.000424	20.792149
1900.533707	-3.007500	3.194200	-9.604700	27.961836	0.000423	20.783418
1901.537511	-3.008800	3.193800	-9.608500	27.946461	0.000422	20.771261
1902.536870	-2.964500	3.195200	-9.470900	27.943114	0.000420	20.782592
1903.532517	-2.995800	3.193100	-9.564000	27.976041	0.000421	20.783017
1904.536759	-2.989400	3.191000	-9.537000	28.003038	0.000420	20.795493
1905.537390	-2.981600	3.193400	-9.520800	28.025250	0.000419	20.778022
1906.533735	-2.986200	3.191100	-9.527900	27.999967	0.000419	20.776281
1907.536386	-2.979500	3.192300	-9.510700	27.956727	0.000419	20.801509
1908.533857	-3.008900	3.189400	-9.595700	27.923353	0.000416	20.784039
1909.534190	-2.997800	3.190000	-9.562000	27.926456	0.000416	20.773885
1910.534492	-3.006200	3.191300	-9.592800	27.945250	0.000415	20.799441
1911.542242	-2.999000	3.188400	-9.561000	27.909277	0.000413	20.785993
1912.537070	-3.000200	3.187500	-9.562600	27.870443	0.000414	20.792427
1913.534026	-3.016400	3.187200	-9.612700	27.801642	0.000411	20.799048
1914.535673	-3.012600	3.187300	-9.601400	27.792714	0.000413	20.785322
1915.535281	-2.983000	3.188600	-9.510400	27.788408	0.000412	20.788575
1916.540894	-3.006100	3.187300	-9.579400	27.784241	0.000410	20.777269
1917.536267	-3.018300	3.188100	-9.620200	27.810625	0.000409	20.775847
1918.535939	-2.996300	3.185200	-9.542900	27.831575	0.000409	20.765162
1919.536354	-2.981000	3.185500	-9.495100	27.837107	0.000409	20.788747
1920.535783	-3.012200	3.183200	-9.587300	27.848690	0.000406	20.756308
1921.536531	-2.992400	3.185700	-9.532300	27.847455	0.000406	20.780670
1922.536216	-2.979600	3.184600	-9.487900	27.838544	0.000405	20.786875
1923.537223	-3.002400	3.183200	-9.556500	27.837017	0.000405	20.781070
1924.537702	-2.995400	3.184200	-9.536000	27.809544	0.000405	20.771914
1925.537665	-2.999900	3.182500	-9.545800	27.778773	0.000403	20.772241
1926.538194	-3.004500	3.183100	-9.562800	27.751495	0.000402	20.771816
1927.543983	-2.978300	3.182900	-9.477800	27.755784	0.000401	20.773761
1928.540330	-2.994200	3.182000	-9.527100	27.769951	0.000398	20.760043
1929.540432	-3.020800	3.182300	-9.612000	27.784476	0.000398	20.756642
1930.540229	-3.023300	3.179300	-9.610800	27.837000	0.000398	20.745965
1931.542734	-2.981100	3.180100	-9.478800	27.862148	0.000397	20.768431
1932.544630	-2.999200	3.179400	-9.534600	27.868939	0.000397	20.753454
1933.541536	-2.987300	3.178800	-9.494300	27.857315	0.000397	20.774946
1934.545117	-3.011000	3.177100	-9.565600	27.864958	0.000394	20.760353
1935.540796	-2.984200	3.179400	-9.485900	27.878889	0.000395	20.783857
1936.540774	-2.998700	3.178400	-9.530400	27.899300	0.000395	20.754140
1937.543480	-3.037400	3.176500	-9.646700	27.956148	0.000394	20.751140
1938.544848	-2.995000	3.175100	-9.509000	27.978865	0.000392	20.764522
1939.548028	-2.987800	3.175600	-9.487900	28.044715	0.000391	20.770114
1940.543402	-2.991500	3.176500	-9.500100	28.094262	0.000390	20.748867
1941.546552	-2.995500	3.176100	-9.512300	28.104632	0.000390	20.769264
1942.543710	-3.000400	3.174300	-9.523700	28.139381	0.000387	20.751140
1943.549267	-3.026700	3.173300	-9.603100	28.104681	0.000388	20.774055
1944.548073	-3.021500	3.175400	-9.593000	28.087432	0.000387	20.768544
1945.546766	-3.032600	3.172100	-9.618000	28.088512	0.000388	20.742605
1946.545385	-3.008900	3.173400	-9.547000	28.004497	0.000386	20.768986
1947.544861	-3.008800	3.171900	-9.541900	27.989521	0.000385	20.769084
1948.550126	-2.996600	3.174600	-9.511700	27.936850	0.000385	20.745466
1949.545114	-3.020700	3.171900	-9.579200	27.886443	0.000384	20.765382
1950.545747	-3.001600	3.171200	-9.517600	27.901470	0.000384	20.751107
1951.546993	-2.988300	3.171700	-9.476800	27.945184	0.000382	20.739155
1952.549608	-2.981800	3.171600	-9.455700	28.009322	0.000383	20.750609
1953.547177	-3.007000	3.169300	-9.529500	28.047428	0.000382	20.743921
1954.554684	-2.996300	3.170200	-9.496800	28.066115	0.000380	20.759414
1955.545653	-2.981300	3.170800	-9.451700	28.089349	0.000378	20.761465
1956.553346	-2.993300	3.171100	-9.490900	28.127769	0.000378	20.744665
1957.546529	-3.002900	3.167700	-9.511200	28.135029	0.000375	20.754819
1958.554610	-2.984800	3.167400	-9.453100	28.204678	0.000376	20.739115
1959.553684	-2.991500	3.167200	-9.472500	28.241542	0.000376	20.774334
1960.547968	-3.011400	3.166100	-9.533100	28.255793	0.000374	20.754067
1961.547556	-3.000900	3.166400	-9.501000	28.243767	0.000372	20.753814
1962.558794	-2.997400	3.165400	-9.486700	28.178774	0.000372	20.741960
1963.549171	-2.995900	3.164600	-9.480000	28.192718	0.000370	20.737031
1964.550478	-2.994900	3.163700	-9.474500	28.216379	0.000370	20.732403
1965.549338	-2.985000	3.164100	-9.443100	28.239277	0.000369	20.745500
1966.552447	-2.989000	3.162400	-9.450800	28.261948	0.000368	20.741298
1967.553393	-3.003800	3.165100	-9.505800	28.295060	0.000368	20.738600
1968.550054	-2.970800	3.161800	-9.391800	28.326311	0.000368	20.740195
1969.553192	-3.003700	3.162400	-9.497100	28.320457	0.000365	20.760854
1970.549311	-3.016100	3.163000	-9.538500	28.304300	0.000364	20.736050
1971.551059	-3.003900	3.162200	-9.497800	28.285122	0.000365	20.740922
1972.550232	-3.011100	3.160200	-9.514800	28.245401	0.000362	20.734121
1973.557682	-2.995000	3.159800	-9.462300	28.244581	0.000362	20.745150
1974.550244	-2.997500	3.161800	-9.476700	28.232678	0.000361	20.740752
1975.554639	-3.026000	3.156400	-9.550500	28.185874	0.000360	20.747211
1976.551851	-3.023500	3.156300	-9.542400	28.173189	0.000361	20.745820
1977.560909	-2.969200	3.159100	-9.378600	28.148666	0.000361	20.748633
1978.550641	-3.008200	3.157600	-9.497800	28.135007	0.000359	20.747211
1979.553251	-2.999200	3.156800	-9.467300	28.135600	0.000357	20.736901
1980.554741	-2.986100	3.156400	-9.424400	28.159669	0.000359	20.743589
1981.552697	-3.021900	3.155000	-9.532400	28.166044	0.000356	20.741946
1982.554344	-3.005100	3.154700	-9.478500	28.181107	0.000354	20.743360
1983.554599	-3.007300	3.155300	-9.487900	28.227936	0.000354	20.747358
1984.558974	-3.007900	3.153300	-9.482500	28.283524	0.000353	20.742633
1985.558409	-2.988300	3.153400	-9.422100	28.303181	0.000352	20.739191
1986.556247	-2.989600	3.152900	-9.424700	28.366024	0.000351	20.737507
1987.556997	-2.997300	3.151300	-9.444500	28.374434	0.000351	20.725587
1988.561588	-3.010300	3.151900	-9.486600	28.368832	0.000350	20.729430
1989.558479	-3.001600	3.151100	-9.457300	28.323569	0.000348	20.740753
1990.557498	-2.997100	3.151600	-9.445000	28.231242	0.000348	20.732193
1991.558102	-3.007200	3.150700	-9.473600	28.222391	0.000349	20.730395
1992.558337	-3.018500	3.149500	-9.506400	28.231298	0.000345	20.731302
1993.563886	-3.002300	3.148500	-9.451900	28.259377	0.000346	20.746770
1994.558239	-3.013100	3.147200	-9.481800	28.276006	0.000346	20.745021
1995.560266	-2.997600	3.146500	-9.430100	28.285107	0.000344	20.736166
1996.564952	-3.004900	3.146100	-9.452800	28.266643	0.000344	20.740810
1997.561191	-3.013800	3.147200	-9.484300	28.262153	0.000343	20.750040
1998.562308	-3.019700	3.147400	-9.503700	28.238306	0.000344	20.750686
1999.560740	-3.000100	3.145500	-9.435400	28.283768	0.000340	20.735292
2000.560030	-3.000900	3.145100	-9.436300	28.283995	0.000341	20.738839
2001.563394	-2.988500	3.145200	-9.397700	28.280374	0.000339	20.712907
2002.573770	-3.011100	3.144400	-9.467000	28.301890	0.000340	20.723666
2003.560285	-2.987600	3.144100	-9.392700	28.301411	0.000337	20.737409
2004.560706	-2.983100	3.142400	-9.372600	28.332353	0.000335	20.725889
2005.560528	-2.986800	3.143400	-9.386400	28.317504	0.000336	20.744603
2006.560812	-3.006700	3.140500	-9.442600	28.278075	0.000335	20.738095
2007.563590	-2.982600	3.141800	-9.369400	28.242479	0.000333	20.725489
2008.561126	-2.994800	3.140000	-9.400900	28.244517	0.000332	20.739395
2009.562237	-3.036700	3.138400	-9.529000	28.251808	0.000331	20.743891
2010.561656	-3.011100	3.140200	-9.454200	28.278774	0.000332	20.740695
2011.561904	-3.008300	3.140200	-9.445600	28.325046	0.000330	20.742714
2012.563766	-3.017200	3.139300	-9.470500	28.336429	0.000330	20.738054
2013.562518	-3.010000	3.138200	-9.445000	28.365251	0.000331	20.704485
2014.563095	-3.006800	3.136900	-9.430700	28.391458	0.000329	20.734195
2015.566477	-2.999600	3.136700	-9.405900	28.409879	0.000330	20.723819
2016.570931	-3.000500	3.136000	-9.408000	28.440380	0.000327	20.737939
2017.563985	-2.999300	3.135600	-9.404100	28.475028	0.000326	20.722095
2018.566989	-3.030900	3.135000	-9.499000	28.454237	0.000327	20.721547
2019.565140	-2.992000	3.134200	-9.375000	28.433869	0.000326	20.729485
2020.566016	-3.008000	3.132700	-9.421900	28.364974	0.000325	20.733131
2021.565569	-2.990700	3.132000	-9.366300	28.321075	0.000325	20.735396
2022.569816	-3.017300	3.131800	-9.449200	28.271838	0.000320	20.733237
2023.568009	-2.989900	3.131400	-9.361200	28.233992	0.000321	20.717417
2024.566179	-2.997000	3.131900	-9.383200	28.178499	0.000322	20.732673
2025.568937	-3.033700	3.129000	-9.491900	28.146049	0.000322	20.722290
2026.566416	-3.016400	3.129800	-9.438600	28.170370	0.000319	20.719273
2027.565836	-2.997400	3.129300	-9.378700	28.209217	0.000319	20.719976
2028.570480	-3.002200	3.128300	-9.391200	28.232911	0.000316	20.720123
2029.568056	-2.964100	3.131300	-9.278900	28.205749	0.000316	20.701785
2030.568890	-3.014700	3.126700	-9.424500	28.158586	0.000317	20.724480
2031.568214	-2.995900	3.127400	-9.368800	28.126210	0.000316	20.719861
2032.568211	-2.981200	3.127300	-9.321700	28.120265	0.000314	20.710082
2033.570024	-2.971800	3.125600	-9.286300	28.152464	0.000313	20.729696
2034.569992	-2.987600	3.125900	-9.337600	28.189776	0.000312	20.737389
2035.567013	-2.999400	3.124400	-9.370100	28.189298	0.000309	20.726949
2036.567650	-3.020100	3.123100	-9.430700	28.189930	0.000311	20.714309
2037.568902	-2.997600	3.122500	-9.359400	28.152894	0.000313	20.704523
2038.570709	-3.016100	3.122000	-9.415500	28.151903	0.000308	20.689774
2039.572342	-3.008000	3.122100	-9.390100	28.191457	0.000307	20.730546
2040.569987	-2.981900	3.123100	-9.311500	28.235906	0.000308	20.699903
2041.572106	-2.977600	3.121700	-9.294400	28.251829	0.000309	20.721152
2042.570845	-2.985400	3.119200	-9.311400	28.247834	0.000307	20.727087
2043.572285	-2.997900	3.119000	-9.349900	28.232488	0.000305	20.733922
2044.574249	-2.999600	3.119500	-9.356200	28.281522	0.000304	20.703157
2045.571667	-3.008700	3.117800	-9.379600	28.313919	0.000306	20.704007
2046.572981	-3.000400	3.116800	-9.350600	28.365938	0.000303	20.701383
2047.575436	-3.009000	3.116600	-9.376900	28.412936	0.000302	20.703663
2048.576022	-2.985100	3.114600	-9.295800	28.430627	0.000302	20.723849
2049.581133	-3.005500	3.115400	-9.361500	28.432583	0.000301	20.721552
2050.582684	-2.985600	3.114100	-9.296800	28.418579	0.000303	20.694646
2051.573828	-3.020200	3.114500	-9.405300	28.369136	0.000300	20.704130
2052.574594	-2.970900	3.114900	-9.253300	28.356122	0.000299	20.693869
2053.573332	-3.008000	3.111700	-9.358700	28.322866	0.000300	20.704007
2054.573369	-3.005900	3.111100	-9.349900	28.329540	0.000298	20.707882
2055.577748	-3.011000	3.110800	-9.365800	28.385528	0.000297	20.704988
2056.573013	-2.993400	3.111900	-9.313700	28.360092	0.000296	20.698816
2057.581657	-3.000800	3.111300	-9.334600	28.410128	0.000296	20.712690
2058.574110	-3.022100	3.108600	-9.393500	28.451540	0.000295	20.687059
2059.573783	-2.994800	3.110500	-9.314200	28.483752	0.000292	20.694368
2060.579815	-3.004600	3.108000	-9.337300	28.465470	0.000295	20.703934
2061.580866	-2.996400	3.106600	-9.307600	28.485863	0.000291	20.701236
2062.577094	-2.987800	3.108000	-9.284500	28.481804	0.000291	20.705683
2063.586693	-2.981500	3.106300	-9.260400	28.461281	0.000290	20.694973
2064.577060	-3.000200	3.105900	-9.316000	28.460883	0.000291	20.718282
2065.578758	-2.980100	3.105900	-9.255100	28.455404	0.000289	20.701857
2066.581383	-3.019300	3.102400	-9.365400	28.510622	0.000287	20.727120
2067.578290	-3.001300	3.104200	-9.316000	28.504891	0.000287	20.712338
2068.579005	-2.985700	3.103600	-9.265600	28.493226	0.000288	20.706754
2069.578579	-2.998000	3.102300	-9.299800	28.480854	0.000288	20.709943
2070.577326	-2.988200	3.101400	-9.266000	28.434386	0.000285	20.693968
2071.581384	-2.998500	3.100800	-9.296600	28.430172	0.000285	20.687828
2072.580341	-3.010400	3.099500	-9.330000	28.428289	0.000283	20.702054
2073.583037	-2.984400	3.099700	-9.249400	28.438672	0.000285	20.704449
2074.582229	-3.013700	3.098200	-9.335800	28.426949	0.000283	20.676521
2075.581257	-2.988200	3.097000	-9.253400	28.438072	0.000283	20.713802
2076.583808	-3.009000	3.097200	-9.318600	28.447538	0.000282	20.698203
2077.584898	-2.998600	3.095200	-9.280900	28.447416	0.000282	20.699029
2078.584155	-3.010000	3.096600	-9.318200	28.507035	0.000281	20.687468
2079.583617	-3.008600	3.093900	-9.307500	28.550667	0.000279	20.708178
2080.588798	-3.002000	3.095300	-9.290400	28.569995	0.000278	20.679751
2081.582821	-3.016600	3.091900	-9.325600	28.579906	0.000279	20.693527
2082.583884	-3.007200	3.092400	-9.298200	28.580304	0.000278	20.684444
2083.591927	-2.996700	3.093600	-9.268000	28.567470	0.000275	20.697124
2084.584085	-3.003900	3.090600	-9.282300	28.596303	0.000275	20.699610
2085.582330	-2.985600	3.091900	-9.230200	28.615857	0.000276	20.688008
2086.582957	-3.010300	3.088700	-9.297300	28.623779	0.000274	20.694092
2087.585871	-2.982000	3.088800	-9.209600	28.552519	0.000272	20.708146
2088.586669	-2.996600	3.087200	-9.248800	28.510608	0.000273	20.714302
2089.586480	-2.996200	3.088700	-9.254400	28.540789	0.000271	20.687797
2090.589722	-3.010500	3.086500	-9.291000	28.603487	0.000273	20.697362
2091.586024	-2.999000	3.085300	-9.252300	28.652391	0.000272	20.688295
2092.590730	-2.976200	3.086400	-9.185200	28.707218	0.000270	20.694681
2093.588380	-2.996100	3.083900	-9.238000	28.716511	0.000267	20.680332
2094.588765	-2.989900	3.084900	-9.222900	28.690596	0.000268	20.688843
2095.588654	-2.965200	3.084200	-9.143600	28.709889	0.000267	20.698793
2096.587982	-3.001900	3.081200	-9.248200	28.661474	0.000266	20.690332
2097.594649	-2.996900	3.082100	-9.235100	28.633999	0.000265	20.691582
2098.590986	-3.001600	3.080800	-9.246200	28.629462	0.000267	20.718309
2099.592041	-2.987300	3.080300	-9.200900	28.619827	0.000266	20.710975
2100.596973	-3.005500	3.079600	-9.255100	28.671304	0.000264	20.676523
2101.590291	-2.985400	3.078300	-9.189200	28.699752	0.000263	20.697592
2102.594820	-3.005800	3.076300	-9.245300	28.698210	0.000264	20.691771
2103.589718	-3.006300	3.076000	-9.246500	28.641702	0.000264	20.681796
2104.589162	-3.001100	3.074700	-9.226400	28.629364	0.000262	20.683120
2105.591209	-2.992900	3.074400	-9.201100	28.583463	0.000261	20.707542
2106.589881	-2.995600	3.073400	-9.205500	28.564493	0.000262	20.689857
2107.589890	-3.022600	3.072600	-9.286000	28.586320	0.000258	20.695245
2108.592672	-3.014300	3.070800	-9.255300	28.642417	0.000261	20.684887
2109.597775	-3.017700	3.071300	-9.267200	28.661093	0.000259	20.703225
2110.592188	-2.997300	3.070700	-9.202400	28.645680	0.000260	20.710935
2111.589957	-3.006400	3.071200	-9.232200	28.649032	0.000259	20.696292
2112.591336	-3.008500	3.068800	-9.231700	28.659705	0.000257	20.700879
2113.595532	-2.991300	3.066800	-9.172300	28.673082	0.000256	20.681159
2114.601546	-2.981300	3.067300	-9.143400	28.662132	0.000257	20.707591
2115.593818	-3.000000	3.065700	-9.196100	28.679275	0.000257	20.696881
2116.593757	-3.018800	3.065500	-9.253300	28.715620	0.000255	20.704092
2117.592722	-2.999800	3.063800	-9.189900	28.685468	0.000254	20.702645
2118.593976	-3.014100	3.062400	-9.229200	28.640965	0.000255	20.707608
2119.596302	-3.017100	3.061600	-9.235200	28.659251	0.000254	20.727450
2120.595170	-2.992800	3.062600	-9.164700	28.690614	0.000253	20.697871
2121.594900	-2.986600	3.062200	-9.144800	28.709809	0.000254	20.710094
2122.598278	-3.001400	3.060300	-9.183700	28.659333	0.000252	20.695762
2123.596017	-3.018700	3.059200	-9.234000	28.638912	0.000253	20.705067
2124.599126	-2.970400	3.061400	-9.091700	28.671273	0.000250	20.682657
2125.604543	-2.990700	3.057200	-9.142100	28.687676	0.000250	20.708664
2126.597571	-3.019800	3.056000	-9.228300	28.677361	0.000249	20.695428
2127.598523	-2.987200	3.057600	-9.133000	28.698593	0.000249	20.706383
2128.600249	-3.005000	3.054200	-9.177300	28.739896	0.000247	20.707683
2129.599837	-3.003400	3.054200	-9.171800	28.783787	0.000248	20.705901
2130.598452	-3.033800	3.050900	-9.253100	28.829972	0.000247	20.690310
2131.598300	-2.991200	3.052400	-9.127900	28.831677	0.000247	20.700088
2132.599939	-2.987100	3.050200	-9.109900	28.811510	0.000246	20.722449
2133.601172	-3.005200	3.050200	-9.165600	28.721376	0.000245	20.705149
2134.603983	-3.001600	3.049800	-9.152300	28.705647	0.000247	20.698788
2135.603795	-3.007200	3.048700	-9.166700	28.704876	0.000245	20.705599
2136.602173	-3.003500	3.046900	-9.149900	28.760220	0.000244	20.706343
2137.602349	-3.000400	3.045100	-9.135200	28.795426	0.000244	20.701029
2138.602190	-2.972600	3.046300	-9.054900	28.728064	0.000242	20.703351
2139.602630	-2.977800	3.046100	-9.069100	28.739678	0.000245	20.722163
2140.606721	-2.985000	3.043600	-9.084400	28.686850	0.000242	20.695977
2141.604499	-2.993900	3.044000	-9.112900	28.672550	0.000242	20.689633
2142.604765	-3.001900	3.042200	-9.131300	28.649604	0.000243	20.702085
2143.604536	-3.006400	3.040400	-9.139600	28.641374	0.000243	20.720823
2144.605166	-2.990000	3.040700	-9.089800	28.613769	0.000241	20.705821
2145.605028	-3.010200	3.038600	-9.145100	28.647323	0.000239	20.708797
2146.606671	-2.991900	3.037700	-9.087900	28.674693	0.000240	20.718821
2147.604864	-2.997900	3.037000	-9.103900	28.711468	0.000240	20.707023
2148.606351	-2.986200	3.036700	-9.067500	28.746692	0.000238	20.718796
2149.605134	-2.991900	3.035300	-9.080800	28.810157	0.000240	20.727250
2150.606876	-3.002200	3.034700	-9.110100	28.825763	0.000240	20.721159
2151.607703	-3.003000	3.032900	-9.107100	28.881555	0.000238	20.713351
2152.607283	-3.008800	3.031500	-9.120200	28.913210	0.000239	20.696403
2153.611338	-2.979000	3.030700	-9.025800	28.930349	0.000239	20.740225
2154.606369	-2.987400	3.030200	-9.051500	28.875079	0.000238	20.714415
2155.606974	-2.996300	3.029200	-9.075600	28.840501	0.000235	20.721781
2156.608733	-3.011300	3.027200	-9.115400	28.792336	0.000236	20.728739
2157.605294	-3.017900	3.025500	-9.130300	28.750028	0.000237	20.731166
2158.608118	-2.993000	3.024900	-9.052700	28.768971	0.000235	20.723694
2159.607987	-3.016900	3.023800	-9.120900	28.735842	0.000237	20.747698
2160.607759	-2.991500	3.022300	-9.039500	28.771073	0.000236	20.708267
2161.608274	-2.996400	3.022500	-9.054400	28.780334	0.000234	20.710957
2162.609886	-3.017700	3.018900	-9.107900	28.735291	0.000234	20.729598
2163.608147	-3.027100	3.017900	-9.134500	28.667577	0.000233	20.729672
2164.609262	-3.029900	3.017800	-9.142200	28.607334	0.000234	20.738224
2165.609764	-3.000500	3.017400	-9.053100	28.598065	0.000235	20.721775
2166.610697	-2.977300	3.016300	-8.979800	28.650622	0.000232	20.736777
2167.611783	-2.982600	3.014800	-8.991400	28.729066	0.000230	20.733285
2168.609784	-2.993700	3.014000	-9.021600	28.793466	0.000234	20.731300
2169.613707	-2.985400	3.013200	-8.995000	28.854161	0.000232	20.720843
2170.610498	-2.991200	3.012800	-9.010300	28.919851	0.000229	20.743874
2171.611822	-2.997800	3.011700	-9.027500	28.963767	0.000232	20.736908
2172.613753	-2.975600	3.011300	-8.959900	28.999007	0.000229	20.737326
2173.612678	-2.994500	3.007500	-9.005300	29.025734	0.000230	20.744340
2174.612123	-3.003400	3.008000	-9.032600	29.046165	0.000233	20.716560
2175.611953	-3.013700	3.004800	-9.053900	29.060087	0.000231	20.738650
2176.611700	-2.975700	3.005900	-8.944300	29.047966	0.000232	20.730230
2177.612996	-2.983700	3.005100	-8.965200	28.999275	0.000230	20.740441
2178.613422	-3.009900	3.002500	-9.036400	28.961001	0.000230	20.751192
2179.613048	-2.991000	3.000700	-8.974400	28.920275	0.000230	20.750465
2180.615619	-3.003300	3.000100	-9.008600	28.928892	0.000230	20.721213
2181.618513	-2.994500	2.997700	-8.976200	28.968143	0.000229	20.735627
2182.619425	-3.011100	2.997500	-9.023500	28.960003	0.000230	20.734539
2183.617737	-2.974900	2.998000	-8.918100	28.921079	0.000229	20.738472
2184.614132	-3.001000	2.994700	-8.985200	28.891891	0.000230	20.739413
2185.614314	-3.006500	2.993600	-8.999500	28.859310	0.000228	20.739307
2186.616916	-2.978000	2.993000	-8.911200	28.837309	0.000229	20.743697
2187.618510	-3.009300	2.991600	-9.000200	28.836092	0.000227	20.726349
2188.615466	-2.974300	2.990900	-8.894600	28.877066	0.000228	20.732538
2189.618790	-2.969700	2.988400	-8.872600	28.865332	0.000229	20.742056
2190.614924	-2.963200	2.987300	-8.850400	28.890051	0.000228	20.739456
2191.616867	-2.981800	2.986300	-8.902600	28.927135	0.000226	20.745996
2192.615917	-3.006900	2.984900	-8.973800	28.959828	0.000226	20.744321
2193.617139	-3.004300	2.982300	-8.959000	28.966929	0.000226	20.731559
2194.621331	-3.014800	2.981000	-8.984100	28.991352	0.000228	20.739097
2195.618030	-3.023300	2.980500	-9.010100	29.036506	0.000227	20.747608
2196.618503	-3.008000	2.979100	-8.960300	29.020035	0.000227	20.740495
2197.618782	-3.019100	2.976300	-8.984400	28.952210	0.000227	20.750396
2198.623172	-2.985900	2.976500	-8.886600	28.942100	0.000226	20.741158
2199.619344	-2.999000	2.973600	-8.916700	28.946572	0.000226	20.745663
2200.618042	-2.973000	2.974900	-8.842100	28.974785	0.000226	20.749906
2201.618112	-3.016100	2.971700	-8.962500	28.969259	0.000222	20.757142
2202.618613	-2.983800	2.971000	-8.864100	29.001976	0.000224	20.758336
2203.621822	-2.967800	2.971000	-8.815700	29.030034	0.000224	20.739189
2204.619829	-2.981600	2.967500	-8.846200	29.046132	0.000226	20.756832
2205.620975	-3.013900	2.964800	-8.934300	29.013433	0.000226	20.749017
2206.620305	-2.997200	2.965600	-8.887800	28.954906	0.000225	20.765915
2207.622479	-3.021900	2.963700	-8.954900	28.887669	0.000223	20.755549
2208.622114	-3.011600	2.962100	-8.919300	28.826806	0.000223	20.760618
2209.620738	-3.030800	2.961700	-8.975400	28.788825	0.000222	20.775464
2210.624884	-2.974600	2.960900	-8.806900	28.749822	0.000222	20.762254
2211.621316	-2.985300	2.958000	-8.829200	28.760234	0.000224	20.761836
2212.623500	-3.002000	2.955700	-8.871000	28.763594	0.000223	20.756212
2213.621582	-3.014200	2.955200	-8.906500	28.785442	0.000222	20.761150
2214.626112	-3.013500	2.952600	-8.896100	28.825110	0.000221	20.743736
2215.621935	-2.981500	2.952500	-8.801700	28.882452	0.000224	20.778744
2216.625687	-2.987300	2.950900	-8.813800	28.914133	0.000223	20.757079
2217.623340	-2.998500	2.948100	-8.839600	28.950194	0.000223	20.755003
2218.624024	-2.991600	2.946900	-8.814100	28.989597	0.000222	20.762459
2219.624219	-3.004800	2.945800	-8.850500	28.982416	0.000222	20.773242
2220.623710	-3.011400	2.943000	-8.861200	28.988039	0.000221	20.772744
2221.626074	-3.001300	2.942200	-8.829300	29.005752	0.000224	20.782055
2222.625443	-2.986500	2.941900	-8.785200	29.005549	0.000222	20.765729
2223.630383	-2.996700	2.939200	-8.807100	29.044633	0.000223	20.764806
2224.624487	-2.993600	2.936400	-8.789300	29.033558	0.000220	20.781148
2225.623848	-3.020100	2.934200	-8.860200	28.992113	0.000223	20.777323
2226.626567	-2.975300	2.935000	-8.731800	28.964378	0.000220	20.783993
2227.624512	-3.022100	2.933100	-8.863700	28.953651	0.000222	20.776505
2228.624841	-3.000700	2.929500	-8.789600	28.944392	0.000221	20.780453
2229.626346	-3.006400	2.930300	-8.808100	29.023076	0.000220	20.781018
2230.626695	-3.002200	2.928100	-8.789900	29.041373	0.000220	20.773849
2231.627052	-3.022800	2.926200	-8.843200	29.071571	0.000222	20.777249
2232.629193	-3.028800	2.924500	-8.857000	29.112308	0.000220	20.777045
2233.627612	-3.012200	2.924400	-8.807300	29.122239	0.000221	20.779939
2234.626704	-3.036000	2.921100	-8.866700	29.081543	0.000222	20.774495
2235.628732	-2.989900	2.919900	-8.729100	29.065000	0.000220	20.793388
2236.632467	-3.011900	2.917600	-8.786900	29.088731	0.000219	20.791221
2237.633564	-3.031700	2.916200	-8.839400	29.074038	0.000221	20.777839
2238.631171	-2.973800	2.915300	-8.667400	29.049000	0.000221	20.782482
2239.632261	-3.001500	2.913300	-8.743200	29.043150	0.000221	20.796977
2240.632420	-2.995100	2.911300	-8.717900	29.035028	0.000222	20.790216
2241.633286	-2.986300	2.910300	-8.690000	29.043945	0.000220	20.788295
2242.635962	-2.995500	2.908800	-8.712700	29.059443	0.000221	20.781624
2243.632961	-3.013000	2.905200	-8.752200	29.034348	0.000221	20.789056
2244.636126	-3.021100	2.904900	-8.774600	28.975975	0.000218	20.788565
2245.638783	-2.996100	2.904700	-8.701000	28.967448	0.000219	20.799414
2246.633572	-3.011800	2.901700	-8.738400	28.954984	0.000219	20.787805
2247.634896	-3.032000	2.897900	-8.784900	28.956421	0.000219	20.802529
2248.632562	-2.974400	2.898900	-8.622000	28.998850	0.000220	20.780791
2249.633658	-3.000600	2.895200	-8.685600	28.994509	0.000219	20.788746
2250.634009	-3.013400	2.893800	-8.719100	28.960373	0.000217	20.790390
2251.635379	-2.975700	2.893600	-8.608600	29.018608	0.000220	20.785999
2252.634713	-2.998400	2.890200	-8.664600	29.083776	0.000217	20.800453
2253.637294	-2.985300	2.889500	-8.624700	29.132512	0.000217	20.806412
2254.635473	-2.986500	2.887100	-8.621100	29.192539	0.000220	20.815217
2255.636914	-2.988400	2.885100	-8.620400	29.185976	0.000220	20.817138
2256.636558	-3.029100	2.881900	-8.728600	29.181758	0.000219	20.787284
2257.635767	-2.992400	2.881600	-8.622100	29.199662	0.000222	20.792050
2258.651002	-3.020700	2.878600	-8.693800	29.238488	0.000219	20.829753
2259.637506	-3.008400	2.876600	-8.653000	29.214638	0.000218	20.806193
2260.639030	-2.966500	2.877800	-8.535400	29.211637	0.000221	20.811230
2261.639475	-3.011600	2.872000	-8.648500	29.219190	0.000220	20.799400
2262.637741	-3.013500	2.871900	-8.653600	29.249644	0.000220	20.802589
2263.639950	-2.989500	2.869000	-8.576400	29.232186	0.000217	20.811549
2264.638804	-2.987500	2.866300	-8.562200	29.213488	0.000217	20.820680
2265.640973	-3.002500	2.864100	-8.598300	29.193077	0.000217	20.803906
2266.638721	-3.047800	2.862500	-8.723600	29.233095	0.000218	20.808672
2267.638546	-3.025100	2.859900	-8.650300	29.266623	0.000217	20.827286
2268.642581	-2.984500	2.860000	-8.534200	29.279504	0.000217	20.787163
2269.639723	-2.963500	2.858800	-8.470200	29.300230	0.000219	20.824171
2270.638582	-3.001800	2.854500	-8.567500	29.347618	0.000217	20.825463
2271.638607	-2.990500	2.852500	-8.529600	29.365268	0.000219	20.800105
2272.638170	-2.976000	2.850500	-8.481000	29.360888	0.000218	20.799958
2273.638558	-2.964600	2.849900	-8.448100	29.370760	0.000218	20.818916
2274.641460	-2.982100	2.847400	-8.490400	29.352615	0.000217	20.820068
2275.639473	-2.981900	2.845400	-8.483900	29.375043	0.000216	20.839353
2276.639101	-2.988100	2.843100	-8.494700	29.340602	0.000218	20.812703
2277.637972	-2.992300	2.840300	-8.497800	29.313218	0.000217	20.818295
2278.639234	-3.029600	2.836900	-8.593900	29.300856	0.000218	20.816742
2279.643013	-3.018800	2.836700	-8.561800	29.310290	0.000218	20.819137
2280.640229	-3.020200	2.832300	-8.552800	29.313705	0.000217	20.839648
2281.641133	-3.012900	2.833200	-8.534900	29.302162	0.000217	20.827067
2282.639928	-3.004100	2.830600	-8.502600	29.298204	0.000218	20.815017
2283.639504	-2.998000	2.827700	-8.475800	29.318190	0.000218	20.821410
2284.643490	-2.958500	2.826300	-8.360200	29.352088	0.000217	20.821434
2285.642117	-2.999400	2.822600	-8.465600	29.332402	0.000218	20.824353
2286.642521	-3.000800	2.821200	-8.464800	29.305017	0.000218	20.820461
2287.643658	-3.026900	2.818400	-8.529800	29.282020	0.000217	20.837113
2288.643177	-2.986300	2.817200	-8.412100	29.215940	0.000217	20.822677
2289.642693	-2.985200	2.814400	-8.400800	29.169114	0.000218	20.817216
2290.645744	-3.049800	2.809200	-8.565900	29.100145	0.000215	20.820265
2291.643752	-3.008700	2.808600	-8.448600	29.111487	0.000217	20.830271
2292.645443	-2.966800	2.808100	-8.329500	29.157918	0.000215	20.836280
2293.643323	-2.997400	2.804200	-8.404700	29.182767	0.000215	20.834293
2294.643278	-3.001800	2.801800	-8.409600	29.244794	0.000216	20.829944
2295.646397	-3.005700	2.798300	-8.408700	29.276569	0.000217	20.834465
2296.643742	-2.978600	2.796800	-8.329700	29.323146	0.000217	20.845370
2297.647886	-3.015000	2.792900	-8.419900	29.325596	0.000215	20.839778
2298.645873	-3.009000	2.792600	-8.402300	29.332555	0.000217	20.848214
2299.645235	-3.011300	2.789800	-8.399300	29.293879	0.000218	20.820616
2300.645196	-3.006900	2.787000	-8.379100	29.305268	0.000218	20.832094
2301.648610	-3.045200	2.780500	-8.466500	29.320121	0.000215	20.851329
2302.645585	-3.022100	2.781000	-8.403100	29.306996	0.000217	20.840948
2303.646668	-3.055200	2.776200	-8.480900	29.296622	0.000215	20.853725
2304.646016	-2.996500	2.775600	-8.316900	29.323755	0.000216	20.848828
2305.647235	-2.999600	2.771700	-8.312900	29.390860	0.000216	20.865251
2306.653915	-2.999000	2.770700	-8.308100	29.411900	0.000216	20.824819
2307.648282	-3.002100	2.768600	-8.310300	29.409921	0.000216	20.836575
2308.651056	-3.011800	2.764500	-8.324900	29.396051	0.000215	20.839665
2309.649240	-2.986300	2.762900	-8.249900	29.434058	0.000216	20.844782
2310.648981	-3.015400	2.760100	-8.320500	29.473743	0.000216	20.849221
2311.651267	-3.018100	2.755300	-8.313500	29.524765	0.000216	20.848020
2312.650690	-3.005800	2.752100	-8.271200	29.580495	0.000213	20.833550
2313.650313	-3.023800	2.749600	-8.313300	29.635274	0.000216	20.847047
2314.650095	-3.003200	2.747200	-8.249300	29.695596	0.000215	20.846222
2315.650314	-2.976900	2.743900	-8.167800	29.747474	0.000215	20.867705
2316.651254	-2.989300	2.741600	-8.194400	29.785169	0.000214	20.845020
2317.651889	-2.978100	2.737600	-8.151800	29.807936	0.000215	20.836682
2318.654046	-3.001800	2.734300	-8.206800	29.829843	0.000215	20.859718
2319.652785	-3.015500	2.730700	-8.233500	29.842734	0.000217	20.870820
2320.649840	-3.044200	2.725600	-8.294600	29.866943	0.000215	20.839756
2321.650357	-3.005100	2.723600	-8.183300	29.844834	0.000216	20.847334
2322.654120	-3.019400	2.720200	-8.211200	29.844113	0.000217	20.857038
2323.651317	-2.975200	2.718700	-8.087700	29.856322	0.000213	20.853702
2324.653694	-2.976700	2.715600	-8.083000	29.806922	0.000215	20.851781
2325.650999	-2.979700	2.713500	-8.084700	29.783005	0.000216	20.855166
2326.651256	-2.976700	2.709800	-8.065200	29.762208	0.000214	20.855060
2327.655474	-2.997400	2.705000	-8.107300	29.725234	0.000214	20.869464
2328.655562	-3.000100	2.700100	-8.099700	29.734535	0.000215	20.859875
2329.652314	-3.012900	2.696500	-8.123400	29.820074	0.000215	20.877843
2330.651038	-3.018300	2.691900	-8.124300	29.852107	0.000216	20.873158
2331.651169	-3.016500	2.689600	-8.110900	29.843311	0.000215	20.890841
2332.650916	-2.962500	2.686800	-7.958700	29.819653	0.000215	20.877418
2333.654299	-2.975800	2.682600	-7.982100	29.772076	0.000213	20.861691
2334.651731	-3.012500	2.677900	-8.066500	29.778636	0.000213	20.870674
2335.653179	-3.007300	2.675300	-8.043500	29.778862	0.000214	20.863791
2336.652324	-3.012100	2.670700	-8.043700	29.793238	0.000215	20.860742
2337.652336	-2.996100	2.666100	-7.986700	29.774654	0.000214	20.869505
2338.652770	-2.955000	2.662500	-7.866700	29.807378	0.000212	20.849395
2339.651190	-2.994700	2.659100	-7.962200	29.833955	0.000215	20.875718
2340.652274	-2.989900	2.654500	-7.933800	29.839817	0.000214	20.860293
2341.652947	-3.013900	2.649900	-7.985000	29.814699	0.000215	20.845398
2342.658192	-2.993600	2.646800	-7.922300	29.863629	0.000214	20.873870
2343.653253	-3.002600	2.641900	-7.932400	29.884716	0.000214	20.844875
2344.654506	-3.012800	2.637300	-7.944900	29.926038	0.000214	20.857620
2345.653960	-3.019600	2.632300	-7.948100	29.878620	0.000215	20.858168
2346.654239	-3.019200	2.627000	-7.929900	29.824843	0.000215	20.855151
2347.655310	-2.982600	2.622500	-7.821000	29.758811	0.000216	20.866334
2348.655570	-2.994800	2.618700	-7.841000	29.723849	0.000216	20.875654
2349.658853	-2.995100	2.614000	-7.828200	29.676349	0.000215	20.842465
2350.653582	-2.972300	2.608500	-7.751800	29.649176	0.000215	20.857269
2351.657898	-3.010200	2.602800	-7.833800	29.642891	0.000214	20.855200
2352.654659	-2.968800	2.600100	-7.717900	29.676057	0.000214	20.842644
2353.655876	-2.999000	2.592800	-7.774100	29.678676	0.000214	20.841018
2354.653577	-3.001000	2.587600	-7.764300	29.633055	0.000216	20.868991
2355.657350	-2.983000	2.581500	-7.699800	29.594731	0.000214	20.842212
2356.655476	-2.988000	2.576900	-7.698900	29.591439	0.000215	20.855487
2357.655654	-2.996900	2.571600	-7.705800	29.642033	0.000214	20.836318
2358.656337	-2.986400	2.565900	-7.660500	29.671914	0.000215	20.843683
2359.656724	-2.994600	2.559500	-7.663500	29.681661	0.000215	20.832648
2360.659320	-3.045300	2.553000	-7.772300	29.665403	0.000216	20.843757
2361.662008	-3.001600	2.548000	-7.647500	29.620739	0.000216	20.832395
2362.662656	-3.026500	2.540500	-7.686900	29.630421	0.000215	20.811336
2363.656298	-2.970700	2.535800	-7.532000	29.612475	0.000215	20.834021
2364.655945	-2.983900	2.529500	-7.546200	29.645747	0.000212	20.824890
2365.662185	-3.005900	2.522600	-7.581700	29.713262	0.000214	20.827049
2366.657243	-3.008100	2.516500	-7.568700	29.775297	0.000214	20.810886
2367.662590	-2.977500	2.510200	-7.473200	29.764644	0.000214	20.842344
2368.659237	-3.012700	2.504700	-7.544100	29.728238	0.000214	20.821760
2369.660123	-2.987600	2.498100	-7.462600	29.722027	0.000215	20.837782
