LabVIEW Measurement	
Writer_Version	2
Reader_Version	2
Separator	Tab
Decimal_Separator	.
Multi_Headings	No
X_Columns	One
Time_Pref	Absolute
Operator	admin
Description	Clolumns are: time, Current, Voltage, Power, Battery Temp, and Chamber Temp
Date	2024/08/16
Time	13:06:06.104549407958984375
***End_of_Header***	
	
Channels	6						
Samples	1	1	1	1	1	1	
Date	2024/09/12	2024/09/12	2024/09/12	2024/09/12	2024/09/12	2024/09/12	
Time	19:16:55.9348392486572265625	19:16:55.9399046897888183594	19:16:55.9469056129455566407	19:16:55.9006686210632324219	19:16:55.9006686210632324219	19:16:55.9006686210632324219	
X_Dimension	Time	Time	Time	Time	Time	Time	
X0	0.0000000000000000E+0	0.0000000000000000E+0	0.0000000000000000E+0	0.0000000000000000E+0	0.0000000000000000E+0	0.0000000000000000E+0	
Delta_X	1.000000	1.000000	1.000000	1.000000	1.000000	1.000000	
***End_of_Header***							
X_Value	Untitled	Untitled 1	Untitled 2	Untitled 3	Untitled 4	Untitled 5	Comment
0.000000	3.400000E+38	4.094300	0.187460	21.023858	0.000920	20.765941
0.991370	-3.004000	3.916900	-11.766000	21.025955	0.000920	20.763771
1.983860	-2.997800	3.910900	-11.724000	21.020842	0.000917	20.793744
2.999180	-3.003800	3.905400	-11.731000	21.030549	0.000916	20.781642
3.989230	-3.029600	3.900000	-11.814000	21.011167	0.000916	20.792128
4.993010	-2.997500	3.898200	-11.684000	21.023540	0.000915	20.784589
5.988712	-3.003600	3.895700	-11.700000	21.029057	0.000912	20.771615
6.989361	-2.976600	3.892000	-11.584000	21.010623	0.000913	20.758392
7.990481	-2.981600	3.891900	-11.603000	21.047949	0.000912	20.772019
8.995183	-3.013000	3.888200	-11.713000	21.028689	0.000913	20.788790
9.997137	-2.986700	3.887300	-11.609000	21.036800	0.000911	20.756599
10.989688	-2.971900	3.884800	-11.545000	21.036651	0.000911	20.775417
11.995734	-2.994200	3.883200	-11.626000	21.040071	0.000908	20.786898
12.989353	-2.989500	3.882300	-11.605000	21.057139	0.000909	20.783107
13.991439	-2.993500	3.879500	-11.612000	21.065426	0.000908	20.761049
14.996565	-2.986900	3.878900	-11.586000	21.052875	0.000907	20.779790
15.991926	-2.997200	3.877800	-11.621000	21.066225	0.000906	20.786031
16.993867	-2.993200	3.877200	-11.604000	21.054651	0.000907	20.777300
17.996477	-2.993100	3.874600	-11.595000	21.094448	0.000907	20.761156
18.987572	-2.997000	3.873900	-11.609000	21.093674	0.000906	20.762752
19.993344	-2.989000	3.873200	-11.575000	21.076685	0.000904	20.766148
20.995151	-2.987700	3.873000	-11.569000	21.084818	0.000904	20.767645
21.987798	-2.962500	3.873500	-11.474000	21.109272	0.000904	20.765078
22.991856	-2.992800	3.870600	-11.582000	21.095152	0.000905	20.764231
23.989293	-3.016900	3.868200	-11.668000	21.114312	0.000904	20.779129
24.993093	-3.005400	3.869400	-11.627000	21.092037	0.000903	20.771547
25.993166	-3.010500	3.869500	-11.648000	21.132354	0.000903	20.782477
26.995991	-2.982500	3.868800	-11.536000	21.141859	0.000903	20.781080
28.000067	-2.984500	3.868700	-11.545000	21.146299	0.000902	20.781253
29.001855	-2.982800	3.868600	-11.538000	21.150545	0.000904	20.770802
29.990554	-3.006900	3.865900	-11.623000	21.174243	0.000902	20.767006
30.994442	-3.032400	3.863500	-11.714000	21.163169	0.000902	20.789594
31.995999	-2.995700	3.866800	-11.582000	21.182055	0.000901	20.771027
33.004676	-2.999300	3.863600	-11.586000	21.163820	0.000901	20.774597
34.010636	-3.003000	3.862800	-11.599000	21.179737	0.000901	20.760648
34.992117	-2.986600	3.863400	-11.537000	21.204360	0.000901	20.773425
35.999696	-3.005800	3.862700	-11.609000	21.195054	0.000900	20.775970
37.004035	-3.013300	3.861300	-11.634000	21.212269	0.000902	20.790820
38.005204	-3.014800	3.859800	-11.635000	21.196627	0.000902	20.771380
39.009084	-2.991200	3.860600	-11.546000	21.228061	0.000901	20.777221
39.995254	-2.998100	3.861100	-11.575000	21.232950	0.000899	20.804871
40.995616	-2.981200	3.860500	-11.507000	21.225118	0.000898	20.793243
41.997211	-2.991600	3.861100	-11.550000	21.268075	0.000899	20.786905
43.003182	-2.994300	3.860800	-11.560000	21.238114	0.000900	20.797709
44.003963	-2.978600	3.861400	-11.500000	21.247844	0.000899	20.784683
44.998516	-2.992700	3.859500	-11.549000	21.271869	0.000897	20.789752
46.002882	-2.994700	3.859400	-11.556000	21.283068	0.000899	20.780093
46.998965	-2.982400	3.857800	-11.503000	21.282222	0.000899	20.806273
47.999515	-3.016200	3.855300	-11.628000	21.282971	0.000898	20.794695
48.996905	-2.998200	3.857500	-11.564000	21.294274	0.000898	20.800787
49.997551	-3.005100	3.855900	-11.586000	21.302230	0.000898	20.805901
50.999594	-3.006600	3.856100	-11.592000	21.301408	0.000900	20.774259
52.000030	-2.991700	3.856200	-11.535000	21.309468	0.000898	20.799391
52.998866	-3.009400	3.855400	-11.601000	21.313284	0.000898	20.778079
54.005225	-2.993900	3.853600	-11.537000	21.316031	0.000898	20.787465
55.001119	-3.004300	3.854300	-11.578000	21.311840	0.000897	20.804609
56.007669	-3.009800	3.854300	-11.600000	21.342172	0.000900	20.805558
57.006353	-2.993500	3.854200	-11.537000	21.360508	0.000899	20.805411
58.006430	-3.016300	3.852600	-11.618000	21.362079	0.000898	20.801767
59.008133	-2.999100	3.854700	-11.558000	21.350608	0.000900	20.791713
60.000411	-2.991200	3.854000	-11.527000	21.372683	0.000900	20.790566
60.998735	-3.005900	3.852400	-11.577000	21.405733	0.000899	20.781907
62.014872	-2.980700	3.853000	-11.484000	21.397104	0.000898	20.786075
63.009264	-3.012800	3.851200	-11.602000	21.403043	0.000898	20.786328
64.010772	-3.010100	3.850400	-11.588000	21.407954	0.000898	20.798353
65.010986	-2.994600	3.851600	-11.534000	21.421024	0.000899	20.794835
66.003873	-2.987700	3.851300	-11.505000	21.441950	0.000899	20.802971
67.004242	-3.006800	3.849400	-11.573000	21.435968	0.000898	20.788450
68.011237	-2.995300	3.850700	-11.533000	21.458414	0.000898	20.786727
69.004109	-3.004000	3.850200	-11.565000	21.452279	0.000900	20.792916
70.006866	-2.989300	3.849400	-11.506000	21.464126	0.000899	20.803348
71.010445	-2.989700	3.850700	-11.511000	21.476273	0.000899	20.796062
72.018469	-2.996200	3.849800	-11.533000	21.471435	0.000900	20.808764
73.012819	-2.996900	3.847600	-11.529000	21.468815	0.000899	20.816574
74.011854	-2.990600	3.848100	-11.507000	21.492087	0.000899	20.811885
75.012903	-3.003800	3.847700	-11.556000	21.480816	0.000900	20.788753
76.003043	-2.996800	3.846500	-11.526000	21.516405	0.000897	20.797812
77.015178	-2.997000	3.846600	-11.527000	21.516532	0.000898	20.793671
78.020146	-3.003500	3.846600	-11.552000	21.536885	0.000899	20.827787
79.014503	-2.998200	3.847400	-11.534000	21.506308	0.000899	20.801458
80.007394	-3.001400	3.846400	-11.542000	21.523669	0.000898	20.806028
81.014081	-2.981800	3.846500	-11.468000	21.545913	0.000902	20.803630
82.009558	-2.992000	3.845200	-11.504000	21.548808	0.000900	20.818381
83.007343	-3.016700	3.843300	-11.593000	21.549383	0.000899	20.805206
84.004008	-2.993100	3.845100	-11.507000	21.560981	0.000898	20.821079
85.014854	-2.997500	3.845500	-11.525000	21.580709	0.000899	20.818060
86.008452	-2.993800	3.845100	-11.510000	21.606447	0.000900	20.823902
87.009302	-2.989700	3.846000	-11.496000	21.605849	0.000900	20.808605
88.008957	-2.994400	3.843300	-11.507000	21.610736	0.000900	20.804012
89.006887	-3.011100	3.844300	-11.574000	21.592807	0.000901	20.812624
90.010924	-2.986000	3.844300	-11.478000	21.644304	0.000903	20.817216
91.005549	-3.007100	3.844000	-11.559000	21.622785	0.000900	20.817966
92.006390	-3.019100	3.842300	-11.597000	21.666650	0.000898	20.806862
93.010778	-3.000700	3.843200	-11.531000	21.648397	0.000901	20.815622
94.016386	-2.995300	3.844600	-11.514000	21.647152	0.000903	20.806316
95.010810	-3.010800	3.843700	-11.570000	21.675382	0.000902	20.792841
96.010783	-2.998100	3.842400	-11.519000	21.692215	0.000901	20.804471
97.013808	-3.004100	3.843200	-11.545000	21.709720	0.000903	20.818671
98.014595	-3.004800	3.840800	-11.540000	21.691741	0.000903	20.812532
99.016147	-3.005400	3.842100	-11.545000	21.694834	0.000901	20.814679
100.012332	-2.970700	3.843500	-11.416000	21.706703	0.000903	20.800479
101.014681	-2.998000	3.840200	-11.510000	21.710620	0.000902	20.837115
102.019042	-3.007900	3.841600	-11.554000	21.730023	0.000902	20.814334
103.011997	-3.004600	3.841100	-11.540000	21.723516	0.000903	20.815883
104.009576	-2.995200	3.840700	-11.503000	21.739825	0.000904	20.818929
105.019249	-2.999300	3.840400	-11.517000	21.740946	0.000903	20.813413
106.022422	-2.992100	3.839700	-11.487000	21.745987	0.000903	20.829362
107.020519	-2.988700	3.839800	-11.474000	21.753416	0.000904	20.818780
108.010091	-3.005800	3.838700	-11.538000	21.736414	0.000905	20.828317
109.029119	-2.973500	3.840600	-11.419000	21.731927	0.000907	20.824775
110.018167	-2.994400	3.840300	-11.498000	21.753095	0.000903	20.830313
111.017042	-3.010700	3.837600	-11.552000	21.760777	0.000904	20.803863
112.020749	-2.981900	3.840200	-11.450000	21.758733	0.000904	20.835481
113.017845	-2.996900	3.839000	-11.503000	21.784239	0.000905	20.829241
114.019261	-2.998900	3.837500	-11.507000	21.777733	0.000905	20.854022
115.032991	-2.995100	3.837200	-11.492000	21.805362	0.000905	20.821932
116.019293	-3.019100	3.836900	-11.583000	21.823140	0.000905	20.814597
117.014556	-3.011500	3.837000	-11.555000	21.815288	0.000904	20.830919
118.022085	-3.003700	3.837900	-11.527000	21.835333	0.000906	20.828697
119.019789	-2.980300	3.836700	-11.432000	21.832020	0.000906	20.826329
120.013993	-3.015600	3.836900	-11.569000	21.861691	0.000907	20.822362
121.037901	-2.994300	3.838100	-11.491000	21.864235	0.000906	20.835814
122.019208	-2.977000	3.837400	-11.423000	21.869374	0.000908	20.831949
123.019520	-3.009100	3.836000	-11.542000	21.867931	0.000907	20.828133
124.021144	-3.002600	3.836700	-11.519000	21.872613	0.000907	20.834242
125.027550	-3.002800	3.835300	-11.515000	21.873816	0.000909	20.830705
126.022879	-3.004300	3.835300	-11.522000	21.905105	0.000908	20.841635
127.019498	-3.000700	3.834600	-11.506000	21.911687	0.000906	20.821671
128.014066	-3.011900	3.834000	-11.547000	21.906154	0.000909	20.852168
129.023045	-3.011400	3.834000	-11.545000	21.923257	0.000908	20.824717
130.022544	-3.004500	3.835000	-11.521000	21.928195	0.000909	20.835824
131.027680	-3.001700	3.833800	-11.507000	21.934179	0.000910	20.839443
132.023762	-3.011900	3.833500	-11.544000	21.935677	0.000909	20.830511
133.021446	-2.985200	3.835700	-11.449000	21.967091	0.000910	20.833033
134.031244	-3.007900	3.833900	-11.531000	21.974070	0.000909	20.822950
135.021066	-3.005900	3.832200	-11.518000	21.984793	0.000912	20.837477
136.021870	-3.000400	3.833400	-11.501000	21.994941	0.000911	20.849057
137.019456	-2.977400	3.833800	-11.414000	22.006757	0.000910	20.848558
138.020586	-2.984700	3.834700	-11.443000	21.983426	0.000911	20.854600
139.031100	-3.015500	3.832100	-11.554000	21.997187	0.000914	20.843720
140.034538	-2.984300	3.833400	-11.439000	21.977547	0.000909	20.843025
141.023762	-3.000400	3.831200	-11.493000	22.006988	0.000913	20.847367
142.022396	-3.005700	3.833400	-11.521000	22.018705	0.000914	20.846768
143.032641	-3.007800	3.830600	-11.520000	22.046702	0.000914	20.851562
144.024508	-2.998300	3.830900	-11.485000	22.060988	0.000915	20.837415
145.022321	-3.017600	3.830400	-11.557000	22.049772	0.000915	20.838515
146.020483	-2.989300	3.831800	-11.453000	22.079589	0.000914	20.835647
147.036285	-3.015500	3.828900	-11.544000	22.075475	0.000918	20.858081
148.026779	-2.993900	3.831800	-11.470000	22.082755	0.000915	20.835024
149.032708	-3.013900	3.828300	-11.536000	22.086373	0.000916	20.854767
150.023676	-2.988300	3.830600	-11.446000	22.105640	0.000915	20.849874
151.035721	-3.011900	3.829000	-11.532000	22.123938	0.000916	20.869140
152.021151	-3.011300	3.829100	-11.527000	22.113970	0.000917	20.851575
153.028589	-2.982700	3.829900	-11.422000	22.114939	0.000917	20.840692
154.027206	-3.015300	3.829500	-11.547000	22.129425	0.000915	20.863728
155.022394	-3.005700	3.829400	-11.509000	22.123546	0.000918	20.845989
156.024133	-2.999300	3.827900	-11.480000	22.159088	0.000918	20.873037
157.038863	-3.013200	3.828600	-11.536000	22.161858	0.000918	20.860638
158.030690	-2.967300	3.829000	-11.360000	22.189202	0.000921	20.850083
159.036047	-3.011000	3.828000	-11.525000	22.169463	0.000921	20.868725
160.042953	-3.004600	3.826800	-11.496000	22.167370	0.000921	20.879431
161.038917	-2.988200	3.828500	-11.438000	22.168493	0.000921	20.862539
162.030591	-2.996200	3.827400	-11.466000	22.177043	0.000924	20.864935
163.032966	-3.002000	3.826900	-11.487000	22.176547	0.000923	20.854482
164.031649	-3.002900	3.827800	-11.493000	22.174804	0.000925	20.850366
165.031429	-2.988900	3.828200	-11.441000	22.177373	0.000926	20.854360
166.031783	-2.994600	3.827900	-11.462000	22.208056	0.000923	20.850468
167.038977	-3.014800	3.824900	-11.531000	22.180415	0.000924	20.877793
168.025568	-3.023000	3.825600	-11.563000	22.217257	0.000923	20.875800
169.031470	-2.983900	3.827200	-11.419000	22.225754	0.000925	20.868661
170.031598	-3.012000	3.825300	-11.521000	22.212026	0.000926	20.864873
171.032807	-3.008800	3.825200	-11.507000	22.257188	0.000928	20.878796
172.027349	-2.997300	3.825800	-11.466000	22.266512	0.000927	20.858263
173.025242	-2.996000	3.826900	-11.463000	22.283461	0.000928	20.873810
174.033791	-2.994500	3.823900	-11.449000	22.278626	0.000927	20.864228
175.031215	-2.984800	3.825400	-11.417000	22.299561	0.000927	20.861956
176.032879	-2.973200	3.825400	-11.373000	22.282040	0.000930	20.893248
177.029435	-2.989200	3.824500	-11.431000	22.300635	0.000932	20.877255
178.027883	-3.015300	3.823300	-11.527000	22.295101	0.000928	20.857017
179.023223	-3.010800	3.823500	-11.511000	22.298666	0.000929	20.857741
180.034148	-2.989400	3.823700	-11.429000	22.308888	0.000930	20.874140
181.036242	-2.997600	3.821900	-11.456000	22.310380	0.000930	20.870893
182.038863	-3.008300	3.821300	-11.493000	22.314543	0.000931	20.883595
183.033226	-2.992500	3.822300	-11.437000	22.312649	0.000932	20.888810
184.041669	-3.013800	3.821100	-11.515000	22.324988	0.000934	20.879355
185.053458	-2.994000	3.821200	-11.440000	22.340064	0.000933	20.869322
186.038263	-3.010000	3.820200	-11.498000	22.342806	0.000931	20.870645
187.048956	-2.997500	3.820100	-11.450000	22.333437	0.000933	20.867902
188.047091	-2.991100	3.820900	-11.427000	22.364166	0.000934	20.856947
189.041816	-2.981200	3.822100	-11.393000	22.367555	0.000933	20.873616
190.038759	-3.026400	3.820200	-11.561000	22.381809	0.000934	20.900216
191.035605	-3.000000	3.821800	-11.463000	22.374233	0.000935	20.885993
192.029087	-3.006700	3.820700	-11.487000	22.364416	0.000936	20.883275
193.042988	-3.022800	3.819200	-11.544000	22.376680	0.000934	20.889865
194.045647	-2.994900	3.820400	-11.441000	22.382684	0.000936	20.875965
195.031783	-3.002500	3.819400	-11.467000	22.366863	0.000935	20.866286
196.055918	-3.006400	3.818300	-11.478000	22.388818	0.000935	20.869779
197.034632	-3.026200	3.818900	-11.555000	22.395970	0.000938	20.894008
198.047902	-3.006600	3.818100	-11.479000	22.366714	0.000937	20.895059
199.036304	-3.006800	3.818300	-11.480000	22.393478	0.000939	20.892936
200.051181	-3.003700	3.819300	-11.471000	22.406540	0.000936	20.882310
201.056080	-2.987400	3.818700	-11.406000	22.411550	0.000939	20.895386
202.053110	-2.987000	3.818500	-11.405000	22.394007	0.000938	20.900577
203.047683	-3.012900	3.817900	-11.502000	22.430815	0.000938	20.900927
204.036500	-3.002300	3.818000	-11.462000	22.417884	0.000938	20.890824
205.041304	-3.000900	3.817600	-11.455000	22.422842	0.000939	20.888677
206.036178	-3.005500	3.816400	-11.469000	22.430968	0.000939	20.889702
207.037318	-3.002900	3.816500	-11.460000	22.438398	0.000943	20.898564
208.036726	-2.995500	3.816700	-11.432000	22.461945	0.000941	20.917876
209.047679	-3.029400	3.816300	-11.560000	22.489433	0.000941	20.901784
210.034662	-2.994400	3.816800	-11.427000	22.508646	0.000942	20.907274
211.036140	-2.984300	3.816100	-11.387000	22.524793	0.000942	20.908272
212.057326	-3.015800	3.816800	-11.510000	22.521434	0.000944	20.892108
213.053922	-2.991700	3.816500	-11.416000	22.552780	0.000944	20.897897
214.047828	-2.990200	3.815700	-11.408000	22.552208	0.000943	20.913443
215.052240	-2.998800	3.816500	-11.444000	22.561205	0.000945	20.906334
216.079706	-3.012200	3.814500	-11.489000	22.597185	0.000944	20.890688
217.051347	-3.012100	3.814500	-11.489000	22.582038	0.000945	20.885476
218.046881	-3.026800	3.813000	-11.539000	22.599956	0.000947	20.905317
219.050829	-3.004800	3.814900	-11.463000	22.615978	0.000947	20.902398
220.047755	-2.985000	3.815600	-11.389000	22.627067	0.000944	20.912081
221.041166	-2.995100	3.813200	-11.420000	22.641769	0.000947	20.881291
222.043998	-3.013800	3.813300	-11.492000	22.638282	0.000948	20.910038
223.055625	-3.005000	3.813200	-11.457000	22.653805	0.000948	20.922740
224.040914	-3.001400	3.812600	-11.442000	22.639281	0.000949	20.915306
225.058843	-2.995400	3.813300	-11.421000	22.649374	0.000949	20.894122
226.064082	-2.988100	3.813100	-11.393000	22.640206	0.000953	20.892526
227.053257	-3.001100	3.811700	-11.438000	22.642402	0.000951	20.900415
228.051380	-3.010800	3.812000	-11.476000	22.648980	0.000951	20.875712
229.045174	-2.992500	3.811800	-11.405000	22.681549	0.000952	20.937726
230.056391	-2.984600	3.811800	-11.375000	22.659078	0.000952	20.899100
231.058857	-2.999600	3.811200	-11.431000	22.660272	0.000952	20.878013
232.061219	-2.998200	3.811000	-11.425000	22.654421	0.000954	20.883057
233.054106	-2.980200	3.810700	-11.356000	22.660525	0.000954	20.883956
234.044713	-3.020300	3.810600	-11.507000	22.658034	0.000953	20.881935
235.056906	-3.007400	3.809900	-11.457000	22.701139	0.000956	20.872481
236.060251	-3.016100	3.809300	-11.488000	22.685567	0.000954	20.865892
237.044239	-3.013600	3.811200	-11.483000	22.698899	0.000956	20.891098
238.055764	-3.002600	3.809200	-11.436000	22.714921	0.000956	20.883914
239.044544	-2.984400	3.810200	-11.371000	22.719531	0.000957	20.899910
240.054679	-3.011600	3.807000	-11.463000	22.740012	0.000956	20.889607
241.051493	-3.002800	3.808600	-11.435000	22.734183	0.000959	20.876182
242.060407	-2.998900	3.808800	-11.422000	22.731591	0.000956	20.882594
243.056897	-3.013100	3.808700	-11.475000	22.716793	0.000958	20.872514
244.053555	-3.000300	3.808600	-11.426000	22.733514	0.000958	20.875038
245.050250	-2.992700	3.808500	-11.397000	22.750830	0.000957	20.871521
246.055274	-2.986300	3.807500	-11.369000	22.725145	0.000960	20.867604
247.058262	-3.009800	3.807200	-11.458000	22.744429	0.000959	20.871747
248.051337	-2.993600	3.807200	-11.396000	22.745725	0.000961	20.883950
249.053883	-2.999400	3.806800	-11.417000	22.758434	0.000959	20.871077
250.049842	-2.995300	3.807000	-11.402000	22.733423	0.000961	20.878266
251.056087	-3.020800	3.805800	-11.494000	22.755522	0.000963	20.858678
252.063415	-3.021000	3.806100	-11.497000	22.723813	0.000962	20.871959
253.055135	-2.993000	3.807200	-11.394000	22.748028	0.000963	20.857810
254.064046	-2.997000	3.805700	-11.405000	22.798603	0.000962	20.847781
255.073883	-3.016200	3.804900	-11.474000	22.773844	0.000964	20.877980
256.054438	-3.000000	3.806200	-11.417000	22.780523	0.000964	20.867601
257.048326	-2.993000	3.805000	-11.387000	22.791834	0.000964	20.850957
258.060200	-2.989900	3.804900	-11.375000	22.799437	0.000964	20.868056
259.057229	-3.007000	3.805000	-11.440000	22.819567	0.000963	20.876367
260.054735	-2.988600	3.805400	-11.372000	22.797772	0.000965	20.862121
261.071167	-3.012400	3.803400	-11.456000	22.811254	0.000968	20.854290
262.057405	-3.004900	3.802800	-11.426000	22.807118	0.000965	20.879543
263.069888	-2.998300	3.803800	-11.404000	22.811656	0.000968	20.858485
264.062535	-3.022200	3.802200	-11.489000	22.825382	0.000968	20.853270
265.059551	-2.988900	3.804000	-11.368000	22.845041	0.000967	20.872015
266.060197	-2.992400	3.804000	-11.382000	22.839639	0.000968	20.864707
267.057563	-3.001200	3.803400	-11.414000	22.867765	0.000968	20.863012
268.064151	-2.993100	3.802600	-11.381000	22.859245	0.000970	20.852581
269.057324	-2.981500	3.802500	-11.336000	22.881468	0.000968	20.859671
270.056451	-2.995400	3.801100	-11.385000	22.874495	0.000971	20.859798
271.064046	-2.981100	3.802500	-11.335000	22.904736	0.000973	20.854533
272.063725	-2.992700	3.802100	-11.377000	22.911590	0.000971	20.848598
273.062419	-3.003600	3.801200	-11.415000	22.919862	0.000973	20.839815
274.066730	-2.980700	3.800000	-11.326000	22.908781	0.000972	20.828715
275.074282	-3.005000	3.800800	-11.420000	22.932098	0.000971	20.841643
276.079359	-3.002100	3.800700	-11.408000	22.953670	0.000973	20.828643
277.067866	-2.995100	3.799700	-11.380000	22.972925	0.000972	20.838451
278.070537	-3.003200	3.798800	-11.408000	22.959179	0.000974	20.841748
279.064919	-3.001900	3.799400	-11.405000	23.003490	0.000975	20.842523
280.057018	-3.015300	3.798200	-11.451000	22.978835	0.000973	20.853381
281.086406	-3.004500	3.799900	-11.416000	22.976045	0.000975	20.861491
282.062770	-2.976800	3.800100	-11.311000	22.982027	0.000973	20.832398
283.064994	-3.009700	3.799100	-11.433000	22.994362	0.000976	20.830532
284.075008	-3.000700	3.797200	-11.393000	23.015756	0.000976	20.839166
285.070454	-2.998600	3.798800	-11.390000	23.028586	0.000975	20.826416
286.074458	-2.989700	3.798400	-11.355000	23.007764	0.000979	20.826891
287.078218	-3.019600	3.796600	-11.463000	23.016486	0.000978	20.844638
288.066453	-2.999100	3.796700	-11.386000	23.018134	0.000977	20.845815
289.074314	-2.994500	3.796700	-11.369000	23.000900	0.000982	20.832815
290.069390	-3.018700	3.796200	-11.458000	23.028201	0.000980	20.831721
291.060234	-3.003700	3.795500	-11.399000	23.027728	0.000981	20.844048
292.075164	-2.986200	3.796600	-11.336000	23.010794	0.000981	20.833719
293.076920	-2.984300	3.796400	-11.329000	23.015829	0.000981	20.824540
294.080002	-3.012000	3.795300	-11.430000	23.019290	0.000981	20.847922
295.069618	-2.994000	3.797000	-11.368000	23.032070	0.000983	20.832278
296.070833	-3.015900	3.794800	-11.443000	23.037455	0.000982	20.842414
297.069599	-3.004200	3.794900	-11.401000	23.018699	0.000983	20.829786
298.078261	-3.024100	3.793400	-11.471000	23.021318	0.000984	20.830514
299.074831	-3.017700	3.794300	-11.449000	23.030013	0.000983	20.828320
300.076577	-3.003500	3.795300	-11.398000	23.059680	0.000985	20.837657
301.079679	-2.989600	3.794100	-11.342000	23.052010	0.000985	20.822385
302.061662	-3.004400	3.793300	-11.395000	23.060407	0.000985	20.835540
303.082085	-3.017900	3.793200	-11.447000	23.045638	0.000986	20.843975
304.082614	-3.011400	3.793300	-11.422000	23.054233	0.000986	20.831251
305.081258	-3.008100	3.792300	-11.406000	23.045245	0.000988	20.814659
306.074330	-3.002400	3.793600	-11.388000	23.083850	0.000987	20.814935
307.081429	-2.997100	3.792600	-11.366000	23.061585	0.000987	20.811117
308.082179	-3.019100	3.789900	-11.440000	23.065574	0.000988	20.831235
309.076259	-2.997900	3.793300	-11.371000	23.044632	0.000989	20.823528
310.092402	-2.998800	3.791200	-11.367000	23.037682	0.000988	20.815616
311.071245	-2.990700	3.791800	-11.339000	23.036692	0.000989	20.817469
312.081196	-3.018500	3.791400	-11.442000	23.066056	0.000989	20.822235
313.081086	-3.007100	3.790500	-11.397000	23.078910	0.000991	20.815675
314.073091	-2.998500	3.790400	-11.365000	23.117987	0.000990	20.821166
315.085506	-2.996400	3.790000	-11.355000	23.124068	0.000990	20.826784
316.086555	-3.004300	3.788600	-11.380000	23.110549	0.000992	20.830308
317.088195	-2.984400	3.790700	-11.312000	23.121705	0.000991	20.823468
318.077598	-2.999400	3.790100	-11.367000	23.115810	0.000992	20.813768
319.072587	-2.981900	3.789200	-11.297000	23.147216	0.000989	20.800195
320.074208	-3.008500	3.789700	-11.401000	23.130184	0.000994	20.816793
321.081420	-2.992000	3.789600	-11.336000	23.146798	0.000994	20.804518
322.078941	-2.998800	3.787500	-11.357000	23.173419	0.000993	20.815073
323.082345	-2.979700	3.788800	-11.289000	23.177260	0.000994	20.808016
324.083931	-3.023500	3.788800	-11.453000	23.181123	0.000995	20.798611
325.092580	-2.995100	3.786500	-11.339000	23.173905	0.000995	20.795645
326.081977	-3.002900	3.788200	-11.375000	23.174801	0.000993	20.806026
327.086815	-3.003500	3.787000	-11.373000	23.200528	0.000994	20.808100
328.082906	-3.000000	3.786700	-11.359000	23.196972	0.000997	20.801217
329.104899	-3.002900	3.786000	-11.368000	23.221328	0.000998	20.815667
330.079193	-2.987700	3.787700	-11.316000	23.215629	0.000997	20.815171
331.074489	-3.035400	3.784400	-11.486000	23.212245	0.000997	20.806091
332.076938	-2.992100	3.786900	-11.330000	23.189389	0.000999	20.799307
333.080482	-3.006400	3.785400	-11.379000	23.192624	0.000998	20.800652
334.083057	-3.007600	3.784000	-11.380000	23.222485	0.000999	20.804498
335.074045	-2.995000	3.784700	-11.334000	23.240866	0.001000	20.806324
336.075843	-2.981900	3.785200	-11.286000	23.251822	0.001000	20.796915
337.083457	-3.009600	3.784000	-11.388000	23.243482	0.001002	20.798988
338.079119	-3.008000	3.783900	-11.381000	23.272395	0.001002	20.804731
339.073405	-3.017000	3.783500	-11.413000	23.268391	0.001001	20.798821
340.079514	-2.980600	3.784900	-11.281000	23.261869	0.001003	20.789914
341.095326	-2.991400	3.782400	-11.312000	23.284579	0.001002	20.798923
342.084246	-3.006000	3.783000	-11.370000	23.265255	0.001001	20.799472
343.094732	-2.994300	3.782900	-11.325000	23.266879	0.001004	20.803943
344.083971	-3.012500	3.782800	-11.394000	23.302415	0.001004	20.794039
345.088355	-3.020800	3.782700	-11.424000	23.276171	0.001003	20.788600
346.097176	-3.010600	3.781400	-11.383000	23.271591	0.001003	20.777846
347.091975	-3.022700	3.780600	-11.427000	23.254735	0.001004	20.804101
348.107005	-3.001100	3.780900	-11.345000	23.262531	0.001004	20.782517
349.088623	-3.016200	3.780000	-11.399000	23.262735	0.001004	20.774660
350.096758	-2.971000	3.783400	-11.239000	23.270577	0.001004	20.775881
351.100200	-2.994100	3.781600	-11.322000	23.286815	0.001005	20.804009
352.092661	-2.982300	3.780200	-11.273000	23.311920	0.001005	20.786496
353.092401	-3.015900	3.778900	-11.396000	23.315408	0.001004	20.789517
354.097090	-2.993300	3.779700	-11.313000	23.327836	0.001006	20.806240
355.089160	-3.008400	3.779000	-11.368000	23.314342	0.001006	20.770430
356.098065	-3.000600	3.778700	-11.338000	23.295495	0.001008	20.768611
357.092791	-2.993300	3.779700	-11.313000	23.296991	0.001008	20.779594
358.091170	-3.004300	3.779800	-11.355000	23.303668	0.001008	20.785337
359.099778	-2.988900	3.779800	-11.296000	23.325829	0.001008	20.773409
360.103397	-2.984400	3.779200	-11.277000	23.333049	0.001007	20.781119
361.096874	-2.982700	3.778500	-11.269000	23.346475	0.001008	20.777980
362.096351	-2.993700	3.777200	-11.306000	23.384124	0.001009	20.773514
363.090914	-3.011200	3.778200	-11.376000	23.378228	0.001010	20.775665
364.113040	-2.997300	3.776700	-11.319000	23.407039	0.001008	20.789369
365.101476	-2.992000	3.776400	-11.298000	23.423874	0.001011	20.767363
366.103108	-2.965200	3.778300	-11.202000	23.421382	0.001011	20.778141
367.090920	-2.989200	3.776800	-11.288000	23.417180	0.001012	20.775826
368.110150	-2.992700	3.776200	-11.299000	23.442129	0.001009	20.793246
369.093741	-2.996900	3.775200	-11.312000	23.433769	0.001010	20.771116
370.122079	-2.996900	3.774300	-11.310000	23.451621	0.001012	20.787113
371.113408	-2.991200	3.775100	-11.291000	23.439600	0.001010	20.768426
372.097192	-2.997200	3.775500	-11.314000	23.417567	0.001013	20.782852
373.098373	-2.987500	3.774300	-11.276000	23.424642	0.001011	20.770977
374.108958	-3.008800	3.773500	-11.353000	23.404374	0.001013	20.774370
375.092310	-2.988600	3.774200	-11.278000	23.392851	0.001014	20.783209
376.098367	-3.008700	3.773300	-11.351000	23.429379	0.001013	20.767664
377.105227	-2.987000	3.774600	-11.274000	23.440859	0.001014	20.790551
378.100776	-3.008800	3.771800	-11.347000	23.431228	0.001013	20.777104
379.106143	-2.998000	3.772700	-11.310000	23.443679	0.001015	20.774411
380.105908	-2.989800	3.773100	-11.280000	23.415945	0.001015	20.784071
381.118003	-2.992800	3.772000	-11.288000	23.436166	0.001015	20.760242
382.113525	-2.994300	3.772100	-11.294000	23.450460	0.001015	20.753232
383.102471	-2.985800	3.772400	-11.262000	23.428226	0.001015	20.751810
384.113340	-2.994800	3.771600	-11.294000	23.434330	0.001017	20.755557
385.093063	-2.992500	3.770000	-11.281000	23.410655	0.001015	20.774502
386.093975	-3.009000	3.769700	-11.342000	23.414492	0.001014	20.757010
387.114415	-2.972400	3.771700	-11.209000	23.421115	0.001016	20.766494
388.102283	-2.996100	3.769900	-11.293000	23.412804	0.001016	20.761957
389.105185	-3.002900	3.770800	-11.323000	23.405412	0.001017	20.757866
390.104907	-2.994900	3.769100	-11.286000	23.396349	0.001016	20.754947
391.106050	-3.001300	3.769200	-11.311000	23.434621	0.001015	20.758220
392.101917	-3.007500	3.769000	-11.335000	23.409079	0.001019	20.741153
393.116842	-3.013100	3.768400	-11.353000	23.391925	0.001018	20.763315
394.122160	-2.987900	3.769000	-11.260000	23.407762	0.001019	20.763541
395.105348	-3.005500	3.767100	-11.321000	23.428379	0.001018	20.764291
396.118610	-2.985900	3.768000	-11.248000	23.450739	0.001019	20.752564
397.120730	-3.005000	3.768000	-11.321000	23.465453	0.001019	20.741234
398.106263	-2.972800	3.768900	-11.203000	23.448752	0.001020	20.760055
399.102155	-2.982800	3.767700	-11.237000	23.489637	0.001019	20.731809
400.102410	-2.996000	3.766400	-11.283000	23.518714	0.001019	20.747680
401.108887	-3.013400	3.766300	-11.348000	23.537041	0.001020	20.746137
402.125216	-3.015500	3.765600	-11.354000	23.556036	0.001021	20.752376
403.124060	-3.001000	3.765800	-11.300000	23.558005	0.001019	20.742496
404.103241	-3.017000	3.764600	-11.356000	23.551535	0.001022	20.763511
405.107447	-2.970600	3.767100	-11.189000	23.550638	0.001022	20.752655
406.116861	-3.002400	3.765100	-11.303000	23.560497	0.001023	20.745942
407.111125	-3.023400	3.762400	-11.374000	23.569685	0.001021	20.739031
408.098159	-3.014600	3.764200	-11.347000	23.557412	0.001022	20.729572
409.106707	-2.997100	3.762600	-11.275000	23.544316	0.001022	20.731144
410.113493	-2.989900	3.763100	-11.251000	23.566028	0.001022	20.743900
411.106813	-3.004300	3.762400	-11.301000	23.557737	0.001023	20.755977
412.108917	-3.003200	3.762200	-11.297000	23.580196	0.001022	20.756681
413.102349	-3.003700	3.762700	-11.301000	23.593190	0.001021	20.757379
414.109962	-3.002500	3.763000	-11.297000	23.578100	0.001025	20.740355
415.099749	-3.014100	3.761900	-11.338000	23.620898	0.001024	20.734894
416.113163	-2.996100	3.762600	-11.272000	23.619652	0.001022	20.742180
417.113570	-3.007300	3.760800	-11.308000	23.631952	0.001024	20.729381
418.102151	-2.984600	3.760600	-11.222000	23.646843	0.001024	20.748578
419.117557	-3.008900	3.760300	-11.314000	23.637603	0.001024	20.739314
420.127933	-2.997100	3.760000	-11.268000	23.661103	0.001023	20.747700
421.131216	-3.016900	3.759000	-11.340000	23.654880	0.001026	20.744781
422.114992	-3.016300	3.758300	-11.335000	23.643928	0.001029	20.745181
423.122741	-3.017600	3.758800	-11.342000	23.649780	0.001026	20.733977
424.112686	-3.007800	3.758300	-11.304000	23.671737	0.001028	20.725644
425.112916	-2.993700	3.759000	-11.251000	23.668003	0.001026	20.726641
426.108568	-2.987900	3.759000	-11.230000	23.672436	0.001025	20.741518
427.116804	-3.006800	3.758500	-11.300000	23.626061	0.001024	20.742441
428.109307	-2.998200	3.760600	-11.273000	23.595593	0.001027	20.757417
429.110607	-3.018000	3.758100	-11.341000	23.601544	0.001027	20.740148
430.115533	-3.003700	3.756400	-11.282000	23.616629	0.001027	20.736779
431.123659	-3.007900	3.755000	-11.294000	23.614092	0.001027	20.722380
432.112143	-2.998400	3.757200	-11.264000	23.625365	0.001027	20.755021
433.118974	-3.003800	3.755500	-11.279000	23.625270	0.001029	20.741174
434.117194	-2.979300	3.756000	-11.189000	23.674560	0.001026	20.733216
435.112855	-2.997400	3.756600	-11.259000	23.675877	0.001029	20.736432
436.124318	-3.004300	3.754900	-11.280000	23.678764	0.001030	20.751656
437.121271	-3.027600	3.754100	-11.364000	23.706943	0.001027	20.747190
438.108513	-3.003900	3.753500	-11.274000	23.719987	0.001028	20.710954
439.112657	-3.006000	3.754200	-11.285000	23.702760	0.001028	20.750109
440.133117	-2.977600	3.754800	-11.178000	23.707617	0.001028	20.712302
441.117925	-2.994700	3.753900	-11.241000	23.720012	0.001026	20.735636
442.110888	-2.966800	3.754800	-11.139000	23.753067	0.001028	20.724206
443.117252	-3.007800	3.750900	-11.281000	23.749432	0.001030	20.746641
444.114399	-3.002900	3.752300	-11.266000	23.762173	0.001028	20.723853
445.124601	-2.993300	3.752400	-11.230000	23.777235	0.001032	20.737533
446.115018	-3.001100	3.751800	-11.259000	23.783361	0.001032	20.735615
447.118419	-3.003400	3.752800	-11.269000	23.753441	0.001029	20.722210
448.115137	-3.015000	3.751800	-11.310000	23.751376	0.001031	20.744797
449.110485	-3.011400	3.751400	-11.296000	23.739155	0.001032	20.742027
450.130632	-2.983300	3.751400	-11.190000	23.748895	0.001033	20.732826
451.113887	-2.999100	3.750600	-11.247000	23.765963	0.001032	20.713427
452.112589	-3.037300	3.749200	-11.386000	23.775922	0.001031	20.714404
453.116858	-3.010300	3.749300	-11.286000	23.753695	0.001032	20.707291
454.122708	-2.987400	3.749800	-11.201000	23.747448	0.001031	20.738014
455.115815	-2.991700	3.749200	-11.215000	23.736620	0.001031	20.727157
456.123249	-2.984200	3.749000	-11.186000	23.728510	0.001031	20.729457
457.110858	-3.013000	3.749000	-11.294000	23.742401	0.001033	20.728685
458.113941	-2.982700	3.748800	-11.180000	23.725598	0.001031	20.730805
459.125752	-2.991800	3.748600	-11.214000	23.726071	0.001033	20.719425
460.120561	-3.014400	3.747000	-11.294000	23.775678	0.001032	20.729807
461.111948	-3.017000	3.746500	-11.302000	23.750067	0.001033	20.715033
462.128341	-2.991300	3.747400	-11.209000	23.755371	0.001033	20.715136
463.116229	-3.013800	3.746100	-11.289000	23.786459	0.001031	20.737773
464.118673	-2.988500	3.745900	-11.194000	23.796069	0.001031	20.737450
465.133588	-2.995000	3.747300	-11.222000	23.779443	0.001033	20.731686
466.114377	-3.012100	3.746200	-11.283000	23.793207	0.001034	20.744538
467.117482	-3.004600	3.746400	-11.256000	23.782955	0.001032	20.755596
468.116841	-2.996200	3.746800	-11.226000	23.811057	0.001033	20.747263
469.117819	-3.003400	3.743500	-11.242000	23.844635	0.001032	20.729722
470.113507	-3.008400	3.745200	-11.267000	23.829499	0.001033	20.753427
471.134116	-3.019000	3.744800	-11.305000	23.854890	0.001032	20.746169
472.128555	-3.006800	3.743900	-11.256000	23.874405	0.001032	20.714526
473.122293	-3.016700	3.744200	-11.293000	23.918158	0.001032	20.725684
474.115008	-2.994600	3.743300	-11.209000	23.896209	0.001035	20.736866
475.127760	-3.003800	3.742800	-11.241000	23.896061	0.001034	20.731975
476.120410	-2.998500	3.744200	-11.226000	23.881180	0.001033	20.724166
477.125466	-2.992100	3.742400	-11.197000	23.889246	0.001033	20.705226
478.120389	-2.999100	3.741900	-11.222000	23.869086	0.001032	20.729109
479.126586	-3.004300	3.741600	-11.240000	23.862420	0.001034	20.723847
480.119652	-2.999300	3.742200	-11.223000	23.871556	0.001032	20.736802
481.128449	-3.002100	3.741600	-11.230000	23.874993	0.001036	20.733610
482.130186	-3.010000	3.741400	-11.260000	23.892362	0.001034	20.736328
483.129783	-2.995800	3.740400	-11.204000	23.896374	0.001033	20.708106
484.136929	-2.998500	3.739300	-11.211000	23.899959	0.001034	20.743946
485.126276	-2.999100	3.740100	-11.217000	23.917631	0.001035	20.724207
486.131867	-3.001500	3.739600	-11.224000	23.914572	0.001033	20.733942
487.133220	-2.987100	3.739900	-11.169000	23.918457	0.001033	20.730725
488.118580	-2.997900	3.738200	-11.205000	23.932169	0.001036	20.726932
489.126244	-3.027300	3.737900	-11.315000	23.911096	0.001035	20.732353
490.134614	-2.993400	3.738100	-11.189000	23.883028	0.001035	20.731709
491.137017	-2.983100	3.738800	-11.153000	23.885540	0.001036	20.738496
492.124123	-2.992600	3.738900	-11.189000	23.892605	0.001034	20.740365
493.135011	-3.026600	3.737100	-11.310000	23.863993	0.001034	20.717837
494.128520	-3.021700	3.735300	-11.286000	23.872007	0.001034	20.729667
495.128540	-3.016800	3.736300	-11.270000	23.892838	0.001034	20.727321
496.140663	-3.002900	3.735400	-11.216000	23.891295	0.001036	20.732413
497.132129	-2.976700	3.738500	-11.128000	23.895975	0.001034	20.711499
498.128239	-3.007200	3.736800	-11.236000	23.911085	0.001034	20.732816
499.133820	-3.017200	3.734700	-11.268000	23.923604	0.001033	20.733517
500.130627	-3.009100	3.735200	-11.238000	23.943686	0.001034	20.748439
501.141722	-2.975500	3.736000	-11.115000	23.945754	0.001033	20.750039
502.126249	-2.980600	3.734800	-11.131000	23.953319	0.001034	20.764264
503.122930	-2.982500	3.736400	-11.142000	23.992715	0.001034	20.738811
504.121892	-3.008800	3.734200	-11.234000	23.986618	0.001035	20.746447
505.126771	-3.002500	3.733700	-11.208000	24.014492	0.001033	20.740261
506.127521	-2.995400	3.733500	-11.182000	24.033355	0.001035	20.732151
507.129529	-3.008900	3.732900	-11.229000	24.045750	0.001034	20.754065
508.146131	-2.999900	3.731700	-11.193000	24.039106	0.001033	20.743609
509.127233	-2.998400	3.733100	-11.193000	24.060784	0.001034	20.751125
510.132101	-3.012100	3.732000	-11.240000	24.078675	0.001037	20.738722
511.132427	-2.992600	3.732400	-11.170000	24.079621	0.001035	20.742989
512.129807	-3.007900	3.731300	-11.223000	24.089105	0.001033	20.771942
513.135835	-2.989700	3.731100	-11.154000	24.090823	0.001034	20.758492
514.147376	-3.017700	3.729600	-11.253000	24.092619	0.001032	20.742275
515.136636	-2.985400	3.730800	-11.136000	24.087718	0.001035	20.747317
516.127650	-3.017400	3.730100	-11.254000	24.078636	0.001035	20.749589
517.131848	-3.000700	3.730100	-11.192000	24.103619	0.001033	20.758524
518.131641	-2.995300	3.729900	-11.171000	24.123479	0.001034	20.750466
519.136334	-2.996700	3.729600	-11.175000	24.140724	0.001033	20.756857
520.138977	-3.003200	3.729300	-11.199000	24.123355	0.001034	20.749394
521.140741	-3.004300	3.728300	-11.200000	24.124301	0.001036	20.765990
522.135527	-2.999900	3.728900	-11.184000	24.136769	0.001033	20.753839
523.130874	-2.994100	3.727200	-11.158000	24.124456	0.001035	20.741489
524.130940	-2.989300	3.728000	-11.143000	24.124033	0.001035	20.751496
525.154429	-3.003200	3.727700	-11.193000	24.085516	0.001034	20.754118
526.152539	-3.004400	3.726700	-11.195000	24.089401	0.001037	20.739995
527.142222	-2.995900	3.727100	-11.165000	24.089524	0.001032	20.755767
528.139002	-2.979300	3.727200	-11.103000	24.087961	0.001034	20.744242
529.157094	-3.001500	3.726600	-11.184000	24.119513	0.001034	20.779206
530.153138	-3.009200	3.725500	-11.210000	24.132327	0.001033	20.744167
531.137657	-2.993100	3.725400	-11.150000	24.159774	0.001034	20.766956
532.136459	-3.016500	3.724800	-11.234000	24.138600	0.001034	20.745717
533.142356	-2.981400	3.725900	-11.107000	24.139672	0.001034	20.759596
534.134755	-2.976200	3.725200	-11.084000	24.121358	0.001034	20.742649
535.154357	-2.983000	3.725100	-11.111000	24.139273	0.001034	20.774369
536.157356	-2.992300	3.724300	-11.144000	24.114094	0.001034	20.753856
537.142305	-2.998000	3.723700	-11.163000	24.118430	0.001035	20.761524
538.143234	-3.003300	3.721900	-11.177000	24.121189	0.001036	20.760024
539.144331	-2.986900	3.723500	-11.121000	24.124350	0.001037	20.742805
540.141945	-2.996700	3.723100	-11.156000	24.109045	0.001035	20.767285
541.141798	-3.010200	3.723500	-11.208000	24.100112	0.001034	20.735565
542.139303	-3.006300	3.722100	-11.187000	24.147539	0.001034	20.762271
543.142212	-3.008300	3.721200	-11.193000	24.160903	0.001037	20.742009
544.152152	-3.006100	3.721800	-11.186000	24.151868	0.001034	20.767561
545.165345	-3.000400	3.722500	-11.169000	24.158663	0.001034	20.755410
546.148470	-3.008200	3.720000	-11.189000	24.171374	0.001034	20.770530
547.149792	-3.007600	3.720500	-11.188000	24.160452	0.001035	20.766687
548.148383	-3.007500	3.721000	-11.189000	24.182000	0.001033	20.779291
549.151714	-2.996100	3.720100	-11.145000	24.204116	0.001035	20.768283
550.147089	-3.010600	3.719800	-11.197000	24.189162	0.001034	20.758499
551.148504	-3.004600	3.719000	-11.172000	24.211927	0.001036	20.744348
552.143992	-3.010800	3.719500	-11.197000	24.210089	0.001034	20.773325
553.154663	-3.037500	3.718000	-11.291000	24.233671	0.001035	20.752883
554.148602	-3.026000	3.717200	-11.247000	24.228376	0.001035	20.743304
555.151449	-2.980200	3.718900	-11.081000	24.247874	0.001034	20.745792
556.146796	-2.996800	3.719400	-11.145000	24.230112	0.001035	20.748838
557.146125	-3.021700	3.716500	-11.229000	24.254351	0.001036	20.767936
558.146459	-2.997300	3.716800	-11.139000	24.242854	0.001036	20.776319
559.142089	-2.981700	3.717300	-11.083000	24.206804	0.001035	20.774773
560.154466	-2.996800	3.716500	-11.136000	24.206081	0.001034	20.767409
561.141001	-2.984900	3.717100	-11.093000	24.190238	0.001034	20.766216
562.140185	-2.999800	3.715700	-11.146000	24.193120	0.001033	20.781910
563.148285	-3.003100	3.714600	-11.154000	24.224916	0.001034	20.772076
564.147963	-2.991700	3.716500	-11.117000	24.219169	0.001035	20.763941
565.156745	-3.024700	3.713300	-11.230000	24.244822	0.001033	20.767862
566.151679	-2.994500	3.714900	-11.122000	24.233999	0.001035	20.779291
567.148198	-3.002300	3.714700	-11.151000	24.216608	0.001035	20.756630
568.148791	-2.977000	3.715300	-11.059000	24.224492	0.001037	20.778290
569.154685	-3.008400	3.712800	-11.168000	24.186107	0.001034	20.793367
570.144230	-3.003500	3.714500	-11.155000	24.206906	0.001034	20.779617
571.161745	-2.997000	3.714000	-11.129000	24.216036	0.001034	20.776920
572.156882	-2.996000	3.712400	-11.121000	24.236688	0.001035	20.779143
573.155990	-3.011100	3.711700	-11.175000	24.252957	0.001035	20.775073
574.146580	-3.000900	3.713900	-11.143000	24.237111	0.001034	20.779567
575.152758	-2.982100	3.712100	-11.069000	24.269477	0.001032	20.765565
576.149916	-2.989100	3.711500	-11.092000	24.287961	0.001034	20.765141
577.156986	-3.016900	3.709900	-11.190000	24.289429	0.001033	20.772303
578.159513	-3.002700	3.711100	-11.143000	24.307867	0.001032	20.778470
579.151267	-3.023700	3.710100	-11.217000	24.319758	0.001033	20.783286
580.160010	-2.998200	3.709800	-11.120000	24.336675	0.001032	20.808791
581.157006	-3.024300	3.708500	-11.214000	24.351130	0.001033	20.769238
582.162225	-3.004900	3.709200	-11.144000	24.358837	0.001033	20.774599
583.158168	-3.021300	3.708900	-11.203000	24.359708	0.001034	20.784008
584.146938	-3.014800	3.709300	-11.182000	24.360185	0.001034	20.772158
585.150188	-3.008000	3.709000	-11.156000	24.360580	0.001033	20.794839
586.157232	-3.002200	3.708200	-11.131000	24.362770	0.001033	20.803675
587.162581	-3.002100	3.707500	-11.129000	24.353913	0.001032	20.792893
588.155963	-3.010300	3.707800	-11.159000	24.354040	0.001032	20.806297
589.154158	-3.012300	3.708000	-11.166000	24.350012	0.001031	20.787083
590.166460	-3.017500	3.707700	-11.187000	24.367923	0.001033	20.794620
591.155115	-3.021800	3.705500	-11.196000	24.360460	0.001033	20.812737
592.160881	-2.992300	3.706800	-11.091000	24.391831	0.001032	20.786835
593.158248	-2.992100	3.707400	-11.092000	24.387704	0.001031	20.803558
594.155855	-2.988600	3.707200	-11.079000	24.385214	0.001031	20.811491
595.162303	-3.003100	3.707200	-11.131000	24.378671	0.001032	20.809669
596.160893	-3.014400	3.704900	-11.167000	24.389739	0.001033	20.806074
597.153447	-2.997400	3.705300	-11.106000	24.401012	0.001031	20.786563
598.155769	-2.992400	3.705600	-11.087000	24.382727	0.001032	20.781970
599.159556	-2.988100	3.705400	-11.070000	24.395164	0.001033	20.789231
600.161124	-2.996300	3.705800	-11.103000	24.380163	0.001032	20.809269
601.163931	-3.004100	3.704300	-11.127000	24.415191	0.001033	20.811219
602.154378	-2.999700	3.704100	-11.111000	24.403174	0.001032	20.795370
603.161089	-3.006600	3.702700	-11.132000	24.418972	0.001031	20.793675
604.184568	-3.005800	3.703800	-11.132000	24.414941	0.001030	20.794372
605.159910	-2.963000	3.703500	-10.973000	24.422803	0.001032	20.803682
606.155827	-2.987500	3.702100	-11.059000	24.429391	0.001031	20.807921
607.169782	-2.992400	3.702000	-11.077000	24.436685	0.001032	20.813342
608.167838	-3.002200	3.702400	-11.114000	24.484913	0.001031	20.817630
609.169186	-2.983100	3.702200	-11.042000	24.488002	0.001031	20.829265
610.171217	-3.008200	3.701500	-11.134000	24.514690	0.001032	20.806728
611.161301	-2.985400	3.701500	-11.049000	24.518619	0.001030	20.818257
612.155896	-3.005900	3.699300	-11.118000	24.541680	0.001031	20.821006
613.158538	-3.005900	3.699800	-11.119000	24.542474	0.001032	20.809948
614.175179	-2.999700	3.701400	-11.102000	24.525686	0.001030	20.806856
615.159017	-3.005200	3.699300	-11.116000	24.509594	0.001029	20.799719
616.165902	-2.992100	3.700000	-11.070000	24.512055	0.001029	20.816887
617.167951	-3.001500	3.700400	-11.105000	24.486440	0.001031	20.787869
618.167846	-3.002700	3.699300	-11.108000	24.477933	0.001030	20.816792
619.158038	-2.982800	3.699300	-11.033000	24.436244	0.001029	20.810055
620.174092	-2.991600	3.698000	-11.062000	24.413015	0.001030	20.832269
621.157767	-2.961900	3.699000	-10.955000	24.374706	0.001031	20.809011
622.167526	-3.030300	3.697100	-11.203000	24.411252	0.001029	20.797783
623.159141	-2.983700	3.698800	-11.035000	24.430305	0.001029	20.815950
624.164295	-2.965100	3.698000	-10.964000	24.453446	0.001027	20.829682
625.163610	-2.964900	3.698000	-10.963000	24.469141	0.001027	20.824566
626.169196	-3.011600	3.695200	-11.128000	24.507150	0.001029	20.845629
627.163207	-2.971400	3.697500	-10.985000	24.535561	0.001027	20.816764
628.162846	-3.006600	3.695200	-11.109000	24.549365	0.001028	20.829665
629.166568	-3.008500	3.695000	-11.116000	24.567252	0.001028	20.820585
630.168185	-2.977000	3.695500	-11.000000	24.590058	0.001027	20.817864
631.164318	-3.007800	3.695700	-11.115000	24.574743	0.001026	20.823833
632.163003	-2.992800	3.695000	-11.057000	24.569100	0.001027	20.829077
633.164386	-2.989100	3.695200	-11.044000	24.560174	0.001028	20.835768
634.165415	-2.986400	3.693700	-11.030000	24.576816	0.001026	20.833974
635.164498	-3.005800	3.694600	-11.104000	24.598455	0.001025	20.829608
636.167227	-2.987700	3.694000	-11.036000	24.594428	0.001026	20.824619
637.182778	-2.998100	3.692900	-11.071000	24.631040	0.001026	20.833380
638.171254	-2.995100	3.693300	-11.061000	24.618634	0.001026	20.831363
639.168818	-3.015700	3.691700	-11.131000	24.640798	0.001028	20.830369
640.176570	-3.011600	3.693000	-11.121000	24.631495	0.001026	20.794008
641.177967	-3.020200	3.690300	-11.144000	24.582103	0.001026	20.836908
642.165814	-2.989600	3.692700	-11.038000	24.595141	0.001027	20.831498
643.174723	-2.972900	3.691700	-10.974000	24.620108	0.001026	20.830946
644.167329	-2.998300	3.691100	-11.066000	24.591635	0.001024	20.835567
645.184503	-3.019400	3.689600	-11.139000	24.607004	0.001024	20.833918
646.173568	-3.007000	3.690400	-11.095000	24.584526	0.001026	20.832227
647.169925	-3.008100	3.690700	-11.101000	24.604098	0.001025	20.837167
648.175193	-3.020300	3.687700	-11.136000	24.608679	0.001027	20.837022
649.165262	-2.990800	3.691000	-11.038000	24.612784	0.001026	20.848252
650.183356	-3.016800	3.687900	-11.125000	24.619749	0.001025	20.844335
651.175004	-2.991400	3.688700	-11.033000	24.603428	0.001027	20.834598
652.181057	-2.996100	3.688800	-11.051000	24.599331	0.001025	20.849452
653.173982	-2.997900	3.687600	-11.054000	24.642505	0.001025	20.834927
654.176186	-3.049200	3.687700	-11.243000	24.641613	0.001026	20.858213
655.183601	-3.017400	3.688100	-11.128000	24.634003	0.001026	20.852474
656.179033	-3.008900	3.687200	-11.092000	24.649247	0.001024	20.847382
657.182920	-3.000000	3.686900	-11.059000	24.652234	0.001026	20.855594
658.171333	-3.008800	3.688100	-11.095000	24.645615	0.001025	20.831884
659.184932	-3.012600	3.685200	-11.102000	24.658624	0.001025	20.829290
660.168065	-3.014100	3.687100	-11.112000	24.651959	0.001024	20.840620
661.174015	-2.994800	3.685500	-11.036000	24.671657	0.001024	20.830041
662.180796	-2.997000	3.685900	-11.046000	24.681157	0.001021	20.868021
663.169872	-3.014500	3.685800	-11.110000	24.703636	0.001021	20.840319
664.186768	-2.998200	3.686600	-11.052000	24.723584	0.001021	20.856543
665.176639	-3.004000	3.685600	-11.071000	24.721345	0.001024	20.859985
666.177150	-2.991400	3.685100	-11.021000	24.747430	0.001021	20.857240
667.186302	-3.014600	3.684500	-11.106000	24.757205	0.001022	20.849979
668.183877	-2.995800	3.683500	-11.034000	24.765360	0.001022	20.836827
669.179456	-2.997200	3.682300	-11.035000	24.761034	0.001020	20.861882
670.176797	-3.033900	3.683100	-11.173000	24.785878	0.001022	20.843667
671.173732	-2.986700	3.684500	-11.003000	24.803655	0.001021	20.829266
672.192267	-2.986400	3.682400	-10.995000	24.781675	0.001022	20.857466
673.174277	-2.989100	3.682100	-11.005000	24.777997	0.001022	20.880327
674.187326	-3.003600	3.683700	-11.063000	24.776576	0.001022	20.851876
675.183744	-3.004300	3.682200	-11.060000	24.761929	0.001021	20.859462
676.176241	-2.980900	3.682300	-10.974000	24.734599	0.001022	20.849579
677.186449	-3.004600	3.680100	-11.056000	24.715777	0.001022	20.871941
678.177704	-3.006600	3.681900	-11.069000	24.699733	0.001022	20.865325
679.177402	-3.011100	3.678800	-11.077000	24.688043	0.001020	20.851699
680.189784	-3.012800	3.681200	-11.089000	24.690011	0.001020	20.867423
681.186262	-2.995800	3.680600	-11.026000	24.678494	0.001019	20.859186
682.179373	-2.998400	3.680800	-11.035000	24.668296	0.001021	20.865547
683.176739	-3.008500	3.678400	-11.065000	24.679291	0.001019	20.887484
684.179850	-2.996200	3.679500	-11.022000	24.670211	0.001020	20.876951
685.182636	-2.994700	3.677800	-11.013000	24.681901	0.001019	20.882043
686.189666	-2.996000	3.679900	-11.024000	24.680603	0.001020	20.877422
687.184315	-3.008800	3.677300	-11.063000	24.699524	0.001021	20.870331
688.186561	-2.999800	3.678500	-11.034000	24.719793	0.001019	20.852265
689.196610	-2.988400	3.677200	-10.988000	24.737448	0.001022	20.866188
690.184803	-2.990100	3.678000	-10.995000	24.764827	0.001018	20.892714
691.184589	-2.998800	3.677700	-11.028000	24.814951	0.001020	20.883274
692.212093	-3.021800	3.676500	-11.108000	24.806126	0.001018	20.875366
693.186597	-2.979300	3.677300	-10.955000	24.832111	0.001019	20.888641
694.181389	-3.009200	3.675500	-11.059000	24.852398	0.001018	20.877234
695.185425	-3.001600	3.676200	-11.033000	24.844264	0.001019	20.890881
696.188266	-3.012700	3.675300	-11.072000	24.877035	0.001018	20.864503
697.186207	-2.982600	3.675600	-10.962000	24.902324	0.001019	20.881823
698.199342	-3.030500	3.673800	-11.131000	24.886033	0.001018	20.888230
699.194354	-2.991300	3.674700	-10.992000	24.863356	0.001017	20.894394
700.184202	-3.000200	3.674700	-11.024000	24.889833	0.001017	20.890622
701.186740	-3.017000	3.672900	-11.081000	24.868126	0.001016	20.884957
702.183722	-2.988800	3.673800	-10.979000	24.856738	0.001017	20.883011
703.188025	-3.001400	3.672800	-11.023000	24.831000	0.001016	20.899853
704.183378	-2.996900	3.673800	-11.009000	24.783081	0.001016	20.891591
705.188210	-2.990100	3.672900	-10.981000	24.771294	0.001016	20.901573
706.185576	-2.998800	3.672400	-11.012000	24.721012	0.001014	20.865816
707.190539	-3.011800	3.671700	-11.058000	24.700173	0.001015	20.877145
708.193360	-3.009700	3.671300	-11.048000	24.698431	0.001015	20.880612
709.184098	-2.984400	3.672900	-10.961000	24.668909	0.001013	20.858102
710.193126	-2.996100	3.672000	-11.000000	24.673109	0.001013	20.905461
711.194194	-3.000800	3.671400	-11.016000	24.667213	0.001013	20.896700
712.198150	-2.991200	3.671600	-10.982000	24.664730	0.001011	20.894684
713.198889	-3.007900	3.671000	-11.041000	24.670775	0.001013	20.907860
714.189275	-3.007800	3.670000	-11.037000	24.672090	0.001012	20.890215
715.199871	-2.998500	3.669800	-11.002000	24.708304	0.001011	20.902846
716.192466	-2.999200	3.669800	-11.006000	24.686964	0.001011	20.882856
717.187585	-2.984600	3.669300	-10.950000	24.705169	0.001010	20.882159
718.206602	-2.987200	3.669300	-10.959000	24.727109	0.001011	20.900380
719.207214	-2.998400	3.668600	-10.999000	24.746330	0.001010	20.888375
720.202403	-2.992400	3.668700	-10.976000	24.737973	0.001011	20.886627
721.186917	-2.990400	3.667900	-10.968000	24.741728	0.001009	20.887551
722.193237	-3.011500	3.666800	-11.042000	24.736883	0.001009	20.883164
723.191929	-3.026700	3.665900	-11.094000	24.750857	0.001008	20.855937
724.194760	-3.025200	3.666600	-11.089000	24.760060	0.001007	20.857112
725.191202	-2.979800	3.666800	-10.925000	24.784160	0.001007	20.877503
726.201179	-2.988300	3.668000	-10.960000	24.749369	0.001007	20.892374
727.209209	-2.997200	3.665900	-10.987000	24.795302	0.001009	20.865925
728.203484	-3.000000	3.666000	-10.996000	24.744306	0.001008	20.871173
729.205054	-2.988300	3.666400	-10.954000	24.733040	0.001007	20.848015
730.200596	-3.003600	3.666400	-11.011000	24.751665	0.001006	20.864808
731.211305	-2.988500	3.666200	-10.956000	24.731401	0.001006	20.879084
732.210103	-2.983400	3.665800	-10.935000	24.789745	0.001005	20.869358
733.209430	-3.006600	3.665900	-11.020000	24.789844	0.001006	20.877991
734.194815	-3.013400	3.663900	-11.040000	24.808344	0.001005	20.881858
735.192014	-2.993600	3.663800	-10.967000	24.814592	0.001006	20.853517
736.206439	-2.969800	3.664300	-10.880000	24.817205	0.001005	20.855191
737.195365	-3.003000	3.665000	-11.005000	24.833868	0.001006	20.864327
738.194669	-3.028700	3.662700	-11.091000	24.822754	0.001005	20.882096
739.216225	-2.992300	3.663400	-10.961000	24.800323	0.001004	20.875232
740.194980	-2.999600	3.661200	-10.980000	24.806120	0.001004	20.855920
741.204593	-3.013200	3.662100	-11.033000	24.780786	0.001004	20.860842
742.204270	-3.008000	3.661800	-11.013000	24.791953	0.001004	20.851186
743.206890	-2.998800	3.660900	-10.978000	24.774196	0.001002	20.851384
744.196425	-2.996100	3.661200	-10.968000	24.781287	0.001002	20.867034
745.206238	-3.008200	3.659700	-11.008000	24.800958	0.001002	20.829878
746.218703	-2.987300	3.660100	-10.932000	24.834950	0.001002	20.862095
747.199223	-2.991600	3.660600	-10.950000	24.848655	0.001002	20.859728
748.213237	-3.009900	3.661600	-11.020000	24.837464	0.001003	20.827161
749.205152	-3.012200	3.659700	-11.023000	24.846346	0.001003	20.846031
750.205150	-3.010300	3.660100	-11.017000	24.883450	0.001004	20.850553
751.209398	-3.015100	3.658300	-11.028000	24.873529	0.001002	20.840596
752.209561	-2.988300	3.659700	-10.935000	24.868808	0.001003	20.832540
753.214550	-2.990500	3.659300	-10.940000	24.856447	0.001002	20.830565
754.201649	-2.993000	3.657700	-10.946000	24.844220	0.001001	20.842001
755.206697	-3.003900	3.656800	-10.983000	24.826810	0.001001	20.838279
756.208299	-3.016300	3.657700	-11.031000	24.822118	0.001001	20.848268
757.212133	-3.031000	3.656700	-11.082000	24.827015	0.001001	20.830424
758.207893	-3.001900	3.657300	-10.978000	24.838005	0.001001	20.835289
759.207637	-2.991400	3.656100	-10.936000	24.854096	0.001001	20.836266
760.205185	-3.024200	3.655800	-11.055000	24.877993	0.000999	20.845076
761.206223	-3.002300	3.656700	-10.977000	24.903775	0.001001	20.848668
762.206231	-3.008800	3.657100	-11.002000	24.920634	0.001001	20.851838
763.225730	-3.003800	3.655400	-10.978000	24.943832	0.001000	20.836241
764.204957	-3.011400	3.654700	-11.004000	24.924040	0.001000	20.838661
765.202760	-2.993600	3.655200	-10.940000	24.924139	0.001001	20.830226
766.210276	-3.015900	3.654300	-11.020000	24.897958	0.000998	20.815804
767.210567	-3.004300	3.654200	-10.978000	24.883708	0.000998	20.829002
768.212492	-2.984800	3.654300	-10.907000	24.852848	0.001001	20.820315
769.208159	-3.000300	3.653700	-10.961000	24.841340	0.001000	20.832947
770.206369	-3.021600	3.653300	-11.037000	24.844919	0.000998	20.827530
771.210912	-2.979100	3.654800	-10.887000	24.865353	0.001000	20.825279
772.221431	-3.001200	3.652500	-10.961000	24.854935	0.000999	20.823358
773.207538	-3.010000	3.652000	-10.992000	24.852474	0.000999	20.829897
774.217042	-3.007100	3.652900	-10.983000	24.882361	0.000998	20.839977
775.214293	-3.011000	3.653300	-10.997000	24.900461	0.000999	20.834436
776.214834	-3.018000	3.652200	-11.020000	24.921695	0.000995	20.827774
777.213420	-3.003200	3.651300	-10.964000	24.942181	0.000996	20.814671
778.214265	-3.013400	3.650400	-10.999000	24.945989	0.000997	20.822286
779.232938	-3.028500	3.650800	-11.056000	24.944170	0.000996	20.827098
780.214139	-2.986400	3.651000	-10.902000	24.959935	0.000995	20.825378
781.226994	-3.001000	3.652400	-10.960000	24.971075	0.000994	20.828025
782.216226	-3.001400	3.649900	-10.953000	24.991384	0.000996	20.811426
783.208896	-2.991400	3.650400	-10.919000	24.988804	0.000994	20.826854
784.223206	-2.995900	3.650600	-10.936000	25.010107	0.000994	20.836382
785.222891	-3.020400	3.649700	-11.022000	25.036633	0.000993	20.827448
786.207051	-2.995200	3.650300	-10.933000	25.046630	0.000994	20.822785
787.220135	-2.985200	3.649900	-10.894000	25.020700	0.000993	20.821886
788.206777	-2.983900	3.650000	-10.890000	25.013191	0.000992	20.812452
789.212802	-2.987100	3.649400	-10.900000	24.989897	0.000992	20.829373
790.209961	-3.001300	3.647600	-10.946000	24.962868	0.000991	20.824529
791.207234	-3.010400	3.646500	-10.977000	24.931591	0.000991	20.807361
792.211805	-2.992700	3.648200	-10.917000	24.932141	0.000992	20.801275
793.214340	-2.994700	3.647500	-10.922000	24.932120	0.000990	20.816900
794.218488	-2.999700	3.647000	-10.939000	24.956135	0.000991	20.820616
795.219878	-2.997200	3.646900	-10.930000	24.942809	0.000991	20.807715
796.213747	-2.980800	3.647000	-10.869000	24.923543	0.000990	20.831525
797.214707	-2.995100	3.645600	-10.917000	24.929659	0.000991	20.804948
798.219244	-2.979800	3.647100	-10.866000	24.908129	0.000989	20.819848
799.218869	-3.005400	3.644800	-10.952000	24.878589	0.000989	20.831450
800.223568	-3.000800	3.646000	-10.940000	24.844993	0.000990	20.824759
801.216349	-3.004900	3.644000	-10.949000	24.851339	0.000991	20.813585
802.224858	-3.012600	3.643600	-10.976000	24.882245	0.000989	20.810938
803.246017	-2.987200	3.644600	-10.886000	24.930058	0.000988	20.793020
804.218177	-2.985300	3.646300	-10.884000	24.915142	0.000990	20.807920
805.216675	-2.996800	3.643900	-10.919000	24.930008	0.000987	20.811462
806.228866	-3.003800	3.643300	-10.943000	24.912928	0.000987	20.804750
807.226428	-2.976200	3.644200	-10.844000	24.895050	0.000986	20.805772
808.227496	-2.999100	3.643300	-10.926000	24.883863	0.000986	20.808769
809.218690	-2.991300	3.643800	-10.898000	24.873572	0.000987	20.813614
810.229129	-3.023300	3.642100	-11.009000	24.884163	0.000988	20.789156
811.220274	-3.005700	3.642400	-10.946000	24.881131	0.000984	20.810769
812.222963	-3.018300	3.641500	-10.989000	24.850370	0.000987	20.797439
813.224557	-2.986700	3.642300	-10.877000	24.831123	0.000985	20.817951
814.225154	-2.988900	3.641300	-10.882000	24.844778	0.000985	20.801785
815.217930	-3.002100	3.641600	-10.931000	24.848956	0.000985	20.798391
816.225313	-2.979200	3.641700	-10.849000	24.873646	0.000984	20.806101
817.211849	-2.980600	3.641400	-10.852000	24.849830	0.000984	20.798795
818.224998	-2.982100	3.640900	-10.856000	24.841421	0.000984	20.796994
819.221990	-3.008900	3.640700	-10.952000	24.803530	0.000983	20.787415
820.219047	-2.996700	3.639500	-10.905000	24.846573	0.000980	20.781775
821.216510	-3.008300	3.638400	-10.945000	24.868732	0.000982	20.817290
822.222435	-3.008400	3.638800	-10.947000	24.853363	0.000979	20.810401
823.215077	-3.011100	3.638400	-10.955000	24.864952	0.000984	20.795479
824.215449	-3.013100	3.638300	-10.962000	24.838023	0.000980	20.795479
825.220159	-2.999900	3.639200	-10.916000	24.855429	0.000981	20.821957
826.221055	-2.989600	3.638500	-10.876000	24.863711	0.000981	20.795182
827.223712	-2.983700	3.638600	-10.855000	24.910186	0.000979	20.782083
828.223704	-3.008200	3.637000	-10.938000	24.916204	0.000982	20.806615
829.234513	-2.992900	3.638300	-10.888000	24.950985	0.000978	20.811180
830.220152	-2.989600	3.636700	-10.870000	24.983260	0.000979	20.802797
831.221507	-3.012000	3.635800	-10.950000	25.015833	0.000979	20.805621
832.224674	-2.983900	3.637600	-10.853000	25.037484	0.000978	20.788474
833.232878	-3.018300	3.635400	-10.970000	25.035348	0.000977	20.803399
834.231817	-3.016100	3.634600	-10.960000	25.082534	0.000977	20.799082
835.224411	-2.981300	3.635600	-10.838000	25.088029	0.000977	20.795590
836.233519	-3.016400	3.635100	-10.963000	25.099567	0.000976	20.779670
837.230505	-3.006100	3.635300	-10.927000	25.108323	0.000976	20.791779
838.229581	-3.018400	3.635400	-10.972000	25.093952	0.000974	20.782094
839.230209	-3.036400	3.632800	-11.029000	25.096490	0.000977	20.800289
840.240875	-2.975000	3.634900	-10.812000	25.113272	0.000976	20.779678
841.226415	-3.003900	3.633100	-10.912000	25.124061	0.000975	20.781026
842.222059	-2.980400	3.634900	-10.833000	25.149936	0.000975	20.772862
843.225134	-2.991600	3.633800	-10.869000	25.173703	0.000976	20.795774
844.220958	-3.009900	3.631500	-10.930000	25.172467	0.000974	20.793584
845.223306	-2.995000	3.632900	-10.879000	25.141118	0.000977	20.796726
846.227794	-2.987700	3.632300	-10.851000	25.114819	0.000973	20.771274
847.238109	-3.007800	3.630400	-10.918000	25.169879	0.000973	20.780555
848.226799	-2.984300	3.632100	-10.838000	25.120537	0.000972	20.766582
849.231025	-2.985100	3.632700	-10.842000	25.128492	0.000974	20.779310
850.225897	-2.989800	3.631700	-10.856000	25.090434	0.000972	20.782357
851.228011	-3.005600	3.630900	-10.912000	25.044247	0.000972	20.784356
852.226652	-3.013600	3.629200	-10.936000	25.061551	0.000971	20.782286
853.233017	-2.984500	3.630900	-10.835000	25.060381	0.000970	20.774947
854.233536	-3.000300	3.629900	-10.889000	25.081961	0.000972	20.782859
855.229015	-2.988600	3.630500	-10.849000	25.101750	0.000971	20.780913
856.237242	-2.997100	3.630600	-10.879000	25.125049	0.000971	20.792923
857.247663	-3.007300	3.629800	-10.915000	25.150382	0.000972	20.763826
858.228586	-3.000800	3.628300	-10.887000	25.142479	0.000971	20.768695
859.230622	-3.008300	3.628600	-10.915000	25.151922	0.000970	20.777226
860.231972	-3.006700	3.629100	-10.910000	25.189164	0.000970	20.782846
861.237584	-3.012600	3.628200	-10.930000	25.197492	0.000969	20.772715
862.234201	-2.995800	3.626900	-10.864000	25.223838	0.000969	20.777828
863.230764	-2.997100	3.628600	-10.874000	25.167692	0.000969	20.771721
864.240350	-3.006800	3.627400	-10.905000	25.200675	0.000969	20.754099
865.234012	-3.025100	3.623900	-10.961000	25.166099	0.000967	20.783398
866.233068	-2.984200	3.627600	-10.824000	25.183126	0.000968	20.779630
867.240074	-2.991400	3.627400	-10.850000	25.179524	0.000966	20.773643
868.229823	-2.993400	3.626900	-10.856000	25.187631	0.000967	20.751435
869.236089	-3.016200	3.625300	-10.933000	25.183898	0.000966	20.754800
870.237719	-3.012600	3.626000	-10.923000	25.171269	0.000967	20.761088
871.236513	-3.009600	3.626400	-10.912000	25.170378	0.000968	20.765883
872.237955	-2.981800	3.625600	-10.809000	25.154788	0.000966	20.745015
873.236557	-3.007800	3.623800	-10.898000	25.142183	0.000965	20.754173
874.245150	-2.986400	3.625100	-10.826000	25.134873	0.000964	20.779552
875.236416	-2.980700	3.623700	-10.800000	25.165175	0.000966	20.757814
876.238669	-3.004700	3.623600	-10.886000	25.160304	0.000965	20.754821
877.233790	-3.021800	3.622900	-10.946000	25.188367	0.000964	20.768295
878.245694	-3.004900	3.623500	-10.887000	25.234257	0.000962	20.751778
879.234076	-2.999700	3.622100	-10.865000	25.225255	0.000962	20.776406
880.241716	-2.977400	3.624200	-10.789000	25.205768	0.000964	20.758738
881.235671	-2.984800	3.622500	-10.811000	25.198134	0.000963	20.746331
882.239635	-2.998900	3.621000	-10.857000	25.175238	0.000962	20.762701
883.238420	-2.983500	3.622400	-10.807000	25.188737	0.000963	20.745907
884.241107	-3.024100	3.620700	-10.949000	25.198849	0.000961	20.761749
885.248118	-3.032200	3.618800	-10.972000	25.183164	0.000961	20.765443
886.244543	-2.995900	3.620800	-10.846000	25.178889	0.000962	20.767315
887.243465	-3.024000	3.621200	-10.950000	25.188578	0.000961	20.762343
888.248582	-2.997500	3.620000	-10.850000	25.173810	0.000959	20.748938
889.245225	-2.995000	3.618700	-10.837000	25.196853	0.000962	20.753107
890.245893	-3.000800	3.618600	-10.858000	25.228148	0.000961	20.747067
891.247246	-3.024400	3.619400	-10.944000	25.259614	0.000959	20.745467
892.248385	-3.000100	3.619100	-10.856000	25.270024	0.000960	20.760187
893.244217	-3.017200	3.617500	-10.913000	25.286257	0.000961	20.753726
894.244225	-2.986300	3.618800	-10.805000	25.281929	0.000957	20.754596
895.245229	-2.993700	3.618500	-10.831000	25.285302	0.000958	20.749921
896.246162	-3.018600	3.617900	-10.920000	25.310852	0.000959	20.755661
897.252912	-3.001800	3.616700	-10.853000	25.266658	0.000959	20.744479
898.245432	-3.010200	3.617100	-10.886000	25.296505	0.000958	20.754532
899.245250	-2.994400	3.617500	-10.830000	25.286686	0.000958	20.744673
900.261210	-2.995200	3.615100	-10.826000	25.262650	0.000956	20.747094
901.247002	-3.001900	3.615700	-10.853000	25.251436	0.000955	20.771871
902.242653	-3.015900	3.613600	-10.897000	25.215067	0.000956	20.744839
903.251712	-2.993100	3.615600	-10.820000	25.174499	0.000957	20.744889
904.259296	-3.011900	3.615400	-10.888000	25.169969	0.000957	20.753144
905.246293	-2.999800	3.615800	-10.846000	25.186820	0.000957	20.751569
906.248524	-3.011300	3.615000	-10.886000	25.196259	0.000955	20.736862
907.251595	-3.033100	3.613000	-10.958000	25.195762	0.000954	20.752960
908.249102	-2.992500	3.614600	-10.816000	25.194120	0.000953	20.762216
909.245376	-3.006600	3.615000	-10.868000	25.203812	0.000954	20.734962
910.251113	-2.999600	3.612700	-10.834000	25.213899	0.000953	20.736554
911.250364	-2.999600	3.613100	-10.837000	25.234429	0.000951	20.758115
912.245138	-2.994500	3.613200	-10.819000	25.241111	0.000953	20.741590
913.246148	-3.003700	3.612600	-10.850000	25.244865	0.000951	20.750574
914.248007	-3.000200	3.612300	-10.836000	25.266462	0.000951	20.747602
915.247670	-3.013100	3.611800	-10.881000	25.261567	0.000949	20.765921
916.247699	-2.996000	3.611900	-10.820000	25.269144	0.000948	20.747923
917.260491	-2.983700	3.611600	-10.775000	25.259547	0.000949	20.747297
918.249058	-3.009600	3.610600	-10.866000	25.243490	0.000947	20.746823
919.250467	-2.998900	3.611000	-10.828000	25.243938	0.000947	20.739685
920.249923	-2.998700	3.610000	-10.823000	25.246673	0.000948	20.757131
921.257254	-3.003900	3.610600	-10.844000	25.272869	0.000948	20.759250
922.249210	-3.006700	3.610900	-10.856000	25.292873	0.000946	20.723857
923.250437	-2.994500	3.610600	-10.810000	25.323396	0.000945	20.762566
924.253300	-2.996400	3.608600	-10.812000	25.313504	0.000946	20.757375
925.245888	-2.984700	3.609800	-10.772000	25.287826	0.000946	20.749137
926.245957	-2.992100	3.609300	-10.797000	25.293345	0.000945	20.745669
927.259120	-2.998100	3.607800	-10.816000	25.312806	0.000943	20.741026
928.256075	-3.008100	3.608500	-10.854000	25.333362	0.000943	20.755503
929.255612	-2.991200	3.608100	-10.792000	25.318550	0.000940	20.734466
930.252532	-2.992100	3.608400	-10.796000	25.302244	0.000941	20.773097
931.248166	-2.996400	3.607500	-10.808000	25.288799	0.000942	20.764339
932.257377	-2.995300	3.606700	-10.802000	25.289070	0.000940	20.746119
933.250227	-3.014600	3.605800	-10.869000	25.325881	0.000942	20.747516
934.245421	-2.994000	3.606900	-10.798000	25.320415	0.000940	20.760995
935.247409	-2.990500	3.605300	-10.781000	25.328566	0.000940	20.743100
936.249807	-3.003000	3.605400	-10.824000	25.310198	0.000941	20.737460
937.252287	-2.983000	3.607000	-10.759000	25.340597	0.000940	20.729575
938.268117	-2.999000	3.604100	-10.808000	25.341669	0.000940	20.739187
939.247211	-2.991300	3.604700	-10.782000	25.352283	0.000940	20.738465
940.251032	-2.992400	3.603500	-10.783000	25.364882	0.000939	20.752538
941.258015	-3.013300	3.602600	-10.853000	25.339385	0.000940	20.774827
942.251561	-3.015500	3.603500	-10.866000	25.335481	0.000940	20.748621
943.250346	-3.008100	3.602400	-10.835000	25.314131	0.000940	20.748996
944.258054	-2.990300	3.604800	-10.779000	25.310353	0.000940	20.742831
945.247221	-2.996000	3.603000	-10.794000	25.302001	0.000937	20.753412
946.249463	-3.007900	3.601900	-10.833000	25.295661	0.000934	20.746097
947.256234	-2.985700	3.600600	-10.748000	25.315696	0.000935	20.771430
948.257493	-3.001200	3.600900	-10.806000	25.355015	0.000934	20.747371
949.250259	-2.986200	3.602700	-10.757000	25.346219	0.000935	20.760351
950.252420	-3.001800	3.600700	-10.806000	25.337937	0.000935	20.761044
951.261905	-3.003900	3.600600	-10.814000	25.344700	0.000935	20.768783
952.264965	-3.020900	3.599900	-10.874000	25.329116	0.000936	20.767361
953.261853	-3.004500	3.600700	-10.817000	25.310924	0.000933	20.748621
954.254131	-2.999200	3.599500	-10.795000	25.294766	0.000933	20.748044
955.254284	-2.993600	3.599400	-10.773000	25.260886	0.000933	20.748642
956.255929	-2.997000	3.599900	-10.787000	25.263991	0.000933	20.769777
957.257508	-3.001500	3.598100	-10.799000	25.296778	0.000933	20.740581
958.255532	-2.985100	3.600000	-10.745000	25.315315	0.000934	20.747813
959.267578	-2.978400	3.599800	-10.719000	25.326945	0.000933	20.745740
960.253649	-3.014000	3.597300	-10.842000	25.346359	0.000932	20.760018
961.265862	-3.007600	3.598500	-10.821000	25.365963	0.000933	20.746985
962.266584	-2.991400	3.597100	-10.760000	25.355624	0.000933	20.770743
963.266906	-2.987000	3.597300	-10.744000	25.395660	0.000931	20.750251
964.260362	-2.995800	3.597300	-10.776000	25.414544	0.000930	20.771111
965.265117	-3.005600	3.595600	-10.806000	25.412853	0.000931	20.758507
966.259585	-3.009900	3.596500	-10.823000	25.437005	0.000931	20.763319
967.274192	-3.004500	3.595100	-10.801000	25.424231	0.000930	20.767088
968.270165	-2.990600	3.595700	-10.752000	25.396939	0.000930	20.762916
969.259913	-3.017600	3.594500	-10.846000	25.376260	0.000929	20.778188
970.259071	-2.994000	3.595600	-10.763000	25.419424	0.000928	20.769373
971.260978	-3.001700	3.594500	-10.788000	25.414301	0.000928	20.768970
972.267485	-3.019400	3.593000	-10.847000	25.434757	0.000929	20.762484
973.266873	-3.000900	3.594300	-10.786000	25.456051	0.000928	20.752098
974.271458	-2.988100	3.594300	-10.740000	25.459849	0.000927	20.754964
975.261007	-2.990600	3.594400	-10.748000	25.458129	0.000927	20.763195
976.263169	-2.987400	3.593400	-10.734000	25.475050	0.000926	20.759323
977.262965	-2.993800	3.592900	-10.755000	25.461826	0.000928	20.759320
978.264916	-2.982400	3.592500	-10.713000	25.456656	0.000926	20.747016
979.267670	-3.004900	3.591400	-10.791000	25.464655	0.000928	20.776860
980.265995	-2.996100	3.590600	-10.757000	25.461491	0.000924	20.773683
981.265589	-2.998300	3.590900	-10.765000	25.437381	0.000926	20.770335
982.265243	-2.998200	3.593200	-10.772000	25.439073	0.000924	20.768240
983.270077	-3.009000	3.591000	-10.805000	25.428603	0.000922	20.771478
984.267289	-3.016500	3.590700	-10.830000	25.438047	0.000923	20.773375
985.271543	-3.006700	3.589500	-10.790000	25.420502	0.000923	20.773301
986.270594	-3.007300	3.588400	-10.790000	25.380481	0.000920	20.779107
987.269621	-3.011300	3.588600	-10.804000	25.369567	0.000922	20.768623
988.281253	-2.996500	3.587400	-10.748000	25.382740	0.000921	20.771418
989.281820	-2.992800	3.589400	-10.741000	25.402643	0.000921	20.762954
990.272041	-3.009400	3.590100	-10.803000	25.408031	0.000920	20.771683
991.269097	-2.981700	3.588600	-10.698000	25.416009	0.000921	20.785859
992.270813	-3.013500	3.588300	-10.812000	25.437801	0.000919	20.785929
993.271654	-2.999100	3.587000	-10.757000	25.448633	0.000919	20.792065
994.271686	-2.990500	3.588700	-10.730000	25.481209	0.000919	20.774518
995.273029	-3.015300	3.587500	-10.816000	25.487471	0.000918	20.785547
996.273706	-3.007400	3.587700	-10.789000	25.501283	0.000916	20.782349
997.273814	-3.006800	3.587500	-10.786000	25.476481	0.000919	20.748431
998.274201	-3.021600	3.585100	-10.832000	25.451674	0.000917	20.775204
999.277471	-2.984600	3.586200	-10.700000	25.483387	0.000917	20.794723
1000.275163	-2.979700	3.586800	-10.685000	25.488581	0.000916	20.772437
1001.277407	-3.029300	3.583000	-10.853000	25.459620	0.000915	20.775123
1002.276610	-3.000100	3.585400	-10.756000	25.459098	0.000916	20.802100
1003.277298	-3.022900	3.583600	-10.832000	25.446297	0.000914	20.799677
1004.276682	-3.022800	3.584500	-10.834000	25.465304	0.000915	20.777037
1005.279550	-2.966100	3.584800	-10.631000	25.489853	0.000914	20.779405
1006.279734	-2.981700	3.585400	-10.689000	25.500170	0.000912	20.791662
1007.279233	-3.012200	3.582800	-10.791000	25.474117	0.000913	20.803431
1008.278680	-2.986100	3.583600	-10.699000	25.430701	0.000912	20.785438
1009.280394	-3.005500	3.582500	-10.766000	25.406467	0.000912	20.786234
1010.277863	-3.015100	3.582600	-10.800000	25.382381	0.000910	20.785757
1011.282329	-2.996500	3.583000	-10.736000	25.390405	0.000909	20.793814
1012.283500	-3.015500	3.581000	-10.798000	25.378998	0.000908	20.806542
1013.280802	-2.990500	3.581000	-10.709000	25.356378	0.000909	20.787622
1014.281820	-2.997900	3.583000	-10.740000	25.381701	0.000910	20.798350
1015.282349	-2.985300	3.582900	-10.694000	25.410929	0.000906	20.779334
1016.283845	-3.008800	3.581400	-10.773000	25.443383	0.000907	20.800070
1017.284078	-3.001900	3.579600	-10.745000	25.456305	0.000905	20.793131
1018.286786	-3.019600	3.579300	-10.807000	25.504959	0.000906	20.800739
1019.283835	-3.007300	3.579600	-10.764000	25.494424	0.000906	20.791581
1020.285019	-3.002300	3.579800	-10.747000	25.466865	0.000905	20.815590
1021.285053	-2.988400	3.578300	-10.692000	25.435430	0.000902	20.803938
1022.285440	-2.990100	3.578600	-10.700000	25.405682	0.000903	20.784971
1023.288018	-2.974000	3.577200	-10.638000	25.448175	0.000900	20.804408
1024.286231	-2.978400	3.578300	-10.657000	25.478768	0.000901	20.791033
1025.288142	-2.999800	3.577400	-10.730000	25.487916	0.000900	20.797374
1026.287868	-3.003600	3.577000	-10.743000	25.518757	0.000900	20.793733
1027.287461	-2.980400	3.578100	-10.664000	25.527429	0.000898	20.821881
1028.288709	-2.987900	3.576500	-10.685000	25.550440	0.000899	20.802317
1029.286546	-3.004400	3.576500	-10.744000	25.529095	0.000899	20.798899
1030.290051	-3.017000	3.575000	-10.784000	25.522214	0.000897	20.802419
1031.286761	-3.008500	3.576000	-10.757000	25.515058	0.000896	20.799500
1032.287233	-2.990100	3.575200	-10.689000	25.507922	0.000897	20.786645
1033.287087	-3.010800	3.575000	-10.762000	25.502059	0.000894	20.800197
1034.291381	-2.985000	3.576200	-10.673000	25.512771	0.000896	20.796255
1035.295426	-3.008000	3.575900	-10.756000	25.524427	0.000895	20.808909
1036.288899	-3.026600	3.573000	-10.812000	25.562596	0.000896	20.805041
1037.286708	-3.003400	3.574100	-10.732000	25.597435	0.000892	20.796882
1038.291747	-2.974700	3.574100	-10.631000	25.574671	0.000894	20.803891
1039.293139	-2.994700	3.574900	-10.704000	25.585952	0.000893	20.800049
1040.289254	-2.978800	3.574000	-10.645000	25.598552	0.000892	20.798003
1041.292629	-2.993900	3.572500	-10.695000	25.636271	0.000893	20.797480
1042.290545	-2.984000	3.572700	-10.659000	25.615896	0.000891	20.787922
1043.293638	-2.969500	3.573200	-10.609000	25.633836	0.000892	20.802621
1044.288551	-2.966200	3.571200	-10.591000	25.596462	0.000890	20.800647
1045.290682	-2.996100	3.570100	-10.696000	25.583567	0.000888	20.810455
1046.292146	-2.999400	3.572500	-10.714000	25.560059	0.000888	20.803442
1047.291039	-2.995600	3.570000	-10.693000	25.513465	0.000890	20.808332
1048.292905	-3.012600	3.569300	-10.751000	25.522239	0.000888	20.796754
1049.300848	-2.998700	3.569400	-10.702000	25.531333	0.000889	20.815844
1050.295702	-3.014900	3.570200	-10.763000	25.536354	0.000888	20.825154
1051.292768	-3.007500	3.568000	-10.729000	25.572757	0.000887	20.821410
1052.294025	-2.994200	3.568500	-10.684000	25.594299	0.000887	20.816966
1053.299377	-2.994300	3.568200	-10.683000	25.612888	0.000888	20.801496
1054.292830	-3.007200	3.568800	-10.731000	25.656416	0.000888	20.845213
1055.296959	-3.015600	3.567300	-10.756000	25.661785	0.000886	20.819312
1056.293547	-2.998700	3.567200	-10.695000	25.672319	0.000885	20.807607
1057.295076	-3.013400	3.566900	-10.748000	25.685266	0.000887	20.814447
1058.292603	-2.986800	3.568300	-10.656000	25.650085	0.000885	20.817044
1059.296693	-3.008000	3.566400	-10.727000	25.638801	0.000884	20.816616
1060.295856	-2.995100	3.567300	-10.683000	25.649761	0.000885	20.824779
1061.297788	-3.029000	3.565600	-10.799000	25.638924	0.000884	20.824800
1062.294892	-3.035400	3.564900	-10.820000	25.641883	0.000883	20.815919
1063.295312	-3.004600	3.566600	-10.715000	25.671199	0.000883	20.818335
1064.296789	-3.019800	3.563800	-10.760000	25.691326	0.000883	20.823378
1065.294223	-3.012400	3.565800	-10.741000	25.705439	0.000882	20.817638
1066.297995	-3.028600	3.563500	-10.791000	25.717910	0.000882	20.811673
1067.302687	-2.976000	3.564500	-10.607000	25.738980	0.000881	20.820034
1068.300089	-2.991000	3.563800	-10.657000	25.756347	0.000881	20.827047
1069.295053	-3.010400	3.563000	-10.725000	25.730282	0.000881	20.814142
1070.297212	-2.997400	3.563800	-10.679000	25.717360	0.000880	20.831983
1071.305312	-3.003200	3.562900	-10.698000	25.699270	0.000878	20.826141
1072.305281	-2.995700	3.562000	-10.670000	25.720985	0.000879	20.825667
1073.298521	-2.985900	3.562900	-10.638000	25.739818	0.000880	20.819454
1074.299675	-3.011700	3.561700	-10.724000	25.745684	0.000877	20.841466
1075.297582	-2.987900	3.561600	-10.641000	25.718678	0.000876	20.828091
1076.300014	-2.986900	3.561200	-10.636000	25.731599	0.000877	20.825897
1077.297649	-2.989900	3.561200	-10.646000	25.725635	0.000876	20.839346
1078.302814	-2.977600	3.560700	-10.601000	25.724568	0.000873	20.844912
1079.297410	-2.979600	3.561000	-10.609000	25.685361	0.000874	20.849154
1080.298397	-3.012700	3.558400	-10.719000	25.660144	0.000875	20.818137
1081.308384	-2.985500	3.560300	-10.628000	25.675000	0.000873	20.830214
1082.302188	-3.015800	3.558800	-10.731000	25.679425	0.000873	20.850778
1083.299562	-2.992500	3.558800	-10.649000	25.681638	0.000873	20.823130
1084.297968	-2.989500	3.558800	-10.638000	25.724075	0.000872	20.835408
1085.301074	-2.999800	3.557800	-10.672000	25.735978	0.000872	20.855424
1086.300402	-3.005300	3.559300	-10.696000	25.684199	0.000871	20.844194
1087.301647	-3.001800	3.556100	-10.673000	25.715281	0.000871	20.824680
1088.298977	-3.009300	3.556700	-10.702000	25.685569	0.000868	20.838458
1089.301314	-3.002100	3.556900	-10.676000	25.643127	0.000867	20.838504
1090.299235	-2.998300	3.556400	-10.662000	25.634904	0.000868	20.833090
1091.300665	-3.002500	3.556000	-10.676000	25.613684	0.000868	20.836908
1092.301217	-3.011800	3.555600	-10.708000	25.651801	0.000869	20.837733
1093.300763	-3.016200	3.556100	-10.724000	25.685988	0.000867	20.829870
1094.304265	-2.995900	3.556300	-10.653000	25.708993	0.000867	20.839700
1095.301005	-2.995900	3.555100	-10.650000	25.754339	0.000866	20.859168
1096.308636	-3.035000	3.554300	-10.786000	25.743975	0.000866	20.846387
1097.302125	-2.977900	3.554500	-10.584000	25.726710	0.000867	20.847063
1098.304548	-2.980700	3.554500	-10.594000	25.718734	0.000867	20.861337
1099.306491	-3.009200	3.553900	-10.693000	25.689191	0.000863	20.836406
1100.303010	-2.979200	3.552900	-10.584000	25.662257	0.000863	20.849183
1101.304721	-2.992100	3.552600	-10.629000	25.658206	0.000864	20.841795
1102.304526	-2.999700	3.553600	-10.658000	25.638329	0.000862	20.839374
1103.310514	-3.016700	3.552200	-10.715000	25.647147	0.000862	20.844912
1104.305815	-2.996400	3.553500	-10.647000	25.662377	0.000863	20.857363
1105.308479	-2.997100	3.551900	-10.643000	25.679820	0.000862	20.856864
1106.307481	-2.999200	3.553200	-10.656000	25.686031	0.000862	20.852197
1107.307077	-2.979400	3.551500	-10.579000	25.718329	0.000863	20.860930
1108.308630	-2.982400	3.552000	-10.591000	25.728341	0.000860	20.835426
1109.311318	-2.993500	3.550200	-10.626000	25.726079	0.000859	20.844059
1110.320240	-2.985900	3.550300	-10.600000	25.730948	0.000858	20.860328
1111.308074	-3.017400	3.549500	-10.709000	25.732590	0.000859	20.863400
1112.307365	-2.999600	3.548100	-10.642000	25.746325	0.000858	20.861075
1113.307803	-3.013900	3.548000	-10.693000	25.689575	0.000857	20.857180
1114.312220	-2.975800	3.549900	-10.562000	25.697925	0.000859	20.889745
1115.309288	-3.012900	3.548400	-10.691000	25.693105	0.000857	20.863570
1116.315801	-2.997900	3.547800	-10.635000	25.729800	0.000857	20.859649
1117.309655	-3.007900	3.547300	-10.669000	25.734443	0.000857	20.855778
1118.309757	-2.990200	3.548300	-10.610000	25.736056	0.000857	20.880157
1119.312192	-2.984000	3.548100	-10.587000	25.754494	0.000857	20.859798
1120.310504	-3.015900	3.546300	-10.694000	25.741348	0.000856	20.872196
1121.312002	-2.999200	3.546600	-10.635000	25.722240	0.000854	20.873866
1122.311088	-2.994300	3.548000	-10.622000	25.708229	0.000855	20.861217
1123.310267	-3.011200	3.545800	-10.675000	25.661737	0.000854	20.871418
1124.315956	-3.004400	3.546600	-10.653000	25.695603	0.000852	20.857070
1125.313938	-3.021200	3.544700	-10.708000	25.685686	0.000852	20.869868
1126.312332	-3.017200	3.545100	-10.695000	25.675822	0.000851	20.867547
1127.315482	-2.998300	3.545600	-10.629000	25.690802	0.000851	20.856989
1128.318045	-2.994300	3.545100	-10.614000	25.706729	0.000851	20.869192
1129.316217	-2.996500	3.545100	-10.621000	25.733961	0.000851	20.882319
1130.316926	-2.977800	3.544300	-10.553000	25.742704	0.000851	20.871188
1131.316113	-3.016300	3.544100	-10.689000	25.772591	0.000850	20.870388
1132.318250	-2.992800	3.543400	-10.603000	25.797852	0.000848	20.893390
1133.320214	-2.984800	3.544600	-10.578000	25.807966	0.000848	20.866567
1134.316145	-2.988300	3.541800	-10.583000	25.836530	0.000848	20.879613
1135.321198	-2.993000	3.542200	-10.600000	25.812482	0.000849	20.885327
1136.318692	-3.008500	3.542200	-10.656000	25.784012	0.000846	20.887075
1137.318661	-2.993700	3.542600	-10.604000	25.740383	0.000847	20.894459
1138.318278	-3.021000	3.541500	-10.697000	25.735289	0.000845	20.878912
1139.329457	-2.980900	3.540000	-10.551000	25.727409	0.000846	20.898971
1140.318895	-2.971900	3.540800	-10.522000	25.744924	0.000845	20.888115
1141.321226	-2.998600	3.539500	-10.613000	25.741218	0.000844	20.890083
1142.320261	-3.001400	3.539400	-10.623000	25.754485	0.000843	20.889658
1143.322929	-2.984200	3.539100	-10.561000	25.740500	0.000845	20.889361
1144.319676	-2.981800	3.539700	-10.554000	25.747753	0.000845	20.897120
1145.328782	-2.976900	3.538100	-10.531000	25.738605	0.000845	20.894095
1146.323876	-3.005100	3.538000	-10.631000	25.740447	0.000843	20.901161
1147.320193	-3.000400	3.537800	-10.614000	25.747148	0.000842	20.876599
1148.321638	-2.996600	3.537600	-10.600000	25.741832	0.000840	20.906345
1149.327235	-2.994500	3.538000	-10.593000	25.777087	0.000841	20.888654
1150.320904	-2.979500	3.536800	-10.537000	25.791566	0.000841	20.902248
1151.321617	-3.000500	3.536200	-10.608000	25.786074	0.000842	20.875396
1152.325707	-3.010600	3.534800	-10.641000	25.780681	0.000840	20.885151
1153.322849	-3.009900	3.534300	-10.636000	25.784232	0.000839	20.891089
1154.321653	-2.979400	3.535900	-10.533000	25.829670	0.000841	20.899272
1155.321700	-2.987400	3.535300	-10.561000	25.829716	0.000839	20.911645
1156.323573	-2.977100	3.534800	-10.520000	25.840671	0.000837	20.904159
1157.326292	-2.995500	3.534000	-10.585000	25.830036	0.000838	20.913390
1158.324457	-2.984600	3.533600	-10.546000	25.790383	0.000838	20.891577
1159.325634	-3.009500	3.534100	-10.633000	25.783648	0.000835	20.886235
1160.324937	-2.987300	3.533200	-10.554000	25.777289	0.000836	20.908769
1161.324655	-2.990400	3.533800	-10.566000	25.707243	0.000836	20.906215
1162.329917	-3.025900	3.532000	-10.686000	25.667486	0.000837	20.910380
1163.329249	-3.003500	3.532300	-10.607000	25.653919	0.000835	20.931364
1164.327899	-3.021700	3.532200	-10.671000	25.655828	0.000834	20.913844
1165.326945	-3.001600	3.532400	-10.602000	25.637515	0.000833	20.917736
1166.330257	-3.011900	3.530600	-10.633000	25.630903	0.000834	20.912992
1167.328709	-3.004400	3.532400	-10.612000	25.648691	0.000832	20.905728
1168.331844	-3.025200	3.529600	-10.677000	25.666279	0.000831	20.919598
1169.329882	-3.022400	3.529600	-10.667000	25.699226	0.000829	20.937040
1170.333658	-3.033100	3.528400	-10.701000	25.739298	0.000829	20.905697
1171.330714	-3.019300	3.528100	-10.651000	25.740190	0.000829	20.915126
1172.330886	-2.989200	3.529700	-10.550000	25.738052	0.000827	20.904444
1173.332732	-3.021300	3.527900	-10.658000	25.737432	0.000827	20.915674
1174.330017	-3.015100	3.528100	-10.637000	25.761182	0.000827	20.920564
1175.331434	-3.003500	3.527100	-10.592000	25.798522	0.000823	20.937207
1176.330395	-2.990400	3.529500	-10.553000	25.800481	0.000825	20.932063
1177.332162	-3.013400	3.527100	-10.628000	25.823234	0.000826	20.925521
1178.332893	-3.018600	3.526400	-10.644000	25.795335	0.000822	20.913145
1179.336419	-3.002500	3.526500	-10.587000	25.788804	0.000825	20.922231
1180.333717	-2.999500	3.527300	-10.579000	25.815558	0.000824	20.934880
1181.340350	-2.970200	3.527700	-10.477000	25.803881	0.000822	20.914617
1182.333298	-2.994300	3.526900	-10.559000	25.851280	0.000822	20.914341
1183.333382	-2.983900	3.526500	-10.521000	25.855553	0.000821	20.920055
1184.340027	-3.003900	3.523700	-10.584000	25.859406	0.000819	20.904013
1185.335990	-3.015400	3.523900	-10.624000	25.817024	0.000818	20.915491
1186.337706	-3.001200	3.524300	-10.575000	25.819655	0.000819	20.908178
1187.341313	-2.982500	3.525200	-10.513000	25.850213	0.000819	20.917536
1188.335974	-2.990100	3.523500	-10.535000	25.865045	0.000818	20.936228
1189.341256	-2.989100	3.524400	-10.533000	25.904270	0.000816	20.907831
1190.338309	-2.970700	3.523500	-10.465000	25.865073	0.000817	20.914447
1191.336371	-2.981600	3.523800	-10.505000	25.857490	0.000817	20.902563
1192.338245	-3.006900	3.522200	-10.589000	25.822268	0.000813	20.894209
1193.336271	-3.011200	3.519900	-10.599000	25.845844	0.000815	20.915519
1194.336245	-2.999300	3.521700	-10.561000	25.848201	0.000816	20.899870
1195.340404	-3.000100	3.520700	-10.560000	25.886979	0.000814	20.896626
1196.339104	-2.996200	3.522600	-10.553000	25.888426	0.000815	20.901398
1197.340271	-2.973800	3.520200	-10.468000	25.889490	0.000815	20.889666
1198.337780	-2.999800	3.520700	-10.560000	25.885193	0.000813	20.895780
1199.337383	-3.011700	3.519000	-10.597000	25.861618	0.000813	20.893434
1200.336984	-2.997600	3.519800	-10.550000	25.878240	0.000812	20.890692
1201.338055	-2.997400	3.520200	-10.551000	25.895802	0.000813	20.900273
1202.338324	-2.995300	3.519100	-10.539000	25.898983	0.000812	20.893986
1203.345665	-3.009200	3.516600	-10.579000	25.907799	0.000812	20.886248
1204.341079	-3.000000	3.518600	-10.555000	25.914928	0.000811	20.892935
1205.339628	-2.987800	3.517500	-10.508000	25.940640	0.000811	20.905488
1206.341486	-2.991800	3.517900	-10.524000	25.938925	0.000810	20.901869
1207.340123	-2.978100	3.517400	-10.474000	25.912917	0.000808	20.888070
1208.340759	-2.997700	3.516600	-10.540000	25.898134	0.000808	20.905460
1209.340734	-2.995000	3.517500	-10.534000	25.923519	0.000809	20.882126
1210.340106	-3.011900	3.515400	-10.587000	25.917035	0.000808	20.891733
1211.343853	-2.990300	3.516300	-10.514000	25.901561	0.000808	20.879982
1212.339916	-3.023400	3.514300	-10.624000	25.895870	0.000808	20.881376
1213.343887	-3.024000	3.514000	-10.625000	25.839230	0.000805	20.886592
1214.342965	-3.008800	3.514600	-10.574000	25.839702	0.000807	20.867153
1215.342507	-2.987600	3.514300	-10.498000	25.849589	0.000806	20.886093
1216.342537	-2.986800	3.513900	-10.494000	25.889135	0.000806	20.875560
1217.346202	-3.011600	3.512600	-10.577000	25.891844	0.000802	20.904357
1218.341882	-3.004600	3.512300	-10.551000	25.913157	0.000804	20.867924
1219.343188	-3.025000	3.511800	-10.621000	25.935710	0.000804	20.880623
1220.343015	-3.020200	3.511600	-10.605000	25.900808	0.000804	20.883493
1221.343422	-3.015700	3.512400	-10.591000	25.907289	0.000803	20.885262
1222.347124	-3.011200	3.512000	-10.574000	25.919984	0.000802	20.865773
1223.344240	-2.999800	3.509900	-10.527000	25.940226	0.000802	20.879944
1224.351025	-2.998700	3.512700	-10.533000	25.969142	0.000798	20.872011
1225.344777	-3.014400	3.511400	-10.583000	25.952673	0.000800	20.866846
1226.346651	-2.983500	3.511000	-10.474000	25.967600	0.000800	20.870462
1227.346295	-2.954900	3.511500	-10.375000	25.941096	0.000799	20.881766
1228.346642	-2.983200	3.511000	-10.473000	25.920354	0.000801	20.871835
1229.345654	-3.005900	3.509000	-10.546000	25.962186	0.000797	20.869291
1230.347261	-2.994500	3.508700	-10.506000	25.949714	0.000797	20.868615
1231.348162	-2.988800	3.508200	-10.484000	25.933192	0.000797	20.872879
1232.346542	-2.987200	3.509300	-10.482000	25.960218	0.000795	20.888174
1233.349348	-3.009600	3.507100	-10.554000	25.960270	0.000795	20.862151
1234.347647	-2.989600	3.506900	-10.483000	25.951972	0.000794	20.878469
1235.348336	-2.998100	3.508000	-10.516000	25.923531	0.000794	20.854165
1236.348403	-2.989800	3.507300	-10.485000	25.931727	0.000792	20.880889
1237.348659	-2.997600	3.506600	-10.511000	25.908900	0.000792	20.874078
1238.350907	-3.008900	3.505100	-10.545000	25.926042	0.000792	20.870437
1239.349507	-2.987400	3.506700	-10.476000	25.927433	0.000793	20.854292
1240.351228	-2.993500	3.504800	-10.490000	25.908529	0.000790	20.866594
1241.350952	-3.006000	3.505100	-10.534000	25.930740	0.000790	20.866623
1242.352953	-2.987900	3.505100	-10.472000	25.939482	0.000790	20.873034
1243.367698	-3.044200	3.502800	-10.662000	25.934963	0.000791	20.868020
1244.352827	-2.974300	3.504100	-10.421000	25.893978	0.000790	20.864779
1245.352823	-2.977500	3.505400	-10.436000	25.885257	0.000791	20.871664
1246.350843	-3.007000	3.502000	-10.528000	25.902052	0.000788	20.852975
1247.350760	-2.996600	3.502100	-10.493000	25.916686	0.000787	20.857720
1248.351221	-2.998700	3.502600	-10.502000	25.893510	0.000788	20.867627
1249.354484	-2.981600	3.502500	-10.441000	25.899766	0.000787	20.864429
1250.351551	-3.021700	3.499900	-10.574000	25.894006	0.000787	20.866229
1251.355982	-3.011700	3.499300	-10.538000	25.966218	0.000787	20.857695
1252.352367	-3.002500	3.500800	-10.510000	25.966863	0.000786	20.860713
1253.352168	-3.003400	3.501300	-10.515000	26.007401	0.000786	20.861138
1254.354400	-3.015000	3.499000	-10.548000	26.007404	0.000785	20.857348
1255.352591	-2.986900	3.499300	-10.452000	26.025063	0.000785	20.847590
1256.354787	-3.001500	3.499200	-10.502000	26.015501	0.000784	20.859793
1257.351664	-2.987900	3.499100	-10.453000	25.988896	0.000785	20.859616
1258.352698	-3.010000	3.498900	-10.530000	25.930275	0.000786	20.850983
1259.355673	-2.977100	3.499700	-10.416000	25.927320	0.000785	20.861290
1260.355707	-2.992300	3.499000	-10.469000	25.862731	0.000784	20.856149
1261.351949	-3.006100	3.497900	-10.514000	25.828324	0.000786	20.865207
1262.359774	-2.980300	3.498400	-10.425000	25.812720	0.000781	20.836731
1263.352280	-2.992200	3.496800	-10.461000	25.811674	0.000781	20.856068
1264.353731	-2.997400	3.497300	-10.482000	25.830952	0.000782	20.845088
1265.356930	-2.992700	3.495800	-10.461000	25.874525	0.000781	20.852823
1266.359061	-3.002400	3.495800	-10.495000	25.898424	0.000779	20.867348
1267.356393	-3.031300	3.495600	-10.595000	25.930716	0.000779	20.855219
1268.357011	-2.991800	3.494400	-10.453000	25.938489	0.000776	20.846433
1269.355222	-2.969500	3.494500	-10.376000	25.924376	0.000777	20.840790
1270.364656	-3.020000	3.492000	-10.545000	25.916704	0.000776	20.838299
1271.355227	-3.016800	3.493100	-10.536000	25.924848	0.000777	20.849324
1272.357138	-3.016500	3.492200	-10.533000	25.904729	0.000775	20.847130
1273.357673	-2.976800	3.493200	-10.397000	25.922143	0.000774	20.843288
1274.360689	-3.020500	3.490600	-10.542000	25.940300	0.000776	20.845881
1275.357770	-2.994300	3.491700	-10.454000	25.923010	0.000773	20.842736
1276.360173	-2.993500	3.492900	-10.454000	25.937073	0.000774	20.841692
1277.358018	-2.990400	3.492100	-10.442000	25.938659	0.000772	20.848500
1278.360013	-2.968200	3.492400	-10.365000	25.938363	0.000771	20.835875
1279.362519	-3.010700	3.490100	-10.506000	25.943727	0.000773	20.860229
1280.359253	-3.007300	3.490200	-10.494000	25.936179	0.000772	20.824672
1281.362159	-2.938400	3.491600	-10.257000	25.982353	0.000771	20.841190
1282.359803	-2.993300	3.490000	-10.446000	26.005183	0.000771	20.830935
1283.361217	-2.989700	3.488800	-10.429000	26.014223	0.000771	20.833380
1284.363416	-3.008600	3.487700	-10.492000	25.976986	0.000768	20.831056
1285.361349	-2.993100	3.488900	-10.442000	25.961637	0.000767	20.844084
1286.362838	-2.974800	3.488800	-10.377000	25.914739	0.000769	20.818781
1287.363317	-3.000800	3.487000	-10.462000	25.900108	0.000768	20.844385
1288.359936	-2.996300	3.486500	-10.446000	25.910840	0.000767	20.833830
1289.363056	-3.002000	3.485600	-10.462000	25.938489	0.000768	20.850700
1290.360622	-3.005000	3.485300	-10.473000	25.912531	0.000765	20.835528
1291.363087	-2.989600	3.487000	-10.423000	25.920977	0.000767	20.844013
1292.374182	-3.007700	3.485200	-10.482000	25.934914	0.000765	20.844264
1293.362090	-3.026800	3.484600	-10.545000	25.920135	0.000764	20.817089
1294.365078	-2.985600	3.484300	-10.401000	25.928232	0.000765	20.828069
1295.362269	-3.013200	3.484300	-10.497000	25.915366	0.000764	20.841221
1296.362398	-2.994100	3.484100	-10.431000	25.909899	0.000763	20.831462
1297.362848	-2.996400	3.483600	-10.436000	25.935784	0.000763	20.849405
1298.362748	-2.965700	3.483900	-10.331000	25.915764	0.000763	20.849207
1299.362391	-2.989000	3.482700	-10.408000	25.918469	0.000761	20.835330
1300.360939	-2.978300	3.483500	-10.375000	25.894623	0.000763	20.827022
1301.364740	-2.998700	3.482600	-10.441000	25.910177	0.000760	20.827000
1302.363745	-3.002900	3.481800	-10.454000	25.928186	0.000762	20.827074
1303.365099	-2.996600	3.481300	-10.431000	25.919740	0.000759	20.834710
1304.367647	-3.004800	3.479500	-10.454000	25.932758	0.000760	20.831667
1305.365093	-3.006200	3.481000	-10.463000	25.957146	0.000758	20.823452
1306.374425	-2.999500	3.481800	-10.443000	25.934692	0.000758	20.833610
1307.366198	-2.995700	3.479400	-10.422000	25.942370	0.000760	20.819987
1308.368455	-2.994300	3.478700	-10.415000	25.925749	0.000758	20.811350
1309.370245	-3.015700	3.478100	-10.488000	25.953299	0.000757	20.806785
1310.374229	-3.014000	3.477800	-10.480000	25.982135	0.000756	20.827694
1311.368150	-3.010700	3.477800	-10.469000	25.948527	0.000755	20.831388
1312.366665	-3.010900	3.477400	-10.469000	25.972125	0.000756	20.834707
1313.367900	-3.009300	3.477200	-10.463000	25.950612	0.000757	20.829690
1314.371253	-3.008000	3.477500	-10.460000	25.982187	0.000758	20.816842
1315.369170	-3.006700	3.477000	-10.453000	25.982955	0.000756	20.808130
1316.369032	-2.999100	3.474400	-10.419000	26.002428	0.000755	20.792133
1317.374731	-3.003300	3.474900	-10.435000	26.006253	0.000755	20.821580
1318.371804	-2.997100	3.477200	-10.421000	26.009779	0.000753	20.799992
1319.376080	-2.996800	3.475300	-10.414000	26.031858	0.000754	20.793251
1320.374567	-2.994600	3.474500	-10.404000	25.993979	0.000754	20.830585
1321.374981	-2.996100	3.474900	-10.411000	25.979247	0.000754	20.812465
1322.372008	-2.977900	3.473900	-10.344000	25.964687	0.000754	20.819649
1323.373442	-3.001400	3.475000	-10.428000	25.988708	0.000753	20.795417
1324.377756	-2.990100	3.472900	-10.382000	25.992853	0.000750	20.813333
1325.374780	-2.994600	3.473900	-10.401000	25.977973	0.000751	20.825409
1326.375028	-3.005200	3.473300	-10.436000	25.990290	0.000749	20.810283
1327.376656	-3.004400	3.473200	-10.434000	25.954372	0.000750	20.806440
1328.376551	-2.995000	3.472300	-10.399000	25.953027	0.000750	20.810779
1329.376702	-2.992000	3.472300	-10.388000	25.939312	0.000749	20.795578
1330.376802	-3.011400	3.471300	-10.452000	25.965865	0.000747	20.771520
1331.375431	-3.001700	3.470100	-10.415000	25.962956	0.000747	20.807478
1332.377007	-2.992500	3.470800	-10.385000	25.993855	0.000747	20.802011
1333.376313	-2.998900	3.469400	-10.403000	26.005228	0.000748	20.801584
1334.376701	-2.996300	3.468600	-10.392000	26.002717	0.000749	20.799061
1335.379238	-3.010600	3.468000	-10.440000	25.964637	0.000744	20.799210
1336.378175	-3.013800	3.468700	-10.453000	25.957452	0.000745	20.810009
1337.379434	-2.987600	3.469300	-10.363000	25.940462	0.000745	20.807639
1338.377511	-3.009700	3.467800	-10.436000	25.962813	0.000744	20.811128
1339.378304	-2.972300	3.468800	-10.310000	25.992297	0.000745	20.814670
1340.380635	-2.983500	3.466400	-10.341000	25.983950	0.000742	20.811026
1341.382264	-2.993800	3.466800	-10.378000	26.024604	0.000740	20.802559
1342.383074	-2.995500	3.466700	-10.384000	25.995270	0.000740	20.816709
1343.378950	-2.997200	3.466300	-10.387000	25.999218	0.000742	20.810245
1344.379462	-3.001200	3.464600	-10.396000	26.029690	0.000739	20.812411
1345.379163	-2.979000	3.465200	-10.323000	26.054551	0.000739	20.794241
1346.382541	-3.008000	3.464700	-10.420000	26.022235	0.000738	20.809188
1347.379629	-3.004300	3.464400	-10.407000	26.009095	0.000738	20.797408
1348.381915	-2.995600	3.463600	-10.375000	25.986562	0.000737	20.775244
1349.379512	-2.991700	3.463600	-10.361000	25.974291	0.000738	20.798477
1350.381042	-2.974900	3.465100	-10.308000	26.014033	0.000737	20.805215
1351.383448	-3.013100	3.462100	-10.430000	26.043388	0.000736	20.798672
1352.379870	-2.980600	3.464700	-10.325000	26.051207	0.000736	20.806054
1353.379002	-2.995200	3.462100	-10.369000	26.054288	0.000736	20.814840
1354.379271	-2.990200	3.461000	-10.348000	26.093559	0.000735	20.788864
1355.383820	-2.987200	3.461400	-10.339000	26.058258	0.000734	20.797017
1356.379672	-2.975600	3.460400	-10.295000	26.041519	0.000733	20.814812
1357.380615	-3.002700	3.459700	-10.388000	26.069189	0.000732	20.802785
1358.379264	-2.981100	3.460400	-10.315000	26.041146	0.000731	20.810644
1359.379688	-3.010000	3.459600	-10.412000	26.062629	0.000730	20.793348
1360.379930	-2.998000	3.458300	-10.366000	26.084364	0.000730	20.791954
1361.381020	-2.972100	3.460000	-10.283000	26.087418	0.000731	20.794547
1362.391731	-2.982900	3.458400	-10.316000	26.088136	0.000728	20.797166
1363.380481	-3.013800	3.458100	-10.420000	26.093006	0.000730	20.817706
1364.381058	-2.991700	3.458100	-10.345000	26.089503	0.000729	20.805651
1365.380671	-3.009900	3.457200	-10.405000	26.084241	0.000730	20.802735
1366.379977	-3.002600	3.458000	-10.382000	26.059726	0.000728	20.804182
1367.381306	-3.013900	3.456200	-10.416000	26.049316	0.000728	20.789456
1368.380849	-3.003000	3.456000	-10.378000	26.001778	0.000728	20.793376
1369.387234	-3.003800	3.456000	-10.380000	25.990775	0.000727	20.779477
1370.380122	-3.010200	3.454700	-10.399000	26.040923	0.000726	20.782446
1371.387089	-2.980500	3.456300	-10.300000	26.069035	0.000727	20.800259
1372.387702	-3.020900	3.452700	-10.428000	26.079864	0.000725	20.773681
1373.380435	-3.017000	3.454000	-10.420000	26.108505	0.000726	20.781122
1374.380176	-3.014200	3.451800	-10.403000	26.142401	0.000727	20.785309
1375.382567	-2.990600	3.452600	-10.324000	26.169399	0.000725	20.775928
1376.382850	-3.025900	3.453000	-10.448000	26.140714	0.000725	20.772234
1377.384411	-2.988800	3.452300	-10.318000	26.127078	0.000726	20.783663
1378.383797	-3.008500	3.451200	-10.382000	26.138774	0.000723	20.766017
1379.393180	-3.004600	3.450000	-10.365000	26.164776	0.000722	20.782662
1380.396453	-2.993500	3.452100	-10.333000	26.183968	0.000725	20.802896
1381.386324	-2.981500	3.451600	-10.290000	26.154096	0.000724	20.768611
1382.386277	-2.985800	3.452000	-10.304000	26.147462	0.000724	20.764790
1383.390679	-2.997800	3.450300	-10.343000	26.159629	0.000724	20.787447
1384.388185	-2.977500	3.449500	-10.270000	26.172915	0.000722	20.762391
1385.385509	-2.994700	3.450400	-10.331000	26.207953	0.000722	20.789065
1386.387624	-2.993100	3.449200	-10.323000	26.201865	0.000721	20.777257
1387.387514	-2.983400	3.448100	-10.286000	26.208794	0.000722	20.798920
1388.391408	-3.000700	3.448600	-10.347000	26.227964	0.000722	20.774561
1389.386616	-3.001100	3.447500	-10.345000	26.211894	0.000721	20.791603
1390.394847	-2.996700	3.446300	-10.326000	26.164609	0.000720	20.783917
1391.388304	-2.985600	3.446900	-10.290000	26.175829	0.000720	20.775751
1392.388713	-2.976500	3.447100	-10.259000	26.168128	0.000719	20.769909
1393.389697	-2.997300	3.444400	-10.323000	26.170959	0.000717	20.777970
1394.388053	-2.991500	3.445900	-10.307000	26.159857	0.000717	20.767288
1395.388494	-2.997100	3.445200	-10.325000	26.190127	0.000718	20.766411
1396.391236	-2.986700	3.445400	-10.289000	26.181233	0.000717	20.784500
1397.389125	-2.995000	3.445200	-10.317000	26.150709	0.000716	20.787968
1398.389641	-2.985900	3.444800	-10.284000	26.127686	0.000715	20.774791
1399.390123	-3.002800	3.443600	-10.339000	26.136377	0.000715	20.771670
1400.393129	-2.982400	3.444400	-10.270000	26.148640	0.000716	20.777354
1401.395436	-2.970200	3.442800	-10.224000	26.155594	0.000712	20.791454
1402.390456	-2.995500	3.443100	-10.313000	26.189368	0.000714	20.775606
1403.389684	-2.998700	3.442400	-10.322000	26.152017	0.000712	20.764151
1404.392534	-2.998500	3.440900	-10.316000	26.140414	0.000714	20.773830
1405.391879	-3.010400	3.440600	-10.356000	26.162990	0.000712	20.764746
1406.392560	-2.999400	3.439500	-10.314000	26.194972	0.000711	20.779814
1407.391513	-2.987100	3.439400	-10.272000	26.185211	0.000712	20.760522
1408.391501	-3.004400	3.440200	-10.334000	26.215508	0.000710	20.759673
1409.392828	-2.993600	3.439400	-10.294000	26.215555	0.000710	20.760668
1410.395181	-3.006800	3.439700	-10.342000	26.204403	0.000709	20.778386
1411.392654	-3.006500	3.438200	-10.336000	26.189008	0.000711	20.767657
1412.395720	-3.006500	3.438400	-10.335000	26.179145	0.000709	20.792834
1413.395048	-3.015300	3.437900	-10.365000	26.202633	0.000709	20.780400
1414.395306	-3.004400	3.436900	-10.325000	26.206806	0.000711	20.761834
1415.399115	-3.001300	3.437200	-10.315000	26.212067	0.000711	20.792251
1416.397481	-3.003900	3.436200	-10.320000	26.172628	0.000708	20.772535
1417.397797	-3.020500	3.435900	-10.377000	26.176200	0.000705	20.798409
1418.394907	-2.997400	3.436300	-10.298000	26.184968	0.000707	20.785409
1419.398345	-3.000000	3.436000	-10.307000	26.213051	0.000707	20.768110
1420.400552	-3.026400	3.435900	-10.398000	26.201526	0.000708	20.785452
1421.397038	-3.004300	3.434800	-10.319000	26.162013	0.000705	20.786050
1422.399485	-3.007300	3.434700	-10.328000	26.149967	0.000704	20.766359
1423.397535	-3.023300	3.432700	-10.377000	26.168043	0.000704	20.766979
1424.398712	-2.994800	3.434100	-10.284000	26.184154	0.000703	20.789807
1425.397958	-2.995100	3.433100	-10.281000	26.178393	0.000705	20.789708
1426.401468	-2.979200	3.433100	-10.226000	26.219864	0.000703	20.781594
1427.397835	-2.996800	3.432300	-10.285000	26.219019	0.000702	20.779797
1428.397908	-2.994100	3.432200	-10.275000	26.187800	0.000701	20.784461
1429.397200	-2.972000	3.432600	-10.200000	26.208312	0.000702	20.781839
1430.399218	-2.991500	3.431400	-10.264000	26.216305	0.000702	20.776596
1431.402917	-2.987500	3.431200	-10.250000	26.229862	0.000702	20.784055
1432.401137	-2.981100	3.430900	-10.227000	26.226631	0.000699	20.768954
1433.400871	-2.991700	3.428900	-10.257000	26.257026	0.000698	20.783851
1434.401169	-3.002400	3.429400	-10.295000	26.222899	0.000699	20.775161
1435.400623	-2.968200	3.430500	-10.181000	26.201589	0.000700	20.781248
1436.404233	-3.030700	3.427300	-10.385000	26.200821	0.000700	20.786166
1437.401129	-2.988700	3.428400	-10.246000	26.182539	0.000698	20.772537
1438.403115	-3.017600	3.427400	-10.341000	26.149382	0.000699	20.777151
1439.402505	-3.015000	3.426700	-10.331000	26.133141	0.000698	20.766047
1440.408222	-2.979900	3.428100	-10.215000	26.133434	0.000697	20.784834
1441.403414	-2.992600	3.427700	-10.257000	26.139689	0.000697	20.774998
1442.405551	-2.997100	3.426700	-10.269000	26.189729	0.000698	20.792564
1443.404850	-2.986900	3.425800	-10.232000	26.212702	0.000696	20.787673
1444.405867	-2.998400	3.426700	-10.273000	26.231819	0.000695	20.804514
1445.405340	-2.994500	3.425300	-10.256000	26.258859	0.000693	20.795651
1446.407127	-2.978200	3.426000	-10.202000	26.253545	0.000693	20.801216
1447.410383	-3.015500	3.423700	-10.323000	26.219644	0.000693	20.796546
1448.407783	-2.984900	3.423600	-10.218000	26.212141	0.000692	20.780946
1449.408062	-2.996700	3.423300	-10.257000	26.177569	0.000692	20.772758
1450.408117	-2.990000	3.423800	-10.236000	26.204139	0.000690	20.790448
1451.411378	-3.002100	3.423600	-10.277000	26.164080	0.000691	20.774376
1452.410436	-3.002800	3.423000	-10.277000	26.163827	0.000692	20.793563
1453.408614	-2.988200	3.421500	-10.223000	26.183942	0.000692	20.799076
1454.411089	-2.997800	3.422700	-10.260000	26.141770	0.000691	20.798426
1455.411954	-2.988300	3.421400	-10.222000	26.100290	0.000690	20.810326
1456.412403	-2.995300	3.421300	-10.247000	26.087324	0.000689	20.820057
1457.413940	-2.979300	3.420800	-10.190000	26.073537	0.000688	20.805256
1458.413791	-2.998600	3.420700	-10.256000	26.080141	0.000688	20.809995
1459.413514	-3.000800	3.420200	-10.262000	26.065012	0.000687	20.790527
1460.415263	-3.020000	3.418900	-10.324000	26.096106	0.000686	20.785733
1461.415278	-2.989700	3.420000	-10.223000	26.100347	0.000685	20.819866
1462.415174	-2.979700	3.419100	-10.186000	26.093993	0.000685	20.796887
1463.416257	-2.989300	3.419100	-10.219000	26.115524	0.000685	20.800978
1464.416107	-2.993500	3.418200	-10.232000	26.117705	0.000683	20.796057
1465.416159	-3.021800	3.416100	-10.322000	26.118125	0.000683	20.809755
1466.416073	-3.013400	3.416500	-10.293000	26.125974	0.000681	20.801046
1467.416838	-3.002000	3.417600	-10.259000	26.120956	0.000683	20.796953
1468.418531	-2.998100	3.416100	-10.241000	26.129749	0.000681	20.803417
1469.416940	-2.991900	3.416900	-10.222000	26.109807	0.000679	20.803767
1470.418568	-3.004000	3.415200	-10.259000	26.098355	0.000678	20.799373
1471.416383	-2.982200	3.416200	-10.187000	26.107768	0.000679	20.820211
1472.416128	-2.980500	3.414800	-10.177000	26.110748	0.000679	20.807083
1473.418793	-2.993400	3.413300	-10.217000	26.096443	0.000676	20.828745
1474.421019	-2.988600	3.414700	-10.204000	26.100468	0.000676	20.798651
1475.417034	-2.991200	3.412100	-10.206000	26.084173	0.000675	20.814995
1476.420174	-2.983200	3.413400	-10.182000	26.074140	0.000675	20.810604
1477.417427	-2.991200	3.413500	-10.210000	26.085438	0.000675	20.818637
1478.418338	-3.003400	3.413200	-10.250000	26.082387	0.000675	20.807985
1479.420840	-2.998300	3.412500	-10.231000	26.108838	0.000674	20.803742
1480.419274	-3.005700	3.411400	-10.252000	26.140754	0.000673	20.817319
1481.420857	-3.013300	3.410900	-10.277000	26.164323	0.000673	20.809708
1482.419854	-3.007200	3.410800	-10.256000	26.173140	0.000673	20.835163
1483.417952	-3.021800	3.408800	-10.299000	26.194873	0.000673	20.802000
1484.423090	-2.997900	3.411400	-10.226000	26.226759	0.000671	20.811282
1485.420022	-3.012100	3.410300	-10.270000	26.231502	0.000673	20.814626
1486.419962	-3.010500	3.409100	-10.262000	26.262297	0.000669	20.816175
1487.420732	-2.982000	3.409900	-10.167000	26.258970	0.000670	20.818995
1488.428061	-3.021000	3.406800	-10.291000	26.300640	0.000670	20.823414
1489.421082	-2.992000	3.408500	-10.196000	26.306900	0.000668	20.799834
1490.425370	-2.987900	3.408600	-10.184000	26.277848	0.000670	20.799561
1491.423239	-3.016100	3.407000	-10.275000	26.264289	0.000669	20.817228
1492.422601	-2.998800	3.407500	-10.217000	26.248077	0.000670	20.823221
1493.423406	-3.008900	3.406200	-10.248000	26.215690	0.000667	20.819599
1494.423408	-3.003800	3.406700	-10.232000	26.195156	0.000667	20.815561
1495.424015	-3.000400	3.406100	-10.219000	26.218847	0.000667	20.825617
1496.422163	-2.999600	3.406100	-10.216000	26.249788	0.000665	20.812140
1497.424454	-2.982400	3.405100	-10.154000	26.224386	0.000665	20.824071
1498.423945	-3.002700	3.406400	-10.228000	26.253119	0.000667	20.798417
1499.423515	-2.993400	3.404100	-10.189000	26.255259	0.000664	20.825223
1500.428359	-2.988500	3.404900	-10.174000	26.245344	0.000664	20.812415
1501.425388	-3.011500	3.404500	-10.252000	26.247534	0.000662	20.824098
1502.425042	-3.010400	3.402300	-10.241000	26.247309	0.000665	20.796372
1503.424415	-3.000900	3.402900	-10.211000	26.259900	0.000663	20.816137
1504.425544	-3.000900	3.403100	-10.211000	26.270804	0.000662	20.801965
1505.426756	-3.014500	3.401600	-10.254000	26.297969	0.000662	20.827842
1506.427136	-3.004400	3.402300	-10.220000	26.307652	0.000663	20.811495
1507.424665	-3.010500	3.400800	-10.237000	26.315525	0.000663	20.820355
1508.428360	-3.015400	3.401000	-10.254000	26.329851	0.000661	20.812468
1509.424954	-2.998200	3.399700	-10.192000	26.324116	0.000661	20.809074
1510.425357	-2.983700	3.400700	-10.146000	26.337872	0.000661	20.823373
1511.430772	-3.006200	3.399200	-10.218000	26.334792	0.000659	20.809372
1512.426193	-2.991700	3.399200	-10.167000	26.310927	0.000661	20.813838
1513.425966	-2.982700	3.398700	-10.136000	26.293193	0.000660	20.804076
1514.428208	-3.004900	3.398600	-10.211000	26.230717	0.000658	20.820950
1515.428766	-2.982500	3.398800	-10.136000	26.246560	0.000658	20.835447
1516.428575	-2.987700	3.397700	-10.150000	26.269824	0.000659	20.826110
1517.430915	-3.009600	3.397200	-10.222000	26.285644	0.000659	20.843904
1518.430365	-3.001200	3.397300	-10.195000	26.306851	0.000656	20.821595
1519.432544	-3.007800	3.396300	-10.215000	26.347321	0.000657	20.839981
1520.433810	-3.008400	3.395600	-10.214000	26.353057	0.000658	20.841478
1521.438049	-2.974200	3.396300	-10.100000	26.366763	0.000656	20.832969
1522.437029	-2.996700	3.396100	-10.176000	26.384764	0.000655	20.816922
1523.435815	-3.003100	3.396100	-10.198000	26.391443	0.000658	20.850660
1524.437841	-3.014800	3.395900	-10.237000	26.389257	0.000657	20.842300
1525.435667	-3.013900	3.394400	-10.229000	26.377981	0.000655	20.852303
1526.436951	-3.012500	3.393600	-10.223000	26.336834	0.000653	20.805261
1527.437183	-3.029700	3.392400	-10.276000	26.362610	0.000653	20.844441
1528.440226	-2.995700	3.393700	-10.165000	26.328710	0.000653	20.815113
1529.437101	-2.995800	3.392900	-10.163000	26.339363	0.000653	20.832932
1530.438023	-3.006100	3.392900	-10.199000	26.348275	0.000653	20.831932
1531.438315	-2.978800	3.393700	-10.108000	26.332009	0.000653	20.839766
1532.438256	-2.992900	3.392000	-10.150000	26.340822	0.000654	20.850519
1533.441805	-3.016500	3.391700	-10.230000	26.329946	0.000651	20.831055
1534.438003	-2.983900	3.392900	-10.123000	26.330937	0.000651	20.848645
1535.442091	-3.008500	3.389800	-10.198000	26.329617	0.000650	20.839258
1536.437449	-3.016000	3.391200	-10.227000	26.317501	0.000650	20.829927
1537.439253	-3.009700	3.390800	-10.205000	26.282313	0.000648	20.855255
1538.440111	-2.999300	3.389200	-10.165000	26.290254	0.000650	20.843796
1539.439410	-2.996800	3.389500	-10.157000	26.296363	0.000650	20.847564
1540.439593	-2.984500	3.390300	-10.117000	26.261819	0.000646	20.850781
1541.439586	-2.984100	3.388900	-10.112000	26.238076	0.000648	20.859164
1542.439886	-2.991100	3.388100	-10.132000	26.278105	0.000646	20.857190
1543.440485	-3.002600	3.386900	-10.169000	26.258236	0.000648	20.851922
1544.440030	-2.994400	3.387200	-10.141000	26.271873	0.000646	20.862780
1545.440156	-3.002600	3.387500	-10.170000	26.282274	0.000645	20.842415
1546.442262	-2.993700	3.386500	-10.136000	26.264219	0.000645	20.841339
1547.441222	-2.986900	3.386500	-10.113000	26.252621	0.000644	20.849598
1548.444012	-2.996100	3.386600	-10.145000	26.283509	0.000646	20.867836
1549.443964	-3.005900	3.385200	-10.175000	26.263939	0.000644	20.852912
1550.442001	-3.016900	3.385900	-10.214000	26.266104	0.000643	20.854612
1551.445651	-3.048400	3.382900	-10.311000	26.287404	0.000642	20.890240
1552.442184	-3.008300	3.383500	-10.178000	26.282165	0.000641	20.859847
1553.442101	-3.031900	3.383200	-10.257000	26.311436	0.000639	20.878831
1554.442415	-3.011200	3.383600	-10.188000	26.295447	0.000638	20.861341
1555.445642	-3.009300	3.382900	-10.179000	26.282955	0.000640	20.863486
1556.442950	-3.007800	3.383400	-10.176000	26.273340	0.000639	20.855720
1557.445174	-2.996600	3.383000	-10.136000	26.293008	0.000637	20.860787
1558.444477	-2.978900	3.382400	-10.075000	26.316000	0.000638	20.877729
1559.444801	-3.009400	3.381900	-10.176000	26.376513	0.000636	20.888757
1560.447660	-3.033300	3.379900	-10.251000	26.409712	0.000637	20.869495
1561.448649	-3.032500	3.380600	-10.251000	26.427340	0.000638	20.857815
1562.446569	-3.013100	3.381600	-10.188000	26.404921	0.000636	20.870369
1563.446370	-2.994300	3.381500	-10.124000	26.436575	0.000635	20.872786
1564.445809	-2.988900	3.382200	-10.107000	26.454103	0.000635	20.863378
1565.448723	-3.003800	3.379400	-10.150000	26.456736	0.000637	20.875981
1566.446310	-2.977000	3.380100	-10.062000	26.470392	0.000634	20.862681
1567.448986	-2.994200	3.377800	-10.113000	26.497253	0.000635	20.859334
1568.448696	-2.998500	3.378700	-10.129000	26.498345	0.000634	20.868966
1569.448348	-2.984600	3.378700	-10.083000	26.464951	0.000633	20.850574
1570.446883	-3.004800	3.377200	-10.146000	26.425275	0.000631	20.881342
1571.450685	-3.005300	3.378100	-10.152000	26.386541	0.000632	20.882241
1572.449974	-2.991200	3.378300	-10.104000	26.356298	0.000632	20.872235
1573.453299	-3.014400	3.375300	-10.172000	26.316867	0.000630	20.867695
1574.448634	-3.020900	3.375000	-10.195000	26.292531	0.000632	20.874057
1575.449177	-2.985800	3.376700	-10.081000	26.287536	0.000630	20.862874
1576.452637	-2.993200	3.377600	-10.109000	26.278747	0.000629	20.873955
1577.451426	-3.018000	3.375000	-10.184000	26.305267	0.000630	20.885907
1578.449137	-3.004300	3.375200	-10.138000	26.352748	0.000630	20.881943
1579.449668	-2.998600	3.374800	-10.116000	26.352844	0.000629	20.874928
1580.451757	-3.011000	3.374900	-10.161000	26.383957	0.000628	20.878222
1581.450759	-3.001100	3.373600	-10.124000	26.368188	0.000627	20.880391
1582.452466	-2.997900	3.372400	-10.109000	26.352595	0.000626	20.888901
1583.452059	-2.991100	3.374100	-10.091000	26.376384	0.000627	20.887206
1584.452242	-2.981100	3.373700	-10.056000	26.410324	0.000624	20.880540
1585.453234	-3.008100	3.371600	-10.139000	26.437461	0.000624	20.897382
1586.454583	-2.990400	3.371800	-10.082000	26.453102	0.000622	20.893664
1587.457544	-3.006400	3.370000	-10.131000	26.461942	0.000623	20.874101
1588.455911	-2.995100	3.371500	-10.096000	26.433558	0.000621	20.883504
1589.457195	-3.009200	3.371100	-10.143000	26.454117	0.000622	20.875245
1590.455415	-3.014600	3.370400	-10.159000	26.474849	0.000623	20.892289
1591.456512	-3.005700	3.369200	-10.125000	26.508490	0.000620	20.885800
1592.457412	-2.997700	3.370400	-10.103000	26.505486	0.000621	20.892738
1593.457538	-3.033100	3.368000	-10.214000	26.548014	0.000618	20.897553
1594.456682	-3.007800	3.368100	-10.129000	26.555114	0.000619	20.894734
1595.457426	-3.022300	3.369200	-10.181000	26.573979	0.000619	20.877663
1596.458468	-3.011700	3.367500	-10.141000	26.613104	0.000619	20.904188
1597.458066	-2.984200	3.368400	-10.050000	26.648032	0.000617	20.892360
1598.474922	-2.986300	3.368500	-10.058000	26.627501	0.000617	20.891635
1599.458181	-3.016300	3.366600	-10.154000	26.594731	0.000616	20.900417
1600.459598	-3.004200	3.367900	-10.117000	26.611039	0.000617	20.907328
1601.458525	-3.021400	3.367500	-10.173000	26.620821	0.000616	20.910997
1602.457646	-2.997800	3.365400	-10.087000	26.646439	0.000615	20.902612
1603.462369	-2.997900	3.365900	-10.090000	26.656094	0.000616	20.899990
1604.458625	-2.990600	3.364700	-10.061000	26.654183	0.000614	20.910870
1605.457623	-2.999600	3.365300	-10.094000	26.654997	0.000616	20.924964
1606.459784	-2.971000	3.365400	-9.997300	26.621386	0.000614	20.888333
1607.459471	-2.983300	3.364000	-10.035000	26.628680	0.000613	20.920319
1608.459669	-2.981700	3.364700	-10.031000	26.604899	0.000612	20.911113
1609.462342	-2.986200	3.364400	-10.046000	26.561304	0.000612	20.911385
1610.459580	-2.967500	3.364800	-9.984000	26.574808	0.000611	20.931121
1611.459050	-3.001900	3.363800	-10.097000	26.593747	0.000611	20.901799
1612.459082	-3.000900	3.361600	-10.087000	26.601195	0.000611	20.944843
1613.460238	-3.024600	3.360600	-10.164000	26.652058	0.000610	20.906363
1614.462295	-2.989200	3.362200	-10.050000	26.658935	0.000609	20.914699
1615.458474	-2.982400	3.362700	-10.027000	26.665360	0.000609	20.905986
1616.461701	-3.010600	3.362400	-10.120000	26.679608	0.000610	20.915093
1617.460040	-3.008400	3.360200	-10.108000	26.691026	0.000611	20.924674
1618.461114	-2.980900	3.360800	-10.018000	26.691073	0.000606	20.919032
1619.462638	-3.001200	3.361400	-10.087000	26.637006	0.000609	20.916835
1620.460213	-2.982700	3.359200	-10.019000	26.603268	0.000606	20.921326
1621.461195	-2.994000	3.359200	-10.056000	26.589584	0.000606	20.929380
1622.460261	-2.989200	3.359300	-10.040000	26.538022	0.000606	20.926861
1623.460505	-2.979200	3.359000	-10.006000	26.542390	0.000605	20.908020
1624.459353	-3.007200	3.358100	-10.097000	26.534616	0.000603	20.913955
1625.459974	-2.988500	3.358200	-10.035000	26.549337	0.000604	20.935863
1626.459998	-3.019300	3.357300	-10.135000	26.572645	0.000606	20.909983
1627.460488	-2.990700	3.358300	-10.042000	26.615889	0.000602	20.939226
1628.461050	-2.974500	3.356800	-9.983700	26.614521	0.000602	20.953496
1629.461233	-2.978700	3.357700	-10.001000	26.598209	0.000601	20.931886
1630.463793	-3.006300	3.356700	-10.089000	26.618217	0.000599	20.918336
1631.461135	-3.018800	3.354500	-10.125000	26.608485	0.000601	20.925147
1632.464029	-2.985500	3.356000	-10.019000	26.609776	0.000600	20.933082
1633.460977	-3.002700	3.355500	-10.075000	26.608606	0.000597	20.913416
1634.462142	-2.983600	3.356100	-10.013000	26.599222	0.000597	20.929585
1635.464683	-3.008200	3.353600	-10.088000	26.630152	0.000599	20.919902
1636.461811	-3.009900	3.354100	-10.094000	26.676223	0.000597	20.924491
1637.469312	-2.994600	3.355000	-10.046000	26.699679	0.000598	20.944751
1638.463355	-3.006400	3.354000	-10.082000	26.699528	0.000597	20.936539
1639.464393	-3.002300	3.352700	-10.065000	26.728544	0.000596	20.919720
1640.467319	-2.975100	3.353700	-9.976700	26.719586	0.000595	20.959073
1641.466520	-2.998000	3.352800	-10.050000	26.747360	0.000595	20.954279
1642.464141	-3.020200	3.351600	-10.121000	26.760787	0.000596	20.963510
1643.465697	-2.972300	3.353300	-9.966100	26.739466	0.000596	20.943025
1644.465834	-2.988600	3.352100	-10.017000	26.741796	0.000597	20.953428
1645.467864	-2.994200	3.351900	-10.035000	26.745024	0.000595	20.925382
1646.469126	-2.989300	3.350900	-10.016000	26.758275	0.000594	20.928747
1647.468406	-2.997000	3.351100	-10.042000	26.737920	0.000592	20.940049
1648.470038	-2.989500	3.350100	-10.014000	26.727097	0.000592	20.946237
1649.469374	-3.009400	3.349400	-10.078000	26.698501	0.000593	20.946885
1650.468596	-2.990900	3.349400	-10.016000	26.682810	0.000593	20.958136
1651.476061	-3.004200	3.349400	-10.062000	26.660149	0.000591	20.961433
1652.468803	-3.018400	3.347500	-10.103000	26.692564	0.000592	20.939969
1653.473318	-2.995200	3.348900	-10.030000	26.684272	0.000591	20.950124
1654.469604	-2.996600	3.348700	-10.034000	26.663295	0.000588	20.945157
1655.470665	-2.997700	3.346700	-10.032000	26.640332	0.000589	20.960002
1656.471212	-3.023400	3.345300	-10.113000	26.599023	0.000589	20.949297
1657.469898	-2.980500	3.346400	-9.973000	26.605621	0.000589	20.938862
1658.471072	-2.990100	3.346100	-10.004000	26.589762	0.000586	20.932877
1659.472915	-2.999800	3.345600	-10.034000	26.605969	0.000586	20.933997
1660.474215	-3.008500	3.346300	-10.067000	26.611904	0.000588	20.949443
1661.472044	-3.002600	3.344400	-10.041000	26.597109	0.000587	20.952114
1662.475054	-3.008900	3.344800	-10.064000	26.586653	0.000588	20.947294
1663.472691	-3.031000	3.344400	-10.136000	26.573939	0.000585	20.941153
1664.473722	-3.013100	3.343000	-10.072000	26.581212	0.000586	20.910535
1665.474429	-3.012000	3.341900	-10.064000	26.599087	0.000583	20.936086
1666.477878	-2.991400	3.343600	-10.001000	26.645979	0.000584	20.925381
1667.474553	-2.997600	3.343500	-10.022000	26.679439	0.000583	20.931043
1668.475237	-3.033400	3.342200	-10.137000	26.691378	0.000584	20.929769
1669.473451	-2.992900	3.342300	-10.002000	26.723296	0.000584	20.928193
1670.475458	-2.998100	3.342000	-10.019000	26.748815	0.000583	20.923978
1671.476770	-2.996600	3.341300	-10.011000	26.773413	0.000583	20.936379
1672.476888	-2.981200	3.342100	-9.962300	26.811135	0.000583	20.915040
1673.476409	-3.001300	3.340900	-10.025000	26.807187	0.000579	20.950895
1674.474897	-2.985200	3.341100	-9.972400	26.797977	0.000580	20.949222
1675.478166	-2.980600	3.340300	-9.954900	26.770351	0.000581	20.923819
1676.474590	-3.014800	3.338200	-10.063000	26.777501	0.000581	20.943334
1677.474799	-2.989500	3.339100	-9.980700	26.781143	0.000579	20.931350
1678.476395	-3.000600	3.339300	-10.019000	26.746593	0.000577	20.917477
1679.476389	-2.995200	3.338400	-9.997900	26.726088	0.000578	20.912984
1680.475994	-2.972400	3.340700	-9.928900	26.707645	0.000577	20.930950
1681.476248	-2.986700	3.339200	-9.971800	26.720574	0.000575	20.908863
1682.477268	-3.002000	3.338100	-10.020000	26.688429	0.000576	20.918271
1683.477893	-2.991100	3.338500	-9.984700	26.653725	0.000578	20.925107
1684.479676	-2.992100	3.337900	-9.986600	26.685745	0.000574	20.936907
1685.480347	-2.987600	3.336700	-9.967600	26.699571	0.000576	20.936108
1686.480157	-2.994700	3.336900	-9.991400	26.718508	0.000574	20.914846
1687.478987	-3.001700	3.336100	-10.013000	26.708576	0.000574	20.908181
1688.483087	-3.011900	3.335100	-10.043000	26.716493	0.000574	20.930836
1689.480587	-3.016500	3.335900	-10.061000	26.732476	0.000577	20.920354
1690.479333	-3.018300	3.335500	-10.066000	26.741212	0.000572	20.912068
1691.484233	-2.997600	3.336500	-10.000000	26.777474	0.000571	20.920550
1692.480204	-2.991800	3.334100	-9.972300	26.781568	0.000572	20.923243
1693.481931	-3.001300	3.334500	-10.007000	26.774960	0.000571	20.934616
1694.484828	-3.002900	3.333000	-10.008000	26.789308	0.000570	20.909216
1695.480228	-3.005200	3.332800	-10.014000	26.793772	0.000569	20.929349
1696.481546	-3.007300	3.332700	-10.020000	26.792056	0.000570	20.902496
1697.483871	-2.989700	3.333600	-9.965800	26.769694	0.000570	20.894238
1698.480999	-3.028000	3.330200	-10.082000	26.770832	0.000568	20.912450
1699.480621	-3.008800	3.332500	-10.026000	26.778871	0.000566	20.915791
1700.483052	-2.985500	3.332200	-9.947500	26.789893	0.000567	20.917864
1701.481220	-3.016000	3.332400	-10.050000	26.814663	0.000566	20.897251
1702.481906	-3.001800	3.330200	-9.996000	26.799518	0.000567	20.912368
1703.481989	-2.981000	3.331600	-9.929900	26.804184	0.000565	20.915163
1704.481645	-3.018700	3.330100	-10.051000	26.815747	0.000563	20.909720
1705.483808	-3.001200	3.329000	-9.988800	26.794600	0.000563	20.885615
1706.483297	-3.014100	3.328500	-10.031000	26.815448	0.000562	20.911790
1707.487505	-3.002000	3.329300	-9.994200	26.822448	0.000564	20.912664
1708.484105	-3.002000	3.329300	-9.993700	26.818722	0.000562	20.901332
1709.484428	-3.011300	3.328000	-10.020000	26.843242	0.000562	20.898485
1710.485819	-3.019000	3.327600	-10.044000	26.861978	0.000561	20.893144
1711.486765	-2.998600	3.328000	-9.979100	26.856569	0.000560	20.902876
1712.486386	-3.013100	3.325700	-10.018000	26.828198	0.000560	20.926505
1713.489516	-2.990000	3.326300	-9.944900	26.832045	0.000558	20.876324
1714.488455	-3.009500	3.326600	-10.010000	26.827823	0.000560	20.918068
1715.487233	-3.014600	3.325600	-10.023000	26.813747	0.000557	20.890167
1716.487861	-3.009300	3.324700	-10.004000	26.834299	0.000560	20.884754
1717.489297	-2.992600	3.324400	-9.947200	26.843133	0.000557	20.907384
1718.487001	-3.005900	3.324200	-9.990000	26.820298	0.000556	20.885848
1719.489436	-3.011200	3.325100	-10.012000	26.806249	0.000557	20.900171
1720.489034	-3.003000	3.323700	-9.980000	26.799795	0.000557	20.902691
1721.490673	-3.007100	3.323500	-9.993500	26.827690	0.000554	20.896599
1722.493155	-2.996100	3.323000	-9.954100	26.812572	0.000553	20.910321
1723.490631	-3.022600	3.321100	-10.037000	26.821779	0.000555	20.890183
1724.491860	-2.995100	3.322700	-9.951100	26.839228	0.000552	20.911992
1725.494451	-3.011000	3.321400	-9.999800	26.850693	0.000555	20.904555
1726.493786	-2.981600	3.321100	-9.900700	26.863552	0.000554	20.897570
1727.493011	-3.030200	3.320500	-10.060000	26.865806	0.000553	20.884665
1728.495073	-3.013500	3.321000	-10.007000	26.842129	0.000552	20.894996
1729.498653	-2.988200	3.321900	-9.925500	26.838527	0.000551	20.899908
1730.495495	-3.017600	3.320000	-10.017000	26.825076	0.000550	20.897290
1731.494847	-3.004400	3.321000	-9.975300	26.823807	0.000549	20.870886
1732.496469	-2.998600	3.319900	-9.954200	26.849543	0.000550	20.898183
1733.493509	-2.972200	3.320200	-9.867400	26.875926	0.000549	20.893418
1734.494966	-3.006300	3.318000	-9.974400	26.884385	0.000548	20.880587
1735.495362	-2.998100	3.319500	-9.950900	26.905407	0.000547	20.895086
1736.495965	-3.020400	3.317800	-10.020000	26.884755	0.000548	20.892338
1737.495176	-3.012000	3.318300	-9.992400	26.871376	0.000549	20.888843
1738.496242	-2.993600	3.316500	-9.927300	26.856188	0.000548	20.876891
1739.497054	-2.989300	3.317100	-9.914300	26.805529	0.000545	20.880483
1740.496894	-3.015700	3.316300	-9.999800	26.773011	0.000546	20.879083
1741.496272	-2.975600	3.318200	-9.871800	26.731932	0.000545	20.880930
1742.499086	-3.024800	3.315800	-10.028000	26.691644	0.000545	20.912968
1743.497355	-3.012200	3.316000	-9.987000	26.682011	0.000541	20.885269
1744.496011	-3.006100	3.315900	-9.967200	26.692113	0.000542	20.889735
1745.500611	-2.993400	3.316300	-9.925100	26.664832	0.000542	20.890757
1746.498494	-2.997000	3.314000	-9.930800	26.679949	0.000541	20.888412
1747.506574	-2.995900	3.313100	-9.925000	26.667684	0.000542	20.879401
1748.503045	-2.995000	3.314400	-9.925700	26.681360	0.000541	20.894096
1749.499369	-2.991400	3.314600	-9.914000	26.720307	0.000540	20.882519
1750.498999	-3.021100	3.312300	-10.006000	26.738575	0.000541	20.905150
1751.504421	-3.012800	3.312800	-9.979500	26.724426	0.000539	20.873384
1752.501309	-3.010100	3.311700	-9.966600	26.763595	0.000540	20.902804
1753.500537	-2.986600	3.312800	-9.893100	26.766198	0.000538	20.883611
1754.503435	-3.004900	3.311800	-9.950400	26.834005	0.000540	20.891096
1755.503169	-2.991500	3.312400	-9.908700	26.870143	0.000537	20.888077
1756.499753	-2.987500	3.312100	-9.894400	26.898732	0.000537	20.862298
1757.502396	-2.996300	3.310800	-9.918700	26.901586	0.000538	20.871806
1758.502618	-2.981700	3.311100	-9.871700	26.899298	0.000536	20.871401
1759.501339	-2.999000	3.310900	-9.928500	26.888206	0.000534	20.879687
1760.504665	-3.018100	3.309600	-9.987700	26.865569	0.000535	20.868306
1761.501087	-3.009700	3.308500	-9.956600	26.857525	0.000532	20.866382
1762.501231	-3.003700	3.308500	-9.937000	26.861893	0.000533	20.879308
1763.508542	-2.967200	3.309200	-9.817800	26.844591	0.000533	20.860490
1764.502347	-3.002700	3.308000	-9.931200	26.866557	0.000531	20.858869
1765.502265	-3.008200	3.308400	-9.950900	26.874845	0.000532	20.869573
1766.503164	-2.996500	3.306800	-9.908200	26.853050	0.000532	20.867572
1767.502878	-3.004500	3.307600	-9.935200	26.816839	0.000532	20.874312
1768.503231	-2.987000	3.306100	-9.873900	26.794821	0.000530	20.881570
1769.503763	-2.994300	3.306800	-9.899700	26.795241	0.000531	20.858760
1770.504709	-2.983800	3.307500	-9.866800	26.821028	0.000529	20.885160
1771.503582	-3.030000	3.305000	-10.013000	26.845446	0.000528	20.888849
1772.503774	-3.018500	3.303900	-9.971800	26.833484	0.000528	20.871607
1773.508712	-2.997200	3.305900	-9.907700	26.832116	0.000527	20.860749
1774.502813	-2.993800	3.305000	-9.892500	26.864230	0.000527	20.886998
1775.504014	-3.002300	3.304300	-9.919000	26.893242	0.000526	20.864364
1776.506370	-2.986300	3.304700	-9.867100	26.909519	0.000526	20.857498
1777.504234	-3.000700	3.302000	-9.907300	26.905747	0.000524	20.875515
1778.508909	-3.011400	3.302700	-9.945000	26.871721	0.000524	20.883974
1779.508039	-3.008700	3.302200	-9.934900	26.838287	0.000524	20.856997
1780.507094	-2.995800	3.302700	-9.893100	26.780776	0.000523	20.879303
1781.506372	-2.984900	3.301900	-9.854900	26.781618	0.000524	20.867823
1782.508386	-3.003600	3.300700	-9.913400	26.769382	0.000522	20.879701
1783.508949	-2.999800	3.301300	-9.902400	26.777419	0.000522	20.885410
1784.508327	-3.007600	3.299600	-9.922600	26.790797	0.000521	20.888903
1785.510639	-3.029100	3.298100	-9.988600	26.829862	0.000521	20.877922
1786.510151	-3.018700	3.300200	-9.960300	26.849789	0.000518	20.864768
1787.519113	-3.009500	3.300700	-9.933000	26.849095	0.000520	20.868338
1788.507617	-3.018400	3.299800	-9.959900	26.835119	0.000516	20.871354
1789.512208	-3.008800	3.298900	-9.924700	26.806970	0.000516	20.877664
1790.516169	-3.003500	3.298400	-9.906000	26.799077	0.000516	20.870677
1791.512241	-2.979400	3.298100	-9.824900	26.818659	0.000515	20.882304
1792.513914	-2.984500	3.298800	-9.844500	26.809274	0.000514	20.853430
1793.517332	-3.011400	3.298000	-9.930700	26.868591	0.000512	20.867552
1794.513937	-2.988300	3.297800	-9.853400	26.904330	0.000513	20.857496
1795.516793	-2.993600	3.296700	-9.867800	26.936395	0.000513	20.845169
1796.514432	-3.036600	3.295000	-10.004000	26.948753	0.000513	20.869923
1797.514312	-3.001700	3.294600	-9.887900	26.929865	0.000511	20.855198
1798.514727	-2.978400	3.295100	-9.812900	26.920087	0.000511	20.856270
1799.513672	-2.996600	3.295500	-9.874500	26.911475	0.000509	20.876059
1800.514559	-3.046600	3.292800	-10.031000	26.951309	0.000509	20.862536
1801.515393	-2.996400	3.294900	-9.870300	26.949941	0.000510	20.855471
1802.513480	-3.014500	3.292800	-9.925100	26.985008	0.000507	20.849484
1803.514394	-2.995100	3.295300	-9.868300	26.979027	0.000505	20.862908
1804.513656	-3.031200	3.292900	-9.980300	26.971164	0.000508	20.836510
1805.514360	-3.006500	3.292600	-9.897400	26.919941	0.000507	20.868925
1806.514506	-3.003700	3.293000	-9.890500	26.918578	0.000505	20.846219
1807.514235	-3.001200	3.292200	-9.879800	26.876338	0.000504	20.846894
1808.515893	-2.998800	3.291500	-9.869400	26.832260	0.000503	20.847618
1809.514466	-3.017800	3.290700	-9.930000	26.824666	0.000504	20.851836
1810.514167	-2.991500	3.290900	-9.844000	26.835040	0.000502	20.862741
1811.512704	-3.004100	3.290300	-9.883000	26.846459	0.000503	20.830127
1812.516329	-3.002200	3.290400	-9.877300	26.888675	0.000500	20.845074
1813.515107	-2.980700	3.289400	-9.803100	26.908459	0.000501	20.847424
1814.514028	-2.988000	3.289600	-9.828500	26.880885	0.000499	20.871853
1815.525696	-2.987200	3.290100	-9.827200	26.889550	0.000501	20.836946
1816.514969	-3.001900	3.288800	-9.872200	26.898831	0.000499	20.852915
1817.513038	-3.010200	3.287500	-9.895100	26.922136	0.000498	20.853116
1818.517875	-3.015200	3.288000	-9.913300	26.922832	0.000498	20.828687
1819.513851	-3.011300	3.287600	-9.897500	26.926432	0.000498	20.834677
1820.514549	-2.980400	3.287000	-9.796100	26.968548	0.000497	20.813966
1821.521338	-2.998700	3.286600	-9.854700	26.929461	0.000497	20.863325
1822.514093	-3.007100	3.285500	-9.879000	26.915142	0.000497	20.833755
1823.514615	-2.994900	3.286600	-9.841800	26.943607	0.000495	20.839145
1824.520854	-2.996600	3.285300	-9.843400	26.953089	0.000496	20.840619
1825.517852	-2.993800	3.286100	-9.835800	26.889604	0.000497	20.837948
1826.514629	-2.984000	3.286900	-9.807100	26.886602	0.000495	20.852947
1827.517229	-3.014100	3.285000	-9.900600	26.872305	0.000495	20.834778
1828.519385	-3.029800	3.284300	-9.950600	26.861111	0.000494	20.821626
1829.526025	-2.996800	3.283400	-9.837400	26.861931	0.000494	20.839045
1830.524985	-2.991500	3.284400	-9.824000	26.887792	0.000494	20.838023
1831.521488	-2.999900	3.284000	-9.851200	26.890570	0.000492	20.834178
1832.516704	-3.008100	3.284000	-9.877000	26.878880	0.000490	20.831432
1833.517083	-3.001300	3.284300	-9.856400	26.890249	0.000489	20.815837
1834.516561	-2.983500	3.282600	-9.792300	26.889901	0.000491	20.821177
1835.522735	-3.015500	3.280800	-9.892400	26.910224	0.000492	20.821225
1836.519282	-3.006800	3.280100	-9.861700	26.898337	0.000489	20.829660
1837.521417	-3.006400	3.281100	-9.863800	26.906973	0.000490	20.822223
1838.520169	-2.996400	3.280500	-9.828600	26.959162	0.000487	20.811640
1839.518942	-3.005000	3.279400	-9.853600	26.999140	0.000489	20.834297
1840.519686	-2.980500	3.280200	-9.775200	27.028125	0.000487	20.813661
1841.518414	-3.007000	3.278800	-9.858400	27.061156	0.000485	20.816533
1842.518390	-3.015500	3.279900	-9.889400	27.066414	0.000486	20.824666
1843.521515	-2.983600	3.279900	-9.785000	27.066439	0.000485	20.825639
1844.519132	-3.005100	3.279100	-9.853000	27.073459	0.000484	20.830802
1845.522750	-3.003500	3.278700	-9.847200	26.987103	0.000483	20.811762
1846.522084	-2.992900	3.277700	-9.808500	26.973256	0.000481	20.841933
1847.522042	-2.990400	3.277800	-9.800800	26.993953	0.000479	20.827659
1848.521342	-2.961000	3.279700	-9.710300	27.037851	0.000480	20.825338
1849.522614	-3.030700	3.275900	-9.926900	27.055795	0.000480	20.817779
1850.521589	-2.991200	3.277100	-9.800200	27.069986	0.000479	20.811663
1851.521530	-3.010300	3.276200	-9.861800	27.103933	0.000477	20.808820
1852.523844	-3.027500	3.273500	-9.909000	27.120758	0.000478	20.826689
1853.521859	-2.981100	3.275500	-9.763600	27.120111	0.000477	20.811340
1854.523418	-2.999600	3.276100	-9.826300	27.128970	0.000477	20.815034
1855.523842	-3.012700	3.273000	-9.859300	27.091653	0.000477	20.807375
1856.522587	-3.009600	3.274000	-9.852700	27.046888	0.000476	20.814038
1857.521909	-3.010200	3.273200	-9.851500	27.023462	0.000475	20.809445
1858.523695	-3.003800	3.273100	-9.830700	27.030983	0.000475	20.819854
1859.521884	-3.005700	3.271700	-9.832600	27.002894	0.000474	20.794925
1860.522702	-2.982500	3.273300	-9.761300	27.000711	0.000473	20.806955
1861.524874	-2.994100	3.272500	-9.796200	26.991382	0.000473	20.820807
1862.524248	-2.987300	3.272300	-9.774800	26.953859	0.000471	20.793505
1863.523998	-3.002800	3.270600	-9.819800	26.921126	0.000471	20.797099
1864.524723	-2.994200	3.270800	-9.792500	26.918099	0.000471	20.786943
1865.523481	-2.992900	3.271100	-9.789200	26.937483	0.000468	20.801220
1866.524323	-3.009600	3.270600	-9.840500	26.953095	0.000466	20.802694
1867.524521	-2.997000	3.270400	-9.800200	26.967589	0.000470	20.800199
1868.524582	-3.008100	3.269000	-9.831800	26.951557	0.000468	20.802096
1869.524723	-2.990000	3.270000	-9.776000	26.955902	0.000467	20.803146
1870.529519	-2.958600	3.270000	-9.673200	26.943667	0.000467	20.801748
1871.524688	-3.009400	3.268200	-9.834500	26.939996	0.000467	20.808488
1872.524604	-2.997800	3.267800	-9.795100	26.968860	0.000466	20.819969
1873.526180	-2.999700	3.268400	-9.803600	27.012238	0.000464	20.796262
1874.526554	-2.978700	3.267800	-9.731700	27.023976	0.000466	20.796212
1875.528311	-2.976400	3.267800	-9.725800	27.068394	0.000463	20.785880
1876.527489	-3.012900	3.265700	-9.837900	27.090256	0.000462	20.800281
1877.527308	-2.995500	3.266700	-9.784200	27.117576	0.000464	20.795040
1878.534209	-2.996300	3.265400	-9.783400	27.137900	0.000463	20.801256
1879.528357	-3.007500	3.263900	-9.814100	27.159263	0.000463	20.792396
1880.528009	-2.985900	3.266300	-9.751500	27.196554	0.000462	20.788178
1881.527721	-2.982100	3.264600	-9.733800	27.223077	0.000458	20.785458
1882.528925	-2.993000	3.264200	-9.768600	27.177103	0.000462	20.783787
1883.528162	-3.016100	3.264400	-9.844600	27.130233	0.000459	20.777424
1884.527759	-2.992000	3.264800	-9.766800	27.076016	0.000461	20.800658
1885.527890	-3.021700	3.261700	-9.854500	27.030875	0.000458	20.767114
1886.527220	-3.008600	3.262900	-9.816200	27.001942	0.000458	20.800132
1887.528027	-3.011100	3.260900	-9.817700	27.040653	0.000460	20.792595
1888.528099	-2.997700	3.261400	-9.774500	27.053581	0.000457	20.783310
1889.530278	-3.015600	3.262500	-9.838000	27.088294	0.000456	20.784557
1890.530663	-2.993300	3.262600	-9.764400	27.072837	0.000456	20.785607
1891.529875	-3.006100	3.261200	-9.803000	27.089015	0.000455	20.799032
1892.529819	-2.990100	3.261500	-9.750700	27.087154	0.000455	20.779616
1893.530657	-3.019800	3.260800	-9.844400	27.060974	0.000453	20.793116
1894.530198	-2.998400	3.259900	-9.773700	27.058466	0.000453	20.805767
1895.531653	-2.974300	3.261400	-9.699500	27.059658	0.000452	20.769982
1896.530683	-3.010000	3.259500	-9.808700	27.085863	0.000452	20.777844
1897.530258	-2.987400	3.258100	-9.731600	27.113701	0.000453	20.783556
1898.532105	-2.991900	3.257500	-9.745100	27.152110	0.000454	20.778564
1899.531515	-2.993400	3.259600	-9.756100	27.177666	0.000451	20.781983
1900.532288	-2.982300	3.258800	-9.717000	27.180122	0.000449	20.805316
1901.532244	-3.002500	3.257100	-9.778200	27.185256	0.000452	20.785349
1902.533134	-3.002700	3.255000	-9.772700	27.185133	0.000448	20.795656
1903.532740	-2.983500	3.256200	-9.712700	27.174238	0.000448	20.786121
1904.533573	-3.023200	3.255100	-9.840000	27.151237	0.000445	20.789540
1905.533651	-3.005000	3.256300	-9.783700	27.138607	0.000447	20.786794
1906.533622	-2.999300	3.254500	-9.759000	27.143198	0.000446	20.786196
1907.533660	-2.988300	3.253700	-9.722300	27.188974	0.000445	20.775338
1908.543569	-2.985800	3.254800	-9.716900	27.215099	0.000443	20.804460
1909.534418	-2.991500	3.254500	-9.734700	27.247203	0.000444	20.810674
1910.534596	-2.987700	3.254000	-9.720900	27.259980	0.000442	20.780852
1911.534471	-2.999700	3.253500	-9.758200	27.268734	0.000443	20.801985
1912.535201	-3.014100	3.252100	-9.800500	27.257572	0.000442	20.795024
1913.535126	-2.995700	3.253200	-9.744200	27.283123	0.000440	20.783742
1914.534579	-3.013400	3.251600	-9.797900	27.278310	0.000438	20.790755
1915.534103	-3.008000	3.251000	-9.778300	27.265210	0.000437	20.777104
1916.535780	-3.035300	3.250000	-9.862700	27.220599	0.000435	20.796716
1917.534565	-3.006800	3.251200	-9.775300	27.202685	0.000438	20.777749
1918.536628	-2.981700	3.250900	-9.692200	27.180181	0.000437	20.810590
1919.537658	-3.001700	3.251100	-9.758100	27.205810	0.000434	20.808393
1920.535686	-3.016900	3.249200	-9.802100	27.199581	0.000436	20.797860
1921.537794	-3.036500	3.249100	-9.864300	27.218114	0.000434	20.797535
1922.543490	-2.986100	3.249100	-9.701500	27.190696	0.000435	20.782286
1923.536656	-3.014700	3.247400	-9.789200	27.162065	0.000433	20.800904
1924.536339	-2.989000	3.249500	-9.710400	27.159184	0.000432	20.789947
1925.540190	-3.010700	3.245700	-9.771100	27.136455	0.000433	20.800751
1926.537015	-3.015500	3.246600	-9.788400	27.105413	0.000433	20.799403
1927.538833	-3.000700	3.247800	-9.744500	27.074443	0.000433	20.797179
1928.540599	-2.985400	3.247500	-9.693800	27.120100	0.000431	20.808958
1929.539639	-3.005800	3.246100	-9.756000	27.122507	0.000431	20.814698
1930.541039	-3.012500	3.245300	-9.775100	27.154039	0.000433	20.806583
1931.543311	-3.005000	3.246500	-9.755200	27.171558	0.000428	20.808556
1932.540857	-3.017100	3.245100	-9.789100	27.192770	0.000429	20.786269
1933.541382	-2.986100	3.244600	-9.687600	27.215744	0.000428	20.803686
1934.544122	-3.024600	3.243100	-9.808500	27.184233	0.000430	20.793804
1935.541452	-3.007000	3.243500	-9.752100	27.137636	0.000427	20.808103
1936.541791	-3.002300	3.244300	-9.739800	27.175052	0.000426	20.796423
1937.545602	-3.000600	3.243200	-9.730700	27.202493	0.000426	20.810747
1938.541358	-2.991300	3.243900	-9.701700	27.187753	0.000424	20.820577
1939.540122	-2.955300	3.244400	-9.587000	27.261936	0.000423	20.793725
1940.546238	-2.981400	3.243900	-9.669700	27.296717	0.000422	20.801210
1941.544135	-3.030300	3.240600	-9.819000	27.325567	0.000422	20.820747
1942.543135	-3.014300	3.240600	-9.766500	27.345763	0.000420	20.813562
1943.545927	-3.022700	3.241400	-9.797100	27.391927	0.000420	20.811639
1944.544589	-3.006800	3.241400	-9.745300	27.414079	0.000420	20.809268
1945.543281	-3.011000	3.239000	-9.751400	27.393388	0.000417	20.792720
1946.547312	-3.016500	3.239200	-9.769700	27.348686	0.000417	20.804174
1947.544532	-2.999600	3.238700	-9.713900	27.335611	0.000418	20.812359
1948.544756	-3.000100	3.239300	-9.717100	27.322533	0.000417	20.812005
1949.548415	-2.979900	3.238600	-9.649000	27.311121	0.000415	20.801474
1950.545142	-2.997000	3.239100	-9.706100	27.321242	0.000416	20.797430
1951.547968	-2.996500	3.237100	-9.698200	27.283459	0.000413	20.825331
1952.545537	-2.995300	3.238300	-9.698700	27.293703	0.000415	20.793436
1953.548863	-2.988600	3.236900	-9.672700	27.298540	0.000413	20.813001
1954.547158	-3.008100	3.235700	-9.731900	27.358822	0.000412	20.804414
1955.549225	-3.000100	3.236900	-9.710600	27.389582	0.000411	20.811651
1956.547985	-3.000600	3.234500	-9.704400	27.379635	0.000412	20.806860
1957.547111	-2.996100	3.235000	-9.690200	27.348947	0.000410	20.801118
1958.549709	-2.996200	3.234300	-9.688900	27.358522	0.000410	20.801267
1959.548148	-2.983300	3.234200	-9.645900	27.377001	0.000408	20.829813
1960.548084	-2.973300	3.234800	-9.617500	27.365938	0.000408	20.817262
1961.551692	-3.000500	3.232400	-9.698000	27.395975	0.000407	20.809073
1962.548226	-3.015000	3.232200	-9.743600	27.403913	0.000410	20.811843
1963.561563	-3.015100	3.232500	-9.745800	27.417382	0.000405	20.825867
1964.548885	-3.006900	3.232300	-9.718100	27.450571	0.000407	20.827014
1965.546945	-3.031100	3.230400	-9.790300	27.494076	0.000405	20.834273
1966.546989	-3.003600	3.230400	-9.702200	27.527139	0.000405	20.833873
1967.558088	-3.007300	3.231900	-9.717200	27.522250	0.000402	20.818522
1968.552092	-3.002800	3.229600	-9.697400	27.511731	0.000402	20.815052
1969.548705	-3.023300	3.228300	-9.759000	27.483553	0.000403	20.816574
1970.551958	-3.008100	3.229600	-9.714100	27.491242	0.000399	20.826680
1971.550567	-3.001700	3.229500	-9.692300	27.471421	0.000400	20.847515
1972.549740	-3.006600	3.228500	-9.705700	27.519813	0.000401	20.837407
1973.552384	-3.007900	3.228600	-9.710200	27.497612	0.000398	20.825976
1974.550585	-2.982900	3.229300	-9.630900	27.517802	0.000397	20.816893
1975.552910	-3.013700	3.226400	-9.722800	27.515864	0.000397	20.836279
1976.551808	-3.011400	3.227700	-9.719000	27.525763	0.000397	20.848609
1977.552022	-2.994100	3.226500	-9.659000	27.518440	0.000394	20.840768
1978.552720	-3.023000	3.225500	-9.749700	27.534243	0.000397	20.830589
1979.555955	-3.023700	3.225400	-9.751300	27.539154	0.000395	20.825098
1980.552974	-2.993800	3.224900	-9.653800	27.559539	0.000392	20.821902
1981.556283	-3.002000	3.225600	-9.682300	27.569164	0.000392	20.833008
1982.554165	-3.022600	3.223200	-9.741100	27.578737	0.000390	20.836476
1983.553031	-3.002700	3.223800	-9.679000	27.583894	0.000391	20.821276
1984.553472	-3.019600	3.222900	-9.731100	27.581488	0.000393	20.841615
1985.552890	-3.001000	3.223500	-9.672500	27.601406	0.000391	20.826568
1986.554865	-3.008400	3.223700	-9.696900	27.612240	0.000390	20.851694
1987.553473	-2.986500	3.221600	-9.619800	27.648575	0.000388	20.837995
1988.553582	-3.013700	3.220900	-9.705400	27.648178	0.000386	20.843760
1989.553769	-3.020500	3.220200	-9.725700	27.632601	0.000386	20.841836
1990.553900	-2.987800	3.220900	-9.621700	27.672033	0.000385	20.840737
1991.552637	-2.991800	3.219600	-9.630500	27.664294	0.000387	20.836743
1992.551550	-2.993700	3.219500	-9.636500	27.674663	0.000383	20.828210
1993.554962	-2.981500	3.219400	-9.598200	27.642445	0.000384	20.838465
1994.553857	-2.998500	3.218800	-9.650700	27.640933	0.000382	20.828409
1995.554215	-2.986300	3.219000	-9.611500	27.612287	0.000381	20.846052
1996.552903	-2.991900	3.217600	-9.626300	27.591849	0.000381	20.836393
1997.553929	-2.999800	3.218300	-9.652200	27.600107	0.000379	20.826684
1998.553641	-2.966500	3.218500	-9.546000	27.605095	0.000380	20.836445
1999.554857	-2.987600	3.217200	-9.610600	27.594652	0.000378	20.845851
2000.553421	-3.005300	3.218900	-9.672500	27.603581	0.000377	20.842981
2001.554170	-2.985300	3.217600	-9.604100	27.638252	0.000378	20.823815
2002.554406	-3.004000	3.217700	-9.665100	27.629148	0.000376	20.841681
2003.554369	-3.001200	3.214800	-9.647100	27.574090	0.000374	20.847447
2004.554830	-3.016500	3.214000	-9.691700	27.524433	0.000375	20.842530
2005.557498	-2.997300	3.216800	-9.640600	27.552240	0.000374	20.849644
2006.556325	-3.000800	3.215200	-9.645800	27.567668	0.000373	20.868485
2007.558900	-3.013700	3.214200	-9.685500	27.616901	0.000371	20.848797
2008.555736	-3.008000	3.212700	-9.663500	27.610129	0.000371	20.842457
2009.558891	-2.983300	3.211900	-9.581200	27.605836	0.000371	20.849992
2010.557328	-3.004000	3.212400	-9.647700	27.561070	0.000369	20.838615
2011.558281	-2.989400	3.212900	-9.603600	27.498418	0.000369	20.851917
2012.558167	-2.997000	3.212200	-9.626300	27.466793	0.000370	20.833850
2013.561412	-2.980300	3.211800	-9.571400	27.467065	0.000368	20.864942
2014.559881	-3.006600	3.210400	-9.651500	27.472969	0.000366	20.849072
2015.559479	-3.019900	3.209900	-9.692900	27.551104	0.000368	20.861777
2016.562605	-2.990400	3.210600	-9.600500	27.564844	0.000366	20.865644
2017.559992	-3.016400	3.209400	-9.679700	27.587040	0.000368	20.850520
2018.563278	-2.999100	3.209400	-9.623800	27.614026	0.000364	20.850172
2019.565174	-2.990400	3.209400	-9.596400	27.668909	0.000365	20.851818
2020.564588	-3.007100	3.208900	-9.648300	27.697552	0.000363	20.853139
2021.563797	-3.003700	3.206600	-9.631100	27.724784	0.000363	20.855412
2022.566210	-3.008400	3.207600	-9.648600	27.781719	0.000360	20.866715
2023.564651	-3.012900	3.208500	-9.665800	27.805550	0.000360	20.827637
2024.566739	-3.007800	3.207500	-9.646400	27.796970	0.000360	20.875899
2025.568930	-2.965400	3.207400	-9.510100	27.827917	0.000358	20.853466
2026.566152	-2.970900	3.206800	-9.524900	27.839622	0.000360	20.858607
2027.566935	-3.026200	3.203900	-9.694400	27.864564	0.000358	20.847675
2028.570014	-2.968000	3.205600	-9.512700	27.878574	0.000356	20.866990
2029.568605	-3.004500	3.203600	-9.623500	27.854200	0.000356	20.856683
2030.567191	-3.005200	3.203900	-9.627300	27.867589	0.000355	20.861149
2031.578719	-3.003500	3.203000	-9.619300	27.850877	0.000356	20.859977
2032.567093	-3.034700	3.201700	-9.715200	27.808772	0.000355	20.879240
2033.567095	-3.003100	3.201900	-9.615300	27.808772	0.000353	20.865965
2034.572864	-3.021000	3.201000	-9.669300	27.810804	0.000353	20.870855
2035.569561	-2.982700	3.203000	-9.553100	27.772368	0.000353	20.872951
2036.570835	-2.977800	3.201500	-9.532600	27.736209	0.000351	20.884452
2037.580319	-2.993800	3.200900	-9.581700	27.663522	0.000351	20.881009
2038.570705	-3.011100	3.201300	-9.638100	27.637159	0.000350	20.868706
2039.571797	-3.001200	3.200400	-9.604200	27.625082	0.000351	20.863667
2040.573764	-2.990600	3.200500	-9.569700	27.638672	0.000349	20.869280
2041.571558	-3.022000	3.200100	-9.668300	27.681774	0.000347	20.884201
2042.573711	-3.002000	3.199400	-9.603700	27.689562	0.000349	20.881133
2043.574739	-3.025400	3.196700	-9.669300	27.646283	0.000346	20.879309
2044.575730	-3.005000	3.197000	-9.605300	27.662776	0.000344	20.863189
2045.573906	-2.973100	3.198300	-9.507200	27.668776	0.000344	20.879657
2046.575546	-2.983500	3.197100	-9.536600	27.707687	0.000345	20.883251
2047.575181	-2.993300	3.196800	-9.568000	27.735187	0.000345	20.873940
2048.573844	-3.015600	3.196700	-9.637900	27.763706	0.000343	20.886992
2049.575950	-3.015800	3.194500	-9.633400	27.773995	0.000343	20.880752
2050.576799	-2.971400	3.196400	-9.496900	27.765862	0.000343	20.880154
2051.572847	-3.004900	3.193900	-9.595300	27.773178	0.000342	20.869025
2052.576539	-2.998300	3.194400	-9.577200	27.802437	0.000343	20.884245
2053.575638	-2.995500	3.193900	-9.565900	27.743742	0.000341	20.879704
2054.574696	-2.977200	3.194500	-9.509700	27.710434	0.000341	20.885541
2055.577605	-3.023100	3.191400	-9.647100	27.716910	0.000337	20.872617
2056.576618	-3.007900	3.191800	-9.599900	27.722414	0.000339	20.856820
2057.575994	-3.007900	3.191400	-9.598200	27.761122	0.000338	20.889133
2058.579504	-2.999200	3.190500	-9.568200	27.769901	0.000336	20.878529
2059.579417	-2.998400	3.191400	-9.567900	27.804986	0.000335	20.889655
2060.577197	-3.026000	3.189400	-9.650500	27.790235	0.000336	20.890456
2061.578692	-3.005700	3.191500	-9.590700	27.826212	0.000333	20.883990
2062.581651	-3.008100	3.189400	-9.593200	27.784999	0.000335	20.880446
2063.578236	-2.987800	3.189200	-9.527100	27.758441	0.000332	20.878850
2064.582270	-3.013400	3.189900	-9.611900	27.754447	0.000332	20.865823
2065.581977	-2.995900	3.187900	-9.549000	27.792510	0.000332	20.895117
2066.579699	-2.990200	3.186900	-9.527800	27.809570	0.000329	20.887156
2067.582695	-2.997000	3.188000	-9.553000	27.809001	0.000328	20.876152
2068.581950	-2.993000	3.187900	-9.540900	27.774481	0.000328	20.894516
2069.582258	-3.003800	3.186600	-9.570600	27.777333	0.000328	20.900230
2070.582922	-2.988200	3.184900	-9.516100	27.798284	0.000326	20.883384
2071.580719	-3.004400	3.183300	-9.562400	27.826330	0.000327	20.903073
2072.580858	-2.971500	3.185600	-9.465100	27.850950	0.000323	20.882334
2073.583933	-2.996500	3.183900	-9.538800	27.865333	0.000324	20.895860
2074.581650	-2.977100	3.183700	-9.477500	27.846984	0.000324	20.893514
2075.580066	-3.020000	3.183200	-9.611900	27.867814	0.000322	20.880340
2076.585547	-3.003800	3.181800	-9.556000	27.842048	0.000322	20.899452
2077.585597	-3.016700	3.181900	-9.597800	27.830566	0.000319	20.898802
2078.580892	-2.985000	3.184000	-9.504000	27.830519	0.000322	20.920089
2079.585460	-3.030300	3.181200	-9.639100	27.795578	0.000320	20.909582
2080.581930	-2.989400	3.181100	-9.508700	27.783378	0.000319	20.899676
2081.583967	-3.009900	3.180500	-9.572500	27.773136	0.000317	20.903593
2082.584384	-2.993600	3.179100	-9.515600	27.820102	0.000318	20.896806
2083.585486	-3.011800	3.180200	-9.577100	27.859702	0.000317	20.908684
2084.584260	-2.995400	3.180100	-9.524100	27.893846	0.000314	20.914599
2085.583676	-3.018200	3.176800	-9.587000	27.882961	0.000316	20.901274
2086.587156	-3.010600	3.176200	-9.560800	27.847329	0.000316	20.896707
2087.585584	-3.011500	3.176300	-9.563900	27.841700	0.000315	20.909059
2088.586615	-2.979800	3.177400	-9.467200	27.830443	0.000313	20.906264
2089.589665	-3.013600	3.175700	-9.569900	27.855464	0.000312	20.903471
2090.587903	-3.009400	3.177300	-9.561500	27.860644	0.000313	20.883556
2091.586811	-3.028500	3.174400	-9.612600	27.906019	0.000314	20.898877
2092.589653	-3.018500	3.176400	-9.587100	27.916731	0.000311	20.907761
2093.587996	-3.003200	3.173100	-9.528700	27.945220	0.000313	20.900400
2094.588286	-3.001500	3.173100	-9.523700	27.961831	0.000311	20.909059
2095.589747	-3.004500	3.173100	-9.532900	27.920896	0.000310	20.921909
2096.587022	-3.009100	3.171700	-9.543200	27.917623	0.000309	20.919564
2097.587686	-3.017300	3.171200	-9.568000	27.904581	0.000308	20.914972
2098.589660	-2.985800	3.172500	-9.472300	27.910086	0.000307	20.910556
2099.588067	-3.007300	3.171100	-9.535600	27.901830	0.000307	20.926901
2100.589015	-2.997800	3.172500	-9.509300	27.904828	0.000307	20.914746
2101.592599	-3.008800	3.171200	-9.540900	27.941624	0.000305	20.923806
2102.589914	-2.999000	3.169700	-9.505000	27.991953	0.000305	20.935107
2103.588908	-2.983000	3.168600	-9.451000	28.034099	0.000305	20.911626
2104.592123	-3.026500	3.167600	-9.585900	28.019745	0.000305	20.921833
2105.591292	-3.014200	3.166500	-9.544000	28.047140	0.000303	20.928071
2106.591434	-2.984600	3.166900	-9.451400	28.065907	0.000303	20.900024
2107.594297	-3.013300	3.168200	-9.545700	28.091017	0.000301	20.911550
2108.589770	-3.013700	3.165200	-9.536900	28.103436	0.000302	20.929265
2109.591101	-2.995000	3.167000	-9.484400	28.130061	0.000300	20.917189
2110.594225	-3.017300	3.165300	-9.548600	28.111816	0.000301	20.915891
2111.593662	-3.026700	3.165200	-9.578500	28.062929	0.000299	20.926895
2112.590950	-2.997400	3.165300	-9.486200	28.050904	0.000300	20.926644
2113.595106	-3.003900	3.163100	-9.501500	28.058216	0.000298	20.929263
2114.592470	-3.027400	3.162300	-9.572500	28.044704	0.000297	20.893380
2115.591606	-3.011200	3.162600	-9.522500	28.039969	0.000299	20.920380
2116.594081	-2.991800	3.163000	-9.462500	28.065627	0.000296	20.929611
2117.592589	-3.003100	3.160500	-9.489500	28.046264	0.000296	20.930034
2118.595715	-2.990600	3.161200	-9.452800	28.031240	0.000296	20.922498
2119.599366	-3.011200	3.161000	-9.517800	28.069396	0.000292	20.928189
2120.595650	-2.991800	3.159100	-9.450800	28.075813	0.000293	20.937967
2121.594816	-3.002900	3.158500	-9.484100	28.154743	0.000293	20.942033
2122.597935	-3.003900	3.158200	-9.485800	28.141927	0.000291	20.945252
2123.597625	-3.004300	3.158600	-9.488500	28.123832	0.000289	20.946002
2124.595171	-3.009100	3.157300	-9.499500	28.129087	0.000287	20.942284
2125.597499	-3.027100	3.157000	-9.555800	28.140117	0.000288	20.937742
2126.594780	-3.008200	3.156500	-9.492700	28.135333	0.000288	20.934822
2127.593719	-3.002700	3.155900	-9.475400	28.164189	0.000288	20.936371
2128.596014	-3.018100	3.155900	-9.522900	28.191232	0.000284	20.930881
2129.595972	-2.996400	3.155400	-9.453600	28.149192	0.000286	20.928386
2130.594770	-2.997600	3.155000	-9.456900	28.098595	0.000284	20.945252
2131.597524	-3.013300	3.154000	-9.503100	28.083522	0.000282	20.941460
2132.594998	-3.012200	3.151300	-9.492000	28.092572	0.000282	20.929235
2133.596645	-3.000200	3.153100	-9.458900	28.100905	0.000282	20.941414
2134.597321	-3.006600	3.151800	-9.475100	28.149665	0.000281	20.932181
2135.598398	-2.975100	3.152400	-9.377800	28.164736	0.000281	20.912268
2136.597362	-2.984700	3.150900	-9.403400	28.156234	0.000280	20.952068
2137.597653	-3.005000	3.150100	-9.464200	28.191189	0.000280	20.927044
2138.597018	-3.001100	3.149400	-9.451200	28.190794	0.000278	20.926646
2139.596861	-3.036500	3.147400	-9.555300	28.185290	0.000277	20.923951
2140.598541	-3.027300	3.147100	-9.526800	28.207948	0.000276	20.911202
2141.596879	-3.004600	3.147500	-9.455100	28.220516	0.000276	20.907260
2142.596168	-3.001300	3.146900	-9.443100	28.251946	0.000274	20.933685
2143.597141	-3.003700	3.146600	-9.450200	28.258145	0.000273	20.927598
2144.595867	-3.013700	3.145400	-9.476700	28.204308	0.000274	20.914649
2145.596044	-3.028500	3.145800	-9.524500	28.124636	0.000273	20.920261
2146.597601	-2.977200	3.145400	-9.363200	28.095931	0.000274	20.889945
2147.600935	-3.021200	3.142300	-9.491600	28.099676	0.000271	20.906042
2148.597098	-2.986800	3.144100	-9.389900	28.120672	0.000271	20.906315
2149.599096	-2.983400	3.143000	-9.375900	28.171220	0.000271	20.913580
2150.600677	-2.999400	3.141600	-9.422100	28.226496	0.000269	20.906642
2151.599745	-2.987600	3.142100	-9.386300	28.257283	0.000271	20.905396
2152.600005	-2.986900	3.142000	-9.384000	28.246278	0.000270	20.911385
2153.599647	-2.986000	3.141500	-9.378400	28.260209	0.000269	20.904549
2154.598594	-2.989000	3.140100	-9.384800	28.283114	0.000267	20.908644
2155.600700	-2.975500	3.139800	-9.341300	28.291986	0.000268	20.907619
2156.599410	-3.001700	3.138200	-9.418700	28.277264	0.000268	20.883790
2157.599525	-2.998400	3.138900	-9.411000	28.275182	0.000267	20.901607
2158.599553	-2.982000	3.137700	-9.355800	28.280338	0.000266	20.913435
2159.599582	-2.972800	3.140100	-9.334500	28.255923	0.000266	20.886011
2160.599626	-2.987800	3.137600	-9.372300	28.212522	0.000265	20.896367
2161.600415	-3.007700	3.136700	-9.433100	28.188603	0.000265	20.881297
2162.601378	-3.003000	3.136500	-9.417200	28.153775	0.000264	20.896493
2163.601231	-3.007100	3.135300	-9.425700	28.106576	0.000264	20.894972
2164.601342	-3.002700	3.132800	-9.405700	28.068449	0.000263	20.893574
2165.600655	-3.009600	3.133000	-9.429100	28.084463	0.000263	20.890255
2166.600432	-2.989600	3.133900	-9.368000	28.059573	0.000261	20.883218
2167.601316	-2.994400	3.131800	-9.376300	28.012594	0.000260	20.890930
2168.600522	-3.052400	3.129600	-9.550900	27.986437	0.000260	20.870293
2169.601499	-2.991300	3.130800	-9.363200	28.008279	0.000261	20.892276
2170.602735	-2.985800	3.130300	-9.345600	28.039989	0.000258	20.891479
2171.602831	-2.992200	3.130200	-9.365400	28.037733	0.000258	20.893001
2172.602497	-2.994200	3.128600	-9.366400	28.026874	0.000257	20.879700
2173.605590	-3.003800	3.128500	-9.397100	28.074994	0.000259	20.888309
2174.603833	-2.986500	3.128600	-9.341900	28.092693	0.000259	20.891901
2175.605100	-3.016900	3.125600	-9.426900	28.103403	0.000255	20.876605
2176.606886	-2.998500	3.126300	-9.373800	28.089570	0.000255	20.887810
2177.607553	-2.999700	3.125300	-9.373200	28.074150	0.000254	20.883667
2178.606721	-2.986700	3.124700	-9.331500	28.089396	0.000253	20.857764
2179.608011	-3.010500	3.123900	-9.403500	28.075043	0.000254	20.877928
2180.608037	-2.988700	3.123100	-9.333200	28.052285	0.000254	20.887736
2181.607059	-2.997700	3.121700	-9.355500	28.061928	0.000253	20.854296
2182.606230	-3.014100	3.121100	-9.406700	28.046557	0.000253	20.885763
2183.607066	-3.033300	3.119400	-9.460800	28.034014	0.000253	20.878353
2184.607721	-3.010000	3.120000	-9.390100	28.078712	0.000251	20.898216
2185.606992	-3.009400	3.118600	-9.384000	28.133177	0.000250	20.882396
2186.605934	-3.006900	3.118500	-9.375600	28.177275	0.000249	20.880324
2187.607488	-2.990100	3.117200	-9.318900	28.178986	0.000252	20.875408
2188.608078	-3.003700	3.116400	-9.359800	28.198991	0.000250	20.888435
2189.607590	-3.002800	3.116700	-9.358000	28.207491	0.000248	20.871390
2190.608441	-2.971200	3.116300	-9.257700	28.208707	0.000251	20.856019
2191.609663	-3.017300	3.115000	-9.398100	28.186421	0.000249	20.868195
2192.609796	-3.003700	3.113500	-9.350600	28.148098	0.000250	20.852375
2193.610324	-3.003300	3.113300	-9.349700	28.172392	0.000246	20.874460
2194.611059	-2.997600	3.112700	-9.329900	28.174447	0.000246	20.873210
2195.611351	-3.011700	3.113300	-9.374800	28.197724	0.000246	20.835006
2196.612818	-3.025500	3.111700	-9.413200	28.186867	0.000245	20.852998
2197.612479	-2.995100	3.111500	-9.318100	28.232401	0.000244	20.852373
2198.612304	-3.005200	3.108700	-9.341600	28.279966	0.000242	20.878450
2199.612633	-3.022300	3.108500	-9.393700	28.276994	0.000242	20.866924
2200.610770	-2.982600	3.109300	-9.272500	28.297662	0.000242	20.844112
2201.612972	-3.006900	3.107900	-9.343700	28.357667	0.000244	20.868019
2202.613075	-3.013500	3.107100	-9.362100	28.370258	0.000242	20.858887
2203.612843	-3.002500	3.107800	-9.329100	28.349117	0.000242	20.858936
2204.616072	-3.020700	3.105700	-9.379700	28.312162	0.000240	20.853495
2205.617961	-3.007200	3.104700	-9.335900	28.316476	0.000242	20.851201
2206.614039	-2.996100	3.105500	-9.303200	28.307156	0.000238	20.843714
2207.616219	-3.011700	3.103200	-9.344400	28.306414	0.000238	20.843441
2208.616545	-3.012000	3.100900	-9.338400	28.297018	0.000240	20.861481
2209.615870	-2.990200	3.101500	-9.273100	28.328497	0.000237	20.849555
2210.616306	-2.976900	3.101500	-9.230300	28.316252	0.000237	20.837700
2211.615914	-2.995200	3.099400	-9.282400	28.355238	0.000237	20.842342
2212.615201	-2.958400	3.100900	-9.173100	28.392340	0.000237	20.849828
2213.617297	-2.990000	3.098700	-9.264600	28.426837	0.000235	20.856116
2214.617038	-2.996700	3.097000	-9.279800	28.420369	0.000239	20.845810
2215.613822	-3.001900	3.096900	-9.295500	28.468051	0.000236	20.869168
2216.618120	-2.997200	3.096500	-9.279300	28.494815	0.000233	20.839698
2217.619040	-2.997600	3.095900	-9.279600	28.500934	0.000234	20.829739
2218.616185	-2.999600	3.094100	-9.279400	28.501925	0.000233	20.849702
2219.620253	-3.018600	3.093100	-9.334800	28.495037	0.000237	20.851775
2220.619737	-3.002700	3.093500	-9.288300	28.512038	0.000234	20.839973
2221.617019	-2.958400	3.093800	-9.151700	28.525567	0.000232	20.831312
2222.619969	-2.996900	3.090900	-9.261700	28.547572	0.000232	20.851576
2223.620625	-2.986500	3.089600	-9.225900	28.557360	0.000233	20.855744
2224.616953	-3.018300	3.088800	-9.321900	28.495384	0.000231	20.840745
2225.622094	-3.012600	3.088700	-9.304500	28.474692	0.000233	20.848356
2226.619665	-3.001600	3.089000	-9.270400	28.441560	0.000231	20.847708
2227.615707	-2.987200	3.088200	-9.222600	28.421734	0.000231	20.853348
2228.620153	-2.999600	3.085500	-9.254500	28.397546	0.000231	20.842743
2229.623229	-2.982100	3.087100	-9.204700	28.364658	0.000230	20.839973
2230.617835	-2.989200	3.086200	-9.224200	28.372641	0.000229	20.846114
2231.622189	-2.999500	3.083300	-9.246700	28.375540	0.000228	20.854723
2232.624874	-3.013600	3.082600	-9.287800	28.398540	0.000228	20.839476
2233.618614	-3.014700	3.083000	-9.294100	28.387090	0.000228	20.825577
2234.624835	-3.003600	3.081400	-9.254100	28.378814	0.000228	20.843795
2235.622594	-3.002200	3.081400	-9.249700	28.407589	0.000229	20.824407
2236.621221	-3.004100	3.080000	-9.252200	28.437328	0.000228	20.830171
2237.627211	-2.980000	3.078700	-9.174100	28.426921	0.000227	20.836762
2238.637905	-2.975400	3.078000	-9.156400	28.459160	0.000226	20.844569
2239.622696	-3.003400	3.076900	-9.240200	28.456512	0.000224	20.851385
2240.627477	-2.994500	3.075300	-9.207900	28.428159	0.000226	20.827577
2241.626721	-2.982600	3.075000	-9.170500	28.421841	0.000227	20.840180
2242.624971	-2.989900	3.075300	-9.193900	28.456664	0.000226	20.824038
2243.627738	-3.016200	3.072900	-9.267100	28.483054	0.000225	20.844923
2244.628273	-2.980200	3.074300	-9.160900	28.472525	0.000225	20.823889
2245.627441	-3.029200	3.070600	-9.301000	28.505804	0.000225	20.826583
2246.629003	-2.977700	3.070500	-9.141900	28.482190	0.000223	20.823192
2247.628399	-3.005800	3.069000	-9.223700	28.434114	0.000224	20.837840
2248.627377	-2.988500	3.069000	-9.170500	28.365168	0.000223	20.813934
2249.628884	-2.992600	3.067900	-9.180600	28.337436	0.000223	20.819676
2250.631228	-3.002300	3.066900	-9.206500	28.343334	0.000225	20.836993
2251.629643	-2.994700	3.065900	-9.180800	28.351191	0.000224	20.835896
2252.630795	-2.982300	3.066700	-9.145300	28.420315	0.000224	20.835324
2253.633637	-3.001100	3.065100	-9.198200	28.435208	0.000225	20.819028
2254.628750	-3.003900	3.063100	-9.200200	28.429956	0.000222	20.822274
2255.633210	-3.011500	3.062300	-9.221400	28.471663	0.000224	20.828237
2256.633556	-3.002600	3.062000	-9.192900	28.456820	0.000224	20.823722
2257.628862	-3.001200	3.061900	-9.188500	28.421951	0.000221	20.833179
2258.633580	-2.994100	3.058400	-9.155000	28.350973	0.000223	20.805805
2259.634134	-2.975800	3.059000	-9.101200	28.343463	0.000223	20.829537
2260.631182	-2.991200	3.056500	-9.142200	28.326683	0.000223	20.804108
2261.633093	-2.990600	3.057000	-9.140100	28.351047	0.000221	20.826742
2262.633262	-2.979200	3.056600	-9.105800	28.388869	0.000222	20.823100
2263.629871	-2.977100	3.054700	-9.092300	28.434716	0.000222	20.802412
2264.636485	-2.995100	3.052800	-9.142100	28.445871	0.000222	20.812696
2265.632766	-3.024500	3.051000	-9.227200	28.420642	0.000221	20.826645
2266.632626	-2.999200	3.052400	-9.154100	28.418534	0.000218	20.816936
2267.636579	-2.949800	3.052000	-9.000000	28.376552	0.000219	20.817336
2268.636007	-3.014600	3.048000	-9.186800	28.416801	0.000219	20.809975
2269.632502	-3.016200	3.047300	-9.189500	28.413354	0.000220	20.815988
2270.638788	-3.011700	3.046400	-9.173700	28.449364	0.000218	20.820955
2271.636785	-3.019500	3.045600	-9.195100	28.413132	0.000221	20.821454
2272.632624	-2.977500	3.045300	-9.066200	28.422303	0.000218	20.804137
2273.638469	-3.012300	3.043400	-9.166600	28.457297	0.000218	20.799546
2274.637208	-2.991200	3.042600	-9.099400	28.470902	0.000217	20.796652
2275.635681	-3.004600	3.040900	-9.135700	28.476129	0.000218	20.799544
2276.639161	-3.023100	3.041200	-9.193000	28.496079	0.000215	20.820108
2277.638391	-3.018600	3.038600	-9.170500	28.540511	0.000217	20.817914
2278.635207	-3.002100	3.037900	-9.119100	28.565464	0.000217	20.779982
2279.637013	-3.029400	3.036400	-9.197700	28.604910	0.000217	20.798846
2280.637846	-2.998700	3.036300	-9.104100	28.655064	0.000217	20.822806
2281.636842	-3.031200	3.032800	-9.191900	28.664430	0.000216	20.801894
2282.637866	-2.991900	3.034700	-9.078800	28.642653	0.000218	20.800824
2283.638292	-3.016100	3.031400	-9.142300	28.657570	0.000215	20.812528
2284.637975	-2.996300	3.030800	-9.079400	28.685692	0.000217	20.804818
2285.639917	-2.997500	3.030600	-9.083900	28.684923	0.000215	20.797405
2286.640894	-2.987200	3.028800	-9.045700	28.691018	0.000217	20.832467
2287.637109	-3.011000	3.026900	-9.113500	28.652839	0.000216	20.801600
2288.639036	-3.006000	3.027000	-9.098300	28.589358	0.000216	20.781760
2289.639474	-3.010900	3.025000	-9.107100	28.567084	0.000214	20.788251
2290.637887	-3.007400	3.024100	-9.092900	28.500945	0.000216	20.795138
2291.643728	-2.985300	3.023500	-9.024600	28.474009	0.000217	20.777495
2292.639406	-3.016800	3.022100	-9.116400	28.439538	0.000215	20.806319
2293.648918	-2.994300	3.021300	-9.045800	28.474729	0.000216	20.798134
2294.640113	-2.964100	3.020600	-8.952600	28.494531	0.000216	20.797213
2295.640106	-3.001300	3.018900	-9.059500	28.537672	0.000216	20.802727
2296.638893	-3.005600	3.017700	-9.069100	28.548180	0.000214	20.795765
2297.641218	-2.980500	3.017600	-8.992600	28.558289	0.000216	20.798360
2298.640133	-2.999100	3.014700	-9.040200	28.569862	0.000213	20.796264
2299.640830	-2.991200	3.014300	-9.015700	28.599968	0.000216	20.786282
2300.641195	-2.996600	3.012300	-9.025600	28.617885	0.000214	20.776352
2301.645550	-2.995800	3.012000	-9.022000	28.584459	0.000211	20.782990
2302.640007	-2.992500	3.009400	-9.004500	28.576256	0.000216	20.770935
2303.643790	-3.006500	3.008200	-9.042800	28.579825	0.000214	20.807721
2304.642262	-3.021200	3.006600	-9.082300	28.591767	0.000213	20.760479
2305.640225	-3.005100	3.005600	-9.031700	28.649600	0.000213	20.784112
2306.644603	-2.982600	3.005500	-8.963300	28.673584	0.000213	20.776027
2307.645453	-2.979300	3.003900	-8.948400	28.660775	0.000212	20.774505
2308.644636	-2.980800	3.003000	-8.950600	28.605050	0.000212	20.770538
2309.643886	-2.982700	3.001300	-8.951500	28.588871	0.000214	20.762303
2310.646650	-2.990000	3.001600	-8.974100	28.567586	0.000214	20.773109
2311.644410	-3.013900	2.998500	-9.035300	28.506380	0.000213	20.780222
2312.644769	-2.962400	2.998800	-8.882800	28.495230	0.000212	20.777054
2313.649030	-3.014200	2.994700	-9.025500	28.493719	0.000212	20.790231
2314.642849	-3.012000	2.993400	-9.014300	28.506828	0.000211	20.774035
2315.644107	-3.033200	2.992400	-9.075600	28.543503	0.000211	20.762605
2316.645690	-2.992800	2.991200	-8.950800	28.570290	0.000213	20.769668
2317.644001	-2.984800	2.990800	-8.925400	28.632461	0.000213	20.778704
2318.644732	-3.003100	2.989800	-8.977400	28.696410	0.000213	20.778630
2319.646262	-3.034200	2.986800	-9.060900	28.726289	0.000213	20.770318
2320.644605	-3.009800	2.986900	-8.988300	28.742022	0.000213	20.777157
2321.645420	-2.986500	2.986100	-8.916700	28.703868	0.000212	20.765753
2322.646242	-3.011000	2.982900	-8.980600	28.627605	0.000212	20.768123
2323.644733	-2.989500	2.982700	-8.915900	28.555647	0.000213	20.773888
2324.645686	-2.979700	2.984000	-8.890100	28.572002	0.000211	20.765229
2325.646379	-3.023500	2.978800	-9.004800	28.611152	0.000212	20.769097
2326.644783	-2.992800	2.978200	-8.911900	28.625549	0.000211	20.763208
2327.649658	-2.988500	2.977700	-8.898000	28.666309	0.000211	20.763009
2328.649922	-3.001100	2.975400	-8.928800	28.675253	0.000213	20.772967
2329.651095	-3.000300	2.974400	-8.923400	28.705083	0.000212	20.780253
2330.648644	-2.995900	2.973300	-8.906300	28.669777	0.000210	20.750380
2331.647716	-2.995900	2.970800	-8.898800	28.626961	0.000213	20.765579
2332.646858	-3.007300	2.970000	-8.931300	28.617324	0.000210	20.750656
2333.648272	-3.045400	2.966900	-9.033800	28.626589	0.000209	20.759988
2334.647835	-3.021500	2.967000	-8.964100	28.603324	0.000211	20.761686
2335.648701	-3.015800	2.964600	-8.940100	28.541326	0.000211	20.755197
2336.649646	-2.989700	2.963700	-8.859600	28.488866	0.000213	20.749782
2337.649610	-2.987300	2.963000	-8.850500	28.459871	0.000211	20.758516
2338.649192	-2.987700	2.961300	-8.846400	28.417370	0.000214	20.778781
2339.650628	-3.007500	2.958800	-8.898000	28.435934	0.000212	20.755748
2340.650092	-2.965800	2.960300	-8.778900	28.451519	0.000210	20.753898
2341.650643	-2.999300	2.957700	-8.870600	28.474268	0.000211	20.757841
2342.652863	-2.987900	2.954700	-8.827700	28.467925	0.000211	20.740073
2343.649158	-2.990700	2.954600	-8.835400	28.490649	0.000211	20.760112
2344.649531	-2.998400	2.951900	-8.849600	28.521154	0.000208	20.771393
2345.652930	-2.983100	2.951700	-8.804400	28.562017	0.000211	20.744740
2346.649919	-2.950100	2.951100	-8.703900	28.602752	0.000209	20.734557
2347.649593	-3.025400	2.948300	-8.918200	28.603548	0.000209	20.750532
2348.650662	-3.012000	2.945400	-8.870200	28.601492	0.000210	20.764109
2349.648899	-3.007700	2.943400	-8.850900	28.658801	0.000210	20.745490
2350.651225	-3.001500	2.943100	-8.833000	28.685513	0.000209	20.760541
2351.650909	-3.028200	2.940300	-8.902700	28.706870	0.000210	20.750283
2352.650348	-2.953900	2.940500	-8.685100	28.747550	0.000209	20.753801
2353.651016	-2.986000	2.938800	-8.773700	28.815630	0.000209	20.760266
2354.654697	-2.980600	2.936900	-8.752700	28.817264	0.000211	20.756222
2355.650793	-2.982900	2.934400	-8.752000	28.837777	0.000209	20.762661
2356.653111	-2.983800	2.933400	-8.752000	28.836787	0.000209	20.763560
2357.656790	-3.008500	2.930400	-8.815300	28.846548	0.000209	20.774342
2358.654321	-2.996000	2.930500	-8.778500	28.843750	0.000211	20.757299
2359.654644	-2.983100	2.928700	-8.735200	28.880808	0.000210	20.763336
2360.654348	-3.008000	2.925400	-8.797900	28.856161	0.000208	20.760792
2361.655017	-3.052500	2.923300	-8.921900	28.878777	0.000210	20.766032
2362.653433	-2.996800	2.924200	-8.762600	28.878457	0.000208	20.755278
2363.657090	-3.013900	2.921900	-8.805300	28.896120	0.000207	20.764537
2364.653076	-2.998900	2.918800	-8.752000	28.882124	0.000209	20.762291
2365.652628	-2.976800	2.920300	-8.692600	28.843923	0.000207	20.765533
2366.656537	-3.010900	2.915700	-8.778000	28.822296	0.000210	20.758446
2367.660519	-3.001800	2.915000	-8.749400	28.779117	0.000210	20.774219
2368.656583	-3.001500	2.913100	-8.743600	28.723101	0.000208	20.767581
2369.656395	-2.996700	2.910800	-8.722300	28.688712	0.000209	20.787945
2370.659728	-2.986300	2.908500	-8.684500	28.680906	0.000208	20.760643
2371.657434	-3.020000	2.906500	-8.776200	28.722879	0.000205	20.764038
2372.658862	-3.038800	2.904500	-8.824900	28.788110	0.000205	20.775217
2373.659503	-3.001900	2.904900	-8.718000	28.804882	0.000206	20.751809
2374.656492	-2.995600	2.902000	-8.692500	28.802060	0.000208	20.760821
2375.659487	-3.000300	2.901100	-8.703300	28.772307	0.000205	20.755980
2376.660469	-3.005400	2.898200	-8.710000	28.761875	0.000205	20.763964
2377.657869	-2.990100	2.897800	-8.664100	28.795544	0.000209	20.750464
2378.659413	-3.002000	2.895500	-8.691400	28.818709	0.000207	20.759574
2379.659376	-2.980700	2.893100	-8.623000	28.888493	0.000207	20.751638
2380.657218	-2.968400	2.892200	-8.584600	28.934816	0.000207	20.748993
2381.660451	-3.000900	2.889800	-8.671000	28.972814	0.000206	20.767836
2382.660322	-3.001900	2.887000	-8.665200	29.007985	0.000205	20.768184
2383.658778	-2.983900	2.886800	-8.613200	28.994068	0.000208	20.767913
2384.660052	-3.003000	2.882900	-8.656000	28.995083	0.000207	20.760875
2385.661025	-2.997900	2.882900	-8.641600	28.903137	0.000209	20.775400
2386.657877	-3.003500	2.882100	-8.654900	28.841578	0.000208	20.768861
2387.659808	-2.989600	2.878600	-8.605400	28.770973	0.000208	20.753213
2388.659379	-3.002000	2.877000	-8.635900	28.784326	0.000207	20.762397
2389.659001	-2.982200	2.874200	-8.570700	28.818216	0.000210	20.774251
2390.659392	-2.988300	2.873500	-8.585200	28.840462	0.000210	20.762521
2391.660317	-2.989700	2.871800	-8.584300	28.887751	0.000208	20.752313
2392.658782	-3.014500	2.868200	-8.645000	28.916141	0.000210	20.758154
2393.660156	-3.009800	2.866600	-8.626700	28.922853	0.000208	20.769658
2394.660199	-2.974500	2.866500	-8.524300	28.869568	0.000210	20.772876
2395.658521	-3.018100	2.862200	-8.636800	28.859334	0.000207	20.776791
2396.660412	-2.997700	2.860400	-8.573100	28.815143	0.000207	20.756930
2397.661149	-2.993100	2.859900	-8.559300	28.822672	0.000209	20.783481
2398.660178	-3.002100	2.855600	-8.570700	28.839640	0.000209	20.781607
2399.665757	-2.996000	2.854800	-8.552300	28.882419	0.000205	20.749312
2400.662437	-3.014400	2.853800	-8.601400	28.933797	0.000207	20.760295
2401.663261	-3.015700	2.850500	-8.595300	28.953884	0.000208	20.766308
2402.664385	-2.995000	2.848000	-8.528100	28.967631	0.000206	20.788693
2403.663301	-2.981900	2.848200	-8.491900	28.968348	0.000208	20.769975
2404.664446	-3.019500	2.844100	-8.586600	28.921285	0.000208	20.779458
2405.667772	-2.995500	2.841300	-8.508800	28.910980	0.000206	20.775714
2406.665157	-3.006000	2.839400	-8.534000	28.932529	0.000208	20.779880
2407.664526	-3.003500	2.837700	-8.522000	28.986797	0.000208	20.797097
2408.666525	-2.984400	2.835600	-8.462200	28.990761	0.000208	20.799669
2409.664203	-3.003200	2.832700	-8.504900	28.988357	0.000208	20.795824
2410.665883	-3.009900	2.831300	-8.521100	28.993486	0.000207	20.773965
2411.666683	-2.986600	2.828800	-8.447700	28.990535	0.000208	20.789009
2412.665449	-3.017300	2.827000	-8.528000	28.985954	0.000208	20.754996
2413.666224	-3.015900	2.824200	-8.515400	28.981620	0.000208	20.778131
2414.671617	-3.022000	2.821600	-8.525300	28.963958	0.000207	20.766026
2415.665528	-3.006600	2.820700	-8.479300	29.006016	0.000204	20.779002
2416.665929	-3.011400	2.818600	-8.485900	29.044879	0.000206	20.796821
2417.670087	-3.001100	2.817000	-8.452200	29.065954	0.000208	20.783444
2418.666532	-2.994800	2.812200	-8.420400	29.127054	0.000207	20.789059
2419.666278	-3.003800	2.810700	-8.441600	29.160911	0.000207	20.804209
2420.666814	-2.984500	2.810900	-8.387800	29.175722	0.000205	20.768873
2421.667040	-3.006000	2.805000	-8.430800	29.159078	0.000207	20.783396
2422.666914	-3.040400	2.802200	-8.519200	29.124704	0.000207	20.777681
2423.670290	-3.004600	2.801200	-8.416200	29.108135	0.000205	20.786117
2424.667213	-3.003100	2.798600	-8.403100	29.129904	0.000206	20.791457
2425.668353	-3.017600	2.795100	-8.432800	29.097707	0.000207	20.784144
2426.667043	-3.012200	2.793500	-8.414200	29.103380	0.000207	20.776110
2427.668680	-2.986500	2.792700	-8.338900	29.049089	0.000206	20.783046
2428.668834	-3.015000	2.787500	-8.402600	29.006809	0.000207	20.806828
2429.678701	-2.987400	2.785400	-8.320000	28.953954	0.000206	20.787241
2430.669140	-2.971100	2.783200	-8.267200	28.934828	0.000206	20.773662
2431.670522	-2.990800	2.781700	-8.318300	28.965247	0.000207	20.782972
2432.673105	-3.007800	2.777200	-8.352300	28.993137	0.000206	20.799217
2433.670273	-2.970300	2.776500	-8.244800	29.009337	0.000207	20.779978
2434.671078	-3.011700	2.772000	-8.347100	29.053992	0.000209	20.788461
2435.671691	-2.988000	2.769100	-8.273200	29.014164	0.000208	20.787686
2436.674862	-2.988100	2.766300	-8.265100	29.029421	0.000206	20.794523
2437.671450	-2.994500	2.763300	-8.273600	29.081557	0.000207	20.783518
2438.673885	-3.001100	2.761300	-8.285900	29.122645	0.000207	20.783667
2439.676462	-3.012400	2.758500	-8.308300	29.187306	0.000206	20.795720
2440.672640	-2.984300	2.756000	-8.223800	29.226308	0.000205	20.807522
2441.675104	-2.997400	2.751700	-8.246100	29.185100	0.000206	20.784961
2442.674994	-2.982500	2.747700	-8.193100	29.165980	0.000205	20.802679
2443.671633	-2.995300	2.745700	-8.223500	29.194584	0.000207	20.785510
2444.674270	-2.986500	2.742100	-8.188200	29.216598	0.000207	20.802004
2445.675797	-2.982600	2.739200	-8.169100	29.224124	0.000205	20.805795
2446.673907	-2.979800	2.737700	-8.156400	29.246486	0.000205	20.796088
2447.677128	-2.986200	2.733800	-8.162900	29.224619	0.000206	20.811984
2448.679667	-3.018600	2.728300	-8.235000	29.152328	0.000206	20.801250
2449.673973	-3.028800	2.724700	-8.250900	29.093706	0.000204	20.795759
2450.674878	-3.001200	2.722600	-8.170300	29.104903	0.000204	20.794714
2451.677081	-2.974700	2.719700	-8.088400	29.140762	0.000206	20.799078
2452.674399	-2.995700	2.715900	-8.135400	29.145936	0.000204	20.815671
2453.676655	-2.993500	2.713300	-8.120200	29.204235	0.000205	20.799029
2454.678445	-3.000900	2.709100	-8.128100	29.222560	0.000206	20.814176
2455.676256	-2.991500	2.706600	-8.095200	29.268419	0.000206	20.828622
2456.679480	-3.019800	2.700600	-8.154700	29.316260	0.000206	20.827525
2457.679811	-3.017700	2.698300	-8.141100	29.349018	0.000205	20.825452
2458.675974	-3.004000	2.694800	-8.094400	29.375388	0.000207	20.804615
2459.682780	-2.995300	2.692100	-8.062800	29.390888	0.000206	20.795107
2460.681817	-2.991200	2.688000	-8.039500	29.426417	0.000205	20.817640
2461.678256	-3.019500	2.683500	-8.102100	29.420129	0.000206	20.832639
2462.683202	-2.968800	2.679900	-7.954900	29.378952	0.000203	20.803466
2463.682650	-3.007100	2.675300	-8.043300	29.339186	0.000206	20.792310
2464.679603	-2.971900	2.673300	-7.944000	29.338986	0.000205	20.824351
2465.683311	-3.002200	2.667500	-8.007700	29.331286	0.000206	20.810427
2466.683928	-2.977000	2.664500	-7.931100	29.343046	0.000204	20.832709
2467.680866	-3.015400	2.659700	-8.018600	29.359537	0.000205	20.810450
2468.683197	-3.013200	2.656200	-8.002400	29.332151	0.000206	20.806083
2469.682847	-2.987700	2.653100	-7.925400	29.277330	0.000206	20.816740
2470.682833	-2.960900	2.648900	-7.842100	29.281239	0.000206	20.815938
2471.687775	-2.995800	2.641700	-7.913100	29.311299	0.000206	20.818257
2472.687766	-2.981700	2.640400	-7.871400	29.352131	0.000205	20.817210
2473.681458	-3.016300	2.634700	-7.946300	29.341039	0.000205	20.817411
2474.684386	-2.997900	2.630500	-7.884500	29.370380	0.000206	20.819007
2475.686977	-2.942000	2.626000	-7.724900	29.366663	0.000206	20.812891
2476.684229	-2.982000	2.619600	-7.810500	29.368372	0.000203	20.835001
2477.692117	-2.999800	2.615500	-7.844500	29.406998	0.000205	20.832206
2478.688874	-2.988000	2.610700	-7.799600	29.407392	0.000205	20.808423
2479.686136	-3.002000	2.604700	-7.817700	29.390777	0.000205	20.807323
2480.688289	-3.023900	2.598900	-7.857700	29.417641	0.000205	20.827287
2481.686118	-2.995400	2.596100	-7.775700	29.445768	0.000204	20.841412
2482.685794	-3.003000	2.589000	-7.773600	29.487582	0.000205	20.828558
2483.687641	-3.011700	2.584000	-7.780800	29.524149	0.000205	20.837443
2484.687346	-3.005700	2.578900	-7.750500	29.579133	0.000207	20.818901
2485.686828	-2.981200	2.573600	-7.671200	29.607251	0.000207	20.841083
2486.691810	-3.011300	2.566600	-7.728600	29.622156	0.000207	20.827660
2487.687146	-2.998300	2.563300	-7.684900	29.644013	0.000207	20.841633
2488.688992	-3.011300	2.557300	-7.700000	29.681513	0.000207	20.853360
2489.689134	-3.013200	2.550700	-7.684500	29.654853	0.000206	20.831225
2490.690463	-3.005000	2.544900	-7.646400	29.582594	0.000207	20.850839
2491.691517	-3.013500	2.538900	-7.649400	29.578260	0.000206	20.836039
2492.692975	-2.983800	2.534000	-7.559900	29.596778	0.000206	20.844749
2493.692983	-2.996000	2.527500	-7.571400	29.618114	0.000206	20.851085
2494.691306	-2.981100	2.519500	-7.509300	29.583286	0.000206	20.842528
2495.694475	-2.981800	2.514600	-7.497600	29.490992	0.000207	20.832944
2496.691422	-3.028200	2.506800	-7.590900	29.491512	0.000205	20.860967
2497.693169	-2.990800	2.502800	-7.483300	29.498149	0.000207	20.830200
2498.696180	-2.998300	2.494600	-7.478500	29.556102	0.000208	20.835513
