LabVIEW Measurement	
Writer_Version	2
Reader_Version	2
Separator	Tab
Decimal_Separator	.
Multi_Headings	No
X_Columns	One
Time_Pref	Absolute
Operator	admin
Description	Clolumns are: time, Current, Voltage, Power, Battery Temp, and Chamber Temp
Date	2024/08/16
Time	13:06:06.104549407958984375
***End_of_Header***	
	
Channels	6						
Samples	1	1	1	1	1	1	
Date	2024/09/17	2024/09/17	2024/09/17	2024/09/17	2024/09/17	2024/09/17	
Time	23:05:43.3946161270141601562	23:05:43.4001631736755371094	23:05:43.4091629981994628907	23:05:43.3784623146057128906	23:05:43.3784623146057128906	23:05:43.3784623146057128906	
X_Dimension	Time	Time	Time	Time	Time	Time	
X0	0.0000000000000000E+0	0.0000000000000000E+0	0.0000000000000000E+0	0.0000000000000000E+0	0.0000000000000000E+0	0.0000000000000000E+0	
Delta_X	1.000000	1.000000	1.000000	1.000000	1.000000	1.000000	
***End_of_Header***							
X_Value	Untitled	Untitled 1	Untitled 2	Untitled 3	Untitled 4	Untitled 5	Comment
0.000000	0.024274	4.094100	0.099306	21.038710	0.000972	20.809244
1.000890	-2.990800	3.910000	-11.694000	21.021073	0.000973	20.818631
2.000144	-2.997500	3.901700	-11.694000	21.026514	0.000971	20.815064
3.004038	-3.016500	3.896700	-11.753000	21.025570	0.000971	20.818861
4.000960	-2.995100	3.892100	-11.656000	21.039119	0.000969	20.841895
5.002037	-3.002800	3.888600	-11.676000	21.041393	0.000967	20.829472
6.001654	-2.978600	3.886900	-11.576000	21.049976	0.000967	20.829047
7.002529	-2.992600	3.884500	-11.624000	21.031413	0.000966	20.830395
8.002145	-2.979500	3.882800	-11.568000	21.041672	0.000965	20.835915
9.002174	-2.994900	3.879400	-11.618000	21.033465	0.000965	20.846671
10.003402	-2.994800	3.877300	-11.611000	21.022013	0.000965	20.844226
11.013244	-2.987900	3.876500	-11.581000	21.040229	0.000963	20.818824
12.002577	-3.022800	3.872300	-11.704000	21.056948	0.000963	20.823219
13.003701	-3.009100	3.871600	-11.648000	21.054729	0.000961	20.821000
14.005486	-3.021300	3.869700	-11.691000	21.058497	0.000962	20.824768
15.003976	-3.018300	3.869300	-11.677000	21.035591	0.000961	20.816082
16.008637	-2.980500	3.869000	-11.529000	21.065561	0.000960	20.818084
17.006671	-2.987300	3.867600	-11.552000	21.069078	0.000960	20.820179
18.007006	-2.987700	3.866600	-11.552000	21.094078	0.000960	20.820529
19.009836	-3.001300	3.865700	-11.599000	21.081006	0.000958	20.829739
20.012442	-2.998000	3.863900	-11.583000	21.091888	0.000958	20.840623
21.009665	-2.983900	3.863500	-11.528000	21.097003	0.000959	20.831041
22.008917	-3.010400	3.860400	-11.620000	21.111800	0.000958	20.837307
23.009539	-2.999100	3.861400	-11.580000	21.111655	0.000957	20.818670
24.009453	-2.993800	3.862500	-11.562000	21.130637	0.000957	20.818692
25.010302	-3.013100	3.860500	-11.630000	21.133633	0.000955	20.808887
26.011650	-2.995700	3.859300	-11.560000	21.123353	0.000955	20.832743
27.014147	-3.002200	3.858400	-11.582000	21.139795	0.000957	20.800826
28.009682	-3.023400	3.858100	-11.663000	21.108987	0.000956	20.827856
29.012084	-3.005100	3.857600	-11.592000	21.147655	0.000956	20.817697
30.011773	-3.012700	3.856100	-11.615000	21.129544	0.000956	20.818072
31.013361	-3.003800	3.856400	-11.582000	21.157836	0.000954	20.823139
32.010059	-3.001400	3.855200	-11.570000	21.153074	0.000955	20.811264
33.011515	-3.004200	3.854400	-11.579000	21.192091	0.000954	20.810464
34.013127	-3.030000	3.853300	-11.673000	21.181765	0.000953	20.828110
35.013136	-3.008300	3.852400	-11.588000	21.199229	0.000955	20.785362
36.016149	-3.014500	3.852100	-11.611000	21.179795	0.000953	20.805751
37.015818	-3.015600	3.852100	-11.615000	21.203597	0.000954	20.802534
38.014358	-3.006000	3.852100	-11.579000	21.202175	0.000954	20.810595
39.018670	-3.017800	3.851200	-11.621000	21.208238	0.000954	20.808125
40.015320	-3.005300	3.851500	-11.574000	21.232436	0.000952	20.812891
41.024189	-2.996100	3.850600	-11.536000	21.221308	0.000953	20.814562
42.025279	-2.999600	3.849400	-11.546000	21.235580	0.000954	20.789484
43.015346	-3.001400	3.849600	-11.553000	21.226649	0.000952	20.798568
44.015655	-3.000100	3.848500	-11.545000	21.244663	0.000954	20.801890
45.018635	-3.005100	3.848300	-11.563000	21.244663	0.000954	20.806632
46.018680	-3.009800	3.847700	-11.579000	21.251847	0.000951	20.797697
47.015723	-3.009300	3.847600	-11.578000	21.247733	0.000953	20.795952
48.018662	-3.017000	3.846100	-11.601000	21.271481	0.000954	20.804063
49.015791	-2.990700	3.847800	-11.507000	21.288522	0.000951	20.792661
50.017086	-3.014800	3.846100	-11.594000	21.282859	0.000951	20.793160
51.017034	-2.991300	3.846800	-11.505000	21.286877	0.000951	20.807137
52.016207	-3.000400	3.845400	-11.536000	21.305938	0.000953	20.796334
53.016318	-2.988300	3.846500	-11.492000	21.311901	0.000951	20.807990
54.016836	-2.988400	3.845000	-11.490000	21.324994	0.000952	20.826779
55.017826	-2.997500	3.844200	-11.522000	21.316817	0.000950	20.786830
56.017642	-2.985100	3.843800	-11.473000	21.339941	0.000951	20.808541
57.018794	-2.974600	3.843600	-11.432000	21.353112	0.000952	20.799908
58.019842	-2.979100	3.844400	-11.451000	21.357129	0.000952	20.796815
59.019872	-2.989300	3.843700	-11.490000	21.360599	0.000953	20.778475
60.019818	-2.998400	3.842600	-11.521000	21.367134	0.000950	20.787859
61.021658	-3.012800	3.841600	-11.572000	21.366784	0.000951	20.783715
62.019910	-2.988500	3.842800	-11.483000	21.387339	0.000951	20.792901
63.026143	-2.989500	3.842500	-11.486000	21.373172	0.000952	20.801485
64.021749	-3.003000	3.841500	-11.535000	21.412736	0.000952	20.791284
65.021379	-3.006400	3.840100	-11.544000	21.427377	0.000953	20.806881
66.021362	-3.006100	3.840900	-11.545000	21.415006	0.000952	20.779331
67.023096	-2.991900	3.842500	-11.495000	21.421266	0.000952	20.776585
68.022334	-3.006000	3.840100	-11.541000	21.452245	0.000952	20.765382
69.020686	-2.987700	3.840300	-11.472000	21.434811	0.000953	20.768800
70.024453	-3.002000	3.838900	-11.523000	21.445264	0.000953	20.790639
71.020454	-2.998400	3.839000	-11.510000	21.465242	0.000951	20.770799
72.021752	-3.019600	3.838200	-11.588000	21.459658	0.000953	20.791765
73.025581	-3.006300	3.838500	-11.538000	21.489261	0.000954	20.769228
74.023121	-2.985900	3.839500	-11.463000	21.474673	0.000952	20.796357
75.021490	-2.997000	3.837800	-11.500000	21.503654	0.000954	20.781733
76.026874	-2.995800	3.837700	-11.496000	21.505899	0.000953	20.784454
77.021806	-2.977300	3.838600	-11.428000	21.504856	0.000953	20.793367
78.022056	-3.002200	3.837500	-11.519000	21.498992	0.000951	20.762370
79.025582	-2.995000	3.837300	-11.492000	21.513208	0.000952	20.785604
80.022259	-3.004300	3.836200	-11.524000	21.536480	0.000953	20.780441
81.022927	-2.977900	3.839000	-11.430000	21.503611	0.000953	20.765569
82.024466	-2.975000	3.836600	-11.412000	21.516705	0.000952	20.784786
83.024236	-2.996700	3.834200	-11.490000	21.546505	0.000952	20.764394
84.023283	-2.987400	3.835200	-11.456000	21.556336	0.000954	20.785611
85.023901	-2.968100	3.836600	-11.385000	21.554419	0.000953	20.775632
86.025265	-3.002200	3.834400	-11.510000	21.555911	0.000953	20.751046
87.025451	-3.011900	3.834300	-11.548000	21.583570	0.000954	20.756439
88.026462	-2.996000	3.834800	-11.488000	21.590257	0.000954	20.772613
89.027317	-3.007800	3.833300	-11.529000	21.597566	0.000954	20.765228
90.027581	-3.011600	3.832600	-11.541000	21.617519	0.000955	20.752479
91.030180	-2.983000	3.834400	-11.437000	21.598489	0.000955	20.775635
92.031307	-2.978100	3.833300	-11.415000	21.596349	0.000957	20.744570
93.030436	-3.002700	3.831800	-11.505000	21.632907	0.000955	20.756973
94.030750	-2.992300	3.831200	-11.463000	21.601834	0.000955	20.771870
95.031646	-2.977400	3.832300	-11.408000	21.624029	0.000956	20.765632
96.032925	-2.992400	3.832600	-11.468000	21.596604	0.000954	20.757627
97.030791	-3.006000	3.831700	-11.517000	21.648649	0.000957	20.767510
98.029783	-2.999300	3.830800	-11.489000	21.638172	0.000955	20.759871
99.035300	-2.990400	3.831400	-11.455000	21.675829	0.000957	20.765787
100.038605	-2.985900	3.831400	-11.439000	21.670992	0.000958	20.748144
101.033057	-2.981600	3.831100	-11.421000	21.670592	0.000956	20.767185
102.038465	-3.000700	3.830600	-11.493000	21.683961	0.000956	20.727457
103.034145	-2.998200	3.830200	-11.482000	21.704758	0.000955	20.760599
104.034281	-2.981300	3.830900	-11.419000	21.720166	0.000957	20.750415
105.034829	-2.992500	3.829700	-11.460000	21.711741	0.000958	20.766640
106.032998	-2.993900	3.829600	-11.464000	21.720544	0.000956	20.761700
107.034070	-2.995700	3.828100	-11.467000	21.730268	0.000957	20.752938
108.033675	-3.001600	3.828300	-11.490000	21.751986	0.000957	20.757606
109.039641	-3.006600	3.827900	-11.508000	21.736829	0.000959	20.765670
110.034035	-3.015500	3.827000	-11.540000	21.717132	0.000957	20.761130
111.031896	-2.969900	3.828700	-11.370000	21.744760	0.000957	20.771710
112.034200	-2.977200	3.828100	-11.396000	21.728878	0.000957	20.752496
113.033932	-2.988900	3.827900	-11.440000	21.757707	0.000958	20.756218
114.033270	-2.988300	3.827600	-11.437000	21.792690	0.000959	20.740022
115.035008	-3.003800	3.826300	-11.493000	21.786676	0.000959	20.757712
116.034939	-3.013400	3.824800	-11.524000	21.779100	0.000959	20.761982
117.033608	-3.008700	3.826700	-11.512000	21.813662	0.000960	20.770970
118.037214	-2.996600	3.826400	-11.466000	21.829221	0.000960	20.766154
119.036389	-2.983200	3.825600	-11.410000	21.828078	0.000963	20.748415
120.037448	-3.013000	3.824400	-11.520000	21.846006	0.000960	20.737435
121.039499	-2.994100	3.825800	-11.453000	21.859716	0.000961	20.759219
122.037864	-3.020600	3.823300	-11.548000	21.860094	0.000961	20.745846
123.038040	-3.009900	3.824200	-11.510000	21.834389	0.000961	20.743351
124.042198	-2.991900	3.824300	-11.440000	21.871088	0.000963	20.759696
125.037630	-3.010400	3.824100	-11.511000	21.855660	0.000962	20.745202
126.039039	-2.996400	3.823100	-11.455000	21.869826	0.000963	20.760803
127.042981	-3.006800	3.824500	-11.498000	21.888700	0.000963	20.738917
128.039267	-2.989200	3.823900	-11.429000	21.901066	0.000964	20.758882
129.041782	-2.997400	3.823400	-11.459000	21.866386	0.000966	20.747877
130.041431	-3.005300	3.822900	-11.488000	21.917624	0.000966	20.748903
131.043984	-3.021700	3.822900	-11.550000	21.907029	0.000965	20.733556
132.041505	-2.999600	3.822300	-11.464000	21.918946	0.000964	20.743114
133.041850	-3.006100	3.823300	-11.492000	21.931035	0.000965	20.732930
134.045726	-2.993100	3.822100	-11.438000	21.937547	0.000966	20.756044
135.041453	-3.008200	3.821700	-11.496000	21.948742	0.000965	20.740697
136.043740	-2.998800	3.820900	-11.457000	21.965769	0.000966	20.750630
137.042675	-2.973900	3.821000	-11.361000	21.984790	0.000966	20.752601
138.043333	-3.010600	3.820600	-11.501000	22.009021	0.000966	20.742243
139.046353	-2.979900	3.822700	-11.390000	21.966165	0.000967	20.739646
140.041722	-3.008000	3.821300	-11.493000	21.981301	0.000968	20.734883
141.044127	-3.003800	3.820600	-11.474000	21.977611	0.000969	20.740198
142.042057	-3.008400	3.820300	-11.492000	21.969456	0.000969	20.761433
143.042570	-3.020600	3.818700	-11.534000	21.944878	0.000970	20.755322
144.043446	-2.995100	3.819800	-11.440000	21.962729	0.000968	20.746164
145.044239	-3.002400	3.819500	-11.467000	21.971450	0.000971	20.760110
146.044960	-2.987400	3.818900	-11.407000	22.003960	0.000970	20.725796
147.044963	-3.005500	3.818400	-11.474000	22.003861	0.000970	20.746086
148.046430	-3.001100	3.818800	-11.459000	22.016921	0.000970	20.750626
149.048091	-2.997100	3.819000	-11.445000	22.033298	0.000971	20.736199
150.049545	-2.985800	3.819200	-11.402000	22.025592	0.000973	20.755987
151.047483	-3.016000	3.817300	-11.513000	22.066527	0.000973	20.739593
152.048014	-2.987700	3.818000	-11.405000	22.061688	0.000972	20.732378
153.048990	-2.994000	3.818400	-11.431000	22.076915	0.000972	20.755683
154.051152	-3.000300	3.818000	-11.454000	22.084673	0.000973	20.765347
155.048069	-3.018500	3.816500	-11.519000	22.077466	0.000975	20.740588
156.048365	-3.015300	3.817600	-11.509000	22.096160	0.000976	20.737017
157.049154	-2.999600	3.817700	-11.450000	22.097454	0.000975	20.752538
158.048549	-2.996800	3.816300	-11.436000	22.097252	0.000976	20.756129
159.051172	-2.992300	3.816500	-11.418000	22.095082	0.000977	20.756802
160.053119	-2.988200	3.816100	-11.402000	22.106000	0.000976	20.762516
161.051085	-3.001300	3.815000	-11.449000	22.120781	0.000976	20.748865
162.054870	-3.007800	3.816100	-11.476000	22.140676	0.000975	20.746497
163.053929	-2.976800	3.817400	-11.362000	22.158489	0.000975	20.760539
164.053894	-3.006900	3.814100	-11.467000	22.131572	0.000976	20.755401
165.057051	-2.997400	3.815600	-11.436000	22.138828	0.000979	20.754130
166.051730	-3.013800	3.815700	-11.499000	22.129398	0.000978	20.761285
167.056080	-2.985100	3.815900	-11.389000	22.118781	0.000976	20.750655
168.054742	-2.992000	3.814700	-11.412000	22.153001	0.000979	20.756940
169.051858	-3.004700	3.814000	-11.458000	22.147865	0.000978	20.750850
170.054801	-2.988800	3.813800	-11.397000	22.189442	0.000980	20.757389
171.053885	-2.996600	3.812500	-11.424000	22.184455	0.000980	20.757612
172.053886	-2.986500	3.813400	-11.387000	22.158532	0.000981	20.754417
173.055342	-2.993300	3.813900	-11.414000	22.163713	0.000981	20.742535
174.057633	-3.014100	3.811600	-11.488000	22.167474	0.000981	20.752938
175.055552	-3.030000	3.812100	-11.548000	22.195489	0.000982	20.767238
176.055302	-3.008500	3.810100	-11.461000	22.197582	0.000983	20.748943
177.056481	-3.024600	3.811000	-11.526000	22.197681	0.000983	20.776544
178.055925	-2.984000	3.811400	-11.373000	22.224996	0.000984	20.773073
179.055933	-2.993900	3.811500	-11.410000	22.246380	0.000984	20.757500
180.054378	-3.000800	3.811800	-11.437000	22.257869	0.000985	20.764736
181.062085	-2.993200	3.810600	-11.405000	22.268411	0.000986	20.778611
182.057380	-2.999300	3.811000	-11.429000	22.291265	0.000984	20.754078
183.055390	-3.000500	3.810700	-11.432000	22.278621	0.000988	20.776980
184.060626	-2.989700	3.810600	-11.392000	22.289339	0.000988	20.772539
185.056109	-3.002400	3.809000	-11.435000	22.310945	0.000988	20.771414
186.056385	-2.995100	3.810100	-11.410000	22.305987	0.000986	20.778303
187.058128	-3.006200	3.808500	-11.446000	22.309769	0.000989	20.768339
188.059213	-3.004800	3.809500	-11.446000	22.329505	0.000990	20.763446
189.061712	-3.004600	3.809300	-11.444000	22.319586	0.000989	20.759677
190.060966	-3.015700	3.807900	-11.483000	22.340046	0.000991	20.765940
191.061891	-2.978500	3.809300	-11.345000	22.349788	0.000989	20.766687
192.063059	-2.995600	3.808900	-11.408000	22.367806	0.000990	20.761022
193.061234	-2.995100	3.808700	-11.407000	22.389782	0.000991	20.781132
194.061333	-3.010400	3.806300	-11.457000	22.390531	0.000991	20.778088
195.062379	-2.994100	3.807900	-11.400000	22.392725	0.000990	20.785027
196.060933	-3.005200	3.806800	-11.439000	22.411637	0.000990	20.794482
197.063820	-2.991200	3.807000	-11.386000	22.408322	0.000992	20.769352
198.062758	-2.989400	3.806300	-11.376000	22.415972	0.000993	20.796453
199.061223	-3.004100	3.806600	-11.434000	22.432071	0.000993	20.792186
200.062325	-3.017200	3.806200	-11.483000	22.419262	0.000993	20.769401
201.064161	-3.010600	3.805400	-11.455000	22.442858	0.000995	20.775488
202.063288	-3.007200	3.806100	-11.444000	22.435883	0.000994	20.790314
203.063925	-2.993200	3.804500	-11.386000	22.454872	0.000994	20.772820
204.064317	-2.994800	3.805300	-11.396000	22.440021	0.000996	20.797777
205.063124	-3.008800	3.804500	-11.446000	22.451013	0.000997	20.786025
206.061498	-2.999600	3.804800	-11.411000	22.443084	0.000997	20.773818
207.062200	-2.988800	3.805000	-11.371000	22.463150	0.000998	20.789645
208.064332	-3.032000	3.802000	-11.527000	22.460507	0.000999	20.809758
209.063107	-3.001100	3.805200	-11.419000	22.470026	0.000999	20.791789
210.064179	-3.001400	3.804800	-11.418000	22.451440	0.000997	20.778392
211.065173	-2.998000	3.804000	-11.403000	22.469358	0.000998	20.782585
212.064514	-3.021100	3.802300	-11.487000	22.481841	0.000999	20.803148
213.066311	-3.004900	3.803200	-11.428000	22.487999	0.001000	20.789875
214.067857	-3.000700	3.802000	-11.407000	22.476488	0.000999	20.791623
215.065870	-3.006100	3.802200	-11.428000	22.523688	0.000999	20.803331
216.067338	-2.988700	3.803500	-11.367000	22.514343	0.001001	20.792075
217.066496	-3.000600	3.801700	-11.407000	22.529270	0.001002	20.790430
218.067193	-2.991500	3.801200	-11.371000	22.560244	0.001000	20.783519
219.067324	-2.999700	3.800300	-11.399000	22.573525	0.001002	20.805829
220.067993	-3.008200	3.800600	-11.431000	22.589723	0.001000	20.795500
221.066972	-3.025200	3.799100	-11.492000	22.609133	0.001002	20.765154
222.069636	-3.009600	3.800300	-11.436000	22.578668	0.001005	20.786799
223.067146	-2.997000	3.799700	-11.387000	22.583925	0.001004	20.770253
224.068183	-2.995400	3.800500	-11.383000	22.591327	0.001005	20.779088
225.067365	-2.994400	3.799600	-11.376000	22.581685	0.001004	20.784605
226.070313	-3.006200	3.799100	-11.420000	22.591729	0.001006	20.796561
227.067688	-2.986800	3.799700	-11.348000	22.611192	0.001003	20.802778
228.068361	-3.009400	3.798900	-11.431000	22.612739	0.001008	20.781094
229.072253	-2.996900	3.799200	-11.385000	22.598714	0.001006	20.782219
230.068984	-3.021800	3.797700	-11.474000	22.613318	0.001006	20.784045
231.069603	-2.990500	3.798000	-11.357000	22.600960	0.001007	20.799169
232.075195	-3.002200	3.798800	-11.404000	22.609089	0.001008	20.779809
233.073355	-2.996700	3.796700	-11.376000	22.593668	0.001007	20.801822
234.071854	-3.002400	3.799000	-11.405000	22.608301	0.001010	20.787555
235.074773	-3.017900	3.797500	-11.459000	22.601398	0.001009	20.791072
236.071835	-2.992900	3.798200	-11.367000	22.630653	0.001010	20.810891
237.071256	-2.998400	3.796700	-11.382000	22.670248	0.001010	20.785591
238.073213	-3.020000	3.795700	-11.462000	22.669506	0.001012	20.798598
239.075820	-3.003100	3.796300	-11.399000	22.662207	0.001010	20.778959
240.074901	-3.010000	3.797300	-11.428000	22.687176	0.001010	20.809659
241.074296	-2.991000	3.797100	-11.356000	22.704567	0.001012	20.808587
242.076663	-2.995900	3.795200	-11.369000	22.722162	0.001013	20.814832
243.073964	-2.985800	3.795100	-11.331000	22.707591	0.001012	20.786960
244.074635	-2.992500	3.795800	-11.357000	22.718831	0.001011	20.791581
245.074184	-3.012100	3.795700	-11.432000	22.726733	0.001011	20.795703
246.074847	-3.005700	3.794600	-11.405000	22.725196	0.001013	20.800802
247.083243	-3.007900	3.795100	-11.414000	22.749962	0.001014	20.791471
248.075100	-3.007200	3.794700	-11.411000	22.741795	0.001015	20.803204
249.074314	-3.016900	3.794900	-11.448000	22.785968	0.001015	20.801460
250.074691	-3.013700	3.793400	-11.432000	22.781711	0.001016	20.791506
251.075984	-3.007500	3.792900	-11.406000	22.797910	0.001018	20.824803
252.076157	-2.990600	3.793600	-11.344000	22.786504	0.001015	20.789195
253.075502	-2.960500	3.795400	-11.234000	22.809104	0.001017	20.793817
254.076850	-3.016200	3.792400	-11.438000	22.820018	0.001016	20.794319
255.077049	-2.980400	3.793600	-11.305000	22.813724	0.001017	20.804609
256.076840	-3.000100	3.792900	-11.378000	22.817588	0.001018	20.817015
257.078327	-2.999800	3.792000	-11.373000	22.843797	0.001020	20.798226
258.081122	-3.013600	3.791100	-11.423000	22.832268	0.001020	20.796159
259.080008	-2.996300	3.792700	-11.363000	22.836510	0.001021	20.801831
260.077683	-3.017800	3.791000	-11.440000	22.834769	0.001020	20.818579
261.080353	-2.981900	3.790400	-11.301000	22.825207	0.001021	20.792879
262.082283	-2.972100	3.792500	-11.271000	22.827157	0.001022	20.809531
263.078460	-2.994300	3.791600	-11.352000	22.821227	0.001023	20.791736
264.082402	-3.014200	3.788900	-11.418000	22.818397	0.001023	20.801230
265.081855	-2.997100	3.789500	-11.357000	22.813195	0.001023	20.802656
266.078131	-2.998300	3.789100	-11.360000	22.820400	0.001024	20.828366
267.086972	-2.992800	3.790500	-11.343000	22.836472	0.001024	20.804638
268.078507	-2.994400	3.789100	-11.344000	22.855008	0.001024	20.807561
269.078688	-2.998500	3.789300	-11.362000	22.841763	0.001025	20.816577
270.081967	-3.005400	3.788100	-11.384000	22.877734	0.001028	20.799507
271.079895	-2.981300	3.788500	-11.292000	22.896475	0.001028	20.803584
272.078161	-3.012300	3.786900	-11.406000	22.889503	0.001027	20.810349
273.080527	-2.999300	3.787700	-11.360000	22.903034	0.001029	20.810155
274.079290	-3.023000	3.787000	-11.446000	22.913750	0.001029	20.810459
275.079310	-2.985400	3.787900	-11.308000	22.926581	0.001028	20.825211
276.079937	-2.988100	3.786200	-11.312000	22.969977	0.001030	20.816532
277.081723	-2.993800	3.787200	-11.336000	22.963182	0.001030	20.798818
278.079460	-3.026700	3.785600	-11.457000	22.968087	0.001031	20.828863
279.079786	-3.011700	3.786200	-11.402000	22.982642	0.001030	20.821160
280.080767	-2.991100	3.785400	-11.322000	22.993773	0.001030	20.799597
281.079620	-3.009000	3.785900	-11.391000	22.988526	0.001031	20.814728
282.080405	-3.007600	3.785400	-11.383000	23.009896	0.001030	20.826656
283.082636	-2.974400	3.785500	-11.259000	23.026392	0.001035	20.834649
284.081105	-2.987200	3.785000	-11.305000	23.005697	0.001031	20.812492
285.080947	-3.001600	3.784500	-11.359000	23.015112	0.001033	20.819080
286.079992	-3.002800	3.783600	-11.360000	23.023708	0.001035	20.807779
287.081294	-2.996900	3.784100	-11.340000	23.033572	0.001034	20.806756
288.080082	-2.994800	3.784700	-11.334000	23.069198	0.001038	20.802150
289.082316	-2.999500	3.783600	-11.348000	23.057042	0.001037	20.815574
290.082419	-3.019400	3.782000	-11.418000	23.071094	0.001037	20.809740
291.082167	-2.997800	3.783300	-11.341000	23.085516	0.001037	20.813760
292.082914	-2.984800	3.783100	-11.291000	23.092816	0.001035	20.829134
293.084469	-3.006700	3.783500	-11.374000	23.102057	0.001037	20.822273
294.083458	-3.012200	3.782100	-11.391000	23.094066	0.001036	20.835128
295.088048	-3.020300	3.781100	-11.418000	23.100617	0.001037	20.819407
296.085052	-3.022900	3.781700	-11.430000	23.111253	0.001038	20.828168
297.085192	-2.999600	3.780500	-11.339000	23.101542	0.001039	20.819860
298.087935	-2.975400	3.782100	-11.253000	23.125350	0.001039	20.821431
299.087904	-2.982200	3.780500	-11.273000	23.134348	0.001041	20.836611
300.085310	-2.977100	3.781100	-11.256000	23.136661	0.001040	20.816644
301.084960	-2.992100	3.780800	-11.311000	23.136689	0.001040	20.837061
302.090395	-2.997900	3.779800	-11.330000	23.158678	0.001044	20.826378
303.087739	-3.014400	3.780200	-11.393000	23.138734	0.001041	20.843851
304.088236	-2.980800	3.778600	-11.261000	23.155521	0.001042	20.808991
305.093222	-2.982000	3.778600	-11.266000	23.135874	0.001041	20.831028
306.087962	-2.981600	3.779800	-11.269000	23.130496	0.001043	20.847924
307.089246	-2.992200	3.779600	-11.308000	23.130351	0.001043	20.827865
308.092831	-3.005200	3.779300	-11.356000	23.154035	0.001044	20.829787
309.088665	-2.999900	3.779300	-11.336000	23.132273	0.001043	20.832161
310.091406	-2.995900	3.779100	-11.320000	23.133417	0.001045	20.841842
311.093077	-3.008400	3.777000	-11.361000	23.167419	0.001045	20.809059
312.090790	-3.009900	3.777600	-11.369000	23.177878	0.001044	20.837083
313.090850	-3.021700	3.777000	-11.411000	23.176758	0.001043	20.836910
314.091858	-2.993700	3.777500	-11.308000	23.194244	0.001045	20.823139
315.091289	-2.981300	3.776000	-11.257000	23.205953	0.001047	20.827286
316.095869	-3.005300	3.775200	-11.344000	23.228862	0.001046	20.839338
317.091782	-3.002300	3.776000	-11.336000	23.215297	0.001045	20.858459
318.092281	-3.005200	3.775600	-11.345000	23.234749	0.001048	20.829116
319.092171	-2.996900	3.776600	-11.317000	23.254719	0.001047	20.847707
320.093134	-3.013300	3.774700	-11.373000	23.238315	0.001048	20.863509
321.093018	-2.993400	3.775300	-11.300000	23.234481	0.001049	20.826477
322.090818	-2.974600	3.776000	-11.231000	23.236998	0.001049	20.838957
323.091185	-3.011700	3.773200	-11.362000	23.243132	0.001048	20.835147
324.092125	-2.998900	3.773700	-11.316000	23.238750	0.001049	20.847351
325.093085	-2.992600	3.774000	-11.292000	23.235841	0.001048	20.845384
326.092456	-2.972900	3.775400	-11.222000	23.218137	0.001051	20.839970
327.092288	-2.996900	3.772100	-11.303000	23.219557	0.001051	20.843763
328.093198	-3.004900	3.771800	-11.333000	23.225959	0.001050	20.852075
329.094499	-3.008200	3.772400	-11.346000	23.246813	0.001051	20.848792
330.096074	-3.025700	3.772100	-11.413000	23.254436	0.001052	20.839837
331.096677	-3.030400	3.770100	-11.423000	23.247216	0.001055	20.842084
332.094883	-3.003900	3.770400	-11.325000	23.246496	0.001053	20.848948
333.096116	-3.007100	3.771200	-11.339000	23.250807	0.001051	20.824821
334.098246	-2.996500	3.771600	-11.300000	23.279668	0.001053	20.840467
335.095658	-2.986800	3.770200	-11.260000	23.279347	0.001051	20.845835
336.096695	-2.973200	3.770700	-11.210000	23.288036	0.001054	20.862129
337.096853	-2.994100	3.769100	-11.284000	23.300641	0.001054	20.847261
338.097514	-2.996300	3.770600	-11.296000	23.293297	0.001056	20.834212
339.097534	-3.013500	3.769400	-11.358000	23.305030	0.001055	20.848815
340.097950	-3.006600	3.768800	-11.330000	23.323135	0.001056	20.851314
341.096933	-3.021800	3.768300	-11.386000	23.308822	0.001056	20.848823
342.097925	-3.000400	3.768000	-11.304000	23.270702	0.001057	20.849499
343.099372	-2.994700	3.769700	-11.288000	23.304000	0.001057	20.841146
344.099736	-2.980700	3.768400	-11.231000	23.331017	0.001057	20.852574
345.098526	-2.998300	3.767300	-11.295000	23.328581	0.001056	20.861987
346.097966	-3.015200	3.767000	-11.357000	23.345658	0.001056	20.867722
347.099616	-2.990500	3.766300	-11.262000	23.340737	0.001057	20.872747
348.101494	-2.996500	3.768000	-11.290000	23.329083	0.001058	20.875765
349.102026	-3.024400	3.766600	-11.390000	23.324483	0.001059	20.854087
350.102297	-3.009800	3.766700	-11.336000	23.355757	0.001060	20.868360
351.103323	-3.007800	3.765600	-11.325000	23.345998	0.001061	20.887976
352.101861	-2.998200	3.765800	-11.290000	23.337660	0.001059	20.869188
353.101351	-3.005600	3.765900	-11.317000	23.343563	0.001062	20.851398
354.109303	-3.008400	3.764800	-11.324000	23.364806	0.001062	20.881697
355.101987	-3.011500	3.764400	-11.335000	23.365028	0.001059	20.867696
356.102009	-3.018200	3.763500	-11.359000	23.381096	0.001062	20.871472
357.102417	-2.993100	3.764000	-11.265000	23.393001	0.001060	20.872972
358.101770	-2.984400	3.764900	-11.235000	23.422652	0.001061	20.866182
359.102965	-2.996000	3.763800	-11.274000	23.442973	0.001063	20.871377
360.100055	-2.973600	3.764000	-11.191000	23.474815	0.001062	20.878637
361.106625	-2.998700	3.762700	-11.281000	23.477904	0.001062	20.858027
362.101545	-2.982900	3.763300	-11.225000	23.442228	0.001063	20.863993
363.101210	-2.997200	3.763000	-11.278000	23.462030	0.001065	20.853496
364.104350	-2.996000	3.760500	-11.265000	23.468628	0.001065	20.866746
365.102432	-3.009000	3.760300	-11.312000	23.482946	0.001064	20.852650
366.100498	-2.999600	3.762500	-11.286000	23.467788	0.001064	20.848362
367.101563	-3.004900	3.759800	-11.297000	23.484920	0.001067	20.889240
368.107553	-3.013800	3.760400	-11.333000	23.479618	0.001066	20.836039
369.103911	-2.984000	3.760300	-11.220000	23.473399	0.001064	20.854460
370.101817	-3.000800	3.760300	-11.283000	23.460302	0.001065	20.858401
371.102402	-3.018100	3.759100	-11.344000	23.455127	0.001066	20.865068
372.104864	-3.013200	3.758400	-11.324000	23.484208	0.001068	20.851545
373.102525	-3.000100	3.758100	-11.272000	23.471490	0.001067	20.844960
374.102126	-3.015100	3.757500	-11.327000	23.498831	0.001066	20.857667
375.105579	-2.984200	3.759100	-11.217000	23.502816	0.001067	20.855972
376.105832	-2.987900	3.759000	-11.231000	23.542558	0.001067	20.838437
377.101940	-2.995400	3.758100	-11.256000	23.544174	0.001067	20.834842
378.103444	-3.002100	3.757000	-11.278000	23.580299	0.001068	20.858726
379.102621	-2.991600	3.756700	-11.237000	23.562527	0.001068	20.863195
380.103634	-2.992100	3.758200	-11.243000	23.581899	0.001069	20.831408
381.105057	-2.993000	3.756600	-11.243000	23.612198	0.001068	20.838074
382.106695	-2.998700	3.756000	-11.263000	23.615086	0.001068	20.850451
383.102877	-2.998000	3.755100	-11.256000	23.630554	0.001069	20.826130
384.107532	-2.998000	3.755800	-11.259000	23.621193	0.001070	20.832393
385.103963	-2.987100	3.755700	-11.217000	23.634292	0.001072	20.820869
386.104057	-2.996100	3.757100	-11.255000	23.642007	0.001070	20.850414
387.107364	-3.012600	3.755300	-11.312000	23.623866	0.001070	20.806624
388.104946	-3.010800	3.754600	-11.302000	23.616644	0.001070	20.837315
389.104680	-3.011900	3.752900	-11.302000	23.637084	0.001071	20.824616
390.108637	-3.018000	3.753900	-11.328000	23.655234	0.001072	20.843285
391.106024	-3.006500	3.752900	-11.282000	23.636221	0.001071	20.819957
392.107041	-3.018900	3.753300	-11.330000	23.636620	0.001071	20.827469
393.106427	-2.983700	3.752800	-11.195000	23.633757	0.001073	20.834083
394.107623	-3.012900	3.750700	-11.300000	23.642871	0.001073	20.820460
395.111457	-2.999000	3.753200	-11.255000	23.664031	0.001075	20.808957
396.106844	-2.990400	3.753000	-11.221000	23.620596	0.001074	20.831320
397.109777	-2.982700	3.751700	-11.190000	23.649648	0.001073	20.816824
398.112698	-2.985400	3.751500	-11.198000	23.656916	0.001074	20.843075
399.108740	-2.991200	3.751400	-11.221000	23.690199	0.001075	20.838036
400.110658	-2.984200	3.751000	-11.193000	23.702644	0.001074	20.826805
401.109772	-2.994100	3.750700	-11.229000	23.709121	0.001074	20.829980
402.109034	-3.001000	3.749600	-11.251000	23.682488	0.001074	20.810866
403.111136	-3.002900	3.748800	-11.255000	23.714969	0.001072	20.821619
404.111214	-3.013400	3.748100	-11.293000	23.721717	0.001075	20.844505
405.109890	-2.996600	3.749400	-11.234000	23.739421	0.001075	20.825746
406.111157	-2.995400	3.749300	-11.228000	23.751964	0.001073	20.818407
407.111693	-3.001300	3.747600	-11.246000	23.759752	0.001076	20.804879
408.111346	-2.999700	3.748100	-11.242000	23.780717	0.001076	20.821157
409.110779	-2.983700	3.748300	-11.183000	23.782407	0.001074	20.813843
410.110829	-3.008700	3.747400	-11.274000	23.807894	0.001076	20.822802
411.110759	-3.017000	3.747100	-11.303000	23.803543	0.001076	20.810853
412.111226	-2.990000	3.748800	-11.208000	23.811636	0.001075	20.810907
413.117002	-3.014700	3.746000	-11.292000	23.765189	0.001076	20.818390
414.116101	-2.993900	3.745300	-11.212000	23.748669	0.001077	20.818423
415.113152	-2.977100	3.747000	-11.154000	23.768310	0.001076	20.799709
416.116667	-2.954300	3.747500	-11.070000	23.745758	0.001076	20.820720
417.113761	-3.003100	3.744700	-11.245000	23.771246	0.001078	20.814032
418.115918	-2.993900	3.746500	-11.215000	23.797112	0.001078	20.789706
419.115942	-3.004000	3.744900	-11.249000	23.790545	0.001076	20.821053
420.115391	-2.989300	3.744100	-11.190000	23.816356	0.001078	20.800467
421.115042	-3.002500	3.744800	-11.244000	23.814099	0.001077	20.797255
422.115086	-2.988000	3.744600	-11.187000	23.794632	0.001079	20.803815
423.115059	-3.006300	3.744500	-11.256000	23.762030	0.001078	20.797680
424.114759	-2.989000	3.743800	-11.190000	23.768306	0.001076	20.808239
425.115084	-2.983600	3.743700	-11.169000	23.760595	0.001078	20.794819
426.116059	-2.995600	3.743400	-11.212000	23.739092	0.001079	20.801708
427.115632	-2.983900	3.743300	-11.169000	23.726471	0.001080	20.805176
428.115819	-3.001900	3.741900	-11.231000	23.738475	0.001080	20.802512
429.115418	-3.002600	3.742100	-11.235000	23.762347	0.001077	20.783299
430.121342	-3.026800	3.740900	-11.321000	23.761405	0.001079	20.798002
431.114945	-2.992600	3.741000	-11.193000	23.769671	0.001079	20.787797
432.117054	-2.989800	3.741700	-11.186000	23.782049	0.001079	20.771758
433.114856	-3.007400	3.740700	-11.249000	23.761833	0.001079	20.797956
434.117053	-2.995800	3.739400	-11.202000	23.779713	0.001081	20.777951
435.117858	-2.998900	3.740100	-11.215000	23.786432	0.001079	20.786585
436.116984	-2.995500	3.740600	-11.203000	23.814983	0.001078	20.811418
437.115734	-3.003700	3.738600	-11.228000	23.828454	0.001079	20.786045
438.116719	-3.011800	3.738600	-11.258000	23.824424	0.001080	20.782478
439.117449	-2.980800	3.739700	-11.146000	23.826291	0.001081	20.790514
440.123354	-3.012900	3.737900	-11.261000	23.829704	0.001083	20.771651
441.117489	-3.013400	3.738500	-11.264000	23.825078	0.001080	20.781237
442.120726	-2.994000	3.739500	-11.195000	23.842953	0.001081	20.794893
443.118554	-3.007000	3.737800	-11.238000	23.840716	0.001080	20.778900
444.118261	-2.995300	3.738500	-11.196000	23.839573	0.001082	20.769693
445.122155	-2.991800	3.735400	-11.175000	23.891938	0.001082	20.784268
446.120361	-2.978200	3.736300	-11.125000	23.882683	0.001081	20.786367
447.119401	-2.996700	3.735600	-11.194000	23.906202	0.001081	20.781027
448.121993	-2.990600	3.736700	-11.174000	23.900581	0.001082	20.779184
449.124561	-2.994800	3.735500	-11.185000	23.919500	0.001082	20.786301
450.121568	-2.995000	3.734100	-11.183000	23.921913	0.001081	20.761694
451.121037	-3.010500	3.733500	-11.239000	23.931173	0.001082	20.788997
452.126432	-2.998300	3.733900	-11.194000	23.951957	0.001083	20.779494
453.123267	-2.972000	3.735100	-11.099000	23.966664	0.001081	20.772431
454.124587	-2.985200	3.733700	-11.144000	23.957389	0.001081	20.786837
455.124980	-2.986800	3.735200	-11.156000	23.948602	0.001080	20.767594
456.126172	-3.025300	3.732100	-11.291000	23.929541	0.001084	20.770765
457.126545	-2.978000	3.733000	-11.115000	23.900627	0.001084	20.776385
458.125597	-2.978000	3.731900	-11.113000	23.928825	0.001084	20.781428
459.124629	-3.011400	3.732500	-11.238000	23.936744	0.001082	20.775618
460.126390	-2.984800	3.733000	-11.141000	23.937513	0.001082	20.797252
461.126700	-3.000300	3.732200	-11.196000	23.928682	0.001084	20.760420
462.126810	-3.006600	3.731200	-11.217000	23.957504	0.001084	20.765616
463.127061	-3.025300	3.730500	-11.285000	23.971520	0.001083	20.750273
464.127819	-3.003700	3.729400	-11.201000	23.962409	0.001084	20.763422
465.133182	-3.002700	3.730800	-11.201000	23.965974	0.001081	20.756091
466.127766	-3.010800	3.729000	-11.226000	23.964510	0.001085	20.763633
467.127106	-2.977700	3.729100	-11.102000	23.992608	0.001082	20.777586
468.132140	-2.986600	3.730800	-11.141000	23.978153	0.001085	20.779210
469.129169	-3.007500	3.728800	-11.213000	23.979571	0.001083	20.777313
470.129408	-2.991000	3.729600	-11.154000	23.983752	0.001083	20.797628
471.130129	-2.988600	3.729800	-11.146000	23.962952	0.001085	20.763967
472.129762	-3.000800	3.727900	-11.185000	23.950614	0.001082	20.764870
473.129035	-2.983400	3.728600	-11.123000	23.951486	0.001083	20.778547
474.132542	-3.001400	3.727600	-11.187000	23.979012	0.001084	20.756838
475.129876	-2.980500	3.727600	-11.110000	23.980287	0.001085	20.760013
476.129054	-3.005500	3.727000	-11.201000	23.938403	0.001083	20.750254
477.129792	-2.995900	3.726100	-11.162000	23.917306	0.001085	20.776514
478.130382	-2.993600	3.725700	-11.153000	23.937091	0.001084	20.744671
479.130538	-3.004900	3.726200	-11.196000	23.951231	0.001084	20.751264
480.131193	-2.995500	3.726000	-11.161000	23.976813	0.001085	20.763168
481.131698	-2.993400	3.726900	-11.153000	23.989929	0.001083	20.767786
482.131613	-3.004700	3.724700	-11.191000	24.008545	0.001085	20.774127
483.132578	-3.005400	3.723700	-11.190000	24.002822	0.001085	20.768388
484.132362	-3.010900	3.723700	-11.211000	23.982269	0.001085	20.766269
485.132075	-2.984700	3.723600	-11.113000	23.953431	0.001084	20.759635
486.132640	-3.006200	3.722800	-11.190000	23.945324	0.001085	20.765255
487.135577	-3.006000	3.723200	-11.191000	23.932109	0.001084	20.737778
488.137387	-3.006800	3.723300	-11.195000	23.929000	0.001085	20.739402
489.135554	-3.004200	3.722600	-11.182000	23.960582	0.001083	20.742623
490.137461	-2.993300	3.722400	-11.142000	23.983051	0.001084	20.741922
491.136260	-3.001000	3.721900	-11.168000	23.998835	0.001085	20.749216
492.138577	-2.992900	3.723000	-11.142000	24.002494	0.001085	20.747196
493.138653	-2.995200	3.720900	-11.143000	24.042057	0.001084	20.751785
494.136714	-2.981700	3.722300	-11.098000	24.023322	0.001085	20.754333
495.136829	-2.988000	3.721500	-11.118000	24.015585	0.001086	20.760324
496.138686	-3.023200	3.720000	-11.245000	24.048389	0.001087	20.743435
497.136413	-3.010800	3.720900	-11.202000	24.032762	0.001086	20.739143
498.137759	-3.042500	3.718200	-11.311000	24.047945	0.001084	20.748680
499.137247	-3.004300	3.718300	-11.170000	24.032619	0.001085	20.751802
500.137576	-3.007400	3.718800	-11.182000	24.033983	0.001086	20.756016
501.144934	-2.999200	3.719000	-11.152000	23.994918	0.001085	20.739597
502.138406	-2.977100	3.718400	-11.069000	23.996891	0.001086	20.742051
503.138166	-3.008000	3.718100	-11.182000	24.015035	0.001086	20.755031
504.139118	-2.985000	3.718100	-11.097000	23.991867	0.001087	20.745073
505.138936	-2.991000	3.718000	-11.119000	24.006825	0.001087	20.727830
506.138568	-2.992800	3.717300	-11.124000	24.027205	0.001087	20.732621
507.139634	-2.975700	3.717200	-11.061000	24.051667	0.001086	20.743878
508.137730	-2.998500	3.715400	-11.139000	24.094891	0.001087	20.742657
509.140805	-3.016700	3.716300	-11.210000	24.089691	0.001087	20.728432
510.139511	-2.993900	3.715200	-11.122000	24.109699	0.001086	20.742336
511.139817	-3.011400	3.715600	-11.188000	24.135129	0.001087	20.757884
512.139573	-2.986400	3.715500	-11.094000	24.121370	0.001087	20.721323
513.145005	-3.001900	3.715700	-11.152000	24.144880	0.001085	20.750594
514.139778	-2.976900	3.714700	-11.058000	24.152946	0.001086	20.751572
515.142472	-2.998100	3.713400	-11.132000	24.191908	0.001088	20.739915
516.140941	-2.985100	3.715800	-11.091000	24.210866	0.001086	20.739016
517.139786	-3.007800	3.711700	-11.162000	24.212461	0.001086	20.732555
518.140549	-3.009500	3.711100	-11.167000	24.231497	0.001085	20.734580
519.140666	-2.974600	3.713000	-11.044000	24.260057	0.001087	20.727191
520.141910	-2.983100	3.712400	-11.073000	24.264636	0.001088	20.718982
521.142258	-2.973000	3.712800	-11.036000	24.271623	0.001087	20.750174
522.142712	-3.012200	3.710900	-11.177000	24.259884	0.001087	20.727966
523.143871	-2.999800	3.711700	-11.133000	24.255182	0.001085	20.751700
524.142414	-3.007600	3.709700	-11.156000	24.246751	0.001087	20.750356
525.146431	-3.009100	3.711100	-11.166000	24.250007	0.001088	20.736551
526.146137	-2.995700	3.710800	-11.115000	24.263440	0.001087	20.733430
527.142516	-3.004800	3.710100	-11.148000	24.265207	0.001087	20.753221
528.145296	-2.994000	3.710100	-11.105000	24.294962	0.001087	20.726643
529.147125	-2.990500	3.710900	-11.096000	24.299689	0.001084	20.734704
530.144751	-3.000800	3.709400	-11.131000	24.327527	0.001085	20.747457
531.146753	-3.005700	3.708400	-11.144000	24.347650	0.001086	20.729236
532.146244	-2.991300	3.709700	-11.096000	24.357876	0.001086	20.720054
533.143882	-2.974800	3.709900	-11.034000	24.340733	0.001086	20.736048
534.147435	-2.984700	3.707600	-11.064000	24.338970	0.001085	20.720054
535.144228	-2.998300	3.707800	-11.116000	24.318070	0.001084	20.717105
536.144603	-2.982800	3.707500	-11.058000	24.316454	0.001087	20.724020
537.145833	-3.004300	3.707300	-11.137000	24.314337	0.001085	20.751770
538.147581	-2.994600	3.706700	-11.100000	24.328670	0.001086	20.732007
539.146791	-2.989500	3.707700	-11.083000	24.294834	0.001085	20.715134
540.145846	-3.002400	3.706500	-11.128000	24.294834	0.001084	20.727463
541.146685	-2.996700	3.705300	-11.102000	24.316573	0.001085	20.725562
542.149601	-3.019400	3.704100	-11.183000	24.304185	0.001083	20.726886
543.146959	-3.002400	3.706100	-11.126000	24.309853	0.001083	20.725459
544.147380	-3.003600	3.704400	-11.125000	24.343639	0.001084	20.734221
545.150536	-3.005000	3.705000	-11.132000	24.303166	0.001085	20.731553
546.148941	-3.013700	3.702100	-11.156000	24.315126	0.001085	20.722688
547.150640	-3.000600	3.702700	-11.109000	24.289429	0.001084	20.718247
548.151716	-2.997700	3.704400	-11.103000	24.274204	0.001084	20.722416
549.147543	-3.002600	3.702800	-11.117000	24.254248	0.001083	20.711880
550.151232	-3.008100	3.701400	-11.132000	24.248004	0.001084	20.725533
551.153999	-3.001100	3.701600	-11.108000	24.262008	0.001084	20.719191
552.149290	-2.994600	3.702400	-11.086000	24.290740	0.001086	20.702491
553.149507	-3.008300	3.700900	-11.133000	24.304620	0.001086	20.710726
554.151613	-3.015900	3.700700	-11.160000	24.293305	0.001083	20.729722
555.148765	-2.995600	3.699600	-11.082000	24.297805	0.001082	20.722382
556.151762	-3.002300	3.699600	-11.106000	24.297953	0.001083	20.716366
557.151785	-2.985500	3.699600	-11.045000	24.305167	0.001084	20.692780
558.149086	-3.008000	3.700200	-11.129000	24.347033	0.001083	20.716288
559.151825	-2.985800	3.701300	-11.050000	24.355413	0.001084	20.712366
560.149669	-3.010000	3.700500	-11.137000	24.392757	0.001082	20.728019
561.149076	-2.984700	3.699100	-11.040000	24.413076	0.001084	20.717108
562.149892	-3.004600	3.699000	-11.113000	24.446110	0.001082	20.716110
563.151273	-3.001300	3.698500	-11.099000	24.437303	0.001085	20.694471
564.151535	-2.976700	3.698400	-11.008000	24.441232	0.001084	20.716906
565.151533	-3.011000	3.698200	-11.134000	24.450561	0.001083	20.692599
566.153289	-2.998700	3.697900	-11.087000	24.458271	0.001081	20.724992
567.151021	-2.996800	3.697400	-11.079000	24.440016	0.001083	20.694821
568.151459	-3.017200	3.694900	-11.147000	24.421530	0.001082	20.717054
569.151866	-3.006100	3.695800	-11.109000	24.393270	0.001083	20.720947
570.155290	-2.985900	3.696700	-11.038000	24.392876	0.001082	20.712016
571.155110	-2.995900	3.696000	-11.072000	24.360830	0.001082	20.720172
572.154294	-3.009500	3.694800	-11.119000	24.381508	0.001083	20.724794
573.158652	-2.986700	3.696200	-11.038000	24.383246	0.001083	20.706622
574.158450	-3.014400	3.694100	-11.134000	24.378318	0.001084	20.718275
575.156466	-3.018900	3.694200	-11.150000	24.366379	0.001081	20.720522
576.161774	-3.008600	3.694400	-11.114000	24.367472	0.001082	20.710713
577.159472	-3.002600	3.693100	-11.088000	24.393492	0.001079	20.701254
578.157834	-3.016400	3.692800	-11.138000	24.411428	0.001083	20.732999
579.160592	-3.025900	3.692400	-11.170000	24.421801	0.001082	20.710688
580.160584	-2.998900	3.692600	-11.073000	24.410310	0.001082	20.705323
581.156345	-2.986900	3.692400	-11.028000	24.397750	0.001081	20.707897
582.157494	-3.007000	3.692400	-11.101000	24.404367	0.001081	20.711690
583.156980	-2.995600	3.692100	-11.059000	24.417030	0.001082	20.709220
584.157172	-3.035700	3.689400	-11.199000	24.433099	0.001081	20.722497
585.157179	-2.996400	3.692300	-11.063000	24.477796	0.001082	20.726563
586.159620	-3.012100	3.689900	-11.113000	24.456159	0.001081	20.725718
587.157998	-3.001900	3.690600	-11.077000	24.462997	0.001080	20.706499
588.158717	-2.991700	3.689200	-11.036000	24.475836	0.001079	20.719380
589.159562	-2.981200	3.690000	-11.000000	24.495853	0.001080	20.727610
590.158316	-3.007100	3.688200	-11.090000	24.497670	0.001081	20.720423
591.158288	-2.991100	3.690200	-11.036000	24.512394	0.001080	20.710540
592.161290	-2.984900	3.690300	-11.013000	24.511724	0.001079	20.708919
593.159515	-3.001800	3.688500	-11.071000	24.510754	0.001079	20.732604
594.159655	-2.968300	3.691400	-10.956000	24.533586	0.001079	20.712836
595.160254	-2.993600	3.688100	-11.040000	24.538135	0.001078	20.715978
596.159575	-3.000100	3.687500	-11.062000	24.535251	0.001081	20.732051
597.162590	-3.005400	3.688200	-11.084000	24.538530	0.001079	20.705467
598.159806	-2.995800	3.688100	-11.048000	24.558604	0.001079	20.703323
599.163921	-3.000100	3.686700	-11.060000	24.542713	0.001079	20.746177
600.162089	-2.992200	3.686100	-11.029000	24.530771	0.001080	20.708589
601.161236	-2.991000	3.687200	-11.026000	24.537757	0.001080	20.724134
602.164734	-2.991200	3.685900	-11.024000	24.533455	0.001080	20.734516
603.161370	-2.995400	3.686300	-11.041000	24.491123	0.001080	20.720493
604.161002	-2.965500	3.686800	-10.932000	24.508531	0.001079	20.714724
605.163849	-2.989000	3.685500	-11.015000	24.519174	0.001079	20.711178
606.164557	-2.967400	3.685800	-10.935000	24.525663	0.001080	20.735708
607.167184	-2.992800	3.684200	-11.025000	24.514946	0.001080	20.740602
608.159839	-3.014600	3.682500	-11.099000	24.508925	0.001077	20.724604
609.162829	-2.982200	3.683300	-10.983000	24.504844	0.001078	20.737580
610.162591	-2.980500	3.685000	-10.982000	24.544689	0.001077	20.715916
611.163278	-3.017600	3.681300	-11.107000	24.507109	0.001077	20.713772
612.163134	-3.010600	3.683200	-11.088000	24.528055	0.001077	20.721037
613.164332	-3.012200	3.681300	-11.088000	24.540037	0.001077	20.726896
614.166368	-2.984000	3.683100	-10.988000	24.516260	0.001077	20.713471
615.163037	-3.017900	3.680000	-11.103000	24.508526	0.001076	20.718514
616.163600	-3.007400	3.680900	-11.069000	24.487428	0.001077	20.725321
617.163821	-2.991100	3.680700	-11.008000	24.476287	0.001076	20.715091
618.166323	-3.005300	3.680900	-11.061000	24.445419	0.001075	20.714943
619.164354	-3.015000	3.680000	-11.094000	24.453306	0.001076	20.730442
620.163927	-3.009200	3.678500	-11.068000	24.458747	0.001076	20.721676
621.168088	-2.987000	3.679700	-10.990000	24.488550	0.001079	20.699418
622.166195	-3.004400	3.679300	-11.053000	24.464669	0.001076	20.726669
623.163943	-3.011100	3.679200	-11.078000	24.493498	0.001077	20.730463
624.170554	-2.968600	3.680000	-10.923000	24.492729	0.001076	20.719260
625.166472	-2.997200	3.679000	-11.024000	24.514292	0.001075	20.738050
626.164361	-3.019600	3.676400	-11.100000	24.522696	0.001076	20.723247
627.168853	-2.982300	3.677200	-10.965000	24.574732	0.001076	20.748432
628.167870	-3.009700	3.677100	-11.065000	24.581373	0.001076	20.720006
629.164853	-2.989700	3.677400	-10.993000	24.590425	0.001075	20.723874
630.167964	-2.999100	3.675600	-11.022000	24.626984	0.001074	20.734953
631.165043	-3.020100	3.674500	-11.095000	24.609299	0.001076	20.736173
632.167419	-2.997100	3.675400	-11.015000	24.604598	0.001073	20.739991
633.167085	-2.999000	3.675700	-11.021000	24.639940	0.001073	20.750324
634.166293	-2.995400	3.676100	-11.010000	24.617233	0.001075	20.745084
635.169342	-3.017300	3.674100	-11.084000	24.646728	0.001073	20.731056
636.168277	-3.003100	3.674100	-11.033000	24.617406	0.001073	20.735773
637.168690	-2.984200	3.674600	-10.965000	24.613625	0.001073	20.748576
638.167942	-2.993200	3.673700	-10.995000	24.588876	0.001074	20.728957
639.168141	-3.018200	3.672700	-11.084000	24.560477	0.001072	20.736499
640.168441	-3.004200	3.672500	-11.031000	24.618297	0.001073	20.727184
641.168265	-3.006600	3.673100	-11.043000	24.631109	0.001072	20.737670
642.169018	-3.015900	3.672800	-11.076000	24.623869	0.001073	20.760278
643.170154	-3.016400	3.670900	-11.071000	24.598647	0.001072	20.752039
644.170467	-3.002000	3.672100	-11.023000	24.567093	0.001072	20.736499
645.168985	-3.004600	3.672900	-11.034000	24.571071	0.001070	20.740490
646.169899	-3.022600	3.672100	-11.098000	24.558114	0.001071	20.747879
647.171888	-3.029500	3.671600	-11.122000	24.554925	0.001069	20.738515
648.168833	-3.022500	3.669100	-11.089000	24.572809	0.001072	20.750770
649.174473	-3.013700	3.669000	-11.056000	24.577087	0.001072	20.750794
650.170844	-3.021800	3.668700	-11.085000	24.610765	0.001069	20.742387
651.170474	-3.021700	3.668800	-11.085000	24.626857	0.001071	20.738618
652.172363	-2.980300	3.670100	-10.938000	24.638395	0.001069	20.740239
653.172354	-3.003500	3.669800	-11.021000	24.674578	0.001070	20.768013
654.172032	-2.984000	3.670800	-10.953000	24.708702	0.001071	20.753891
655.173059	-2.968600	3.670100	-10.894000	24.692735	0.001071	20.752567
656.172567	-2.980900	3.670200	-10.940000	24.705616	0.001070	20.754113
657.173113	-2.999800	3.666800	-10.998000	24.699325	0.001071	20.743059
658.172446	-3.006900	3.666500	-11.023000	24.693483	0.001068	20.739093
659.173306	-2.995500	3.667700	-10.985000	24.712679	0.001071	20.731803
660.174153	-2.989800	3.668300	-10.967000	24.694945	0.001070	20.759527
661.174358	-2.985800	3.667000	-10.947000	24.677861	0.001068	20.762772
662.174216	-2.987700	3.667400	-10.956000	24.696461	0.001068	20.754410
663.172780	-2.963900	3.668800	-10.873000	24.694571	0.001069	20.745401
664.175312	-2.998500	3.666800	-10.994000	24.711553	0.001070	20.752010
665.177570	-3.001300	3.665300	-10.999000	24.694247	0.001068	20.749343
666.176742	-2.993400	3.666300	-10.973000	24.739397	0.001068	20.744865
667.176761	-2.990000	3.666700	-10.961000	24.714753	0.001067	20.764231
668.181748	-3.016800	3.664900	-11.055000	24.744718	0.001068	20.759687
669.177788	-3.007500	3.665100	-11.022000	24.718882	0.001068	20.775013
670.177915	-3.004100	3.664300	-11.006000	24.729298	0.001067	20.757016
671.183537	-2.997400	3.665700	-10.987000	24.724721	0.001067	20.759061
672.181324	-3.012900	3.664400	-11.039000	24.687191	0.001066	20.770239
673.180637	-3.040900	3.663800	-11.139000	24.696218	0.001066	20.757960
674.179954	-3.011400	3.662900	-11.029000	24.683908	0.001065	20.751297
675.183953	-3.000700	3.663200	-10.991000	24.715143	0.001066	20.736647
676.180681	-3.017600	3.661900	-11.048000	24.739031	0.001064	20.771999
677.179018	-3.009100	3.663000	-11.020000	24.772228	0.001065	20.761217
678.182318	-2.995700	3.661900	-10.968000	24.799409	0.001066	20.759572
679.178957	-2.995700	3.661600	-10.967000	24.749249	0.001065	20.759019
680.179707	-3.011400	3.660800	-11.023000	24.751508	0.001064	20.761287
681.180865	-2.988400	3.661700	-10.940000	24.741611	0.001066	20.768424
682.178698	-2.987700	3.661000	-10.936000	24.736113	0.001065	20.777132
683.178748	-3.014000	3.660100	-11.030000	24.766180	0.001065	20.766053
684.180851	-2.995200	3.661500	-10.966000	24.783678	0.001062	20.763698
685.185558	-2.988000	3.660700	-10.937000	24.816031	0.001064	20.763925
686.182213	-2.988800	3.659200	-10.936000	24.816529	0.001065	20.753992
687.181110	-2.970400	3.660300	-10.872000	24.828808	0.001064	20.762523
688.182148	-3.006300	3.658700	-10.998000	24.818139	0.001062	20.763669
689.181318	-3.000200	3.657900	-10.974000	24.846560	0.001062	20.778443
690.181133	-3.009900	3.659400	-11.014000	24.878607	0.001063	20.770304
691.183909	-2.980100	3.658300	-10.901000	24.889872	0.001063	20.782558
692.182121	-3.023800	3.657500	-11.058000	24.885242	0.001062	20.777911
693.180878	-2.999100	3.656400	-10.965000	24.889617	0.001061	20.781353
694.183317	-3.008200	3.658400	-11.004000	24.857709	0.001061	20.776830
695.181852	-2.990800	3.657100	-10.936000	24.855470	0.001062	20.792601
696.188457	-2.992000	3.655700	-10.936000	24.867897	0.001060	20.795590
697.182019	-3.002200	3.655600	-10.974000	24.858202	0.001064	20.780170
698.186021	-3.002300	3.656900	-10.978000	24.857253	0.001060	20.769734
699.188459	-3.007500	3.655400	-10.993000	24.851136	0.001061	20.779716
700.183676	-3.015400	3.655700	-11.022000	24.844444	0.001058	20.780112
701.187888	-3.004500	3.656100	-10.983000	24.892780	0.001061	20.794959
702.189579	-2.986000	3.655800	-10.914000	24.867688	0.001059	20.803915
703.185634	-2.996200	3.653900	-10.946000	24.883574	0.001059	20.797099
704.188510	-3.007600	3.654900	-10.992000	24.893889	0.001059	20.795598
705.189519	-3.019200	3.653600	-11.030000	24.897619	0.001061	20.790807
706.186198	-2.989300	3.651800	-10.915000	24.876886	0.001059	20.769524
707.188632	-2.989600	3.652200	-10.918000	24.912584	0.001059	20.789232
708.193578	-3.000400	3.652500	-10.958000	24.916039	0.001060	20.788432
709.192719	-2.989400	3.653000	-10.920000	24.946318	0.001058	20.805073
710.189677	-3.004900	3.652600	-10.975000	24.952858	0.001059	20.802628
711.189391	-2.996400	3.652100	-10.941000	24.918943	0.001056	20.801304
712.189658	-3.001500	3.652000	-10.961000	24.931275	0.001057	20.782388
713.191037	-3.025600	3.651600	-11.048000	24.933337	0.001056	20.791096
714.191740	-3.010100	3.652400	-10.993000	24.894497	0.001057	20.793363
715.190883	-3.009600	3.650000	-10.984000	24.885344	0.001056	20.794134
716.196116	-2.999600	3.651000	-10.950000	24.869006	0.001056	20.801444
717.190650	-2.996500	3.649100	-10.933000	24.851402	0.001057	20.801321
718.193155	-2.988100	3.651000	-10.908000	24.844981	0.001057	20.788238
719.192187	-2.980700	3.651700	-10.884000	24.843568	0.001055	20.794881
720.192106	-3.007100	3.647700	-10.967000	24.872034	0.001056	20.809699
721.193488	-3.008400	3.648000	-10.973000	24.909951	0.001056	20.814090
722.193726	-3.019200	3.647600	-11.011000	24.907018	0.001055	20.806879
723.195052	-3.018900	3.648400	-11.014000	24.893987	0.001052	20.813240
724.194291	-3.016200	3.646900	-10.998000	24.930836	0.001056	20.809447
725.195776	-2.974000	3.649500	-10.852000	24.927755	0.001055	20.822002
726.194875	-3.015500	3.646100	-10.994000	24.907909	0.001054	20.803980
727.196984	-3.018300	3.644800	-10.999000	24.891970	0.001053	20.827337
728.196866	-3.010100	3.647200	-10.978000	24.903386	0.001053	20.820777
729.201438	-2.986000	3.646600	-10.888000	24.884756	0.001053	20.817252
730.199787	-3.000900	3.646100	-10.940000	24.875032	0.001052	20.830252
731.212929	-2.995900	3.646300	-10.923000	24.875628	0.001053	20.795289
732.200113	-3.002400	3.645800	-10.944000	24.890278	0.001052	20.803353
733.198506	-2.997800	3.645700	-10.928000	24.899397	0.001053	20.814403
734.200249	-2.995100	3.645300	-10.916000	24.886297	0.001052	20.808841
735.201311	-2.988600	3.644700	-10.892000	24.853325	0.001051	20.799457
736.201680	-2.980900	3.645200	-10.865000	24.862006	0.001050	20.803902
737.199909	-2.980800	3.645100	-10.864000	24.911306	0.001053	20.798381
738.202224	-2.991900	3.643600	-10.900000	24.939380	0.001052	20.814230
739.204712	-2.996400	3.643000	-10.915000	24.971080	0.001050	20.815228
740.200706	-2.991800	3.644100	-10.901000	24.996088	0.001050	20.797655
741.202080	-2.997000	3.643800	-10.919000	24.994371	0.001049	20.814424
742.204670	-2.978500	3.643200	-10.850000	25.033154	0.001051	20.833913
743.202116	-3.018200	3.642700	-10.994000	25.042150	0.001047	20.810226
744.202497	-3.005900	3.640500	-10.941000	25.061516	0.001050	20.811649
745.205976	-3.006600	3.642300	-10.951000	25.066117	0.001048	20.834284
746.202945	-2.990800	3.642100	-10.892000	25.087541	0.001048	20.828289
747.203449	-3.015100	3.641500	-10.979000	25.091447	0.001047	20.815615
748.206573	-2.990400	3.640600	-10.886000	25.067579	0.001050	20.814415
749.206236	-2.993200	3.640100	-10.894000	25.038490	0.001047	20.831208
750.204818	-2.992400	3.641500	-10.897000	25.049872	0.001047	20.820348
751.209069	-3.002600	3.641200	-10.931000	25.064141	0.001047	20.832301
752.208344	-2.957000	3.641400	-10.766000	25.068692	0.001046	20.838766
753.206470	-3.010500	3.639300	-10.954000	25.061829	0.001046	20.841359
754.210576	-2.980900	3.639100	-10.847000	25.103641	0.001047	20.816477
755.206736	-2.993100	3.639500	-10.892000	25.123257	0.001045	20.824789
756.212691	-3.008600	3.638800	-10.946000	25.144187	0.001045	20.853860
757.207309	-3.013000	3.637200	-10.957000	25.146569	0.001044	20.837285
758.205861	-3.004600	3.637300	-10.927000	25.135480	0.001046	20.820938
759.207362	-2.984100	3.638300	-10.856000	25.116016	0.001046	20.860666
760.207200	-3.007300	3.636700	-10.935000	25.084070	0.001045	20.835711
761.208209	-2.994100	3.636500	-10.887000	25.069949	0.001044	20.849984
762.208895	-2.988300	3.636600	-10.867000	25.077556	0.001042	20.832965
763.208506	-2.968900	3.637700	-10.799000	25.041628	0.001045	20.855220
764.209842	-3.019000	3.634000	-10.969000	25.088366	0.001043	20.849980
765.208400	-3.018300	3.633300	-10.964000	25.062888	0.001042	20.840052
766.207862	-3.041900	3.633800	-11.053000	25.076783	0.001043	20.835034
767.209047	-3.026400	3.633800	-10.996000	25.048714	0.001042	20.833884
768.208304	-2.987300	3.635500	-10.859000	25.090847	0.001041	20.856737
769.210274	-2.990400	3.634500	-10.868000	25.108948	0.001041	20.845511
770.209516	-3.016300	3.633000	-10.957000	25.131048	0.001040	20.848731
771.211619	-3.000800	3.633200	-10.902000	25.131792	0.001042	20.846158
772.214529	-3.028200	3.632300	-10.998000	25.089405	0.001041	20.850549
773.209541	-3.026700	3.632800	-10.994000	25.080977	0.001039	20.845408
774.211793	-3.011900	3.633100	-10.941000	25.104992	0.001039	20.850549
775.214925	-3.024500	3.630400	-10.979000	25.071304	0.001040	20.851345
776.208965	-2.993100	3.633300	-10.873000	25.095365	0.001039	20.865066
777.211812	-2.994500	3.631800	-10.874000	25.090868	0.001039	20.862448
778.214682	-2.992200	3.633200	-10.870000	25.070729	0.001039	20.859302
779.209647	-2.991300	3.631300	-10.861000	25.072348	0.001041	20.839116
780.213232	-3.001300	3.631800	-10.898000	25.109087	0.001040	20.855134
781.210356	-2.993600	3.631300	-10.868000	25.119881	0.001041	20.841314
782.210668	-2.998200	3.631000	-10.885000	25.141871	0.001036	20.858646
783.218569	-3.006900	3.631100	-10.917000	25.164345	0.001038	20.868879
784.212606	-3.010900	3.629600	-10.927000	25.120091	0.001038	20.846740
785.211708	-3.014300	3.629300	-10.938000	25.097123	0.001037	20.850710
786.212832	-2.974500	3.630200	-10.796000	25.073128	0.001037	20.847486
787.215916	-3.007200	3.628300	-10.910000	25.028554	0.001036	20.850157
788.213161	-3.009100	3.629600	-10.921000	25.039238	0.001035	20.857562
789.212741	-2.992300	3.628200	-10.856000	25.021711	0.001036	20.853720
790.216944	-2.997800	3.628900	-10.878000	25.036276	0.001035	20.874503
791.217062	-2.980100	3.628700	-10.812000	25.076028	0.001036	20.866043
792.213068	-2.998300	3.627000	-10.874000	25.095074	0.001034	20.871885
793.217331	-3.006800	3.627100	-10.903000	25.106701	0.001037	20.881660
794.213907	-3.022500	3.626700	-10.961000	25.152492	0.001035	20.864567
795.214742	-3.027900	3.625100	-10.975000	25.172501	0.001034	20.870430
796.216288	-3.003300	3.626100	-10.888000	25.192190	0.001034	20.889720
797.218972	-2.976600	3.628100	-10.798000	25.213710	0.001032	20.863437
798.217074	-2.997500	3.626500	-10.868000	25.237398	0.001032	20.877261
799.218260	-3.000200	3.626700	-10.880000	25.238137	0.001032	20.875159
800.220362	-3.004700	3.626400	-10.894000	25.233969	0.001032	20.870026
801.219084	-3.003800	3.624200	-10.885000	25.240601	0.001031	20.877158
802.219775	-2.978500	3.625400	-10.798000	25.270646	0.001034	20.885037
803.223310	-2.984100	3.625600	-10.818000	25.259312	0.001032	20.883615
804.221225	-3.001600	3.623800	-10.876000	25.267615	0.001030	20.877253
805.221457	-2.994700	3.624300	-10.852000	25.274371	0.001031	20.887828
806.226111	-3.021800	3.623500	-10.948000	25.285631	0.001031	20.878746
807.223179	-2.997400	3.623000	-10.858000	25.244717	0.001031	20.885557
808.223542	-3.016000	3.623400	-10.927000	25.222811	0.001028	20.882531
809.228513	-3.017100	3.622400	-10.927000	25.197829	0.001028	20.875468
810.224722	-3.008500	3.622500	-10.896000	25.195341	0.001028	20.905210
811.224864	-2.986600	3.622700	-10.819000	25.196532	0.001028	20.894079
812.224219	-3.004400	3.620900	-10.878000	25.188700	0.001030	20.878631
813.225011	-2.994100	3.621600	-10.843000	25.228623	0.001029	20.875563
814.225505	-2.989000	3.622200	-10.826000	25.254766	0.001027	20.882844
815.225766	-2.989200	3.620700	-10.822000	25.293787	0.001028	20.874607
816.226641	-3.009400	3.621300	-10.897000	25.331936	0.001026	20.893469
817.228395	-2.982000	3.622500	-10.801000	25.321448	0.001025	20.881991
818.225788	-3.031700	3.619500	-10.972000	25.325994	0.001027	20.894615
819.228047	-3.004500	3.621100	-10.878000	25.343360	0.001026	20.879336
820.227540	-2.974700	3.620900	-10.770000	25.335086	0.001025	20.877666
821.226328	-2.976400	3.619700	-10.773000	25.346666	0.001026	20.876017
822.226175	-2.996600	3.618900	-10.843000	25.357671	0.001023	20.886592
823.228441	-2.975000	3.619200	-10.766000	25.348202	0.001024	20.870922
824.225736	-3.025900	3.615200	-10.939000	25.349512	0.001026	20.868918
825.228946	-2.972700	3.619700	-10.759000	25.326303	0.001024	20.893028
826.227181	-2.987900	3.618400	-10.811000	25.310588	0.001022	20.890052
827.226815	-3.006400	3.617200	-10.873000	25.311906	0.001025	20.856290
828.226479	-3.021900	3.616200	-10.927000	25.313322	0.001023	20.865298
829.228295	-2.988100	3.617200	-10.807000	25.336659	0.001021	20.869763
830.227421	-2.995300	3.617400	-10.834000	25.314066	0.001021	20.856088
831.227226	-3.027300	3.613800	-10.938000	25.269547	0.001021	20.875874
832.227677	-3.018800	3.615800	-10.914000	25.236636	0.001019	20.864643
833.226342	-3.014200	3.615200	-10.895000	25.211330	0.001020	20.861522
834.226573	-2.998700	3.615900	-10.842000	25.216944	0.001019	20.869055
835.233962	-3.023800	3.613700	-10.926000	25.240611	0.001018	20.855358
836.226787	-2.997500	3.616300	-10.838000	25.272397	0.001021	20.855029
837.226840	-2.995700	3.615600	-10.830000	25.260763	0.001019	20.852357
838.226904	-2.982000	3.613700	-10.775000	25.282311	0.001018	20.861189
839.227819	-3.000300	3.614300	-10.843000	25.280147	0.001017	20.868973
840.227741	-3.030300	3.612200	-10.945000	25.303188	0.001018	20.855124
841.227788	-2.983600	3.614300	-10.782000	25.261129	0.001019	20.864578
842.229209	-2.983100	3.613400	-10.777000	25.226822	0.001017	20.847204
843.228512	-3.011600	3.612500	-10.877000	25.211536	0.001018	20.850350
844.232498	-3.020100	3.613400	-10.910000	25.223171	0.001017	20.845435
845.231994	-3.001100	3.612300	-10.840000	25.207462	0.001015	20.866173
846.230146	-2.997700	3.611300	-10.824000	25.189959	0.001016	20.865196
847.233862	-2.998600	3.610400	-10.825000	25.208128	0.001013	20.855937
848.232656	-2.984200	3.610900	-10.775000	25.209544	0.001015	20.834601
849.230361	-3.016700	3.610500	-10.891000	25.202682	0.001014	20.849996
850.234321	-3.013700	3.610200	-10.879000	25.189503	0.001012	20.838662
851.235085	-2.979900	3.611500	-10.760000	25.157464	0.001013	20.851542
852.230589	-2.997700	3.610600	-10.823000	25.105460	0.001014	20.857656
853.232758	-2.989400	3.609400	-10.788000	25.106548	0.001012	20.844999
854.235113	-2.990400	3.609000	-10.790000	25.108988	0.001013	20.826586
855.231987	-3.014000	3.608500	-10.874000	25.141447	0.001013	20.836411
856.234938	-3.052600	3.606900	-11.009000	25.159691	0.001011	20.860889
857.231916	-3.015500	3.607000	-10.875000	25.160685	0.001009	20.856197
858.232059	-3.027300	3.607600	-10.919000	25.196551	0.001011	20.830091
859.233048	-3.017900	3.608100	-10.887000	25.226457	0.001012	20.851105
860.234999	-3.006400	3.606200	-10.840000	25.263417	0.001011	20.826574
861.231558	-3.009900	3.607100	-10.856000	25.248777	0.001008	20.843643
862.231204	-3.011500	3.606300	-10.859000	25.293543	0.001009	20.862983
863.235575	-3.022100	3.606800	-10.897000	25.316880	0.001008	20.836156
864.235712	-3.013000	3.605900	-10.864000	25.333507	0.001008	20.818237
865.232325	-2.998200	3.606200	-10.811000	25.360100	0.001008	20.825024
866.235938	-2.961400	3.607500	-10.681000	25.361689	0.001006	20.849852
867.235508	-2.982000	3.607600	-10.756000	25.371335	0.001006	20.825873
868.235209	-2.977300	3.607100	-10.739000	25.382664	0.001008	20.833455
869.234945	-2.996200	3.605300	-10.802000	25.416613	0.001006	20.854742
870.235049	-2.969500	3.604700	-10.703000	25.427227	0.001006	20.836477
871.237008	-3.009000	3.604300	-10.843000	25.445918	0.001006	20.841021
872.240610	-3.018800	3.603400	-10.877000	25.465125	0.001007	20.838972
873.237518	-3.027500	3.601800	-10.901000	25.497955	0.001006	20.835430
874.237459	-3.010000	3.602000	-10.841000	25.498222	0.001005	20.846604
875.242805	-3.001100	3.602500	-10.810000	25.493480	0.001004	20.836626
876.239179	-2.980000	3.602600	-10.735000	25.512567	0.001004	20.817862
877.240349	-2.997200	3.602600	-10.797000	25.520939	0.001006	20.820105
878.240210	-2.986400	3.602200	-10.756000	25.472286	0.001002	20.850903
879.239520	-2.995500	3.602000	-10.788000	25.478022	0.001002	20.836750
880.242414	-3.008600	3.600600	-10.832000	25.472430	0.001001	20.806479
881.241878	-2.991600	3.601000	-10.770000	25.457570	0.001000	20.843239
882.241322	-2.974100	3.602200	-10.712000	25.459931	0.001004	20.837075
883.241549	-2.981000	3.600700	-10.732000	25.401277	0.001002	20.842188
884.242590	-3.018300	3.599800	-10.865000	25.392654	0.001001	20.827840
885.242727	-2.976900	3.599800	-10.715000	25.382192	0.001000	20.846257
886.244554	-3.000600	3.598000	-10.796000	25.413505	0.001002	20.829337
887.244026	-3.016100	3.597100	-10.847000	25.395956	0.000999	20.818353
888.244101	-2.998900	3.598400	-10.789000	25.423565	0.000999	20.829007
889.244494	-3.009800	3.597100	-10.826000	25.420108	0.001000	20.811785
890.244239	-2.992800	3.597600	-10.765000	25.439542	0.000999	20.825610
891.246260	-3.009900	3.597800	-10.827000	25.484329	0.000998	20.810367
892.246845	-2.990400	3.596200	-10.754000	25.488669	0.000997	20.827527
893.244521	-2.986000	3.598000	-10.743000	25.516526	0.000997	20.840329
894.244810	-2.991500	3.595900	-10.755000	25.512995	0.000996	20.824930
895.246307	-3.004700	3.596600	-10.805000	25.560263	0.000997	20.802698
896.244949	-3.025500	3.595800	-10.878000	25.589535	0.000997	20.814552
897.245928	-3.001400	3.595900	-10.791000	25.528897	0.000996	20.824303
898.246913	-3.011500	3.595600	-10.827000	25.525366	0.000994	20.827870
899.247547	-2.999900	3.594900	-10.783000	25.495645	0.000997	20.808455
900.246547	-2.994400	3.595400	-10.765000	25.506899	0.000995	20.820230
901.246204	-3.016500	3.594800	-10.842000	25.522878	0.000993	20.830587
902.253273	-2.993900	3.595600	-10.763000	25.523527	0.000993	20.817014
903.246985	-2.987700	3.593400	-10.734000	25.559303	0.000994	20.814537
904.250472	-2.990900	3.592500	-10.744000	25.593966	0.000991	20.827536
905.251274	-2.999800	3.593100	-10.777000	25.570557	0.000992	20.826786
906.245939	-2.976600	3.593800	-10.696000	25.546133	0.000989	20.823595
907.249941	-3.002000	3.592700	-10.784000	25.537930	0.000992	20.812038
908.246458	-3.011200	3.593300	-10.819000	25.528934	0.000989	20.822919
909.247218	-3.023000	3.591600	-10.854000	25.473170	0.000992	20.804852
910.246982	-3.014100	3.591400	-10.824000	25.396220	0.000989	20.784480
911.247866	-3.009500	3.590100	-10.802000	25.373185	0.000991	20.806394
912.249422	-2.978800	3.592400	-10.699000	25.326582	0.000989	20.822189
913.251622	-3.013600	3.589500	-10.816000	25.323178	0.000987	20.803125
914.251230	-2.982500	3.591800	-10.711000	25.304687	0.000986	20.822016
915.248755	-2.983000	3.589700	-10.707000	25.281271	0.000987	20.801826
916.249619	-3.003200	3.588500	-10.775000	25.275801	0.000986	20.837110
917.250478	-2.980400	3.590500	-10.701000	25.298543	0.000987	20.775071
918.250658	-3.006400	3.589200	-10.789000	25.313208	0.000987	20.798330
919.251765	-3.001000	3.587400	-10.765000	25.357996	0.000985	20.808687
920.252743	-2.991600	3.587800	-10.732000	25.368734	0.000982	20.812830
921.251515	-3.010300	3.588300	-10.800000	25.405862	0.000983	20.781833
922.251450	-3.012800	3.586700	-10.805000	25.386029	0.000983	20.805541
923.251485	-2.984800	3.588800	-10.709000	25.408494	0.000984	20.800123
924.252026	-3.010400	3.586900	-10.796000	25.431611	0.000982	20.809111
925.250646	-2.980500	3.588400	-10.694000	25.410210	0.000983	20.804217
926.251795	-3.009400	3.585700	-10.789000	25.437622	0.000982	20.803294
927.253781	-2.997500	3.586800	-10.750000	25.466852	0.000981	20.822688
928.251301	-2.984400	3.585600	-10.700000	25.490456	0.000982	20.801822
929.252691	-2.970700	3.586200	-10.651000	25.527112	0.000979	20.796433
930.254744	-2.996500	3.585800	-10.742000	25.528701	0.000980	20.806563
931.257380	-3.025900	3.585300	-10.847000	25.530343	0.000981	20.798730
932.254276	-2.971400	3.585100	-10.651000	25.494184	0.000980	20.790867
933.255012	-2.994500	3.583700	-10.730000	25.475897	0.000979	20.796210
934.254211	-3.003900	3.583700	-10.764000	25.504178	0.000977	20.800902
935.252986	-2.982900	3.583300	-10.687000	25.513120	0.000977	20.803244
936.256594	-2.978400	3.583900	-10.673000	25.520453	0.000978	20.798280
937.253962	-2.987800	3.582000	-10.702000	25.538246	0.000978	20.788174
938.254904	-3.004900	3.581500	-10.760000	25.547813	0.000979	20.800152
939.253741	-2.986000	3.583000	-10.698000	25.573533	0.000978	20.790896
940.255651	-2.996800	3.582400	-10.736000	25.567170	0.000977	20.797781
941.254476	-2.996500	3.581600	-10.731000	25.570574	0.000975	20.793139
942.253536	-3.016900	3.580900	-10.801000	25.563217	0.000976	20.805190
943.256299	-2.986300	3.581100	-10.694000	25.540230	0.000975	20.796804
944.254472	-2.987700	3.582500	-10.702000	25.523610	0.000974	20.789123
945.253153	-3.007700	3.580500	-10.768000	25.498885	0.000973	20.790372
946.256705	-2.978000	3.582100	-10.666000	25.478229	0.000972	20.813251
947.254033	-3.002700	3.580500	-10.750000	25.506066	0.000971	20.788100
948.255915	-2.994300	3.580500	-10.720000	25.541104	0.000974	20.798156
949.254910	-2.978500	3.579800	-10.661000	25.578702	0.000973	20.801302
950.258037	-3.010200	3.578400	-10.770000	25.573681	0.000972	20.800053
951.257221	-3.004900	3.579200	-10.754000	25.591922	0.000970	20.781388
952.257097	-3.019800	3.577900	-10.804000	25.615749	0.000972	20.782085
953.259506	-3.015300	3.578400	-10.789000	25.603450	0.000970	20.794388
954.258355	-2.997400	3.578000	-10.724000	25.617511	0.000969	20.787173
955.258409	-3.004700	3.577600	-10.749000	25.609140	0.000970	20.771179
956.261986	-2.997000	3.577300	-10.720000	25.598577	0.000968	20.789494
957.259329	-3.006000	3.576300	-10.749000	25.618130	0.000968	20.799649
958.261672	-3.012500	3.576700	-10.773000	25.662462	0.000971	20.771154
959.264171	-3.022100	3.574600	-10.802000	25.690533	0.000965	20.784175
960.263367	-2.993100	3.574600	-10.698000	25.650730	0.000966	20.799200
961.261662	-2.998600	3.575100	-10.719000	25.675525	0.000965	20.774791
962.266796	-3.022300	3.573800	-10.800000	25.685242	0.000964	20.785025
963.264318	-3.003100	3.573500	-10.730000	25.692147	0.000966	20.787692
964.262444	-2.994900	3.575500	-10.707000	25.701412	0.000966	20.765704
965.268521	-3.006100	3.572700	-10.738000	25.693411	0.000965	20.795127
966.266980	-2.989600	3.573900	-10.684000	25.695497	0.000962	20.777781
967.262528	-3.005600	3.573200	-10.738000	25.702504	0.000964	20.793354
968.266943	-2.989100	3.574700	-10.683000	25.706724	0.000963	20.791428
969.264853	-3.021900	3.571500	-10.792000	25.710574	0.000960	20.786287
970.266768	-3.018400	3.571500	-10.778000	25.703292	0.000959	20.793197
971.266054	-3.008000	3.571900	-10.743000	25.729781	0.000962	20.779974
972.265800	-2.983900	3.572000	-10.658000	25.733582	0.000960	20.771464
973.267930	-2.985800	3.571500	-10.663000	25.734998	0.000961	20.779999
974.267944	-2.986500	3.570900	-10.663000	25.656408	0.000959	20.789256
975.267773	-3.014400	3.569800	-10.759000	25.647410	0.000958	20.780692
976.268801	-2.999100	3.570700	-10.708000	25.623485	0.000958	20.796966
977.267933	-3.013600	3.569900	-10.757000	25.593742	0.000957	20.765197
978.267521	-2.999500	3.570200	-10.706000	25.570702	0.000960	20.754387
979.267787	-3.031800	3.568200	-10.818000	25.556341	0.000958	20.785009
980.268022	-3.005700	3.568600	-10.725000	25.614585	0.000954	20.773803
981.266625	-2.993300	3.569100	-10.683000	25.632373	0.000954	20.773176
982.267078	-2.993100	3.568700	-10.681000	25.639750	0.000955	20.792439
983.268219	-3.007400	3.568700	-10.731000	25.673942	0.000953	20.756131
984.269527	-3.018900	3.566100	-10.763000	25.638584	0.000955	20.753335
985.267816	-3.007900	3.567300	-10.729000	25.660871	0.000954	20.773823
986.269384	-3.002400	3.567200	-10.709000	25.680547	0.000953	20.766085
987.271112	-3.010800	3.566900	-10.738000	25.659008	0.000953	20.759149
988.268511	-3.021200	3.566000	-10.773000	25.652169	0.000954	20.764134
989.269510	-3.010400	3.567200	-10.737000	25.633334	0.000951	20.758494
990.273386	-2.999300	3.567100	-10.698000	25.622874	0.000952	20.738030
991.269691	-2.996200	3.566600	-10.684000	25.641980	0.000953	20.774290
992.270099	-3.004700	3.564900	-10.711000	25.626943	0.000949	20.777680
993.269339	-3.006400	3.564700	-10.715000	25.600086	0.000951	20.749757
994.270038	-2.991200	3.564600	-10.660000	25.559849	0.000949	20.773833
995.272020	-2.987300	3.564300	-10.646000	25.551498	0.000949	20.782990
996.269509	-2.996600	3.565300	-10.683000	25.538401	0.000949	20.774105
997.269704	-3.002200	3.563700	-10.698000	25.546473	0.000949	20.764193
998.271219	-3.008700	3.562600	-10.717000	25.567099	0.000949	20.768787
999.270082	-2.983500	3.564300	-10.633000	25.568611	0.000947	20.771253
1000.271167	-3.000000	3.561800	-10.685000	25.581936	0.000945	20.762350
1001.272324	-3.013300	3.561500	-10.730000	25.586999	0.000946	20.768383
1002.270432	-3.004200	3.561800	-10.699000	25.567592	0.000945	20.796783
1003.272168	-2.981800	3.561400	-10.618000	25.556783	0.000944	20.755580
1004.272159	-2.999500	3.561400	-10.681000	25.542960	0.000943	20.764932
1005.273395	-2.995000	3.561400	-10.666000	25.548206	0.000944	20.767356
1006.275828	-3.019300	3.559500	-10.746000	25.550884	0.000944	20.761510
1007.277402	-3.025700	3.560000	-10.769000	25.584832	0.000943	20.762413
1008.275513	-3.017000	3.559600	-10.736000	25.586589	0.000944	20.768920
1009.280013	-2.996800	3.560300	-10.668000	25.587234	0.000943	20.756765
1010.275010	-3.003700	3.559500	-10.689000	25.589718	0.000942	20.746931
1011.274477	-2.998100	3.558300	-10.667000	25.592005	0.000941	20.764875
1012.275530	-3.001400	3.558500	-10.679000	25.606710	0.000941	20.748824
1013.273712	-3.017400	3.558000	-10.735000	25.630238	0.000939	20.753488
1014.275260	-3.001700	3.558700	-10.681000	25.681072	0.000939	20.757603
1015.275248	-2.989600	3.558300	-10.636000	25.705099	0.000938	20.745225
1016.275008	-3.044300	3.555900	-10.824000	25.713046	0.000940	20.744673
1017.279204	-2.993300	3.558200	-10.649000	25.715206	0.000938	20.774343
1018.276021	-3.007200	3.556600	-10.694000	25.709065	0.000937	20.758692
1019.277039	-3.005800	3.556000	-10.687000	25.733690	0.000937	20.751658
1020.278421	-2.973500	3.555600	-10.571000	25.748144	0.000936	20.742467
1021.277897	-3.016200	3.554900	-10.721000	25.724693	0.000936	20.769647
1022.283090	-3.024800	3.553200	-10.747000	25.698553	0.000936	20.762832
1023.278643	-3.019800	3.554500	-10.732000	25.708663	0.000935	20.742167
1024.283539	-2.989800	3.556600	-10.632000	25.687416	0.000934	20.740740
1025.279325	-3.016200	3.552400	-10.713000	25.694300	0.000933	20.742913
1026.279208	-3.004300	3.553900	-10.675000	25.722842	0.000931	20.742184
1027.281507	-3.022800	3.553300	-10.740000	25.689998	0.000930	20.753766
1028.282417	-3.014800	3.552900	-10.711000	25.656082	0.000931	20.750995
1029.280259	-2.990200	3.552800	-10.623000	25.609041	0.000931	20.761122
1030.279766	-2.995400	3.553300	-10.643000	25.616073	0.000930	20.773401
1031.280516	-2.972400	3.553600	-10.562000	25.633788	0.000931	20.764639
1032.281635	-2.999900	3.551300	-10.653000	25.606254	0.000930	20.769229
1033.285867	-3.012300	3.552100	-10.697000	25.641366	0.000928	20.738110
1034.281421	-2.990900	3.553100	-10.626000	25.644417	0.000929	20.762512
1035.285370	-2.974500	3.553200	-10.568000	25.623599	0.000929	20.731645
1036.281213	-2.980500	3.552300	-10.586000	25.605302	0.000929	20.738874
1037.281530	-2.994000	3.551500	-10.632000	25.600831	0.000927	20.756670
1038.282753	-2.995000	3.550300	-10.633000	25.645829	0.000927	20.747809
1039.281563	-3.012400	3.548900	-10.690000	25.692960	0.000927	20.738722
1040.281866	-3.002300	3.550000	-10.657000	25.711071	0.000925	20.754069
1041.281645	-2.975200	3.551600	-10.566000	25.739818	0.000927	20.729836
1042.283300	-2.977600	3.549500	-10.567000	25.749502	0.000924	20.742883
1043.282369	-2.981000	3.549900	-10.581000	25.761130	0.000925	20.756935
1044.283484	-2.988900	3.548900	-10.605000	25.764287	0.000925	20.781917
1045.281311	-2.999800	3.548600	-10.644000	25.743738	0.000922	20.720498
1046.282745	-2.984500	3.548400	-10.589000	25.729150	0.000923	20.732398
1047.284218	-2.996100	3.546700	-10.625000	25.718067	0.000922	20.741655
1048.281687	-2.994100	3.547700	-10.621000	25.708031	0.000923	20.732996
1049.286208	-2.970600	3.547500	-10.538000	25.706216	0.000920	20.734967
1050.283010	-2.993800	3.546400	-10.616000	25.708774	0.000921	20.748916
1051.285233	-2.983300	3.547000	-10.581000	25.691029	0.000920	20.742946
1052.284715	-3.002400	3.545100	-10.643000	25.688570	0.000920	20.753753
1053.285557	-2.991100	3.545100	-10.602000	25.682831	0.000920	20.756524
1054.287486	-2.983000	3.546000	-10.576000	25.700121	0.000917	20.747338
1055.285658	-2.966900	3.544400	-10.515000	25.728914	0.000917	20.735954
1056.284689	-2.982200	3.544700	-10.570000	25.768570	0.000915	20.747812
1057.288704	-2.990900	3.543900	-10.599000	25.805980	0.000916	20.757415
1058.284282	-2.992900	3.543100	-10.603000	25.795648	0.000915	20.746088
1059.285108	-2.985100	3.543500	-10.577000	25.784242	0.000915	20.739846
1060.286853	-2.995400	3.542300	-10.609000	25.790375	0.000915	20.740317
1061.285018	-3.002400	3.542800	-10.636000	25.780684	0.000913	20.749549
1062.285040	-3.010300	3.542300	-10.662000	25.757902	0.000913	20.740416
1063.286176	-2.990900	3.541100	-10.589000	25.764536	0.000914	20.739018
1064.286258	-3.016700	3.539900	-10.678000	25.747165	0.000911	20.750019
1065.287679	-3.037000	3.538800	-10.746000	25.753150	0.000912	20.758402
1066.286190	-3.002800	3.540800	-10.631000	25.783040	0.000912	20.739587
1067.289324	-3.002900	3.539500	-10.627000	25.805521	0.000909	20.757429
1068.285860	-3.019300	3.538700	-10.683000	25.813070	0.000910	20.737510
1069.287755	-2.999800	3.539100	-10.615000	25.847302	0.000909	20.752457
1070.288088	-3.039300	3.536600	-10.746000	25.852867	0.000910	20.736236
1071.288194	-3.014900	3.538800	-10.668000	25.871075	0.000908	20.734138
1072.287693	-3.010100	3.536400	-10.643000	25.881980	0.000907	20.741774
1073.289471	-3.005700	3.537000	-10.631000	25.893230	0.000910	20.757344
1074.289215	-3.009400	3.536800	-10.643000	25.898918	0.000908	20.757368
1075.288669	-3.012600	3.537000	-10.655000	25.870049	0.000907	20.763455
1076.293205	-2.988100	3.536900	-10.568000	25.861081	0.000904	20.757765
1077.289464	-3.014500	3.534500	-10.654000	25.867813	0.000906	20.747457
1078.299657	-3.015100	3.534800	-10.656000	25.867263	0.000904	20.756862
1079.290706	-3.022000	3.535800	-10.684000	25.844504	0.000904	20.755337
1080.290603	-3.021200	3.533900	-10.675000	25.809899	0.000904	20.748550
1081.292754	-3.035000	3.532800	-10.721000	25.758144	0.000904	20.735917
1082.290893	-2.992700	3.535500	-10.578000	25.727757	0.000904	20.767983
1083.291942	-2.994300	3.532800	-10.577000	25.701493	0.000902	20.751561
1084.290645	-3.017700	3.533300	-10.661000	25.699654	0.000901	20.763465
1085.296381	-3.027200	3.531900	-10.691000	25.708324	0.000901	20.749413
1086.291481	-3.019900	3.534100	-10.671000	25.731505	0.000899	20.741876
1087.295263	-3.009300	3.533700	-10.632000	25.757140	0.000901	20.735856
1088.292042	-3.010000	3.533100	-10.634000	25.783550	0.000898	20.750057
1089.290949	-3.014200	3.532300	-10.647000	25.784695	0.000899	20.751681
1090.292007	-2.994900	3.531800	-10.576000	25.780562	0.000897	20.765549
1091.293730	-3.007700	3.531200	-10.619000	25.825060	0.000898	20.767099
1092.296660	-2.976400	3.532000	-10.511000	25.850643	0.000897	20.747279
1093.293699	-2.997700	3.531500	-10.586000	25.821055	0.000897	20.764023
1094.298158	-2.995000	3.529300	-10.569000	25.821403	0.000897	20.762951
1095.294230	-3.016400	3.530100	-10.647000	25.822713	0.000896	20.753361
1096.293148	-3.031300	3.528900	-10.696000	25.800828	0.000894	20.777845
1097.298498	-2.993300	3.530200	-10.564000	25.823404	0.000894	20.772073
1098.293462	-2.999800	3.529400	-10.587000	25.835479	0.000892	20.766659
1099.294164	-2.997300	3.529100	-10.577000	25.799130	0.000894	20.778984
1100.293329	-3.034500	3.526700	-10.700000	25.808172	0.000893	20.754876
1101.293344	-3.008500	3.527900	-10.612000	25.786209	0.000893	20.763634
1102.293745	-2.996100	3.528700	-10.572000	25.756142	0.000891	20.756666
1103.298523	-2.999900	3.527700	-10.581000	25.739399	0.000891	20.755021
1104.294298	-3.017700	3.527000	-10.642000	25.777212	0.000888	20.765502
1105.293540	-3.005100	3.526800	-10.597000	25.798996	0.000889	20.773634
1106.293644	-3.008900	3.526400	-10.609000	25.820733	0.000889	20.764175
1107.294314	-3.005600	3.526200	-10.597000	25.827035	0.000889	20.766712
1108.297418	-2.983600	3.524700	-10.515000	25.829371	0.000888	20.764791
1109.295482	-2.986700	3.525300	-10.528000	25.838511	0.000888	20.760696
1110.295398	-2.977000	3.526200	-10.495000	25.864644	0.000886	20.775095
1111.296775	-3.001200	3.523700	-10.575000	25.891840	0.000887	20.772543
1112.297079	-3.003400	3.524800	-10.585000	25.881309	0.000885	20.771921
1113.300944	-3.002400	3.522900	-10.577000	25.884408	0.000884	20.766025
1114.299054	-3.017400	3.523800	-10.630000	25.872136	0.000884	20.758439
1115.297731	-3.020800	3.522900	-10.641000	25.860132	0.000884	20.771984
1116.298595	-2.995300	3.521700	-10.546000	25.850248	0.000882	20.772487
1117.297116	-3.003800	3.522400	-10.580000	25.866465	0.000883	20.789252
1118.296272	-2.998900	3.522100	-10.561000	25.870139	0.000882	20.771131
1119.299535	-3.016200	3.521700	-10.620000	25.887973	0.000883	20.789047
1120.297488	-2.994400	3.522100	-10.546000	25.861097	0.000882	20.762048
1121.299260	-3.000300	3.520500	-10.562000	25.842062	0.000881	20.777540
1122.296721	-3.007600	3.520100	-10.585000	25.817890	0.000881	20.773647
1123.298271	-3.008300	3.519900	-10.587000	25.787578	0.000879	20.765958
1124.304163	-3.001900	3.518500	-10.561000	25.761489	0.000880	20.784797
1125.298395	-3.011000	3.518700	-10.593000	25.782928	0.000881	20.769348
1126.299805	-3.035800	3.517600	-10.677000	25.792168	0.000877	20.771043
1127.297830	-3.021300	3.516800	-10.625000	25.824985	0.000878	20.764652
1128.298467	-2.999700	3.519000	-10.555000	25.822720	0.000876	20.804103
1129.301141	-2.996400	3.519000	-10.543000	25.865151	0.000878	20.785087
1130.299026	-2.997700	3.517200	-10.542000	25.883383	0.000876	20.775901
1131.302874	-3.032100	3.517600	-10.665000	25.938851	0.000876	20.778520
1132.299749	-3.010000	3.516900	-10.585000	25.949087	0.000876	20.787854
1133.301322	-2.993600	3.517400	-10.528000	25.964806	0.000873	20.775197
1134.301199	-2.994900	3.516800	-10.532000	25.987111	0.000872	20.787649
1135.305205	-2.994600	3.517600	-10.532000	25.935319	0.000875	20.795359
1136.302371	-2.995900	3.515200	-10.530000	25.919895	0.000872	20.793615
1137.301453	-3.008700	3.514500	-10.572000	25.890132	0.000872	20.798328
1138.302969	-3.015300	3.514000	-10.595000	25.910550	0.000873	20.794185
1139.303502	-2.997800	3.514900	-10.536000	25.934146	0.000872	20.779008
1140.307222	-3.000800	3.513900	-10.543000	25.955782	0.000870	20.793159
1141.303676	-2.987100	3.513600	-10.494000	25.938989	0.000870	20.778184
1142.310036	-2.986700	3.513000	-10.492000	25.960921	0.000870	20.782200
1143.303390	-2.997300	3.511200	-10.523000	25.967356	0.000870	20.788665
1144.306344	-2.989600	3.511700	-10.497000	26.020907	0.000868	20.816388
1145.308355	-2.997600	3.510700	-10.523000	26.014448	0.000867	20.784295
1146.306801	-3.010300	3.512400	-10.572000	26.053192	0.000868	20.805678
1147.306890	-2.987200	3.510800	-10.485000	26.022644	0.000867	20.779727
1148.307084	-2.998300	3.511500	-10.528000	26.031733	0.000865	20.778428
1149.307565	-2.997400	3.509200	-10.517000	26.028603	0.000868	20.807999
1150.307336	-2.989400	3.510100	-10.492000	26.001579	0.000866	20.798866
1151.310945	-3.002000	3.507800	-10.530000	25.996289	0.000864	20.795922
1152.308512	-3.014600	3.509600	-10.579000	26.015684	0.000865	20.797865
1153.308203	-3.008400	3.508400	-10.554000	26.034931	0.000862	20.799659
1154.308104	-3.009500	3.509400	-10.560000	26.042236	0.000864	20.770013
1155.309240	-3.010000	3.507900	-10.557000	26.088951	0.000861	20.807468
1156.312023	-3.009900	3.508300	-10.559000	26.087634	0.000860	20.812783
1157.311266	-3.009700	3.507000	-10.553000	26.090564	0.000863	20.801977
1158.313558	-3.001900	3.507500	-10.529000	26.128735	0.000862	20.812355
1159.312289	-3.001500	3.507600	-10.526000	26.149621	0.000861	20.812953
1160.313300	-3.013800	3.506400	-10.567000	26.116117	0.000859	20.805366
1161.313694	-2.989800	3.507800	-10.487000	26.046670	0.000860	20.818091
1162.314711	-3.006000	3.504500	-10.533000	26.017062	0.000857	20.796878
1163.313087	-2.997000	3.506000	-10.506000	26.054664	0.000857	20.800045
1164.313607	-2.994900	3.505200	-10.497000	26.050318	0.000857	20.817963
1165.314258	-3.008000	3.504000	-10.539000	26.069691	0.000858	20.801393
1166.315303	-3.003500	3.505600	-10.527000	26.050466	0.000857	20.810051
1167.318325	-2.992200	3.505500	-10.488000	26.028307	0.000856	20.796322
1168.314749	-2.993500	3.503400	-10.486000	26.062585	0.000853	20.810848
1169.318056	-2.993400	3.504000	-10.488000	26.073213	0.000857	20.816785
1170.314809	-3.010800	3.502700	-10.544000	26.082430	0.000855	20.807079
1171.314834	-2.998800	3.501200	-10.499000	26.015787	0.000855	20.807925
1172.320515	-2.993300	3.503700	-10.487000	26.015664	0.000854	20.800215
1173.320961	-3.004500	3.500900	-10.516000	26.036601	0.000855	20.817932
1174.320470	-2.998900	3.500400	-10.496000	26.032008	0.000853	20.818533
1175.329235	-2.993900	3.499900	-10.477000	26.060049	0.000852	20.819679
1176.318595	-3.016300	3.499700	-10.555000	26.042489	0.000851	20.822899
1177.318720	-2.996400	3.499500	-10.485000	26.053291	0.000851	20.816208
1178.323965	-3.009700	3.500200	-10.533000	26.050357	0.000850	20.806623
1179.319483	-3.019300	3.499200	-10.562000	26.083592	0.000848	20.821049
1180.319919	-3.014200	3.498000	-10.542000	26.114265	0.000850	20.809669
1181.322097	-2.997600	3.498500	-10.486000	26.119305	0.000849	20.792922
1182.320096	-3.004400	3.497500	-10.507000	26.140863	0.000846	20.828809
1183.323119	-2.984200	3.497600	-10.436000	26.120396	0.000847	20.825313
1184.320411	-2.992200	3.497500	-10.465000	26.074971	0.000846	20.812861
1185.322276	-2.994600	3.497500	-10.472000	26.047621	0.000846	20.821417
1186.321308	-3.001600	3.495300	-10.490000	26.058130	0.000848	20.805898
1187.321846	-2.982300	3.494800	-10.420000	26.034830	0.000845	20.829428
1188.322020	-2.986200	3.495900	-10.439000	26.074048	0.000844	20.833745
1189.322442	-3.002500	3.495600	-10.495000	26.072379	0.000845	20.831119
1190.322727	-2.990900	3.494900	-10.452000	26.110279	0.000844	20.820837
1191.323706	-3.042100	3.493300	-10.626000	26.074989	0.000843	20.832319
1192.323511	-3.047500	3.492100	-10.640000	26.068551	0.000843	20.838653
1193.323470	-3.001000	3.494100	-10.485000	26.041028	0.000843	20.842768
1194.325628	-3.026800	3.491900	-10.569000	26.047065	0.000843	20.818013
1195.324438	-2.974800	3.493600	-10.391000	26.049498	0.000841	20.831838
1196.324225	-3.006800	3.490800	-10.495000	26.057419	0.000840	20.830313
1197.326289	-3.004700	3.491600	-10.490000	26.091594	0.000840	20.843787
1198.326271	-3.001700	3.491400	-10.480000	26.087272	0.000842	20.840394
1199.329690	-2.985700	3.492700	-10.426000	26.097454	0.000840	20.842563
1200.327802	-3.003400	3.492300	-10.488000	26.084635	0.000837	20.838692
1201.328887	-3.029100	3.488100	-10.565000	26.056345	0.000838	20.841087
1202.327921	-3.012600	3.489300	-10.511000	26.027107	0.000838	20.832100
1203.327035	-3.006300	3.487700	-10.483000	26.025240	0.000837	20.837811
1204.331145	-3.002400	3.491200	-10.481000	25.999383	0.000836	20.837910
1205.331781	-2.997600	3.487900	-10.454000	26.023828	0.000836	20.849668
1206.328142	-3.011600	3.488100	-10.503000	26.044839	0.000834	20.837588
1207.329837	-2.992700	3.487500	-10.435000	26.072506	0.000833	20.833144
1208.331561	-3.014500	3.485900	-10.507000	26.103923	0.000834	20.848115
1209.330016	-3.000900	3.487300	-10.464000	26.110780	0.000832	20.846469
1210.330680	-2.997000	3.486200	-10.447000	26.150316	0.000834	20.832617
1211.328948	-3.005500	3.486200	-10.477000	26.143932	0.000831	20.837581
1212.330897	-2.998400	3.485000	-10.449000	26.127810	0.000830	20.851253
1213.329910	-2.999700	3.484900	-10.453000	26.117133	0.000830	20.838154
1214.329978	-3.002100	3.485400	-10.462000	26.127810	0.000831	20.841296
1215.331946	-3.013500	3.486000	-10.504000	26.161137	0.000830	20.849180
1216.334373	-3.027400	3.483800	-10.546000	26.132924	0.000830	20.866348
1217.331337	-2.994700	3.483700	-10.431000	26.138805	0.000828	20.852818
1218.331262	-2.999600	3.483600	-10.448000	26.152591	0.000828	20.862877
1219.331381	-3.005500	3.484200	-10.471000	26.164560	0.000828	20.847404
1220.329710	-2.989500	3.483400	-10.412000	26.157880	0.000827	20.847804
1221.342010	-2.999300	3.481800	-10.441000	26.175660	0.000827	20.866143
1222.332351	-2.994400	3.483300	-10.429000	26.168131	0.000825	20.859526
1223.334054	-2.991800	3.480900	-10.413000	26.199003	0.000826	20.848823
1224.331821	-3.008100	3.481900	-10.474000	26.200218	0.000824	20.856681
1225.330891	-3.002800	3.482300	-10.455000	26.214299	0.000824	20.859452
1226.337839	-2.984100	3.481500	-10.388000	26.191077	0.000825	20.884478
1227.332214	-2.995000	3.480600	-10.424000	26.191277	0.000823	20.859551
1228.333293	-2.991100	3.479700	-10.407000	26.180425	0.000820	20.854810
1229.333281	-2.980800	3.480700	-10.374000	26.192616	0.000824	20.858051
1230.333340	-3.013700	3.478500	-10.482000	26.231307	0.000821	20.867059
1231.335640	-2.989400	3.479400	-10.400000	26.224948	0.000821	20.881057
1232.337490	-2.988000	3.478800	-10.393000	26.229145	0.000821	20.855878
1233.335238	-3.003200	3.478000	-10.444000	26.259712	0.000821	20.870948
1234.335188	-2.993300	3.477300	-10.408000	26.259413	0.000822	20.856898
1235.335145	-3.015200	3.476200	-10.480000	26.237163	0.000820	20.878159
1236.336245	-3.007600	3.476900	-10.456000	26.215803	0.000820	20.853851
1237.337475	-2.994900	3.475500	-10.408000	26.188165	0.000820	20.854053
1238.335155	-3.023600	3.475600	-10.508000	26.191686	0.000818	20.874186
1239.338657	-2.986500	3.475800	-10.379000	26.204800	0.000816	20.872190
1240.337185	-3.001500	3.476500	-10.434000	26.186101	0.000817	20.862885
1241.338539	-2.982600	3.474600	-10.362000	26.240139	0.000815	20.893476
1242.340808	-2.989700	3.474100	-10.384000	26.265022	0.000818	20.894300
1243.338741	-3.005600	3.473600	-10.437000	26.271498	0.000816	20.878998
1244.339961	-2.994200	3.473600	-10.399000	26.278677	0.000814	20.878626
1245.341136	-3.008200	3.471900	-10.443000	26.275522	0.000815	20.883042
1246.341283	-2.995900	3.472400	-10.401000	26.283670	0.000814	20.891703
1247.340709	-3.016400	3.471400	-10.471000	26.248949	0.000812	20.857761
1248.347657	-2.985800	3.472600	-10.367000	26.236755	0.000814	20.889602
1249.341655	-3.007900	3.470900	-10.438000	26.232681	0.000813	20.858958
1250.341856	-2.996900	3.470900	-10.401000	26.237871	0.000812	20.897835
1251.340901	-2.988600	3.470100	-10.370000	26.269135	0.000812	20.874253
1252.342446	-2.989700	3.470100	-10.373000	26.295754	0.000810	20.876822
1253.344886	-2.987200	3.467900	-10.358000	26.317704	0.000811	20.883708
1254.341477	-2.972800	3.469900	-10.314000	26.317679	0.000810	20.894588
1255.346262	-3.013800	3.470000	-10.457000	26.359592	0.000808	20.885976
1256.342470	-2.968500	3.469400	-10.298000	26.354525	0.000808	20.894160
1257.343905	-2.998200	3.468100	-10.398000	26.380371	0.000807	20.883627
1258.341994	-2.993600	3.467600	-10.379000	26.395369	0.000810	20.864088
1259.345149	-2.997800	3.466300	-10.390000	26.381114	0.000808	20.859245
1260.342765	-2.995600	3.467400	-10.385000	26.390694	0.000806	20.900164
1261.342491	-2.985300	3.467400	-10.351000	26.389057	0.000806	20.895200
1262.344510	-3.008900	3.466100	-10.428000	26.409220	0.000804	20.886542
1263.344197	-3.008000	3.466200	-10.425000	26.412173	0.000804	20.903260
1264.345905	-3.012900	3.466700	-10.444000	26.413212	0.000805	20.896244
1265.345376	-2.998500	3.465500	-10.390000	26.435585	0.000803	20.916358
1266.351387	-2.985600	3.465200	-10.345000	26.447006	0.000802	20.873313
1267.344309	-2.998400	3.464200	-10.386000	26.434043	0.000802	20.886362
1268.346357	-2.993300	3.464300	-10.369000	26.412642	0.000803	20.905627
1269.344907	-2.999000	3.463500	-10.386000	26.398162	0.000800	20.895342
1270.346081	-3.005200	3.463400	-10.407000	26.374151	0.000801	20.882591
1271.347172	-3.016700	3.461900	-10.442000	26.340256	0.000798	20.904948
1272.346749	-2.990400	3.461400	-10.348000	26.345594	0.000800	20.900356
1273.345394	-3.020800	3.461000	-10.454000	26.370398	0.000800	20.907740
1274.347211	-2.993000	3.460600	-10.356000	26.378418	0.000801	20.887353
1275.349545	-3.015000	3.459000	-10.426000	26.375489	0.000798	20.891521
1276.347171	-2.987400	3.460600	-10.337000	26.355671	0.000798	20.887725
1277.347864	-2.997100	3.459500	-10.367000	26.299178	0.000798	20.896383
1278.348382	-3.010300	3.460000	-10.414000	26.317431	0.000797	20.897657
1279.347228	-3.013900	3.459200	-10.423000	26.341665	0.000795	20.893089
1280.350822	-3.014400	3.457900	-10.422000	26.362399	0.000797	20.870306
1281.349359	-3.026300	3.458100	-10.464000	26.365328	0.000797	20.890793
1282.347806	-2.991300	3.459300	-10.347000	26.368356	0.000795	20.879612
1283.348496	-2.988600	3.458900	-10.334000	26.349953	0.000792	20.885772
1284.353677	-2.982600	3.456100	-10.307000	26.341588	0.000793	20.880684
1285.353062	-3.005500	3.456300	-10.388000	26.319262	0.000793	20.892859
1286.351564	-3.012900	3.456400	-10.413000	26.294182	0.000793	20.874768
1287.351023	-3.002300	3.455600	-10.373000	26.299351	0.000792	20.876643
1288.350778	-3.007300	3.456200	-10.392000	26.293217	0.000791	20.876169
1289.350749	-3.004900	3.455900	-10.383000	26.261726	0.000790	20.881505
1290.355435	-3.013200	3.455700	-10.411000	26.253529	0.000791	20.877061
1291.354867	-2.970000	3.455000	-10.259000	26.260680	0.000790	20.866231
1292.350461	-3.009500	3.453900	-10.394000	26.271461	0.000788	20.883702
1293.350817	-3.002400	3.455200	-10.372000	26.287077	0.000787	20.868103
1294.350066	-2.991000	3.453900	-10.330000	26.308259	0.000787	20.885596
1295.350585	-3.005100	3.452000	-10.372000	26.333117	0.000787	20.885921
1296.356366	-3.003300	3.452500	-10.368000	26.341159	0.000787	20.852754
1297.354690	-3.008300	3.450800	-10.380000	26.387492	0.000786	20.871344
1298.358534	-2.984000	3.452400	-10.300000	26.402761	0.000788	20.851130
1299.353307	-3.009300	3.450900	-10.384000	26.434319	0.000783	20.861511
1300.354740	-2.999000	3.449600	-10.345000	26.405616	0.000784	20.856370
1301.355760	-3.012600	3.449900	-10.392000	26.372818	0.000784	20.863708
1302.354814	-2.990500	3.449500	-10.313000	26.356006	0.000784	20.862933
1303.353753	-2.976200	3.449400	-10.263000	26.299113	0.000786	20.860758
1304.353556	-3.013600	3.447700	-10.389000	26.291292	0.000784	20.867597
1305.354983	-3.013500	3.447700	-10.389000	26.266089	0.000784	20.861709
1306.356036	-2.989300	3.447800	-10.306000	26.218208	0.000782	20.876181
1307.358748	-3.018100	3.446700	-10.401000	26.225634	0.000781	20.862781
1308.355810	-2.997200	3.448000	-10.333000	26.250370	0.000780	20.865828
1309.357837	-3.002200	3.447000	-10.346000	26.274335	0.000781	20.867151
1310.359122	-2.981300	3.447700	-10.278000	26.324984	0.000781	20.861628
1311.358790	-2.991400	3.446900	-10.310000	26.355034	0.000779	20.848681
1312.359921	-2.986100	3.445000	-10.286000	26.368343	0.000779	20.861108
1313.358567	-2.962200	3.446800	-10.210000	26.392182	0.000777	20.851876
1314.361334	-3.001800	3.445400	-10.342000	26.389749	0.000778	20.857492
1315.359579	-2.995400	3.446100	-10.320000	26.370976	0.000779	20.850953
1316.359836	-2.985500	3.444600	-10.282000	26.345053	0.000776	20.828693
1317.360938	-3.003100	3.443600	-10.340000	26.356922	0.000777	20.852000
1318.360869	-2.997500	3.443900	-10.321000	26.384633	0.000776	20.836230
1319.360736	-2.997500	3.442100	-10.317000	26.421850	0.000775	20.839970
1320.361177	-3.014200	3.441700	-10.372000	26.440125	0.000774	20.852174
1321.362327	-3.002800	3.443400	-10.337000	26.434886	0.000773	20.836952
1322.361819	-3.019200	3.441400	-10.389000	26.445515	0.000774	20.843841
1323.364726	-3.001900	3.441000	-10.329000	26.422547	0.000774	20.832610
1324.360970	-2.989600	3.440300	-10.284000	26.465800	0.000771	20.843367
1325.361537	-2.988000	3.439600	-10.276000	26.479705	0.000771	20.832214
1326.362765	-2.997300	3.440100	-10.310000	26.468257	0.000771	20.838251
1327.362615	-2.999100	3.439100	-10.313000	26.409809	0.000772	20.832136
1328.364929	-3.009700	3.438600	-10.348000	26.367224	0.000770	20.837699
1329.362482	-2.986300	3.438700	-10.267000	26.296458	0.000771	20.834383
1330.366337	-2.997300	3.438300	-10.305000	26.270628	0.000769	20.832607
1331.363724	-3.000300	3.436700	-10.310000	26.253071	0.000768	20.834879
1332.364900	-2.996000	3.437200	-10.296000	26.240462	0.000769	20.824104
1333.365286	-2.987000	3.438300	-10.269000	26.256572	0.000770	20.833180
1334.367372	-3.021600	3.435700	-10.379000	26.235864	0.000765	20.834656
1335.366206	-3.014800	3.434400	-10.353000	26.265096	0.000768	20.843643
1336.366860	-3.001600	3.435100	-10.309000	26.284338	0.000766	20.821256
1337.366893	-2.985400	3.436600	-10.258000	26.317316	0.000766	20.847758
1338.366397	-2.984200	3.435100	-10.250000	26.340187	0.000763	20.825700
1339.368388	-3.012700	3.435000	-10.347000	26.380588	0.000767	20.834535
1340.366801	-3.026900	3.432200	-10.387000	26.372867	0.000766	20.824879
1341.366671	-3.002000	3.434700	-10.310000	26.373385	0.000762	20.827770
1342.365751	-3.005000	3.432500	-10.314000	26.382148	0.000763	20.844163
1343.366367	-2.976500	3.433700	-10.219000	26.405863	0.000761	20.833859
1344.368507	-3.011800	3.433800	-10.340000	26.425304	0.000765	20.823527
1345.368639	-2.977600	3.432200	-10.219000	26.431785	0.000763	20.840473
1346.367924	-3.005700	3.431300	-10.312000	26.468056	0.000760	20.834730
1347.369866	-2.976700	3.431900	-10.215000	26.471981	0.000763	20.814494
1348.370152	-3.024100	3.429100	-10.368000	26.469746	0.000759	20.820308
1349.369206	-3.000400	3.430600	-10.291000	26.469225	0.000760	20.815991
1350.370193	-3.005500	3.429400	-10.306000	26.455323	0.000758	20.831888
1351.368833	-3.005400	3.429800	-10.308000	26.447071	0.000760	20.830233
1352.373296	-3.014800	3.429700	-10.339000	26.476668	0.000757	20.818256
1353.369903	-3.006200	3.428200	-10.304000	26.470862	0.000755	20.824274
1354.370742	-2.981600	3.427900	-10.220000	26.449184	0.000758	20.827615
1355.371672	-3.019400	3.427200	-10.347000	26.465198	0.000755	20.823323
1356.371440	-3.035000	3.427400	-10.400000	26.465522	0.000756	20.820803
1357.372083	-2.995800	3.426600	-10.265000	26.488640	0.000754	20.815591
1358.369578	-2.998400	3.428000	-10.278000	26.480244	0.000754	20.822799
1359.370769	-3.003300	3.425000	-10.285000	26.466191	0.000752	20.813889
1360.372411	-2.982600	3.426700	-10.219000	26.442357	0.000753	20.816486
1361.376904	-3.016600	3.425900	-10.333000	26.456383	0.000755	20.818730
1362.373304	-2.993500	3.424000	-10.249000	26.468201	0.000752	20.805478
1363.372770	-3.004100	3.424900	-10.288000	26.468250	0.000753	20.819752
1364.372635	-2.954200	3.426500	-10.121000	26.482951	0.000750	20.815089
1365.373752	-2.993100	3.425300	-10.250000	26.496209	0.000751	20.811345
1366.380828	-2.987300	3.423900	-10.226000	26.532235	0.000750	20.811522
1367.373883	-2.970700	3.422900	-10.168000	26.506337	0.000750	20.826267
1368.392878	-3.003400	3.422400	-10.278000	26.533946	0.000749	20.808974
1369.396937	-3.013800	3.422200	-10.312000	26.549262	0.000748	20.819629
1370.398821	-2.992600	3.422400	-10.241000	26.560481	0.000749	20.831854
1371.377265	-3.001700	3.420000	-10.265000	26.523569	0.000748	20.796646
1372.377328	-3.002800	3.421700	-10.274000	26.527293	0.000746	20.798019
1373.375358	-2.993200	3.421900	-10.241000	26.550403	0.000746	20.805128
1374.375566	-3.010200	3.421000	-10.297000	26.531313	0.000745	20.809647
1375.375033	-2.994400	3.420400	-10.240000	26.475650	0.000746	20.816285
1376.375750	-2.995200	3.420800	-10.245000	26.468870	0.000746	20.810892
1377.378165	-2.991000	3.420000	-10.228000	26.426410	0.000744	20.823691
1378.397704	-3.003100	3.419900	-10.270000	26.393041	0.000744	20.813861
1379.399845	-3.007900	3.419600	-10.285000	26.401009	0.000745	20.810489
1380.393180	-3.022800	3.416700	-10.326000	26.333847	0.000744	20.805103
1381.398273	-3.005800	3.417500	-10.272000	26.320137	0.000743	20.791799
1382.395142	-3.002400	3.417200	-10.259000	26.324235	0.000740	20.804927
1383.377825	-3.008100	3.417900	-10.279000	26.337195	0.000740	20.789503
1384.378206	-3.016200	3.416900	-10.305000	26.329671	0.000742	20.818925
1385.377467	-3.009700	3.415700	-10.279000	26.339955	0.000739	20.814562
1386.376562	-3.020500	3.414700	-10.312000	26.389242	0.000740	20.811940
1387.379492	-2.984500	3.415500	-10.192000	26.389665	0.000739	20.796243
1388.380653	-2.988900	3.415400	-10.207000	26.385616	0.000739	20.803554
1389.379045	-2.989400	3.414600	-10.207000	26.408212	0.000738	20.822944
1390.378272	-2.984700	3.413400	-10.188000	26.374590	0.000737	20.808593
1391.378648	-3.003600	3.413800	-10.252000	26.345811	0.000736	20.806222
1392.379348	-3.007400	3.412700	-10.261000	26.311172	0.000738	20.791325
1393.382830	-3.004500	3.412700	-10.252000	26.276354	0.000737	20.794266
1394.397952	-2.998600	3.411900	-10.230000	26.221600	0.000735	20.797563
1395.403458	-2.978600	3.413700	-10.167000	26.203691	0.000735	20.783360
1396.405754	-3.002000	3.411300	-10.240000	26.205476	0.000734	20.807440
1397.379669	-3.004500	3.411600	-10.250000	26.179851	0.000736	20.805398
1398.382554	-2.976800	3.411000	-10.153000	26.172027	0.000734	20.777146
1399.382670	-3.008400	3.410600	-10.258000	26.153649	0.000735	20.801353
1400.380792	-2.996900	3.410700	-10.220000	26.171675	0.000735	20.788647
1401.381046	-2.998300	3.410000	-10.223000	26.192339	0.000733	20.787599
1402.381459	-2.995800	3.409200	-10.212000	26.228646	0.000731	20.786152
1403.382360	-2.998900	3.409300	-10.224000	26.274192	0.000733	20.797309
1404.384257	-2.999800	3.408400	-10.224000	26.321246	0.000730	20.811880
1405.382812	-2.985900	3.408200	-10.176000	26.382304	0.000730	20.767508
1406.401162	-2.989700	3.409800	-10.194000	26.387941	0.000731	20.792614
1407.412874	-2.994500	3.407500	-10.203000	26.393078	0.000727	20.783078
1408.407483	-3.004600	3.405800	-10.232000	26.408424	0.000727	20.809407
1409.409882	-2.978800	3.406300	-10.144000	26.431392	0.000728	20.790292
1410.402934	-2.995500	3.405800	-10.201000	26.453438	0.000727	20.789217
1411.412059	-2.994700	3.406100	-10.199000	26.459549	0.000726	20.790618
1412.405728	-3.016900	3.405500	-10.273000	26.431589	0.000726	20.792387
1413.403078	-2.998800	3.404000	-10.207000	26.419546	0.000727	20.784550
1414.400978	-2.998800	3.405400	-10.211000	26.424756	0.000726	20.792632
1415.387305	-2.995100	3.404600	-10.197000	26.407252	0.000725	20.808703
1416.387255	-2.986600	3.404400	-10.166000	26.402260	0.000724	20.802738
1417.386945	-2.996000	3.402900	-10.194000	26.388804	0.000724	20.793007
1418.388516	-2.991300	3.403800	-10.181000	26.358758	0.000723	20.762335
1419.404152	-3.011900	3.401400	-10.244000	26.359652	0.000723	20.787416
1420.393876	-2.987200	3.401800	-10.161000	26.385445	0.000723	20.778726
1421.390309	-2.988900	3.402200	-10.168000	26.412607	0.000723	20.785637
1422.392466	-3.000300	3.400100	-10.201000	26.399151	0.000723	20.760733
1423.390259	-3.002700	3.399700	-10.208000	26.361853	0.000720	20.791525
1424.390281	-2.988400	3.401300	-10.163000	26.334662	0.000720	20.787905
1425.395780	-2.999400	3.399600	-10.196000	26.344894	0.000718	20.784912
1426.394300	-2.981800	3.399600	-10.136000	26.361927	0.000716	20.779271
1427.392747	-2.989000	3.400300	-10.162000	26.362248	0.000717	20.790025
1428.393174	-2.995100	3.397700	-10.175000	26.413196	0.000717	20.779590
1429.395557	-3.015500	3.398500	-10.247000	26.439935	0.000717	20.785602
1430.415144	-3.009500	3.396000	-10.219000	26.453045	0.000715	20.786926
1431.419733	-3.012800	3.395700	-10.230000	26.443138	0.000717	20.791193
1432.394813	-3.005000	3.398300	-10.211000	26.470274	0.000716	20.768207
1433.399303	-3.024500	3.396000	-10.270000	26.488746	0.000714	20.767807
1434.396008	-2.999400	3.396300	-10.186000	26.486408	0.000714	20.782054
1435.395734	-3.014600	3.395200	-10.233000	26.459199	0.000713	20.772722
1436.396458	-3.015100	3.395000	-10.235000	26.491847	0.000714	20.768554
1437.398205	-2.991900	3.395000	-10.157000	26.508182	0.000713	20.789240
1438.397701	-3.002700	3.393300	-10.188000	26.500360	0.000712	20.775214
1439.415362	-3.030800	3.392900	-10.282000	26.476379	0.000713	20.762015
1440.421147	-3.001800	3.395500	-10.192000	26.451722	0.000711	20.781328
1441.414360	-2.995900	3.395200	-10.171000	26.414676	0.000712	20.775387
1442.398640	-3.007800	3.393200	-10.205000	26.404445	0.000711	20.758940
1443.398242	-3.018900	3.392000	-10.238000	26.400372	0.000709	20.756743
1444.399961	-3.003300	3.391900	-10.186000	26.377403	0.000706	20.762582
1445.399338	-3.014700	3.392000	-10.225000	26.342589	0.000708	20.782596
1446.398169	-3.022600	3.390200	-10.246000	26.326397	0.000708	20.759210
1447.427757	-3.015800	3.390300	-10.223000	26.301444	0.000708	20.743615
1448.400077	-2.994000	3.390700	-10.151000	26.274227	0.000708	20.765101
1449.422767	-3.007600	3.390000	-10.194000	26.272041	0.000707	20.770016
1450.419128	-2.991800	3.389400	-10.139000	26.239136	0.000708	20.766821
1451.419355	-3.009300	3.389200	-10.198000	26.284727	0.000705	20.764274
1452.399789	-3.002800	3.389400	-10.177000	26.267347	0.000704	20.761032
1453.419130	-3.025500	3.388500	-10.251000	26.279787	0.000705	20.731333
1454.418655	-3.017500	3.386800	-10.218000	26.295505	0.000706	20.750923
1455.426166	-2.998900	3.388100	-10.160000	26.314251	0.000704	20.738941
1456.428660	-3.002700	3.388500	-10.173000	26.352987	0.000703	20.736620
1457.417059	-3.009200	3.386700	-10.190000	26.359839	0.000704	20.756309
1458.427494	-2.997900	3.387300	-10.154000	26.353607	0.000703	20.774702
1459.421071	-2.984000	3.387900	-10.109000	26.363289	0.000702	20.768312
1460.423958	-3.001000	3.385500	-10.159000	26.391919	0.000701	20.782862
1461.432830	-2.955300	3.386100	-10.005000	26.408502	0.000700	20.776769
1462.426022	-3.031900	3.383900	-10.259000	26.410815	0.000700	20.756808
1463.427469	-2.997400	3.384700	-10.144000	26.386378	0.000699	20.768758
1464.420908	-2.982700	3.385500	-10.096000	26.424193	0.000700	20.756030
1465.417850	-3.000000	3.383900	-10.151000	26.443782	0.000699	20.755329
1466.433317	-2.988200	3.383500	-10.109000	26.468460	0.000697	20.764487
1467.417362	-3.026000	3.381400	-10.231000	26.476779	0.000697	20.780909
1468.417470	-3.024900	3.382300	-10.231000	26.452147	0.000696	20.758995
1469.424517	-3.007500	3.383200	-10.175000	26.493385	0.000696	20.742124
1470.424694	-3.013100	3.382000	-10.188000	26.512426	0.000694	20.765057
1471.425721	-2.979800	3.382100	-10.077000	26.536807	0.000696	20.731716
1472.423604	-3.002900	3.381200	-10.153000	26.567615	0.000693	20.729968
1473.428302	-2.999200	3.381000	-10.140000	26.581045	0.000693	20.750107
1474.424391	-2.977200	3.381400	-10.067000	26.605618	0.000693	20.760585
1475.408296	-3.014100	3.378400	-10.182000	26.630943	0.000692	20.738628
1476.420902	-3.021500	3.379000	-10.208000	26.642211	0.000692	20.756593
1477.423579	-2.989100	3.380000	-10.102000	26.642630	0.000693	20.755592
1478.424436	-3.031300	3.376700	-10.234000	26.676438	0.000692	20.761130
1479.421127	-3.007400	3.378400	-10.159000	26.666361	0.000693	20.750525
1480.420831	-3.025100	3.378000	-10.218000	26.673460	0.000691	20.742963
1481.418893	-3.009400	3.378100	-10.164000	26.639624	0.000690	20.744510
1482.403867	-2.998800	3.378100	-10.129000	26.644464	0.000689	20.743211
1483.429393	-3.012200	3.376300	-10.169000	26.610850	0.000689	20.732652
1484.421849	-2.998400	3.376500	-10.123000	26.546975	0.000689	20.739092
1485.421759	-3.000400	3.375400	-10.127000	26.498188	0.000688	20.750745
1486.423902	-3.006000	3.376000	-10.147000	26.461143	0.000689	20.732949
1487.422565	-3.001600	3.374300	-10.127000	26.423006	0.000685	20.735395
1488.423360	-2.965100	3.376700	-10.011000	26.448973	0.000686	20.732571
1489.433430	-2.981400	3.377100	-10.068000	26.459500	0.000687	20.731297
1490.413270	-3.006400	3.374900	-10.145000	26.492767	0.000684	20.759996
1491.438429	-3.021100	3.373400	-10.190000	26.518265	0.000685	20.737735
1492.433629	-2.984300	3.375200	-10.071000	26.538225	0.000687	20.735512
1493.428578	-2.989100	3.374300	-10.085000	26.518015	0.000685	20.747441
1494.424617	-3.002100	3.372400	-10.123000	26.468207	0.000682	20.752852
1495.409294	-2.978400	3.375000	-10.052000	26.455047	0.000683	20.722080
1496.411898	-2.998900	3.371500	-10.110000	26.472548	0.000682	20.740145
1497.409194	-2.996700	3.372300	-10.105000	26.508797	0.000682	20.728217
1498.409973	-2.999600	3.371000	-10.111000	26.518404	0.000681	20.727916
1499.409338	-3.009400	3.372000	-10.147000	26.537962	0.000681	20.746629
1500.411503	-2.997400	3.370700	-10.102000	26.534614	0.000680	20.720503
1501.431082	-2.990000	3.370600	-10.077000	26.585949	0.000680	20.758356
1502.429949	-2.986400	3.370900	-10.065000	26.585280	0.000681	20.730181
1503.410995	-3.015000	3.370100	-10.160000	26.568968	0.000679	20.744605
1504.412963	-3.001500	3.368800	-10.110000	26.513554	0.000677	20.736318
1505.410786	-3.017700	3.367200	-10.159000	26.502553	0.000677	20.735692
1506.414210	-2.998000	3.367500	-10.094000	26.505982	0.000676	20.735819
1507.410549	-2.974800	3.368900	-10.020000	26.544363	0.000676	20.753063
1508.417532	-3.013600	3.367200	-10.147000	26.583559	0.000678	20.739358
1509.412459	-2.999800	3.367200	-10.099000	26.616003	0.000677	20.749213
1510.412665	-3.014400	3.366100	-10.145000	26.617443	0.000674	20.744971
1511.413043	-3.018900	3.365500	-10.158000	26.607091	0.000676	20.732193
1512.413807	-2.994600	3.365900	-10.078000	26.586904	0.000674	20.746514
1513.431392	-3.002200	3.365500	-10.103000	26.608774	0.000672	20.741472
1514.439267	-2.995300	3.365800	-10.081000	26.578291	0.000673	20.743545
1515.414087	-3.003400	3.365400	-10.107000	26.572029	0.000674	20.759537
1516.413582	-2.993200	3.364400	-10.068000	26.588606	0.000671	20.730206
1517.416465	-3.007200	3.363400	-10.113000	26.626093	0.000673	20.759831
1518.421365	-2.959000	3.365500	-9.956700	26.624358	0.000671	20.759035
1519.414455	-2.976500	3.363800	-10.012000	26.594389	0.000670	20.744555
1520.415843	-3.020200	3.362800	-10.155000	26.548956	0.000670	20.743929
1521.429922	-2.986600	3.362700	-10.042000	26.526684	0.000670	20.764691
1522.437260	-3.009400	3.361500	-10.114000	26.560570	0.000670	20.745172
1523.413841	-3.011800	3.362700	-10.127000	26.589220	0.000667	20.745996
1524.420345	-2.985400	3.362100	-10.036000	26.604335	0.000668	20.748863
1525.416248	-3.021400	3.359800	-10.150000	26.594722	0.000666	20.731139
1526.415952	-3.001200	3.359700	-10.080000	26.573250	0.000667	20.752229
1527.419100	-2.983200	3.359700	-10.021000	26.516893	0.000665	20.764331
1528.417858	-3.004600	3.359900	-10.093000	26.498989	0.000665	20.763879
1529.439621	-2.993100	3.359000	-10.053000	26.500974	0.000664	20.757814
1530.438562	-2.979300	3.359500	-10.008000	26.519119	0.000663	20.756611
1531.436026	-3.000700	3.359800	-10.081000	26.484211	0.000664	20.758508
1532.436505	-2.995400	3.359500	-10.062000	26.498659	0.000662	20.735097
1533.445805	-3.005200	3.358500	-10.091000	26.488007	0.000661	20.739089
1534.444291	-2.997400	3.355700	-10.057000	26.545130	0.000660	20.792242
1535.439138	-2.984200	3.359000	-10.022000	26.577181	0.000660	20.755232
1536.445517	-3.002600	3.357600	-10.080000	26.575439	0.000659	20.743049
1537.420730	-3.008800	3.356000	-10.096000	26.548106	0.000658	20.759670
1538.422372	-2.992200	3.357800	-10.046000	26.578266	0.000660	20.769600
1539.443594	-3.018500	3.355800	-10.128000	26.556547	0.000658	20.747766
1540.439834	-3.003900	3.355300	-10.078000	26.552101	0.000657	20.744720
1541.446912	-2.973400	3.357200	-9.980900	26.539634	0.000657	20.753051
1542.437619	-3.025500	3.353700	-10.145000	26.575902	0.000655	20.774335
1543.445796	-3.013900	3.354000	-10.108000	26.588890	0.000659	20.762735
1544.438474	-3.001400	3.354800	-10.068000	26.643178	0.000654	20.759937
1545.439350	-2.977100	3.355600	-9.989400	26.667057	0.000656	20.769244
1546.441529	-3.013400	3.352500	-10.102000	26.686989	0.000654	20.757988
1547.443796	-3.022500	3.351800	-10.130000	26.708956	0.000656	20.756364
1548.421130	-3.016400	3.351500	-10.107000	26.693167	0.000655	20.751870
1549.424769	-3.005600	3.351600	-10.072000	26.704286	0.000652	20.790550
1550.425011	-2.986400	3.353100	-10.013000	26.737697	0.000653	20.749697
1551.427796	-2.992100	3.351600	-10.028000	26.724393	0.000653	20.763823
1552.425085	-2.996400	3.351100	-10.040000	26.722627	0.000650	20.762522
1553.441500	-3.009600	3.349800	-10.078000	26.721163	0.000653	20.765791
1554.448866	-2.985900	3.351300	-10.006000	26.710167	0.000651	20.762798
1555.424869	-2.986400	3.349600	-10.000000	26.711579	0.000649	20.765165
1556.440610	-3.012900	3.348800	-10.089000	26.725629	0.000650	20.761747
1557.447318	-2.997900	3.347700	-10.036000	26.759284	0.000651	20.773298
1558.442083	-2.969600	3.348600	-9.942000	26.750150	0.000649	20.771227
1559.430171	-3.003500	3.347700	-10.054000	26.780777	0.000648	20.772148
1560.451887	-2.995500	3.348200	-10.028000	26.778542	0.000647	20.758995
1561.450410	-2.992700	3.347700	-10.018000	26.763624	0.000647	20.763910
1562.446192	-2.977100	3.348000	-9.966200	26.751014	0.000646	20.781104
1563.447829	-3.022600	3.345800	-10.111000	26.740983	0.000646	20.753950
1564.453673	-3.009400	3.345600	-10.068000	26.715143	0.000646	20.789611
1565.447331	-3.016900	3.344900	-10.090000	26.701392	0.000644	20.768200
1566.455033	-3.004900	3.346600	-10.054000	26.742719	0.000645	20.777506
1567.454296	-3.027200	3.343800	-10.121000	26.723059	0.000643	20.768646
1568.430132	-3.004400	3.345000	-10.049000	26.707169	0.000643	20.760731
1569.432973	-2.980700	3.345000	-9.968400	26.726653	0.000644	20.767044
1570.433136	-3.003500	3.342700	-10.039000	26.740231	0.000643	20.783541
1571.430739	-2.989900	3.344300	-9.997700	26.789821	0.000641	20.775551
1572.446722	-2.987000	3.343600	-9.986200	26.788332	0.000640	20.782589
1573.431303	-2.999200	3.342800	-10.025000	26.783912	0.000641	20.781938
1574.431858	-3.022600	3.342000	-10.100000	26.790092	0.000640	20.769660
1575.434907	-3.012600	3.342700	-10.069000	26.799050	0.000638	20.787201
1576.434133	-3.005200	3.340800	-10.039000	26.800662	0.000637	20.781709
1577.449208	-3.011300	3.341300	-10.061000	26.783459	0.000638	20.780061
1578.453296	-3.013300	3.341600	-10.068000	26.776385	0.000637	20.774845
1579.433496	-3.024500	3.338800	-10.097000	26.819744	0.000637	20.771972
1580.434175	-3.013900	3.338800	-10.062000	26.790900	0.000636	20.782326
1581.433779	-3.017400	3.339200	-10.074000	26.759651	0.000636	20.777935
1582.432747	-3.002300	3.339400	-10.025000	26.687169	0.000636	20.765755
1583.433138	-3.027900	3.338000	-10.105000	26.665597	0.000634	20.770621
1584.434390	-2.995200	3.338800	-9.999500	26.647523	0.000631	20.797022
1585.462509	-2.995000	3.337900	-9.995600	26.565477	0.000634	20.794676
1586.436473	-3.001700	3.338800	-10.021000	26.608970	0.000633	20.804733
1587.434197	-3.004800	3.337800	-10.029000	26.652508	0.000633	20.781171
1588.449392	-3.008300	3.337500	-10.038000	26.684531	0.000631	20.797717
1589.455758	-3.004700	3.336800	-10.026000	26.708831	0.000632	20.788007
1590.456926	-3.016000	3.336900	-10.063000	26.743802	0.000630	20.798510
1591.437914	-3.026700	3.334700	-10.092000	26.775825	0.000631	20.790877
1592.455048	-2.981400	3.336800	-9.946000	26.760383	0.000630	20.803800
1593.453850	-2.998500	3.336000	-10.003000	26.765746	0.000628	20.794494
1594.434673	-2.994100	3.336000	-9.987600	26.739952	0.000629	20.801752
1595.434719	-3.012800	3.335100	-10.047000	26.692965	0.000627	20.779643
1596.436073	-2.996500	3.334300	-9.988900	26.652127	0.000627	20.811133
1597.435423	-2.958000	3.334900	-9.862500	26.650043	0.000627	20.795762
1598.435135	-3.015600	3.334600	-10.056000	26.613297	0.000625	20.792486
1599.464319	-3.013800	3.333400	-10.046000	26.615584	0.000626	20.792415
1600.458167	-2.983100	3.332300	-9.938100	26.641498	0.000624	20.788120
1601.450001	-3.021200	3.331600	-10.065000	26.659519	0.000623	20.790115
1602.452317	-2.992800	3.331600	-9.968400	26.685682	0.000623	20.802667
1603.460587	-3.024100	3.331000	-10.072000	26.709908	0.000623	20.817539
1604.438880	-3.016500	3.330100	-10.044000	26.692704	0.000622	20.808304
1605.438925	-2.993800	3.330200	-9.967100	26.706228	0.000620	20.809572
1606.454516	-2.996900	3.330300	-9.979100	26.672492	0.000621	20.817855
1607.456909	-3.007300	3.330100	-10.014000	26.665244	0.000619	20.806302
1608.468203	-3.003000	3.329800	-9.997600	26.670827	0.000619	20.794845
1609.455190	-3.011500	3.329100	-10.024000	26.716175	0.000619	20.819573
1610.458151	-3.019100	3.328000	-10.046000	26.758051	0.000619	20.821844
1611.457947	-3.015400	3.327000	-10.031000	26.790240	0.000619	20.822439
1612.440072	-3.011100	3.327900	-10.020000	26.831638	0.000619	20.804794
1613.446993	-2.995000	3.328600	-9.967500	26.875493	0.000619	20.804794
1614.460378	-2.987000	3.327600	-9.938400	26.881346	0.000617	20.805938
1615.460093	-3.019500	3.326700	-10.043000	26.849105	0.000616	20.827572
1616.468514	-2.981800	3.327100	-9.919400	26.851934	0.000616	20.825201
1617.460888	-3.032200	3.324700	-10.080000	26.847586	0.000616	20.824148
1618.461280	-3.040100	3.323500	-10.103000	26.801821	0.000614	20.806108
1619.466129	-2.998200	3.324900	-9.968100	26.762404	0.000615	20.816738
1620.464588	-3.019200	3.324400	-10.036000	26.717148	0.000613	20.821499
1621.467171	-3.003400	3.324100	-9.982300	26.707490	0.000611	20.827910
1622.458037	-3.005800	3.324500	-9.991300	26.695302	0.000611	20.827985
1623.464418	-3.033300	3.320900	-10.072000	26.640070	0.000610	20.811340
1624.463262	-3.007800	3.323800	-9.996000	26.657568	0.000610	20.796214
1625.462128	-3.017400	3.321700	-10.022000	26.651288	0.000611	20.817876
1626.470030	-3.013700	3.321900	-10.011000	26.662975	0.000609	20.815875
1627.465926	-3.008600	3.322400	-9.994600	26.688619	0.000610	20.831224
1628.466840	-3.017600	3.320800	-10.020000	26.708252	0.000608	20.815875
1629.464017	-3.016500	3.320200	-10.013000	26.744866	0.000607	20.824236
1630.464806	-3.002000	3.321300	-9.969100	26.780557	0.000607	20.834515
1631.458428	-2.999400	3.320400	-9.958000	26.752708	0.000607	20.830223
1632.469727	-3.000500	3.320100	-9.961000	26.721406	0.000607	20.822460
1633.461402	-3.012000	3.319400	-9.997200	26.717781	0.000604	20.854850
1634.464288	-2.996500	3.320400	-9.948200	26.725897	0.000605	20.820812
1635.444928	-3.005900	3.318000	-9.973100	26.745804	0.000603	20.814273
1636.469484	-3.009600	3.317100	-9.981500	26.759604	0.000603	20.830518
1637.450883	-2.994800	3.319600	-9.940300	26.805124	0.000602	20.827447
1638.446464	-2.989500	3.318900	-9.920800	26.821084	0.000602	20.847760
1639.449525	-2.995700	3.317600	-9.935600	26.809316	0.000603	20.833558
1640.462834	-3.001900	3.317000	-9.955900	26.791173	0.000600	20.830964
1641.446634	-3.018700	3.316000	-10.008000	26.792810	0.000600	20.833084
1642.446933	-3.008400	3.316100	-9.975100	26.778065	0.000602	20.843388
1643.446753	-3.012900	3.316200	-9.990500	26.794496	0.000598	20.827193
1644.448008	-3.023300	3.314400	-10.019000	26.837361	0.000599	20.833781
1645.463485	-2.975700	3.317200	-9.869900	26.852002	0.000599	20.834278
1646.466002	-2.986800	3.316200	-9.904100	26.907346	0.000599	20.827813
1647.475845	-3.032300	3.314100	-10.049000	26.915834	0.000596	20.823546
1648.471805	-2.998100	3.314700	-9.936700	26.935986	0.000597	20.824370
1649.447952	-3.016500	3.313000	-9.993400	26.962065	0.000596	20.838740
1650.452504	-3.005200	3.313800	-9.958100	26.955190	0.000595	20.837516
1651.448862	-3.000300	3.313800	-9.941200	26.981592	0.000595	20.834669
1652.469061	-3.001200	3.311700	-9.937600	27.005910	0.000594	20.853907
1653.472567	-3.000500	3.312500	-9.938300	27.014520	0.000593	20.839807
1654.470308	-2.994300	3.312100	-9.917200	26.997642	0.000595	20.840378
1655.465299	-2.985900	3.311400	-9.885400	26.994268	0.000593	20.860217
1656.477540	-2.991200	3.310700	-9.900800	27.019975	0.000591	20.829172
1657.477998	-2.999300	3.310400	-9.927500	27.012009	0.000591	20.845816
1658.466701	-3.010500	3.310000	-9.964000	26.997839	0.000590	20.853378
1659.474118	-2.994300	3.309600	-9.908500	26.971235	0.000591	20.863133
1660.467124	-2.997200	3.310100	-9.918400	26.969297	0.000590	20.854546
1661.471029	-2.995800	3.308600	-9.911100	26.966468	0.000588	20.848383
1662.450991	-3.010200	3.308400	-9.956500	26.947560	0.000588	20.847388
1663.453704	-3.011600	3.308700	-9.963700	27.006817	0.000589	20.857190
1664.450914	-2.992100	3.308100	-9.897400	27.002401	0.000587	20.879774
1665.452710	-2.988000	3.308800	-9.885500	27.034608	0.000587	20.847680
1666.454747	-2.998300	3.307100	-9.914300	27.029246	0.000586	20.854615
1667.456827	-2.997400	3.308000	-9.914300	27.066495	0.000587	20.844187
1668.453500	-3.011200	3.305900	-9.952900	27.033785	0.000585	20.870085
1669.453685	-2.987000	3.307200	-9.877700	27.044432	0.000584	20.870835
1670.453678	-3.017200	3.304900	-9.969600	27.058151	0.000584	20.868511
1671.454915	-2.987700	3.306600	-9.878300	27.101449	0.000582	20.844253
1672.463655	-3.005700	3.305700	-9.935100	27.098347	0.000584	20.873373
1673.455046	-3.001400	3.305800	-9.920700	27.086464	0.000583	20.864269
1674.457109	-2.996000	3.304800	-9.900400	27.138891	0.000581	20.866736
1675.454599	-3.002600	3.304600	-9.921600	27.147747	0.000582	20.858574
1676.454898	-3.008400	3.304200	-9.939000	27.133875	0.000580	20.865958
1677.473196	-3.006500	3.302100	-9.926700	27.123180	0.000581	20.880805
1678.486784	-2.994800	3.302600	-9.889300	27.104517	0.000577	20.871044
1679.472297	-3.006400	3.301700	-9.925000	27.077693	0.000579	20.866352
1680.483363	-2.982500	3.303200	-9.850200	27.091691	0.000578	20.873318
1681.480444	-2.989400	3.301900	-9.869900	27.114516	0.000577	20.878255
1682.479361	-3.004500	3.301600	-9.918500	27.120466	0.000577	20.870016
1683.476112	-2.987000	3.301400	-9.859800	27.148852	0.000576	20.881968
1684.473733	-2.997100	3.300800	-9.891000	27.158801	0.000575	20.881070
1685.474866	-2.979200	3.300600	-9.832500	27.116495	0.000574	20.898262
1686.483587	-3.004900	3.299900	-9.914000	27.079370	0.000576	20.873255
1687.476625	-3.005700	3.299700	-9.916300	27.090288	0.000574	20.865269
1688.477069	-2.993400	3.299500	-9.875800	27.092048	0.000572	20.887426
1689.460333	-2.996500	3.299900	-9.886600	27.071501	0.000573	20.871979
1690.461171	-2.997600	3.298400	-9.885700	27.091324	0.000573	20.900448
1691.459607	-2.991400	3.298400	-9.865900	27.079584	0.000573	20.888642
1692.459060	-3.016400	3.296800	-9.943400	27.109782	0.000570	20.890089
1693.459684	-2.976300	3.297600	-9.814100	27.114993	0.000570	20.917612
1694.462536	-3.013400	3.297000	-9.934200	27.150872	0.000571	20.901068
1695.459949	-3.017500	3.295400	-9.942300	27.170546	0.000567	20.899993
1696.459250	-2.975500	3.296500	-9.807000	27.199700	0.000567	20.887117
1697.460255	-3.005800	3.295800	-9.905500	27.189254	0.000568	20.885147
1698.459770	-2.999100	3.296000	-9.884200	27.210789	0.000567	20.893529
1699.475363	-2.998300	3.294100	-9.874900	27.225646	0.000567	20.897567
1700.476513	-3.009300	3.293700	-9.910500	27.232221	0.000566	20.893750
1701.477400	-3.003400	3.292700	-9.889000	27.226488	0.000565	20.903155
1702.459501	-2.982100	3.294600	-9.824300	27.195772	0.000566	20.885064
1703.460776	-3.004700	3.293500	-9.894200	27.135109	0.000565	20.900387
1704.462323	-2.999500	3.293200	-9.876100	27.097393	0.000565	20.894698
1705.462123	-3.007100	3.293300	-9.901700	27.036792	0.000563	20.912935
1706.460564	-3.004200	3.292000	-9.888300	26.987658	0.000563	20.882018
1707.461912	-3.022400	3.290500	-9.943700	26.959639	0.000563	20.915479
1708.479370	-2.995600	3.291700	-9.858800	26.973214	0.000560	20.890252
1709.461816	-3.003500	3.290600	-9.881500	26.976164	0.000561	20.914553
1710.480428	-3.010800	3.289300	-9.902200	27.021705	0.000557	20.909142
1711.477479	-3.021200	3.290100	-9.938900	27.066619	0.000560	20.899309
1712.462418	-2.997400	3.289800	-9.858800	27.090760	0.000558	20.889450
1713.491940	-3.028600	3.288700	-9.959100	27.126442	0.000559	20.911584
1714.484935	-3.011200	3.288300	-9.901200	27.097733	0.000557	20.906418
1715.493592	-2.993400	3.289900	-9.846300	27.045523	0.000556	20.906068
1716.495269	-2.995400	3.289200	-9.851200	27.046417	0.000555	20.930198
1717.489062	-2.988200	3.288100	-9.823700	27.083838	0.000555	20.895765
1718.488417	-3.001800	3.287900	-9.868600	27.112918	0.000555	20.909362
1719.489194	-3.018300	3.288100	-9.923500	27.141950	0.000555	20.913905
1720.488842	-2.998800	3.286200	-9.854300	27.151900	0.000554	20.909213
1721.488523	-2.997500	3.285300	-9.845600	27.181548	0.000554	20.896834
1722.485422	-2.994800	3.286500	-9.841400	27.160731	0.000552	20.910983
1723.487169	-2.989900	3.286000	-9.824200	27.122270	0.000551	20.907389
1724.483989	-3.012900	3.284600	-9.895400	27.106071	0.000551	20.894891
1725.482868	-3.001000	3.285400	-9.858300	27.115201	0.000551	20.910236
1726.467168	-2.979700	3.284800	-9.786000	27.125173	0.000551	20.913627
1727.487802	-3.022300	3.283600	-9.922900	27.178346	0.000549	20.914950
1728.489570	-2.991000	3.284100	-9.821400	27.203208	0.000550	20.908188
1729.486987	-2.997700	3.282700	-9.839300	27.244269	0.000548	20.926728
1730.485784	-2.990100	3.283700	-9.817300	27.206557	0.000548	20.914401
1731.470743	-2.987600	3.283500	-9.809700	27.178766	0.000547	20.936232
1732.480510	-3.014100	3.281600	-9.890700	27.145220	0.000545	20.917193
1733.483041	-2.980400	3.282500	-9.781800	27.110533	0.000546	20.933040
1734.489647	-3.006200	3.281400	-9.864100	27.092418	0.000544	20.921934
1735.468077	-2.985900	3.280300	-9.793600	27.089118	0.000546	20.919090
1736.484728	-2.984500	3.281000	-9.790800	27.084104	0.000544	20.943443
1737.490232	-3.021500	3.279500	-9.907900	27.081945	0.000544	20.925625
1738.488432	-3.002200	3.279800	-9.845400	27.075939	0.000543	20.920534
1739.490193	-3.004600	3.277900	-9.848000	27.088742	0.000544	20.922505
1740.485984	-2.991200	3.279000	-9.806100	27.067255	0.000542	20.944515
1741.488801	-3.009200	3.278500	-9.865100	27.036880	0.000540	20.918712
1742.490228	-3.020300	3.277200	-9.896900	27.022437	0.000541	20.917464
1743.485065	-3.018700	3.276900	-9.890800	26.990079	0.000540	20.921907
1744.486809	-3.015900	3.275800	-9.878100	26.938656	0.000539	20.915716
1745.469587	-3.006100	3.276400	-9.848400	26.958411	0.000539	20.934156
1746.468509	-3.009900	3.277100	-9.862900	27.003029	0.000538	20.923076
1747.472018	-3.016500	3.276700	-9.882700	27.038292	0.000537	20.912546
1748.469932	-3.001300	3.275500	-9.829500	27.093452	0.000537	20.888364
1749.471482	-2.985300	3.276400	-9.780100	27.107943	0.000537	20.934702
1750.471894	-2.998500	3.275900	-9.820100	27.119308	0.000536	20.921951
1751.470630	-2.974100	3.276300	-9.743200	27.165955	0.000534	20.909126
1752.471811	-3.017400	3.273600	-9.876500	27.193372	0.000536	20.900192
1753.471869	-2.985900	3.274300	-9.775200	27.144639	0.000534	20.911868
1754.490368	-2.997000	3.275000	-9.813700	27.124047	0.000534	20.906331
1755.495279	-3.013900	3.273200	-9.863400	27.115758	0.000532	20.908425
1756.493123	-2.990700	3.272900	-9.786200	27.119031	0.000530	20.906502
1757.497351	-2.983600	3.273300	-9.765400	27.083622	0.000531	20.910719
1758.498888	-2.974300	3.273500	-9.735700	27.028210	0.000531	20.900038
1759.497873	-3.003000	3.272600	-9.826700	26.999276	0.000531	20.884218
1760.489428	-2.984500	3.272500	-9.766300	27.043695	0.000529	20.899015
1761.500124	-3.016200	3.269600	-9.860200	27.079253	0.000527	20.901110
1762.498034	-3.003100	3.271800	-9.823600	27.075829	0.000529	20.903356
1763.478848	-2.989000	3.270100	-9.773800	27.101042	0.000529	20.888411
1764.505363	-3.006200	3.269500	-9.828000	27.100195	0.000525	20.896093
1765.475932	-3.002900	3.269500	-9.816500	27.125379	0.000525	20.895818
1766.474776	-3.010800	3.268400	-9.839600	27.100442	0.000526	20.905824
1767.490592	-3.003100	3.269200	-9.816600	27.120667	0.000524	20.914785
1768.496184	-3.002700	3.268100	-9.812500	27.131086	0.000524	20.896815
1769.503406	-3.012700	3.267000	-9.841400	27.133196	0.000523	20.902257
1770.498271	-2.988500	3.267800	-9.764900	27.165374	0.000524	20.878672
1771.500010	-3.013900	3.267300	-9.846300	27.203759	0.000521	20.912061
1772.506112	-3.010700	3.264400	-9.827000	27.210011	0.000520	20.904600
1773.500499	-2.993500	3.266500	-9.778100	27.232836	0.000520	20.892471
1774.501813	-2.994600	3.266800	-9.781500	27.215967	0.000520	20.909167
1775.500052	-2.987700	3.265900	-9.756600	27.224348	0.000519	20.878245
1776.498087	-3.020700	3.264600	-9.860300	27.211275	0.000519	20.892595
1777.504047	-3.005500	3.264900	-9.810500	27.214774	0.000519	20.893271
1778.478994	-2.974500	3.264800	-9.710100	27.249507	0.000518	20.875103
1779.481622	-3.000800	3.264100	-9.792800	27.247920	0.000518	20.882515
1780.480158	-2.988400	3.263600	-9.752000	27.249705	0.000515	20.886680
1781.483993	-3.003200	3.262300	-9.795200	27.249979	0.000516	20.879844
1782.480729	-3.027600	3.262100	-9.874800	27.184426	0.000515	20.883135
1783.511749	-3.012300	3.261400	-9.824000	27.178199	0.000515	20.875450
1784.481790	-3.007000	3.261900	-9.807900	27.205689	0.000512	20.870858
1785.504536	-3.021200	3.259800	-9.846300	27.232014	0.000512	20.871732
1786.501040	-3.001500	3.262400	-9.790300	27.240296	0.000512	20.889070
1787.507206	-3.031100	3.259700	-9.878900	27.227944	0.000511	20.877121
1788.506715	-2.986000	3.259400	-9.731000	27.209038	0.000511	20.886553
1789.506938	-2.992500	3.261100	-9.757800	27.217844	0.000510	20.867437
1790.499928	-2.997000	3.258500	-9.765400	27.250889	0.000509	20.867958
1791.501473	-3.003000	3.259600	-9.787500	27.283340	0.000509	20.879737
1792.498878	-3.008800	3.258900	-9.804000	27.356672	0.000507	20.878113
1793.503245	-3.005000	3.258800	-9.791300	27.402764	0.000507	20.861894
1794.501962	-2.968600	3.258500	-9.670800	27.437244	0.000508	20.877614
1795.484665	-2.994500	3.257700	-9.754600	27.461502	0.000507	20.864562
1796.507498	-2.994800	3.257900	-9.755600	27.504666	0.000506	20.868159
1797.499287	-3.000800	3.258500	-9.776400	27.514807	0.000506	20.871249
1798.504326	-3.009400	3.254800	-9.793600	27.502526	0.000504	20.875489
1799.503750	-2.986100	3.256200	-9.722600	27.512522	0.000503	20.877485
1800.500493	-3.004700	3.256000	-9.781600	27.513590	0.000503	20.890887
1801.509381	-2.985900	3.256200	-9.721900	27.526413	0.000504	20.859220
1802.485155	-3.002000	3.254500	-9.768700	27.531469	0.000503	20.900339
1803.488503	-3.011600	3.254000	-9.799100	27.489057	0.000502	20.874739
1804.486156	-2.990600	3.255400	-9.734600	27.463158	0.000500	20.900838
1805.485945	-3.001300	3.254000	-9.765200	27.447704	0.000499	20.859689
1806.486218	-3.015100	3.253800	-9.809000	27.437088	0.000500	20.878406
1807.485326	-3.015000	3.253000	-9.807100	27.398265	0.000497	20.864006
1808.485287	-2.998200	3.254600	-9.757400	27.400148	0.000499	20.853098
1809.485573	-3.004900	3.253600	-9.775300	27.402877	0.000497	20.906574
1810.486328	-3.012700	3.251100	-9.793500	27.447750	0.000494	20.888183
1811.502788	-3.033100	3.251800	-9.861300	27.498450	0.000497	20.875655
1812.487619	-2.986400	3.251600	-9.709200	27.518416	0.000495	20.870139
1813.485936	-3.019000	3.250700	-9.812600	27.491181	0.000493	20.891100
1814.514267	-3.003900	3.249700	-9.759700	27.460919	0.000492	20.872984
1815.514110	-2.987800	3.251300	-9.712400	27.456724	0.000495	20.858807
1816.502928	-3.019400	3.248100	-9.806300	27.443876	0.000492	20.854416
1817.511287	-3.013000	3.248200	-9.784900	27.443503	0.000492	20.862575
1818.487502	-2.998300	3.248600	-9.739100	27.469871	0.000490	20.850223
1819.487359	-3.004300	3.247800	-9.755600	27.480736	0.000493	20.875851
1820.487607	-3.025800	3.247200	-9.823900	27.504547	0.000490	20.864720
1821.488017	-2.999700	3.246900	-9.739300	27.486912	0.000489	20.857884
1822.490650	-3.007500	3.247200	-9.764900	27.486213	0.000488	20.871879
1823.487877	-3.019100	3.246300	-9.800100	27.517093	0.000488	20.853636
1824.489902	-3.031800	3.245300	-9.838100	27.489562	0.000485	20.860075
1825.513475	-3.011300	3.246200	-9.773600	27.480309	0.000484	20.849818
1826.504528	-3.022600	3.245100	-9.807100	27.502062	0.000486	20.845151
1827.504615	-3.014800	3.244900	-9.782000	27.519375	0.000486	20.846924
1828.489769	-2.985100	3.245500	-9.687000	27.535769	0.000483	20.850615
1829.491345	-3.013700	3.243200	-9.772600	27.529121	0.000485	20.850565
1830.491019	-2.973200	3.244300	-9.645200	27.503895	0.000483	20.837513
1831.491475	-2.985900	3.243600	-9.684200	27.540133	0.000482	20.845050
1832.491349	-3.004100	3.244200	-9.745000	27.566945	0.000481	20.864439
1833.491360	-2.996000	3.242800	-9.714900	27.601094	0.000482	20.841902
1834.491767	-3.011900	3.242700	-9.764500	27.622502	0.000479	20.842580
1835.492305	-2.989900	3.242400	-9.693400	27.594995	0.000478	20.849989
1836.515543	-3.000100	3.242400	-9.726500	27.594549	0.000477	20.849066
1837.493406	-2.986000	3.241500	-9.676800	27.616522	0.000477	20.843200
1838.493931	-3.002200	3.241200	-9.729300	27.624234	0.000476	20.860443
1839.519624	-3.003200	3.239000	-9.726800	27.652236	0.000478	20.865385
1840.518546	-3.006900	3.240600	-9.743100	27.666372	0.000476	20.842627
1841.514876	-2.990300	3.239700	-9.686900	27.658312	0.000475	20.841629
1842.509360	-3.020400	3.239300	-9.782800	27.633439	0.000475	20.843153
1843.510941	-2.981700	3.240300	-9.660400	27.564759	0.000473	20.839956
1844.509551	-3.013300	3.237200	-9.752400	27.561614	0.000474	20.848644
1845.519352	-2.989400	3.238400	-9.679100	27.508309	0.000471	20.850963
1846.512966	-2.992000	3.237400	-9.685400	27.541372	0.000472	20.842028
1847.520288	-3.042100	3.236900	-9.845700	27.566570	0.000469	20.852683
1848.509581	-2.984300	3.237900	-9.662800	27.605237	0.000471	20.845121
1849.498145	-3.001800	3.234600	-9.708200	27.585669	0.000469	20.838235
1850.519137	-2.995300	3.237600	-9.696500	27.573094	0.000468	20.845496
1851.518442	-3.014700	3.233900	-9.747300	27.561115	0.000468	20.843875
1852.511245	-3.000300	3.234300	-9.702500	27.606946	0.000469	20.845419
1853.516686	-2.982400	3.234000	-9.644100	27.612730	0.000468	20.842704
1854.513402	-3.006900	3.233200	-9.720700	27.636362	0.000466	20.848939
1855.521537	-3.016800	3.232300	-9.750100	27.645685	0.000465	20.842200
1856.516885	-3.008900	3.232100	-9.723500	27.654466	0.000465	20.824483
1857.517657	-3.002900	3.232300	-9.705500	27.631028	0.000464	20.845469
1858.520225	-3.019000	3.230800	-9.752300	27.656175	0.000465	20.843746
1859.522347	-3.000800	3.231500	-9.695600	27.666791	0.000462	20.859643
1860.528803	-2.990900	3.231200	-9.661500	27.706495	0.000462	20.844121
1861.515481	-2.975300	3.231600	-9.613600	27.759836	0.000460	20.841375
1862.518807	-2.972400	3.231700	-9.604900	27.777790	0.000461	20.845692
1863.528279	-2.997100	3.231500	-9.684600	27.788205	0.000459	20.841949
1864.525750	-3.015800	3.229500	-9.738700	27.802564	0.000458	20.839330
1865.527216	-3.019900	3.230000	-9.753400	27.811934	0.000459	20.845441
1866.503202	-3.015100	3.229100	-9.735300	27.774445	0.000456	20.848016
1867.522192	-3.003000	3.229300	-9.695900	27.744734	0.000457	20.836135
1868.528733	-2.989100	3.230000	-9.654500	27.691168	0.000455	20.826801
1869.524343	-3.017200	3.227800	-9.737500	27.656869	0.000454	20.826426
1870.521880	-2.991100	3.228600	-9.656400	27.624976	0.000457	20.828000
1871.519646	-3.019500	3.226300	-9.740700	27.575270	0.000453	20.838677
1872.519519	-3.000800	3.227700	-9.684900	27.571702	0.000453	20.815648
1873.521609	-3.014600	3.225400	-9.721200	27.626313	0.000453	20.834561
1874.526483	-2.975300	3.226200	-9.597600	27.668350	0.000450	20.809531
1875.520721	-3.001300	3.224900	-9.678400	27.672591	0.000451	20.831816
1876.524374	-2.999000	3.223800	-9.667000	27.700739	0.000450	20.856346
1877.529918	-3.000400	3.224000	-9.671100	27.723924	0.000449	20.853124
1878.508006	-2.984700	3.225900	-9.626900	27.761494	0.000449	20.833087
1879.505679	-3.005500	3.223400	-9.686900	27.757823	0.000446	20.828444
1880.504788	-2.981600	3.222800	-9.607800	27.756736	0.000448	20.847264
1881.510181	-2.993100	3.223800	-9.647300	27.748203	0.000445	20.816866
1882.505238	-3.010700	3.224500	-9.707200	27.735081	0.000444	20.833533
1883.506152	-2.986700	3.221600	-9.620900	27.722488	0.000446	20.842671
1884.505005	-3.004800	3.221200	-9.677700	27.727915	0.000443	20.830115
1885.522033	-2.979900	3.222000	-9.600000	27.727022	0.000441	20.834432
1886.524177	-2.990600	3.221400	-9.632500	27.679013	0.000443	20.822631
1887.527637	-3.020100	3.219400	-9.721800	27.652176	0.000441	20.838774
1888.523610	-3.001100	3.219400	-9.660800	27.642628	0.000440	20.837227
1889.528282	-3.042600	3.218100	-9.789900	27.680352	0.000440	20.818763
1890.530525	-2.996100	3.221300	-9.650100	27.702446	0.000439	20.839099
1891.521297	-2.979100	3.222300	-9.597700	27.722012	0.000437	20.830813
1892.511526	-3.024300	3.216600	-9.726200	27.769227	0.000438	20.853670
1893.507077	-3.006300	3.218100	-9.673400	27.757004	0.000436	20.827146
1894.508547	-3.020100	3.216500	-9.713300	27.810393	0.000437	20.805958
1895.506459	-3.003200	3.216300	-9.658700	27.819539	0.000434	20.833655
1896.506127	-3.009400	3.216600	-9.677600	27.839401	0.000434	20.825195
1897.528635	-3.008900	3.216600	-9.677200	27.823382	0.000433	20.840841
1898.532016	-3.010800	3.214500	-9.675900	27.859311	0.000431	20.827690
1899.521797	-3.016400	3.215000	-9.695700	27.887035	0.000431	20.830462
1900.522287	-3.021200	3.215000	-9.711400	27.923182	0.000431	20.815635
1901.529042	-3.011600	3.213500	-9.677000	27.931338	0.000431	20.825267
1902.525297	-2.984900	3.215200	-9.596000	27.911180	0.000428	20.817780
1903.530394	-2.993200	3.212700	-9.614100	27.842425	0.000430	20.847678
1904.524046	-3.010900	3.212700	-9.671300	27.784694	0.000428	20.825140
1905.528123	-2.994800	3.213100	-9.621600	27.750820	0.000427	20.836569
1906.527884	-2.972500	3.213000	-9.549300	27.741221	0.000426	20.838289
1907.526721	-2.991000	3.212600	-9.606600	27.770110	0.000426	20.825636
1908.526680	-2.999600	3.211800	-9.633200	27.749478	0.000424	20.820520
1909.526832	-3.002900	3.210100	-9.638500	27.764306	0.000426	20.838287
1910.530853	-2.992100	3.212700	-9.611600	27.766713	0.000423	20.825537
1911.510907	-2.980800	3.211100	-9.570800	27.811320	0.000423	20.817797
1912.507182	-3.008500	3.209100	-9.654300	27.809487	0.000422	20.827332
1913.508526	-3.016400	3.210700	-9.683600	27.751135	0.000419	20.811757
1914.511374	-2.997000	3.209400	-9.617700	27.679340	0.000419	20.803046
1915.508282	-2.990900	3.209400	-9.597900	27.663966	0.000419	20.810335
1916.514949	-2.994400	3.208700	-9.607200	27.659897	0.000418	20.800077
1917.528834	-3.022800	3.207200	-9.694000	27.653323	0.000419	20.826177
1918.523663	-3.019500	3.206600	-9.680600	27.702229	0.000417	20.806638
1919.525956	-3.005000	3.206200	-9.634000	27.747385	0.000417	20.812725
1920.527080	-3.000200	3.205300	-9.614800	27.778460	0.000416	20.813177
1921.507730	-3.005400	3.207300	-9.638400	27.763208	0.000415	20.811578
1922.509830	-2.999100	3.205400	-9.612100	27.761348	0.000412	20.793585
1923.525725	-2.995900	3.203500	-9.596100	27.744509	0.000412	20.823107
1924.509248	-2.978400	3.204500	-9.542700	27.749369	0.000411	20.800496
1925.542829	-3.030700	3.204400	-9.710000	27.740863	0.000412	20.820386
1926.536804	-2.960500	3.205800	-9.489600	27.766082	0.000412	20.800246
1927.526887	-3.012100	3.203300	-9.646700	27.801046	0.000409	20.837802
1928.530743	-2.999400	3.202900	-9.606000	27.827405	0.000410	20.817389
1929.528719	-2.988500	3.202100	-9.566900	27.836576	0.000409	20.810024
1930.532853	-2.986600	3.202200	-9.562700	27.804018	0.000406	20.793379
1931.509009	-3.036900	3.201700	-9.721800	27.809398	0.000406	20.799742
1932.530458	-3.022000	3.202900	-9.678800	27.751520	0.000405	20.818308
1933.530867	-2.993500	3.200900	-9.580800	27.676281	0.000405	20.816089
1934.543813	-2.984100	3.201300	-9.552300	27.691033	0.000403	20.801536
1935.513766	-3.000800	3.199600	-9.600600	27.689047	0.000404	20.817556
1936.512787	-2.994400	3.199000	-9.578600	27.690661	0.000403	20.802110
1937.510873	-2.984300	3.198300	-9.543200	27.756626	0.000400	20.791678
1938.532472	-2.998000	3.199100	-9.589600	27.750378	0.000402	20.792503
1939.511371	-2.982800	3.198900	-9.540700	27.782611	0.000399	20.786535
1940.511139	-2.990800	3.197000	-9.559600	27.759946	0.000399	20.791227
1941.513864	-3.013800	3.197500	-9.634500	27.786085	0.000398	20.792401
1942.530952	-3.005000	3.196700	-9.603900	27.829427	0.000399	20.799985
1943.545709	-2.967900	3.198100	-9.490700	27.850677	0.000399	20.801931
1944.527976	-3.000600	3.196500	-9.590800	27.833966	0.000396	20.797440
1945.537490	-2.987500	3.196100	-9.547300	27.850576	0.000395	20.805148
1946.514631	-3.034500	3.193400	-9.688200	27.872842	0.000395	20.795315
1947.514629	-3.021400	3.194800	-9.651500	27.856299	0.000392	20.802373
1948.529974	-2.991100	3.194900	-9.555200	27.858857	0.000394	20.805421
1949.534621	-3.016100	3.192100	-9.626100	27.815858	0.000393	20.796760
1950.534192	-2.977200	3.195500	-9.510600	27.795076	0.000391	20.787699
1951.534334	-2.972400	3.193900	-9.493200	27.797927	0.000390	20.781086
1952.535028	-2.985300	3.193100	-9.531400	27.798818	0.000390	20.799525
1953.529966	-2.986400	3.192500	-9.531700	27.816672	0.000390	20.792838
1954.535465	-3.008600	3.190500	-9.597400	27.814388	0.000389	20.775840
1955.534812	-3.021700	3.188500	-9.633200	27.791797	0.000386	20.770175
1956.522155	-3.013100	3.190000	-9.611000	27.772579	0.000386	20.798724
1957.519068	-3.001300	3.190600	-9.575100	27.777712	0.000386	20.790139
1958.520830	-3.031200	3.190800	-9.670800	27.772552	0.000383	20.783997
1959.520026	-2.983800	3.191100	-9.520900	27.772478	0.000384	20.801941
1960.535804	-2.996500	3.189000	-9.554600	27.781181	0.000385	20.787466
1961.537802	-2.984400	3.187800	-9.512700	27.806275	0.000383	20.790435
1962.536409	-2.988300	3.188400	-9.527100	27.838162	0.000381	20.775584
1963.519940	-2.980000	3.188600	-9.500900	27.848080	0.000380	20.783196
1964.519444	-2.995000	3.189000	-9.550600	27.851254	0.000380	20.784494
1965.540798	-3.002800	3.186000	-9.566000	27.901363	0.000380	20.782769
1966.534738	-3.026200	3.185400	-9.638900	27.952166	0.000380	20.774633
1967.540716	-2.963300	3.186700	-9.442300	27.957050	0.000377	20.794722
1968.540150	-2.980100	3.187400	-9.498100	27.918048	0.000376	20.779648
1969.537950	-3.021600	3.183300	-9.617500	27.951148	0.000376	20.793049
1970.548717	-3.006000	3.184000	-9.571000	27.985982	0.000376	20.788756
1971.542793	-2.991100	3.184500	-9.524200	28.030185	0.000374	20.795318
1972.539559	-3.002200	3.182200	-9.552700	28.023911	0.000372	20.789951
1973.544860	-3.033200	3.181200	-9.646500	27.985484	0.000373	20.767392
1974.538765	-2.985500	3.182700	-9.500800	27.902376	0.000371	20.775728
1975.538422	-3.001800	3.182600	-9.552500	27.894861	0.000370	20.753939
1976.540156	-3.019000	3.182300	-9.605400	27.879783	0.000371	20.791870
1977.539002	-3.014300	3.179500	-9.583200	27.876337	0.000370	20.776548
1978.538930	-3.000500	3.182300	-9.548200	27.842069	0.000368	20.766240
1979.543603	-3.012300	3.180500	-9.580300	27.888709	0.000369	20.754860
1980.546443	-3.001800	3.180700	-9.547600	27.867236	0.000368	20.773077
1981.540525	-3.003600	3.178800	-9.546900	27.859944	0.000366	20.765264
1982.549521	-3.015200	3.177600	-9.580000	27.857241	0.000364	20.781984
1983.554855	-3.007400	3.178300	-9.556900	27.845066	0.000364	20.752186
1984.540384	-3.008100	3.177400	-9.557200	27.889721	0.000363	20.769629
1985.546274	-2.965600	3.177900	-9.423300	27.935217	0.000364	20.767531
1986.550289	-2.992800	3.175500	-9.502500	27.961127	0.000360	20.775592
1987.542429	-2.999000	3.177600	-9.528200	28.003002	0.000363	20.756576
1988.529689	-2.984700	3.176700	-9.480100	27.994942	0.000360	20.778335
1989.526532	-2.985100	3.175400	-9.477600	27.943248	0.000360	20.775140
1990.534585	-3.005100	3.175800	-9.542100	27.907667	0.000359	20.777734
1991.529452	-3.033300	3.172900	-9.623200	27.857357	0.000358	20.765980
1992.528386	-3.010100	3.171400	-9.545000	27.801564	0.000357	20.776210
1993.531488	-3.005200	3.173300	-9.535500	27.816961	0.000357	20.761360
1994.554544	-3.013900	3.174000	-9.565300	27.882171	0.000355	20.757288
1995.546124	-3.016000	3.170800	-9.562300	27.943440	0.000353	20.770592
1996.551908	-2.956800	3.172400	-9.379600	27.952411	0.000354	20.759232
1997.549002	-2.986500	3.170700	-9.468700	27.959778	0.000355	20.762380
1998.530184	-3.009000	3.169000	-9.534500	27.957891	0.000353	20.775180
1999.531590	-3.003100	3.169400	-9.516900	28.010796	0.000352	20.763472
2000.531698	-2.987400	3.169800	-9.468200	28.052694	0.000351	20.783362
2001.532182	-2.994800	3.167000	-9.483700	28.075301	0.000351	20.751591
2002.532387	-2.993300	3.168400	-9.483000	28.081649	0.000348	20.761774
2003.532251	-2.980200	3.168700	-9.442200	28.063227	0.000347	20.755558
2004.537028	-3.002000	3.168500	-9.511200	28.014883	0.000346	20.742455
2005.532402	-2.994700	3.167300	-9.482900	28.017509	0.000347	20.763118
2006.535363	-3.001000	3.165700	-9.498800	28.015302	0.000345	20.747619
2007.553994	-3.004800	3.167100	-9.515900	28.049762	0.000347	20.753858
2008.551358	-2.963900	3.167700	-9.388200	28.088408	0.000346	20.747716
2009.560149	-3.025600	3.164800	-9.574000	28.145869	0.000343	20.769525
2010.555762	-2.978200	3.166100	-9.428200	28.169073	0.000343	20.764910
2011.556547	-2.968300	3.165900	-9.396200	28.189695	0.000343	20.776188
2012.553589	-3.001900	3.162700	-9.493100	28.193436	0.000341	20.760988
2013.559429	-3.013100	3.161900	-9.525800	28.191105	0.000340	20.769548
2014.552288	-3.005400	3.161400	-9.499800	28.198865	0.000340	20.742746
2015.553959	-3.008200	3.162800	-9.513100	28.206549	0.000339	20.783673
2016.554445	-3.000500	3.162000	-9.486500	28.219336	0.000336	20.769046
2017.552554	-3.006000	3.159200	-9.495500	28.209298	0.000338	20.745663
2018.553410	-3.010500	3.160100	-9.512800	28.236412	0.000336	20.751624
2019.554912	-3.020100	3.158800	-9.538900	28.217524	0.000337	20.769118
2020.565482	-2.969200	3.160300	-9.382600	28.213433	0.000335	20.780647
2021.567837	-2.980800	3.158700	-9.414100	28.175805	0.000333	20.755092
2022.558950	-2.994100	3.159100	-9.457600	28.141273	0.000331	20.749251
2023.565126	-2.984300	3.157800	-9.421800	28.139586	0.000334	20.758933
2024.555308	-2.984900	3.158400	-9.426500	28.191789	0.000331	20.766917
2025.559307	-3.002000	3.155400	-9.471400	28.180680	0.000332	20.767113
2026.559308	-3.029600	3.155000	-9.557800	28.121585	0.000331	20.762622
2027.556851	-3.008900	3.155700	-9.493400	28.126741	0.000331	20.760226
2028.559409	-3.005600	3.155100	-9.481900	28.127582	0.000329	20.779091
2029.559710	-2.989300	3.154000	-9.427900	28.108814	0.000328	20.765887
2030.539724	-3.000700	3.154200	-9.463600	28.137024	0.000328	20.759199
2031.541247	-3.015200	3.152000	-9.502800	28.125447	0.000326	20.779787
2032.539882	-3.009800	3.152900	-9.488400	28.114562	0.000325	20.784476
2033.541022	-3.018100	3.152500	-9.514100	28.134243	0.000325	20.759718
2034.539057	-3.029800	3.151200	-9.546500	28.118848	0.000324	20.784049
2035.539525	-3.009500	3.149800	-9.478300	28.149512	0.000324	20.783151
2036.541162	-2.984500	3.153200	-9.409300	28.139619	0.000323	20.759914
2037.539090	-3.005900	3.149400	-9.466200	28.163886	0.000321	20.772017
2038.539732	-2.992500	3.149400	-9.423300	28.200625	0.000320	20.781502
2039.539770	-2.987700	3.149100	-9.407000	28.247743	0.000320	20.784844
2040.539063	-3.007200	3.148800	-9.467900	28.255798	0.000318	20.760711
2041.539474	-3.001800	3.147800	-9.448600	28.284972	0.000318	20.766376
2042.541594	-3.023800	3.147000	-9.515000	28.278228	0.000317	20.770967
2043.541024	-2.992500	3.147400	-9.417400	28.331711	0.000316	20.770289
2044.541332	-2.990800	3.146800	-9.409800	28.285687	0.000317	20.775157
2045.558457	-2.987900	3.145800	-9.398200	28.248505	0.000316	20.763800
2046.542564	-2.978500	3.147900	-9.374900	28.268211	0.000314	20.769415
2047.564933	-3.007400	3.143700	-9.453400	28.269697	0.000316	20.760007
2048.565619	-3.009600	3.144000	-9.462000	28.297850	0.000313	20.765593
2049.566418	-3.021200	3.143300	-9.494100	28.307542	0.000313	20.766817
2050.542329	-3.013500	3.141600	-9.465700	28.278219	0.000312	20.764793
2051.542428	-3.000200	3.143200	-9.429100	28.224679	0.000313	20.794340
2052.541674	-3.001900	3.141600	-9.430200	28.187074	0.000311	20.777343
2053.547931	-3.013500	3.140700	-9.463600	28.170096	0.000309	20.751715
2054.560464	-3.015800	3.140600	-9.469800	28.181920	0.000308	20.784482
2055.543413	-3.006100	3.138100	-9.431800	28.188908	0.000309	20.770655
2056.562306	-3.019100	3.137400	-9.471500	28.195477	0.000306	20.793864
2057.563993	-3.018400	3.137700	-9.469200	28.168010	0.000305	20.745822
2058.565771	-3.001700	3.137900	-9.418200	28.156877	0.000307	20.791988
2059.560545	-3.003900	3.137800	-9.424400	28.121999	0.000305	20.779635
2060.547803	-2.999300	3.137100	-9.408000	28.120287	0.000303	20.773644
2061.544084	-3.013000	3.136000	-9.448000	28.179186	0.000303	20.793110
2062.543659	-3.014300	3.134900	-9.448500	28.197031	0.000304	20.790687
2063.546943	-3.018900	3.133900	-9.459800	28.258948	0.000301	20.798023
2064.545228	-3.027000	3.133900	-9.485300	28.303635	0.000303	20.792755
2065.545444	-2.946400	3.135800	-9.238300	28.341457	0.000300	20.796223
2066.570471	-3.003200	3.132900	-9.407700	28.363688	0.000298	20.765976
2067.566321	-3.009900	3.133100	-9.428400	28.375881	0.000299	20.784893
2068.546788	-3.000100	3.133100	-9.398800	28.407848	0.000300	20.806650
2069.548604	-3.014500	3.130900	-9.436700	28.446759	0.000296	20.780400
2070.547556	-2.992800	3.130900	-9.368700	28.473048	0.000295	20.792175
2071.549588	-3.003500	3.130700	-9.401600	28.512130	0.000297	20.795496
2072.571461	-3.004600	3.129300	-9.400500	28.515148	0.000296	20.777672
2073.565039	-3.000800	3.128100	-9.384900	28.538467	0.000293	20.782665
2074.570940	-2.986000	3.128000	-9.339500	28.560667	0.000293	20.807867
2075.566885	-2.985000	3.128200	-9.336700	28.568747	0.000293	20.794193
2076.566580	-3.003400	3.126100	-9.387200	28.521836	0.000292	20.794839
2077.570313	-2.985900	3.126900	-9.334700	28.479335	0.000291	20.787600
2078.565018	-2.992900	3.127600	-9.359200	28.456412	0.000290	20.810509
2079.566477	-2.996500	3.125500	-9.365100	28.430662	0.000290	20.792166
2080.573945	-2.995700	3.123400	-9.355300	28.437950	0.000289	20.807564
2081.564638	-3.001900	3.125400	-9.381100	28.425162	0.000291	20.791843
2082.582027	-2.991400	3.123600	-9.342600	28.464439	0.000289	20.806738
2083.569069	-2.994000	3.121400	-9.344900	28.489295	0.000288	20.795733
2084.570729	-2.986100	3.121800	-9.320200	28.495662	0.000285	20.813051
2085.569649	-3.003600	3.120800	-9.372800	28.519403	0.000286	20.777216
2086.579918	-3.013300	3.118800	-9.396200	28.555257	0.000285	20.815695
2087.576237	-3.003800	3.120600	-9.372500	28.582712	0.000286	20.789766
2088.576396	-3.003800	3.119100	-9.368600	28.582441	0.000284	20.789492
2089.572729	-3.014500	3.117900	-9.397200	28.517691	0.000284	20.805363
2090.568879	-2.997200	3.117400	-9.341500	28.438986	0.000283	20.812875
2091.575277	-2.990300	3.117300	-9.320600	28.370509	0.000282	20.802717
2092.568158	-3.012100	3.116200	-9.384500	28.308596	0.000282	20.797275
2093.577742	-3.008500	3.114900	-9.369700	28.331920	0.000281	20.807483
2094.565688	-3.037100	3.113800	-9.453700	28.378142	0.000279	20.808032
2095.569565	-2.994400	3.114200	-9.324100	28.408227	0.000278	20.806083
2096.570203	-2.998600	3.114700	-9.338900	28.422922	0.000278	20.806183
2097.575820	-2.992000	3.113600	-9.315000	28.417545	0.000275	20.796501
2098.567704	-2.997700	3.112100	-9.328100	28.369289	0.000276	20.805282
2099.581329	-3.014700	3.111500	-9.379500	28.351000	0.000278	20.785918
2100.576575	-3.006100	3.110600	-9.349500	28.358609	0.000275	20.804485
2101.555688	-2.971000	3.111200	-9.241600	28.340241	0.000276	20.808750
2102.553365	-2.986200	3.110100	-9.286600	28.357465	0.000274	20.810446
2103.555136	-3.015400	3.108600	-9.372000	28.338705	0.000273	20.809100
2104.553599	-3.015600	3.108600	-9.372700	28.333745	0.000274	20.803631
2105.553427	-2.997500	3.108600	-9.316700	28.352978	0.000274	20.810669
2106.556409	-2.978100	3.107800	-9.254900	28.328166	0.000272	20.807971
2107.580249	-3.018500	3.105900	-9.374100	28.305241	0.000271	20.823295
2108.556033	-2.988600	3.104600	-9.277800	28.267067	0.000271	20.821843
2109.572069	-3.001300	3.104800	-9.318100	28.254874	0.000270	20.814309
2110.576213	-2.978800	3.105100	-9.248000	28.332402	0.000269	20.810814
2111.573719	-3.005200	3.104700	-9.329200	28.352305	0.000270	20.822794
2112.560387	-3.000800	3.103200	-9.310300	28.342020	0.000269	20.829506
2113.562901	-2.984200	3.103000	-9.258400	28.374633	0.000267	20.812085
2114.560557	-2.982300	3.101800	-9.249600	28.409155	0.000267	20.822191
2115.560118	-2.973900	3.100300	-9.219100	28.397879	0.000266	20.821742
2116.559749	-2.991800	3.100900	-9.275300	28.374090	0.000266	20.820073
2117.565506	-2.988600	3.098200	-9.257700	28.394038	0.000265	20.827357
2118.561430	-2.996800	3.098000	-9.282800	28.421346	0.000265	20.826406
2119.560767	-3.041200	3.095700	-9.412600	28.403254	0.000262	20.811033
2120.583573	-3.010300	3.096500	-9.321100	28.366179	0.000262	20.827280
2121.582374	-2.974200	3.097300	-9.210700	28.340724	0.000260	20.825357
2122.561161	-3.000400	3.094900	-9.285000	28.380824	0.000262	20.813578
2123.567885	-3.010600	3.094800	-9.316600	28.436387	0.000262	20.810733
2124.560672	-2.993900	3.094900	-9.264800	28.461688	0.000259	20.816770
2125.561816	-2.991500	3.093700	-9.254000	28.552756	0.000261	20.823133
2126.562239	-2.997400	3.093100	-9.270100	28.569505	0.000260	20.836682
2127.566646	-3.008400	3.091600	-9.300300	28.572503	0.000258	20.832114
2128.567632	-3.000500	3.091100	-9.273200	28.589775	0.000256	20.825327
2129.566256	-3.026100	3.089200	-9.347000	28.602262	0.000257	20.846912
2130.562274	-3.007800	3.089200	-9.290800	28.550151	0.000257	20.820035
2131.582899	-2.991300	3.089500	-9.241200	28.531069	0.000255	20.842543
2132.594050	-2.991400	3.088600	-9.238100	28.540037	0.000256	20.824549
2133.591245	-3.028500	3.087300	-9.347100	28.550221	0.000255	20.833855
2134.566796	-3.017600	3.084900	-9.308600	28.594749	0.000254	20.825122
2135.566103	-3.006000	3.085400	-9.272900	28.619206	0.000252	20.825097
2136.585538	-3.004300	3.084700	-9.266400	28.646881	0.000254	20.837798
2137.582182	-3.001200	3.084600	-9.255500	28.671434	0.000253	20.849251
2138.591656	-2.993900	3.082900	-9.227300	28.667693	0.000254	20.842164
2139.582852	-2.999400	3.083800	-9.248300	28.628395	0.000253	20.833404
2140.586202	-3.001200	3.081200	-9.245900	28.620614	0.000252	20.835998
2141.591005	-3.040800	3.078800	-9.360300	28.655202	0.000250	20.865144
2142.606654	-3.037400	3.077200	-9.345700	28.648907	0.000251	20.852166
2143.568902	-2.984400	3.080700	-9.193100	28.655200	0.000250	20.829108
2144.595534	-3.012900	3.078500	-9.273800	28.672916	0.000249	20.831304
2145.567199	-2.994100	3.076700	-9.211500	28.694867	0.000249	20.847249
2146.576981	-3.019200	3.074900	-9.281500	28.689267	0.000247	20.851092
2147.566010	-2.977100	3.075700	-9.155400	28.747390	0.000248	20.838039
2148.568213	-2.993700	3.074600	-9.203600	28.729848	0.000247	20.854034
2149.572248	-2.989600	3.074200	-9.190600	28.720655	0.000245	20.838137
2150.567363	-3.006400	3.072100	-9.234700	28.694515	0.000246	20.865386
2151.571330	-3.010800	3.071800	-9.247400	28.665402	0.000245	20.850288
2152.591782	-2.996700	3.072600	-9.205600	28.610793	0.000246	20.854081
2153.568565	-2.971400	3.071400	-9.125700	28.591663	0.000244	20.837660
2154.572765	-2.998900	3.069800	-9.204200	28.591885	0.000244	20.843099
2155.593424	-2.983100	3.070200	-9.157600	28.628506	0.000243	20.860067
2156.585731	-2.979300	3.069000	-9.142300	28.630783	0.000244	20.858094
2157.586699	-2.987000	3.066200	-9.158100	28.607914	0.000241	20.837433
2158.591024	-2.969700	3.067500	-9.108000	28.632097	0.000243	20.862261
2159.591106	-3.045700	3.064000	-9.330900	28.656501	0.000242	20.856021
2160.590061	-3.011300	3.064800	-9.228000	28.696192	0.000241	20.855222
2161.575493	-3.010000	3.065300	-9.224700	28.713906	0.000239	20.848408
2162.570834	-2.989100	3.063300	-9.153800	28.738409	0.000241	20.847959
2163.569674	-2.990300	3.062400	-9.156700	28.742471	0.000239	20.861532
2164.570642	-3.005700	3.060800	-9.199500	28.773166	0.000240	20.869218
2165.572685	-2.989200	3.061000	-9.148600	28.806411	0.000241	20.859085
2166.569532	-2.993300	3.059400	-9.156700	28.819616	0.000239	20.868118
2167.573569	-3.030100	3.056600	-9.260800	28.799918	0.000239	20.873406
2168.572685	-2.988400	3.057400	-9.134400	28.742020	0.000239	20.863924
2169.570404	-3.029700	3.054900	-9.253800	28.753564	0.000239	20.869862
2170.587342	-2.994100	3.054900	-9.146100	28.796449	0.000236	20.846679
2171.604751	-2.996500	3.054300	-9.151400	28.791443	0.000237	20.846379
2172.586709	-3.018300	3.053800	-9.216100	28.766494	0.000236	20.866764
2173.572435	-3.026600	3.051000	-9.233500	28.790253	0.000235	20.860352
2174.601244	-2.973600	3.053100	-9.076900	28.762603	0.000235	20.863319
2175.588061	-2.969900	3.051400	-9.060800	28.734357	0.000236	20.861895
2176.592073	-2.989700	3.048500	-9.113600	28.718081	0.000233	20.871104
2177.588334	-2.987500	3.047500	-9.103100	28.697689	0.000235	20.869056
2178.591856	-3.009200	3.047600	-9.170100	28.641818	0.000233	20.884379
2179.590567	-2.997200	3.045900	-9.127300	28.622441	0.000234	20.880035
2180.586693	-3.011300	3.045800	-9.171000	28.643574	0.000234	20.875717
2181.598559	-3.004300	3.044800	-9.145400	28.661093	0.000233	20.867284
2182.594248	-3.003700	3.042500	-9.138100	28.707174	0.000233	20.879083
2183.587439	-3.019300	3.041000	-9.180300	28.755092	0.000234	20.887520
2184.591837	-3.005900	3.041100	-9.139800	28.751050	0.000232	20.888191
2185.589818	-2.992900	3.040200	-9.098200	28.794381	0.000231	20.887267
2186.593176	-2.964400	3.040800	-9.012300	28.835181	0.000232	20.867203
2187.576353	-2.977500	3.038800	-9.045500	28.874864	0.000230	20.886315
2188.577678	-3.007300	3.038000	-9.134500	28.887771	0.000233	20.867551
2189.574045	-2.991700	3.036900	-9.084500	28.921831	0.000232	20.875311
2190.574741	-2.995800	3.036000	-9.094500	28.957797	0.000232	20.892578
2191.574821	-2.994800	3.033400	-9.083500	28.982763	0.000230	20.884066
2192.583047	-3.007900	3.032300	-9.120100	29.004734	0.000228	20.892451
2193.574729	-3.012700	3.032100	-9.133300	29.041588	0.000229	20.876481
2194.575649	-2.997100	3.030900	-9.082800	29.053302	0.000227	20.887808
2195.577314	-2.985400	3.029300	-9.043100	29.050503	0.000229	20.878824
2196.574890	-2.973100	3.029200	-9.004800	29.026055	0.000228	20.876476
2197.580903	-3.020200	3.025700	-9.137100	29.002623	0.000230	20.887955
2198.575067	-3.014700	3.025200	-9.118400	28.999477	0.000231	20.892371
2199.575778	-2.989900	3.026600	-9.048300	28.969678	0.000228	20.902650
2200.575361	-3.019200	3.023400	-9.127600	28.942307	0.000227	20.886456
2201.597062	-2.990800	3.023100	-9.041100	28.859866	0.000229	20.872630
2202.608828	-2.985500	3.023800	-9.026200	28.813862	0.000227	20.891245
2203.580798	-2.976700	3.021000	-8.991900	28.841012	0.000229	20.879715
2204.578040	-2.998600	3.020900	-9.057500	28.871308	0.000227	20.904068
2205.580308	-2.996100	3.017900	-9.040500	28.930412	0.000226	20.894859
2206.576358	-3.017400	3.018100	-9.105300	28.961918	0.000227	20.897203
2207.577198	-3.012800	3.015400	-9.083700	28.937718	0.000225	20.900323
2208.579923	-3.019400	3.015000	-9.102700	28.887033	0.000226	20.882454
2209.578869	-2.996400	3.015100	-9.032300	28.873483	0.000227	20.907207
2210.579718	-3.017000	3.012400	-9.087200	28.841426	0.000224	20.908578
2211.581877	-2.985000	3.012900	-8.993100	28.861093	0.000226	20.897098
2212.579298	-3.000200	3.010300	-9.030700	28.863052	0.000225	20.890537
2213.586675	-3.015300	3.008800	-9.070400	28.908778	0.000225	20.894402
2214.580693	-3.004400	3.007300	-9.034100	28.944373	0.000225	20.913665
2215.585094	-2.996700	3.007200	-9.009900	29.000552	0.000224	20.922849
2216.580585	-2.980300	3.006100	-8.958500	28.994060	0.000224	20.905878
2217.581411	-2.999400	3.004800	-9.011700	28.943824	0.000225	20.915008
2218.617067	-2.997500	3.004000	-9.002900	28.930745	0.000223	20.903255
2219.603025	-3.021900	3.001200	-9.067600	28.929284	0.000224	20.939237
2220.602506	-3.009100	2.999000	-9.023700	28.955687	0.000223	20.915580
2221.611377	-3.006500	2.998700	-9.015300	29.001785	0.000225	20.918876
2222.610345	-2.997300	2.997700	-8.983900	29.046092	0.000222	20.895241
2223.602570	-2.993100	2.996700	-8.968700	29.099466	0.000220	20.915828
2224.590486	-3.008600	2.995300	-9.010400	29.136688	0.000224	20.931996
2225.584791	-2.976400	2.994400	-8.911900	29.121827	0.000223	20.921764
2226.590338	-2.976900	2.994200	-8.911600	29.114818	0.000222	20.911858
2227.609345	-3.005700	2.992800	-8.995200	29.117095	0.000223	20.911781
2228.612890	-3.008800	2.990200	-8.996100	29.131559	0.000222	20.906916
2229.592181	-3.009400	2.988500	-8.993200	29.156819	0.000220	20.920040
2230.584981	-2.985600	2.988600	-8.921500	29.163012	0.000222	20.924383
2231.585340	-2.997800	2.986100	-8.950500	29.163850	0.000222	20.930917
2232.586816	-2.982700	2.987200	-8.908800	29.152284	0.000221	20.915945
2233.587861	-2.997500	2.984000	-8.943700	29.177619	0.000220	20.914448
2234.586115	-2.966400	2.983600	-8.848900	29.192873	0.000219	20.927447
2235.591869	-3.014100	2.980400	-8.982300	29.177221	0.000221	20.948181
2236.590938	-3.022500	2.979300	-9.004300	29.203050	0.000222	20.931538
2237.590739	-2.998800	2.977900	-8.929700	29.224121	0.000221	20.930961
2238.589298	-2.983900	2.976700	-8.881100	29.210527	0.000221	20.935754
2239.590008	-3.006100	2.975000	-8.942500	29.186950	0.000220	20.923849
2240.617828	-3.010700	2.972900	-8.948900	29.175655	0.000222	20.949923
2241.594557	-2.985800	2.974200	-8.879100	29.188832	0.000218	20.925272
2242.626330	-2.996200	2.972100	-8.903900	29.235609	0.000218	20.934476
2243.592517	-2.987000	2.969700	-8.869900	29.257821	0.000218	20.932679
2244.593188	-3.030200	2.967900	-8.992700	29.285405	0.000222	20.933926
2245.596660	-3.017000	2.966400	-8.948000	29.306180	0.000220	20.932104
2246.613766	-3.000900	2.965600	-8.898200	29.330027	0.000222	20.936696
2247.595989	-3.002700	2.963900	-8.899000	29.310711	0.000220	20.941410
2248.600461	-3.005100	2.962800	-8.903100	29.242143	0.000219	20.939164
2249.597361	-2.992600	2.960700	-8.859000	29.167428	0.000217	20.944004
2250.597437	-2.992000	2.961500	-8.859400	29.110615	0.000219	20.932276
2251.627535	-3.007400	2.957400	-8.892700	29.098230	0.000222	20.941133
2252.596871	-2.974100	2.957700	-8.794200	29.096669	0.000219	20.944775
2253.598450	-2.980100	2.955300	-8.806000	29.125275	0.000219	20.951786
2254.597288	-3.005700	2.954200	-8.878800	29.164996	0.000219	20.965732
2255.619950	-3.012300	2.951700	-8.891100	29.138522	0.000221	20.946644
2256.625817	-3.003900	2.951800	-8.865700	29.143968	0.000219	20.963035
2257.621812	-3.010500	2.949500	-8.878900	29.164747	0.000221	20.963585
2258.605408	-2.982500	2.948600	-8.792500	29.190723	0.000217	20.933815
2259.620897	-3.011900	2.945600	-8.870500	29.197510	0.000218	20.950135
2260.601949	-2.985500	2.944600	-8.790200	29.221579	0.000217	20.946415
2261.603219	-2.974500	2.943200	-8.753500	29.251938	0.000219	20.958515
2262.601303	-3.009300	2.940400	-8.848200	29.277046	0.000217	20.944941
2263.601939	-2.997800	2.940300	-8.813300	29.248322	0.000218	20.943968
2264.601788	-2.994600	2.939100	-8.801000	29.245647	0.000217	20.940324
2265.602808	-3.007100	2.936700	-8.829800	29.250646	0.000217	20.952473
2266.603094	-3.016600	2.934700	-8.850800	29.274990	0.000217	20.939550
2267.603622	-2.981000	2.933400	-8.743300	29.295689	0.000216	20.941444
2268.603160	-2.987000	2.931500	-8.755500	29.298586	0.000218	20.947208
2269.602479	-2.986000	2.931400	-8.752500	29.298609	0.000217	20.937275
2270.628118	-3.006600	2.928300	-8.803200	29.277413	0.000216	20.929190
2271.620609	-2.992100	2.927200	-8.758300	29.281472	0.000216	20.941341
2272.628225	-2.996900	2.926200	-8.768400	29.313019	0.000217	20.933306
2273.619576	-2.996300	2.922400	-8.755200	29.314852	0.000217	20.912396
2274.618914	-2.999600	2.921400	-8.762100	29.358652	0.000215	20.934253
2275.628277	-2.985600	2.920400	-8.718500	29.369547	0.000215	20.918682
2276.623122	-3.009400	2.918900	-8.782800	29.357017	0.000216	20.943509
2277.634851	-2.984600	2.917800	-8.707900	29.350529	0.000218	20.918955
2278.629560	-2.974900	2.914700	-8.670700	29.342951	0.000215	20.931704
2279.632961	-2.998300	2.912600	-8.731300	29.297537	0.000216	20.904904
2280.630789	-2.973800	2.912700	-8.660800	29.289143	0.000216	20.919676
2281.624379	-2.974900	2.912700	-8.663900	29.276240	0.000217	20.897192
2282.606040	-2.972300	2.909300	-8.646300	29.239318	0.000215	20.937740
2283.617146	-3.011300	2.906000	-8.749600	29.237733	0.000216	20.901060
2284.604944	-2.978800	2.905400	-8.653300	29.245311	0.000216	20.908695
2285.629525	-2.990900	2.902900	-8.681800	29.269033	0.000217	20.931177
2286.627293	-2.985600	2.901400	-8.662000	29.235256	0.000216	20.909942
2287.633561	-3.023400	2.899100	-8.764100	29.286020	0.000216	20.918426
2288.636513	-2.993900	2.898700	-8.676800	29.330837	0.000214	20.930875
2289.635601	-2.997600	2.896900	-8.682000	29.340716	0.000217	20.919022
2290.632123	-2.979300	2.894700	-8.623100	29.385880	0.000217	20.911437
2291.631161	-3.005600	2.892600	-8.693100	29.312094	0.000216	20.901083
2292.629985	-3.005400	2.889700	-8.684000	29.269475	0.000216	20.935889
2293.628446	-2.974400	2.889600	-8.593000	29.275072	0.000215	20.909764
2294.623690	-3.014600	2.885900	-8.698400	29.316920	0.000216	20.907368
2295.632938	-3.017200	2.885000	-8.703500	29.297209	0.000214	20.911685
2296.622866	-2.992100	2.883100	-8.625600	29.308721	0.000218	20.891520
2297.634513	-2.986200	2.881700	-8.604100	29.281482	0.000216	20.906267
2298.628957	-2.996700	2.879700	-8.628500	29.359753	0.000215	20.911657
2299.634492	-2.996100	2.878400	-8.623300	29.364086	0.000216	20.912230
2300.626427	-3.022700	2.876000	-8.692200	29.373073	0.000218	20.910857
2301.614168	-2.999100	2.873600	-8.618000	29.355718	0.000215	20.900953
2302.630717	-3.012000	2.870000	-8.643000	29.327784	0.000217	20.887974
2303.622925	-2.984700	2.870400	-8.566500	29.286208	0.000215	20.889220
2304.627034	-2.992200	2.868000	-8.579700	29.316690	0.000214	20.895285
2305.630891	-3.022400	2.863300	-8.652700	29.334246	0.000215	20.882158
2306.610233	-2.991300	2.863100	-8.563600	29.370619	0.000217	20.882308
2307.609144	-3.015400	2.862200	-8.629800	29.409813	0.000216	20.911378
2308.610249	-2.986600	2.861400	-8.544200	29.427490	0.000213	20.891738
2309.609898	-2.994300	2.857600	-8.554800	29.396393	0.000215	20.903541
2310.611804	-3.004700	2.854300	-8.575500	29.408772	0.000214	20.876666
2311.631613	-3.024700	2.851300	-8.622900	29.402383	0.000215	20.881606
2312.611920	-2.998400	2.852700	-8.552600	29.403817	0.000214	20.898223
2313.613317	-3.010300	2.849200	-8.576200	29.424888	0.000215	20.887219
2314.615264	-2.991300	2.847500	-8.516700	29.434839	0.000214	20.885395
2315.638142	-3.006100	2.845200	-8.552100	29.456381	0.000213	20.876764
2316.633577	-3.037600	2.842200	-8.632000	29.478587	0.000214	20.899619
2317.633899	-2.998700	2.840500	-8.517200	29.492005	0.000213	20.896074
2318.630501	-3.015900	2.838300	-8.558700	29.490914	0.000215	20.881700
2319.627183	-3.020500	2.836700	-8.566500	29.507429	0.000214	20.876536
2320.632045	-3.009300	2.833300	-8.525400	29.524484	0.000214	20.887089
2321.611995	-3.004300	2.833000	-8.509400	29.520399	0.000214	20.879653
2322.621680	-2.992500	2.830800	-8.470400	29.566618	0.000213	20.860812
2323.629357	-2.986700	2.827400	-8.443200	29.566817	0.000212	20.870969
2324.612507	-3.021600	2.824100	-8.531400	29.598725	0.000212	20.864729
2325.616109	-3.032300	2.821400	-8.554300	29.598056	0.000211	20.875433
2326.639053	-3.022000	2.819100	-8.518300	29.591422	0.000213	20.890555
2327.630073	-2.993400	2.817800	-8.432800	29.614691	0.000214	20.864702
2328.615583	-3.018500	2.816300	-8.499600	29.616968	0.000214	20.893549
2329.613351	-2.990200	2.814700	-8.415500	29.631027	0.000213	20.888282
2330.616153	-2.982700	2.813800	-8.391300	29.660807	0.000211	20.878951
2331.628769	-2.981000	2.809000	-8.372700	29.660460	0.000214	20.858688
2332.635276	-3.003600	2.805800	-8.425800	29.655509	0.000213	20.880247
2333.631129	-3.006900	2.803400	-8.428900	29.625406	0.000213	20.868392
2334.648801	-3.020600	2.801500	-8.460300	29.588298	0.000214	20.875080
2335.646494	-2.980300	2.799000	-8.340200	29.512347	0.000212	20.881968
2336.618254	-3.015000	2.796200	-8.429200	29.480139	0.000213	20.863253
2337.618542	-2.953200	2.795900	-8.255800	29.436387	0.000214	20.871784
2338.618132	-2.988200	2.790500	-8.337400	29.397097	0.000211	20.878649
2339.618378	-2.980400	2.789100	-8.311300	29.398977	0.000210	20.866794
2340.622226	-2.989800	2.786800	-8.330600	29.409622	0.000212	20.885109
2341.619817	-3.044200	2.782900	-8.470900	29.472461	0.000213	20.875902
2342.642211	-2.975700	2.782400	-8.277400	29.471446	0.000210	20.870138
2343.620498	-2.970800	2.777900	-8.251000	29.480283	0.000212	20.878571
2344.649537	-3.011500	2.774000	-8.352300	29.478971	0.000213	20.876300
2345.648121	-2.999300	2.772600	-8.314800	29.460625	0.000212	20.852119
2346.645683	-3.031700	2.768200	-8.390700	29.440619	0.000212	20.866567
2347.637620	-2.975900	2.766600	-8.232600	29.445200	0.000212	20.865494
2348.619919	-2.981800	2.765800	-8.245300	29.496474	0.000212	20.860279
2349.638622	-2.977200	2.762300	-8.222900	29.527172	0.000213	20.872256
2350.650465	-3.004700	2.757500	-8.284500	29.539823	0.000211	20.862724
2351.631944	-3.020000	2.752900	-8.312600	29.526924	0.000210	20.868213
2352.626742	-3.011200	2.751900	-8.285400	29.525810	0.000212	20.862824
2353.624950	-3.013000	2.749600	-8.283900	29.515363	0.000211	20.871258
2354.627655	-2.981000	2.748100	-8.191000	29.477237	0.000213	20.872656
2355.625478	-3.000400	2.742900	-8.228500	29.480503	0.000212	20.850819
2356.654490	-2.993000	2.740700	-8.202200	29.484390	0.000211	20.854263
2357.653905	-2.980600	2.735900	-8.154100	29.553487	0.000211	20.868911
2358.628716	-2.978600	2.734100	-8.142700	29.615622	0.000214	20.870383
2359.646425	-2.989700	2.732300	-8.167000	29.645303	0.000212	20.850045
2360.648612	-3.013200	2.728200	-8.219200	29.623148	0.000213	20.868486
2361.647873	-2.982400	2.723800	-8.121800	29.609483	0.000212	20.862772
2362.631248	-2.983400	2.720900	-8.116000	29.624360	0.000211	20.858329
2363.650367	-2.980700	2.717700	-8.099400	29.662035	0.000213	20.847000
2364.647846	-2.999700	2.713800	-8.139300	29.653816	0.000211	20.844878
2365.655374	-2.971200	2.712200	-8.056800	29.709312	0.000211	20.875696
2366.652877	-3.020900	2.706900	-8.176300	29.759608	0.000213	20.845801
2367.648397	-3.030800	2.701900	-8.187400	29.804826	0.000213	20.850141
2368.650241	-3.029000	2.698300	-8.172100	29.848733	0.000214	20.865015
2369.663517	-2.999900	2.695600	-8.085500	29.832248	0.000215	20.854557
2370.630129	-2.995100	2.692600	-8.063500	29.766733	0.000212	20.852510
2371.630707	-2.995300	2.688100	-8.050600	29.685670	0.000209	20.851862
2372.630304	-3.002400	2.685200	-8.061500	29.710595	0.000211	20.849489
2373.630397	-3.017300	2.681200	-8.088800	29.759059	0.000212	20.848092
2374.631334	-3.005800	2.677300	-8.045300	29.772275	0.000211	20.842452
2375.656578	-2.994800	2.674000	-8.007500	29.813681	0.000214	20.846742
2376.631379	-3.024300	2.668200	-8.069000	29.867313	0.000212	20.857672
2377.657938	-2.998300	2.665200	-7.990200	29.899485	0.000213	20.856923
2378.631330	-3.002800	2.660800	-7.988600	29.914507	0.000210	20.846941
2379.633380	-3.007100	2.656100	-7.985800	29.864118	0.000213	20.848761
2380.632625	-2.997100	2.653200	-7.950900	29.805562	0.000213	20.851832
2381.633810	-3.014000	2.648000	-7.980000	29.752075	0.000212	20.872817
2382.631353	-3.006300	2.643600	-7.946000	29.731257	0.000212	20.842347
2383.633262	-2.995500	2.639900	-7.907300	29.745836	0.000211	20.845666
2384.634706	-3.036600	2.634400	-7.998500	29.804544	0.000212	20.841323
2385.635592	-2.985200	2.631600	-7.855000	29.846519	0.000212	20.861835
2386.651502	-2.975200	2.627200	-7.815700	29.834293	0.000211	20.844766
2387.650855	-3.014400	2.622200	-7.903600	29.794394	0.000213	20.847209
2388.654886	-3.006700	2.616300	-7.865000	29.806546	0.000211	20.853298
2389.632997	-2.948800	2.613100	-7.704100	29.841096	0.000210	20.842617
2390.634837	-3.015300	2.607200	-7.859700	29.887675	0.000212	20.846911
2391.632950	-2.992400	2.603000	-7.788900	29.945433	0.000211	20.848729
2392.638410	-2.999300	2.596500	-7.786400	29.978222	0.000209	20.847183
2393.642958	-2.953800	2.593700	-7.659800	30.034396	0.000212	20.849305
2394.634227	-2.964400	2.587000	-7.667500	30.036498	0.000210	20.838623
2395.654941	-2.999000	2.580800	-7.738700	30.093360	0.000212	20.847133
2396.632892	-3.019100	2.575100	-7.772500	30.040358	0.000212	20.850576
2397.633151	-2.975000	2.569900	-7.644400	29.950876	0.000210	20.826718
2398.658161	-2.986500	2.564000	-7.655900	29.930584	0.000213	20.842765
2399.647905	-3.014700	2.557300	-7.708800	29.943404	0.000213	20.833882
2400.653744	-2.988500	2.552800	-7.628400	29.924272	0.000212	20.848728
2401.636613	-3.026700	2.545100	-7.702600	29.923256	0.000212	20.850074
2402.634373	-3.006800	2.540500	-7.638200	29.930929	0.000215	20.834578
2403.634830	-3.033100	2.531700	-7.677800	29.941965	0.000213	20.824371
2404.635129	-2.983800	2.528300	-7.542800	29.877843	0.000214	20.835100
2405.636176	-3.004000	2.521900	-7.574400	29.861163	0.000213	20.836773
2406.661986	-2.988100	2.514500	-7.512800	29.863141	0.000213	20.838293
2407.636722	-3.029300	2.508600	-7.597600	29.919297	0.000213	20.857461
2408.665123	-3.024100	2.501800	-7.563800	29.990023	0.000213	20.830634
2409.658513	-3.038400	2.495400	-7.581600	29.989031	0.000213	20.839117
