LabVIEW Measurement	
Writer_Version	2
Reader_Version	2
Separator	Tab
Decimal_Separator	.
Multi_Headings	No
X_Columns	One
Time_Pref	Absolute
Operator	admin
Description	Clolumns are: time, Current, Voltage, Power, Battery Temp, and Chamber Temp
Date	2024/08/16
Time	13:06:06.104549407958984375
***End_of_Header***	
	
Channels	6						
Samples	1	1	1	1	1	1	
Date	2024/09/07	2024/09/07	2024/09/07	2024/09/07	2024/09/07	2024/09/07	
Time	02:28:29.9354906082153320313	02:28:29.9404888153076171875	02:28:29.9463567733764648438	02:28:29.9196557998657226563	02:28:29.9196557998657226563	02:28:29.9196557998657226563	
X_Dimension	Time	Time	Time	Time	Time	Time	
X0	0.0000000000000000E+0	0.0000000000000000E+0	0.0000000000000000E+0	0.0000000000000000E+0	0.0000000000000000E+0	0.0000000000000000E+0	
Delta_X	1.000000	1.000000	1.000000	1.000000	1.000000	1.000000	
***End_of_Header***							
X_Value	Untitled	Untitled 1	Untitled 2	Untitled 3	Untitled 4	Untitled 5	Comment
0.000000	-0.003256	4.097700	-0.013452	20.971317	0.000908	20.726191
1.006278	-3.011700	3.926500	-11.825000	20.966273	0.000908	20.734422
2.000345	-2.983700	3.920200	-11.695000	20.971813	0.000905	20.725738
3.001402	-3.014500	3.913300	-11.796000	20.973709	0.000907	20.714358
4.004283	-3.029000	3.910400	-11.844000	20.977301	0.000905	20.744030
5.004261	-2.963000	3.908100	-11.579000	20.956689	0.000903	20.718198
6.001948	-2.995100	3.905400	-11.696000	20.979770	0.000904	20.728007
7.005454	-2.996000	3.902300	-11.690000	20.976399	0.000902	20.740757
8.004822	-2.998300	3.900300	-11.693000	20.988152	0.000901	20.738287
9.005004	-3.012800	3.897100	-11.740000	20.963676	0.000901	20.743205
10.008874	-2.994300	3.897600	-11.668000	20.974502	0.000902	20.746447
11.005882	-3.026700	3.893500	-11.783000	20.979516	0.000898	20.740555
12.004741	-2.987100	3.894000	-11.630000	20.981186	0.000902	20.738907
13.008785	-2.995800	3.891900	-11.659000	20.998305	0.000900	20.747495
14.004901	-2.979400	3.891400	-11.593000	20.981062	0.000898	20.746844
15.007902	-2.988600	3.889400	-11.623000	21.016490	0.000897	20.739130
16.008534	-3.004100	3.889300	-11.682000	20.999325	0.000899	20.753256
17.007363	-3.008300	3.887100	-11.693000	21.029590	0.000895	20.757923
18.006739	-3.008900	3.886600	-11.694000	20.999895	0.000897	20.754300
19.008309	-3.003000	3.885200	-11.666000	21.010027	0.000896	20.748787
20.006244	-2.998000	3.884900	-11.646000	21.033801	0.000896	20.739849
21.005857	-3.004900	3.883900	-11.669000	21.046179	0.000896	20.743695
22.007018	-3.011400	3.881500	-11.688000	21.061243	0.000896	20.743589
23.007325	-2.973500	3.882000	-11.542000	21.056853	0.000893	20.751052
24.007232	-3.024100	3.878900	-11.728000	21.054932	0.000893	20.739647
25.008988	-2.993000	3.879100	-11.608000	21.066833	0.000894	20.746335
26.007589	-3.020900	3.878100	-11.714000	21.069101	0.000892	20.747181
27.009254	-2.999900	3.878400	-11.634000	21.059995	0.000891	20.755143
28.010636	-2.988200	3.879000	-11.590000	21.069200	0.000891	20.751074
29.016649	-3.004900	3.875400	-11.643000	21.071796	0.000890	20.731385
30.011071	-3.005100	3.877300	-11.651000	21.079876	0.000892	20.774082
31.011972	-2.998200	3.875000	-11.617000	21.083523	0.000887	20.773936
32.022389	-2.982200	3.876300	-11.559000	21.104653	0.000890	20.743388
33.012384	-2.992600	3.875100	-11.596000	21.106971	0.000889	20.732903
34.012520	-2.984300	3.874300	-11.560000	21.099541	0.000887	20.764828
35.016655	-3.016100	3.873200	-11.681000	21.108198	0.000890	20.741717
36.014462	-2.996800	3.873300	-11.606000	21.107575	0.000889	20.741569
37.014205	-3.019000	3.871200	-11.685000	21.124888	0.000888	20.762680
38.017024	-2.992500	3.872200	-11.586000	21.149059	0.000889	20.759358
39.014840	-3.011900	3.872800	-11.664000	21.139207	0.000887	20.742390
40.014020	-3.004500	3.870700	-11.629000	21.141054	0.000888	20.739969
41.016630	-3.009600	3.870700	-11.648000	21.136094	0.000888	20.766303
42.014400	-3.009500	3.870100	-11.646000	21.173360	0.000888	20.742415
43.016204	-2.994200	3.870400	-11.587000	21.175005	0.000887	20.760656
44.018808	-2.999800	3.869400	-11.607000	21.172540	0.000887	20.748232
45.014687	-3.005800	3.870300	-11.630000	21.178974	0.000887	20.766049
46.015097	-3.001000	3.868100	-11.606000	21.191320	0.000886	20.758958
47.020993	-3.009500	3.867400	-11.638000	21.209483	0.000888	20.759110
48.020769	-3.002200	3.867900	-11.611000	21.218959	0.000885	20.764322
49.015996	-3.019100	3.866000	-11.670000	21.205840	0.000886	20.761155
50.021853	-3.018800	3.865900	-11.669000	21.234056	0.000885	20.767096
51.020884	-3.000600	3.867200	-11.603000	21.229186	0.000887	20.775501
52.015332	-2.991100	3.866200	-11.563000	21.217640	0.000888	20.774856
53.021302	-3.015700	3.865400	-11.655000	21.236797	0.000886	20.773158
54.018700	-3.018300	3.865300	-11.666000	21.243030	0.000885	20.764220
55.016336	-2.998800	3.864900	-11.589000	21.253882	0.000887	20.762748
56.020176	-2.987200	3.864700	-11.543000	21.262038	0.000884	20.753364
57.018893	-2.992100	3.864000	-11.560000	21.277007	0.000886	20.744630
58.017284	-3.015200	3.862800	-11.646000	21.253457	0.000886	20.755211
59.022538	-3.006800	3.864100	-11.618000	21.288654	0.000886	20.769560
60.021101	-3.002200	3.863900	-11.599000	21.269395	0.000885	20.788700
61.018908	-3.028500	3.861600	-11.694000	21.305165	0.000886	20.784656
62.024453	-3.006900	3.862200	-11.613000	21.316165	0.000884	20.757253
63.020052	-3.002500	3.861000	-11.592000	21.311075	0.000885	20.773499
64.019337	-3.006900	3.863100	-11.616000	21.311249	0.000886	20.762766
65.021788	-2.997000	3.861600	-11.572000	21.328335	0.000888	20.777016
66.021891	-2.999200	3.861200	-11.580000	21.342724	0.000885	20.773867
67.021790	-3.018400	3.860600	-11.652000	21.367148	0.000889	20.776018
68.027619	-3.008400	3.862300	-11.619000	21.365150	0.000886	20.774019
69.024028	-3.022700	3.861000	-11.669000	21.345617	0.000886	20.754950
70.021179	-3.000000	3.860200	-11.579000	21.392061	0.000885	20.776762
71.024770	-2.993700	3.862000	-11.560000	21.367265	0.000883	20.783722
72.026464	-3.005500	3.860700	-11.603000	21.386848	0.000884	20.786719
73.024799	-3.011900	3.858900	-11.622000	21.373154	0.000886	20.760216
74.028884	-2.990600	3.860600	-11.544000	21.379888	0.000884	20.791135
75.028214	-3.008600	3.858000	-11.605000	21.401561	0.000885	20.785318
76.025447	-3.009000	3.858300	-11.608000	21.407771	0.000884	20.765927
77.028795	-3.011500	3.857900	-11.617000	21.415031	0.000885	20.786942
78.027315	-2.996200	3.859400	-11.562000	21.414306	0.000885	20.787166
79.026824	-3.004300	3.858500	-11.590000	21.433538	0.000885	20.786019
80.033005	-2.996600	3.858000	-11.559000	21.423307	0.000886	20.775308
81.027818	-2.998100	3.858300	-11.566000	21.447875	0.000882	20.773812
82.026484	-3.011800	3.857900	-11.618000	21.456356	0.000883	20.787513
83.032566	-3.016400	3.857000	-11.631000	21.447454	0.000884	20.760588
84.029567	-2.999700	3.855200	-11.562000	21.445333	0.000884	20.779802
85.028233	-3.006300	3.855800	-11.591000	21.468903	0.000884	20.789161
86.031013	-3.003800	3.857000	-11.585000	21.485411	0.000884	20.809947
87.030415	-3.009700	3.856400	-11.606000	21.486984	0.000885	20.775959
88.027411	-3.000600	3.855100	-11.566000	21.495415	0.000885	20.784395
89.031611	-2.982700	3.857400	-11.505000	21.511127	0.000885	20.781624
90.030441	-3.009900	3.856300	-11.605000	21.494170	0.000886	20.769398
91.027128	-3.021600	3.853400	-11.642000	21.504394	0.000883	20.785793
92.035578	-2.994000	3.854700	-11.539000	21.524448	0.000886	20.777410
93.030855	-3.018800	3.854500	-11.634000	21.518486	0.000885	20.799893
94.029543	-2.994700	3.854800	-11.542000	21.532004	0.000883	20.793032
95.032343	-3.002100	3.853800	-11.569000	21.543324	0.000886	20.783022
96.029029	-2.988800	3.854800	-11.521000	21.568060	0.000885	20.805877
97.027167	-3.001800	3.854000	-11.568000	21.566992	0.000884	20.798644
98.029280	-2.985800	3.854100	-11.507000	21.578339	0.000885	20.798620
99.030705	-2.988600	3.855000	-11.520000	21.580460	0.000884	20.783673
100.029494	-2.996200	3.852800	-11.543000	21.580708	0.000888	20.806680
101.029710	-2.992600	3.853500	-11.531000	21.587490	0.000887	20.793079
102.030445	-3.012400	3.853100	-11.606000	21.584749	0.000885	20.794129
103.032321	-3.013300	3.851600	-11.604000	21.586670	0.000886	20.809801
104.035694	-3.000800	3.852400	-11.559000	21.613476	0.000887	20.807229
105.033254	-2.987400	3.853200	-11.508000	21.604802	0.000887	20.815144
106.033357	-3.006700	3.853600	-11.586000	21.632280	0.000887	20.801864
107.038737	-2.999100	3.850300	-11.547000	21.622730	0.000888	20.793255
108.034769	-3.010600	3.851600	-11.595000	21.636318	0.000888	20.815388
109.033981	-3.005600	3.851100	-11.573000	21.630788	0.000888	20.809854
110.035494	-3.010900	3.851000	-11.594000	21.642732	0.000887	20.816591
111.034024	-3.002900	3.851000	-11.563000	21.674972	0.000888	20.811397
112.035490	-3.005200	3.849500	-11.567000	21.674275	0.000888	20.808803
113.038292	-2.981000	3.850800	-11.478000	21.695893	0.000889	20.818583
114.035695	-2.995500	3.850100	-11.531000	21.705319	0.000890	20.824224
115.036383	-3.000500	3.849800	-11.551000	21.688238	0.000888	20.804759
116.038665	-3.014700	3.848500	-11.601000	21.727537	0.000889	20.806631
117.035594	-3.000700	3.848100	-11.546000	21.710831	0.000890	20.807929
118.035935	-3.016900	3.847800	-11.608000	21.721452	0.000888	20.818085
119.038674	-2.992800	3.849200	-11.519000	21.730903	0.000891	20.822801
120.039250	-2.974800	3.850700	-11.454000	21.734891	0.000892	20.804508
121.036304	-2.999700	3.848800	-11.544000	21.751547	0.000890	20.801737
122.041085	-3.006100	3.849100	-11.570000	21.750674	0.000890	20.817458
123.037210	-2.982500	3.849000	-11.478000	21.767506	0.000892	20.826244
124.037984	-3.007600	3.847900	-11.572000	21.760227	0.000890	20.812320
125.037376	-2.991300	3.847800	-11.509000	21.761620	0.000893	20.816086
126.037931	-3.017300	3.847000	-11.606000	21.775012	0.000891	20.824273
127.037343	-3.002400	3.847600	-11.550000	21.776183	0.000891	20.828289
128.037982	-2.990800	3.847800	-11.507000	21.783314	0.000893	20.815986
129.038519	-2.996900	3.847200	-11.528000	21.783537	0.000894	20.826641
130.038216	-2.992100	3.847200	-11.509000	21.803335	0.000893	20.832231
131.038369	-2.997400	3.847300	-11.530000	21.820940	0.000893	20.814766
132.037319	-3.019200	3.845700	-11.609000	21.819268	0.000893	20.834903
133.039466	-2.974200	3.847700	-11.442000	21.838165	0.000893	20.823470
134.040176	-3.009800	3.845600	-11.573000	21.832031	0.000892	20.827288
135.040241	-3.015300	3.844600	-11.592000	21.826498	0.000894	20.844509
136.041311	-2.996800	3.845400	-11.522000	21.847689	0.000895	20.821149
137.041094	-3.009600	3.844800	-11.570000	21.849934	0.000894	20.828612
138.040193	-3.005700	3.844100	-11.553000	21.880400	0.000897	20.835872
139.042390	-3.011500	3.843600	-11.574000	21.871375	0.000893	20.822098
140.041878	-2.984600	3.843900	-11.471000	21.881521	0.000895	20.833675
141.043202	-2.981800	3.845000	-11.463000	21.890744	0.000896	20.837692
142.043944	-3.003300	3.842500	-11.538000	21.887555	0.000894	20.823594
143.041357	-2.988000	3.843500	-11.484000	21.906030	0.000895	20.833551
144.043477	-3.012500	3.843100	-11.576000	21.899596	0.000898	20.838491
145.043127	-2.995700	3.842700	-11.510000	21.907850	0.000896	20.830632
146.043206	-3.006300	3.842900	-11.552000	21.916748	0.000897	20.855185
147.043284	-3.000800	3.843200	-11.531000	21.930064	0.000898	20.838643
148.046476	-3.001200	3.841800	-11.529000	21.948535	0.000898	20.832950
149.042593	-3.013900	3.841600	-11.577000	21.943027	0.000898	20.844980
150.043951	-3.018300	3.842000	-11.595000	21.962671	0.000899	20.840462
151.046176	-3.012400	3.841400	-11.571000	21.952126	0.000898	20.846976
152.046129	-2.989200	3.843300	-11.487000	21.956488	0.000899	20.847075
153.045233	-3.012800	3.841800	-11.573000	21.982462	0.000898	20.846523
154.045384	-3.013400	3.840700	-11.573000	21.987153	0.000898	20.834624
155.048051	-3.005100	3.840100	-11.539000	21.984481	0.000901	20.848544
156.045702	-3.008000	3.840200	-11.550000	21.997096	0.000898	20.853586
157.045644	-3.001500	3.840500	-11.526000	22.018810	0.000903	20.842132
158.045450	-3.001600	3.842000	-11.531000	22.026813	0.000901	20.843031
159.046175	-3.004700	3.840300	-11.538000	22.019210	0.000904	20.852015
160.047534	-3.017100	3.840000	-11.585000	22.033642	0.000901	20.838962
161.046418	-3.007000	3.840200	-11.546000	22.020005	0.000902	20.850440
162.046547	-3.020700	3.838000	-11.593000	22.038425	0.000903	20.869353
163.047204	-3.008000	3.839700	-11.548000	22.029348	0.000903	20.849836
164.046515	-2.991700	3.840900	-11.489000	22.035335	0.000903	20.857726
165.047064	-2.992900	3.840300	-11.493000	22.045155	0.000905	20.845271
166.052019	-2.980500	3.838200	-11.439000	22.063103	0.000902	20.853282
167.047954	-3.022700	3.837600	-11.599000	22.055349	0.000905	20.846468
168.050389	-3.003900	3.838900	-11.531000	22.071626	0.000905	20.862287
169.051902	-2.989800	3.837800	-11.473000	22.072400	0.000906	20.845993
170.049183	-3.003100	3.837700	-11.523000	22.093115	0.000908	20.854404
171.052350	-3.001300	3.836200	-11.512000	22.103631	0.000907	20.869672
172.052347	-2.993800	3.838000	-11.489000	22.112558	0.000906	20.889040
173.048410	-3.020100	3.837300	-11.587000	22.122176	0.000906	20.844143
174.050457	-3.020000	3.837000	-11.587000	22.107020	0.000909	20.861686
175.050450	-3.012800	3.837100	-11.559000	22.122225	0.000907	20.881175
176.050689	-2.985500	3.836500	-11.452000	22.145358	0.000907	20.862610
177.052707	-2.989900	3.835800	-11.466000	22.142216	0.000909	20.865154
178.052742	-2.972000	3.836200	-11.401000	22.147475	0.000910	20.849557
179.049127	-3.002700	3.834700	-11.513000	22.157470	0.000909	20.867149
180.052565	-3.004800	3.835700	-11.523000	22.154254	0.000909	20.862981
181.057094	-2.978000	3.836800	-11.425000	22.155099	0.000909	20.878051
182.053601	-2.985400	3.836300	-11.452000	22.191020	0.000911	20.868497
183.053306	-2.979600	3.837300	-11.432000	22.201114	0.000911	20.857741
184.055250	-2.998700	3.835500	-11.499000	22.182146	0.000911	20.877156
185.049650	-3.007800	3.834300	-11.531000	22.210709	0.000911	20.882520
186.053273	-3.001000	3.834700	-11.507000	22.227432	0.000913	20.888832
187.054954	-2.997900	3.834400	-11.494000	22.228231	0.000913	20.877304
188.051586	-3.020700	3.832100	-11.574000	22.206896	0.000914	20.872064
189.055705	-3.018200	3.834500	-11.572000	22.191865	0.000915	20.874085
190.054786	-3.002400	3.834400	-11.510000	22.197672	0.000913	20.877527
191.052773	-3.005800	3.832600	-11.518000	22.198548	0.000915	20.868448
192.055850	-3.015800	3.833200	-11.558000	22.218286	0.000916	20.885839
193.055706	-3.005800	3.831100	-11.514000	22.233812	0.000916	20.885262
194.053061	-3.000900	3.833300	-11.503000	22.247198	0.000914	20.863105
195.056888	-3.030400	3.830300	-11.606000	22.213498	0.000918	20.894320
196.056079	-2.989400	3.832100	-11.455000	22.240315	0.000918	20.875179
197.054643	-2.995600	3.832100	-11.478000	22.244152	0.000918	20.870961
198.058749	-3.008300	3.831900	-11.525000	22.280517	0.000918	20.882715
199.058549	-3.011900	3.830600	-11.536000	22.265561	0.000919	20.875327
200.057335	-2.995300	3.831300	-11.475000	22.303968	0.000919	20.891497
201.056106	-2.992200	3.832600	-11.467000	22.283460	0.000920	20.855792
202.058188	-3.009300	3.831500	-11.529000	22.294020	0.000919	20.889597
203.055172	-3.006000	3.829400	-11.510000	22.304166	0.000920	20.889799
204.056241	-2.994800	3.830300	-11.469000	22.304689	0.000920	20.865668
205.057539	-2.988800	3.830100	-11.446000	22.330804	0.000922	20.871903
206.055015	-3.013600	3.831000	-11.544000	22.326592	0.000925	20.899451
207.059641	-2.989600	3.829400	-11.447000	22.324623	0.000921	20.875671
208.057025	-2.956300	3.831500	-11.326000	22.351812	0.000924	20.880137
209.057698	-3.004700	3.827700	-11.499000	22.358667	0.000922	20.879889
210.057194	-2.986700	3.830800	-11.441000	22.361530	0.000922	20.871376
211.055440	-3.002100	3.828800	-11.494000	22.396714	0.000924	20.871996
212.055845	-3.002400	3.829100	-11.495000	22.403071	0.000924	20.890214
213.057876	-3.003300	3.828200	-11.496000	22.391756	0.000925	20.888841
214.056398	-3.006100	3.829000	-11.510000	22.382410	0.000926	20.875690
215.057367	-3.000700	3.827100	-11.482000	22.392103	0.000926	20.865956
216.057981	-2.989800	3.828500	-11.445000	22.426169	0.000927	20.866880
217.055692	-2.988700	3.828200	-11.438000	22.399456	0.000929	20.866681
218.057578	-3.011800	3.825800	-11.522000	22.398484	0.000927	20.859545
219.055195	-2.991800	3.827200	-11.448000	22.426742	0.000928	20.868875
220.056849	-2.995600	3.826700	-11.463000	22.435738	0.000928	20.870298
221.058181	-2.997300	3.825700	-11.466000	22.450415	0.000927	20.864134
222.058414	-3.010600	3.825400	-11.516000	22.469181	0.000929	20.846892
223.057384	-2.980800	3.825400	-11.402000	22.464895	0.000933	20.858246
224.058029	-2.976900	3.828400	-11.396000	22.454182	0.000931	20.846570
225.059613	-3.003200	3.827000	-11.491000	22.439550	0.000930	20.870323
226.061417	-3.006000	3.826100	-11.501000	22.456648	0.000932	20.860419
227.057518	-2.992500	3.825400	-11.446000	22.456072	0.000930	20.861739
228.058208	-3.002300	3.824600	-11.482000	22.444437	0.000932	20.851984
229.060031	-3.015000	3.825100	-11.531000	22.448351	0.000933	20.844524
230.056987	-2.998900	3.824800	-11.469000	22.467312	0.000934	20.857822
231.059296	-3.002900	3.824700	-11.485000	22.474216	0.000933	20.852882
232.061465	-3.019200	3.823100	-11.541000	22.463428	0.000935	20.858200
233.060680	-3.010300	3.823800	-11.510000	22.506163	0.000935	20.853583
234.063221	-3.005200	3.824600	-11.493000	22.499807	0.000933	20.842476
235.062612	-3.001100	3.823300	-11.472000	22.495673	0.000937	20.857301
236.060346	-3.000000	3.823400	-11.469000	22.491139	0.000937	20.857029
237.061545	-2.985600	3.823800	-11.415000	22.478554	0.000937	20.819296
238.064420	-2.985800	3.823200	-11.413000	22.474943	0.000936	20.837964
239.064065	-3.008500	3.823100	-11.499000	22.494305	0.000938	20.839811
240.063900	-2.984700	3.822900	-11.409000	22.523058	0.000938	20.826882
241.066949	-3.004800	3.822400	-11.484000	22.514119	0.000936	20.843533
242.062520	-2.998200	3.822200	-11.459000	22.547906	0.000940	20.853189
243.064190	-3.002800	3.820300	-11.470000	22.544189	0.000937	20.829079
244.064991	-3.007900	3.820300	-11.490000	22.550421	0.000942	20.849545
245.063498	-2.995400	3.821400	-11.445000	22.564900	0.000939	20.845553
246.064300	-3.001100	3.821100	-11.467000	22.563204	0.000941	20.853812
247.068061	-3.006800	3.820300	-11.486000	22.592905	0.000941	20.849895
248.062440	-3.010500	3.821400	-11.501000	22.603197	0.000941	20.836495
249.065121	-2.994300	3.820300	-11.438000	22.611294	0.000943	20.842708
250.066255	-2.989000	3.820400	-11.419000	22.616275	0.000943	20.839637
251.063714	-3.002600	3.819800	-11.467000	22.577437	0.000945	20.845308
252.068951	-2.981100	3.820900	-11.389000	22.574396	0.000947	20.838943
253.063631	-2.998600	3.820400	-11.455000	22.578332	0.000946	20.846204
254.064376	-3.007000	3.820400	-11.486000	22.577410	0.000945	20.845755
255.064955	-3.006600	3.820500	-11.485000	22.606216	0.000946	20.820554
256.062226	-2.992600	3.820000	-11.430000	22.594053	0.000944	20.829708
257.067842	-3.008500	3.819100	-11.488000	22.598642	0.000945	20.821502
258.068177	-2.988400	3.819500	-11.413000	22.601779	0.000947	20.846929
259.071445	-2.984800	3.817700	-11.394000	22.609707	0.000948	20.825472
260.068186	-2.999400	3.817700	-11.449000	22.642068	0.000948	20.817108
261.075936	-2.985800	3.819100	-11.400000	22.626870	0.000949	20.817533
262.067188	-3.007900	3.818200	-11.484000	22.631205	0.000949	20.815710
263.071227	-3.007700	3.816300	-11.477000	22.645481	0.000950	20.831431
264.084239	-3.008800	3.816100	-11.481000	22.633723	0.000950	20.826768
265.070831	-3.005000	3.816000	-11.466000	22.647328	0.000949	20.836601
266.069247	-3.017600	3.814900	-11.511000	22.635567	0.000952	20.830511
267.068797	-2.984100	3.817300	-11.391000	22.656368	0.000950	20.826216
268.073545	-2.975900	3.817300	-11.359000	22.653902	0.000951	20.816634
269.072914	-3.011400	3.814400	-11.486000	22.675232	0.000950	20.826619
270.073143	-2.996200	3.814500	-11.427000	22.669453	0.000953	20.806131
271.072931	-2.994700	3.815700	-11.426000	22.687614	0.000953	20.835228
272.072917	-2.995600	3.813200	-11.421000	22.710661	0.000954	20.820855
273.074172	-3.014500	3.815200	-11.500000	22.700148	0.000954	20.822178
274.071229	-3.012800	3.813500	-11.488000	22.742601	0.000956	20.834831
275.072750	-3.006500	3.814400	-11.467000	22.745018	0.000956	20.821131
276.074635	-3.029100	3.812700	-11.547000	22.718785	0.000954	20.820932
277.076149	-2.994900	3.814700	-11.423000	22.742926	0.000958	20.810501
278.076074	-2.988000	3.813100	-11.392000	22.721053	0.000954	20.821781
279.075434	-2.972600	3.814500	-11.338000	22.706933	0.000957	20.819017
280.071944	-3.002500	3.812500	-11.446000	22.706085	0.000959	20.809633
281.075398	-3.005300	3.813100	-11.457000	22.704612	0.000958	20.813848
282.076047	-2.991100	3.814000	-11.407000	22.719466	0.000959	20.802648
283.072220	-3.010400	3.812300	-11.475000	22.748213	0.000957	20.821487
284.074439	-3.017300	3.811900	-11.501000	22.733942	0.000959	20.827580
285.078948	-3.017700	3.811500	-11.500000	22.748517	0.000960	20.819420
286.073007	-3.018600	3.812000	-11.506000	22.735464	0.000961	20.819147
287.073872	-3.006100	3.812900	-11.461000	22.760152	0.000961	20.808316
288.077491	-2.993600	3.811200	-11.409000	22.769622	0.000960	20.814958
289.075548	-2.995700	3.811800	-11.418000	22.765037	0.000962	20.806572
290.075893	-3.016600	3.810000	-11.492000	22.776076	0.000960	20.819051
291.077763	-2.970400	3.811100	-11.318000	22.810056	0.000964	20.808521
292.075241	-3.002300	3.810700	-11.439000	22.828215	0.000964	20.800634
293.075550	-3.011700	3.809000	-11.470000	22.853053	0.000961	20.786161
294.077625	-3.006400	3.809800	-11.453000	22.840051	0.000964	20.822448
295.077205	-3.018300	3.807900	-11.492000	22.860975	0.000965	20.809745
296.077382	-2.967200	3.809200	-11.302000	22.848298	0.000965	20.801313
297.080457	-2.994900	3.809200	-11.407000	22.853056	0.000965	20.812717
298.075769	-3.015500	3.808400	-11.484000	22.845437	0.000966	20.796075
299.076740	-2.995200	3.808500	-11.406000	22.865792	0.000965	20.815045
300.078096	-3.008700	3.807100	-11.454000	22.884402	0.000967	20.798601
301.078005	-2.995100	3.807900	-11.404000	22.871546	0.000969	20.819860
302.076874	-3.001600	3.807100	-11.426000	22.840583	0.000968	20.789791
303.079967	-3.001900	3.808100	-11.430000	22.858049	0.000966	20.798753
304.078304	-3.010700	3.806700	-11.460000	22.834836	0.000968	20.805844
305.079479	-3.019200	3.806600	-11.492000	22.846319	0.000969	20.817347
306.081194	-3.006000	3.807300	-11.442000	22.851773	0.000968	20.824707
307.078038	-2.998900	3.806200	-11.412000	22.843581	0.000971	20.795639
308.078300	-3.007100	3.806000	-11.445000	22.871332	0.000970	20.793569
309.081085	-3.009200	3.807500	-11.455000	22.850334	0.000971	20.801930
310.079074	-3.006200	3.806200	-11.441000	22.848367	0.000970	20.787631
311.079840	-2.985800	3.807400	-11.367000	22.854647	0.000973	20.798189
312.080057	-3.003800	3.804600	-11.428000	22.866980	0.000972	20.787312
313.080722	-2.989900	3.806300	-11.379000	22.859033	0.000973	20.805429
314.080020	-2.979200	3.805300	-11.335000	22.862445	0.000973	20.789881
315.085408	-2.991700	3.805200	-11.382000	22.859881	0.000971	20.808649
316.080046	-2.992800	3.804100	-11.384000	22.850090	0.000972	20.783667
317.082679	-3.021300	3.804200	-11.493000	22.864020	0.000975	20.779130
318.084285	-3.013000	3.803500	-11.457000	22.879261	0.000973	20.767372
319.083469	-2.997100	3.804700	-11.402000	22.882450	0.000974	20.802336
320.082080	-2.996800	3.803600	-11.397000	22.923675	0.000978	20.776781
321.085568	-3.011700	3.803600	-11.455000	22.919991	0.000975	20.784470
322.084022	-3.000200	3.804200	-11.412000	22.941963	0.000977	20.795103
323.084792	-3.014600	3.801900	-11.461000	22.921361	0.000978	20.783472
324.084238	-3.025500	3.801200	-11.500000	22.937650	0.000977	20.789834
325.083946	-3.017300	3.801600	-11.469000	22.927412	0.000975	20.790008
326.084399	-3.029600	3.801200	-11.515000	22.965177	0.000977	20.763359
327.086554	-2.998100	3.802800	-11.400000	22.959399	0.000976	20.790761
328.085875	-2.988700	3.802800	-11.364000	22.984404	0.000981	20.801589
329.084821	-2.986600	3.801100	-11.352000	22.983033	0.000980	20.776034
330.098599	-2.993800	3.800100	-11.376000	22.998827	0.000979	20.784272
331.087461	-2.992200	3.801000	-11.373000	23.010587	0.000979	20.782304
332.087563	-3.004200	3.800600	-11.417000	23.008991	0.000979	20.775015
333.089209	-3.000600	3.801900	-11.405000	23.026676	0.000980	20.767131
334.086283	-3.009700	3.799900	-11.435000	23.031532	0.000982	20.786221
335.087212	-3.009500	3.800600	-11.437000	23.043713	0.000982	20.783252
336.088069	-2.997200	3.800300	-11.389000	23.049419	0.000981	20.790393
337.088170	-3.016000	3.799200	-11.456000	23.065610	0.000983	20.771528
338.088036	-3.014800	3.799100	-11.452000	23.086305	0.000983	20.773772
339.090991	-3.010200	3.799000	-11.435000	23.077738	0.000983	20.784154
340.088357	-2.989100	3.799100	-11.355000	23.094798	0.000984	20.772799
341.087377	-3.032100	3.798200	-11.515000	23.112532	0.000985	20.770180
342.092446	-2.990200	3.798000	-11.356000	23.117910	0.000984	20.798329
343.088538	-3.015800	3.797000	-11.449000	23.113531	0.000984	20.784458
344.088603	-3.007400	3.796800	-11.418000	23.098388	0.000985	20.786829
345.094042	-2.988700	3.797100	-11.348000	23.094600	0.000986	20.787300
346.089886	-3.004900	3.796400	-11.407000	23.085587	0.000985	20.776847
347.089167	-3.007000	3.797200	-11.416000	23.104392	0.000988	20.775300
348.094511	-3.006700	3.795900	-11.411000	23.099833	0.000986	20.761723
349.090959	-3.004900	3.795500	-11.404000	23.085160	0.000987	20.773100
350.090264	-3.003500	3.796500	-11.402000	23.079934	0.000989	20.773552
351.094650	-3.009700	3.794900	-11.419000	23.101923	0.000985	20.757180
352.089800	-3.017100	3.794100	-11.446000	23.099508	0.000986	20.768510
353.090578	-3.019900	3.794600	-11.458000	23.078864	0.000990	20.775799
354.092464	-3.012100	3.794600	-11.429000	23.086682	0.000989	20.782211
355.090247	-3.012100	3.794600	-11.428000	23.083917	0.000987	20.778492
356.089226	-2.996300	3.794700	-11.369000	23.097594	0.000990	20.767066
357.090295	-3.039600	3.792100	-11.526000	23.088624	0.000989	20.769458
358.090612	-3.012300	3.793600	-11.426000	23.090718	0.000991	20.772505
359.090734	-2.976200	3.795200	-11.294000	23.095153	0.000991	20.784536
360.093786	-2.997100	3.793400	-11.367000	23.116172	0.000990	20.792794
361.090148	-2.977600	3.794000	-11.296000	23.148147	0.000992	20.771256
362.092270	-3.005100	3.792300	-11.395000	23.173701	0.000990	20.761302
363.091881	-2.992300	3.792800	-11.348000	23.186279	0.000992	20.785760
364.091432	-2.987300	3.793500	-11.331000	23.200421	0.000994	20.787604
365.094541	-2.992300	3.793100	-11.349000	23.207889	0.000990	20.769483
366.093116	-2.979200	3.792400	-11.297000	23.201491	0.000993	20.765442
367.091869	-2.997700	3.791900	-11.365000	23.167275	0.000993	20.774776
368.100043	-3.005000	3.791500	-11.392000	23.195563	0.000994	20.747172
369.095505	-3.004600	3.792000	-11.392000	23.211053	0.000995	20.750368
370.093452	-3.004900	3.790900	-11.391000	23.192405	0.000992	20.777200
371.094804	-3.023000	3.790600	-11.457000	23.168521	0.000995	20.748998
372.098055	-2.970200	3.790000	-11.256000	23.137094	0.000994	20.750222
373.094002	-3.013200	3.788900	-11.415000	23.148648	0.000995	20.770810
374.093666	-2.998300	3.790200	-11.363000	23.156367	0.000996	20.755785
375.098496	-3.002900	3.789400	-11.378000	23.131939	0.000996	20.776825
376.093647	-2.997900	3.787500	-11.354000	23.146731	0.000996	20.756086
377.094447	-3.006100	3.788700	-11.388000	23.134901	0.000995	20.779320
378.097344	-3.007700	3.788200	-11.392000	23.166050	0.000996	20.775446
379.094747	-3.013000	3.788100	-11.411000	23.188963	0.000997	20.761896
380.094870	-3.003000	3.789800	-11.379000	23.186696	0.000998	20.748719
381.099244	-2.994200	3.788000	-11.341000	23.231868	0.000997	20.743726
382.098536	-3.006900	3.786700	-11.386000	23.202734	0.001001	20.745824
383.097791	-3.000500	3.787300	-11.363000	23.207988	0.000997	20.759625
384.101245	-2.981100	3.787500	-11.291000	23.225025	0.000999	20.737816
385.099494	-2.997900	3.786000	-11.348000	23.222158	0.000997	20.759600
386.097447	-3.009000	3.786500	-11.393000	23.235084	0.000998	20.736992
387.099850	-2.994900	3.785100	-11.335000	23.257968	0.001001	20.757555
388.100329	-2.983600	3.786100	-11.294000	23.271092	0.001001	20.742257
389.097178	-3.003900	3.785500	-11.368000	23.280607	0.001000	20.738516
390.101720	-2.995900	3.784700	-11.337000	23.252866	0.001002	20.766666
391.100486	-3.009900	3.784600	-11.391000	23.284515	0.001001	20.754288
392.099428	-2.995000	3.784800	-11.335000	23.310388	0.000999	20.762200
393.102068	-2.979000	3.785500	-11.276000	23.338876	0.001000	20.740965
394.099529	-3.013700	3.783800	-11.401000	23.329810	0.001002	20.741836
395.098477	-3.020800	3.782500	-11.425000	23.303196	0.001001	20.756889
396.103682	-2.981500	3.782500	-11.275000	23.323561	0.001001	20.748849
397.099170	-2.990200	3.782200	-11.308000	23.261589	0.001002	20.755020
398.100268	-3.016500	3.782200	-11.407000	23.290870	0.001002	20.743587
399.101827	-3.009900	3.781800	-11.381000	23.276482	0.001001	20.733908
400.099583	-2.998200	3.781900	-11.338000	23.308258	0.001004	20.738728
401.100969	-2.999100	3.780300	-11.336000	23.318688	0.001004	20.752500
402.101325	-2.989300	3.780600	-11.300000	23.313110	0.001004	20.762557
403.100797	-2.985800	3.781000	-11.289000	23.353524	0.001004	20.755646
404.100208	-2.993600	3.780600	-11.316000	23.342844	0.001004	20.725026
405.100928	-2.991900	3.779900	-11.306000	23.361118	0.001003	20.730065
406.100406	-2.987300	3.780800	-11.294000	23.374293	0.001004	20.738529
407.102550	-2.984500	3.779200	-11.276000	23.373195	0.001002	20.758293
408.107160	-3.008400	3.779100	-11.367000	23.356338	0.001004	20.746138
409.105675	-3.010200	3.779200	-11.375000	23.365778	0.001006	20.733788
410.104001	-3.012600	3.779700	-11.384000	23.334155	0.001004	20.723430
411.107874	-3.019500	3.777700	-11.406000	23.305299	0.001004	20.734339
412.105278	-2.991200	3.778900	-11.302000	23.325067	0.001006	20.717166
413.103792	-3.023000	3.777700	-11.419000	23.312293	0.001007	20.734237
414.107360	-3.015400	3.777100	-11.389000	23.314461	0.001005	20.729771
415.106001	-3.000700	3.777600	-11.335000	23.303753	0.001007	20.725677
416.103937	-2.983600	3.777400	-11.269000	23.309232	0.001006	20.731169
417.108055	-2.991600	3.776700	-11.297000	23.297927	0.001006	20.717467
418.106315	-2.994400	3.776900	-11.308000	23.304724	0.001007	20.726650
419.104596	-2.996300	3.776900	-11.316000	23.297207	0.001006	20.720539
420.107273	-3.006700	3.775900	-11.352000	23.302958	0.001009	20.741003
421.105927	-2.980700	3.776400	-11.254000	23.303880	0.001009	20.730546
422.104873	-3.001200	3.775400	-11.330000	23.316011	0.001007	20.725634
423.106673	-2.980400	3.775800	-11.252000	23.314888	0.001009	20.738734
424.106575	-2.992200	3.773800	-11.291000	23.305500	0.001008	20.721738
425.104992	-2.959900	3.775800	-11.174000	23.307668	0.001010	20.733868
426.109941	-3.007300	3.775300	-11.352000	23.317430	0.001009	20.729427
427.107105	-2.980500	3.774600	-11.249000	23.363941	0.001009	20.717247
428.106266	-2.983100	3.775700	-11.263000	23.377985	0.001010	20.715202
429.113297	-3.003200	3.774000	-11.333000	23.385484	0.001011	20.740736
430.112397	-3.014800	3.771900	-11.371000	23.382419	0.001012	20.723440
431.105987	-3.006100	3.773200	-11.342000	23.387747	0.001012	20.740160
432.107313	-3.016500	3.773100	-11.380000	23.395143	0.001011	20.715329
433.106444	-2.982300	3.773400	-11.252000	23.390561	0.001009	20.724487
434.106226	-3.015700	3.773200	-11.377000	23.388241	0.001012	20.717421
435.112312	-3.008900	3.772200	-11.349000	23.410850	0.001012	20.715425
436.109476	-3.009700	3.771700	-11.350000	23.398303	0.001011	20.726083
437.110088	-3.012400	3.770600	-11.358000	23.398303	0.001011	20.714229
438.109614	-3.008200	3.771100	-11.343000	23.434478	0.001013	20.716823
439.108490	-3.015800	3.770100	-11.369000	23.449665	0.001012	20.729201
440.109244	-2.993900	3.769700	-11.285000	23.475979	0.001012	20.733292
441.110987	-3.008600	3.770800	-11.343000	23.483424	0.001013	20.723210
442.109845	-3.001100	3.769200	-11.311000	23.487459	0.001013	20.726306
443.108079	-2.987800	3.769200	-11.260000	23.516984	0.001015	20.724608
444.111948	-2.982800	3.769500	-11.241000	23.529329	0.001016	20.720861
445.112887	-2.992200	3.768800	-11.276000	23.526243	0.001014	20.718716
446.108650	-3.010000	3.767500	-11.340000	23.535654	0.001014	20.714399
447.113974	-3.014500	3.766700	-11.354000	23.546382	0.001013	20.730369
448.112881	-2.997200	3.768400	-11.294000	23.536050	0.001015	20.739453
449.110257	-3.002200	3.766900	-11.308000	23.552626	0.001011	20.723352
450.116498	-3.030700	3.766100	-11.412000	23.536244	0.001014	20.726845
451.115644	-3.006200	3.767100	-11.324000	23.546354	0.001014	20.724177
452.110986	-2.999300	3.765800	-11.294000	23.506345	0.001017	20.715840
453.115179	-2.973200	3.766800	-11.199000	23.520264	0.001016	20.722680
454.112804	-3.007800	3.765300	-11.323000	23.551878	0.001018	20.720231
455.109992	-3.007800	3.765700	-11.325000	23.556908	0.001017	20.735706
456.116125	-2.977200	3.766100	-11.212000	23.551479	0.001016	20.719832
457.114048	-2.987600	3.764900	-11.246000	23.538461	0.001014	20.730016
458.113913	-3.005200	3.764400	-11.310000	23.500620	0.001016	20.723377
459.116865	-3.006300	3.763000	-11.312000	23.500867	0.001015	20.724573
460.115567	-3.017200	3.764400	-11.357000	23.493249	0.001017	20.731162
461.113795	-2.986500	3.765000	-11.243000	23.487449	0.001016	20.717761
462.117822	-2.985500	3.764400	-11.237000	23.514133	0.001020	20.734553
463.116073	-2.999900	3.763500	-11.289000	23.495017	0.001016	20.731513
464.115993	-3.031800	3.762400	-11.406000	23.516823	0.001019	20.723972
465.118545	-2.992300	3.763800	-11.262000	23.513886	0.001015	20.713441
466.115514	-3.007700	3.761900	-11.314000	23.499967	0.001016	20.712765
467.116721	-2.977000	3.762800	-11.201000	23.506787	0.001017	20.722447
468.118742	-2.966100	3.763400	-11.161000	23.544381	0.001017	20.724570
469.125030	-2.990900	3.762100	-11.251000	23.547865	0.001018	20.738021
470.116637	-2.991800	3.761400	-11.252000	23.600590	0.001017	20.717380
471.119522	-2.998100	3.760300	-11.273000	23.601239	0.001013	20.718031
472.122327	-2.980000	3.760500	-11.205000	23.603728	0.001018	20.739019
473.117018	-3.009600	3.761500	-11.319000	23.620155	0.001018	20.722295
474.119039	-2.981000	3.760500	-11.210000	23.632202	0.001016	20.724415
475.118324	-2.971000	3.760200	-11.170000	23.654184	0.001019	20.745979
476.117048	-2.983900	3.760100	-11.219000	23.649850	0.001017	20.728831
477.119087	-2.999100	3.758800	-11.272000	23.655151	0.001020	20.731776
478.118937	-3.008500	3.756800	-11.301000	23.648830	0.001018	20.734447
479.117232	-2.999200	3.758000	-11.270000	23.662669	0.001018	20.742632
480.120257	-2.998100	3.757100	-11.264000	23.680416	0.001019	20.734345
481.117640	-2.990400	3.758100	-11.237000	23.682808	0.001018	20.743856
482.117371	-3.008300	3.758300	-11.305000	23.691844	0.001019	20.734897
483.122118	-3.022500	3.756200	-11.352000	23.694230	0.001019	20.751514
484.118744	-2.986900	3.757400	-11.221000	23.710066	0.001021	20.740838
485.118966	-3.006700	3.756300	-11.293000	23.707275	0.001020	20.738987
486.121669	-3.019100	3.755000	-11.336000	23.722511	0.001019	20.722019
487.120982	-2.993700	3.755900	-11.243000	23.743937	0.001020	20.743029
488.119197	-3.020500	3.756100	-11.343000	23.748218	0.001019	20.741631
489.120152	-2.969400	3.756400	-11.153000	23.743718	0.001021	20.753241
490.120328	-3.000700	3.754300	-11.265000	23.759522	0.001023	20.723566
491.120354	-3.018600	3.755100	-11.334000	23.735453	0.001023	20.747798
492.122736	-2.997500	3.756000	-11.257000	23.694057	0.001019	20.743754
493.121086	-2.991200	3.755000	-11.231000	23.667872	0.001019	20.736468
494.121205	-3.012300	3.753900	-11.306000	23.682060	0.001020	20.730778
495.120813	-2.996400	3.754100	-11.247000	23.698511	0.001021	20.735417
496.121067	-3.012000	3.753900	-11.306000	23.716758	0.001023	20.762247
497.121778	-3.017400	3.754200	-11.325000	23.681810	0.001021	20.753287
498.121124	-3.004600	3.752100	-11.273000	23.696125	0.001019	20.744405
499.124557	-3.001800	3.752200	-11.263000	23.717930	0.001021	20.770534
500.123429	-2.998000	3.752400	-11.248000	23.744537	0.001020	20.747423
501.123193	-2.999700	3.752800	-11.256000	23.749288	0.001021	20.763567
502.124082	-3.009800	3.750800	-11.288000	23.758276	0.001021	20.746500
503.125669	-2.983300	3.751800	-11.192000	23.744382	0.001021	20.724982
504.125132	-2.989400	3.750100	-11.210000	23.750753	0.001023	20.762665
505.124608	-3.010600	3.750400	-11.290000	23.756579	0.001022	20.729625
506.125542	-2.997100	3.752000	-11.243000	23.739526	0.001023	20.751883
507.126831	-2.992300	3.748600	-11.215000	23.746444	0.001022	20.754551
508.126913	-3.002100	3.749500	-11.255000	23.719713	0.001022	20.750510
509.127108	-3.007700	3.747900	-11.272000	23.726210	0.001022	20.753231
510.132548	-3.001900	3.749300	-11.254000	23.673065	0.001022	20.733613
511.131226	-2.990300	3.747900	-11.206000	23.708087	0.001023	20.741225
512.129160	-2.990200	3.749100	-11.210000	23.724965	0.001022	20.747240
513.129796	-2.983000	3.747100	-11.177000	23.713240	0.001023	20.768677
514.129383	-3.000900	3.747600	-11.244000	23.685333	0.001024	20.762984
515.129154	-2.988600	3.747200	-11.197000	23.694941	0.001023	20.738476
516.131902	-2.989800	3.746400	-11.201000	23.697228	0.001023	20.763055
517.129202	-2.977000	3.746400	-11.152000	23.712637	0.001022	20.768073
518.129559	-3.008200	3.746900	-11.270000	23.735440	0.001022	20.780503
519.127910	-2.992000	3.745000	-11.204000	23.751043	0.001021	20.758688
520.132000	-2.971000	3.746200	-11.129000	23.758931	0.001021	20.741466
521.131089	-3.033900	3.744400	-11.359000	23.771796	0.001023	20.756736
522.130943	-3.014000	3.744200	-11.284000	23.782549	0.001021	20.763724
523.130486	-3.013300	3.744300	-11.281000	23.779136	0.001025	20.768364
524.134522	-3.000400	3.745400	-11.236000	23.785334	0.001022	20.755137
525.131313	-3.007800	3.743900	-11.260000	23.774259	0.001022	20.754464
526.132944	-3.009400	3.742700	-11.262000	23.802482	0.001022	20.756209
527.138278	-2.992900	3.744500	-11.206000	23.776246	0.001022	20.778268
528.133163	-3.009500	3.742000	-11.261000	23.768633	0.001024	20.764945
529.135895	-2.989900	3.743700	-11.193000	23.815052	0.001023	20.769761
530.133560	-3.016400	3.741400	-11.284000	23.828861	0.001022	20.759900
531.133503	-3.012300	3.742600	-11.273000	23.834811	0.001023	20.773927
532.133421	-2.977600	3.743800	-11.146000	23.852583	0.001022	20.782737
533.135156	-2.988500	3.742600	-11.184000	23.876748	0.001025	20.769984
534.133241	-3.018200	3.741500	-11.291000	23.870947	0.001020	20.771280
535.134733	-3.010800	3.742300	-11.267000	23.866042	0.001024	20.772526
536.134766	-2.997000	3.741200	-11.210000	23.841830	0.001024	20.772430
537.138124	-2.988900	3.741500	-11.182000	23.815896	0.001022	20.763495
538.134955	-2.985100	3.741000	-11.165000	23.814227	0.001023	20.770356
539.136800	-3.003200	3.739500	-11.229000	23.825205	0.001023	20.784209
540.137470	-3.008300	3.739600	-11.248000	23.846559	0.001023	20.788551
541.137178	-3.010900	3.738900	-11.256000	23.885309	0.001024	20.775250
542.136080	-2.991400	3.740500	-11.188000	23.867341	0.001023	20.756757
543.137433	-2.998600	3.739600	-11.213000	23.871173	0.001023	20.782412
544.141777	-3.003700	3.738000	-11.227000	23.866571	0.001026	20.765469
545.137328	-3.000400	3.738300	-11.215000	23.850119	0.001023	20.772681
546.138115	-2.982400	3.739400	-11.152000	23.858430	0.001022	20.763944
547.142921	-3.011900	3.737600	-11.256000	23.851637	0.001026	20.784634
548.140561	-2.985700	3.737700	-11.159000	23.864951	0.001023	20.781863
549.140006	-3.016900	3.736500	-11.271000	23.896633	0.001023	20.791346
550.143243	-2.986600	3.737400	-11.161000	23.897656	0.001025	20.780044
551.139134	-3.000900	3.737100	-11.214000	23.919679	0.001024	20.784584
552.139309	-3.008900	3.735700	-11.240000	23.930583	0.001024	20.775129
553.142284	-2.999400	3.735400	-11.203000	23.932848	0.001025	20.768866
554.139706	-2.983500	3.735100	-11.143000	23.937725	0.001024	20.802206
555.139163	-3.000000	3.734700	-11.203000	23.929513	0.001022	20.779747
556.143399	-2.976700	3.735800	-11.120000	23.968162	0.001024	20.795270
557.139116	-2.967400	3.735900	-11.085000	23.922946	0.001027	20.780748
558.140038	-2.998700	3.733300	-11.194000	23.945018	0.001026	20.767794
559.144228	-3.021800	3.732700	-11.278000	23.940540	0.001025	20.779425
560.141245	-3.011400	3.734200	-11.244000	23.989566	0.001023	20.789233
561.140920	-2.995500	3.732900	-11.181000	23.963860	0.001024	20.782421
562.142753	-3.018700	3.732800	-11.266000	23.986234	0.001024	20.798695
563.141762	-2.981100	3.733900	-11.130000	23.998954	0.001027	20.774466
564.143305	-2.984900	3.733800	-11.143000	24.025678	0.001025	20.781826
565.144632	-2.989400	3.733700	-11.161000	24.005994	0.001027	20.800966
566.142416	-2.978300	3.732900	-11.116000	23.994925	0.001024	20.796030
567.144114	-2.996900	3.731800	-11.183000	23.973598	0.001025	20.802144
568.144411	-3.001500	3.731100	-11.198000	23.975539	0.001025	20.783702
569.142342	-2.978300	3.731400	-11.112000	23.959713	0.001026	20.786798
570.141341	-2.998500	3.731700	-11.189000	23.944113	0.001026	20.811931
571.144016	-2.999100	3.730200	-11.187000	23.940080	0.001023	20.804093
572.143297	-3.007700	3.731200	-11.221000	23.960090	0.001025	20.808039
573.145117	-2.995000	3.730300	-11.171000	23.963601	0.001027	20.789748
574.143617	-3.014200	3.730400	-11.242000	23.980947	0.001027	20.807143
575.143344	-2.984900	3.730100	-11.133000	23.981145	0.001025	20.802126
576.149812	-2.998000	3.729200	-11.178000	23.969649	0.001025	20.819995
577.145070	-3.008800	3.727500	-11.214000	23.993442	0.001023	20.795965
578.144239	-3.001900	3.727900	-11.190000	24.014196	0.001026	20.813459
579.143719	-2.974600	3.729000	-11.092000	24.032039	0.001023	20.791998
580.149097	-2.988900	3.728600	-11.143000	24.049881	0.001025	20.810840
581.145563	-2.993600	3.726800	-11.156000	24.071481	0.001024	20.795045
582.147293	-3.007300	3.726500	-11.206000	24.077031	0.001025	20.801085
583.148871	-3.002600	3.726400	-11.188000	24.088303	0.001022	20.814761
584.146025	-2.965200	3.729300	-11.057000	24.085269	0.001022	20.800812
585.147634	-2.996800	3.726600	-11.166000	24.072659	0.001022	20.805234
586.149525	-2.983800	3.725100	-11.114000	24.066636	0.001021	20.814841
587.147898	-3.004500	3.724900	-11.191000	24.089057	0.001024	20.801293
588.148473	-3.001800	3.726000	-11.184000	24.094752	0.001022	20.822651
589.151045	-3.017300	3.723600	-11.233000	24.127376	0.001021	20.826921
590.151489	-3.018000	3.723000	-11.235000	24.119716	0.001023	20.823506
591.150445	-3.008800	3.724800	-11.206000	24.132608	0.001021	20.797555
592.146883	-2.967100	3.724600	-11.049000	24.133772	0.001022	20.815793
593.147939	-3.014600	3.724400	-11.227000	24.132855	0.001024	20.817718
594.149564	-3.006900	3.723300	-11.195000	24.133080	0.001021	20.802771
595.148434	-3.015100	3.721900	-11.220000	24.112854	0.001021	20.799554
596.150730	-2.999700	3.723300	-11.168000	24.096381	0.001023	20.807215
597.150261	-3.015200	3.721100	-11.219000	24.098025	0.001022	20.822614
598.150146	-3.011900	3.722500	-11.209000	24.113302	0.001021	20.807116
599.150141	-3.010000	3.722300	-11.203000	24.100985	0.001021	20.810884
600.150546	-3.016500	3.720700	-11.223000	24.119748	0.001022	20.831124
601.149637	-2.999600	3.722000	-11.163000	24.130148	0.001023	20.821167
602.149908	-3.006300	3.721600	-11.186000	24.106112	0.001022	20.834991
603.151674	-2.991000	3.720900	-11.128000	24.124231	0.001020	20.831353
604.151818	-3.001900	3.720200	-11.166000	24.137490	0.001022	20.818099
605.154606	-2.992700	3.719800	-11.131000	24.162793	0.001024	20.836364
606.152881	-3.004700	3.719600	-11.175000	24.165431	0.001021	20.828580
607.153098	-2.997800	3.718900	-11.147000	24.164038	0.001021	20.830027
608.154962	-2.998400	3.718100	-11.148000	24.139752	0.001022	20.823212
609.153917	-3.044800	3.718000	-11.318000	24.115993	0.001020	20.825936
610.154859	-2.991200	3.717900	-11.119000	24.118654	0.001020	20.823863
611.155125	-3.011100	3.718600	-11.197000	24.079167	0.001023	20.813184
612.161741	-2.994600	3.719100	-11.137000	24.116466	0.001022	20.845850
613.155240	-2.977100	3.718200	-11.068000	24.112085	0.001024	20.820120
614.155738	-3.015500	3.717000	-11.208000	24.163367	0.001020	20.812285
615.154856	-2.997000	3.718100	-11.143000	24.175609	0.001021	20.814132
616.155216	-3.011800	3.716200	-11.192000	24.207628	0.001022	20.843876
617.154873	-2.989500	3.716000	-11.107000	24.221114	0.001020	20.852662
618.155933	-2.991600	3.717400	-11.120000	24.219597	0.001022	20.819847
619.153620	-3.017100	3.715100	-11.207000	24.203398	0.001019	20.842004
620.155455	-2.985200	3.716300	-11.093000	24.231885	0.001020	20.828378
621.154167	-2.976300	3.716700	-11.061000	24.222882	0.001018	20.836891
622.155429	-2.996800	3.714400	-11.129000	24.245423	0.001017	20.842432
623.155696	-3.010600	3.713900	-11.180000	24.226289	0.001020	20.837939
624.155669	-3.000500	3.715600	-11.148000	24.250271	0.001020	20.838760
625.156515	-2.989600	3.715400	-11.107000	24.256092	0.001019	20.842227
626.160386	-3.004600	3.713700	-11.158000	24.284435	0.001019	20.831778
627.157048	-2.986500	3.713800	-11.089000	24.304235	0.001020	20.845001
628.156442	-3.026000	3.712900	-11.234000	24.286301	0.001020	20.842658
629.159793	-3.011100	3.712900	-11.179000	24.305082	0.001018	20.843005
630.164975	-3.003200	3.714700	-11.155000	24.324486	0.001018	20.854883
631.159843	-3.001400	3.711500	-11.137000	24.308041	0.001018	20.853560
632.161334	-2.982800	3.713400	-11.075000	24.326003	0.001019	20.849293
633.162715	-3.025400	3.711300	-11.226000	24.309085	0.001017	20.838013
634.162362	-2.996300	3.711900	-11.121000	24.325953	0.001020	20.848769
635.166344	-2.979700	3.711600	-11.057000	24.314983	0.001020	20.864316
636.163866	-2.995400	3.711200	-11.116000	24.326874	0.001020	20.839736
637.165009	-2.978800	3.711000	-11.053000	24.336578	0.001017	20.851366
638.164990	-3.032000	3.708300	-11.241000	24.348394	0.001017	20.845677
639.163881	-3.001700	3.709900	-11.136000	24.355759	0.001018	20.857332
640.163560	-3.002400	3.710300	-11.140000	24.334264	0.001018	20.848571
641.165448	-3.009700	3.708200	-11.160000	24.356306	0.001017	20.854087
642.165946	-2.994900	3.710000	-11.110000	24.329339	0.001016	20.840313
643.166329	-2.988100	3.710500	-11.086000	24.309910	0.001015	20.845004
644.167989	-2.995500	3.709900	-11.111000	24.296827	0.001016	20.858906
645.167179	-3.011400	3.707500	-11.164000	24.285757	0.001016	20.865820
646.173564	-3.021800	3.708300	-11.204000	24.272049	0.001015	20.866768
647.168344	-3.000300	3.708000	-11.124000	24.275982	0.001016	20.848429
648.166683	-3.006300	3.708800	-11.149000	24.232543	0.001014	20.845634
649.165718	-2.999100	3.707700	-11.119000	24.238889	0.001012	20.864800
650.167707	-3.036400	3.705800	-11.250000	24.222545	0.001013	20.857890
651.166202	-3.001100	3.705500	-11.119000	24.218192	0.001013	20.863955
652.165998	-2.995000	3.706600	-11.101000	24.189924	0.001014	20.864524
653.166926	-2.989000	3.706600	-11.078000	24.178261	0.001016	20.846663
654.169669	-2.974700	3.708300	-11.029000	24.185500	0.001014	20.860561
655.166053	-2.999400	3.706500	-11.116000	24.224739	0.001013	20.858668
656.167456	-2.999900	3.705000	-11.114000	24.244269	0.001013	20.862610
657.168871	-2.978100	3.706100	-11.037000	24.247881	0.001013	20.868129
658.166746	-2.989300	3.705900	-11.076000	24.249694	0.001016	20.863784
659.169171	-2.971000	3.705000	-11.006000	24.255716	0.001013	20.862712
660.165928	-2.990200	3.704100	-11.074000	24.254251	0.001012	20.906285
661.165983	-2.988600	3.704900	-11.071000	24.265822	0.001012	20.872375
662.168916	-2.995100	3.703500	-11.092000	24.255376	0.001014	20.868535
663.167405	-3.004700	3.703400	-11.127000	24.255821	0.001013	20.879412
664.167336	-3.006700	3.703700	-11.134000	24.268961	0.001011	20.881687
665.168359	-2.986100	3.702400	-11.056000	24.278613	0.001013	20.870032
666.167239	-3.005100	3.701200	-11.122000	24.263910	0.001012	20.864293
667.168125	-2.994200	3.701700	-11.082000	24.280581	0.001011	20.888126
668.168891	-3.004300	3.701400	-11.119000	24.284983	0.001011	20.886853
669.167968	-3.020300	3.700400	-11.176000	24.277300	0.001012	20.876776
670.167307	-2.996400	3.701700	-11.091000	24.299813	0.001012	20.882288
671.169214	-2.992400	3.701800	-11.076000	24.316205	0.001010	20.870283
672.166501	-2.993000	3.701600	-11.078000	24.325461	0.001012	20.880516
673.166423	-2.985600	3.700100	-11.046000	24.358448	0.001010	20.872831
674.168927	-2.984600	3.701600	-11.047000	24.362508	0.001012	20.875955
675.170540	-2.993100	3.699500	-11.072000	24.355390	0.001010	20.879245
676.166581	-2.992000	3.699100	-11.067000	24.323005	0.001012	20.893224
677.173066	-3.005100	3.699200	-11.115000	24.312007	0.001009	20.883141
678.168957	-2.996000	3.700400	-11.086000	24.303774	0.001009	20.881046
679.171098	-3.000600	3.698600	-11.097000	24.316486	0.001008	20.903280
680.176084	-2.986900	3.699600	-11.049000	24.358356	0.001010	20.890755
681.168942	-3.011100	3.697900	-11.134000	24.347760	0.001009	20.874910
682.171246	-3.023100	3.695900	-11.171000	24.328832	0.001010	20.898595
683.172282	-3.005100	3.696900	-11.108000	24.340522	0.001009	20.886615
684.171076	-3.018300	3.696500	-11.156000	24.319579	0.001007	20.910649
685.170050	-3.023800	3.695500	-11.173000	24.299529	0.001008	20.876315
686.173301	-3.009600	3.695500	-11.122000	24.316345	0.001010	20.864734
687.171425	-3.002500	3.694900	-11.092000	24.309060	0.001008	20.879237
688.172997	-2.997100	3.695000	-11.072000	24.362944	0.001008	20.886823
689.172991	-3.004400	3.695800	-11.102000	24.348666	0.001010	20.875345
690.170055	-3.004900	3.694900	-11.101000	24.349713	0.001008	20.885878
691.171968	-2.996200	3.695400	-11.072000	24.360214	0.001007	20.867016
692.173137	-2.976700	3.695500	-10.998000	24.360535	0.001005	20.878243
693.171674	-3.006800	3.695600	-11.110000	24.367656	0.001007	20.863102
694.172194	-3.004300	3.693600	-11.095000	24.390590	0.001006	20.877574
695.172392	-3.007100	3.693800	-11.107000	24.414673	0.001006	20.868544
696.171776	-3.016000	3.692500	-11.136000	24.438107	0.001006	20.883992
697.173580	-3.007200	3.695700	-11.113000	24.432485	0.001006	20.881671
698.176153	-3.014500	3.692300	-11.129000	24.411220	0.001004	20.880726
699.174375	-2.979000	3.693900	-11.002000	24.404705	0.001007	20.868501
700.175916	-3.008200	3.692400	-11.107000	24.402663	0.001006	20.873090
701.176983	-3.012400	3.692200	-11.121000	24.413960	0.001005	20.878259
702.177586	-2.984600	3.693400	-11.022000	24.415604	0.001005	20.856202
703.178271	-3.021200	3.691900	-11.153000	24.403291	0.001006	20.867082
704.178521	-3.006100	3.691200	-11.094000	24.438414	0.001005	20.852058
705.175805	-2.987900	3.692200	-11.031000	24.461572	0.001005	20.854429
706.175465	-2.992400	3.692900	-11.050000	24.468241	0.001003	20.848318
707.178808	-2.988500	3.690400	-11.027000	24.427945	0.001002	20.867634
708.176647	-2.987200	3.689900	-11.021000	24.441873	0.001001	20.864538
709.179780	-3.005500	3.689300	-11.087000	24.465208	0.001003	20.859025
710.180410	-3.006000	3.690800	-11.093000	24.464139	0.001003	20.845626
711.179820	-3.013300	3.689000	-11.115000	24.507417	0.001003	20.852062
712.178648	-2.994600	3.689600	-11.048000	24.502247	0.001002	20.853038
713.179101	-2.987700	3.689800	-11.023000	24.516873	0.001002	20.831203
714.178502	-3.006500	3.688000	-11.087000	24.524829	0.001003	20.863367
715.178338	-2.985100	3.688400	-11.009000	24.523863	0.001001	20.843906
716.179993	-3.005500	3.687400	-11.081000	24.486926	0.001001	20.854737
717.182014	-2.993300	3.688000	-11.038000	24.450433	0.001002	20.835195
718.180381	-3.000000	3.688500	-11.065000	24.424143	0.001002	20.851018
719.180910	-3.007300	3.687500	-11.089000	24.406757	0.001003	20.851120
720.180793	-3.005300	3.687100	-11.079000	24.399566	0.001002	20.835846
721.179405	-2.997500	3.686100	-11.048000	24.437556	0.001001	20.845508
722.179988	-2.990200	3.686700	-11.023000	24.445164	0.001001	20.846503
723.182208	-3.021500	3.684600	-11.131000	24.449618	0.001001	20.836748
724.182343	-3.005000	3.684900	-11.072000	24.427380	0.001000	20.828188
725.181728	-3.012200	3.685200	-11.099000	24.450638	0.001002	20.841089
726.181255	-2.999100	3.686000	-11.054000	24.448821	0.001002	20.838319
727.182239	-2.990600	3.684900	-11.019000	24.472854	0.001001	20.836825
728.181421	-2.992000	3.685400	-11.026000	24.479520	0.001000	20.844461
729.183812	-2.993200	3.684100	-11.026000	24.487452	0.001000	20.820177
730.181959	-3.002300	3.683400	-11.058000	24.494417	0.001000	20.848976
731.180872	-2.995800	3.683800	-11.035000	24.531180	0.001000	20.838920
732.181453	-2.982500	3.684800	-10.988000	24.571049	0.000999	20.828662
733.184605	-2.980600	3.683800	-10.978000	24.519909	0.000999	20.831405
734.183506	-3.006300	3.683000	-11.071000	24.520382	0.000998	20.830931
735.182723	-3.004500	3.681900	-11.061000	24.492971	0.000998	20.841362
736.186571	-3.019300	3.679500	-11.107000	24.456683	0.001000	20.837197
737.184864	-3.010900	3.681000	-11.082000	24.479763	0.000998	20.824792
738.183624	-3.001900	3.681700	-11.051000	24.484616	0.000998	20.823022
739.183816	-2.976800	3.681500	-10.957000	24.504860	0.000998	20.828160
740.184501	-3.017000	3.679900	-11.101000	24.495511	0.000998	20.825892
741.185326	-3.016200	3.679600	-11.097000	24.479569	0.000997	20.838347
742.186628	-2.983600	3.681300	-10.982000	24.491850	0.000997	20.820797
743.188583	-3.018300	3.680900	-11.109000	24.436082	0.000999	20.830280
744.187983	-2.973700	3.681400	-10.947000	24.423370	0.000997	20.822269
745.186671	-2.991600	3.680000	-11.008000	24.420887	0.000997	20.814562
746.190631	-3.006700	3.679300	-11.062000	24.431207	0.000996	20.815907
747.188256	-2.998200	3.679300	-11.031000	24.464615	0.000996	20.831879
748.190533	-3.012200	3.678900	-11.081000	24.466431	0.000997	20.829908
749.191137	-2.997200	3.678000	-11.022000	24.447001	0.000995	20.812312
750.195884	-2.995300	3.678800	-11.017000	24.490108	0.000997	20.843704
751.195545	-3.017800	3.678000	-11.098000	24.500106	0.000996	20.810115
752.192827	-2.990200	3.677200	-10.994000	24.499510	0.000996	20.816629
753.192509	-2.992900	3.676700	-11.004000	24.466675	0.000996	20.816402
754.191958	-2.987000	3.677600	-10.985000	24.444512	0.000995	20.815978
755.193242	-3.023700	3.677000	-11.116000	24.456725	0.000994	20.823964
756.192040	-2.999900	3.676600	-11.028000	24.452722	0.000995	20.832275
757.191760	-2.989800	3.676300	-10.990000	24.462520	0.000994	20.831674
758.191842	-2.997700	3.676400	-11.020000	24.474632	0.000996	20.820592
759.192407	-2.986400	3.676500	-10.978000	24.491222	0.000994	20.820642
760.192973	-3.001100	3.676300	-11.031000	24.502314	0.000994	20.834140
761.192354	-2.996500	3.673600	-11.006000	24.521045	0.000995	20.825907
762.193946	-2.998300	3.673700	-11.013000	24.546290	0.000991	20.817570
763.193161	-3.007000	3.674400	-11.048000	24.539624	0.000994	20.823685
764.193047	-3.001700	3.673400	-11.025000	24.521938	0.000993	20.802621
765.195749	-2.977200	3.673900	-10.937000	24.530790	0.000994	20.800597
766.194079	-3.011200	3.673000	-11.059000	24.470795	0.000992	20.812001
767.192460	-2.993600	3.673000	-10.994000	24.457809	0.000991	20.828370
768.195309	-2.983300	3.673800	-10.959000	24.449376	0.000992	20.831289
769.193728	-3.029700	3.671300	-11.122000	24.448184	0.000991	20.826774
770.196543	-2.971600	3.673700	-10.915000	24.470767	0.000990	20.811499
771.196305	-2.984000	3.672400	-10.957000	24.448752	0.000990	20.819758
772.193937	-2.990600	3.672800	-10.982000	24.485566	0.000991	20.805958
773.193496	-3.012900	3.671100	-11.059000	24.527426	0.000990	20.800066
774.196640	-3.006500	3.671300	-11.037000	24.535237	0.000990	20.817861
775.193621	-3.019400	3.670200	-11.080000	24.569460	0.000991	20.802886
776.196187	-2.999500	3.670400	-11.009000	24.576898	0.000989	20.830263
777.196062	-2.998100	3.669800	-11.001000	24.556775	0.000988	20.820978
778.194822	-3.003100	3.671400	-11.025000	24.586970	0.000989	20.806704
779.194530	-2.998200	3.669500	-11.001000	24.586574	0.000989	20.794928
780.195710	-2.998800	3.671200	-11.007000	24.610326	0.000990	20.803113
781.193382	-3.006400	3.669700	-11.031000	24.645219	0.000987	20.806832
782.195054	-3.002000	3.669100	-11.013000	24.648326	0.000986	20.788138
783.198032	-3.002200	3.668700	-11.013000	24.598364	0.000988	20.796800
784.194979	-3.023700	3.669600	-11.095000	24.623112	0.000986	20.806934
785.193539	-2.989300	3.668200	-10.965000	24.598466	0.000984	20.799273
786.196856	-2.993100	3.668000	-10.977000	24.587072	0.000990	20.791634
787.194237	-2.984500	3.669600	-10.950000	24.610255	0.000985	20.813947
788.194878	-2.993200	3.668600	-10.981000	24.581228	0.000985	20.808056
789.196794	-2.976200	3.667900	-10.916000	24.584536	0.000987	20.804263
790.195465	-3.000000	3.666500	-10.997000	24.570461	0.000985	20.808158
791.197859	-2.993600	3.666900	-10.976000	24.583199	0.000986	20.817146
792.197360	-3.004900	3.666100	-11.016000	24.595412	0.000986	20.788622
793.199380	-2.997500	3.666600	-10.990000	24.628589	0.000985	20.812429
794.197335	-3.002500	3.667100	-11.009000	24.640353	0.000983	20.787724
795.196460	-3.027200	3.665000	-11.093000	24.650403	0.000983	20.806343
796.196290	-3.018700	3.664700	-11.062000	24.637891	0.000984	20.798530
797.196427	-2.987500	3.666200	-10.951000	24.624685	0.000983	20.803770
798.197001	-2.997300	3.664800	-10.984000	24.612723	0.000985	20.811208
799.197737	-3.005100	3.664800	-11.012000	24.571812	0.000982	20.804298
800.197865	-2.998400	3.664300	-10.986000	24.570817	0.000980	20.799981
801.196350	-3.021700	3.663400	-11.069000	24.572284	0.000981	20.806668
802.197120	-2.971400	3.665900	-10.892000	24.592530	0.000981	20.795214
803.196873	-2.984800	3.664900	-10.938000	24.595165	0.000981	20.805444
804.197483	-3.007100	3.662300	-11.012000	24.633395	0.000980	20.792122
805.197144	-3.018600	3.664700	-11.061000	24.658312	0.000978	20.804796
806.197876	-3.019700	3.664100	-11.063000	24.634886	0.000981	20.801679
807.197586	-3.000500	3.662200	-10.988000	24.650582	0.000982	20.810790
808.197916	-2.993300	3.662800	-10.961000	24.664776	0.000981	20.798480
809.196635	-2.998200	3.661700	-10.978000	24.668909	0.000978	20.779394
810.196752	-2.980800	3.662000	-10.914000	24.640257	0.000978	20.804223
811.199742	-3.016700	3.660300	-11.041000	24.631653	0.000977	20.804598
812.199464	-3.011300	3.661900	-11.025000	24.633268	0.000977	20.789149
813.199875	-2.992600	3.660300	-10.953000	24.620365	0.000977	20.785211
814.199968	-3.012700	3.659400	-11.023000	24.630881	0.000976	20.779167
815.201160	-3.026900	3.657900	-11.071000	24.669356	0.000978	20.806870
816.200121	-3.026400	3.658100	-11.069000	24.721382	0.000977	20.810238
817.201086	-3.003300	3.659800	-10.991000	24.735906	0.000979	20.783562
818.199274	-3.002200	3.661200	-10.990000	24.752069	0.000978	20.789351
819.201232	-2.979100	3.661000	-10.904000	24.781860	0.000978	20.790798
820.200803	-3.016900	3.657700	-11.034000	24.803400	0.000977	20.786336
821.202314	-2.997900	3.658100	-10.965000	24.799768	0.000975	20.791700
822.202005	-3.008300	3.659500	-11.008000	24.833513	0.000975	20.785264
823.202987	-2.974300	3.658300	-10.880000	24.854474	0.000976	20.787808
824.202470	-3.012900	3.656400	-11.015000	24.839733	0.000973	20.789135
825.202702	-2.998100	3.657100	-10.963000	24.837219	0.000976	20.787086
826.202880	-2.989500	3.656900	-10.931000	24.841743	0.000974	20.780720
827.208067	-3.001400	3.657400	-10.977000	24.828045	0.000974	20.793526
828.205831	-3.011500	3.656900	-11.012000	24.850151	0.000975	20.784892
829.207238	-2.999400	3.657200	-10.968000	24.833217	0.000974	20.799665
830.206779	-3.006500	3.655000	-10.988000	24.796044	0.000975	20.779903
831.207748	-3.029600	3.654800	-11.070000	24.764586	0.000973	20.796696
832.206497	-3.006500	3.658000	-10.996000	24.753447	0.000973	20.778880
833.206665	-3.014300	3.655000	-11.014000	24.729950	0.000973	20.780904
834.205697	-3.009600	3.655100	-11.000000	24.739498	0.000973	20.752079
835.206438	-2.999700	3.656000	-10.966000	24.772375	0.000975	20.792659
836.209220	-3.001800	3.655100	-10.970000	24.787840	0.000973	20.751753
837.207617	-3.016500	3.654000	-11.022000	24.796499	0.000973	20.786523
838.209491	-2.992500	3.653800	-10.933000	24.780530	0.000973	20.773342
839.209285	-2.983500	3.654400	-10.902000	24.827706	0.000971	20.773271
840.208846	-3.004700	3.653400	-10.975000	24.840511	0.000973	20.784701
841.210869	-2.990400	3.652900	-10.923000	24.841855	0.000970	20.775617
842.210449	-3.003200	3.652600	-10.969000	24.840088	0.000972	20.778112
843.209828	-2.981000	3.653600	-10.891000	24.819724	0.000971	20.767157
844.210674	-2.997100	3.653300	-10.947000	24.800303	0.000970	20.785599
845.210104	-2.977200	3.652200	-10.873000	24.830442	0.000969	20.780759
846.210519	-2.970600	3.652200	-10.848000	24.863636	0.000970	20.777563
847.209546	-2.980900	3.652500	-10.886000	24.882287	0.000968	20.768781
848.209476	-2.981700	3.653100	-10.891000	24.882410	0.000970	20.755628
849.211993	-2.997000	3.650900	-10.939000	24.912621	0.000967	20.789743
850.210988	-3.017100	3.650000	-11.012000	24.864557	0.000969	20.766159
851.209760	-2.977900	3.651200	-10.872000	24.864384	0.000968	20.774520
852.211449	-3.002500	3.650100	-10.958000	24.843822	0.000968	20.781859
853.209769	-2.992000	3.650100	-10.920000	24.856426	0.000969	20.757999
854.213837	-3.013900	3.649500	-10.999000	24.833947	0.000965	20.754878
855.212417	-2.993800	3.650600	-10.928000	24.826264	0.000966	20.754754
856.211176	-2.998900	3.648300	-10.940000	24.827033	0.000965	20.775915
857.212758	-3.017200	3.649300	-11.009000	24.835537	0.000965	20.770225
858.212773	-2.974800	3.649600	-10.856000	24.807217	0.000966	20.765985
859.212749	-3.004900	3.647800	-10.960000	24.783816	0.000964	20.774269
860.212333	-2.983900	3.648900	-10.887000	24.806569	0.000967	20.748738
861.213351	-2.982700	3.649000	-10.883000	24.770961	0.000964	20.778912
862.215158	-2.993700	3.647400	-10.918000	24.791076	0.000963	20.755950
863.218877	-3.015900	3.646800	-10.997000	24.797543	0.000965	20.764336
864.214358	-2.976900	3.647700	-10.858000	24.791298	0.000964	20.746690
865.217154	-2.975300	3.648400	-10.854000	24.798463	0.000962	20.776640
866.213686	-3.005800	3.644700	-10.954000	24.794461	0.000963	20.769779
867.213624	-3.004300	3.645400	-10.950000	24.823376	0.000965	20.781728
868.214030	-3.003400	3.645900	-10.949000	24.832081	0.000963	20.766283
869.214115	-3.006300	3.645100	-10.957000	24.801569	0.000961	20.746566
870.226997	-2.996300	3.646000	-10.923000	24.760415	0.000961	20.758370
871.215212	-2.998100	3.645200	-10.927000	24.750542	0.000959	20.743246
872.213962	-2.999400	3.644000	-10.929000	24.717316	0.000960	20.765855
873.213421	-2.986500	3.645500	-10.886000	24.677727	0.000959	20.749361
874.214191	-3.018300	3.643000	-10.994000	24.684938	0.000958	20.767978
875.214467	-3.002500	3.644900	-10.943000	24.683820	0.000961	20.764485
876.214446	-2.992600	3.643100	-10.901000	24.688768	0.000958	20.759018
877.217680	-2.991800	3.643700	-10.900000	24.706423	0.000959	20.772942
878.215129	-2.995800	3.643300	-10.913000	24.722788	0.000958	20.757596
879.218050	-2.977300	3.642900	-10.844000	24.726395	0.000956	20.767854
880.218272	-2.986600	3.642600	-10.878000	24.764293	0.000957	20.753254
881.219273	-2.999700	3.643200	-10.928000	24.765538	0.000956	20.767305
882.218898	-2.972900	3.642600	-10.827000	24.800173	0.000956	20.764606
883.219002	-2.986500	3.641800	-10.875000	24.838199	0.000954	20.757249
884.216541	-2.983600	3.643800	-10.870000	24.807313	0.000953	20.763710
885.218432	-3.004400	3.642100	-10.941000	24.822876	0.000954	20.759889
886.219671	-2.984500	3.642900	-10.871000	24.803258	0.000953	20.742571
887.217259	-2.988500	3.642600	-10.885000	24.813275	0.000954	20.733657
888.221252	-2.995200	3.641400	-10.906000	24.804401	0.000954	20.763632
889.219192	-2.995000	3.639900	-10.901000	24.804027	0.000954	20.748084
890.220180	-2.992700	3.639100	-10.889000	24.805416	0.000954	20.781247
891.222180	-3.012100	3.639700	-10.962000	24.791168	0.000950	20.757465
892.222083	-2.966500	3.639300	-10.794000	24.776271	0.000951	20.740143
893.223855	-3.002700	3.638200	-10.923000	24.799796	0.000951	20.750476
894.220944	-2.986600	3.638300	-10.865000	24.770951	0.000951	20.749503
895.222106	-2.990800	3.638100	-10.878000	24.738772	0.000953	20.754195
896.222401	-3.015400	3.638800	-10.971000	24.719770	0.000952	20.734177
897.234630	-2.999500	3.638300	-10.912000	24.731756	0.000952	20.769914
898.224477	-2.973300	3.637900	-10.816000	24.737528	0.000952	20.748204
899.221020	-3.009000	3.636300	-10.941000	24.749710	0.000948	20.741938
900.226152	-3.011500	3.635900	-10.948000	24.754731	0.000950	20.750296
901.227126	-3.017100	3.634300	-10.963000	24.744463	0.000950	20.749475
902.223629	-3.009900	3.635100	-10.941000	24.731304	0.000948	20.739588
903.228266	-2.997400	3.635900	-10.896000	24.774004	0.000951	20.740713
904.233140	-3.009400	3.635100	-10.939000	24.824188	0.000950	20.745083
905.228720	-2.993700	3.636200	-10.885000	24.798026	0.000947	20.726888
906.229946	-2.998300	3.636800	-10.903000	24.833634	0.000949	20.740338
907.228143	-3.003600	3.634200	-10.915000	24.868122	0.000949	20.734648
908.231388	-2.987100	3.635300	-10.857000	24.883836	0.000948	20.744256
909.227943	-3.010100	3.634500	-10.939000	24.889829	0.000949	20.754539
910.227582	-3.001900	3.634000	-10.908000	24.918174	0.000948	20.744581
911.224473	-3.007500	3.634500	-10.930000	24.921555	0.000947	20.714782
912.229559	-2.990100	3.635100	-10.869000	24.892664	0.000946	20.738891
913.228035	-2.989300	3.633100	-10.859000	24.893682	0.000947	20.731853
914.225570	-3.002300	3.633900	-10.908000	24.897462	0.000946	20.740388
915.227633	-3.028200	3.633100	-11.000000	24.928592	0.000946	20.734174
916.228936	-3.017600	3.631400	-10.956000	24.947989	0.000947	20.730883
917.226478	-3.008300	3.632800	-10.928000	24.934511	0.000945	20.716880
918.231966	-2.984900	3.632000	-10.840000	24.939711	0.000943	20.733954
919.228641	-3.023500	3.632700	-10.981000	24.914423	0.000942	20.723745
920.227684	-3.015900	3.631700	-10.952000	24.914895	0.000943	20.742238
921.230508	-3.001900	3.631800	-10.901000	24.910273	0.000944	20.720529
922.227581	-3.010400	3.631200	-10.931000	24.931881	0.000941	20.737001
923.226081	-3.009300	3.630300	-10.923000	24.928074	0.000940	20.726541
924.229512	-3.009800	3.629700	-10.924000	24.950922	0.000940	20.741414
925.227383	-3.004300	3.630200	-10.904000	24.972603	0.000941	20.729984
926.226296	-2.974800	3.630700	-10.800000	24.982501	0.000939	20.722850
927.229702	-2.967500	3.630600	-10.772000	25.012959	0.000942	20.714067
928.230010	-3.003500	3.629500	-10.899000	25.013555	0.000940	20.726994
929.227305	-2.999000	3.629000	-10.882000	24.958882	0.000942	20.728066
930.248094	-2.998500	3.627900	-10.878000	24.952667	0.000940	20.728940
931.229315	-2.990700	3.628300	-10.850000	24.961395	0.000941	20.713993
932.227860	-3.000400	3.627800	-10.882000	24.903039	0.000940	20.716586
933.228130	-3.002000	3.628000	-10.889000	24.876012	0.000938	20.737826
934.235566	-3.022700	3.626200	-10.959000	24.864624	0.000938	20.731137
935.228881	-2.972000	3.628700	-10.784000	24.874443	0.000936	20.733880
936.229909	-3.003900	3.627900	-10.897000	24.889811	0.000936	20.721803
937.229181	-2.993500	3.625900	-10.853000	24.920345	0.000937	20.718784
938.229151	-2.991300	3.625800	-10.845000	24.955004	0.000935	20.725596
939.237368	-2.990400	3.625900	-10.842000	24.960750	0.000938	20.714767
940.233345	-2.986700	3.626700	-10.831000	24.972958	0.000935	20.710425
941.228382	-2.978100	3.627000	-10.799000	25.011916	0.000936	20.726771
942.235425	-3.010700	3.625200	-10.914000	25.033722	0.000936	20.713571
943.234109	-2.988000	3.625300	-10.831000	25.015994	0.000933	20.735133
944.230706	-2.992200	3.625500	-10.847000	25.019029	0.000935	20.727747
945.234187	-2.983500	3.623200	-10.809000	24.990437	0.000933	20.729867
946.233994	-2.975300	3.624400	-10.782000	24.975468	0.000933	20.734757
947.231182	-2.989400	3.623500	-10.831000	24.972514	0.000933	20.721360
948.231307	-3.000100	3.624300	-10.873000	24.988075	0.000933	20.712796
949.234118	-3.006100	3.622200	-10.888000	25.004361	0.000935	20.729145
950.229607	-2.982100	3.623800	-10.806000	25.015176	0.000931	20.722931
951.234190	-3.001800	3.622400	-10.871000	25.032809	0.000931	20.728777
952.236341	-3.001600	3.621700	-10.870000	25.019336	0.000931	20.699604
953.236973	-2.990800	3.622100	-10.832000	24.990940	0.000932	20.717570
954.238648	-3.014300	3.621600	-10.916000	24.954940	0.000929	20.716522
955.237876	-3.009500	3.620900	-10.897000	24.946091	0.000930	20.736091
956.232942	-2.998900	3.620800	-10.857000	24.990048	0.000932	20.734219
957.236431	-3.012500	3.620900	-10.907000	24.973465	0.000930	20.719470
958.237699	-2.998400	3.620000	-10.853000	25.000666	0.000928	20.726859
959.234641	-3.011400	3.619300	-10.899000	24.976800	0.000929	20.719972
960.236978	-2.989300	3.620600	-10.822000	24.957256	0.000929	20.717899
961.242730	-2.989400	3.619000	-10.818000	24.939929	0.000929	20.718999
962.234564	-3.002400	3.620100	-10.868000	24.911633	0.000926	20.741809
963.238037	-2.999200	3.619500	-10.855000	24.888111	0.000928	20.720096
964.236612	-3.000600	3.619300	-10.858000	24.850369	0.000928	20.713036
965.237141	-2.990400	3.619300	-10.822000	24.873321	0.000927	20.728486
966.237089	-2.992700	3.617900	-10.827000	24.868198	0.000928	20.711490
967.235890	-2.986800	3.619200	-10.809000	24.894601	0.000926	20.718076
968.238476	-3.007100	3.618000	-10.877000	24.918600	0.000926	20.709444
969.239007	-3.006600	3.616300	-10.872000	24.961810	0.000926	20.723419
970.238273	-3.003600	3.617800	-10.865000	24.958775	0.000925	20.714682
971.238244	-3.000100	3.615800	-10.847000	24.932797	0.000922	20.716108
972.241045	-2.998600	3.615900	-10.841000	24.939657	0.000924	20.719675
973.240820	-3.001600	3.615500	-10.851000	24.921008	0.000925	20.715655
974.239498	-2.990900	3.616100	-10.814000	24.904973	0.000922	20.735125
975.244430	-2.989300	3.615700	-10.807000	24.918127	0.000921	20.714660
976.242252	-2.989300	3.615600	-10.807000	24.891869	0.000924	20.725291
977.240772	-2.980300	3.616400	-10.777000	24.902834	0.000921	20.710216
978.245087	-3.028700	3.614300	-10.945000	24.897313	0.000921	20.720323
979.242048	-3.002900	3.613200	-10.849000	24.903352	0.000921	20.724014
980.242071	-3.005000	3.612900	-10.854000	24.916460	0.000921	20.721048
981.245043	-3.004100	3.613800	-10.855000	24.933636	0.000922	20.707941
982.243602	-3.001100	3.612900	-10.842000	24.934383	0.000922	20.702526
983.242946	-2.975400	3.613300	-10.750000	24.985924	0.000920	20.728182
984.246414	-3.010200	3.610300	-10.866000	25.000670	0.000918	20.697462
985.245483	-3.004400	3.612100	-10.851000	25.020428	0.000918	20.721091
986.245917	-2.999100	3.611700	-10.831000	25.042707	0.000915	20.739661
987.246250	-2.999300	3.612000	-10.832000	25.024881	0.000919	20.731250
988.245885	-2.992600	3.612500	-10.810000	24.978690	0.000917	20.722817
989.247150	-3.016800	3.610000	-10.889000	25.031194	0.000917	20.740907
990.244067	-3.013600	3.610500	-10.880000	25.023164	0.000917	20.716250
991.247474	-3.018100	3.610000	-10.893000	25.065303	0.000917	20.741480
992.245700	-3.010400	3.610400	-10.867000	25.098694	0.000917	20.729481
993.249295	-2.973000	3.610300	-10.731000	25.111867	0.000914	20.727057
994.247451	-3.009200	3.609400	-10.860000	25.148035	0.000915	20.732545
995.247756	-3.007600	3.608300	-10.851000	25.127179	0.000915	20.729152
996.250748	-3.000600	3.608600	-10.826000	25.073611	0.000915	20.718051
997.247890	-3.018400	3.608500	-10.890000	25.058517	0.000914	20.724237
998.248227	-3.022100	3.607500	-10.901000	25.045288	0.000913	20.725181
999.251234	-3.004800	3.607100	-10.837000	25.084820	0.000914	20.744952
1000.249960	-2.999200	3.607100	-10.817000	25.083153	0.000914	20.729053
1001.262793	-3.011100	3.606700	-10.858000	25.107863	0.000913	20.738685
1002.252040	-3.012900	3.606500	-10.866000	25.099487	0.000911	20.743080
1003.251112	-3.022300	3.606700	-10.899000	25.099311	0.000912	20.733894
1004.250593	-2.996200	3.607400	-10.807000	25.050163	0.000913	20.745723
1005.251837	-3.017600	3.605200	-10.878000	25.033108	0.000911	20.733345
1006.251009	-3.005200	3.605100	-10.834000	24.989181	0.000910	20.730978
1007.251716	-3.012800	3.606100	-10.863000	24.964363	0.000908	20.727878
1008.254321	-3.013300	3.604000	-10.858000	24.948376	0.000908	20.732694
1009.256368	-2.997700	3.604300	-10.803000	24.980350	0.000911	20.741081
1010.253903	-2.985200	3.603900	-10.756000	25.009885	0.000909	20.731845
1011.255988	-3.025500	3.603400	-10.900000	25.020651	0.000910	20.717994
1012.257618	-3.024800	3.602100	-10.894000	25.044985	0.000909	20.720136
1013.253734	-3.015700	3.603600	-10.866000	25.041230	0.000905	20.738179
1014.256629	-2.978700	3.603500	-10.732000	25.048489	0.000908	20.749259
1015.254385	-3.023600	3.602400	-10.891000	24.991804	0.000907	20.744991
1016.254067	-2.988300	3.603300	-10.766000	25.007040	0.000904	20.743215
1017.255906	-3.035200	3.601400	-10.929000	25.029644	0.000906	20.733186
1018.256814	-2.994400	3.601100	-10.781000	25.051545	0.000903	20.729566
1019.256639	-2.997100	3.602100	-10.795000	25.031255	0.000905	20.733855
1020.257230	-2.989600	3.602300	-10.768000	25.006565	0.000905	20.756014
1021.259879	-2.998500	3.600500	-10.795000	24.997367	0.000905	20.757688
1022.261726	-2.992300	3.602000	-10.777000	24.956294	0.000904	20.734478
1023.258631	-2.990800	3.601200	-10.770000	24.977425	0.000902	20.736248
1024.257593	-2.970200	3.600600	-10.693000	24.973794	0.000901	20.744931
1025.256456	-2.992700	3.601300	-10.776000	24.966112	0.000900	20.759033
1026.258396	-2.968400	3.601200	-10.688000	24.926776	0.000901	20.746577
1027.257242	-2.998200	3.598000	-10.787000	24.931797	0.000901	20.755409
1028.259957	-2.993200	3.598900	-10.772000	24.970139	0.000901	20.735572
1029.260825	-2.988400	3.599100	-10.755000	25.020405	0.000901	20.756630
1030.257620	-2.977800	3.598600	-10.714000	25.054144	0.000901	20.771057
1031.258661	-2.983200	3.599500	-10.738000	25.076393	0.000901	20.754985
1032.256890	-3.011100	3.596800	-10.830000	25.105650	0.000901	20.745473
1033.259454	-3.037000	3.596100	-10.920000	25.137469	0.000897	20.761294
1034.258277	-3.008900	3.596400	-10.821000	25.177418	0.000897	20.757303
1035.258574	-3.009200	3.595400	-10.817000	25.166601	0.000896	20.745969
1036.257327	-3.003900	3.597100	-10.804000	25.213904	0.000897	20.767855
1037.258603	-3.023500	3.595800	-10.870000	25.219597	0.000898	20.749861
1038.258066	-2.999900	3.596800	-10.788000	25.219350	0.000896	20.751984
1039.258172	-3.005700	3.595400	-10.806000	25.183375	0.000896	20.769448
1040.258442	-2.993300	3.596400	-10.765000	25.207536	0.000897	20.748659
1041.257532	-3.004800	3.594300	-10.799000	25.222300	0.000895	20.775336
1042.258626	-3.014100	3.594700	-10.833000	25.224986	0.000894	20.746263
1043.261068	-2.995600	3.595000	-10.768000	25.264480	0.000894	20.760785
1044.259234	-3.012100	3.593900	-10.824000	25.280985	0.000894	20.767399
1045.267638	-3.005200	3.593200	-10.795000	25.274571	0.000893	20.761907
1046.264925	-3.010700	3.593600	-10.816000	25.234749	0.000892	20.753220
1047.261016	-2.998700	3.593000	-10.773000	25.246436	0.000893	20.758790
1048.263620	-3.000200	3.593000	-10.778000	25.249068	0.000892	20.760485
1049.263199	-2.999000	3.594100	-10.777000	25.263758	0.000891	20.773811
1050.259725	-3.020300	3.592400	-10.848000	25.253668	0.000891	20.777431
1051.266943	-3.009900	3.590500	-10.806000	25.207755	0.000892	20.773061
1052.262625	-3.004900	3.592400	-10.793000	25.212404	0.000890	20.765400
1053.262165	-2.995700	3.591300	-10.757000	25.212580	0.000891	20.761309
1054.267323	-2.996200	3.590000	-10.755000	25.198929	0.000889	20.781744
1055.264236	-2.998600	3.592000	-10.769000	25.201788	0.000889	20.771338
1056.261669	-3.002700	3.591400	-10.783000	25.243497	0.000889	20.748726
1057.264028	-3.011200	3.589600	-10.808000	25.243941	0.000888	20.757707
1058.262912	-3.012000	3.589100	-10.809000	25.298871	0.000888	20.783935
1059.262893	-3.006300	3.589200	-10.789000	25.285204	0.000888	20.773532
1060.265943	-3.007300	3.589700	-10.793000	25.273595	0.000886	20.789377
1061.262844	-3.011900	3.588300	-10.807000	25.265785	0.000886	20.769682
1062.262757	-3.023100	3.587000	-10.843000	25.291016	0.000887	20.766565
1063.264700	-2.993800	3.588200	-10.741000	25.281891	0.000886	20.763568
1064.262863	-3.008900	3.589100	-10.797000	25.266159	0.000884	20.765790
1065.262793	-2.997500	3.586900	-10.751000	25.227581	0.000887	20.781112
1066.268042	-3.046700	3.586300	-10.925000	25.218258	0.000883	20.796883
1067.267523	-3.003700	3.587300	-10.775000	25.215129	0.000885	20.798008
1068.264341	-3.009900	3.585800	-10.792000	25.227880	0.000884	20.751066
1069.266205	-3.019900	3.585400	-10.827000	25.216147	0.000882	20.802824
1070.269265	-2.983700	3.586800	-10.701000	25.218237	0.000883	20.781688
1071.265432	-2.999100	3.585300	-10.751000	25.205331	0.000881	20.797180
1072.266439	-3.006300	3.584500	-10.774000	25.232325	0.000879	20.771176
1073.268606	-2.998400	3.585200	-10.749000	25.208365	0.000879	20.782209
1074.270720	-3.000000	3.583700	-10.750000	25.195363	0.000882	20.798079
1075.269058	-2.988700	3.584600	-10.712000	25.197256	0.000879	20.779116
1076.271018	-3.012500	3.583400	-10.793000	25.254923	0.000880	20.779165
1077.266421	-3.014800	3.583400	-10.802000	25.252361	0.000880	20.794611
1078.272127	-2.987200	3.584400	-10.706000	25.299710	0.000880	20.791416
1079.272825	-3.006900	3.582600	-10.771000	25.312739	0.000878	20.784583
1080.268671	-3.003300	3.582700	-10.759000	25.307171	0.000877	20.784208
1081.272993	-2.997900	3.583200	-10.740000	25.308538	0.000876	20.778942
1082.270877	-3.034900	3.580900	-10.867000	25.307893	0.000875	20.794416
1083.268788	-2.991600	3.584200	-10.722000	25.298297	0.000877	20.780039
1084.272328	-2.995400	3.582500	-10.730000	25.316394	0.000878	20.802477
1085.274832	-2.996000	3.583000	-10.734000	25.327505	0.000874	20.792771
1086.269888	-2.988500	3.581300	-10.702000	25.273838	0.000874	20.793889
1087.273621	-3.006100	3.581600	-10.765000	25.284231	0.000875	20.810488
1088.275272	-3.015000	3.579500	-10.791000	25.284855	0.000872	20.787880
1089.269741	-2.998200	3.580800	-10.735000	25.291195	0.000874	20.801358
1090.274310	-2.994600	3.579600	-10.719000	25.314332	0.000872	20.784285
1091.284499	-2.971500	3.580200	-10.638000	25.342496	0.000873	20.799762
1092.270217	-2.999300	3.580800	-10.738000	25.347814	0.000871	20.800360
1093.272418	-3.003800	3.577100	-10.745000	25.343913	0.000872	20.822996
1094.276047	-3.001600	3.578100	-10.739000	25.389817	0.000870	20.788482
1095.270231	-2.999500	3.578500	-10.733000	25.372046	0.000870	20.799087
1096.273453	-2.986900	3.578500	-10.688000	25.389990	0.000870	20.804776
1097.275140	-3.006500	3.578200	-10.757000	25.394990	0.000869	20.790357
1098.271410	-3.003000	3.577800	-10.743000	25.397006	0.000870	20.811347
1099.272870	-3.001200	3.577400	-10.736000	25.388428	0.000868	20.813640
1100.276208	-2.982400	3.577200	-10.668000	25.367009	0.000869	20.814418
1101.271308	-2.987600	3.577000	-10.686000	25.336636	0.000864	20.801464
1102.271624	-3.011400	3.575700	-10.766000	25.301492	0.000865	20.807430
1103.272928	-2.986300	3.576500	-10.679000	25.319438	0.000866	20.829240
1104.272263	-3.009900	3.575700	-10.762000	25.302017	0.000866	20.813172
1105.274917	-3.002700	3.575500	-10.735000	25.320357	0.000864	20.799344
1106.275266	-2.994600	3.575800	-10.707000	25.312255	0.000865	20.806856
1107.272963	-2.994100	3.574800	-10.703000	25.305573	0.000863	20.805837
1108.274641	-3.006400	3.574000	-10.742000	25.284097	0.000864	20.815568
1109.273514	-3.001600	3.574500	-10.728000	25.304079	0.000864	20.812872
1110.273214	-3.005600	3.574200	-10.742000	25.308231	0.000863	20.808031
1111.273118	-3.010500	3.572000	-10.753000	25.312435	0.000861	20.835011
1112.274067	-2.995800	3.574300	-10.706000	25.350016	0.000863	20.821537
1113.271974	-2.986400	3.574300	-10.672000	25.329932	0.000859	20.829820
1114.274118	-2.998900	3.572500	-10.712000	25.338831	0.000861	20.812677
1115.274410	-2.997700	3.573000	-10.710000	25.325090	0.000859	20.827329
1116.273243	-2.984300	3.572300	-10.659000	25.326457	0.000861	20.806891
1117.276252	-2.994400	3.570900	-10.691000	25.366695	0.000859	20.806042
1118.276534	-3.017200	3.570500	-10.772000	25.406660	0.000861	20.805394
1119.273540	-2.987300	3.569900	-10.664000	25.460293	0.000858	20.817050
1120.277452	-2.994900	3.570500	-10.692000	25.449556	0.000859	20.817648
1121.278194	-3.027600	3.569100	-10.804000	25.477115	0.000858	20.814502
1122.274706	-2.982100	3.569700	-10.644000	25.467350	0.000859	20.819396
1123.279931	-3.024000	3.569900	-10.794000	25.466752	0.000855	20.823536
1124.280500	-3.017600	3.568000	-10.765000	25.422493	0.000854	20.799482
1125.281657	-3.002700	3.568700	-10.714000	25.405568	0.000856	20.827057
1126.280319	-3.006000	3.568900	-10.727000	25.429400	0.000855	20.836288
1127.280571	-3.003300	3.568300	-10.714000	25.414614	0.000854	20.820019
1128.275777	-3.041300	3.567000	-10.846000	25.458925	0.000855	20.822789
1129.279946	-3.011900	3.567000	-10.743000	25.456811	0.000854	20.823037
1130.281018	-3.002500	3.566500	-10.707000	25.474979	0.000853	20.846970
1131.277594	-2.995700	3.567200	-10.684000	25.503260	0.000854	20.834593
1132.279042	-2.959000	3.568600	-10.556000	25.506244	0.000850	20.846599
1133.278875	-3.018800	3.564700	-10.760000	25.480846	0.000851	20.841956
1134.276744	-2.984000	3.566100	-10.639000	25.480719	0.000851	20.843252
1135.278524	-2.984900	3.565900	-10.642000	25.449306	0.000851	20.819768
1136.280165	-2.993900	3.565300	-10.673000	25.426669	0.000849	20.836391
1137.276608	-3.007300	3.564900	-10.719000	25.455373	0.000848	20.837714
1138.280427	-3.018500	3.563700	-10.756000	25.444439	0.000850	20.844277
1139.278115	-3.000500	3.563700	-10.692000	25.469937	0.000849	20.832898
1140.276847	-2.981500	3.564100	-10.625000	25.476124	0.000847	20.817301
1141.279602	-2.996800	3.563300	-10.677000	25.491854	0.000848	20.840208
1142.277688	-2.986500	3.563800	-10.642000	25.501248	0.000846	20.814081
1143.277338	-2.994400	3.563500	-10.669000	25.519116	0.000845	20.824912
1144.280506	-2.996600	3.563500	-10.676000	25.538400	0.000845	20.840484
1145.279248	-2.995000	3.562700	-10.669000	25.556637	0.000846	20.861644
1146.279280	-2.980800	3.562000	-10.616000	25.573535	0.000845	20.862019
1147.280048	-3.019900	3.561100	-10.753000	25.615082	0.000844	20.834993
1148.279244	-3.008600	3.560900	-10.712000	25.658786	0.000846	20.839059
1149.279881	-3.000400	3.561500	-10.685000	25.622336	0.000844	20.840856
1150.282254	-2.996500	3.560600	-10.669000	25.621913	0.000843	20.842802
1151.280506	-2.991000	3.561900	-10.652000	25.588291	0.000843	20.836536
1152.279300	-3.007800	3.560200	-10.706000	25.571615	0.000841	20.869099
1153.280046	-3.007600	3.560600	-10.707000	25.509694	0.000842	20.877562
1154.280514	-3.004900	3.558600	-10.691000	25.515381	0.000840	20.850084
1155.279222	-3.006800	3.559000	-10.701000	25.495899	0.000842	20.862288
1156.282893	-3.015300	3.557300	-10.725000	25.505565	0.000839	20.871045
1157.280234	-3.006500	3.558900	-10.698000	25.537569	0.000840	20.839650
1158.278668	-2.998700	3.558800	-10.671000	25.514560	0.000838	20.846415
1159.282863	-3.009100	3.556000	-10.700000	25.503599	0.000840	20.862907
1160.280782	-3.006400	3.558100	-10.695000	25.522509	0.000840	20.861510
1161.280010	-2.995900	3.557300	-10.656000	25.508916	0.000837	20.865402
1162.282056	-2.987100	3.556800	-10.624000	25.508317	0.000836	20.856740
1163.280444	-2.980300	3.557200	-10.600000	25.530585	0.000837	20.851602
1164.281373	-2.989200	3.555000	-10.626000	25.546388	0.000839	20.860360
1165.284358	-3.030400	3.554200	-10.769000	25.559235	0.000837	20.850028
1166.284832	-3.007600	3.556300	-10.695000	25.587559	0.000836	20.864723
1167.281716	-2.999000	3.555300	-10.661000	25.608159	0.000836	20.865497
1168.284556	-2.992600	3.554800	-10.638000	25.617401	0.000835	20.865296
1169.285232	-3.002200	3.555000	-10.672000	25.672439	0.000835	20.868891
1170.283004	-2.997600	3.554600	-10.654000	25.654271	0.000833	20.882885
1171.287067	-2.989400	3.555000	-10.626000	25.619011	0.000833	20.856957
1172.284442	-3.000200	3.553300	-10.659000	25.615953	0.000832	20.869057
1173.283579	-3.013900	3.552700	-10.707000	25.647334	0.000833	20.877341
1174.286211	-3.033800	3.552100	-10.775000	25.633915	0.000829	20.870501
1175.284908	-3.000600	3.553300	-10.661000	25.592869	0.000834	20.871952
1176.284952	-3.001000	3.551700	-10.658000	25.561209	0.000830	20.906060
1177.289082	-3.003500	3.552800	-10.668000	25.562798	0.000830	20.874942
1178.288604	-3.032400	3.551000	-10.767000	25.539286	0.000830	20.883572
1179.286810	-3.002000	3.552100	-10.662000	25.523829	0.000828	20.896497
1180.286175	-2.996600	3.551500	-10.641000	25.564979	0.000828	20.886615
1181.290081	-2.996700	3.550800	-10.640000	25.573650	0.000830	20.877306
1182.285151	-2.998400	3.549500	-10.642000	25.557147	0.000828	20.872112
1183.294644	-3.004700	3.550500	-10.667000	25.533762	0.000826	20.876128
1184.289202	-2.971000	3.551400	-10.550000	25.500440	0.000827	20.891975
1185.284655	-2.985600	3.550700	-10.600000	25.521958	0.000826	20.882766
1186.287666	-3.008900	3.550700	-10.683000	25.470468	0.000827	20.896016
1187.289103	-2.992200	3.551000	-10.622000	25.488777	0.000828	20.893066
1188.286400	-2.990600	3.549900	-10.616000	25.484728	0.000823	20.896586
1189.290981	-2.972800	3.549800	-10.552000	25.465542	0.000826	20.871157
1190.291226	-3.018200	3.546900	-10.704000	25.504136	0.000825	20.894739
1191.289544	-3.013800	3.547800	-10.692000	25.517998	0.000825	20.887323
1192.293989	-3.001100	3.548100	-10.647000	25.481963	0.000822	20.899024
1193.294101	-2.987500	3.548500	-10.599000	25.458351	0.000822	20.887642
1194.288521	-3.002900	3.547200	-10.651000	25.467075	0.000822	20.892136
1195.295168	-3.014500	3.546300	-10.689000	25.503929	0.000821	20.883152
1196.295747	-2.992300	3.547100	-10.613000	25.462851	0.000820	20.899272
1197.291183	-3.030100	3.545300	-10.742000	25.465286	0.000819	20.897450
1198.293400	-3.005200	3.545000	-10.652000	25.488101	0.000820	20.893809
1199.295545	-2.987200	3.545500	-10.590000	25.515906	0.000818	20.887593
1200.290631	-2.998900	3.545700	-10.633000	25.549925	0.000816	20.910375
1201.295665	-2.995800	3.545800	-10.622000	25.545478	0.000817	20.888842
1202.294639	-2.996700	3.543100	-10.617000	25.598082	0.000817	20.903737
1203.292252	-2.979100	3.543600	-10.555000	25.607944	0.000818	20.889461
1204.295370	-2.989400	3.545300	-10.597000	25.639800	0.000815	20.912445
1205.293650	-2.987900	3.543800	-10.586000	25.635897	0.000819	20.892405
1206.292520	-2.991600	3.543300	-10.599000	25.610576	0.000816	20.914862
1207.295818	-2.992000	3.543900	-10.602000	25.571365	0.000815	20.899191
1208.299525	-2.996400	3.542400	-10.613000	25.532773	0.000816	20.907849
1209.294194	-3.000200	3.541900	-10.626000	25.507848	0.000815	20.909371
1210.298408	-3.004300	3.541600	-10.639000	25.486076	0.000814	20.903154
1211.298800	-3.006400	3.540900	-10.644000	25.484937	0.000814	20.885891
1212.295142	-2.982300	3.542400	-10.564000	25.501583	0.000813	20.894072
1213.298301	-2.993000	3.540800	-10.596000	25.518680	0.000811	20.892749
1214.299497	-3.013300	3.540100	-10.666000	25.557420	0.000812	20.886136
1215.296723	-3.009400	3.539400	-10.651000	25.578419	0.000812	20.893948
1216.298314	-3.004100	3.540000	-10.633000	25.610523	0.000810	20.898689
1217.300133	-2.988700	3.540500	-10.581000	25.632938	0.000810	20.896071
1218.300543	-2.975600	3.539800	-10.531000	25.633907	0.000810	20.879976
1219.301472	-3.018500	3.538200	-10.679000	25.610921	0.000808	20.888658
1220.302989	-2.989700	3.538900	-10.579000	25.601926	0.000810	20.871565
1221.297093	-2.986500	3.538200	-10.566000	25.610745	0.000807	20.884689
1222.309836	-2.988100	3.537800	-10.571000	25.602127	0.000808	20.869396
1223.303784	-3.003000	3.537800	-10.623000	25.577052	0.000809	20.858438
1224.299264	-2.995700	3.538000	-10.598000	25.586371	0.000806	20.868745
1225.304348	-2.985300	3.536500	-10.555000	25.583341	0.000806	20.889882
1226.303380	-3.003100	3.537300	-10.622000	25.603766	0.000806	20.863930
1227.300012	-3.004000	3.535000	-10.618000	25.602325	0.000806	20.876706
1228.300999	-3.002000	3.535500	-10.613000	25.646625	0.000805	20.885637
1229.303698	-2.987100	3.534900	-10.558000	25.658033	0.000804	20.881922
1230.298642	-2.980500	3.534300	-10.533000	25.649482	0.000804	20.876653
1231.303551	-2.989000	3.536200	-10.569000	25.659298	0.000804	20.872287
1232.301881	-2.991400	3.533900	-10.571000	25.661782	0.000802	20.875256
1233.299431	-3.002400	3.535000	-10.612000	25.676367	0.000803	20.868094
1234.302072	-2.955500	3.535100	-10.447000	25.648933	0.000803	20.855240
1235.302487	-2.993200	3.534900	-10.579000	25.660711	0.000801	20.874180
1236.299930	-2.987300	3.534000	-10.555000	25.647915	0.000801	20.849950
1237.303291	-2.973900	3.533900	-10.508000	25.680017	0.000802	20.878398
1238.302193	-2.987300	3.533100	-10.554000	25.676758	0.000800	20.881763
1239.301593	-3.009000	3.531500	-10.625000	25.690350	0.000798	20.879293
1240.304506	-2.997600	3.532500	-10.588000	25.696012	0.000800	20.856532
1241.306466	-3.003900	3.529900	-10.603000	25.670995	0.000799	20.842311
1242.302757	-2.999800	3.531900	-10.594000	25.634838	0.000797	20.864316
1243.303222	-3.000700	3.532000	-10.598000	25.644752	0.000796	20.846300
1244.308265	-3.008700	3.528200	-10.614000	25.634316	0.000799	20.829655
1245.301687	-3.014800	3.529400	-10.640000	25.611556	0.000797	20.855633
1246.305449	-3.035300	3.527700	-10.706000	25.586284	0.000796	20.855382
1247.305028	-3.019400	3.530900	-10.660000	25.588021	0.000796	20.872299
1248.302413	-3.003600	3.529200	-10.599000	25.624998	0.000797	20.867710
1249.303920	-3.019200	3.528700	-10.652000	25.619329	0.000794	20.830250
1250.307001	-3.009500	3.527700	-10.615000	25.642138	0.000793	20.851735
1251.307302	-2.987900	3.528600	-10.542000	25.608220	0.000793	20.830947
1252.305445	-2.998800	3.529300	-10.581000	25.588864	0.000793	20.851809
1253.305182	-3.008500	3.526800	-10.609000	25.607227	0.000792	20.857923
1254.304162	-3.024200	3.526400	-10.664000	25.601086	0.000795	20.855075
1255.304974	-3.011200	3.526800	-10.619000	25.624646	0.000790	20.858822
1256.306203	-2.968200	3.527600	-10.470000	25.589780	0.000790	20.854152
1257.306882	-3.002700	3.526700	-10.588000	25.585528	0.000789	20.859364
1258.307001	-3.033700	3.524900	-10.691000	25.585658	0.000790	20.853331
1259.305525	-3.003000	3.526500	-10.589000	25.560878	0.000789	20.836032
1260.306336	-2.995400	3.526800	-10.563000	25.568235	0.000791	20.849584
1261.307849	-2.990300	3.525800	-10.543000	25.599815	0.000789	20.850479
1262.306768	-2.988800	3.524700	-10.532000	25.571614	0.000788	20.839701
1263.305071	-3.007900	3.524000	-10.598000	25.606678	0.000786	20.837458
1264.305903	-2.999800	3.524000	-10.571000	25.627947	0.000788	20.854077
1265.306385	-3.004600	3.523600	-10.585000	25.602851	0.000785	20.846891
1266.310501	-3.009700	3.521600	-10.598000	25.640941	0.000786	20.854325
1267.308127	-3.009500	3.521500	-10.596000	25.627003	0.000786	20.821836
1268.306091	-2.983900	3.522500	-10.510000	25.625065	0.000785	20.837433
1269.308461	-3.013100	3.521600	-10.609000	25.648075	0.000785	20.819292
1270.309426	-2.990900	3.522000	-10.534000	25.651429	0.000780	20.822660
1271.307029	-3.013200	3.523000	-10.614000	25.627028	0.000783	20.845094
1272.310962	-3.008100	3.521300	-10.591000	25.639771	0.000783	20.858840
1273.309260	-2.996700	3.521700	-10.553000	25.648099	0.000782	20.831170
1274.307752	-2.988800	3.520900	-10.522000	25.644767	0.000781	20.840625
1275.308472	-2.988200	3.521000	-10.520000	25.603595	0.000781	20.812077
1276.308392	-2.985500	3.520700	-10.510000	25.591443	0.000779	20.846813
1277.308800	-3.015200	3.518800	-10.609000	25.563686	0.000778	20.837430
1278.307850	-3.002100	3.517300	-10.558000	25.570099	0.000780	20.837232
1279.310182	-2.956600	3.519600	-10.404000	25.596390	0.000778	20.821436
1280.308056	-2.994700	3.517400	-10.531000	25.611695	0.000779	20.819264
1281.308916	-2.992900	3.517500	-10.526000	25.625460	0.000779	20.836881
1282.308397	-2.971100	3.518900	-10.454000	25.642184	0.000778	20.829497
1283.307851	-3.000400	3.516100	-10.549000	25.683351	0.000776	20.833386
1284.310999	-2.999800	3.516600	-10.548000	25.682629	0.000776	20.822704
1285.306453	-2.995100	3.516700	-10.532000	25.727923	0.000776	20.825524
1286.309041	-2.993000	3.516200	-10.522000	25.741314	0.000776	20.839447
1287.309031	-2.979800	3.516100	-10.476000	25.720593	0.000775	20.812945
1288.309503	-3.000700	3.515200	-10.547000	25.730182	0.000772	20.826844
1289.309261	-3.013400	3.513800	-10.587000	25.721734	0.000776	20.826419
1290.308452	-3.001200	3.516300	-10.553000	25.719546	0.000773	20.820903
1291.309613	-3.005600	3.515000	-10.564000	25.663172	0.000774	20.827343
1292.308994	-3.011700	3.515400	-10.586000	25.662077	0.000773	20.852320
1293.309440	-2.988400	3.514400	-10.501000	25.643242	0.000774	20.826766
1294.310656	-3.008200	3.513500	-10.569000	25.626345	0.000772	20.824969
1295.311380	-3.022200	3.512500	-10.614000	25.615610	0.000772	20.822722
1296.310528	-3.002900	3.513500	-10.549000	25.632211	0.000770	20.833705
1297.311019	-2.991700	3.513900	-10.512000	25.640089	0.000770	20.814116
1298.310737	-3.016000	3.511900	-10.591000	25.643193	0.000771	20.836199
1299.311244	-3.014700	3.511800	-10.585000	25.622050	0.000770	20.819233
1300.311307	-3.001800	3.510600	-10.537000	25.649179	0.000770	20.828935
1301.310751	-3.016900	3.509700	-10.587000	25.670327	0.000769	20.818882
1302.316366	-3.008300	3.510400	-10.558000	25.700167	0.000769	20.800490
1303.315365	-2.990000	3.512400	-10.500000	25.719148	0.000768	20.811968
1304.310319	-2.994600	3.510800	-10.513000	25.719716	0.000767	20.813961
1305.310280	-3.005400	3.509800	-10.547000	25.722228	0.000765	20.829286
1306.309282	-3.020300	3.507800	-10.593000	25.698698	0.000767	20.817980
1307.310045	-3.010600	3.508100	-10.560000	25.685209	0.000764	20.825294
1308.311534	-3.006800	3.507300	-10.544000	25.719695	0.000763	20.812043
1309.312126	-3.020900	3.509200	-10.600000	25.731619	0.000764	20.797468
1310.314394	-3.014200	3.506500	-10.568000	25.746923	0.000763	20.838443
1311.312698	-2.999600	3.508800	-10.524000	25.743890	0.000761	20.829233
1312.312541	-3.004500	3.506700	-10.535000	25.721058	0.000766	20.816732
1313.313234	-3.024400	3.505600	-10.602000	25.732116	0.000765	20.818830
1314.314342	-2.992800	3.506100	-10.492000	25.748110	0.000763	20.832050
1315.314900	-2.991900	3.506900	-10.492000	25.737077	0.000761	20.823812
1316.311965	-3.021300	3.504600	-10.588000	25.769278	0.000761	20.840510
1317.315008	-2.993800	3.506100	-10.494000	25.777553	0.000761	20.809467
1318.313097	-3.008800	3.506000	-10.548000	25.788157	0.000761	20.797359
1319.313748	-3.015700	3.504200	-10.566000	25.782961	0.000761	20.803046
1320.313636	-2.975400	3.505100	-10.428000	25.752528	0.000761	20.807090
1321.315492	-2.987000	3.504000	-10.464000	25.711956	0.000760	20.817072
1322.316887	-2.977100	3.504900	-10.433000	25.699330	0.000759	20.813874
1323.317997	-3.008200	3.502700	-10.536000	25.698213	0.000757	20.793312
1324.314444	-2.993900	3.502700	-10.485000	25.695628	0.000757	20.807310
1325.315155	-2.983600	3.503800	-10.453000	25.662332	0.000755	20.811326
1326.315485	-2.966400	3.503700	-10.391000	25.639221	0.000758	20.799020
1327.314193	-2.976300	3.502600	-10.423000	25.643448	0.000755	20.836456
1328.315914	-3.004000	3.501800	-10.518000	25.622151	0.000754	20.803687
1329.314502	-3.002300	3.502000	-10.513000	25.641532	0.000755	20.815092
1330.319624	-3.024400	3.499700	-10.583000	25.642229	0.000755	20.804887
1331.315653	-3.020600	3.499100	-10.568000	25.635395	0.000754	20.808453
1332.316767	-3.010100	3.500000	-10.534000	25.646574	0.000752	20.800241
1333.317395	-3.003000	3.501400	-10.513000	25.652214	0.000753	20.812544
1334.316752	-3.012900	3.499000	-10.541000	25.684291	0.000754	20.821528
1335.318165	-3.000600	3.498500	-10.495000	25.643593	0.000752	20.808153
1336.319584	-2.997000	3.498100	-10.483000	25.624706	0.000750	20.803882
1337.318334	-3.028200	3.498100	-10.592000	25.624015	0.000751	20.803662
1338.319537	-2.989200	3.498000	-10.455000	25.624512	0.000752	20.815067
1339.322754	-2.977400	3.498700	-10.416000	25.644661	0.000750	20.816337
1340.319231	-2.999700	3.497400	-10.490000	25.652760	0.000749	20.812618
1341.320959	-2.981700	3.498100	-10.429000	25.660885	0.000750	20.803235
1342.322154	-2.982200	3.496500	-10.426000	25.660937	0.000751	20.782899
1343.323400	-3.027100	3.494200	-10.576000	25.697238	0.000750	20.798022
1344.323980	-2.976900	3.496800	-10.409000	25.731847	0.000748	20.793903
1345.325475	-3.004500	3.495900	-10.503000	25.744395	0.000748	20.815042
1346.325510	-3.012300	3.494800	-10.526000	25.737759	0.000745	20.788462
1347.329118	-3.015900	3.494400	-10.537000	25.738184	0.000747	20.795053
1348.326198	-3.026000	3.493500	-10.570000	25.757863	0.000745	20.810552
1349.325891	-2.992800	3.492400	-10.451000	25.764595	0.000746	20.810675
1350.326309	-2.997800	3.495000	-10.476000	25.763228	0.000745	20.789388
1351.328201	-3.021900	3.493300	-10.555000	25.687599	0.000744	20.792134
1352.327365	-3.021800	3.493200	-10.555000	25.656068	0.000743	20.795078
1353.326886	-3.005200	3.492200	-10.493000	25.671996	0.000742	20.803963
1354.326820	-3.001800	3.491700	-10.480000	25.670629	0.000742	20.794055
1355.326656	-3.010100	3.491800	-10.510000	25.703674	0.000744	20.798323
1356.332072	-3.015400	3.491400	-10.527000	25.683175	0.000740	20.797173
1357.327701	-3.001100	3.490400	-10.473000	25.693514	0.000741	20.795704
1358.328114	-3.007900	3.490000	-10.496000	25.713539	0.000739	20.794480
1359.327920	-3.011200	3.489100	-10.505000	25.697590	0.000738	20.778461
1360.328095	-2.980800	3.491000	-10.404000	25.711653	0.000739	20.765559
1361.328104	-2.987400	3.490500	-10.427000	25.691629	0.000737	20.793337
1362.328933	-2.992400	3.488700	-10.439000	25.682311	0.000739	20.801047
1363.328812	-2.985500	3.488800	-10.414000	25.658830	0.000737	20.802593
1364.329490	-3.014900	3.487800	-10.514000	25.623873	0.000735	20.781235
1365.329360	-3.005500	3.487600	-10.481000	25.619226	0.000738	20.787947
1366.330891	-3.015400	3.487000	-10.514000	25.582926	0.000735	20.772827
1367.331785	-2.992300	3.487800	-10.436000	25.558076	0.000734	20.779639
1368.332023	-2.997300	3.487400	-10.452000	25.550303	0.000735	20.788902
1369.331811	-2.971500	3.488700	-10.365000	25.558449	0.000733	20.782859
1370.331028	-2.990300	3.486700	-10.425000	25.599999	0.000732	20.779543
1371.332498	-3.002000	3.485200	-10.462000	25.623454	0.000733	20.796935
1372.333612	-2.992700	3.485300	-10.429000	25.653221	0.000732	20.779416
1373.333303	-2.981500	3.485500	-10.391000	25.705872	0.000731	20.787253
1374.332515	-3.010600	3.484400	-10.490000	25.720932	0.000729	20.788155
1375.331902	-2.982300	3.484500	-10.389000	25.720210	0.000731	20.781266
1376.331284	-3.019000	3.483400	-10.516000	25.757406	0.000730	20.783541
1377.330778	-3.001500	3.483900	-10.455000	25.755867	0.000731	20.793848
1378.331369	-3.019800	3.482500	-10.515000	25.725233	0.000729	20.781570
1379.332767	-3.024800	3.483000	-10.534000	25.714897	0.000726	20.792525
1380.331695	-2.985100	3.483300	-10.397000	25.745309	0.000727	20.784666
1381.331916	-2.995200	3.481800	-10.427000	25.772990	0.000727	20.776909
1382.331921	-2.996800	3.482500	-10.435000	25.777760	0.000728	20.770320
1383.333512	-2.993300	3.480600	-10.417000	25.803225	0.000726	20.770296
1384.332059	-2.980500	3.481400	-10.375000	25.787053	0.000725	20.763533
1385.331996	-3.007600	3.479300	-10.463000	25.796296	0.000724	20.766654
1386.331309	-3.006900	3.480000	-10.463000	25.804768	0.000725	20.776587
1387.332649	-2.998700	3.480400	-10.436000	25.810735	0.000723	20.775468
1388.333267	-3.006000	3.480100	-10.458000	25.809741	0.000722	20.786799
1389.332545	-3.002600	3.480400	-10.448000	25.785270	0.000724	20.777390
1390.332933	-2.982600	3.478800	-10.375000	25.787109	0.000723	20.770228
1391.334717	-2.986200	3.479600	-10.389000	25.758539	0.000725	20.761445
1392.334275	-3.009500	3.478200	-10.465000	25.757126	0.000724	20.751965
1393.332954	-2.995000	3.476900	-10.412000	25.733823	0.000721	20.771706
1394.334282	-2.994000	3.477500	-10.411000	25.701399	0.000722	20.762372
1395.332737	-2.980700	3.477200	-10.363000	25.692880	0.000719	20.760453
1396.334160	-2.997800	3.476200	-10.419000	25.687215	0.000718	20.768514
1397.337183	-3.021600	3.476400	-10.503000	25.685281	0.000719	20.779848
1398.335394	-2.985500	3.477000	-10.379000	25.657576	0.000718	20.758659
1399.335695	-2.975400	3.476800	-10.344000	25.638667	0.000718	20.756738
1400.335458	-2.998300	3.475300	-10.419000	25.618719	0.000717	20.766575
1401.336583	-2.989800	3.474700	-10.387000	25.650670	0.000717	20.750775
1402.336622	-3.004100	3.473800	-10.434000	25.672510	0.000716	20.758486
1403.337851	-3.003100	3.473200	-10.430000	25.675197	0.000717	20.735106
1404.336488	-3.008200	3.473200	-10.446000	25.644459	0.000715	20.746907
1405.339457	-2.989000	3.472800	-10.380000	25.625103	0.000716	20.756391
1406.338381	-2.999400	3.472800	-10.416000	25.620036	0.000716	20.747509
1407.337807	-2.985500	3.473200	-10.368000	25.616386	0.000716	20.755697
1408.337491	-3.017400	3.470100	-10.469000	25.645804	0.000713	20.752052
1409.338867	-3.005800	3.472200	-10.435000	25.608808	0.000714	20.747611
1410.339466	-2.989000	3.472300	-10.378000	25.611344	0.000713	20.734985
1411.339569	-3.010700	3.471800	-10.451000	25.608459	0.000714	20.761012
1412.340164	-3.007200	3.469300	-10.432000	25.583983	0.000712	20.742119
1413.338917	-3.018400	3.468300	-10.468000	25.607067	0.000712	20.745389
1414.339340	-2.961600	3.470400	-10.276000	25.639346	0.000713	20.742721
1415.338349	-2.995900	3.469300	-10.392000	25.698857	0.000711	20.747016
1416.342107	-3.011900	3.467000	-10.441000	25.729143	0.000710	20.740926
1417.340205	-3.013600	3.468800	-10.453000	25.751055	0.000709	20.747763
1418.342035	-2.981400	3.468200	-10.339000	25.786807	0.000708	20.746217
1419.347967	-2.990700	3.468300	-10.372000	25.799259	0.000710	20.756828
1420.341920	-3.018500	3.466500	-10.462000	25.791528	0.000708	20.746691
1421.343263	-3.000500	3.467200	-10.402000	25.819331	0.000709	20.758499
1422.344028	-3.007100	3.465700	-10.421000	25.862879	0.000707	20.748665
1423.342412	-2.997200	3.467400	-10.392000	25.877388	0.000708	20.739058
1424.342769	-2.997700	3.466300	-10.390000	25.855577	0.000708	20.734217
1425.342866	-2.990100	3.466200	-10.363000	25.856870	0.000706	20.736938
1426.343709	-3.003700	3.464300	-10.404000	25.884817	0.000706	20.751262
1427.344629	-3.012400	3.464600	-10.436000	25.842858	0.000706	20.750838
1428.343489	-2.996900	3.465400	-10.385000	25.809024	0.000704	20.731074
1429.346775	-3.013000	3.465000	-10.439000	25.823481	0.000703	20.754132
1430.344126	-2.985500	3.462900	-10.338000	25.826288	0.000704	20.741305
1431.346806	-3.015000	3.462700	-10.439000	25.849417	0.000703	20.731821
1432.346291	-3.022500	3.461500	-10.461000	25.861192	0.000705	20.745547
1433.345784	-2.985000	3.463400	-10.336000	25.880692	0.000699	20.734316
1434.349010	-2.996000	3.461600	-10.369000	25.902583	0.000702	20.751092
1435.349332	-2.991400	3.461700	-10.354000	25.916218	0.000700	20.730175
1436.346243	-3.016000	3.460600	-10.436000	25.887504	0.000702	20.712708
1437.348503	-2.989800	3.462100	-10.350000	25.849765	0.000703	20.732645
1438.352977	-2.991100	3.460000	-10.348000	25.808678	0.000700	20.720295
1439.346669	-2.991900	3.459300	-10.347000	25.782464	0.000702	20.731895
1440.348641	-3.009100	3.458800	-10.407000	25.796850	0.000697	20.725957
1441.348589	-2.978600	3.459000	-10.301000	25.797371	0.000699	20.726955
1442.349085	-2.998000	3.458800	-10.369000	25.812673	0.000697	20.737111
1443.353051	-2.987600	3.460000	-10.336000	25.770268	0.000699	20.735292
1444.349757	-3.012900	3.458100	-10.418000	25.768750	0.000701	20.724284
1445.349802	-2.997000	3.458300	-10.364000	25.735780	0.000699	20.731945
1446.349256	-3.008300	3.456200	-10.396000	25.721400	0.000698	20.733622
1447.349129	-3.006500	3.457100	-10.392000	25.712103	0.000699	20.725232
1448.352896	-3.011000	3.456500	-10.406000	25.690385	0.000697	20.713848
1449.352253	-2.997000	3.455300	-10.355000	25.702292	0.000698	20.724386
1450.352798	-2.984100	3.456900	-10.314000	25.729446	0.000697	20.725108
1451.350670	-3.002500	3.455200	-10.374000	25.755582	0.000697	20.719117
1452.349812	-2.987100	3.455700	-10.320000	25.720572	0.000693	20.715720
1453.353925	-2.996100	3.455300	-10.352000	25.717465	0.000693	20.741050
1454.351258	-2.985200	3.454800	-10.312000	25.729640	0.000694	20.740003
1455.353261	-3.006200	3.453500	-10.380000	25.740970	0.000695	20.707284
1456.361076	-3.009200	3.454100	-10.393000	25.741966	0.000692	20.716821
1457.360703	-3.037400	3.451600	-10.483000	25.732797	0.000693	20.716145
1458.356557	-3.013400	3.452500	-10.403000	25.761712	0.000692	20.726698
1459.357513	-2.998700	3.452000	-10.351000	25.771054	0.000691	20.756472
1460.355695	-2.991700	3.452300	-10.327000	25.804593	0.000688	20.718562
1461.357965	-3.014700	3.450300	-10.401000	25.792690	0.000690	20.734108
1462.359443	-2.995200	3.450500	-10.334000	25.778258	0.000690	20.724826
1463.357532	-2.974500	3.452100	-10.267000	25.757590	0.000690	20.730144
1464.356909	-3.000600	3.450700	-10.353000	25.699425	0.000689	20.710600
1465.359365	-3.018700	3.450500	-10.414000	25.689638	0.000690	20.732066
1466.356164	-2.993700	3.450000	-10.327000	25.695327	0.000688	20.721658
1467.357932	-2.993500	3.450000	-10.327000	25.672918	0.000689	20.724280
1468.360940	-2.996800	3.448300	-10.333000	25.696346	0.000685	20.735958
1469.375586	-2.968900	3.449500	-10.240000	25.721464	0.000685	20.725151
1470.376900	-2.980100	3.448600	-10.276000	25.748822	0.000685	20.719914
1471.379052	-3.003000	3.447900	-10.353000	25.787181	0.000686	20.734263
1472.372840	-3.002500	3.447800	-10.351000	25.836194	0.000686	20.738453
1473.376157	-2.996200	3.447700	-10.329000	25.848815	0.000684	20.733587
1474.375280	-2.988400	3.447800	-10.303000	25.826704	0.000687	20.731291
1475.376509	-3.011300	3.446000	-10.376000	25.839600	0.000683	20.735710
1476.377170	-2.979800	3.446700	-10.268000	25.807598	0.000686	20.737229
1477.373966	-2.990900	3.445500	-10.304000	25.820346	0.000683	20.734861
1478.377348	-3.012800	3.444900	-10.378000	25.826235	0.000682	20.728449
1479.375698	-2.994400	3.444700	-10.313000	25.866356	0.000682	20.726078
1480.376730	-2.964800	3.445100	-10.214000	25.880442	0.000681	20.717468
1481.380715	-3.014100	3.443100	-10.377000	25.887346	0.000681	20.743846
1482.374285	-3.003100	3.442600	-10.338000	25.838107	0.000681	20.746539
1483.375300	-3.004400	3.442900	-10.341000	25.792866	0.000681	20.723853
1484.388735	-3.019800	3.441700	-10.393000	25.781143	0.000681	20.723930
1485.382739	-2.996700	3.442500	-10.316000	25.750083	0.000681	20.732561
1486.381130	-3.017200	3.440600	-10.380000	25.748544	0.000680	20.732437
1487.374372	-2.995900	3.440500	-10.306000	25.736147	0.000680	20.751281
1488.382247	-3.019400	3.439300	-10.384000	25.732917	0.000681	20.724327
1489.380970	-3.004300	3.440300	-10.335000	25.709835	0.000679	20.734334
1490.381154	-2.984400	3.440400	-10.266000	25.740639	0.000680	20.747258
1491.374910	-3.024200	3.438800	-10.399000	25.760366	0.000679	20.741942
1492.382857	-3.026400	3.437900	-10.403000	25.781161	0.000677	20.758089
1493.376335	-3.020200	3.438100	-10.383000	25.822601	0.000677	20.742816
1494.383841	-3.008700	3.438000	-10.342000	25.844859	0.000674	20.730088
1495.361264	-2.984100	3.438200	-10.259000	25.832390	0.000674	20.755969
1496.364870	-2.999600	3.437700	-10.310000	25.825954	0.000674	20.734805
1497.363130	-2.991400	3.438500	-10.285000	25.831520	0.000674	20.735180
1498.363805	-2.999700	3.437300	-10.310000	25.870344	0.000673	20.721075
1499.362517	-3.014400	3.437600	-10.361000	25.850996	0.000673	20.748581
1500.365565	-3.005100	3.437100	-10.328000	25.872183	0.000671	20.732406
1501.366511	-2.991900	3.436500	-10.280000	25.861179	0.000671	20.733680
1502.366776	-2.990900	3.435400	-10.273000	25.879936	0.000672	20.731659
1503.368432	-3.001700	3.435600	-10.311000	25.889597	0.000672	20.750849
1504.367980	-2.959200	3.436100	-10.167000	25.872736	0.000673	20.741971
1505.370820	-2.997600	3.434000	-10.292000	25.870644	0.000669	20.755043
1506.389470	-2.993800	3.435300	-10.284000	25.817631	0.000669	20.745885
1507.386835	-3.007600	3.433400	-10.325000	25.777409	0.000669	20.746260
1508.387838	-2.983100	3.434200	-10.243000	25.809609	0.000668	20.741620
1509.382245	-2.979300	3.434400	-10.232000	25.848417	0.000668	20.753103
1510.386203	-2.982800	3.433500	-10.240000	25.869752	0.000667	20.735654
1511.390585	-2.988000	3.432700	-10.256000	25.912133	0.000665	20.742194
1512.387207	-2.980000	3.432300	-10.227000	25.932949	0.000669	20.751727
1513.384466	-3.014500	3.431200	-10.342000	25.974630	0.000665	20.779851
1514.381354	-3.002900	3.431500	-10.302000	25.941324	0.000666	20.744968
1515.380704	-2.979100	3.432100	-10.224000	25.909727	0.000667	20.760166
1516.389797	-2.973100	3.432200	-10.203000	25.904112	0.000666	20.760215
1517.392628	-2.994200	3.430700	-10.271000	25.916236	0.000665	20.739203
1518.385183	-3.003800	3.428800	-10.299000	25.908733	0.000663	20.738778
1519.383844	-2.998400	3.430500	-10.284000	25.926545	0.000662	20.740077
1520.390830	-3.001300	3.429600	-10.291000	25.953845	0.000662	20.760392
1521.390360	-3.006100	3.429300	-10.308000	25.962939	0.000663	20.764313
1522.392682	-2.995100	3.428900	-10.268000	25.987678	0.000664	20.745070
1523.370275	-3.010200	3.426900	-10.314000	25.972949	0.000661	20.758722
1524.394088	-2.993200	3.427500	-10.257000	25.971878	0.000661	20.760017
1525.385505	-2.994500	3.427100	-10.261000	25.983606	0.000661	20.741927
1526.389651	-2.991100	3.427100	-10.249000	26.019421	0.000659	20.762738
1527.393234	-2.986700	3.427700	-10.236000	26.009887	0.000658	20.741779
1528.390564	-3.011700	3.426000	-10.317000	26.031346	0.000661	20.737260
1529.392387	-2.982900	3.427500	-10.222000	26.024042	0.000660	20.768803
1530.388246	-2.968300	3.426400	-10.170000	26.026180	0.000657	20.755778
1531.397636	-3.018300	3.423900	-10.333000	26.034428	0.000658	20.762168
1532.373005	-2.991700	3.425500	-10.247000	26.036537	0.000656	20.755279
1533.398081	-2.984100	3.424200	-10.216000	26.060238	0.000658	20.772454
1534.372832	-2.990400	3.424700	-10.240000	26.067240	0.000656	20.757678
1535.395296	-2.994700	3.423700	-10.253000	26.023823	0.000656	20.736814
1536.372018	-3.019600	3.422700	-10.334000	26.022629	0.000654	20.766910
1537.372202	-3.000500	3.424100	-10.273000	25.997219	0.000655	20.761294
1538.375045	-2.987300	3.423300	-10.226000	25.960435	0.000655	20.766538
1539.373052	-3.003300	3.422900	-10.278000	25.934776	0.000652	20.757830
1540.374870	-3.013100	3.421900	-10.310000	25.878335	0.000654	20.745225
1541.375206	-2.981700	3.423300	-10.205000	25.835534	0.000651	20.747274
1542.373812	-3.021900	3.419900	-10.333000	25.821944	0.000652	20.753063
1543.374985	-3.005300	3.420400	-10.278000	25.766199	0.000649	20.753491
1544.376456	-3.002800	3.421700	-10.273000	25.762098	0.000653	20.766442
1545.374194	-2.991900	3.420100	-10.232000	25.783192	0.000652	20.750172
1546.396693	-3.001700	3.421100	-10.268000	25.813828	0.000650	20.766247
1547.397629	-3.019400	3.418200	-10.320000	25.869303	0.000651	20.763653
1548.374796	-2.999300	3.419000	-10.253000	25.882121	0.000649	20.750925
1549.376939	-2.996300	3.418100	-10.241000	25.895907	0.000648	20.784216
1550.374823	-2.984500	3.418300	-10.200000	25.905918	0.000650	20.780522
1551.376400	-3.018200	3.416700	-10.310000	25.912973	0.000649	20.756789
1552.375266	-3.019200	3.415900	-10.312000	25.931359	0.000646	20.759612
1553.376547	-2.994100	3.417500	-10.232000	25.935233	0.000646	20.774410
1554.396884	-2.999100	3.417600	-10.249000	25.932429	0.000646	20.773490
1555.378735	-3.025900	3.415700	-10.334000	25.977537	0.000646	20.754322
1556.381463	-2.977600	3.416500	-10.171000	25.998799	0.000645	20.782797
1557.380337	-3.003900	3.416500	-10.262000	26.001631	0.000644	20.763830
1558.382060	-2.981100	3.415700	-10.182000	26.036103	0.000645	20.773335
1559.382184	-3.020600	3.413500	-10.309000	25.996637	0.000644	20.778253
1560.382130	-2.993200	3.413100	-10.215000	25.952150	0.000645	20.775759
1561.381856	-2.997000	3.412600	-10.225000	25.933669	0.000643	20.787064
1562.395345	-3.024000	3.412700	-10.319000	25.918693	0.000644	20.770596
1563.399523	-3.013200	3.413300	-10.284000	25.940125	0.000642	20.783119
1564.399345	-2.986500	3.413400	-10.193000	25.926019	0.000643	20.769421
1565.406259	-3.008300	3.413200	-10.266000	25.914642	0.000642	20.769371
1566.399601	-3.000000	3.412000	-10.235000	25.890173	0.000643	20.781300
1567.401199	-3.022600	3.411800	-10.312000	25.884657	0.000641	20.777655
1568.405878	-3.003200	3.411700	-10.245000	25.867566	0.000641	20.778030
1569.403361	-3.010200	3.411600	-10.268000	25.886545	0.000642	20.781923
1570.385336	-2.987400	3.410600	-10.188000	25.900828	0.000640	20.778253
1571.384449	-3.002400	3.410300	-10.238000	25.917347	0.000641	20.791056
1572.384190	-3.006600	3.410400	-10.252000	25.932324	0.000639	20.786661
1573.385205	-2.994300	3.409600	-10.208000	25.946039	0.000639	20.766300
1574.385254	-3.003900	3.410000	-10.242000	25.952498	0.000638	20.782747
1575.404159	-3.006100	3.409000	-10.247000	25.953590	0.000637	20.782422
1576.403893	-2.989800	3.410000	-10.193000	25.977586	0.000638	20.784718
1577.404842	-3.014000	3.407700	-10.270000	26.011464	0.000636	20.796470
1578.400516	-2.970300	3.409600	-10.126000	26.059178	0.000635	20.793674
1579.403994	-2.983800	3.408200	-10.168000	26.070257	0.000634	20.785366
1580.410403	-3.002200	3.407000	-10.227000	26.079223	0.000635	20.799116
1581.415281	-2.990800	3.405500	-10.185000	26.079995	0.000635	20.787563
1582.402476	-2.998700	3.407400	-10.217000	26.051032	0.000635	20.811094
1583.405593	-2.996300	3.404700	-10.200000	26.025449	0.000635	20.799615
1584.406493	-2.987300	3.406900	-10.176000	25.980615	0.000632	20.798193
1585.387424	-3.009100	3.406500	-10.250000	25.985659	0.000632	20.779552
1586.390867	-2.975300	3.405000	-10.130000	25.997031	0.000632	20.815634
1587.390724	-2.987000	3.404700	-10.169000	25.978326	0.000632	20.808221
1588.388559	-3.008300	3.403800	-10.238000	25.955574	0.000633	20.775405
1589.387108	-3.018700	3.402000	-10.268000	25.964516	0.000630	20.791028
1590.389406	-3.000500	3.402500	-10.208000	25.952590	0.000631	20.803228
1591.386958	-2.998700	3.403600	-10.205000	25.954556	0.000630	20.812315
1592.391143	-2.982200	3.402200	-10.145000	26.006593	0.000631	20.803430
1593.404809	-2.982500	3.402500	-10.147000	26.022263	0.000630	20.801155
1594.390355	-3.007200	3.402700	-10.231000	26.050751	0.000631	20.824087
1595.387546	-3.019500	3.400400	-10.266000	26.053857	0.000629	20.794018
1596.390058	-3.019500	3.401500	-10.270000	26.043968	0.000630	20.811109
1597.413774	-3.023300	3.399500	-10.277000	26.047842	0.000629	20.799828
1598.409125	-3.016000	3.400400	-10.254000	26.041732	0.000629	20.791793
1599.390168	-2.998600	3.399900	-10.194000	26.029687	0.000629	20.803873
1600.390548	-3.009100	3.400400	-10.231000	26.081397	0.000628	20.827378
1601.408914	-2.991100	3.400200	-10.169000	26.079855	0.000628	20.806863
1602.412782	-2.970300	3.400600	-10.099000	26.039668	0.000627	20.819591
1603.396000	-3.001800	3.397700	-10.198000	26.033931	0.000625	20.834689
1604.392558	-3.006700	3.398500	-10.216000	25.997465	0.000624	20.810380
1605.393321	-2.993600	3.398900	-10.174000	25.980898	0.000626	20.811753
1606.392511	-3.010700	3.397200	-10.227000	25.978810	0.000627	20.816767
1607.413042	-2.978700	3.398200	-10.121000	26.010803	0.000622	20.827099
1608.415493	-2.979200	3.397100	-10.120000	26.040757	0.000625	20.803615
1609.413396	-2.994500	3.397900	-10.174000	26.071308	0.000622	20.814871
1610.415762	-2.982000	3.396900	-10.128000	26.087405	0.000623	20.812553
1611.413361	-3.003200	3.395800	-10.197000	26.117230	0.000623	20.813597
1612.395324	-3.000900	3.394800	-10.187000	26.160865	0.000623	20.826148
1613.417604	-3.011600	3.394400	-10.221000	26.142786	0.000621	20.833111
1614.434829	-3.024900	3.393800	-10.265000	26.160742	0.000621	20.813222
1615.396322	-3.007100	3.393700	-10.203000	26.140722	0.000620	20.825348
1616.397441	-3.011600	3.394000	-10.221000	26.126890	0.000619	20.836579
1617.397562	-3.002700	3.392000	-10.185000	26.164637	0.000619	20.810024
1618.398046	-2.995600	3.393800	-10.165000	26.175588	0.000621	20.828614
1619.399225	-3.004600	3.393200	-10.194000	26.191607	0.000619	20.832857
1620.401109	-3.016700	3.393200	-10.236000	26.173550	0.000619	20.826092
1621.423403	-3.000900	3.392500	-10.180000	26.175983	0.000616	20.841813
1622.417373	-3.026300	3.391700	-10.263000	26.175733	0.000617	20.835872
1623.429732	-3.000100	3.392000	-10.175000	26.139350	0.000616	20.830607
1624.416106	-3.019400	3.391100	-10.239000	26.149907	0.000617	20.825568
1625.416025	-2.988800	3.390900	-10.134000	26.145981	0.000618	20.851968
1626.426069	-3.010200	3.390200	-10.204000	26.164158	0.000617	20.849845
1627.417073	-3.020000	3.389800	-10.236000	26.173494	0.000615	20.845949
1628.421854	-2.999300	3.389800	-10.166000	26.135470	0.000614	20.841406
1629.421435	-2.996600	3.388800	-10.153000	26.067964	0.000614	20.824312
1630.419520	-3.000500	3.389200	-10.169000	26.069404	0.000615	20.834768
1631.424316	-3.025400	3.388300	-10.250000	26.057480	0.000614	20.849813
1632.418805	-2.993500	3.388000	-10.140000	26.032792	0.000614	20.855828
1633.418677	-2.986600	3.389300	-10.122000	26.058772	0.000610	20.838784
1634.421267	-3.019800	3.386800	-10.226000	26.053680	0.000609	20.841254
1635.429770	-3.002700	3.387000	-10.168000	26.079659	0.000610	20.839857
1636.423462	-2.998600	3.387200	-10.154000	26.076433	0.000609	20.856055
1637.426649	-3.017800	3.386100	-10.217000	26.042357	0.000610	20.832249
1638.421822	-3.018800	3.386500	-10.222000	26.025389	0.000609	20.838908
1639.421854	-2.995200	3.385200	-10.139000	25.998933	0.000608	20.829872
1640.426127	-3.009600	3.387500	-10.193000	25.976057	0.000609	20.850511
1641.425413	-2.979600	3.385600	-10.087000	25.984626	0.000609	20.859593
1642.427068	-3.010600	3.385000	-10.190000	25.976652	0.000608	20.842574
1643.423184	-2.995700	3.384300	-10.137000	25.974265	0.000606	20.858667
1644.424417	-2.991400	3.385500	-10.126000	25.961127	0.000605	20.845943
1645.423296	-3.018500	3.382200	-10.208000	25.979509	0.000606	20.860142
1646.427284	-3.008000	3.381900	-10.172000	25.991955	0.000607	20.858896
1647.424201	-3.014100	3.382000	-10.193000	26.043939	0.000607	20.861338
1648.431564	-2.992000	3.382300	-10.119000	26.054617	0.000605	20.851205
1649.422521	-2.998600	3.382900	-10.143000	26.060780	0.000605	20.857396
1650.425916	-3.001400	3.381900	-10.148000	26.091278	0.000603	20.857694
1651.424071	-2.994500	3.381700	-10.126000	26.081069	0.000605	20.866876
1652.428599	-3.003900	3.382200	-10.158000	26.108763	0.000603	20.864830
1653.428823	-3.004800	3.379600	-10.154000	26.167375	0.000603	20.869197
1654.430913	-2.993400	3.382600	-10.123000	26.157169	0.000603	20.877433
1655.431278	-3.010800	3.379700	-10.175000	26.192260	0.000602	20.859116
1656.410391	-3.003100	3.378300	-10.145000	26.209046	0.000602	20.863656
1657.428477	-2.986400	3.379700	-10.092000	26.206588	0.000601	20.851229
1658.429162	-3.008800	3.379100	-10.166000	26.203310	0.000600	20.873064
1659.429323	-3.004800	3.379000	-10.153000	26.226480	0.000601	20.855571
1660.410533	-3.027400	3.378000	-10.225000	26.255385	0.000600	20.882246
1661.431442	-3.017500	3.377600	-10.191000	26.280441	0.000599	20.853374
1662.438432	-2.993600	3.378100	-10.110000	26.300532	0.000597	20.862184
1663.433606	-2.995000	3.377300	-10.114000	26.317964	0.000598	20.885391
1664.431281	-3.002400	3.377200	-10.139000	26.284789	0.000597	20.893302
1665.412449	-2.996700	3.376500	-10.118000	26.230976	0.000598	20.850607
1666.413024	-2.985900	3.376600	-10.080000	26.216821	0.000595	20.848236
1667.412775	-2.959400	3.376400	-9.991200	26.197275	0.000597	20.873163
1668.417110	-2.999400	3.375300	-10.123000	26.185182	0.000596	20.882822
1669.412471	-3.029100	3.374500	-10.220000	26.207529	0.000595	20.882044
1670.414011	-2.991200	3.376500	-10.099000	26.227223	0.000593	20.882394
1671.413508	-2.967500	3.375200	-10.015000	26.219498	0.000594	20.878899
1672.437278	-2.989800	3.375300	-10.090000	26.263008	0.000596	20.880898
1673.432831	-2.990500	3.373600	-10.087000	26.253744	0.000594	20.874908
1674.427274	-2.994900	3.373200	-10.101000	26.242198	0.000593	20.857616
1675.435667	-3.006600	3.374100	-10.143000	26.184581	0.000593	20.890752
1676.437840	-3.013600	3.372700	-10.163000	26.156987	0.000590	20.882940
1677.434850	-3.019300	3.371500	-10.178000	26.131160	0.000591	20.889230
1678.434865	-3.033900	3.372200	-10.230000	26.144398	0.000591	20.900634
1679.431454	-3.008000	3.372700	-10.143000	26.168189	0.000591	20.877600
1680.430043	-3.007500	3.371100	-10.138000	26.206754	0.000589	20.889800
1681.428147	-3.000100	3.372100	-10.115000	26.259203	0.000590	20.906469
1682.434228	-3.002700	3.371200	-10.121000	26.308268	0.000590	20.885604
1683.436837	-3.003800	3.372200	-10.129000	26.324510	0.000588	20.895288
1684.429914	-3.007500	3.370200	-10.135000	26.329478	0.000585	20.899332
1685.438071	-2.999900	3.370300	-10.110000	26.323493	0.000585	20.872456
1686.428241	-3.009000	3.368700	-10.135000	26.315049	0.000587	20.883411
1687.432329	-2.996200	3.370000	-10.096000	26.350705	0.000585	20.884631
1688.437253	-2.988000	3.369100	-10.066000	26.352864	0.000586	20.885852
1689.418748	-3.017100	3.368100	-10.161000	26.399745	0.000587	20.893615
1690.415369	-3.003900	3.369000	-10.119000	26.370224	0.000585	20.903299
1691.419185	-3.001600	3.368400	-10.109000	26.351923	0.000586	20.897708
1692.413845	-3.008800	3.366900	-10.129000	26.352888	0.000585	20.903893
1693.415466	-2.991700	3.367800	-10.075000	26.373897	0.000583	20.895610
1694.435956	-3.007500	3.366100	-10.122000	26.312367	0.000584	20.888775
1695.418009	-3.000000	3.366500	-10.098000	26.290636	0.000583	20.887324
1696.416030	-3.004300	3.366000	-10.112000	26.284625	0.000582	20.882233
1697.415506	-3.001300	3.364900	-10.098000	26.324824	0.000584	20.891337
1698.430370	-2.995200	3.365200	-10.078000	26.345583	0.000580	20.890863
1699.417408	-3.016000	3.364900	-10.147000	26.380122	0.000582	20.887169
1700.419773	-3.012900	3.364500	-10.135000	26.397630	0.000582	20.883903
1701.416954	-2.994300	3.365000	-10.075000	26.405597	0.000581	20.874368
1702.423196	-2.997100	3.365800	-10.087000	26.398820	0.000579	20.868505
1703.431668	-2.998800	3.364000	-10.086000	26.378059	0.000581	20.890785
1704.417923	-2.995100	3.365000	-10.078000	26.368972	0.000579	20.889713
1705.446021	-3.001100	3.363900	-10.094000	26.356656	0.000580	20.865958
1706.442426	-2.981600	3.364400	-10.030000	26.370409	0.000578	20.891631
1707.418474	-3.005700	3.363100	-10.107000	26.387639	0.000578	20.857268
1708.418465	-3.017700	3.361600	-10.144000	26.384189	0.000578	20.891730
1709.434828	-2.999300	3.361300	-10.080000	26.397571	0.000576	20.851603
1710.437779	-3.021500	3.360800	-10.154000	26.399532	0.000575	20.865427
1711.436056	-2.994000	3.360900	-10.062000	26.371870	0.000576	20.862756
1712.435780	-2.995800	3.361500	-10.069000	26.345201	0.000578	20.861557
1713.439965	-2.984400	3.360300	-10.028000	26.282799	0.000574	20.879450
1714.439570	-2.993900	3.358900	-10.055000	26.285032	0.000573	20.850875
1715.439089	-3.006500	3.359100	-10.099000	26.282870	0.000573	20.872883
1716.437364	-2.993800	3.360600	-10.060000	26.239015	0.000571	20.849676
1717.436860	-2.996400	3.358300	-10.062000	26.265814	0.000570	20.866174
1718.445220	-3.014200	3.358700	-10.122000	26.278103	0.000571	20.872834
1719.439186	-2.991000	3.358500	-10.044000	26.292778	0.000571	20.870987
1720.419923	-2.992400	3.358500	-10.049000	26.314975	0.000571	20.873379
1721.424859	-3.017000	3.356900	-10.126000	26.335783	0.000570	20.863946
1722.425097	-3.010400	3.358000	-10.108000	26.343881	0.000569	20.861179
1723.421861	-3.011900	3.356200	-10.107000	26.347430	0.000568	20.841987
1724.441454	-3.018400	3.356700	-10.131000	26.362875	0.000567	20.860354
1725.423171	-3.021900	3.355900	-10.140000	26.399575	0.000569	20.855988
1726.423619	-3.031100	3.355500	-10.170000	26.414918	0.000567	20.846753
1727.430143	-2.993500	3.356700	-10.046000	26.436643	0.000567	20.841089
1728.427373	-3.000600	3.356100	-10.069000	26.415464	0.000566	20.843035
1729.426908	-2.988900	3.355700	-10.028000	26.412214	0.000566	20.852096
1730.426280	-2.985700	3.353900	-10.012000	26.406652	0.000566	20.857411
1731.427874	-3.011100	3.354800	-10.101000	26.393590	0.000565	20.853292
1732.428052	-2.993100	3.354600	-10.038000	26.390038	0.000565	20.859679
1733.426205	-2.992700	3.354000	-10.037000	26.351004	0.000565	20.840837
1734.441797	-2.972900	3.354400	-9.971000	26.342240	0.000566	20.859530
1735.446088	-2.990700	3.353800	-10.029000	26.345842	0.000564	20.859357
1736.444005	-2.990100	3.353500	-10.026000	26.339086	0.000561	20.833127
1737.444786	-3.013300	3.352800	-10.102000	26.334343	0.000563	20.836422
1738.429997	-2.982800	3.352700	-9.999300	26.348919	0.000562	20.844906
1739.426565	-2.971100	3.352700	-9.959800	26.331414	0.000562	20.826840
1740.426866	-2.985500	3.352000	-10.006000	26.341694	0.000560	20.842861
1741.426952	-3.004900	3.351200	-10.069000	26.326248	0.000560	20.835399
1742.432553	-3.008300	3.351300	-10.080000	26.319918	0.000558	20.835201
1743.435349	-3.009300	3.350600	-10.082000	26.295686	0.000558	20.845461
1744.427464	-3.013600	3.351200	-10.098000	26.317164	0.000558	20.836226
1745.428602	-3.008900	3.349300	-10.076000	26.325034	0.000559	20.840342
1746.428084	-3.009200	3.351500	-10.084000	26.355904	0.000558	20.849555
1747.428155	-3.010400	3.349300	-10.082000	26.385721	0.000554	20.824522
1748.427968	-3.016100	3.349800	-10.102000	26.373803	0.000556	20.843837
1749.446441	-2.999900	3.349700	-10.048000	26.379588	0.000555	20.842065
1750.446646	-3.026300	3.347600	-10.130000	26.397815	0.000555	20.832409
1751.453100	-3.006300	3.347100	-10.062000	26.410330	0.000554	20.826970
1752.449317	-3.015500	3.346200	-10.089000	26.448218	0.000552	20.840869
1753.446159	-3.008300	3.347000	-10.067000	26.419269	0.000553	20.837850
1754.432261	-3.016000	3.346000	-10.091000	26.418920	0.000552	20.839397
1755.428679	-3.004600	3.347100	-10.056000	26.453108	0.000552	20.831085
1756.431298	-2.987500	3.348400	-10.002000	26.438312	0.000550	20.825222
1757.428635	-3.007600	3.347100	-10.066000	26.423194	0.000550	20.810028
1758.429137	-2.992600	3.346000	-10.012000	26.365860	0.000549	20.840122
1759.432805	-3.016000	3.345200	-10.088000	26.323998	0.000550	20.822706
1760.446702	-3.001100	3.345600	-10.039000	26.287693	0.000550	20.835532
1761.432227	-3.008100	3.344400	-10.060000	26.285035	0.000549	20.828594
1762.431877	-2.973800	3.345800	-9.948600	26.270433	0.000548	20.824351
1763.460303	-2.980300	3.343900	-9.964800	26.283845	0.000547	20.827398
1764.434853	-3.013500	3.342500	-10.071000	26.303611	0.000547	20.817865
1765.436888	-3.011400	3.343700	-10.067000	26.343465	0.000546	20.822356
1766.434042	-3.005800	3.342900	-10.047000	26.349425	0.000549	20.844941
1767.433884	-3.003200	3.342000	-10.036000	26.382851	0.000546	20.834913
1768.433468	-3.013200	3.341800	-10.068000	26.372768	0.000547	20.833314
1769.435314	-2.999900	3.343500	-10.029000	26.381879	0.000547	20.842471
1770.440610	-3.020700	3.341700	-10.093000	26.385259	0.000546	20.817893
1771.435928	-2.967300	3.342600	-9.917200	26.376243	0.000546	20.806461
1772.452936	-2.998000	3.341300	-10.016000	26.382777	0.000545	20.821088
1773.435968	-2.987500	3.340600	-9.979100	26.426278	0.000543	20.821187
1774.458034	-2.996300	3.339000	-10.003000	26.449073	0.000543	20.811856
1775.457762	-3.001800	3.340600	-10.027000	26.458708	0.000542	20.814429
1776.454963	-3.004900	3.338400	-10.030000	26.468439	0.000540	20.831321
1777.453331	-2.991200	3.339000	-9.986800	26.453864	0.000542	20.822836
1778.453901	-2.965000	3.340800	-9.904700	26.394944	0.000542	20.801549
1779.454983	-2.990200	3.340200	-9.986100	26.350548	0.000540	20.813827
1780.452675	-3.016300	3.337600	-10.066000	26.342358	0.000541	20.807493
1781.454926	-3.007200	3.337400	-10.035000	26.302924	0.000540	20.815752
1782.461816	-3.020100	3.335800	-10.073000	26.285492	0.000539	20.809139
1783.457972	-2.995300	3.337300	-9.996000	26.290706	0.000541	20.821491
1784.454446	-3.004700	3.337400	-10.026000	26.326412	0.000539	20.811856
1785.457762	-2.978500	3.337700	-9.940400	26.345703	0.000539	20.808011
1786.439693	-2.998400	3.336200	-10.003000	26.347868	0.000538	20.803074
1787.439554	-2.982800	3.335500	-9.948200	26.352935	0.000537	20.809114
1788.440104	-2.999800	3.335700	-10.005000	26.378062	0.000536	20.823936
1789.439140	-2.996900	3.335100	-9.993200	26.355688	0.000537	20.813304
1790.440538	-2.993400	3.335600	-9.983500	26.378781	0.000536	20.813753
1791.440044	-3.003800	3.333500	-10.012000	26.363684	0.000535	20.798580
1792.442665	-2.992600	3.334500	-9.977800	26.380770	0.000536	20.809588
1793.439494	-2.990100	3.334100	-9.968400	26.404235	0.000534	20.827956
1794.461621	-2.988700	3.333700	-9.962700	26.409174	0.000534	20.812532
1795.462418	-2.998100	3.333700	-9.993800	26.398049	0.000532	20.808937
1796.458736	-2.982700	3.333900	-9.943100	26.340717	0.000534	20.816750
1797.444629	-2.986400	3.334700	-9.957900	26.329496	0.000533	20.804999
1798.440580	-3.001600	3.332500	-10.001000	26.297287	0.000531	20.799656
1799.442680	-3.035100	3.331300	-10.110000	26.285717	0.000531	20.810313
1800.440695	-3.014200	3.332200	-10.043000	26.314300	0.000530	20.812960
1801.462789	-3.006900	3.331400	-10.017000	26.323761	0.000531	20.805398
1802.445035	-3.008600	3.331200	-10.021000	26.310377	0.000530	20.796216
1803.466314	-3.016000	3.330100	-10.043000	26.303399	0.000528	20.810065
1804.462392	-3.003500	3.329700	-9.998800	26.336003	0.000528	20.803477
1805.464557	-2.998400	3.329400	-9.982000	26.358029	0.000527	20.801906
1806.461881	-3.004600	3.330100	-10.004000	26.404216	0.000527	20.801859
1807.466062	-3.003500	3.329500	-9.997900	26.421224	0.000528	20.808048
1808.466558	-3.003300	3.329400	-9.998300	26.448090	0.000524	20.820351
1809.458346	-2.976400	3.329800	-9.910100	26.438929	0.000525	20.797394
1810.459914	-2.998500	3.329100	-9.980000	26.493327	0.000525	20.797542
1811.464699	-2.995800	3.326900	-9.965400	26.506285	0.000524	20.809145
1812.466586	-2.987300	3.328400	-9.942400	26.493724	0.000524	20.791304
1813.465281	-3.004500	3.327700	-9.997500	26.441013	0.000523	20.798066
1814.462568	-2.984100	3.327000	-9.926700	26.419883	0.000525	20.800536
1815.469036	-3.007600	3.325600	-10.001000	26.395601	0.000525	20.801735
1816.463794	-3.001600	3.326300	-9.983700	26.406131	0.000523	20.806629
1817.465433	-2.986000	3.326900	-9.933600	26.410550	0.000522	20.777879
1818.473310	-2.997000	3.325200	-9.964800	26.413630	0.000521	20.816062
1819.467266	-3.017000	3.325200	-10.030000	26.402431	0.000521	20.803384
1820.449418	-3.001800	3.325200	-9.981100	26.354958	0.000520	20.808777
1821.465524	-3.007300	3.324100	-9.995000	26.323668	0.000521	20.806728
1822.470164	-2.996000	3.323800	-9.957100	26.332315	0.000520	20.787443
1823.465709	-2.997900	3.324700	-9.966900	26.348479	0.000518	20.764333
1824.475776	-2.981900	3.324500	-9.912200	26.355331	0.000519	20.796824
1825.468297	-2.988100	3.324200	-9.931600	26.397396	0.000519	20.801169
1826.467943	-3.005600	3.321600	-9.981000	26.425751	0.000518	20.785571
1827.468874	-2.992800	3.323600	-9.946000	26.481315	0.000514	20.775986
1828.468190	-2.992100	3.321400	-9.935900	26.518408	0.000516	20.779605
1829.472022	-3.008300	3.321800	-9.992600	26.528934	0.000515	20.794453
1830.474660	-3.002600	3.321300	-9.971600	26.537850	0.000514	20.786346
1831.467052	-2.977200	3.322000	-9.889600	26.583752	0.000514	20.785072
1832.466029	-3.007200	3.321400	-9.987200	26.571415	0.000512	20.766980
1833.468278	-2.996600	3.320000	-9.948200	26.589536	0.000513	20.791360
1834.474928	-2.993500	3.320000	-9.937000	26.601476	0.000512	20.788664
1835.470327	-2.970700	3.320400	-9.863200	26.595443	0.000512	20.764581
1836.447973	-2.998600	3.320500	-9.954800	26.599691	0.000509	20.779757
1837.447750	-2.986800	3.319800	-9.914600	26.660514	0.000510	20.793960
1838.448293	-2.980800	3.320100	-9.895200	26.660511	0.000509	20.781629
1839.448953	-2.992500	3.320100	-9.934100	26.682207	0.000509	20.767878
1840.452136	-2.978000	3.319000	-9.883600	26.704373	0.000506	20.779258
1841.450558	-2.991200	3.317000	-9.920100	26.694173	0.000507	20.778013
1842.451904	-3.021400	3.317100	-10.021000	26.702937	0.000506	20.779711
1843.450356	-2.968200	3.318000	-9.846000	26.689383	0.000507	20.796430
1844.450436	-2.994600	3.316000	-9.928800	26.687327	0.000507	20.776820
1845.452174	-2.998200	3.315900	-9.940500	26.623851	0.000505	20.769905
1846.451151	-2.999700	3.316900	-9.948800	26.632070	0.000504	20.780539
1847.451374	-3.010500	3.314500	-9.976700	26.637628	0.000504	20.767160
1848.450817	-2.995700	3.315400	-9.931200	26.676754	0.000502	20.785156
1849.471142	-2.993300	3.315000	-9.921900	26.637958	0.000502	20.796889
1850.478164	-2.990300	3.314100	-9.909100	26.618022	0.000503	20.784908
1851.469819	-3.015800	3.313600	-9.991300	26.571058	0.000502	20.789381
1852.475270	-3.013400	3.314300	-9.986600	26.527461	0.000501	20.786808
1853.456242	-2.995000	3.312200	-9.919300	26.516861	0.000501	20.790378
1854.456246	-3.019800	3.311800	-10.000000	26.458370	0.000499	20.784218
1855.457041	-3.001400	3.311800	-9.939400	26.446971	0.000499	20.773709
1856.459246	-3.035200	3.310900	-10.049000	26.472075	0.000498	20.770492
1857.458556	-3.000800	3.310300	-9.932500	26.462764	0.000499	20.777728
1858.461188	-2.987400	3.311000	-9.890200	26.464034	0.000499	20.792756
1859.458704	-2.986700	3.311100	-9.887800	26.449062	0.000498	20.779603
1860.480514	-2.996700	3.310400	-9.917900	26.408889	0.000498	20.781900
1861.478769	-3.002000	3.309700	-9.934900	26.378301	0.000498	20.773917
1862.481362	-2.983300	3.311000	-9.877200	26.307237	0.000498	20.772197
1863.478266	-2.998800	3.309200	-9.921800	26.301452	0.000497	20.771599
1864.459653	-2.986200	3.309400	-9.880500	26.285210	0.000496	20.777561
1865.461458	-2.996700	3.310600	-9.919300	26.288537	0.000495	20.771896
1866.460722	-2.992200	3.308700	-9.899800	26.309994	0.000496	20.760742
1867.466993	-2.999300	3.308600	-9.922300	26.320500	0.000495	20.760395
1868.483039	-3.006000	3.307000	-9.939800	26.288963	0.000493	20.751935
1869.478632	-2.967500	3.307700	-9.815300	26.272748	0.000494	20.751761
1870.463235	-3.026100	3.306800	-10.005000	26.314986	0.000493	20.749164
1871.463407	-2.981500	3.308600	-9.863600	26.341558	0.000492	20.754532
1872.468142	-2.993100	3.308100	-9.900500	26.402717	0.000491	20.760048
1873.464456	-3.006300	3.307000	-9.940900	26.454909	0.000488	20.754185
1874.466059	-2.987000	3.306700	-9.875700	26.468342	0.000489	20.745402
1875.463628	-2.999600	3.305700	-9.914900	26.532250	0.000490	20.749896
1876.464797	-2.998600	3.305500	-9.910600	26.563801	0.000490	20.765491
1877.465993	-3.004200	3.303900	-9.924800	26.574749	0.000488	20.757529
1878.463617	-2.992000	3.305500	-9.888800	26.611315	0.000489	20.768683
1879.463073	-2.978000	3.305700	-9.842700	26.633560	0.000488	20.762596
1880.462761	-2.991200	3.304700	-9.884000	26.657041	0.000485	20.753959
1881.464794	-2.999200	3.303900	-9.908300	26.646468	0.000486	20.750441
1882.464439	-2.990100	3.303200	-9.875700	26.641575	0.000486	20.752161
1883.465869	-3.013500	3.302300	-9.950400	26.637084	0.000487	20.756655
1884.485440	-3.011000	3.302500	-9.942900	26.651878	0.000485	20.753509
1885.481495	-2.995800	3.304000	-9.897700	26.654658	0.000486	20.761046
1886.487706	-3.000400	3.302600	-9.907100	26.682042	0.000481	20.755384
1887.483193	-3.027300	3.300700	-9.991100	26.703734	0.000481	20.745423
1888.487009	-2.969800	3.302500	-9.807000	26.714933	0.000485	20.738664
1889.481031	-2.983300	3.301700	-9.849400	26.733625	0.000480	20.759829
1890.482760	-2.996300	3.300100	-9.887600	26.699169	0.000481	20.746524
1891.487254	-3.014500	3.299400	-9.945500	26.671666	0.000478	20.746849
1892.468703	-3.011600	3.299000	-9.934400	26.646123	0.000481	20.748672
1893.471139	-2.999400	3.299200	-9.893200	26.616207	0.000479	20.758902
1894.472618	-3.025600	3.298000	-9.977200	26.628375	0.000478	20.754064
1895.469314	-3.001800	3.299200	-9.902500	26.667991	0.000477	20.766389
1896.468857	-2.972900	3.299900	-9.808900	26.668737	0.000479	20.733947
1897.469059	-2.974400	3.300000	-9.814500	26.683660	0.000478	20.748951
1898.491627	-2.990500	3.297900	-9.861500	26.718016	0.000476	20.732754
1899.493044	-3.007200	3.296500	-9.912300	26.715975	0.000477	20.747773
1900.488115	-2.984400	3.297700	-9.840700	26.743878	0.000476	20.755437
1901.473946	-2.987300	3.296200	-9.844700	26.742910	0.000475	20.725539
1902.471961	-3.020000	3.294500	-9.947000	26.778702	0.000474	20.738293
1903.488488	-2.994100	3.296400	-9.868700	26.795877	0.000473	20.751768
1904.490597	-2.988900	3.295600	-9.849400	26.752789	0.000472	20.735472
1905.491038	-2.993900	3.295500	-9.864600	26.731169	0.000472	20.733176
1906.494781	-2.997200	3.294400	-9.873000	26.664690	0.000471	20.745052
1907.487458	-2.989000	3.295200	-9.848200	26.644933	0.000471	20.708118
1908.490788	-3.007000	3.293100	-9.900500	26.628132	0.000470	20.737224
1909.495008	-2.997100	3.293700	-9.871100	26.649452	0.000468	20.736845
1910.499432	-3.013900	3.292600	-9.922600	26.671025	0.000469	20.741463
1911.474437	-2.994900	3.293000	-9.861700	26.688127	0.000469	20.723094
1912.482304	-2.981800	3.292600	-9.817200	26.712332	0.000468	20.721349
1913.492513	-2.995900	3.294000	-9.867800	26.679166	0.000468	20.733052
1914.502214	-3.002700	3.293100	-9.886300	26.680109	0.000468	20.742535
1915.497061	-2.996100	3.291700	-9.861200	26.605590	0.000466	20.720726
1916.475656	-2.993200	3.291400	-9.850800	26.583545	0.000467	20.724170
1917.476105	-3.015000	3.290000	-9.918300	26.564455	0.000466	20.740069
1918.475759	-2.979700	3.291100	-9.805200	26.560358	0.000464	20.728363
1919.476296	-2.979700	3.292100	-9.808000	26.597100	0.000462	20.723572
1920.503129	-3.000100	3.289300	-9.866100	26.629100	0.000464	20.733455
1921.495362	-3.010200	3.289600	-9.901700	26.665495	0.000463	20.757716
1922.506306	-3.002200	3.290100	-9.876500	26.684955	0.000462	20.717534
1923.492738	-2.998100	3.289100	-9.860500	26.692674	0.000463	20.714389
1924.494893	-3.010600	3.288300	-9.898200	26.736088	0.000462	20.761831
1925.493074	-3.015400	3.288300	-9.914300	26.765603	0.000459	20.738873
1926.501953	-2.995900	3.288200	-9.850600	26.767264	0.000460	20.710195
1927.497527	-3.013400	3.288700	-9.908600	26.785832	0.000461	20.755893
1928.503748	-3.003300	3.286500	-9.869000	26.769647	0.000460	20.721126
1929.495105	-2.986400	3.287500	-9.816600	26.807128	0.000460	20.723724
1930.498662	-3.017500	3.286000	-9.914400	26.794571	0.000458	20.722952
1931.500490	-2.996500	3.287400	-9.849300	26.805217	0.000458	20.736976
1932.496468	-3.004600	3.285100	-9.869700	26.777840	0.000457	20.731735
1933.479991	-2.992200	3.286400	-9.832500	26.763840	0.000456	20.708649
1934.482129	-3.016000	3.285000	-9.906600	26.718864	0.000458	20.726968
1935.480742	-3.002400	3.283200	-9.855800	26.756568	0.000457	20.721728
1936.480608	-3.010000	3.283600	-9.882500	26.763445	0.000455	20.719159
1937.499633	-3.013600	3.283700	-9.894100	26.774465	0.000453	20.731187
1938.499938	-3.009800	3.282500	-9.877800	26.815320	0.000453	20.726745
1939.504182	-2.999900	3.282600	-9.846400	26.836144	0.000452	20.716862
1940.498610	-3.004900	3.282800	-9.863600	26.850763	0.000452	20.716388
1941.497551	-2.981200	3.282400	-9.784700	26.887593	0.000453	20.722602
1942.499577	-2.991000	3.281000	-9.812900	26.882530	0.000450	20.721303
1943.497709	-3.012700	3.281900	-9.886800	26.879278	0.000451	20.717085
1944.502330	-3.023300	3.280300	-9.915400	26.861756	0.000449	20.709424
1945.483253	-2.995100	3.280400	-9.824600	26.875234	0.000448	20.718235
1946.483617	-3.029400	3.279400	-9.932800	26.860046	0.000450	20.722403
1947.508837	-2.999600	3.279400	-9.836100	26.864361	0.000447	20.743813
1948.503336	-2.971500	3.281500	-9.750000	26.901863	0.000447	20.715139
1949.503301	-3.006000	3.280200	-9.857800	26.885609	0.000446	20.731512
1950.498546	-2.990200	3.280200	-9.806900	26.892904	0.000446	20.716087
1951.502575	-2.998600	3.280000	-9.835000	26.869699	0.000444	20.731162
1952.508313	-3.008100	3.279300	-9.863300	26.831055	0.000445	20.731661
1953.508743	-2.998300	3.278800	-9.828800	26.789605	0.000441	20.739771
1954.498877	-2.998900	3.277900	-9.829700	26.728201	0.000445	20.706008
1955.501955	-2.989600	3.279900	-9.803400	26.689724	0.000443	20.725174
1956.509821	-2.977700	3.278300	-9.760900	26.657452	0.000442	20.737301
1957.503631	-3.003600	3.276200	-9.839300	26.677191	0.000442	20.741972
1958.509548	-3.000300	3.274700	-9.823700	26.697073	0.000441	20.709328
1959.503525	-2.975700	3.277000	-9.749300	26.721348	0.000440	20.733260
1960.505443	-2.993500	3.275300	-9.803000	26.732020	0.000441	20.738773
1961.505930	-2.995800	3.274100	-9.805700	26.771093	0.000439	20.724477
1962.485087	-2.986600	3.274700	-9.778600	26.770495	0.000438	20.735730
1963.485497	-3.013500	3.274800	-9.867000	26.782858	0.000439	20.742945
1964.503973	-2.988900	3.274800	-9.786200	26.791122	0.000437	20.715691
1965.501090	-2.997900	3.275000	-9.818100	26.813311	0.000437	20.707654
1966.509209	-3.009400	3.273900	-9.852000	26.838751	0.000437	20.718061
1967.510370	-2.997500	3.273500	-9.811100	26.835401	0.000437	20.731763
1968.505488	-2.985700	3.272500	-9.770100	26.791766	0.000435	20.724873
1969.500877	-2.989900	3.272600	-9.783100	26.755872	0.000434	20.729088
1970.514653	-3.033500	3.271600	-9.924000	26.732763	0.000435	20.730037
1971.509480	-3.014300	3.272000	-9.860600	26.763199	0.000434	20.709427
1972.493824	-3.007200	3.271800	-9.836500	26.778681	0.000433	20.734952
1973.508375	-2.993300	3.272400	-9.794200	26.792881	0.000432	20.724573
1974.510066	-3.015500	3.269200	-9.857500	26.827578	0.000432	20.718681
1975.508634	-2.995100	3.271400	-9.796500	26.886425	0.000429	20.747033
1976.486407	-3.001600	3.270100	-9.814600	26.879845	0.000429	20.731406
1977.488502	-3.000900	3.269700	-9.810500	26.883272	0.000430	20.729163
1978.487549	-2.990600	3.269700	-9.777000	26.885257	0.000429	20.747280
1979.492083	-2.992000	3.267900	-9.776900	26.830827	0.000429	20.725741
1980.488979	-3.014500	3.267600	-9.848700	26.842246	0.000428	20.741965
1981.488758	-2.993400	3.267800	-9.780500	26.862397	0.000427	20.739942
1982.508718	-3.010300	3.268000	-9.836900	26.890838	0.000427	20.728710
1983.508072	-2.993500	3.267100	-9.779100	26.892299	0.000425	20.766216
1984.509370	-3.017000	3.266400	-9.853400	26.911111	0.000425	20.732500
1985.515673	-3.006200	3.266000	-9.817300	26.869668	0.000423	20.734450
1986.490457	-3.000400	3.267100	-9.800300	26.855120	0.000424	20.751117
1987.489818	-3.010300	3.264600	-9.826900	26.830176	0.000422	20.730303
1988.515953	-3.010100	3.264200	-9.824400	26.789845	0.000421	20.726261
1989.490873	-2.998800	3.266300	-9.793800	26.837802	0.000420	20.746980
1990.494114	-2.972000	3.265600	-9.704400	26.814367	0.000422	20.728632
1991.493465	-2.989700	3.264200	-9.757900	26.812583	0.000419	20.744857
1992.511322	-2.954900	3.264600	-9.645200	26.816306	0.000420	20.724418
1993.518970	-2.984400	3.264200	-9.740400	26.799875	0.000417	20.741088
1994.515279	-2.973400	3.262400	-9.699300	26.745964	0.000419	20.721498
1995.518710	-2.984800	3.263500	-9.739600	26.724742	0.000418	20.743310
1996.529160	-3.010100	3.262400	-9.818700	26.707809	0.000417	20.746676
1997.498528	-2.991000	3.261200	-9.753200	26.686117	0.000417	20.742886
1998.496130	-3.019800	3.260100	-9.843000	26.680482	0.000417	20.732004
1999.497178	-3.017600	3.260000	-9.836600	26.712504	0.000414	20.742387
2000.496885	-3.002900	3.260500	-9.790100	26.754080	0.000416	20.741039
2001.500142	-2.980200	3.260800	-9.716800	26.776024	0.000414	20.753144
2002.500102	-2.996300	3.259500	-9.766000	26.768327	0.000411	20.750621
2003.519970	-3.010500	3.259400	-9.809800	26.762893	0.000412	20.739467
2004.513822	-3.019400	3.257800	-9.836200	26.767363	0.000411	20.744435
2005.499628	-2.993300	3.258400	-9.752600	26.805586	0.000409	20.740667
2006.501444	-2.997500	3.257100	-9.761800	26.838495	0.000410	20.750522
2007.498292	-2.990400	3.258400	-9.742600	26.869770	0.000411	20.751148
2008.520862	-2.998100	3.259400	-9.770500	26.919131	0.000409	20.741513
2009.522118	-2.988700	3.257700	-9.735000	26.941842	0.000408	20.741590
2010.518779	-2.988100	3.258300	-9.734800	26.932584	0.000409	20.745557
2011.521320	-2.978400	3.257200	-9.699900	26.928589	0.000407	20.740118
2012.518396	-3.007200	3.254800	-9.787000	26.969239	0.000406	20.735476
2013.520513	-2.975000	3.255700	-9.684700	26.978395	0.000405	20.739467
2014.520488	-2.996300	3.256500	-9.756300	26.991798	0.000407	20.764326
2015.517519	-3.020800	3.253700	-9.826600	26.959017	0.000405	20.763130
2016.518291	-3.020200	3.254000	-9.825800	26.942711	0.000404	20.757164
2017.519085	-2.979300	3.254400	-9.693700	26.902159	0.000404	20.756690
2018.518615	-3.005000	3.253500	-9.775400	26.872852	0.000405	20.750928
2019.520374	-2.994100	3.253600	-9.740400	26.871980	0.000402	20.760483
2020.520224	-3.013000	3.253000	-9.800000	26.904094	0.000403	20.756739
2021.518097	-2.983900	3.252400	-9.704100	26.899752	0.000401	20.738147
2022.504093	-2.996100	3.253400	-9.746100	26.916456	0.000399	20.754471
2023.501381	-2.994100	3.252700	-9.737400	26.900174	0.000398	20.750900
2024.502458	-2.994800	3.254100	-9.744400	26.887766	0.000398	20.754071
2025.503065	-2.999700	3.250100	-9.748200	26.897665	0.000397	20.750748
2026.501430	-3.001400	3.251100	-9.756700	26.917969	0.000398	20.763579
2027.525018	-2.986600	3.250300	-9.705000	26.965868	0.000397	20.757217
2028.505153	-2.998700	3.251400	-9.749300	26.931816	0.000397	20.752372
2029.503542	-2.999000	3.248700	-9.742300	26.907521	0.000395	20.755444
2030.502057	-2.981400	3.249000	-9.685600	26.844777	0.000394	20.770589
2031.518807	-3.026900	3.248400	-9.831700	26.852645	0.000393	20.763802
2032.523109	-3.014200	3.248000	-9.789900	26.872504	0.000395	20.779502
2033.525012	-3.006900	3.249700	-9.770700	26.891809	0.000393	20.754344
2034.521896	-2.982200	3.248400	-9.686600	26.916601	0.000393	20.786859
2035.506159	-3.004900	3.246100	-9.751900	26.960330	0.000391	20.758286
2036.504709	-3.017400	3.244900	-9.790600	26.941022	0.000391	20.770165
2037.505037	-3.027100	3.244800	-9.821200	26.957602	0.000392	20.767397
2038.506836	-2.973200	3.248800	-9.658400	26.978546	0.000390	20.765225
2039.509864	-3.001300	3.247400	-9.744900	26.996337	0.000388	20.767942
2040.532581	-2.981700	3.246500	-9.679300	27.021696	0.000387	20.756460
2041.527053	-2.999500	3.244700	-9.731100	27.053063	0.000386	20.758134
2042.521988	-3.014400	3.242500	-9.772600	27.086017	0.000385	20.764722
2043.524305	-2.989500	3.244100	-9.697300	27.096910	0.000386	20.767617
2044.528947	-3.010100	3.242900	-9.759900	27.092245	0.000385	20.774305
2045.524507	-2.994300	3.242700	-9.709400	27.146236	0.000384	20.767440
2046.536244	-3.000800	3.242400	-9.728900	27.115198	0.000383	20.757560
2047.522049	-2.995500	3.242300	-9.711600	27.096755	0.000382	20.761772
2048.530223	-2.996600	3.243000	-9.717100	27.104422	0.000383	20.782285
2049.534248	-2.992400	3.243700	-9.705100	27.106579	0.000382	20.775919
2050.528870	-3.013200	3.241000	-9.765600	27.127646	0.000381	20.783831
2051.511508	-2.991300	3.242500	-9.697600	27.153027	0.000380	20.776167
2052.519273	-2.983400	3.241500	-9.669800	27.184440	0.000381	20.779787
2053.511144	-2.996200	3.240600	-9.708500	27.195406	0.000378	20.775169
2054.529931	-3.011200	3.238600	-9.750900	27.158561	0.000377	20.763240
2055.533268	-3.004300	3.238800	-9.729700	27.148309	0.000377	20.793707
2056.529562	-3.022400	3.238600	-9.787100	27.143468	0.000379	20.784571
2057.529371	-2.989700	3.239200	-9.683800	27.106748	0.000376	20.774667
2058.529517	-3.009300	3.236900	-9.739600	27.143767	0.000373	20.785820
2059.532198	-2.984500	3.237900	-9.661200	27.121831	0.000375	20.780827
2060.514812	-3.001100	3.237500	-9.715500	27.117514	0.000374	20.777908
2061.515411	-3.015200	3.236000	-9.756500	27.164806	0.000372	20.779954
2062.515856	-3.006000	3.234000	-9.719300	27.193144	0.000373	20.797550
2063.515227	-2.999000	3.234400	-9.697900	27.216489	0.000372	20.784522
2064.514265	-2.992600	3.235200	-9.680700	27.249885	0.000369	20.780180
2065.517434	-3.007100	3.234200	-9.724300	27.252685	0.000370	20.774936
2066.516610	-2.994100	3.234700	-9.684500	27.270474	0.000371	20.781450
2067.534599	-2.969200	3.235000	-9.605000	27.315279	0.000370	20.813718
2068.531754	-3.033300	3.233900	-9.808400	27.349365	0.000369	20.800590
2069.533893	-3.005500	3.234200	-9.719000	27.357282	0.000368	20.771096
2070.539124	-3.011800	3.232900	-9.735400	27.309004	0.000366	20.802189
2071.535350	-3.020600	3.231900	-9.760800	27.317414	0.000367	20.800218
2072.536327	-2.986300	3.232600	-9.653000	27.336022	0.000364	20.809928
2073.532628	-2.988800	3.232300	-9.659700	27.311635	0.000364	20.798672
2074.542221	-2.994800	3.230700	-9.674100	27.304019	0.000363	20.807606
2075.535632	-3.009800	3.232500	-9.728500	27.294838	0.000362	20.792681
2076.524414	-2.984600	3.231400	-9.642700	27.237977	0.000361	20.817040
2077.538082	-2.983900	3.228700	-9.632800	27.224232	0.000363	20.795629
2078.517558	-2.982200	3.230600	-9.632800	27.212996	0.000361	20.803767
2079.518971	-2.995500	3.229000	-9.671600	27.226487	0.000363	20.808803
2080.533846	-2.993300	3.228300	-9.662700	27.251028	0.000361	20.807882
2081.535930	-2.995000	3.228500	-9.667200	27.284496	0.000358	20.810253
2082.537289	-2.992800	3.228300	-9.658600	27.292706	0.000359	20.813296
2083.534826	-3.006000	3.228600	-9.703800	27.321533	0.000358	20.811948
2084.533252	-3.002200	3.227300	-9.687400	27.369860	0.000356	20.806035
2085.539631	-3.008700	3.226100	-9.704700	27.392460	0.000356	20.806959
2086.545853	-2.991400	3.225400	-9.647500	27.420985	0.000355	20.791560
2087.536560	-2.990100	3.226500	-9.646700	27.394665	0.000356	20.804436
2088.538397	-3.008800	3.225700	-9.705000	27.396526	0.000354	20.794928
2089.541285	-2.985300	3.225300	-9.627700	27.379013	0.000355	20.810975
2090.535969	-3.007200	3.225600	-9.698500	27.374451	0.000352	20.823929
2091.542155	-2.982700	3.224800	-9.617000	27.376706	0.000352	20.808654
2092.534650	-2.994400	3.224600	-9.654600	27.420908	0.000352	20.820879
2093.540663	-2.998500	3.224100	-9.666800	27.410838	0.000350	20.832085
2094.540549	-2.978200	3.226000	-9.607000	27.367525	0.000351	20.818859
2095.536701	-3.006000	3.222500	-9.686000	27.313520	0.000351	20.810052
2096.539626	-2.994200	3.222600	-9.648500	27.253825	0.000347	20.827291
2097.547463	-3.002200	3.221800	-9.671500	27.212345	0.000348	20.806432
2098.544082	-2.998500	3.221300	-9.657600	27.223508	0.000350	20.821453
2099.544230	-2.978700	3.222000	-9.596100	27.228869	0.000347	20.816414
2100.540143	-3.017500	3.220100	-9.714600	27.270474	0.000346	20.811322
2101.537853	-3.009300	3.219200	-9.685800	27.261891	0.000347	20.806007
2102.541445	-3.033400	3.218800	-9.762800	27.241393	0.000345	20.816209
2103.548454	-2.994700	3.218800	-9.638500	27.216437	0.000345	20.808176
2104.544967	-2.991400	3.217200	-9.622800	27.269106	0.000344	20.817058
2105.544217	-2.996000	3.219000	-9.642900	27.313418	0.000344	20.834605
2106.541107	-2.984000	3.218900	-9.604700	27.345492	0.000341	20.845531
2107.553536	-2.990600	3.219900	-9.628300	27.365985	0.000340	20.820154
2108.528929	-3.005700	3.217100	-9.669400	27.389597	0.000341	20.830631
2109.546029	-2.998200	3.216100	-9.641000	27.408303	0.000340	20.827638
2110.547889	-2.999400	3.215700	-9.644000	27.434348	0.000338	20.813538
2111.548999	-2.990700	3.216500	-9.618100	27.454765	0.000340	20.835500
2112.550679	-3.018700	3.214200	-9.700900	27.478773	0.000337	20.834998
2113.530399	-3.003700	3.215300	-9.656700	27.489715	0.000338	20.818979
2114.531759	-3.014100	3.215400	-9.690700	27.523668	0.000337	20.836544
2115.528673	-2.995600	3.215400	-9.630500	27.532499	0.000337	20.814136
2116.531637	-3.022500	3.213700	-9.712100	27.546908	0.000333	20.840012
2117.535133	-2.985700	3.213600	-9.593900	27.530287	0.000336	20.831824
2118.528412	-2.996200	3.214300	-9.629000	27.569774	0.000335	20.845949
2119.530935	-3.003700	3.212100	-9.647300	27.555341	0.000333	20.830954
2120.529832	-2.957600	3.212100	-9.498200	27.535274	0.000334	20.844428
2121.544694	-3.008400	3.211600	-9.660800	27.489856	0.000330	20.841880
2122.547673	-3.005300	3.209800	-9.645400	27.422115	0.000329	20.835370
2123.545999	-2.978900	3.211900	-9.566700	27.370171	0.000328	20.849969
2124.551786	-2.978400	3.210700	-9.561900	27.348391	0.000329	20.851766
2125.554877	-2.989400	3.209900	-9.594500	27.326357	0.000330	20.822490
2126.564141	-2.987600	3.209600	-9.588000	27.315417	0.000328	20.842779
2127.553620	-3.013100	3.207500	-9.663100	27.376893	0.000327	20.846300
2128.552305	-3.000500	3.207700	-9.623000	27.413361	0.000326	20.845054
2129.529737	-3.024900	3.208300	-9.703600	27.467761	0.000327	20.830557
2130.531828	-3.015800	3.208200	-9.673900	27.478724	0.000325	20.855336
2131.530123	-2.991600	3.206000	-9.590700	27.468700	0.000324	20.837192
2132.532841	-2.995700	3.207800	-9.608400	27.468925	0.000325	20.852590
2133.529806	-2.989800	3.206200	-9.584800	27.485987	0.000324	20.847945
2134.530558	-2.982800	3.206800	-9.564400	27.502288	0.000324	20.848698
2135.531537	-3.010700	3.205000	-9.648100	27.515234	0.000322	20.843706
2136.536356	-3.006400	3.205400	-9.635800	27.494178	0.000320	20.842435
2137.558248	-3.012200	3.203000	-9.646200	27.479860	0.000323	20.853160
2138.553752	-2.994900	3.204800	-9.597900	27.473786	0.000318	20.847524
2139.555264	-3.009500	3.202700	-9.637700	27.463193	0.000320	20.869581
2140.558560	-2.996400	3.204600	-9.601400	27.420480	0.000319	20.852215
2141.536663	-2.989300	3.204500	-9.577400	27.444218	0.000318	20.867561
2142.534650	-3.021400	3.200000	-9.667500	27.477011	0.000316	20.859303
2143.540180	-3.006600	3.200500	-9.621700	27.495613	0.000319	20.855733
2144.535204	-3.007000	3.201200	-9.625200	27.526520	0.000315	20.863594
2145.534320	-3.014800	3.199900	-9.644500	27.550825	0.000314	20.856755
2146.535581	-3.006100	3.200100	-9.618900	27.593065	0.000314	20.868435
2147.536911	-2.991100	3.199400	-9.567700	27.605982	0.000313	20.855828
2148.534572	-3.010400	3.197700	-9.624200	27.563254	0.000312	20.867837
2149.551816	-2.986600	3.198900	-9.552600	27.531550	0.000312	20.878611
2150.536249	-2.993200	3.199600	-9.575900	27.542962	0.000312	20.854059
2151.537573	-2.984000	3.197100	-9.539500	27.525771	0.000311	20.853833
2152.536901	-2.996400	3.196500	-9.576900	27.531300	0.000312	20.869352
2153.536415	-2.997300	3.194900	-9.575400	27.512351	0.000311	20.855977
2154.536135	-3.003900	3.195500	-9.598000	27.507244	0.000309	20.869804
2155.556732	-2.983000	3.196300	-9.533400	27.525251	0.000308	20.866585
2156.536403	-2.990400	3.195200	-9.554000	27.558433	0.000309	20.883848
2157.538416	-2.972500	3.195600	-9.497900	27.564513	0.000307	20.872423
2158.536325	-2.988800	3.194900	-9.547500	27.605680	0.000305	20.851732
2159.537524	-3.012300	3.194800	-9.621700	27.598436	0.000305	20.881425
2160.536740	-3.007300	3.192900	-9.601400	27.616737	0.000304	20.862856
2161.536924	-3.027200	3.193900	-9.667500	27.617107	0.000307	20.893098
2162.541665	-3.013000	3.191500	-9.615700	27.615028	0.000304	20.884843
2163.539876	-3.000000	3.192100	-9.575700	27.583652	0.000304	20.886937
2164.558405	-2.993100	3.192200	-9.553200	27.550313	0.000305	20.889429
2165.552445	-3.028800	3.189600	-9.659400	27.521144	0.000302	20.859609
2166.537961	-2.981000	3.192100	-9.514100	27.530520	0.000301	20.885162
2167.537202	-2.990500	3.189300	-9.536800	27.492021	0.000301	20.868713
2168.538622	-2.992600	3.189600	-9.544600	27.454518	0.000300	20.878871
2169.536291	-2.996900	3.190000	-9.559400	27.459702	0.000299	20.878871
2170.561208	-2.983500	3.190600	-9.518500	27.503282	0.000301	20.892369
2171.558884	-3.001200	3.188100	-9.567000	27.521911	0.000299	20.886457
2172.563058	-2.974400	3.190000	-9.487300	27.546737	0.000298	20.864495
2173.567689	-3.028500	3.187200	-9.650700	27.504569	0.000298	20.890820
2174.556709	-3.009800	3.187400	-9.591900	27.476517	0.000295	20.894365
2175.556285	-2.991200	3.186800	-9.531500	27.453051	0.000294	20.898731
2176.563753	-2.994000	3.186700	-9.540300	27.497152	0.000294	20.884306
2177.564041	-3.001500	3.185600	-9.560300	27.501615	0.000296	20.882159
2178.558455	-2.995400	3.186000	-9.542100	27.525724	0.000292	20.900249
2179.560954	-3.009700	3.183900	-9.581700	27.580562	0.000294	20.906112
2180.562949	-2.992800	3.184800	-9.530700	27.616851	0.000293	20.903745
2181.554508	-3.005900	3.182500	-9.565100	27.620248	0.000292	20.897206
2182.556976	-3.008100	3.181700	-9.569900	27.615609	0.000293	20.891591
2183.558081	-2.991300	3.182300	-9.517600	27.605021	0.000291	20.888998
2184.566006	-3.006300	3.181000	-9.562000	27.653905	0.000290	20.887926
2185.556198	-2.987500	3.181700	-9.504600	27.696039	0.000289	20.890494
2186.557178	-3.030600	3.181400	-9.640200	27.725575	0.000287	20.899354
2187.557898	-3.023500	3.181000	-9.617000	27.721732	0.000287	20.918718
2188.541679	-2.990600	3.180000	-9.509200	27.722998	0.000288	20.910983
2189.545208	-2.988200	3.179500	-9.499200	27.729893	0.000287	20.892320
2190.546113	-2.974500	3.179200	-9.455400	27.703802	0.000286	20.904470
2191.545554	-3.005200	3.178200	-9.550400	27.684364	0.000286	20.896763
2192.561822	-2.995400	3.179200	-9.521300	27.674170	0.000284	20.888877
2193.563920	-2.994800	3.178600	-9.517700	27.675060	0.000285	20.882187
2194.565609	-3.020900	3.176000	-9.593900	27.701970	0.000284	20.886980
2195.582312	-3.022300	3.175400	-9.596100	27.697483	0.000284	20.875354
2196.561810	-3.011200	3.175000	-9.559100	27.723251	0.000284	20.881369
2197.565226	-3.023300	3.174400	-9.595900	27.719404	0.000282	20.893618
2198.564149	-2.986600	3.175100	-9.482500	27.740062	0.000281	20.882639
2199.574336	-2.996900	3.173700	-9.510600	27.746036	0.000281	20.888177
2200.570324	-3.006600	3.174000	-9.542200	27.722776	0.000281	20.881365
2201.564260	-2.988300	3.173400	-9.482500	27.693464	0.000280	20.879370
2202.564321	-3.022300	3.171600	-9.585000	27.647286	0.000278	20.860405
2203.562718	-2.978600	3.175100	-9.456400	27.665660	0.000278	20.895012
2204.547618	-2.983200	3.170300	-9.456000	27.704622	0.000277	20.893916
2205.548561	-3.008500	3.170400	-9.537000	27.731907	0.000281	20.885338
2206.550298	-2.985600	3.170500	-9.463800	27.734654	0.000278	20.879094
2207.547657	-3.008500	3.168900	-9.531900	27.694259	0.000276	20.863575
2208.569179	-2.972000	3.171200	-9.423300	27.650391	0.000275	20.869218
2209.547462	-3.001000	3.169700	-9.511800	27.657804	0.000276	20.873358
2210.547229	-3.013300	3.166700	-9.540600	27.695099	0.000276	20.879119
2211.549220	-3.015200	3.167800	-9.550500	27.685081	0.000276	20.875202
2212.547165	-2.988700	3.168700	-9.468900	27.675632	0.000276	20.875651
2213.548065	-3.023600	3.165600	-9.570300	27.684262	0.000274	20.857309
2214.548177	-2.993400	3.164600	-9.471900	27.722678	0.000272	20.861353
2215.547360	-3.009600	3.165900	-9.526300	27.708813	0.000273	20.856410
2216.549187	-3.000500	3.163800	-9.492200	27.706411	0.000271	20.883863
2217.547338	-2.996000	3.165400	-9.482400	27.735252	0.000273	20.857886
2218.549584	-3.004500	3.163600	-9.503800	27.769918	0.000269	20.858632
2219.564345	-3.003100	3.163200	-9.498300	27.795437	0.000271	20.858236
2220.566378	-2.988000	3.162400	-9.448000	27.818027	0.000270	20.852996
2221.549277	-2.986400	3.162500	-9.443400	27.801464	0.000269	20.851499
2222.556635	-2.985500	3.164100	-9.445800	27.813316	0.000271	20.855840
2223.579278	-2.983400	3.162100	-9.433500	27.813538	0.000268	20.844684
2224.566242	-3.009500	3.160600	-9.511300	27.808679	0.000267	20.844061
2225.576212	-3.007700	3.160300	-9.504100	27.783507	0.000266	20.857610
2226.551751	-2.995800	3.159000	-9.462700	27.801464	0.000265	20.834430
2227.553417	-3.010100	3.158100	-9.505200	27.851130	0.000266	20.842214
2228.553291	-3.013700	3.157900	-9.516000	27.859912	0.000265	20.854372
2229.554355	-3.007300	3.156600	-9.490800	27.861796	0.000262	20.855320
2230.574904	-3.000900	3.156600	-9.472100	27.891600	0.000264	20.845013
2231.573146	-3.004800	3.157600	-9.486700	27.928422	0.000261	20.855047
2232.551894	-2.983100	3.156100	-9.414200	27.931147	0.000262	20.842143
2233.555397	-3.009400	3.155600	-9.495500	27.894008	0.000262	20.850755
2234.553180	-2.994000	3.156000	-9.447600	27.873331	0.000260	20.838481
2235.551992	-2.982400	3.155400	-9.409500	27.808115	0.000260	20.845391
2236.553970	-3.003000	3.153600	-9.468500	27.777269	0.000258	20.861288
2237.554295	-2.985600	3.154700	-9.417700	27.772881	0.000260	20.846916
2238.556091	-3.004500	3.152200	-9.468800	27.798348	0.000258	20.833191
2239.554029	-2.999200	3.151400	-9.450700	27.790806	0.000257	20.836506
2240.557650	-3.017700	3.149500	-9.502600	27.792247	0.000258	20.843646
2241.557585	-3.029600	3.149500	-9.540700	27.824608	0.000258	20.834963
2242.553374	-3.005500	3.150700	-9.467300	27.835789	0.000256	20.835310
2243.555881	-3.013700	3.148700	-9.488000	27.856722	0.000256	20.854480
2244.553914	-3.024700	3.148200	-9.521500	27.849403	0.000255	20.830045
2245.555284	-3.011500	3.148100	-9.479600	27.892601	0.000253	20.859296
2246.556489	-3.001500	3.148300	-9.449000	27.922505	0.000254	20.829652
2247.557796	-2.988900	3.146000	-9.402300	27.912288	0.000252	20.831223
2248.574450	-3.012300	3.146500	-9.477100	27.892872	0.000252	20.841078
2249.558209	-3.020700	3.144900	-9.498300	27.902272	0.000253	20.832047
2250.555858	-3.007900	3.146200	-9.462500	27.931926	0.000252	20.824911
2251.571397	-2.995800	3.145000	-9.420900	27.929645	0.000252	20.817399
2252.572792	-3.004300	3.144300	-9.445300	27.961211	0.000249	20.822617
2253.583202	-3.000300	3.143100	-9.429700	27.941647	0.000252	20.831375
2254.562780	-2.995100	3.142000	-9.410000	27.915540	0.000250	20.826435
2255.573563	-3.001100	3.141300	-9.426300	27.878344	0.000249	20.828353
2256.562605	-2.993100	3.139700	-9.396000	27.862850	0.000249	20.813708
2257.560821	-2.985000	3.143400	-9.381700	27.880457	0.000248	20.819574
2258.558422	-2.984600	3.141100	-9.373000	27.908625	0.000247	20.822794
2259.557508	-2.995800	3.140300	-9.406500	27.920497	0.000249	20.818623
2260.561766	-3.012000	3.139200	-9.454300	27.913730	0.000245	20.824139
2261.559296	-3.002800	3.137600	-9.420500	27.875672	0.000244	20.823293
2262.559608	-3.008600	3.137200	-9.437700	27.826844	0.000244	20.811610
2263.575058	-3.002600	3.135900	-9.414400	27.782683	0.000242	20.838763
2264.579959	-3.015100	3.136200	-9.454800	27.748260	0.000242	20.815028
2265.577616	-2.982800	3.136000	-9.353500	27.792503	0.000243	20.819723
2266.577646	-2.994400	3.133600	-9.382900	27.801554	0.000245	20.810813
2267.578435	-3.035700	3.132200	-9.506900	27.873137	0.000243	20.810311
2268.582625	-2.986000	3.134200	-9.358200	27.869147	0.000242	20.820519
2269.591129	-3.002600	3.132700	-9.405000	27.868947	0.000243	20.853033
2270.583946	-3.017800	3.130400	-9.445400	27.904178	0.000241	20.804569
2271.580142	-3.030600	3.128900	-9.481100	27.911220	0.000240	20.822087
2272.583433	-3.002200	3.130000	-9.395600	27.919278	0.000241	20.808861
2273.583677	-2.986200	3.131500	-9.349000	27.921756	0.000241	20.823683
2274.565929	-3.003200	3.130600	-9.400700	27.955899	0.000240	20.816323
2275.565238	-2.975000	3.129500	-9.308800	28.003326	0.000238	20.811430
2276.568266	-2.986500	3.127700	-9.339600	28.027522	0.000238	20.822509
2277.585833	-2.984200	3.126700	-9.328100	28.063001	0.000237	20.807014
2278.569784	-3.002900	3.127200	-9.390000	28.041108	0.000237	20.802046
2279.566545	-2.989200	3.125600	-9.340200	28.017704	0.000237	20.813574
2280.571895	-2.988700	3.126000	-9.342200	27.977485	0.000237	20.809127
2281.569611	-3.011900	3.124300	-9.409100	27.924700	0.000238	20.812421
2282.592649	-3.020500	3.122900	-9.431900	27.899928	0.000234	20.817361
2283.591790	-3.005000	3.121500	-9.379200	27.853587	0.000237	20.816713
2284.588153	-3.033000	3.120900	-9.464500	27.836848	0.000233	20.812669
2285.597282	-3.006000	3.120200	-9.378000	27.866529	0.000232	20.800815
2286.585917	-3.002900	3.120400	-9.370000	27.890355	0.000233	20.814838
2287.590041	-3.019400	3.119400	-9.418000	27.889262	0.000233	20.831755
2288.596673	-3.005300	3.117600	-9.367400	27.920105	0.000231	20.816806
2289.589009	-2.993000	3.119100	-9.333900	27.885986	0.000232	20.801906
2290.584452	-3.013200	3.118600	-9.396200	27.870538	0.000233	20.833298
2291.569748	-3.003300	3.117000	-9.359400	27.885413	0.000233	20.808442
2292.571495	-2.996900	3.115400	-9.335800	27.888735	0.000232	20.820320
2293.571940	-3.006500	3.114600	-9.363100	27.903959	0.000229	20.804822
2294.573617	-3.006800	3.114100	-9.363200	27.895426	0.000230	20.819468
2295.574306	-3.031300	3.112300	-9.433000	27.891383	0.000230	20.797381
2296.597059	-2.977900	3.113300	-9.269800	27.945784	0.000231	20.810883
2297.575656	-3.010700	3.110600	-9.363600	27.991527	0.000231	20.812355
2298.572587	-3.017900	3.111000	-9.387600	28.024199	0.000229	20.813948
2299.574534	-2.971800	3.111700	-9.245400	28.051273	0.000229	20.800898
2300.576428	-3.018700	3.107600	-9.380100	28.083050	0.000230	20.807282
2301.573255	-3.015000	3.108200	-9.370100	28.072639	0.000227	20.804388
2302.573803	-2.996900	3.107900	-9.313400	28.053696	0.000226	20.801440
2303.577687	-2.991200	3.107400	-9.294100	27.984652	0.000226	20.811125
2304.596378	-3.022100	3.105700	-9.384600	27.940417	0.000226	20.816387
2305.594616	-2.987100	3.105500	-9.275400	27.899576	0.000226	20.808472
2306.587658	-2.999100	3.105000	-9.310800	27.931463	0.000226	20.817332
2307.574029	-2.988400	3.104500	-9.276400	27.938108	0.000225	20.810269
2308.577925	-2.993700	3.103700	-9.289900	27.968081	0.000225	20.806299
2309.572734	-3.044200	3.099900	-9.434400	27.991163	0.000224	20.797765
2310.575053	-2.995200	3.101300	-9.288300	28.020541	0.000224	20.827335
2311.573839	-2.999700	3.100100	-9.297700	28.046990	0.000222	20.839260
2312.574839	-3.003800	3.099000	-9.307400	28.064791	0.000223	20.797436
2313.576128	-3.012800	3.098700	-9.334700	28.074159	0.000225	20.802125
2314.602964	-3.006900	3.097900	-9.314100	28.112434	0.000223	20.786128
2315.596349	-3.002600	3.097000	-9.299400	28.118905	0.000223	20.814453
2316.574055	-2.998200	3.096000	-9.281300	28.102620	0.000220	20.795214
2317.573996	-3.010200	3.094400	-9.313700	28.139429	0.000220	20.800027
2318.591090	-3.005900	3.094600	-9.299700	28.139429	0.000224	20.798604
2319.576723	-3.013500	3.094400	-9.323900	28.145327	0.000220	20.798852
2320.573645	-3.017800	3.092200	-9.329600	28.137988	0.000221	20.805689
2321.594095	-2.999200	3.092000	-9.272000	28.097704	0.000220	20.804489
2322.593939	-2.985300	3.091600	-9.227800	28.056623	0.000220	20.823827
2323.591853	-3.001400	3.090100	-9.273800	28.040087	0.000220	20.812872
2324.601350	-3.020600	3.089900	-9.332700	28.048545	0.000219	20.796255
2325.590225	-2.966500	3.090300	-9.166300	28.098664	0.000221	20.806404
2326.593530	-2.985900	3.087900	-9.219500	28.162846	0.000221	20.803212
2327.598037	-3.003300	3.086600	-9.268600	28.164136	0.000219	20.809727
2328.591780	-3.007300	3.084300	-9.274300	28.147673	0.000218	20.828714
2329.604355	-2.997500	3.085300	-9.247300	28.117132	0.000220	20.807452
2330.576277	-2.990900	3.083300	-9.220100	28.102678	0.000219	20.807126
2331.574704	-2.964500	3.085100	-9.144500	28.120823	0.000219	20.786512
2332.575717	-2.980400	3.082300	-9.184600	28.168221	0.000219	20.801985
2333.575919	-3.003600	3.081300	-9.253700	28.193256	0.000218	20.784516
2334.595060	-3.019100	3.080100	-9.298200	28.247146	0.000217	20.811270
2335.595294	-2.996500	3.078300	-9.222300	28.234307	0.000217	20.790283
2336.601922	-3.017800	3.077700	-9.287000	28.295723	0.000218	20.791901
2337.599243	-2.977900	3.078000	-9.163000	28.284621	0.000218	20.810594
2338.596673	-2.998400	3.075800	-9.221100	28.280709	0.000216	20.793379
2339.596466	-2.995700	3.077100	-9.217200	28.224836	0.000216	20.804929
2340.598874	-2.998900	3.074300	-9.217300	28.206173	0.000217	20.797519
2341.602246	-3.009100	3.073000	-9.245600	28.205329	0.000216	20.799515
2342.599309	-2.987400	3.072800	-9.178700	28.189640	0.000216	20.790358
2343.604645	-2.990300	3.071400	-9.184000	28.191080	0.000216	20.790385
2344.579358	-3.007500	3.070300	-9.232900	28.183052	0.000216	20.779932
2345.579834	-2.959800	3.069800	-9.084600	28.194300	0.000215	20.785092
2346.581943	-2.959700	3.072000	-9.090500	28.160491	0.000216	20.788039
2347.579086	-2.975800	3.070400	-9.133300	28.185232	0.000215	20.794455
2348.582703	-2.967200	3.068700	-9.104100	28.166343	0.000216	20.776861
2349.583620	-2.987900	3.066800	-9.162500	28.186718	0.000214	20.791684
2350.579680	-2.990200	3.065100	-9.164200	28.175418	0.000218	20.784575
2351.582097	-3.004000	3.063800	-9.202400	28.160670	0.000213	20.783952
2352.584582	-2.988200	3.063900	-9.154500	28.131715	0.000215	20.786571
2353.604297	-3.020700	3.060800	-9.244000	28.132383	0.000213	20.786295
2354.599799	-2.971600	3.061400	-9.095300	28.187860	0.000213	20.787618
2355.602918	-2.990500	3.060300	-9.150300	28.194306	0.000211	20.791737
2356.602308	-2.965000	3.059500	-9.070700	28.206773	0.000212	20.767304
2357.603833	-3.009500	3.057600	-9.201100	28.197677	0.000212	20.786595
2358.583856	-2.994800	3.057000	-9.153500	28.167288	0.000211	20.784451
2359.583458	-3.007800	3.055900	-9.190600	28.202636	0.000213	20.782579
2360.587820	-2.999200	3.054000	-9.159000	28.215820	0.000214	20.777834
2361.585798	-3.007000	3.053000	-9.179400	28.193041	0.000213	20.803739
2362.588815	-3.005300	3.052100	-9.171200	28.237659	0.000214	20.789391
2363.584578	-2.994500	3.051100	-9.135300	28.252406	0.000212	20.766780
2364.609541	-3.011000	3.050600	-9.184900	28.291842	0.000211	20.791786
2365.586190	-3.024300	3.049000	-9.220400	28.293030	0.000214	20.778284
2366.586779	-2.994500	3.048800	-9.128000	28.250870	0.000210	20.776613
2367.586177	-3.008400	3.048400	-9.170300	28.191182	0.000211	20.768676
2368.590185	-2.995000	3.045900	-9.120200	28.133398	0.000209	20.797275
2369.586802	-3.011000	3.044600	-9.165500	28.068349	0.000211	20.783475
2370.587460	-2.992600	3.044800	-9.110200	28.030962	0.000210	20.780927
2371.586817	-3.010500	3.041500	-9.154800	28.046085	0.000211	20.775761
2372.604233	-2.996000	3.041500	-9.110300	28.075784	0.000210	20.766777
2373.604178	-2.983400	3.041600	-9.073000	28.091454	0.000209	20.783974
2374.586090	-3.013200	3.038900	-9.156100	28.069938	0.000208	20.777013
2375.592521	-3.012000	3.038600	-9.151100	28.092892	0.000210	20.774041
2376.600809	-3.000800	3.037200	-9.113400	28.132752	0.000211	20.776235
2377.585842	-3.006600	3.037300	-9.130700	28.180894	0.000207	20.775863
2378.588073	-3.013000	3.033800	-9.139800	28.210959	0.000209	20.760138
2379.586823	-3.010700	3.032700	-9.129400	28.219437	0.000207	20.778157
2380.586572	-3.019300	3.032600	-9.155200	28.225658	0.000208	20.761186
2381.586953	-2.999700	3.031300	-9.091600	28.185108	0.000208	20.756398
2382.586690	-3.005700	3.030100	-9.106600	28.211181	0.000204	20.763206
2383.586524	-3.016400	3.028300	-9.133400	28.187414	0.000208	20.748761
2384.612591	-3.004200	3.027900	-9.095000	28.158333	0.000205	20.767849
2385.610391	-3.009400	3.027800	-9.111300	28.132727	0.000207	20.755347
2386.605802	-3.013000	3.025200	-9.114000	28.096484	0.000206	20.757743
2387.603041	-2.984400	3.024800	-9.026100	28.068346	0.000204	20.772566
2388.610181	-3.003500	3.023000	-9.078600	28.080695	0.000206	20.757969
2389.608380	-2.985800	3.022800	-9.024500	28.084019	0.000206	20.767954
2390.607847	-3.007500	3.021100	-9.086000	28.080027	0.000202	20.752081
2391.592059	-3.009600	3.020700	-9.090500	28.009593	0.000205	20.751355
2392.602819	-2.995800	3.019400	-9.044300	28.007582	0.000206	20.757867
2393.610937	-3.006400	3.018900	-9.074700	28.002453	0.000205	20.751281
2394.612598	-2.976400	3.016500	-8.976100	28.009100	0.000206	20.741376
2395.616883	-2.999900	3.014800	-9.043200	28.013438	0.000204	20.745269
2396.610069	-3.005600	3.015100	-9.059600	28.048224	0.000204	20.754681
2397.608234	-3.002300	3.013300	-9.045900	28.109630	0.000204	20.760544
2398.616873	-2.970300	3.012300	-8.946400	28.135710	0.000201	20.747444
2399.608211	-2.985500	3.010500	-8.986700	28.144933	0.000206	20.745349
2400.609717	-2.993800	3.009100	-9.008000	28.096891	0.000203	20.764790
2401.607677	-2.995800	3.007500	-9.009700	28.077804	0.000203	20.762646
2402.614902	-2.990900	3.007500	-8.994600	28.141784	0.000205	20.744076
2403.593742	-3.009500	3.004000	-9.039300	28.157625	0.000204	20.759075
2404.595009	-3.009400	3.004700	-9.040000	28.173417	0.000203	20.748895
2405.596785	-3.040700	3.001700	-9.125300	28.171733	0.000204	20.759054
2406.611915	-3.004700	3.002100	-9.018800	28.155618	0.000206	20.758952
2407.623617	-3.004300	3.000000	-9.011700	28.135714	0.000205	20.773527
2408.623522	-3.007600	2.997700	-9.014600	28.140251	0.000203	20.733049
2409.596570	-2.998200	2.998100	-8.988400	28.120694	0.000205	20.738017
2410.598062	-2.968100	2.997900	-8.896900	28.149597	0.000203	20.742932
2411.597918	-3.023100	2.993400	-9.047200	28.201082	0.000201	20.747348
2412.595679	-3.010600	2.993300	-9.011500	28.217889	0.000204	20.751941
2413.596710	-3.006600	2.993600	-8.999200	28.269644	0.000204	20.728183
2414.596215	-2.983100	2.993100	-8.927800	28.318223	0.000205	20.745328
2415.596428	-2.995200	2.990600	-8.956200	28.359537	0.000203	20.728604
2416.598607	-2.990500	2.987900	-8.933900	28.349946	0.000201	20.745027
2417.601256	-2.987700	2.987500	-8.924200	28.362214	0.000203	20.700953
2418.600598	-3.016600	2.985600	-9.005300	28.383084	0.000204	20.753265
2419.601696	-3.002400	2.985000	-8.960200	28.354704	0.000201	20.728480
2420.600706	-2.990600	2.984000	-8.923100	28.339165	0.000202	20.741757
2421.602724	-2.982900	2.981700	-8.892000	28.340725	0.000202	20.746648
2422.603232	-3.019300	2.978900	-8.993400	28.369573	0.000201	20.730650
2423.602061	-2.993800	2.977800	-8.913700	28.403501	0.000201	20.717872
2424.602359	-3.013600	2.976900	-8.969500	28.401446	0.000204	20.736665
2425.607575	-3.009400	2.977300	-8.958900	28.392351	0.000201	20.712808
2426.602644	-3.019700	2.974500	-8.981400	28.338023	0.000202	20.737762
2427.603143	-3.022600	2.973300	-8.986000	28.276582	0.000200	20.737539
2428.603299	-2.989700	2.972100	-8.883700	28.253179	0.000202	20.741004
2429.603409	-3.004900	2.970200	-8.924300	28.307241	0.000201	20.737115
2430.601668	-3.006700	2.968100	-8.922800	28.331602	0.000203	20.726556
2431.601628	-3.016300	2.967400	-8.949100	28.307536	0.000202	20.729825
2432.605216	-3.028400	2.965000	-8.978900	28.313458	0.000202	20.709708
2433.602864	-2.997000	2.963800	-8.881300	28.327810	0.000200	20.745024
2434.602791	-2.994100	2.962600	-8.869100	28.322926	0.000202	20.742002
2435.601213	-3.032800	2.960300	-8.976700	28.301436	0.000202	20.736486
2436.606205	-2.986300	2.961000	-8.840600	28.328897	0.000200	20.757024
2437.602599	-3.000300	2.958700	-8.876100	28.358687	0.000200	20.730120
2438.606587	-2.997200	2.957100	-8.861600	28.374476	0.000202	20.729897
2439.622517	-3.002700	2.956400	-8.876400	28.358564	0.000200	20.727625
2440.626725	-3.018700	2.953000	-8.913100	28.335416	0.000200	20.739879
2441.618608	-2.996200	2.951700	-8.842400	28.312760	0.000201	20.741723
2442.604116	-2.984200	2.951500	-8.806300	28.252677	0.000199	20.715841
2443.615711	-3.008500	2.947900	-8.867900	28.241448	0.000200	20.739625
2444.604172	-2.998000	2.948200	-8.837700	28.218298	0.000201	20.744766
2445.606942	-3.009800	2.945400	-8.863300	28.245336	0.000200	20.724572
2446.606992	-3.032500	2.944400	-8.927000	28.258301	0.000200	20.736203
2447.607153	-3.004600	2.943600	-8.842700	28.271761	0.000200	20.722254
2448.610405	-3.000500	2.941000	-8.822800	28.274387	0.000200	20.743865
2449.610660	-3.025300	2.941000	-8.895900	28.300559	0.000201	20.737973
2450.608207	-3.003100	2.938100	-8.822300	28.332162	0.000201	20.753673
2451.609118	-2.990500	2.936300	-8.780000	28.329435	0.000199	20.741444
2452.625216	-2.991000	2.936200	-8.781200	28.312233	0.000199	20.749254
2453.609836	-2.990000	2.935300	-8.775800	28.260582	0.000198	20.747035
2454.612634	-2.984700	2.933800	-8.755300	28.256488	0.000199	20.734852
2455.611989	-2.989900	2.931200	-8.762600	28.251483	0.000199	20.750202
2456.615252	-3.006000	2.927100	-8.797600	28.245287	0.000202	20.733532
2457.610929	-3.010700	2.926900	-8.811400	28.283085	0.000199	20.738872
2458.631633	-2.976100	2.926200	-8.707500	28.236585	0.000198	20.722399
2459.636238	-2.983800	2.923700	-8.723200	28.225728	0.000199	20.737074
2460.630598	-2.977500	2.922100	-8.699800	28.227141	0.000200	20.725220
2461.636956	-2.991900	2.920300	-8.735900	28.258547	0.000200	20.722226
2462.632197	-3.014600	2.917800	-8.794200	28.278650	0.000200	20.732509
2463.634153	-3.005600	2.917100	-8.766000	28.300189	0.000200	20.746610
2464.636220	-3.025100	2.914800	-8.816900	28.322667	0.000200	20.739371
2465.636114	-3.002700	2.914300	-8.749800	28.370231	0.000199	20.740796
2466.632311	-3.008900	2.913300	-8.764100	28.466363	0.000198	20.733758
2467.637580	-2.984100	2.911000	-8.685700	28.523830	0.000200	20.740421
2468.637853	-3.020900	2.908200	-8.782500	28.550642	0.000199	20.723800
2469.636311	-3.002200	2.907200	-8.727400	28.611824	0.000200	20.724253
2470.636088	-2.998800	2.905300	-8.710400	28.608206	0.000199	20.738627
2471.634401	-2.993400	2.904100	-8.692400	28.590568	0.000200	20.734614
2472.637696	-3.001400	2.901400	-8.706700	28.605128	0.000199	20.739321
2473.628367	-3.016100	2.898200	-8.739300	28.577084	0.000203	20.737155
2474.619551	-3.005500	2.899400	-8.712300	28.568957	0.000201	20.740350
2475.621895	-3.018000	2.896200	-8.738200	28.520017	0.000201	20.738952
2476.620972	-3.009100	2.894600	-8.709600	28.455213	0.000198	20.749558
2477.620551	-2.980300	2.894500	-8.625200	28.423743	0.000201	20.742049
2478.635493	-3.026400	2.890600	-8.746200	28.442673	0.000196	20.735506
2479.641490	-2.992200	2.889600	-8.644900	28.422801	0.000200	20.746316
2480.643150	-2.982600	2.887900	-8.611700	28.386814	0.000199	20.732838
2481.638514	-3.022800	2.884300	-8.717000	28.373703	0.000199	20.750931
2482.646033	-3.003600	2.885200	-8.664800	28.355760	0.000201	20.765106
2483.639665	-3.011800	2.883000	-8.681700	28.403000	0.000199	20.740127
2484.641120	-3.007200	2.880500	-8.661600	28.443839	0.000198	20.753751
2485.648046	-2.995400	2.879400	-8.623100	28.478559	0.000197	20.765007
2486.649947	-3.005700	2.876500	-8.645100	28.471718	0.000199	20.766178
2487.641370	-3.001200	2.874300	-8.626100	28.463615	0.000201	20.752328
2488.627803	-3.004300	2.873600	-8.632900	28.463741	0.000198	20.742972
2489.627524	-2.996900	2.870500	-8.601500	28.470010	0.000199	20.741698
2490.625511	-3.008500	2.868700	-8.628800	28.509807	0.000198	20.757594
2491.629833	-3.029600	2.864200	-8.676200	28.503840	0.000200	20.753956
2492.647181	-3.001000	2.865900	-8.600100	28.519722	0.000198	20.754303
2493.649121	-2.995100	2.863600	-8.575600	28.527329	0.000198	20.750109
2494.641603	-2.988600	2.860400	-8.547800	28.513401	0.000199	20.752679
2495.651481	-3.012600	2.858600	-8.610600	28.488601	0.000197	20.760895
2496.647627	-2.984700	2.857700	-8.528600	28.492466	0.000198	20.739182
2497.630533	-3.010800	2.854500	-8.592600	28.547008	0.000198	20.738633
2498.627751	-2.973800	2.853300	-8.484200	28.567376	0.000197	20.746818
2499.630677	-3.009500	2.849500	-8.574800	28.599639	0.000198	20.756079
2500.628014	-3.000500	2.850200	-8.551600	28.598673	0.000199	20.757950
2501.648915	-3.035300	2.845500	-8.635800	28.627665	0.000198	20.764865
2502.636009	-3.002700	2.845000	-8.541700	28.623702	0.000198	20.742380
2503.631778	-2.990300	2.841800	-8.496700	28.651923	0.000197	20.750416
2504.628649	-3.043700	2.840400	-8.644300	28.704522	0.000198	20.745548
2505.628690	-3.017300	2.837800	-8.560300	28.734031	0.000199	20.743502
2506.629193	-3.002000	2.836300	-8.513600	28.774660	0.000198	20.776843
2507.632873	-3.011900	2.832400	-8.529300	28.792797	0.000198	20.770455
2508.629683	-2.984800	2.830900	-8.448700	28.805305	0.000199	20.756029
2509.633361	-3.006000	2.830200	-8.505900	28.802583	0.000199	20.758502
2510.633365	-3.011200	2.826400	-8.510000	28.816778	0.000198	20.765215
2511.632007	-2.985900	2.826600	-8.438900	28.802857	0.000200	20.759252
2512.633435	-2.989100	2.823200	-8.438300	28.767203	0.000202	20.780710
2513.634994	-3.027600	2.821100	-8.540000	28.748971	0.000200	20.750965
2514.633837	-2.985800	2.817800	-8.411600	28.776620	0.000201	20.755109
2515.634322	-3.013500	2.816200	-8.485200	28.764803	0.000201	20.762646
2516.662097	-3.017000	2.811900	-8.482200	28.767009	0.000199	20.758229
2517.651587	-2.999100	2.810600	-8.428300	28.759281	0.000198	20.765618
2518.638205	-2.987600	2.809500	-8.392500	28.718770	0.000200	20.782660
2519.634152	-2.993100	2.805900	-8.396700	28.755463	0.000200	20.754185
2520.639341	-2.987300	2.804400	-8.376800	28.775703	0.000199	20.768410
2521.634341	-2.979500	2.801100	-8.345500	28.808951	0.000198	20.772978
2522.634626	-3.012100	2.799200	-8.430900	28.850246	0.000200	20.763368
2523.638294	-3.008100	2.796000	-8.409700	28.865658	0.000198	20.764670
2524.638805	-3.000200	2.793400	-8.380200	28.916714	0.000200	20.762051
2525.635865	-3.006900	2.792900	-8.396800	28.919408	0.000199	20.772826
2526.635880	-3.020900	2.790100	-8.428000	28.941480	0.000199	20.760448
2527.649802	-3.004800	2.786200	-8.370700	28.960087	0.000199	20.767815
2528.656022	-2.990100	2.785000	-8.325900	28.947622	0.000197	20.780388
2529.653925	-2.960400	2.782800	-8.237100	28.878089	0.000199	20.764390
2530.656000	-2.988500	2.778400	-8.302200	28.842269	0.000199	20.763393
2531.639924	-3.006100	2.775300	-8.341500	28.861317	0.000201	20.764090
2532.637814	-3.015900	2.771700	-8.357100	28.863821	0.000200	20.777518
2533.655952	-3.028400	2.768700	-8.384500	28.843235	0.000198	20.791867
2534.660054	-2.991300	2.766600	-8.275000	28.797999	0.000198	20.777119
2535.655676	-3.024200	2.763200	-8.355000	28.781001	0.000200	20.765212
2536.638630	-3.036800	2.760300	-8.380500	28.788782	0.000199	20.780636
2537.639451	-3.008000	2.757800	-8.293800	28.804189	0.000199	20.775767
2538.638518	-2.993300	2.756500	-8.250300	28.845363	0.000196	20.792115
2539.638196	-2.987900	2.752300	-8.222000	28.820983	0.000199	20.793159
2540.641523	-3.010700	2.749100	-8.275500	28.814418	0.000198	20.783227
2541.639026	-2.987100	2.748100	-8.207400	28.783376	0.000198	20.782777
2542.637883	-3.013600	2.742300	-8.263400	28.795291	0.000199	20.799047
2543.638340	-3.000700	2.740800	-8.223400	28.817140	0.000200	20.764158
2544.639917	-2.984700	2.736400	-8.166100	28.861905	0.000197	20.778432
2545.661069	-3.009300	2.733700	-8.226500	28.827074	0.000198	20.795028
2546.656672	-2.982800	2.732500	-8.149300	28.819768	0.000199	20.788616
2547.662558	-2.975400	2.729000	-8.118500	28.774876	0.000199	20.787491
2548.658159	-3.050200	2.723000	-8.303800	28.748094	0.000198	20.783273
2549.642257	-2.992100	2.721900	-8.143700	28.759194	0.000197	20.798248
2550.646834	-2.995600	2.717900	-8.141100	28.798955	0.000198	20.797997
2551.659887	-2.984800	2.714100	-8.099800	28.806859	0.000198	20.811174
2552.644399	-3.001300	2.711000	-8.135700	28.864799	0.000198	20.807427
2553.645185	-3.003900	2.706300	-8.128600	28.883977	0.000198	20.797349
2554.646261	-2.984000	2.705500	-8.072500	28.955315	0.000196	20.778181
2555.645822	-3.010000	2.699000	-8.122800	28.996014	0.000198	20.795951
2556.647388	-2.959100	2.696700	-7.978400	29.015478	0.000196	20.780475
2557.646708	-3.004800	2.693000	-8.090700	28.993584	0.000197	20.796822
2558.648686	-3.034600	2.688700	-8.157900	29.005693	0.000200	20.792902
2559.646038	-3.015300	2.683800	-8.091900	29.039481	0.000198	20.793754
2560.674681	-3.008800	2.682000	-8.069200	29.089778	0.000197	20.798440
2561.670658	-3.008900	2.677400	-8.055000	29.146790	0.000199	20.794247
2562.668885	-2.999300	2.673200	-8.016200	29.172793	0.000198	20.792000
2563.649526	-2.971300	2.670400	-7.933100	29.189043	0.000196	20.801737
2564.649058	-3.019000	2.665400	-8.045000	29.246246	0.000197	20.786837
2565.649837	-2.988700	2.662100	-7.955600	29.213784	0.000199	20.801065
2566.673634	-3.002300	2.658200	-7.979400	29.202291	0.000198	20.798493
2567.674743	-2.965600	2.654400	-7.869700	29.229609	0.000198	20.829814
2568.670359	-3.010100	2.649700	-7.974200	29.217102	0.000199	20.793977
2569.673601	-3.030100	2.643800	-8.009800	29.176539	0.000197	20.802413
2570.671361	-3.006500	2.640500	-7.937300	29.141469	0.000199	20.821128
2571.652918	-3.012400	2.636900	-7.942700	29.148528	0.000199	20.805007
2572.672790	-2.981300	2.632400	-7.846600	29.215986	0.000198	20.808973
2573.655085	-2.997200	2.628600	-7.877700	29.234413	0.000198	20.802887
2574.654708	-2.994500	2.623000	-7.854000	29.216810	0.000197	20.812175
2575.654435	-2.982100	2.618300	-7.806800	29.212674	0.000197	20.810377
2576.653862	-2.975600	2.613100	-7.774100	29.192561	0.000199	20.808602
2577.668426	-3.033900	2.607900	-7.909900	29.208537	0.000198	20.816166
2578.657929	-2.984700	2.603000	-7.768000	29.238847	0.000197	20.806882
2579.654174	-2.989600	2.598400	-7.766800	29.296395	0.000198	20.799444
2580.679000	-2.984700	2.593100	-7.738600	29.312268	0.000198	20.803587
2581.670808	-3.019100	2.586500	-7.807100	29.329479	0.000199	20.827096
2582.675607	-3.012200	2.582200	-7.776200	29.307612	0.000197	20.826396
2583.671568	-3.034600	2.575600	-7.814600	29.295657	0.000198	20.816244
2584.675378	-2.986400	2.570400	-7.675600	29.280156	0.000197	20.814846
2585.670926	-2.967500	2.566100	-7.613600	29.268565	0.000198	20.823554
2586.679639	-3.011900	2.557400	-7.701300	29.265890	0.000199	20.809479
2587.673053	-2.991000	2.555200	-7.641800	29.305734	0.000196	20.836356
2588.674231	-2.990300	2.548500	-7.618400	29.279359	0.000198	20.815466
2589.675828	-2.996000	2.544500	-7.622500	29.231196	0.000198	20.811499
2590.679477	-3.009400	2.536500	-7.631100	29.195809	0.000200	20.828469
2591.656444	-3.020700	2.530400	-7.640900	29.216884	0.000200	20.822680
2592.656924	-3.002600	2.525500	-7.582200	29.250142	0.000199	20.824902
2593.656880	-3.002800	2.519400	-7.563400	29.239044	0.000201	20.820356
2594.661389	-3.025400	2.511100	-7.595800	29.256360	0.000200	20.813625
2595.675798	-3.060400	2.505600	-7.666500	29.249352	0.000199	20.823158
2596.656081	-2.979500	2.500800	-7.450500	29.258461	0.000199	20.830914
2597.656973	-2.963100	2.495100	-7.392000	29.300365	0.000202	20.837109
