LabVIEW Measurement	
Writer_Version	2
Reader_Version	2
Separator	Tab
Decimal_Separator	.
Multi_Headings	No
X_Columns	One
Time_Pref	Absolute
Operator	admin
Description	Clolumns are: time, Current, Voltage, Power, Battery Temp, and Chamber Temp
Date	2024/08/16
Time	13:06:06.104549407958984375
***End_of_Header***	
	
Channels	6						
Samples	1	1	1	1	1	1	
Date	2024/08/26	2024/08/26	2024/08/26	2024/08/26	2024/08/26	2024/08/26	
Time	08:20:37.45336151123046875	08:20:37.4605798721313476563	08:20:37.4666590690612792969	08:20:37.4370913505554199219	08:20:37.4370913505554199219	08:20:37.4370913505554199219	
X_Dimension	Time	Time	Time	Time	Time	Time	
X0	0.0000000000000000E+0	0.0000000000000000E+0	0.0000000000000000E+0	0.0000000000000000E+0	0.0000000000000000E+0	0.0000000000000000E+0	
Delta_X	1.000000	1.000000	1.000000	1.000000	1.000000	1.000000	
***End_of_Header***							
X_Value	Untitled	Untitled 1	Untitled 2	Untitled 3	Untitled 4	Untitled 5	Comment
0.000000	-0.000779	4.107800	-0.003278	20.976104	0.000965	20.828656
1.000407	-2.997000	3.949000	-11.834000	20.981543	0.000963	20.825561
2.000675	-2.999500	3.941500	-11.820000	20.993969	0.000964	20.824713
2.998006	-2.990000	3.937200	-11.770000	20.979822	0.000965	20.839012
4.003181	-2.996900	3.932600	-11.784000	20.973409	0.000963	20.817900
4.998922	-3.013400	3.927800	-11.835000	20.961133	0.000962	20.834545
5.998650	-2.995800	3.927300	-11.765000	20.976953	0.000962	20.802952
7.000001	-3.008400	3.923800	-11.803000	20.981918	0.000960	20.820720
8.000673	-3.001300	3.921300	-11.768000	20.981095	0.000958	20.819897
9.000277	-2.990500	3.920500	-11.723000	20.981743	0.000960	20.808218
10.001682	-3.016600	3.916400	-11.813000	20.981419	0.000957	20.813109
11.001755	-2.995100	3.915600	-11.727000	20.992348	0.000957	20.827358
12.001206	-2.988500	3.915500	-11.700000	21.010961	0.000957	20.818474
13.001121	-2.995600	3.913500	-11.722000	21.010487	0.000958	20.824638
14.000598	-2.997200	3.911000	-11.721000	20.991549	0.000955	20.803801
15.000656	-3.007900	3.909500	-11.758000	21.019744	0.000954	20.832948
16.004802	-3.003200	3.909200	-11.740000	21.010337	0.000955	20.812635
17.001157	-2.989100	3.909400	-11.684000	21.038980	0.000953	20.827058
18.002991	-2.986500	3.907400	-11.669000	21.015377	0.000954	20.799184
19.002028	-3.004800	3.905200	-11.734000	21.019819	0.000951	20.813109
20.001335	-2.997000	3.905900	-11.705000	21.028077	0.000952	20.815205
21.001781	-2.991700	3.903600	-11.678000	21.021216	0.000950	20.806920
22.004256	-2.994800	3.902900	-11.687000	21.016101	0.000951	20.824563
23.001961	-2.968000	3.903700	-11.585000	21.029699	0.000948	20.804499
24.002734	-2.998600	3.901300	-11.697000	21.029125	0.000948	20.792071
25.002731	-2.995400	3.901200	-11.685000	21.065702	0.000950	20.800207
26.001740	-3.000400	3.900300	-11.702000	21.051904	0.000948	20.812485
27.001860	-2.997700	3.899600	-11.689000	21.049334	0.000949	20.815130
28.005262	-3.008100	3.896800	-11.721000	21.057019	0.000948	20.806695
29.002685	-3.003400	3.898800	-11.708000	21.067972	0.000947	20.819547
30.002965	-2.987300	3.897600	-11.641000	21.068795	0.000945	20.819422
31.004326	-3.026400	3.895000	-11.787000	21.063082	0.000946	20.815604
32.001382	-3.006700	3.895100	-11.710000	21.073860	0.000945	20.816901
33.004218	-3.018400	3.894900	-11.755000	21.081819	0.000945	20.812534
34.004812	-3.008500	3.893600	-11.713000	21.083964	0.000942	20.814680
35.003710	-3.013500	3.893600	-11.732000	21.086134	0.000945	20.798359
36.003870	-3.006400	3.893800	-11.706000	21.117745	0.000942	20.807693
37.006632	-2.968100	3.894700	-11.559000	21.106069	0.000945	20.805022
38.005686	-3.005400	3.891700	-11.695000	21.129096	0.000943	20.780167
39.005332	-2.998000	3.892000	-11.666000	21.105545	0.000944	20.795489
40.006565	-2.987900	3.892300	-11.628000	21.135757	0.000942	20.810537
41.006571	-2.999100	3.891400	-11.670000	21.140946	0.000941	20.804348
42.006870	-3.009600	3.890700	-11.710000	21.131715	0.000939	20.808865
43.006942	-2.990900	3.890100	-11.634000	21.135283	0.000943	20.798683
44.007054	-3.001100	3.890600	-11.674000	21.162426	0.000941	20.794540
45.007664	-2.987100	3.890700	-11.621000	21.151948	0.000940	20.792120
46.007801	-3.005800	3.888200	-11.686000	21.155590	0.000941	20.810936
47.008696	-3.013200	3.889200	-11.718000	21.179041	0.000940	20.790298
48.008727	-3.013400	3.887200	-11.712000	21.161827	0.000940	20.790622
49.009647	-2.980500	3.888100	-11.588000	21.186151	0.000940	20.806419
50.008564	-2.979100	3.888900	-11.585000	21.176521	0.000939	20.810062
51.010203	-3.020100	3.886100	-11.735000	21.172754	0.000937	20.808665
52.011872	-2.998200	3.887100	-11.653000	21.183755	0.000939	20.795962
53.008372	-3.009100	3.885600	-11.691000	21.176645	0.000938	20.789324
54.009737	-3.008800	3.886700	-11.693000	21.197875	0.000941	20.802500
55.010070	-3.003700	3.885100	-11.669000	21.194158	0.000938	20.809213
56.010944	-3.012000	3.886200	-11.704000	21.214914	0.000936	20.802001
57.009912	-3.043200	3.883400	-11.816000	21.215637	0.000938	20.792768
58.012989	-3.007400	3.883500	-11.678000	21.202291	0.000936	20.796012
59.013093	-3.000300	3.883700	-11.651000	21.207180	0.000937	20.767238
60.013838	-2.991900	3.884500	-11.620000	21.228684	0.000936	20.791595
61.013041	-3.004600	3.883700	-11.668000	21.219529	0.000936	20.791445
62.014275	-3.000900	3.881700	-11.647000	21.237889	0.000938	20.796536
63.014650	-2.994900	3.882700	-11.627000	21.234496	0.000937	20.794090
64.015291	-2.978000	3.883100	-11.562000	21.249738	0.000937	20.800329
65.014191	-3.006400	3.882600	-11.671000	21.264406	0.000937	20.779441
66.015361	-2.984000	3.881400	-11.581000	21.258794	0.000935	20.777620
67.013708	-3.007800	3.881100	-11.673000	21.257995	0.000936	20.804322
68.016013	-3.000400	3.881900	-11.645000	21.287730	0.000936	20.782386
69.015886	-2.993800	3.881400	-11.619000	21.288528	0.000935	20.807841
70.015265	-3.014900	3.882100	-11.703000	21.282816	0.000936	20.789798
71.016306	-2.999500	3.880400	-11.638000	21.293742	0.000935	20.790297
72.016891	-3.017500	3.880900	-11.710000	21.310729	0.000935	20.801128
73.018937	-3.014000	3.879600	-11.693000	21.298107	0.000935	20.775698
74.016901	-3.001900	3.880500	-11.647000	21.299753	0.000934	20.788725
75.017420	-2.970700	3.880100	-11.525000	21.317439	0.000935	20.775124
76.018294	-3.008100	3.879000	-11.667000	21.324922	0.000932	20.794465
77.017741	-2.979700	3.880500	-11.561000	21.318761	0.000934	20.778343
78.017760	-3.004200	3.877800	-11.648000	21.324673	0.000932	20.792318
79.019192	-3.015800	3.878900	-11.697000	21.309357	0.000933	20.784108
80.019099	-3.020800	3.877300	-11.711000	21.338741	0.000932	20.789324
81.018620	-2.981200	3.880300	-11.566000	21.333278	0.000934	20.790022
82.019915	-3.010800	3.877700	-11.674000	21.337843	0.000933	20.784158
83.020200	-3.009600	3.876900	-11.667000	21.329337	0.000934	20.772329
84.021994	-2.986700	3.878700	-11.583000	21.383614	0.000934	20.771156
85.022663	-3.001700	3.877800	-11.639000	21.375608	0.000932	20.767412
86.020585	-3.000600	3.875900	-11.629000	21.397707	0.000932	20.751116
87.023055	-2.992600	3.877000	-11.602000	21.377827	0.000934	20.783384
88.024934	-2.994900	3.876700	-11.609000	21.418982	0.000931	20.810336
89.023227	-2.976400	3.877800	-11.541000	21.421277	0.000933	20.793192
90.022563	-3.022200	3.875300	-11.710000	21.409704	0.000931	20.790147
91.023622	-3.010500	3.875100	-11.665000	21.395337	0.000931	20.781937
92.025129	-2.993300	3.874100	-11.595000	21.406911	0.000932	20.792094
93.023343	-3.030200	3.874400	-11.739000	21.433424	0.000932	20.775473
94.022643	-3.012100	3.875500	-11.672000	21.414194	0.000933	20.760974
95.023910	-3.006600	3.875100	-11.650000	21.463154	0.000931	20.786728
96.025054	-3.020200	3.873700	-11.699000	21.440158	0.000932	20.777470
97.026598	-3.005400	3.873200	-11.638000	21.445845	0.000931	20.795488
98.025544	-3.009000	3.874100	-11.657000	21.464227	0.000932	20.778318
99.025451	-3.004100	3.873300	-11.634000	21.497548	0.000932	20.778942
100.026243	-3.009300	3.874200	-11.658000	21.475326	0.000933	20.775199
101.025006	-3.003900	3.873100	-11.634000	21.482708	0.000931	20.793966
102.026244	-3.018000	3.872100	-11.685000	21.499768	0.000932	20.793018
103.027261	-3.004900	3.872200	-11.633000	21.499693	0.000932	20.781089
104.026588	-3.003700	3.873100	-11.632000	21.495677	0.000932	20.783235
105.028294	-2.988100	3.872700	-11.571000	21.510267	0.000935	20.776971
106.026510	-3.002700	3.872000	-11.625000	21.490939	0.000935	20.791770
107.027830	-3.005600	3.872200	-11.638000	21.510118	0.000931	20.788676
108.033967	-2.989400	3.873200	-11.578000	21.533661	0.000933	20.770508
109.030038	-2.999800	3.872600	-11.615000	21.530868	0.000933	20.788102
110.029692	-2.974600	3.873100	-11.520000	21.541692	0.000933	20.780914
111.032232	-2.983500	3.872200	-11.552000	21.564237	0.000932	20.789724
112.031012	-3.014100	3.869400	-11.661000	21.552316	0.000931	20.774476
113.031427	-2.986600	3.871700	-11.562000	21.543886	0.000934	20.780266
114.032321	-2.965900	3.871800	-11.482000	21.577729	0.000934	20.780939
115.031289	-3.001800	3.869200	-11.613000	21.587280	0.000932	20.785756
116.032506	-2.999600	3.870100	-11.606000	21.580647	0.000933	20.792868
117.036706	-2.971000	3.871600	-11.501000	21.616857	0.000933	20.778369
118.031726	-3.004100	3.869200	-11.622000	21.598876	0.000934	20.767962
119.030883	-3.010200	3.868100	-11.642000	21.615710	0.000934	20.779592
120.031684	-3.000300	3.869800	-11.609000	21.630198	0.000933	20.770383
121.033794	-2.992600	3.869500	-11.577000	21.618578	0.000934	20.791945
122.033499	-3.013500	3.868400	-11.656000	21.641869	0.000936	20.803400
123.033606	-3.011000	3.868400	-11.647000	21.631645	0.000932	20.773728
124.045806	-3.023400	3.867000	-11.690000	21.618553	0.000934	20.765367
125.033062	-3.015200	3.868400	-11.664000	21.619850	0.000936	20.781838
126.036373	-2.993200	3.868200	-11.577000	21.630473	0.000935	20.780616
127.035542	-2.979200	3.869700	-11.527000	21.634039	0.000936	20.798409
128.035611	-3.002700	3.868200	-11.614000	21.628852	0.000935	20.778045
129.036246	-2.996600	3.868500	-11.592000	21.637780	0.000932	20.788402
130.037066	-3.005800	3.868800	-11.628000	21.634364	0.000936	20.784983
131.038818	-3.003200	3.867800	-11.614000	21.654912	0.000936	20.792744
132.037682	-2.999700	3.868000	-11.602000	21.652493	0.000936	20.765668
133.037155	-2.985000	3.867700	-11.544000	21.658852	0.000937	20.770135
134.036231	-2.978300	3.867400	-11.517000	21.651246	0.000936	20.775800
135.042214	-3.003600	3.865600	-11.609000	21.679200	0.000937	20.763946
136.037239	-2.982900	3.867200	-11.534000	21.705857	0.000938	20.768812
137.039688	-3.001800	3.868000	-11.607000	21.708301	0.000936	20.791647
138.041117	-2.994200	3.866300	-11.576000	21.698876	0.000937	20.785059
139.040986	-2.990000	3.866100	-11.558000	21.707279	0.000938	20.780667
140.040828	-2.981100	3.867600	-11.529000	21.722490	0.000935	20.770759
141.040778	-2.992800	3.866500	-11.570000	21.748622	0.000938	20.760877
142.039914	-2.982900	3.866000	-11.531000	21.737227	0.000938	20.798311
143.041132	-2.979200	3.864800	-11.513000	21.745954	0.000936	20.790450
144.043136	-2.994500	3.864900	-11.573000	21.751066	0.000937	20.780867
145.043741	-2.989300	3.865400	-11.554000	21.762910	0.000940	20.787505
146.043378	-2.988000	3.864000	-11.544000	21.760741	0.000938	20.795765
147.041259	-2.992300	3.864500	-11.563000	21.760616	0.000937	20.770036
148.043813	-2.987000	3.863500	-11.540000	21.759320	0.000940	20.769213
149.045130	-2.988900	3.865100	-11.552000	21.761489	0.000939	20.787031
150.043741	-2.979200	3.863900	-11.509000	21.779766	0.000938	20.765494
151.044839	-2.996500	3.863000	-11.574000	21.764332	0.000939	20.797463
152.047336	-2.999400	3.864400	-11.590000	21.785251	0.000941	20.788054
153.048456	-3.006800	3.864400	-11.619000	21.795824	0.000940	20.786782
154.046713	-2.992400	3.862600	-11.558000	21.800013	0.000942	20.779595
155.047792	-2.997800	3.862000	-11.577000	21.776051	0.000940	20.792122
156.048258	-2.987400	3.863100	-11.540000	21.784105	0.000943	20.801605
157.047338	-2.985600	3.864300	-11.536000	21.766676	0.000941	20.801231
158.048922	-2.975500	3.863200	-11.493000	21.771563	0.000941	20.806122
159.048098	-2.985500	3.862900	-11.531000	21.800162	0.000943	20.788753
160.048203	-3.004700	3.860900	-11.600000	21.805298	0.000942	20.774454
161.052691	-3.006500	3.862000	-11.610000	21.806695	0.000944	20.798137
162.050138	-3.019500	3.861000	-11.657000	21.817217	0.000942	20.779744
163.050079	-3.005600	3.862200	-11.608000	21.814948	0.000944	20.778422
164.056694	-3.003200	3.861700	-11.596000	21.838534	0.000944	20.785908
165.052495	-3.003800	3.861600	-11.599000	21.838011	0.000943	20.800557
166.050535	-3.019600	3.859200	-11.653000	21.840878	0.000946	20.778771
167.055015	-3.007100	3.862200	-11.612000	21.837711	0.000944	20.807370
168.056827	-3.016000	3.860000	-11.641000	21.878351	0.000947	20.804899
169.051229	-3.016200	3.859900	-11.641000	21.872667	0.000947	20.784985
170.056519	-3.011500	3.858700	-11.619000	21.914303	0.000943	20.795840
171.050969	-3.012300	3.859600	-11.624000	21.885332	0.000945	20.795291
172.052244	-2.991300	3.860200	-11.546000	21.904480	0.000946	20.807819
173.053726	-2.989400	3.862200	-11.543000	21.908194	0.000945	20.800632
174.055379	-3.007000	3.858000	-11.600000	21.927566	0.000947	20.792047
175.052811	-2.999500	3.857800	-11.570000	21.948807	0.000946	20.791024
176.056648	-2.997700	3.858300	-11.564000	21.948158	0.000948	20.805073
177.055971	-3.014900	3.858200	-11.632000	21.945416	0.000947	20.793793
178.051585	-2.999300	3.857800	-11.568000	21.946737	0.000947	20.814556
179.056313	-2.988700	3.859200	-11.533000	21.944818	0.000946	20.797462
180.054304	-3.003900	3.857400	-11.586000	21.957607	0.000947	20.794143
181.053319	-2.984100	3.858100	-11.512000	21.934546	0.000948	20.813258
182.057449	-2.987200	3.858700	-11.526000	21.955239	0.000949	20.817850
183.056222	-2.988600	3.857100	-11.526000	21.942374	0.000950	20.801180
184.053540	-2.987700	3.857400	-11.523000	21.956909	0.000949	20.792495
185.055583	-3.005900	3.856300	-11.590000	21.974509	0.000947	20.791622
186.056202	-3.005600	3.855100	-11.585000	21.971742	0.000948	20.809714
187.052005	-3.000100	3.856700	-11.569000	21.964512	0.000949	20.809590
188.058123	-2.981500	3.856900	-11.499000	21.983135	0.000949	20.810213
189.056760	-3.019700	3.856400	-11.644000	22.000312	0.000949	20.804649
190.052957	-2.995900	3.855600	-11.550000	22.004175	0.000949	20.811361
191.058296	-2.992600	3.856300	-11.539000	22.027783	0.000952	20.811286
192.059968	-2.979100	3.857400	-11.489000	22.029902	0.000953	20.819097
193.054708	-3.013100	3.853500	-11.609000	22.049172	0.000952	20.809939
194.059041	-2.994600	3.855100	-11.543000	22.066272	0.000951	20.824687
195.059223	-2.993200	3.855900	-11.539000	22.056750	0.000953	20.826534
196.055785	-2.995900	3.854200	-11.546000	22.086140	0.000953	20.802852
197.056760	-2.993900	3.854600	-11.539000	22.083946	0.000952	20.818673
198.054168	-3.011600	3.853700	-11.604000	22.103689	0.000952	20.802402
199.055333	-3.028000	3.852300	-11.663000	22.073975	0.000953	20.809640
200.056788	-2.981100	3.854700	-11.490000	22.093369	0.000954	20.833796
201.055876	-3.014000	3.853400	-11.613000	22.100025	0.000953	20.824812
202.055124	-3.024500	3.853800	-11.654000	22.119941	0.000956	20.825311
203.057005	-2.998000	3.852800	-11.550000	22.112688	0.000956	20.827058
204.055122	-3.018500	3.852000	-11.624000	22.136218	0.000957	20.834969
205.055532	-3.000300	3.853900	-11.561000	22.142425	0.000957	20.818424
206.057974	-2.999000	3.853200	-11.555000	22.133826	0.000959	20.834470
207.057040	-3.012200	3.852100	-11.603000	22.145616	0.000957	20.836791
208.057226	-2.993700	3.852900	-11.534000	22.146314	0.000959	20.823266
209.061152	-2.992200	3.853600	-11.530000	22.138611	0.000958	20.820296
210.058766	-2.984400	3.853400	-11.499000	22.172960	0.000960	20.830028
211.059307	-3.005400	3.852000	-11.576000	22.182855	0.000961	20.810538
212.061487	-3.023300	3.850900	-11.641000	22.174779	0.000961	20.857927
213.061083	-3.020100	3.852200	-11.633000	22.188837	0.000960	20.820795
214.058949	-2.993900	3.851700	-11.528000	22.199754	0.000960	20.826984
215.061346	-3.004300	3.852800	-11.574000	22.212840	0.000962	20.837714
216.059133	-3.007200	3.850800	-11.579000	22.175926	0.000962	20.833472
217.060926	-3.004200	3.849900	-11.564000	22.203119	0.000962	20.808068
218.064089	-2.995100	3.850300	-11.530000	22.208627	0.000963	20.837764
219.060479	-3.002100	3.850000	-11.557000	22.207207	0.000962	20.821643
220.059910	-3.004600	3.850300	-11.568000	22.213961	0.000964	20.834570
221.063225	-3.025500	3.848400	-11.641000	22.218996	0.000963	20.843878
222.059680	-3.001800	3.850300	-11.557000	22.232480	0.000963	20.833671
223.060372	-2.984000	3.850600	-11.490000	22.234374	0.000964	20.855956
224.059943	-3.007900	3.849000	-11.577000	22.247061	0.000967	20.830727
225.060102	-2.996900	3.851400	-11.541000	22.246936	0.000965	20.832498
226.062439	-3.005300	3.848600	-11.565000	22.252668	0.000965	20.833496
227.061755	-2.985800	3.848300	-11.489000	22.245565	0.000967	20.839660
228.064167	-3.009300	3.847100	-11.576000	22.246985	0.000966	20.817375
229.062302	-2.985300	3.848800	-11.489000	22.231956	0.000968	20.827457
230.060910	-2.978200	3.848300	-11.459000	22.237365	0.000968	20.827657
231.064285	-2.982400	3.847500	-11.474000	22.238337	0.000969	20.846173
232.065626	-3.000300	3.847800	-11.543000	22.233526	0.000970	20.825236
233.061286	-2.990900	3.846500	-11.504000	22.239309	0.000970	20.822017
234.065291	-2.998900	3.848200	-11.539000	22.238835	0.000969	20.828655
235.061495	-3.002000	3.847000	-11.547000	22.264133	0.000970	20.834544
236.061608	-3.022700	3.846400	-11.625000	22.264232	0.000972	20.852187
237.065117	-3.027200	3.847000	-11.644000	22.279386	0.000972	20.841756
238.064445	-3.028600	3.845900	-11.647000	22.285342	0.000971	20.851039
239.061493	-3.004600	3.846600	-11.556000	22.307648	0.000974	20.847295
240.066045	-3.018800	3.845700	-11.609000	22.307897	0.000975	20.860346
241.063586	-3.001900	3.845400	-11.542000	22.320956	0.000974	20.837388
242.062434	-3.010700	3.844000	-11.572000	22.342240	0.000974	20.834044
243.066327	-3.002700	3.844500	-11.543000	22.352109	0.000973	20.843452
244.062434	-2.976400	3.846600	-11.449000	22.347698	0.000974	20.856104
245.063207	-3.001000	3.845100	-11.538000	22.348619	0.000975	20.865087
246.069156	-2.994700	3.845000	-11.513000	22.366513	0.000974	20.854082
247.067259	-3.003400	3.844000	-11.543000	22.374936	0.000974	20.845922
248.064323	-2.997700	3.845500	-11.527000	22.389365	0.000976	20.863689
249.069483	-2.991500	3.843600	-11.498000	22.381042	0.000977	20.849665
250.067092	-3.012600	3.844200	-11.579000	22.370351	0.000975	20.844175
251.068440	-2.997200	3.843500	-11.518000	22.361753	0.000976	20.859272
252.071026	-3.007500	3.843900	-11.559000	22.371821	0.000976	20.852285
253.072078	-2.977200	3.845100	-11.447000	22.384181	0.000977	20.847594
254.066093	-3.010400	3.842400	-11.565000	22.400779	0.000980	20.845248
255.069910	-2.998500	3.843200	-11.524000	22.404118	0.000979	20.862816
256.067590	-2.989900	3.844300	-11.493000	22.420889	0.000979	20.874868
257.066782	-3.000000	3.841800	-11.524000	22.426297	0.000979	20.854206
258.076028	-3.004000	3.843400	-11.543000	22.439504	0.000982	20.864587
259.067585	-3.013700	3.842100	-11.578000	22.473569	0.000982	20.867881
260.067395	-3.001200	3.841800	-11.529000	22.464523	0.000980	20.884899
261.070363	-3.018200	3.841100	-11.592000	22.470579	0.000982	20.866783
262.067070	-3.018100	3.840200	-11.588000	22.464398	0.000982	20.875766
263.066246	-3.003600	3.841800	-11.539000	22.449846	0.000984	20.859771
264.068578	-3.005300	3.840800	-11.542000	22.489168	0.000983	20.871174
265.069648	-3.000400	3.842100	-11.526000	22.449472	0.000984	20.881680
266.066946	-2.995900	3.841200	-11.507000	22.467837	0.000985	20.865460
267.073273	-3.001900	3.839800	-11.526000	22.468310	0.000985	20.862141
268.067362	-2.988600	3.839900	-11.475000	22.458193	0.000985	20.856751
269.068300	-3.014300	3.839500	-11.571000	22.486601	0.000985	20.859121
270.071545	-3.014800	3.839800	-11.575000	22.502050	0.000986	20.886920
271.069874	-2.996500	3.839500	-11.504000	22.486127	0.000987	20.881405
272.071418	-3.005700	3.839900	-11.541000	22.491310	0.000988	20.907456
273.075283	-2.985800	3.838600	-11.460000	22.507781	0.000988	20.874168
274.068651	-2.986800	3.838700	-11.465000	22.528563	0.000988	20.886446
275.068239	-2.993500	3.839300	-11.492000	22.501203	0.000989	20.904562
276.073923	-2.989500	3.840800	-11.481000	22.512964	0.000988	20.866557
277.070577	-2.981100	3.839400	-11.444000	22.505140	0.000989	20.879109
278.070619	-2.985800	3.839400	-11.463000	22.528164	0.000991	20.900744
279.076048	-3.006600	3.836900	-11.535000	22.523031	0.000991	20.869527
280.077547	-3.010600	3.839200	-11.557000	22.548023	0.000993	20.872272
281.073536	-2.988500	3.838500	-11.470000	22.534667	0.000990	20.879758
282.079622	-2.986800	3.838300	-11.463000	22.528413	0.000993	20.869701
283.078140	-2.978600	3.838100	-11.430000	22.530531	0.000993	20.887942
284.076091	-2.992200	3.838300	-11.484000	22.553928	0.000992	20.881504
285.077581	-2.982500	3.837500	-11.445000	22.571146	0.000994	20.869352
286.078554	-3.001000	3.837200	-11.514000	22.558139	0.000996	20.909901
287.076716	-2.975900	3.837400	-11.418000	22.560282	0.000993	20.901617
288.076917	-3.028600	3.836400	-11.618000	22.585124	0.000997	20.892359
289.075475	-3.007000	3.835900	-11.533000	22.591926	0.000995	20.896801
290.075559	-2.994000	3.836600	-11.485000	22.599052	0.000994	20.899670
291.080805	-2.986900	3.836100	-11.457000	22.596835	0.000996	20.901242
292.083867	-3.008400	3.834600	-11.535000	22.599003	0.000998	20.894879
293.079232	-2.990300	3.835300	-11.468000	22.602939	0.000997	20.902141
294.080808	-3.023100	3.833600	-11.588000	22.584726	0.000998	20.881529
295.081776	-3.005100	3.833600	-11.519000	22.576154	0.000998	20.903763
296.082472	-2.985100	3.833200	-11.442000	22.597333	0.000998	20.903164
297.081119	-2.999600	3.832300	-11.495000	22.630471	0.001000	20.927817
298.077254	-3.001400	3.832500	-11.501000	22.631543	0.000999	20.916090
299.080287	-2.998400	3.832700	-11.491000	22.636650	0.000998	20.892284
300.085587	-2.977500	3.834700	-11.417000	22.659597	0.001000	20.913844
301.089851	-3.001600	3.832600	-11.502000	22.671058	0.000998	20.915840
302.086099	-3.007300	3.833500	-11.527000	22.691014	0.001001	20.894580
303.084990	-2.994800	3.832400	-11.477000	22.671158	0.001003	20.905984
304.089622	-2.998100	3.833100	-11.491000	22.688847	0.001003	20.920856
305.086082	-3.008300	3.832300	-11.528000	22.689395	0.001002	20.921879
306.083941	-2.993300	3.833200	-11.473000	22.678757	0.001002	20.910276
307.085560	-3.001600	3.830900	-11.498000	22.730129	0.001002	20.907206
308.091438	-2.986500	3.831200	-11.441000	22.722456	0.001004	20.916115
309.087514	-2.997300	3.832600	-11.486000	22.731424	0.001003	20.941691
310.085289	-2.993400	3.832300	-11.471000	22.740219	0.001005	20.909727
311.087006	-3.007500	3.830400	-11.518000	22.726541	0.001003	20.921629
312.091946	-3.005000	3.830100	-11.509000	22.720836	0.001005	20.905959
313.086329	-3.010000	3.830600	-11.529000	22.721982	0.001007	20.940294
314.086545	-2.987400	3.830800	-11.443000	22.726591	0.001007	20.919783
315.089754	-3.011400	3.830700	-11.533000	22.753149	0.001006	20.917462
316.087920	-3.032200	3.829800	-11.611000	22.748963	0.001010	20.929864
317.087912	-3.001400	3.830200	-11.494000	22.733642	0.001008	20.909303
318.094079	-3.012800	3.828900	-11.535000	22.722879	0.001009	20.939770
319.092461	-2.990400	3.829900	-11.450000	22.736108	0.001009	20.925522
320.091498	-3.001500	3.828000	-11.489000	22.758704	0.001011	20.956213
321.092535	-3.016100	3.829200	-11.548000	22.776567	0.001011	20.934755
322.090527	-3.006300	3.827900	-11.507000	22.785585	0.001010	20.930987
323.089184	-2.999600	3.829600	-11.486000	22.771933	0.001012	20.934854
324.093355	-3.015400	3.827900	-11.541000	22.791962	0.001012	20.935952
325.091898	-2.990200	3.828300	-11.447000	22.767524	0.001012	20.932808
326.091938	-2.997000	3.826900	-11.468000	22.769865	0.001014	20.951273
327.092963	-2.998000	3.829400	-11.480000	22.793407	0.001012	20.943563
328.091136	-2.998900	3.827800	-11.478000	22.810447	0.001015	20.932185
329.090279	-3.017500	3.826900	-11.547000	22.818319	0.001016	20.942440
330.091525	-2.984700	3.827500	-11.423000	22.814134	0.001015	20.949152
331.090968	-2.993400	3.826600	-11.454000	22.834462	0.001014	20.942490
332.090846	-2.981500	3.826900	-11.409000	22.828458	0.001018	20.930313
333.096540	-3.020600	3.825400	-11.553000	22.821757	0.001017	20.934031
334.094038	-2.981600	3.827200	-11.411000	22.853145	0.001016	20.934655
335.090535	-3.025500	3.824700	-11.571000	22.839867	0.001017	20.927519
336.094649	-3.008300	3.826100	-11.509000	22.850778	0.001017	20.937500
337.093202	-3.008300	3.823900	-11.502000	22.868315	0.001019	20.920932
338.091071	-3.001900	3.824100	-11.479000	22.875789	0.001019	20.939322
339.095663	-3.008100	3.823600	-11.500000	22.883262	0.001019	20.941592
340.093503	-2.999400	3.824600	-11.470000	22.873148	0.001019	20.947581
341.090842	-2.987100	3.825100	-11.425000	22.873372	0.001019	20.919360
342.098498	-2.997300	3.823900	-11.461000	22.870707	0.001021	20.923801
343.096006	-3.008200	3.823300	-11.500000	22.908869	0.001022	20.953495
344.093945	-3.030800	3.823200	-11.586000	22.903663	0.001020	20.927894
345.096751	-3.000000	3.823100	-11.468000	22.879600	0.001023	20.921806
346.101946	-3.017000	3.821100	-11.528000	22.891806	0.001022	20.916491
347.095662	-3.014000	3.821000	-11.515000	22.908147	0.001023	20.932860
348.098372	-2.983100	3.823600	-11.406000	22.879899	0.001026	20.910727
349.100402	-2.999400	3.821800	-11.460000	22.871679	0.001024	20.916715
350.101127	-3.007800	3.821200	-11.492000	22.871355	0.001024	20.908805
351.098921	-3.000600	3.821600	-11.466000	22.897884	0.001025	20.906934
352.099865	-2.986800	3.823000	-11.417000	22.887273	0.001025	20.912898
353.096229	-2.984400	3.822000	-11.405000	22.888818	0.001026	20.925824
354.097740	-2.998900	3.821900	-11.460000	22.890835	0.001025	20.903191
355.097256	-3.006600	3.819300	-11.482000	22.885480	0.001026	20.912524
356.095885	-2.993300	3.821400	-11.436000	22.887149	0.001027	20.916092
357.098861	-3.002000	3.820500	-11.468000	22.882142	0.001028	20.907758
358.099621	-2.995000	3.820000	-11.438000	22.905084	0.001029	20.915568
359.096163	-3.009800	3.819100	-11.494000	22.932434	0.001029	20.926847
360.099367	-2.994700	3.820100	-11.440000	22.909991	0.001026	20.908631
361.100035	-2.996200	3.820200	-11.446000	22.910863	0.001028	20.910927
362.098152	-2.988600	3.820200	-11.416000	22.912856	0.001029	20.923828
363.102499	-3.018100	3.818700	-11.524000	22.927477	0.001029	20.912400
364.100922	-3.003200	3.819700	-11.470000	22.938437	0.001030	20.904889
365.098550	-2.992800	3.820400	-11.432000	22.940829	0.001033	20.907758
366.105732	-2.990700	3.818800	-11.420000	22.954777	0.001032	20.915569
367.102797	-2.988500	3.819400	-11.414000	22.946458	0.001032	20.915768
368.104667	-3.000800	3.818600	-11.457000	22.971765	0.001031	20.909355
369.102571	-3.004600	3.816900	-11.466000	22.978340	0.001033	20.928744
370.100112	-2.991200	3.817700	-11.419000	23.001704	0.001034	20.896679
371.098621	-2.995100	3.817400	-11.432000	23.013136	0.001034	20.878264
372.104523	-2.974900	3.818300	-11.358000	23.006859	0.001033	20.903267
373.100207	-3.000000	3.817000	-11.449000	23.028678	0.001036	20.886723
374.100235	-3.010800	3.816400	-11.490000	23.023472	0.001033	20.905213
375.101490	-2.985100	3.816200	-11.391000	23.046561	0.001036	20.899898
376.102983	-2.996100	3.815100	-11.429000	23.056598	0.001037	20.902369
377.100295	-3.007300	3.816900	-11.478000	23.065788	0.001034	20.905887
378.105230	-3.009300	3.815100	-11.480000	23.062625	0.001037	20.897977
379.105615	-3.004000	3.815400	-11.459000	23.062053	0.001037	20.890766
380.103318	-2.975200	3.816800	-11.354000	23.042601	0.001038	20.894035
381.107526	-3.000000	3.815000	-11.444000	23.055054	0.001038	20.892288
382.105579	-3.005000	3.815000	-11.461000	23.043273	0.001037	20.895657
383.103469	-3.000200	3.813700	-11.440000	23.051019	0.001038	20.901047
384.106491	-2.979600	3.814700	-11.365000	23.024917	0.001039	20.889593
385.106112	-2.971700	3.814000	-11.333000	23.030272	0.001038	20.903018
386.104815	-3.016800	3.812000	-11.498000	23.005441	0.001040	20.879562
387.111681	-2.995700	3.813900	-11.424000	22.996300	0.001038	20.916393
388.106874	-2.997600	3.812800	-11.429000	23.022801	0.001040	20.890791
389.106946	-2.988300	3.813500	-11.395000	23.009974	0.001039	20.894060
390.109756	-3.001300	3.814300	-11.447000	23.020883	0.001041	20.890292
391.111729	-2.986000	3.812900	-11.384000	23.044793	0.001040	20.871577
392.107745	-2.998700	3.813100	-11.433000	23.048754	0.001039	20.885501
393.111225	-3.019300	3.812200	-11.509000	23.076947	0.001043	20.878664
394.112443	-3.000500	3.810500	-11.433000	23.074706	0.001042	20.896805
395.107794	-2.999300	3.811600	-11.431000	23.084992	0.001043	20.870604
396.110934	-2.991600	3.811900	-11.402000	23.053561	0.001043	20.888895
397.111334	-2.993100	3.810800	-11.405000	23.090222	0.001044	20.894335
398.109869	-2.983800	3.811400	-11.371000	23.076673	0.001042	20.869856
399.112072	-3.007500	3.810100	-11.456000	23.097345	0.001043	20.885352
400.114145	-3.005400	3.810200	-11.450000	23.089774	0.001046	20.896257
401.112369	-3.017900	3.809600	-11.495000	23.092140	0.001043	20.893886
402.115512	-3.001100	3.809900	-11.433000	23.089575	0.001047	20.877093
403.117093	-2.995400	3.810500	-11.413000	23.088354	0.001045	20.893886
404.112126	-3.008600	3.808800	-11.459000	23.098018	0.001046	20.859001
405.116862	-2.996400	3.810300	-11.415000	23.101181	0.001044	20.880661
406.117808	-3.023200	3.806600	-11.507000	23.122499	0.001046	20.859825
407.113330	-3.011200	3.806400	-11.461000	23.144315	0.001046	20.891167
408.115846	-2.998300	3.808400	-11.417000	23.140953	0.001047	20.878790
409.116716	-3.015400	3.807000	-11.478000	23.151239	0.001047	20.881510
410.115798	-3.019000	3.806800	-11.492000	23.127904	0.001048	20.870455
411.115978	-3.003000	3.806800	-11.431000	23.121877	0.001047	20.883381
412.116714	-3.018700	3.806000	-11.488000	23.146432	0.001048	20.877168
413.114271	-3.013200	3.808200	-11.473000	23.141925	0.001050	20.862695
414.117432	-2.992700	3.807700	-11.393000	23.147927	0.001049	20.865864
415.119420	-3.004200	3.807400	-11.438000	23.179007	0.001050	20.888472
416.115691	-3.003200	3.805900	-11.428000	23.184237	0.001050	20.884704
417.119995	-2.997500	3.805200	-11.405000	23.184436	0.001050	20.851715
418.122398	-3.004300	3.805800	-11.432000	23.210583	0.001051	20.864167
419.129056	-3.018800	3.805800	-11.488000	23.199776	0.001050	20.878940
420.120516	-3.003300	3.803800	-11.423000	23.187299	0.001052	20.874498
421.119586	-3.012900	3.805000	-11.464000	23.182867	0.001051	20.875272
422.117075	-3.006700	3.803800	-11.435000	23.185108	0.001050	20.863294
423.120528	-2.999500	3.804700	-11.412000	23.192056	0.001051	20.851291
424.120027	-2.971100	3.803400	-11.299000	23.196613	0.001051	20.867711
425.117440	-3.006600	3.804000	-11.437000	23.211181	0.001052	20.859077
426.120171	-3.016100	3.803200	-11.471000	23.230630	0.001052	20.865765
427.120383	-3.011700	3.802000	-11.450000	23.259915	0.001053	20.855758
428.123029	-3.010200	3.802900	-11.447000	23.250427	0.001052	20.857630
429.119302	-2.999700	3.802100	-11.404000	23.246667	0.001055	20.882309
430.124059	-3.003700	3.801800	-11.419000	23.255532	0.001052	20.862271
431.117683	-2.985300	3.803100	-11.352000	23.256503	0.001053	20.849969
432.120243	-3.022000	3.800000	-11.482000	23.235959	0.001056	20.875372
433.119613	-2.996900	3.801100	-11.389000	23.284244	0.001055	20.860225
434.119611	-3.009200	3.800100	-11.434000	23.246667	0.001056	20.868086
435.122528	-3.000400	3.802100	-11.407000	23.282077	0.001055	20.831977
436.122377	-3.003200	3.800100	-11.410000	23.284443	0.001055	20.869907
437.118466	-3.002100	3.801500	-11.411000	23.303716	0.001056	20.873101
438.120710	-3.004500	3.800300	-11.415000	23.312655	0.001057	20.851716
439.121126	-2.998100	3.800700	-11.394000	23.302172	0.001057	20.853538
440.119246	-2.982400	3.799800	-11.332000	23.319204	0.001057	20.846426
441.122378	-2.989900	3.799700	-11.360000	23.329612	0.001058	20.860175
442.120779	-2.980800	3.800600	-11.328000	23.335339	0.001059	20.849794
443.119338	-3.014900	3.797800	-11.449000	23.332102	0.001058	20.865516
444.122423	-3.008700	3.797800	-11.424000	23.333472	0.001058	20.858828
445.123501	-2.988600	3.798800	-11.351000	23.354064	0.001059	20.835845
446.118213	-3.001700	3.797500	-11.397000	23.345847	0.001057	20.863170
447.123440	-2.993200	3.798700	-11.368000	23.341291	0.001060	20.837268
448.123314	-2.994900	3.797600	-11.373000	23.332576	0.001059	20.838965
449.118765	-3.017200	3.796400	-11.453000	23.323936	0.001061	20.862073
450.123490	-2.981900	3.797800	-11.324000	23.313428	0.001061	20.841111
451.122404	-3.002500	3.797200	-11.400000	23.299160	0.001060	20.858105
452.119622	-3.000800	3.796300	-11.391000	23.284867	0.001060	20.863695
453.122790	-2.998300	3.797000	-11.382000	23.299658	0.001063	20.857182
454.126296	-3.017400	3.794500	-11.449000	23.297143	0.001062	20.848497
455.120772	-3.000800	3.795200	-11.388000	23.320898	0.001060	20.859977
456.123896	-3.016300	3.795600	-11.448000	23.336983	0.001061	20.835796
457.123978	-2.989900	3.795200	-11.345000	23.300779	0.001061	20.836020
458.123567	-3.016400	3.793000	-11.440000	23.310440	0.001061	20.871306
459.124366	-3.013800	3.794600	-11.434000	23.293433	0.001063	20.845727
460.122666	-3.003000	3.793400	-11.391000	23.287108	0.001062	20.847924
461.123073	-3.005700	3.794000	-11.402000	23.312308	0.001064	20.851842
462.125958	-3.003000	3.792800	-11.390000	23.333149	0.001066	20.827686
463.121819	-2.987900	3.792700	-11.330000	23.348935	0.001063	20.861524
464.121677	-3.003400	3.792900	-11.391000	23.353916	0.001063	20.847550
465.125865	-3.013600	3.791500	-11.425000	23.373038	0.001064	20.864344
466.121666	-2.998800	3.792400	-11.372000	23.393480	0.001066	20.854013
467.121416	-3.003300	3.792200	-11.388000	23.409016	0.001066	20.826912
468.126872	-2.998000	3.792700	-11.369000	23.401871	0.001064	20.839190
469.124642	-3.000400	3.791300	-11.375000	23.404884	0.001067	20.837469
470.124875	-3.014700	3.790700	-11.427000	23.394899	0.001067	20.857332
471.126142	-2.982600	3.791900	-11.309000	23.394103	0.001067	20.827137
472.124408	-2.993400	3.791400	-11.348000	23.406850	0.001066	20.845603
473.124578	-3.027100	3.789600	-11.471000	23.409390	0.001064	20.849572
474.125520	-3.007100	3.789800	-11.395000	23.409116	0.001065	20.818478
475.125866	-2.999400	3.790600	-11.368000	23.447783	0.001066	20.861026
476.126163	-3.007000	3.789500	-11.394000	23.451567	0.001068	20.853914
477.128743	-3.029100	3.789300	-11.476000	23.460480	0.001070	20.837244
478.125841	-2.974700	3.788900	-11.270000	23.444745	0.001067	20.845654
479.124410	-2.982700	3.789800	-11.302000	23.446264	0.001068	20.835797
480.125748	-3.001200	3.787900	-11.368000	23.428687	0.001067	20.817231
481.125449	-2.987600	3.788200	-11.317000	23.414370	0.001066	20.846977
482.148612	-2.988300	3.788000	-11.319000	23.406453	0.001066	20.840464
483.128189	-3.018100	3.785900	-11.425000	23.405706	0.001067	20.830707
484.128408	-3.013400	3.787200	-11.412000	23.407474	0.001068	20.843858
485.126894	-3.008100	3.785500	-11.386000	23.449177	0.001066	20.844881
486.128755	-3.019200	3.784700	-11.425000	23.441883	0.001068	20.834250
487.129097	-2.999000	3.785400	-11.351000	23.437103	0.001069	20.812864
488.127522	-3.002500	3.786200	-11.367000	23.426695	0.001069	20.828037
489.127142	-3.009600	3.784400	-11.389000	23.433393	0.001068	20.830008
490.132449	-2.995400	3.784600	-11.336000	23.447161	0.001068	20.845705
491.127326	-2.993300	3.785100	-11.326000	23.465386	0.001066	20.825092
492.129862	-2.973300	3.785600	-11.254000	23.460083	0.001069	20.814561
493.128561	-2.977800	3.784300	-11.267000	23.499370	0.001068	20.808897
494.130239	-2.996800	3.784800	-11.341000	23.499469	0.001069	20.805203
495.128317	-2.985000	3.785000	-11.297000	23.498698	0.001069	20.816758
496.130127	-2.983700	3.784400	-11.289000	23.496731	0.001070	20.810045
497.130109	-3.001100	3.784300	-11.355000	23.497279	0.001070	20.829560
498.129386	-3.015400	3.782700	-11.405000	23.496084	0.001071	20.808448
499.128999	-3.016200	3.783600	-11.412000	23.534349	0.001070	20.826890
500.139734	-3.007500	3.781600	-11.372000	23.516897	0.001071	20.820302
501.129503	-2.984400	3.783000	-11.289000	23.498300	0.001071	20.816833
502.135875	-3.013600	3.781400	-11.394000	23.515976	0.001072	20.827439
503.130705	-3.008800	3.781600	-11.376000	23.539452	0.001071	20.824419
504.130762	-3.004000	3.780400	-11.355000	23.527602	0.001073	20.812067
505.131139	-2.976600	3.781800	-11.256000	23.525038	0.001072	20.815660
506.133201	-2.991500	3.781800	-11.312000	23.542166	0.001073	20.838045
507.133039	-2.999000	3.781500	-11.339000	23.530739	0.001073	20.822798
508.135131	-3.014400	3.779800	-11.391000	23.529794	0.001071	20.819479
509.132667	-2.988500	3.781300	-11.300000	23.520607	0.001072	20.812167
510.133073	-3.006600	3.779600	-11.361000	23.536466	0.001071	20.806727
511.136260	-2.997900	3.779100	-11.329000	23.570895	0.001072	20.812791
512.133585	-2.991400	3.779800	-11.306000	23.590064	0.001074	20.804032
513.132967	-2.971400	3.779800	-11.230000	23.577443	0.001072	20.806078
514.140421	-3.000500	3.777800	-11.334000	23.585483	0.001072	20.815087
515.136421	-3.000800	3.777600	-11.334000	23.592255	0.001073	20.824720
516.132743	-2.999200	3.777900	-11.329000	23.565593	0.001074	20.810795
517.136379	-2.994100	3.778600	-11.312000	23.568431	0.001074	20.804631
518.133941	-2.994200	3.777800	-11.310000	23.577692	0.001073	20.797319
519.135410	-3.006900	3.777400	-11.357000	23.548191	0.001072	20.788610
520.137619	-3.013500	3.776900	-11.379000	23.558896	0.001073	20.810246
521.133201	-3.008700	3.777700	-11.365000	23.565344	0.001073	20.827614
522.137257	-3.011800	3.775000	-11.368000	23.565991	0.001073	20.797917
523.139019	-3.002500	3.776100	-11.336000	23.594644	0.001074	20.807201
524.136056	-2.979500	3.776800	-11.251000	23.595665	0.001075	20.809173
525.135326	-2.986800	3.777400	-11.281000	23.621678	0.001075	20.797793
526.139322	-2.975000	3.775300	-11.230000	23.615679	0.001075	20.804581
527.134874	-2.983400	3.776000	-11.263000	23.564646	0.001074	20.816484
528.136297	-2.994900	3.775000	-11.304000	23.559368	0.001074	20.816409
529.139374	-2.994400	3.775600	-11.304000	23.540822	0.001074	20.820102
530.136387	-3.024600	3.774000	-11.413000	23.528349	0.001073	20.805703
531.135495	-3.007000	3.773700	-11.347000	23.532606	0.001072	20.791004
532.139987	-2.987900	3.772800	-11.272000	23.556953	0.001072	20.796444
533.136845	-2.996800	3.773400	-11.307000	23.552696	0.001076	20.793600
534.137173	-2.972300	3.773400	-11.214000	23.531610	0.001075	20.823197
535.138757	-2.992500	3.772900	-11.289000	23.566637	0.001074	20.787660
536.143080	-2.990800	3.772700	-11.283000	23.601937	0.001075	20.785115
537.141167	-2.999800	3.771300	-11.312000	23.603580	0.001073	20.800986
538.139389	-3.008100	3.771300	-11.343000	23.624068	0.001075	20.800662
539.141184	-3.012400	3.770400	-11.357000	23.661830	0.001074	20.820501
540.140688	-3.013900	3.770000	-11.361000	23.660112	0.001075	20.791278
541.141708	-2.992900	3.769700	-11.280000	23.667854	0.001077	20.782918
542.140658	-2.997900	3.770800	-11.303000	23.677886	0.001076	20.788234
543.139071	-2.976100	3.770900	-11.221000	23.694712	0.001077	20.788034
544.144354	-3.003800	3.769700	-11.322000	23.642911	0.001077	20.801061
545.144746	-3.022100	3.768700	-11.388000	23.636937	0.001076	20.796494
546.144000	-2.981700	3.769700	-11.239000	23.644504	0.001075	20.796020
547.144802	-2.985400	3.770300	-11.255000	23.641193	0.001075	20.775156
548.147551	-2.990100	3.769300	-11.270000	23.668052	0.001078	20.795919
549.142091	-2.995300	3.767700	-11.285000	23.658518	0.001077	20.782094
550.145086	-2.990400	3.769200	-11.270000	23.665463	0.001077	20.779099
551.146322	-3.003900	3.768300	-11.318000	23.664393	0.001076	20.780871
552.142948	-3.019300	3.766600	-11.371000	23.670715	0.001077	20.799538
553.146493	-3.039100	3.765900	-11.444000	23.669744	0.001075	20.781969
554.148870	-3.002200	3.767500	-11.310000	23.660410	0.001078	20.784464
555.146358	-3.005700	3.765700	-11.317000	23.658742	0.001077	20.795120
556.145563	-3.003500	3.766400	-11.311000	23.677934	0.001078	20.793024
557.145293	-3.000900	3.766700	-11.302000	23.720050	0.001077	20.792574
558.145719	-3.028900	3.763700	-11.398000	23.703348	0.001077	20.819451
559.146572	-2.978800	3.766500	-11.218000	23.710666	0.001077	20.782692
560.145821	-2.992700	3.764100	-11.264000	23.753827	0.001077	20.797990
561.144952	-3.019500	3.764100	-11.365000	23.725277	0.001076	20.780271
562.148682	-3.002700	3.764500	-11.303000	23.736851	0.001078	20.781918
563.147380	-3.022000	3.765000	-11.376000	23.754772	0.001077	20.787084
564.146478	-3.016700	3.763200	-11.351000	23.763783	0.001078	20.794221
565.149201	-3.003000	3.762400	-11.297000	23.786208	0.001078	20.786834
566.150627	-3.003900	3.762500	-11.301000	23.732022	0.001079	20.787982
567.150692	-3.004600	3.762800	-11.305000	23.718009	0.001079	20.784364
568.151531	-3.007800	3.761700	-11.313000	23.688064	0.001076	20.772834
569.153434	-3.027700	3.761500	-11.387000	23.677759	0.001076	20.780047
570.151169	-3.019800	3.760500	-11.355000	23.699191	0.001076	20.783990
571.152995	-2.987800	3.761800	-11.238000	23.700461	0.001078	20.787633
572.155524	-3.003100	3.762200	-11.298000	23.717387	0.001078	20.786111
573.149595	-2.985500	3.762000	-11.231000	23.709397	0.001078	20.795170
574.154125	-3.011500	3.761400	-11.326000	23.728265	0.001081	20.788482
575.152510	-3.004700	3.760400	-11.299000	23.690704	0.001079	20.780696
576.155105	-2.979600	3.760300	-11.201000	23.723112	0.001080	20.798964
577.155709	-2.996800	3.759500	-11.265000	23.729011	0.001079	20.794447
578.154222	-3.003900	3.759100	-11.291000	23.751015	0.001080	20.808921
579.156544	-3.009000	3.758600	-11.308000	23.739267	0.001078	20.805677
580.155029	-3.009500	3.759500	-11.313000	23.731974	0.001078	20.786511
581.156937	-3.013100	3.757600	-11.320000	23.723760	0.001078	20.788233
582.152930	-2.994700	3.759400	-11.256000	23.740686	0.001077	20.810893
583.156963	-2.999700	3.758000	-11.272000	23.742080	0.001078	20.782419
584.156723	-2.988800	3.758700	-11.232000	23.731278	0.001079	20.774908
585.154686	-2.991900	3.757400	-11.240000	23.737251	0.001077	20.792751
586.156713	-2.989700	3.756900	-11.231000	23.763436	0.001077	20.799090
587.157166	-2.985500	3.756800	-11.214000	23.772298	0.001077	20.817931
588.155363	-3.002600	3.756700	-11.279000	23.809060	0.001078	20.794099
589.158823	-3.000900	3.756700	-11.273000	23.804331	0.001077	20.793151
590.162749	-3.004200	3.755600	-11.282000	23.808487	0.001079	20.791154
591.156810	-3.020900	3.755400	-11.344000	23.845198	0.001077	20.795722
592.163157	-3.000900	3.754200	-11.263000	23.847737	0.001077	20.809173
593.161057	-3.003900	3.755100	-11.279000	23.821082	0.001078	20.803309
594.160288	-3.004800	3.755300	-11.283000	23.832406	0.001079	20.799491
595.159868	-2.994400	3.754600	-11.241000	23.830615	0.001078	20.802910
596.164167	-3.000500	3.754200	-11.264000	23.819514	0.001080	20.797470
597.162720	-3.011100	3.754300	-11.303000	23.809086	0.001077	20.826368
598.166698	-3.040000	3.751600	-11.403000	23.849182	0.001078	20.816311
599.166807	-2.984000	3.754800	-11.203000	23.834548	0.001077	20.789310
600.166267	-3.000400	3.753100	-11.259000	23.824867	0.001078	20.786241
601.164216	-2.994300	3.753300	-11.237000	23.828799	0.001077	20.812943
602.166140	-3.009500	3.751900	-11.291000	23.837262	0.001079	20.788712
603.162376	-3.012800	3.750300	-11.297000	23.841766	0.001077	20.797970
604.166925	-2.974600	3.752400	-11.160000	23.860508	0.001079	20.800641
605.168149	-3.000800	3.751500	-11.256000	23.861752	0.001076	20.811846
606.161559	-2.997700	3.750700	-11.243000	23.870787	0.001077	20.790086
607.164950	-2.994700	3.749900	-11.228000	23.881588	0.001077	20.807554
608.166679	-2.974000	3.751000	-11.154000	23.877805	0.001076	20.806606
609.164060	-3.001100	3.749500	-11.251000	23.873226	0.001076	20.815765
610.164912	-2.997700	3.749700	-11.238000	23.859638	0.001076	20.813994
611.164821	-2.997700	3.749100	-11.238000	23.871211	0.001078	20.812321
612.170294	-3.009700	3.748500	-11.281000	23.898637	0.001076	20.803787
613.168748	-3.016500	3.748200	-11.306000	23.904436	0.001078	20.830938
614.168869	-2.998500	3.747800	-11.237000	23.907174	0.001079	20.804287
615.168560	-2.997000	3.747600	-11.230000	23.921932	0.001077	20.810076
616.172746	-2.992600	3.748800	-11.217000	23.933155	0.001078	20.818012
617.167799	-2.980200	3.748500	-11.170000	23.914391	0.001077	20.802041
618.170043	-2.988500	3.748900	-11.203000	23.917701	0.001076	20.819585
619.170222	-2.995500	3.747100	-11.224000	23.921360	0.001076	20.828469
620.170374	-2.995500	3.746600	-11.221000	23.929772	0.001077	20.802765
621.167583	-2.992900	3.748300	-11.218000	23.907573	0.001077	20.808480
622.171235	-3.006900	3.747100	-11.266000	23.903268	0.001078	20.805585
623.168512	-3.004700	3.745200	-11.251000	23.864021	0.001076	20.819336
624.171408	-3.012600	3.744400	-11.279000	23.850058	0.001076	20.800595
625.171681	-2.987000	3.745500	-11.187000	23.823602	0.001076	20.809629
626.170371	-2.993800	3.744800	-11.210000	23.849810	0.001076	20.826898
627.168303	-2.981000	3.745100	-11.163000	23.878381	0.001076	20.817615
628.172611	-3.005700	3.744500	-11.254000	23.892642	0.001077	20.805836
629.179714	-3.007300	3.744700	-11.260000	23.893065	0.001077	20.827123
630.171603	-2.984500	3.744400	-11.174000	23.881468	0.001076	20.822606
631.173011	-2.990900	3.743200	-11.194000	23.870592	0.001076	20.824503
632.170399	-3.012300	3.743300	-11.275000	23.883435	0.001075	20.807983
633.177600	-3.008300	3.742300	-11.257000	23.885326	0.001074	20.818415
634.171054	-2.994200	3.742100	-11.204000	23.887417	0.001075	20.828571
635.173069	-3.018100	3.740800	-11.289000	23.850110	0.001075	20.829570
636.171315	-3.007700	3.741900	-11.253000	23.823380	0.001075	20.826950
637.175710	-3.010500	3.741000	-11.261000	23.845506	0.001076	20.820212
638.170627	-3.002300	3.742000	-11.233000	23.857353	0.001077	20.814073
639.171164	-3.008200	3.741100	-11.252000	23.858175	0.001076	20.819639
640.174654	-2.996400	3.740600	-11.207000	23.848643	0.001076	20.792537
641.174818	-2.979600	3.740100	-11.143000	23.835004	0.001077	20.831493
642.176320	-2.981000	3.741900	-11.154000	23.827389	0.001076	20.821486
643.178006	-2.998600	3.740800	-11.216000	23.816089	0.001078	20.839079
644.174159	-3.019400	3.738400	-11.286000	23.867485	0.001075	20.837034
645.173033	-2.993200	3.738900	-11.190000	23.883487	0.001074	20.829373
646.175567	-2.984000	3.739000	-11.156000	23.869600	0.001078	20.839155
647.176368	-3.005200	3.738400	-11.234000	23.898893	0.001077	20.823484
648.173192	-3.011400	3.737800	-11.255000	23.922412	0.001077	20.828575
649.173666	-2.994200	3.737500	-11.190000	23.898246	0.001077	20.846542
650.178648	-3.000500	3.738000	-11.214000	23.930177	0.001077	20.833991
651.173510	-3.000400	3.737400	-11.213000	23.924602	0.001076	20.815125
652.177782	-3.016000	3.736700	-11.269000	23.908301	0.001077	20.822961
653.185445	-3.001700	3.736300	-11.215000	23.915121	0.001077	20.822213
654.175927	-2.988400	3.737500	-11.168000	23.939311	0.001075	20.813753
655.178022	-2.986100	3.737200	-11.159000	23.938838	0.001075	20.838409
656.179593	-2.991000	3.737900	-11.179000	23.956682	0.001075	20.845871
657.178707	-3.009400	3.736700	-11.244000	23.943169	0.001075	20.830898
658.177674	-3.023200	3.735000	-11.290000	23.934459	0.001075	20.831173
659.180537	-2.981000	3.737100	-11.140000	23.924056	0.001075	20.843974
660.178573	-3.021600	3.733800	-11.282000	23.931050	0.001074	20.832021
661.177771	-3.013400	3.734700	-11.253000	23.949267	0.001073	20.847444
662.176971	-3.003500	3.735000	-11.217000	23.956260	0.001076	20.848767
663.178056	-2.996700	3.735100	-11.192000	24.004562	0.001076	20.841255
664.178580	-2.981100	3.735100	-11.134000	23.980076	0.001078	20.836614
665.180839	-2.990200	3.733600	-11.163000	24.001228	0.001074	20.831274
666.181602	-3.000900	3.733300	-11.203000	24.028378	0.001074	20.838112
667.184515	-3.002600	3.732400	-11.205000	24.005808	0.001075	20.849143
668.180253	-3.006400	3.732700	-11.221000	23.975449	0.001074	20.849043
669.182712	-3.005700	3.732600	-11.218000	23.950513	0.001073	20.848220
670.187110	-3.012200	3.731400	-11.239000	23.974006	0.001073	20.850441
671.187135	-2.993400	3.731800	-11.170000	23.986498	0.001073	20.856804
672.188043	-3.018600	3.730400	-11.260000	23.965147	0.001073	20.856730
673.180133	-2.995100	3.731400	-11.175000	23.968880	0.001073	20.840085
674.183406	-3.024000	3.730100	-11.278000	23.995931	0.001073	20.835919
675.185270	-3.015200	3.730500	-11.247000	23.998892	0.001073	20.857854
676.183050	-3.017100	3.730300	-11.253000	24.004342	0.001073	20.850517
677.185695	-2.988200	3.729600	-11.144000	24.038086	0.001072	20.848322
678.187842	-3.013800	3.730300	-11.241000	24.043287	0.001072	20.854960
679.182749	-2.993500	3.731000	-11.167000	24.044555	0.001072	20.867137
680.188904	-2.995600	3.730300	-11.173000	24.036444	0.001072	20.868011
681.187628	-2.985400	3.728800	-11.131000	24.058591	0.001072	20.859877
682.182070	-2.983000	3.730200	-11.125000	24.065808	0.001071	20.837718
683.182330	-3.013600	3.728700	-11.237000	24.084768	0.001072	20.858155
684.183718	-2.973200	3.727700	-11.082000	24.078996	0.001071	20.845728
685.196165	-2.990400	3.728500	-11.150000	24.084869	0.001071	20.877221
686.192154	-3.020900	3.726000	-11.255000	24.082206	0.001071	20.871232
687.187365	-2.988600	3.727300	-11.137000	24.103979	0.001069	20.867465
688.191866	-3.012500	3.725400	-11.221000	24.108358	0.001071	20.863322
689.180980	-2.972200	3.727300	-11.077000	24.101242	0.001070	20.878943
690.190510	-3.003300	3.727100	-11.192000	24.140730	0.001071	20.863547
691.188592	-3.006900	3.727700	-11.208000	24.138243	0.001071	20.860104
692.193861	-3.019500	3.724000	-11.242000	24.134038	0.001070	20.866792
693.189522	-3.002800	3.725800	-11.187000	24.135282	0.001070	20.881789
694.188776	-3.013100	3.724200	-11.220000	24.130081	0.001069	20.871832
695.187608	-3.001600	3.725200	-11.181000	24.130207	0.001070	20.864846
696.194190	-3.005800	3.724600	-11.194000	24.133914	0.001070	20.871883
697.194718	-2.999100	3.725100	-11.171000	24.123688	0.001069	20.851670
698.188600	-3.008900	3.723200	-11.201000	24.127221	0.001068	20.844308
699.187483	-2.999100	3.723100	-11.165000	24.103384	0.001070	20.870187
700.187642	-3.002300	3.724200	-11.179000	24.106993	0.001069	20.867642
701.187335	-3.002000	3.724100	-11.178000	24.126326	0.001068	20.870437
702.190586	-3.005400	3.722000	-11.185000	24.150834	0.001069	20.870836
703.192382	-3.000500	3.722700	-11.170000	24.166187	0.001067	20.861579
704.191937	-3.012500	3.722600	-11.213000	24.184176	0.001069	20.869190
705.195414	-3.018900	3.721200	-11.233000	24.204354	0.001069	20.877100
706.196943	-2.995100	3.723000	-11.149000	24.173627	0.001068	20.872833
707.190847	-3.016000	3.722200	-11.224000	24.180444	0.001067	20.891997
708.193984	-3.009100	3.720900	-11.196000	24.211992	0.001068	20.883813
709.190329	-2.982500	3.721300	-11.098000	24.185843	0.001067	20.877025
710.189537	-2.992100	3.720700	-11.132000	24.193607	0.001067	20.880545
711.196785	-2.990400	3.721000	-11.126000	24.165890	0.001067	20.874556
712.191799	-3.019300	3.719500	-11.228000	24.154644	0.001067	20.884139
713.198934	-3.003100	3.719900	-11.170000	24.143721	0.001068	20.900208
714.198992	-3.014900	3.719100	-11.211000	24.160193	0.001066	20.888755
715.203920	-2.994100	3.720500	-11.139000	24.136132	0.001067	20.880271
716.194228	-2.994100	3.718400	-11.133000	24.149792	0.001066	20.899186
717.197655	-2.972500	3.718400	-11.051000	24.175619	0.001067	20.898537
718.200236	-3.012900	3.717700	-11.200000	24.188731	0.001065	20.896042
719.194239	-3.002900	3.718000	-11.164000	24.169325	0.001065	20.898388
720.197739	-3.003900	3.717900	-11.167000	24.144518	0.001066	20.878725
721.194537	-3.014600	3.716700	-11.203000	24.161462	0.001066	20.901881
722.194703	-3.012500	3.715700	-11.193000	24.159124	0.001066	20.899062
723.198904	-3.002500	3.716400	-11.157000	24.166315	0.001064	20.882568
724.194932	-3.011900	3.715900	-11.191000	24.188732	0.001065	20.886087
725.194770	-3.015000	3.716300	-11.204000	24.188932	0.001063	20.877753
726.206763	-3.005200	3.717700	-11.171000	24.193385	0.001064	20.869418
727.199181	-3.011800	3.715100	-11.187000	24.218041	0.001064	20.878027
728.196217	-2.991600	3.715700	-11.115000	24.199357	0.001067	20.904329
729.204742	-2.981600	3.716700	-11.081000	24.219759	0.001064	20.880698
730.200331	-2.997500	3.715200	-11.136000	24.237847	0.001065	20.904054
731.198757	-2.993400	3.715600	-11.121000	24.225929	0.001064	20.896843
732.200897	-2.986600	3.714700	-11.093000	24.221675	0.001063	20.905852
733.199553	-3.005800	3.714100	-11.163000	24.180400	0.001063	20.900961
734.198462	-3.002200	3.714600	-11.150000	24.170398	0.001065	20.887138
735.199128	-3.005100	3.713700	-11.159000	24.160172	0.001064	20.916233
736.207883	-3.008700	3.713100	-11.170000	24.171468	0.001063	20.898641
737.200696	-3.012200	3.713400	-11.185000	24.204882	0.001062	20.909870
738.208731	-2.996500	3.714700	-11.130000	24.186472	0.001063	20.907051
739.201273	-2.996100	3.712400	-11.120000	24.163034	0.001065	20.891605
740.199735	-3.025600	3.711100	-11.226000	24.161466	0.001061	20.882921
741.202006	-2.976600	3.713500	-11.052000	24.165547	0.001064	20.898867
742.205466	-2.992500	3.712000	-11.107000	24.183984	0.001061	20.918305
743.206446	-2.977000	3.712700	-11.052000	24.220882	0.001062	20.911693
744.209399	-2.992500	3.711500	-11.105000	24.199037	0.001061	20.927713
745.207085	-2.992900	3.711500	-11.107000	24.215160	0.001059	20.932978
746.207693	-2.998600	3.711600	-11.129000	24.242279	0.001063	20.902810
747.210471	-2.986600	3.711600	-11.084000	24.287334	0.001059	20.907227
748.201786	-2.999000	3.710600	-11.127000	24.281762	0.001060	20.925817
749.203660	-3.007500	3.709500	-11.155000	24.251211	0.001060	20.902761
750.210198	-2.994400	3.710500	-11.110000	24.258475	0.001060	20.916210
751.203994	-2.990800	3.709200	-11.092000	24.255739	0.001060	20.912991
752.221618	-3.009700	3.708500	-11.160000	24.241459	0.001059	20.903410
753.207304	-2.995300	3.708900	-11.109000	24.227600	0.001061	20.944507
754.208899	-3.014600	3.709000	-11.179000	24.233919	0.001059	20.907227
755.202056	-2.988700	3.709500	-11.086000	24.246459	0.001058	20.905581
756.203664	-3.001500	3.707500	-11.127000	24.262630	0.001059	20.901414
757.208107	-2.996600	3.708300	-11.111000	24.266984	0.001058	20.899143
758.202379	-2.987700	3.707500	-11.076000	24.270293	0.001060	20.930434
759.210339	-2.986500	3.707800	-11.072000	24.312861	0.001059	20.930460
760.211833	-3.013800	3.706400	-11.169000	24.325001	0.001060	20.922250
761.205618	-2.991500	3.707000	-11.088000	24.342365	0.001058	20.940615
762.209587	-2.994300	3.706000	-11.096000	24.336718	0.001058	20.937796
763.205619	-2.999300	3.705700	-11.114000	24.323956	0.001059	20.920728
764.204207	-3.016000	3.705300	-11.174000	24.337539	0.001056	20.908277
765.207712	-2.984000	3.706300	-11.059000	24.351197	0.001058	20.927666
766.201027	-2.980100	3.706400	-11.045000	24.369681	0.001058	20.931508
767.219495	-3.028300	3.704700	-11.218000	24.347889	0.001054	20.921029
768.210367	-3.004000	3.704400	-11.127000	24.370328	0.001056	20.924098
769.202621	-3.001200	3.705900	-11.121000	24.371572	0.001056	20.943362
770.211952	-3.018200	3.704800	-11.180000	24.338660	0.001056	20.937373
771.209611	-3.007700	3.703800	-11.138000	24.310101	0.001057	20.940019
772.209166	-3.019200	3.703500	-11.181000	24.331969	0.001055	20.934454
773.210926	-2.982200	3.703700	-11.044000	24.302862	0.001054	20.926595
774.212646	-2.987100	3.703200	-11.060000	24.293956	0.001055	20.945159
775.213464	-3.010500	3.702800	-11.147000	24.302863	0.001054	20.952197
776.204694	-3.012100	3.702000	-11.149000	24.307888	0.001055	20.948229
777.209626	-3.015900	3.701700	-11.163000	24.310351	0.001053	20.936002
778.207952	-3.003000	3.701400	-11.114000	24.337071	0.001053	20.940046
779.217443	-2.980100	3.703700	-11.036000	24.346648	0.001052	20.928318
780.209702	-3.015200	3.700800	-11.158000	24.335876	0.001052	20.948330
781.209746	-2.995100	3.702300	-11.088000	24.319582	0.001052	20.950476
782.213643	-3.017100	3.701800	-11.168000	24.337543	0.001054	20.941942
783.208704	-2.979400	3.701300	-11.027000	24.361301	0.001053	20.948704
784.208169	-3.028000	3.698600	-11.197000	24.381376	0.001050	20.953196
785.208412	-2.996300	3.700800	-11.087000	24.396253	0.001051	20.944887
786.210066	-2.996300	3.701700	-11.091000	24.390159	0.001051	20.958687
787.218701	-3.027900	3.699100	-11.199000	24.416774	0.001050	20.941294
788.214795	-2.995000	3.701000	-11.083000	24.433517	0.001050	20.953347
789.216875	-3.010400	3.699800	-11.136000	24.455904	0.001048	20.964900
790.213999	-3.013600	3.698400	-11.145000	24.438443	0.001049	20.954021
791.214307	-3.012900	3.698600	-11.142000	24.457099	0.001049	20.950454
792.214950	-3.000400	3.698300	-11.095000	24.438468	0.001050	20.953098
793.213211	-2.987000	3.700900	-11.052000	24.416130	0.001049	20.951552
794.211465	-3.026700	3.696300	-11.186000	24.389614	0.001048	20.950080
795.212451	-3.009800	3.697400	-11.126000	24.407698	0.001049	20.948782
796.213341	-3.002600	3.697800	-11.102000	24.402550	0.001048	20.971116
797.219288	-3.008500	3.696800	-11.121000	24.425211	0.001048	20.961135
798.217059	-2.993200	3.696700	-11.064000	24.427152	0.001049	20.953600
799.220371	-3.006400	3.695200	-11.108000	24.443793	0.001047	20.933788
800.220402	-3.005000	3.697000	-11.109000	24.477399	0.001046	20.943794
801.220834	-3.002700	3.696800	-11.098000	24.454689	0.001047	20.946614
802.218196	-3.000900	3.695400	-11.088000	24.464216	0.001045	20.963756
803.216938	-3.010600	3.695400	-11.125000	24.447053	0.001046	20.949858
804.216193	-2.992600	3.695600	-11.058000	24.428845	0.001043	20.943446
805.215798	-3.018500	3.693500	-11.147000	24.433174	0.001046	20.946365
806.218203	-2.997100	3.695200	-11.074000	24.434841	0.001046	20.944719
807.219818	-3.009800	3.694800	-11.119000	24.459641	0.001047	20.951581
808.220822	-2.967800	3.695200	-10.966000	24.480411	0.001047	20.948712
809.222882	-3.000200	3.694300	-11.082000	24.475536	0.001043	20.949511
810.226410	-3.025300	3.692300	-11.170000	24.498345	0.001045	20.944421
811.224016	-3.012000	3.693300	-11.123000	24.493869	0.001046	20.925233
812.222135	-3.015100	3.693100	-11.134000	24.470438	0.001043	20.955775
813.220129	-3.001200	3.694000	-11.085000	24.460388	0.001045	20.940005
814.223576	-2.999000	3.693300	-11.075000	24.457703	0.001044	20.961489
815.232198	-2.975900	3.693700	-10.991000	24.444446	0.001043	20.949139
816.223547	-2.990300	3.691800	-11.038000	24.431287	0.001043	20.930724
817.219842	-3.029800	3.690900	-11.182000	24.416934	0.001042	20.940979
818.237000	-2.988300	3.691700	-11.031000	24.381860	0.001041	20.937562
819.223448	-2.999100	3.691800	-11.072000	24.382383	0.001040	20.925760
820.223071	-3.000100	3.690900	-11.073000	24.383851	0.001042	20.916802
821.226439	-2.990300	3.691800	-11.039000	24.395791	0.001040	20.940158
822.223118	-3.006600	3.691300	-11.097000	24.396687	0.001042	20.923515
823.221368	-2.997200	3.691000	-11.061000	24.424598	0.001040	20.923540
824.224214	-3.017000	3.689400	-11.130000	24.421066	0.001041	20.937065
825.226372	-2.985000	3.689700	-11.012000	24.408554	0.001041	20.932574
826.231721	-2.985700	3.689700	-11.015000	24.420619	0.001038	20.928557
827.226874	-3.000900	3.688700	-11.068000	24.448206	0.001038	20.921620
828.230086	-3.000000	3.689300	-11.065000	24.438530	0.001040	20.924241
829.225285	-3.005000	3.689500	-11.086000	24.494024	0.001038	20.916855
830.225628	-3.002100	3.689200	-11.075000	24.505964	0.001038	20.941633
831.232133	-3.017100	3.688300	-11.127000	24.484224	0.001039	20.923617
832.225168	-3.012000	3.688600	-11.109000	24.485394	0.001039	20.924791
833.228609	-3.003800	3.687100	-11.073000	24.452437	0.001038	20.955258
834.232955	-2.990500	3.688300	-11.029000	24.431045	0.001038	20.936645
835.226389	-3.007100	3.686400	-11.084000	24.450298	0.001037	20.909496
836.229086	-2.980400	3.687000	-10.988000	24.457885	0.001037	20.920900
837.242919	-3.013400	3.686700	-11.108000	24.480546	0.001039	20.931780
838.232412	-3.021600	3.687000	-11.140000	24.501018	0.001037	20.941412
839.233129	-3.028700	3.685100	-11.160000	24.525817	0.001036	20.907976
840.232368	-3.034000	3.685600	-11.181000	24.551113	0.001037	20.939043
841.238225	-2.997900	3.685700	-11.048000	24.531489	0.001037	20.911770
842.237089	-2.994000	3.685500	-11.034000	24.544721	0.001037	20.929312
843.229223	-3.010900	3.685900	-11.097000	24.520197	0.001035	20.915139
844.234248	-3.006500	3.684400	-11.076000	24.518631	0.001036	20.908353
845.231916	-3.013000	3.685200	-11.103000	24.527063	0.001035	20.920605
846.234565	-2.987500	3.686100	-11.011000	24.517537	0.001036	20.937124
847.232611	-2.998600	3.684900	-11.048000	24.529800	0.001036	20.936151
848.232873	-2.983900	3.684700	-10.994000	24.559074	0.001035	20.908154
849.231631	-3.022400	3.683300	-11.131000	24.529527	0.001035	20.923551
850.231478	-3.002700	3.683900	-11.061000	24.563031	0.001033	20.917812
851.236387	-2.997500	3.684200	-11.042000	24.533283	0.001034	20.913096
852.239861	-3.000700	3.681900	-11.046000	24.543383	0.001033	20.898101
853.235542	-3.002600	3.682700	-11.056000	24.552188	0.001032	20.892237
854.235895	-2.989800	3.683000	-11.010000	24.579572	0.001032	20.903591
855.236192	-3.016000	3.682200	-11.104000	24.566018	0.001033	20.918439
856.234876	-3.000000	3.680600	-11.040000	24.560123	0.001031	20.903991
857.239615	-3.019800	3.679300	-11.109000	24.538660	0.001032	20.906637
858.236529	-3.015300	3.680700	-11.098000	24.527442	0.001032	20.915296
859.237300	-3.007400	3.681100	-11.069000	24.495033	0.001032	20.921660
860.233497	-2.962500	3.681400	-10.904000	24.494163	0.001031	20.890918
861.237237	-2.982600	3.682300	-10.981000	24.468170	0.001031	20.894237
862.238186	-3.006200	3.680000	-11.063000	24.491378	0.001033	20.916096
863.239206	-2.997800	3.681100	-11.034000	24.489463	0.001031	20.907064
864.237282	-2.994400	3.679500	-11.016000	24.498244	0.001031	20.886004
865.235244	-2.995100	3.681400	-11.025000	24.527943	0.001031	20.900627
866.237348	-2.987400	3.679400	-10.991000	24.528391	0.001029	20.900602
867.235334	-2.989700	3.679300	-10.999000	24.547469	0.001030	20.905519
868.248171	-3.009200	3.677800	-11.066000	24.548588	0.001027	20.919443
869.237860	-2.987300	3.679000	-10.990000	24.578907	0.001027	20.906243
870.244099	-3.000400	3.677500	-11.034000	24.593855	0.001029	20.895637
871.237220	-2.993100	3.677300	-11.005000	24.595870	0.001029	20.887703
872.237888	-2.977600	3.678500	-10.953000	24.594925	0.001027	20.897660
873.244322	-3.017800	3.678100	-11.099000	24.611789	0.001028	20.889925
874.247993	-3.008900	3.677500	-11.064000	24.606914	0.001027	20.898309
875.245806	-3.021700	3.675700	-11.106000	24.600472	0.001028	20.874778
876.239862	-2.999400	3.675800	-11.024000	24.621439	0.001026	20.906719
877.243077	-3.002100	3.675800	-11.034000	24.628054	0.001025	20.907193
878.242352	-3.025000	3.675100	-11.117000	24.613481	0.001027	20.893045
879.243511	-3.010300	3.673700	-11.057000	24.600051	0.001025	20.894743
880.253911	-2.994300	3.675900	-11.005000	24.593833	0.001025	20.893719
881.244672	-2.988700	3.675000	-10.983000	24.581422	0.001026	20.888379
882.241930	-2.998600	3.674700	-11.017000	24.577319	0.001023	20.912235
883.244761	-3.002200	3.674200	-11.029000	24.564758	0.001025	20.900107
884.249688	-3.001700	3.673700	-11.026000	24.561973	0.001025	20.875504
885.244466	-2.991100	3.674400	-10.989000	24.556576	0.001024	20.899484
886.242768	-3.018200	3.673200	-11.086000	24.551378	0.001024	20.879097
887.243940	-2.987800	3.675100	-10.979000	24.570579	0.001021	20.885086
888.246487	-3.009200	3.673400	-11.054000	24.569858	0.001024	20.915179
889.248598	-2.984500	3.673900	-10.964000	24.556899	0.001024	20.895067
890.246563	-3.013700	3.671900	-11.066000	24.588685	0.001022	20.871486
891.247838	-3.010100	3.672100	-11.052000	24.583811	0.001022	20.863277
892.258516	-2.992300	3.672900	-10.989000	24.578189	0.001024	20.900307
893.245399	-2.973700	3.672500	-10.920000	24.585676	0.001021	20.871312
894.249865	-3.020100	3.670900	-11.085000	24.598660	0.001021	20.885286
895.243999	-2.996100	3.673000	-11.004000	24.594706	0.001022	20.872311
896.257090	-2.976500	3.673000	-10.931000	24.548593	0.001021	20.877251
897.244906	-3.017600	3.670300	-11.074000	24.551677	0.001020	20.881293
898.244271	-3.004600	3.671000	-11.027000	24.544215	0.001020	20.889927
899.245879	-2.995900	3.670400	-10.994000	24.542872	0.001019	20.878624
900.249517	-3.005600	3.671400	-11.033000	24.570007	0.001021	20.905373
901.246223	-2.996000	3.670900	-10.997000	24.510835	0.001019	20.899110
902.248777	-3.019900	3.669600	-11.081000	24.508672	0.001019	20.872759
903.252871	-3.014100	3.668300	-11.056000	24.480888	0.001018	20.897039
904.248931	-2.991800	3.670400	-10.981000	24.496112	0.001021	20.894770
905.248114	-2.990200	3.670100	-10.974000	24.491958	0.001019	20.876853
906.247818	-2.999000	3.668800	-11.002000	24.516657	0.001019	20.890727
907.253002	-3.006400	3.668500	-11.027000	24.515663	0.001016	20.905849
908.248954	-3.011200	3.667900	-11.044000	24.532526	0.001017	20.872985
909.248554	-2.987400	3.667500	-10.955000	24.528671	0.001016	20.881444
910.249064	-2.996100	3.667400	-10.986000	24.548868	0.001016	20.879424
911.255256	-2.977300	3.667900	-10.919000	24.569983	0.001014	20.896341
912.248051	-2.994700	3.666900	-10.980000	24.548246	0.001015	20.879748
913.247135	-3.005700	3.666500	-11.019000	24.570729	0.001015	20.879547
914.248728	-3.013700	3.666500	-11.049000	24.566725	0.001015	20.867470
915.250694	-3.009500	3.665800	-11.031000	24.565383	0.001014	20.876080
916.248539	-2.991500	3.665800	-10.964000	24.561877	0.001017	20.876355
917.257296	-3.003600	3.666300	-11.011000	24.575954	0.001014	20.881944
918.253841	-3.008000	3.665100	-11.024000	24.555460	0.001013	20.866598
919.249662	-2.987600	3.665600	-10.950000	24.574338	0.001017	20.870841
920.255392	-2.985100	3.664500	-10.937000	24.566305	0.001011	20.867048
921.255065	-3.021700	3.664400	-11.071000	24.588664	0.001012	20.875732
922.256603	-2.996100	3.664900	-10.979000	24.574016	0.001012	20.861035
923.251586	-3.000600	3.666300	-10.999000	24.596126	0.001013	20.869469
924.252570	-3.002700	3.663000	-10.998000	24.576079	0.001011	20.861209
925.249304	-2.995300	3.662700	-10.968000	24.567872	0.001010	20.869095
926.253786	-3.005700	3.664200	-11.011000	24.526908	0.001011	20.864978
927.254137	-2.994400	3.663600	-10.968000	24.529221	0.001011	20.878203
928.254126	-3.017600	3.663300	-11.054000	24.535215	0.001010	20.891803
929.253027	-2.998900	3.662500	-10.982000	24.568122	0.001009	20.891629
930.253355	-2.991800	3.663700	-10.960000	24.554442	0.001009	20.858939
931.254895	-3.000300	3.663500	-10.990000	24.535440	0.001009	20.869271
932.253156	-2.994500	3.662400	-10.966000	24.563124	0.001009	20.857219
933.254631	-2.986900	3.661900	-10.935000	24.580510	0.001008	20.867550
934.255949	-2.985500	3.661500	-10.930000	24.573222	0.001010	20.862609
935.254385	-2.983200	3.662400	-10.925000	24.585459	0.001007	20.850706
936.254804	-2.983200	3.661600	-10.923000	24.617990	0.001007	20.869596
937.257590	-3.003900	3.660300	-10.995000	24.637340	0.001008	20.863408
938.251198	-3.021900	3.659700	-11.058000	24.668950	0.001009	20.861936
939.257343	-3.011900	3.660800	-11.025000	24.677131	0.001006	20.856395
940.256742	-3.019600	3.660800	-11.053000	24.671436	0.001008	20.859215
941.257092	-3.024900	3.659000	-11.067000	24.676783	0.001007	20.844193
942.257458	-2.996900	3.660100	-10.969000	24.692924	0.001005	20.848535
943.257622	-3.014100	3.658800	-11.027000	24.653331	0.001003	20.866178
944.257270	-2.997700	3.657600	-10.963000	24.653953	0.001003	20.847362
945.258286	-2.982600	3.658300	-10.910000	24.649601	0.001006	20.869073
946.259179	-3.016500	3.657000	-11.031000	24.640748	0.001005	20.851655
947.259757	-3.004700	3.658700	-10.991000	24.626821	0.001003	20.880353
948.259389	-2.998900	3.657600	-10.968000	24.623861	0.001003	20.860315
949.260041	-3.014900	3.657700	-11.027000	24.600383	0.001002	20.860465
950.259755	-2.988400	3.657600	-10.929000	24.574192	0.001001	20.846988
951.261003	-2.996900	3.657300	-10.960000	24.569045	0.001001	20.871694
952.257435	-3.001500	3.657100	-10.976000	24.546511	0.001003	20.840077
953.259847	-2.986400	3.657200	-10.921000	24.546162	0.001002	20.840201
954.258932	-3.013700	3.655500	-11.015000	24.541586	0.001001	20.859790
955.260605	-3.007300	3.656000	-10.993000	24.552753	0.001000	20.872891
956.260939	-3.013100	3.654500	-11.011000	24.582824	0.001000	20.856122
957.261254	-2.992700	3.655600	-10.939000	24.583744	0.001001	20.843770
958.265928	-2.982800	3.655800	-10.903000	24.638261	0.001000	20.861014
959.263475	-3.001000	3.655400	-10.969000	24.659973	0.000999	20.852454
960.263789	-2.988000	3.655800	-10.923000	24.620529	0.000999	20.877359
961.259424	-2.995900	3.654400	-10.945000	24.671836	0.001000	20.858194
962.263443	-3.005400	3.654500	-10.983000	24.664026	0.001000	20.855099
963.264155	-2.993300	3.654700	-10.938000	24.672930	0.000999	20.836060
964.264891	-2.983100	3.653800	-10.898000	24.695910	0.000998	20.816920
965.261230	-2.990200	3.653600	-10.924000	24.680317	0.000998	20.845368
966.260366	-3.022400	3.652200	-11.036000	24.695562	0.000998	20.845968
967.259786	-2.997800	3.652100	-10.947000	24.696109	0.000997	20.842249
968.259153	-3.014000	3.652100	-11.006000	24.715432	0.000998	20.851682
969.263883	-3.004600	3.652600	-10.973000	24.742664	0.000998	20.826853
970.261429	-2.999100	3.652200	-10.952000	24.765990	0.000996	20.839356
971.266834	-2.994100	3.651100	-10.931000	24.758505	0.000997	20.843698
972.266716	-2.985600	3.651700	-10.901000	24.723565	0.000998	20.845619
973.264898	-2.990400	3.651000	-10.917000	24.713195	0.000994	20.836636
974.262054	-3.020600	3.650400	-11.026000	24.702328	0.000994	20.816722
975.267193	-3.005300	3.650900	-10.970000	24.697081	0.000993	20.847966
976.261928	-3.013600	3.648900	-10.994000	24.686984	0.000994	20.834041
977.264042	-2.995900	3.650100	-10.934000	24.680146	0.000993	20.828127
978.263107	-2.984800	3.649600	-10.892000	24.645328	0.000991	20.849613
979.262302	-2.992700	3.649100	-10.919000	24.635604	0.000992	20.841753
980.269811	-3.012300	3.647300	-10.984000	24.625210	0.000991	20.833220
981.262613	-2.970600	3.649100	-10.839000	24.641474	0.000989	20.817772
982.271450	-3.003200	3.647200	-10.952000	24.684598	0.000992	20.828802
983.265431	-2.993000	3.648400	-10.919000	24.696834	0.000991	20.838235
984.266852	-3.002300	3.649200	-10.954000	24.707602	0.000990	20.816325
985.269893	-3.005400	3.647100	-10.959000	24.721828	0.000990	20.839135
986.268112	-3.000200	3.648200	-10.944000	24.724638	0.000988	20.831997
987.268043	-2.998000	3.646700	-10.932000	24.754207	0.000991	20.833221
988.265625	-3.027700	3.645700	-11.037000	24.769625	0.000989	20.822142
989.268087	-2.995300	3.646900	-10.923000	24.771938	0.000991	20.828729
990.268364	-2.988000	3.647200	-10.897000	24.817544	0.000988	20.814281
991.267037	-3.014900	3.646200	-10.993000	24.835373	0.000989	20.839761
992.267183	-3.012300	3.645700	-10.981000	24.822766	0.000990	20.819048
993.268501	-2.985500	3.646000	-10.884000	24.807449	0.000988	20.830228
994.269284	-2.976300	3.646900	-10.853000	24.834553	0.000987	20.823765
995.270410	-2.993100	3.645700	-10.910000	24.843082	0.000988	20.867410
996.281307	-2.997500	3.645700	-10.925000	24.850767	0.000987	20.837666
997.265110	-2.998400	3.646600	-10.933000	24.852109	0.000987	20.831427
998.270288	-2.981700	3.644600	-10.866000	24.845073	0.000988	20.851391
999.266065	-3.006700	3.644900	-10.957000	24.848155	0.000986	20.835045
1000.270441	-3.016000	3.644200	-10.989000	24.876876	0.000985	20.824042
1001.273641	-3.005900	3.644600	-10.954000	24.894679	0.000985	20.837642
1002.273453	-3.011200	3.643100	-10.968000	24.851838	0.000983	20.814086
1003.271897	-3.002000	3.644000	-10.939000	24.832468	0.000985	20.813612
1004.272984	-3.005900	3.642100	-10.946000	24.812475	0.000985	20.818203
1005.273280	-2.991000	3.642100	-10.893000	24.801683	0.000984	20.838192
1006.271085	-2.982000	3.642700	-10.862000	24.766447	0.000983	20.816108
1007.273464	-2.980400	3.641600	-10.852000	24.772839	0.000983	20.813039
1008.275001	-2.996600	3.641800	-10.912000	24.769332	0.000984	20.823744
1009.274765	-2.978300	3.641700	-10.846000	24.781991	0.000982	20.821750
1010.271715	-2.990900	3.641300	-10.890000	24.815934	0.000982	20.822623
1011.272214	-3.000000	3.640700	-10.920000	24.844406	0.000981	20.832705
1012.274769	-3.017000	3.640600	-10.983000	24.836946	0.000982	20.810994
1013.274001	-2.967600	3.641700	-10.806000	24.822227	0.000982	20.809498
1014.273127	-3.007100	3.640800	-10.947000	24.837221	0.000980	20.813166
1015.274521	-2.999100	3.639500	-10.915000	24.812753	0.000980	20.829861
1016.277491	-3.009000	3.638100	-10.944000	24.803303	0.000981	20.803309
1017.277503	-2.992300	3.639000	-10.888000	24.786170	0.000978	20.837322
1018.287511	-3.008000	3.638800	-10.944000	24.784654	0.000977	20.817309
1019.281051	-3.007600	3.637300	-10.937000	24.798332	0.000980	20.813018
1020.285023	-3.006500	3.637400	-10.935000	24.836327	0.000979	20.823174
1021.284203	-3.003400	3.639800	-10.930000	24.831254	0.000979	20.813342
1022.277538	-3.001100	3.637500	-10.915000	24.810715	0.000976	20.824972
1023.288020	-2.971700	3.638100	-10.811000	24.815340	0.000975	20.825346
1024.281003	-2.992200	3.636900	-10.882000	24.781546	0.000974	20.825570
1025.286348	-2.985900	3.637500	-10.860000	24.812829	0.000975	20.824723
1026.287377	-3.005400	3.637800	-10.932000	24.821335	0.000976	20.835629
1027.285508	-3.005400	3.636300	-10.928000	24.815217	0.000976	20.824273
1028.288317	-2.987600	3.637100	-10.866000	24.832747	0.000973	20.827642
1029.286566	-3.020200	3.634800	-10.977000	24.800446	0.000975	20.797122
1030.285848	-3.011800	3.634900	-10.946000	24.765682	0.000974	20.812021
1031.282479	-3.007400	3.635700	-10.932000	24.763170	0.000974	20.813293
1032.296340	-2.971700	3.636500	-10.805000	24.738476	0.000973	20.821229
1033.283908	-2.998600	3.635700	-10.900000	24.770407	0.000973	20.806805
1034.288258	-2.997100	3.636500	-10.898000	24.775654	0.000972	20.817761
1035.287151	-2.980300	3.634700	-10.832000	24.738999	0.000971	20.837399
1036.286946	-3.012400	3.635100	-10.949000	24.709753	0.000969	20.828440
1037.285911	-3.011100	3.634100	-10.941000	24.725097	0.000967	20.810173
1038.290680	-2.998000	3.634100	-10.894000	24.736984	0.000969	20.805033
1039.287427	-3.024800	3.633100	-10.988000	24.721740	0.000970	20.826718
1040.288485	-3.022800	3.631900	-10.976000	24.727336	0.000969	20.818584
1041.286735	-3.001800	3.633200	-10.905000	24.726789	0.000967	20.817560
1042.286583	-2.987500	3.633500	-10.854000	24.756555	0.000969	20.809026
1043.289469	-2.990800	3.631400	-10.859000	24.756059	0.000969	20.807105
1044.299498	-3.011100	3.631600	-10.934000	24.755014	0.000967	20.822652
1045.289938	-2.989400	3.630400	-10.851000	24.736911	0.000967	20.820606
1046.289180	-2.986600	3.632000	-10.846000	24.751434	0.000967	20.815266
1047.289384	-2.975100	3.630900	-10.801000	24.756532	0.000968	20.804260
1048.289292	-2.987000	3.631100	-10.845000	24.759566	0.000966	20.824849
1049.292350	-3.010300	3.629700	-10.926000	24.807956	0.000966	20.791857
1050.288396	-3.005500	3.629700	-10.908000	24.811862	0.000967	20.800992
1051.288323	-2.996000	3.629800	-10.874000	24.805346	0.000964	20.829066
1052.289744	-3.028200	3.629200	-10.989000	24.811115	0.000965	20.810674
1053.292524	-3.006700	3.630700	-10.915000	24.827328	0.000964	20.815566
1054.293614	-3.000500	3.628500	-10.886000	24.862910	0.000964	20.810973
1055.295638	-3.021200	3.629100	-10.963000	24.882927	0.000966	20.809726
1056.294525	-3.000000	3.628100	-10.883000	24.867238	0.000962	20.810575
1057.292054	-3.017100	3.627300	-10.943000	24.855675	0.000963	20.814618
1058.289534	-2.996800	3.627700	-10.870000	24.890934	0.000961	20.809702
1059.290191	-2.992000	3.627800	-10.854000	24.876637	0.000964	20.832810
1060.292566	-3.005500	3.628900	-10.906000	24.865796	0.000964	20.815766
1061.292757	-2.973500	3.628700	-10.790000	24.843790	0.000961	20.834458
1062.297596	-3.001000	3.627900	-10.886000	24.806939	0.000962	20.814070
1063.294445	-3.017800	3.625100	-10.938000	24.863907	0.000959	20.819560
1064.293190	-2.985300	3.627700	-10.829000	24.839165	0.000961	20.817014
1065.298035	-3.003300	3.626000	-10.888000	24.830338	0.000959	20.826173
1066.296909	-2.996500	3.626000	-10.864000	24.847122	0.000961	20.818362
1067.293559	-3.003400	3.625800	-10.889000	24.869924	0.000961	20.816116
1068.291803	-2.999000	3.625000	-10.871000	24.881860	0.000959	20.834734
1069.294798	-2.984500	3.624500	-10.816000	24.849088	0.000960	20.833136
1070.294547	-3.007600	3.624400	-10.899000	24.804950	0.000960	20.830566
1071.298590	-3.000500	3.624900	-10.875000	24.787842	0.000958	20.819086
1072.292607	-2.980400	3.625200	-10.804000	24.755540	0.000955	20.835507
1073.297971	-2.987000	3.625000	-10.826000	24.742534	0.000959	20.839050
1074.294451	-3.013300	3.623000	-10.915000	24.751038	0.000957	20.820084
1075.293689	-2.996700	3.623400	-10.857000	24.805672	0.000957	20.829393
1076.294545	-2.986200	3.625000	-10.823000	24.820093	0.000957	20.826796
1077.295590	-3.005300	3.622400	-10.884000	24.857442	0.000955	20.843891
1078.302696	-2.984800	3.623100	-10.813000	24.859507	0.000956	20.814196
1079.294365	-3.008700	3.622400	-10.897000	24.859904	0.000955	20.839724
1080.293030	-3.001600	3.622200	-10.871000	24.843046	0.000954	20.830866
1081.294167	-3.018100	3.620300	-10.926000	24.819598	0.000951	20.848584
1082.295040	-2.978900	3.622500	-10.791000	24.826162	0.000955	20.836680
1083.292984	-3.002000	3.622600	-10.872000	24.843891	0.000954	20.819386
1084.293893	-3.018900	3.620500	-10.927000	24.845980	0.000953	20.821009
1085.298791	-3.015100	3.620800	-10.917000	24.851600	0.000954	20.821907
1086.296942	-3.020800	3.618500	-10.929000	24.857344	0.000953	20.821034
1087.303344	-3.021400	3.619300	-10.933000	24.841008	0.000950	20.820760
1088.299260	-3.008600	3.619700	-10.889000	24.848169	0.000952	20.837904
1089.300237	-3.023000	3.619100	-10.940000	24.815694	0.000951	20.833288
1090.300342	-3.005900	3.618800	-10.877000	24.793140	0.000952	20.846687
1091.299022	-2.995300	3.619900	-10.841000	24.779712	0.000950	20.832264
1092.305362	-2.987800	3.619000	-10.811000	24.783865	0.000950	20.814147
1093.301549	-2.988900	3.619500	-10.817000	24.784462	0.000950	20.825177
1094.298151	-2.980700	3.617600	-10.783000	24.790852	0.000948	20.838228
1095.300266	-2.992700	3.618500	-10.827000	24.784313	0.000949	20.835459
1096.300686	-3.002100	3.617100	-10.858000	24.768795	0.000948	20.858766
1097.304686	-3.002300	3.618400	-10.862000	24.780110	0.000946	20.831715
1098.304148	-3.019600	3.616100	-10.918000	24.818380	0.000946	20.823655
1099.303555	-2.999700	3.616400	-10.847000	24.849189	0.000947	20.813323
1100.303172	-3.008200	3.614800	-10.873000	24.856350	0.000945	20.844692
1101.303387	-2.971700	3.617100	-10.748000	24.873157	0.000945	20.844491
1102.306190	-3.005500	3.617100	-10.871000	24.888699	0.000946	20.834485
1103.301034	-3.012600	3.615100	-10.889000	24.932857	0.000946	20.837554
1104.303059	-3.002300	3.614200	-10.851000	24.927362	0.000945	20.843418
1105.300614	-2.978300	3.616400	-10.770000	24.931514	0.000943	20.830517
1106.313196	-3.015800	3.614800	-10.901000	24.956552	0.000943	20.844267
1107.303990	-2.974000	3.615400	-10.751000	24.958069	0.000943	20.850530
1108.303668	-2.994400	3.613400	-10.819000	24.978207	0.000943	20.822855
1109.303895	-3.003100	3.613000	-10.850000	24.985667	0.000943	20.836981
1110.302917	-3.001200	3.613300	-10.844000	24.984348	0.000943	20.837554
1111.303763	-3.011900	3.613000	-10.881000	25.002847	0.000942	20.841897
1112.301018	-2.979700	3.613800	-10.767000	25.005433	0.000940	20.853975
1113.304012	-3.023500	3.612300	-10.921000	24.991659	0.000939	20.836832
1114.299032	-2.995200	3.611900	-10.817000	25.039468	0.000942	20.841673
1115.298634	-2.968800	3.612900	-10.725000	25.026093	0.000941	20.843894
1116.298290	-3.005200	3.611700	-10.853000	25.018511	0.000939	20.846714
1117.301958	-2.988100	3.612000	-10.792000	25.011648	0.000938	20.834611
1118.304006	-2.993200	3.612300	-10.812000	24.993922	0.000938	20.839103
1119.299863	-2.981700	3.611800	-10.767000	24.977910	0.000939	20.831092
1120.303852	-3.000600	3.609800	-10.830000	24.975102	0.000939	20.843446
1121.299987	-2.975100	3.610500	-10.741000	24.927341	0.000937	20.864732
1122.302372	-3.003200	3.610800	-10.842000	24.933010	0.000936	20.830595
1123.303805	-3.000000	3.608400	-10.824000	24.955485	0.000937	20.865481
1124.308901	-2.988800	3.608800	-10.786000	24.964586	0.000936	20.851382
1125.310622	-2.982000	3.609600	-10.763000	24.984278	0.000936	20.856922
1126.307768	-3.003900	3.609300	-10.841000	25.018214	0.000934	20.863959
1127.305797	-2.982900	3.610400	-10.769000	25.041709	0.000934	20.865258
1128.305107	-2.981000	3.608500	-10.756000	25.065202	0.000933	20.850909
1129.309245	-2.992300	3.608100	-10.795000	25.026966	0.000935	20.858046
1130.305191	-2.993100	3.607100	-10.795000	25.040938	0.000933	20.866381
1131.308915	-2.978500	3.608700	-10.747000	25.065476	0.000934	20.854503
1132.304584	-3.008700	3.606700	-10.849000	25.052649	0.000932	20.880506
1133.306108	-2.994600	3.606200	-10.797000	25.038478	0.000934	20.864860
1134.313587	-2.998700	3.605500	-10.812000	25.038255	0.000931	20.854679
1135.310463	-3.000800	3.605100	-10.817000	25.042009	0.000929	20.852758
1136.306677	-3.021900	3.604300	-10.891000	25.034526	0.000931	20.841453
1137.311329	-3.006000	3.604300	-10.833000	25.043304	0.000931	20.850738
1138.308836	-3.011900	3.605500	-10.859000	25.026919	0.000931	20.848991
1139.309620	-3.014800	3.605100	-10.868000	25.047231	0.000931	20.870800
1140.312617	-2.980600	3.604400	-10.742000	25.051383	0.000928	20.876865
1141.311362	-3.004800	3.604400	-10.830000	25.098344	0.000927	20.870426
1142.305140	-2.995100	3.604200	-10.793000	25.052378	0.000929	20.844674
1143.310385	-3.004600	3.602800	-10.822000	25.069930	0.000926	20.869404
1144.308166	-3.002000	3.602300	-10.813000	25.087755	0.000929	20.862168
1145.312207	-2.998700	3.602300	-10.801000	25.082859	0.000926	20.863891
1146.310258	-2.986100	3.602500	-10.755000	25.125517	0.000927	20.869255
1147.314521	-2.999400	3.602000	-10.802000	25.096332	0.000926	20.861769
1148.313639	-3.015300	3.602600	-10.862000	25.126339	0.000924	20.855857
1149.315040	-2.993700	3.603200	-10.786000	25.097850	0.000925	20.875620
1150.316595	-3.006000	3.601000	-10.824000	25.078583	0.000923	20.888994
1151.314593	-3.003200	3.600900	-10.813000	25.104065	0.000924	20.870006
1152.312159	-3.003300	3.602300	-10.817000	25.114556	0.000924	20.867261
1153.317587	-3.016800	3.599900	-10.859000	25.127558	0.000923	20.884105
1154.317101	-3.021100	3.599000	-10.870000	25.148017	0.000920	20.884730
1155.316527	-3.012100	3.600100	-10.842000	25.152716	0.000921	20.875696
1156.317787	-3.010000	3.600300	-10.836000	25.157513	0.000924	20.877194
1157.316597	-3.011600	3.598800	-10.838000	25.142052	0.000921	20.869259
1158.318015	-3.019900	3.598100	-10.865000	25.142523	0.000920	20.880636
1159.318102	-3.015000	3.597600	-10.845000	25.170291	0.000919	20.877693
1160.323966	-3.005100	3.598800	-10.813000	25.148117	0.000920	20.866813
1161.316486	-2.991100	3.598600	-10.762000	25.113362	0.000920	20.895458
1162.314705	-2.996000	3.597200	-10.776000	25.103369	0.000919	20.870729
1163.316799	-2.985200	3.598000	-10.740000	25.092206	0.000917	20.884178
1164.324251	-2.981300	3.597400	-10.722000	25.112839	0.000917	20.876442
1165.319953	-2.994700	3.597400	-10.772000	25.135933	0.000917	20.884452
1166.321531	-2.998800	3.597600	-10.787000	25.140084	0.000917	20.888619
1167.322406	-3.009700	3.595600	-10.820000	25.170286	0.000916	20.879585
1168.319755	-3.014500	3.595100	-10.836000	25.162679	0.000916	20.875742
1169.319844	-2.987700	3.595700	-10.742000	25.180652	0.000914	20.874344
1170.321003	-3.015100	3.594600	-10.836000	25.186442	0.000916	20.884424
1171.325274	-2.995600	3.595400	-10.769000	25.210653	0.000916	20.885497
1172.318911	-2.996200	3.596000	-10.772000	25.198870	0.000913	20.892633
1173.318149	-3.011000	3.593400	-10.818000	25.163622	0.000911	20.873843
1174.318641	-3.014700	3.593700	-10.833000	25.161806	0.000914	20.881503
1175.319358	-2.998400	3.594300	-10.776000	25.147139	0.000912	20.874365
1176.321974	-3.009300	3.593300	-10.813000	25.153279	0.000912	20.906131
1177.319659	-2.993100	3.593600	-10.755000	25.184749	0.000912	20.888414
1178.326355	-2.976800	3.594000	-10.697000	25.178160	0.000910	20.879429
1179.323112	-3.023700	3.592300	-10.860000	25.186040	0.000912	20.880227
1180.322565	-2.981200	3.593500	-10.712000	25.201450	0.000911	20.907076
1181.322892	-3.013100	3.592600	-10.824000	25.204907	0.000910	20.902486
1182.317025	-3.000600	3.592800	-10.778000	25.181938	0.000912	20.878954
1183.322322	-2.998800	3.592500	-10.772000	25.183751	0.000908	20.871292
1184.317610	-2.987300	3.592400	-10.729000	25.194838	0.000908	20.904231
1185.321729	-3.007200	3.590200	-10.795000	25.231725	0.000910	20.887686
1186.319338	-2.986500	3.590300	-10.722000	25.235800	0.000909	20.892251
1187.321965	-2.997200	3.589000	-10.756000	25.243929	0.000907	20.889033
1188.330223	-2.994700	3.589000	-10.747000	25.246538	0.000906	20.881221
1189.328659	-3.003900	3.590900	-10.784000	25.232245	0.000907	20.880148
1190.325509	-2.994700	3.590000	-10.749000	25.212732	0.000906	20.888532
1191.326946	-3.008800	3.589800	-10.801000	25.220586	0.000906	20.894046
1192.322884	-3.011500	3.589000	-10.806000	25.195679	0.000905	20.886110
1193.325651	-3.000300	3.589700	-10.769000	25.145441	0.000906	20.896841
1194.325490	-3.012200	3.588100	-10.806000	25.131122	0.000904	20.888631
1195.325051	-2.984800	3.589100	-10.712000	25.074615	0.000905	20.887857
1196.324517	-3.010000	3.587800	-10.797000	25.046796	0.000903	20.893122
1197.326527	-2.996600	3.586700	-10.747000	25.057859	0.000904	20.901381
1198.325600	-3.005300	3.587400	-10.780000	25.086149	0.000904	20.905123
1199.327339	-3.007000	3.585900	-10.782000	25.125602	0.000903	20.900158
1200.326959	-3.005800	3.586000	-10.778000	25.166122	0.000901	20.872560
1201.333002	-2.980800	3.586400	-10.688000	25.193713	0.000903	20.912584
1202.337626	-2.992600	3.586700	-10.732000	25.232814	0.000899	20.892572
1203.331074	-2.985200	3.586000	-10.703000	25.239426	0.000901	20.904425
1204.334152	-3.009900	3.584100	-10.787000	25.259311	0.000899	20.918224
1205.335336	-3.007700	3.584100	-10.779000	25.252227	0.000898	20.902104
1206.332839	-3.003700	3.583400	-10.762000	25.243752	0.000900	20.905449
1207.331732	-3.017100	3.583400	-10.810000	25.214272	0.000898	20.928955
1208.332482	-3.004300	3.584500	-10.768000	25.186878	0.000896	20.895293
1209.332179	-3.006400	3.583400	-10.772000	25.207586	0.000897	20.926510
1210.335022	-3.005300	3.582500	-10.765000	25.183673	0.000897	20.902980
1211.333998	-2.968700	3.584600	-10.641000	25.161673	0.000895	20.902704
1212.337706	-3.005400	3.581100	-10.762000	25.145192	0.000896	20.906073
1213.335389	-3.003900	3.581100	-10.756000	25.142682	0.000897	20.904502
1214.330676	-3.005900	3.580300	-10.761000	25.182057	0.000899	20.916529
1215.338433	-3.005700	3.581600	-10.764000	25.197470	0.000897	20.900710
1216.335595	-2.985800	3.582900	-10.696000	25.236072	0.000895	20.908644
1217.333573	-3.013900	3.580800	-10.791000	25.213528	0.000894	20.891702
1218.334232	-2.982300	3.581000	-10.679000	25.189740	0.000893	20.919974
1219.334922	-2.995700	3.579700	-10.722000	25.175372	0.000890	20.906499
1220.334902	-2.986000	3.580600	-10.690000	25.140669	0.000892	20.896318
1221.334102	-2.988800	3.580100	-10.698000	25.146065	0.000891	20.899838
1222.332797	-2.996700	3.579600	-10.726000	25.140348	0.000892	20.908797
1223.331139	-2.987800	3.580200	-10.695000	25.187802	0.000893	20.919451
1224.333994	-3.022600	3.579800	-10.818000	25.220092	0.000888	20.917730
1225.340970	-2.989300	3.581300	-10.704000	25.206869	0.000888	20.924843
1226.339275	-2.990100	3.580600	-10.704000	25.229316	0.000891	20.943108
1227.339544	-2.990700	3.578000	-10.700000	25.253302	0.000892	20.935897
1228.339865	-2.990900	3.579400	-10.705000	25.258473	0.000890	20.938718
1229.343866	-3.009000	3.578000	-10.765000	25.283950	0.000888	20.922099
1230.335644	-3.011000	3.577300	-10.770000	25.276071	0.000892	20.926041
1231.338157	-3.007200	3.577600	-10.757000	25.282186	0.000887	20.927439
1232.354496	-2.972200	3.576400	-10.628000	25.223749	0.000887	20.935150
1233.340182	-2.996700	3.576600	-10.717000	25.231580	0.000886	20.920254
1234.336002	-2.968800	3.576400	-10.616000	25.254001	0.000885	20.925694
1235.335915	-2.992100	3.574900	-10.695000	25.262924	0.000884	20.930859
1236.338919	-3.007800	3.574000	-10.748000	25.263547	0.000884	20.936225
1237.343311	-3.022400	3.574400	-10.801000	25.234018	0.000886	20.944984
1238.344496	-3.006800	3.575600	-10.750000	25.257880	0.000882	20.932907
1239.341851	-2.998600	3.574300	-10.717000	25.258700	0.000882	20.949375
1240.335568	-2.995500	3.572700	-10.701000	25.271203	0.000883	20.923051
1241.339102	-2.997900	3.573900	-10.713000	25.258526	0.000883	20.930237
1242.342367	-3.002500	3.572600	-10.725000	25.306174	0.000882	20.915964
1243.334970	-3.010600	3.571300	-10.751000	25.304261	0.000881	20.944385
1244.337962	-2.980600	3.573800	-10.650000	25.303813	0.000881	20.947255
1245.339802	-2.997100	3.571700	-10.703000	25.267600	0.000881	20.953095
1246.340358	-2.981300	3.573100	-10.651000	25.258054	0.000880	20.959157
1247.337447	-2.979200	3.573000	-10.644000	25.257532	0.000881	20.953892
1248.340493	-3.001300	3.571000	-10.717000	25.257508	0.000879	20.941068
1249.344048	-2.985800	3.572700	-10.665000	25.212966	0.000881	20.950400
1250.341123	-3.016100	3.570300	-10.768000	25.191414	0.000880	20.929240
1251.342713	-2.991100	3.571400	-10.681000	25.195541	0.000875	20.944287
1252.337328	-2.998800	3.571100	-10.708000	25.193999	0.000876	20.941317
1253.341170	-3.014400	3.568600	-10.755000	25.192559	0.000872	20.962628
1254.338078	-3.018900	3.568200	-10.771000	25.190147	0.000877	20.954043
1255.337039	-2.970600	3.570800	-10.606000	25.207398	0.000877	20.963301
1256.339561	-3.007300	3.567700	-10.729000	25.220821	0.000877	20.956864
1257.338468	-2.991500	3.569700	-10.677000	25.212072	0.000872	20.951874
1258.344634	-2.997200	3.569500	-10.698000	25.204043	0.000872	20.963726
1259.341725	-3.016500	3.567600	-10.760000	25.204690	0.000873	20.967694
1260.344497	-2.995800	3.568800	-10.689000	25.188284	0.000874	20.957389
1261.343906	-2.996300	3.567800	-10.689000	25.181325	0.000874	20.933335
1262.344971	-2.997400	3.567000	-10.691000	25.194499	0.000874	20.959834
1263.344647	-2.993500	3.566400	-10.674000	25.191344	0.000876	20.977053
1264.342506	-3.025600	3.565200	-10.786000	25.219234	0.000873	20.976129
1265.344447	-2.992200	3.565700	-10.666000	25.238449	0.000869	20.972188
1266.342595	-3.013700	3.565000	-10.742000	25.266386	0.000871	20.974158
1267.344914	-2.991700	3.565100	-10.665000	25.291267	0.000871	20.955520
1268.344514	-2.997700	3.565400	-10.686000	25.250058	0.000871	20.964405
1269.348828	-3.026100	3.563600	-10.783000	25.252693	0.000870	20.954723
1270.349687	-2.984500	3.566500	-10.643000	25.257666	0.000869	20.965404
1271.348813	-3.002000	3.564000	-10.699000	25.230522	0.000870	20.964231
1272.346753	-2.992800	3.564200	-10.666000	25.238725	0.000870	20.938331
1273.348467	-2.996600	3.565500	-10.683000	25.257717	0.000867	20.948388
1274.352534	-2.984300	3.564900	-10.638000	25.287617	0.000868	20.958019
1275.356400	-2.998400	3.564700	-10.687000	25.267286	0.000867	20.960839
1276.347627	-2.984900	3.563400	-10.636000	25.275092	0.000863	20.950186
1277.351045	-2.978800	3.563300	-10.614000	25.268505	0.000865	20.952107
1278.355984	-3.006800	3.561100	-10.705000	25.272233	0.000863	20.937360
1279.353127	-3.007200	3.562100	-10.710000	25.302061	0.000864	20.958770
1280.357600	-3.004200	3.562200	-10.700000	25.315979	0.000865	20.948564
1281.355247	-3.004600	3.560600	-10.697000	25.298656	0.000862	20.961989
1282.357456	-3.009000	3.561700	-10.716000	25.283172	0.000864	20.956401
1283.352594	-3.005900	3.560300	-10.700000	25.292144	0.000863	20.942651
1284.351110	-3.022600	3.559100	-10.757000	25.255111	0.000863	20.937712
1285.359748	-2.990400	3.561200	-10.648000	25.275741	0.000863	20.954630
1286.353950	-2.986600	3.560300	-10.632000	25.223046	0.000863	20.939185
1287.351507	-2.998700	3.558300	-10.668000	25.241837	0.000860	20.963263
1288.353355	-3.012100	3.559300	-10.720000	25.258318	0.000860	20.953733
1289.355295	-2.979100	3.559500	-10.603000	25.244622	0.000859	20.940458
1290.355379	-2.997200	3.559300	-10.667000	25.238633	0.000856	20.948195
1291.358291	-3.012500	3.557500	-10.715000	25.203634	0.000857	20.938662
1292.356481	-3.000900	3.559000	-10.679000	25.231972	0.000857	20.942456
1293.357335	-3.006900	3.556900	-10.694000	25.242139	0.000857	20.933224
1294.362113	-2.992900	3.558400	-10.648000	25.284245	0.000856	20.941359
1295.357375	-2.996000	3.555700	-10.652000	25.283624	0.000854	20.948321
1296.360022	-2.989200	3.558000	-10.634000	25.300874	0.000855	20.932926
1297.357810	-2.971000	3.558400	-10.571000	25.278478	0.000855	20.934147
1298.360477	-2.989100	3.556800	-10.631000	25.285613	0.000852	20.923768
1299.359260	-3.023400	3.554500	-10.745000	25.276641	0.000853	20.923769
1300.358492	-2.971600	3.558000	-10.571000	25.329681	0.000852	20.938141
1301.358037	-2.998000	3.555700	-10.659000	25.337661	0.000853	20.907750
1302.360682	-2.996000	3.556300	-10.654000	25.372978	0.000853	20.910969
1303.361972	-3.000500	3.554700	-10.664000	25.343501	0.000852	20.924517
1304.356623	-2.980900	3.554600	-10.596000	25.336367	0.000852	20.916882
1305.359026	-3.003600	3.554000	-10.673000	25.353119	0.000849	20.930856
1306.362139	-2.992000	3.554900	-10.636000	25.311538	0.000853	20.926564
1307.364990	-3.010700	3.554100	-10.699000	25.275398	0.000849	20.933425
1308.363275	-3.013300	3.552900	-10.705000	25.251909	0.000851	20.933550
1309.367126	-2.982000	3.553200	-10.595000	25.206396	0.000847	20.919626
1310.362797	-2.985200	3.553100	-10.606000	25.233390	0.000847	20.906425
1311.361031	-3.000100	3.553000	-10.658000	25.238536	0.000847	20.927711
1312.366092	-2.989800	3.552000	-10.617000	25.244402	0.000845	20.918902
1313.361478	-3.004400	3.550700	-10.665000	25.238311	0.000848	20.932700
1314.364933	-2.992100	3.550900	-10.623000	25.253299	0.000845	20.920722
1315.365951	-2.998100	3.552200	-10.649000	25.270399	0.000844	20.905650
1316.362282	-3.017400	3.549800	-10.710000	25.314666	0.000845	20.934919
1317.363028	-3.005100	3.552100	-10.674000	25.346927	0.000844	20.921794
1318.364084	-2.998200	3.550200	-10.643000	25.363007	0.000843	20.910440
1319.362846	-3.012400	3.549600	-10.691000	25.363926	0.000844	20.918474
1320.361608	-2.996200	3.549300	-10.634000	25.389277	0.000841	20.914059
1321.363091	-2.985900	3.549900	-10.598000	25.425884	0.000841	20.898187
1322.362121	-2.981000	3.549100	-10.579000	25.402671	0.000840	20.911387
1323.370071	-3.023700	3.549200	-10.730000	25.360942	0.000840	20.918323
1324.363163	-3.009100	3.547200	-10.673000	25.351298	0.000838	20.903426
1325.375612	-2.998900	3.547700	-10.638000	25.335838	0.000840	20.899757
1326.374411	-3.022300	3.546800	-10.718000	25.309666	0.000839	20.895764
1327.368386	-3.007300	3.546500	-10.664000	25.325521	0.000837	20.897459
1328.372012	-2.999000	3.547600	-10.638000	25.329870	0.000836	20.927427
1329.374154	-3.010000	3.546800	-10.675000	25.333201	0.000836	20.899479
1330.370992	-3.002900	3.546700	-10.649000	25.365013	0.000835	20.900127
1331.371512	-3.006500	3.546500	-10.661000	25.325643	0.000837	20.901848
1332.372519	-2.999600	3.546000	-10.636000	25.337497	0.000837	20.893363
1333.367299	-2.989500	3.546800	-10.602000	25.307372	0.000837	20.902470
1334.376194	-2.980600	3.545800	-10.565000	25.297032	0.000836	20.880709
1335.371768	-2.987400	3.545600	-10.591000	25.276600	0.000837	20.882481
1336.374365	-2.986500	3.543700	-10.582000	25.287113	0.000834	20.901095
1337.375072	-2.984900	3.546100	-10.584000	25.251643	0.000831	20.905311
1338.370719	-2.992200	3.544300	-10.604000	25.247317	0.000832	20.876788
1339.375687	-2.995900	3.542900	-10.613000	25.245004	0.000832	20.875889
1340.370761	-2.989700	3.543300	-10.593000	25.267249	0.000832	20.904384
1341.374442	-2.971900	3.544300	-10.532000	25.333289	0.000833	20.865906
1342.373011	-2.971600	3.543000	-10.528000	25.332021	0.000832	20.872218
1343.392364	-2.995400	3.543700	-10.614000	25.355930	0.000830	20.886741
1344.372746	-2.998500	3.541200	-10.617000	25.377428	0.000834	20.890783
1345.380588	-2.997400	3.542500	-10.617000	25.407226	0.000830	20.881824
1346.380944	-2.988100	3.541000	-10.578000	25.416173	0.000831	20.885592
1347.375902	-2.988200	3.542200	-10.583000	25.382620	0.000831	20.887936
1348.379147	-3.009800	3.541800	-10.660000	25.391020	0.000829	20.885466
1349.383235	-3.027300	3.540400	-10.717000	25.399321	0.000830	20.880998
1350.381413	-2.984800	3.541500	-10.570000	25.401955	0.000828	20.884591
1351.379520	-2.998200	3.540400	-10.613000	25.396313	0.000828	20.898366
1352.377454	-2.990200	3.539600	-10.583000	25.401508	0.000826	20.891729
1353.379247	-3.005600	3.537700	-10.631000	25.441643	0.000825	20.876081
1354.380062	-2.997400	3.538900	-10.606000	25.436375	0.000826	20.866525
1355.380968	-3.001500	3.537400	-10.617000	25.453821	0.000825	20.868870
1356.384861	-2.985400	3.538800	-10.563000	25.468557	0.000825	20.859961
1357.381398	-2.995800	3.537300	-10.596000	25.433119	0.000823	20.898339
1358.381878	-2.986800	3.538000	-10.566000	25.412193	0.000825	20.882544
1359.382096	-3.025800	3.535100	-10.695000	25.431951	0.000823	20.890056
1360.380775	-2.994500	3.538000	-10.594000	25.416592	0.000823	20.879375
1361.381409	-3.014400	3.537200	-10.662000	25.354061	0.000826	20.867322
1362.380954	-3.016700	3.534800	-10.662000	25.348743	0.000822	20.868620
1363.381685	-3.008400	3.536200	-10.636000	25.342280	0.000823	20.876355
1364.379504	-2.974300	3.537600	-10.520000	25.354186	0.000822	20.868870
1365.379363	-3.022300	3.533400	-10.678000	25.353663	0.000821	20.854595
1366.379691	-2.991800	3.535700	-10.577000	25.365246	0.000823	20.864328
1367.383938	-2.971000	3.535500	-10.503000	25.378865	0.000820	20.888433
1368.381282	-2.978800	3.535100	-10.529000	25.384657	0.000820	20.850629
1369.380706	-2.993100	3.534200	-10.577000	25.388485	0.000819	20.871541
1370.383792	-3.016700	3.533800	-10.658000	25.393877	0.000817	20.858939
1371.383459	-2.993800	3.534600	-10.581000	25.351056	0.000817	20.858141
1372.384097	-3.015200	3.533200	-10.652000	25.340394	0.000817	20.878255
1373.384517	-2.990900	3.531900	-10.562000	25.386174	0.000816	20.864479
1374.385242	-3.009800	3.533100	-10.633000	25.401584	0.000813	20.862410
1375.383816	-2.986500	3.533700	-10.552000	25.417117	0.000817	20.884169
1376.381640	-2.992300	3.532300	-10.569000	25.402156	0.000817	20.853975
1377.383061	-3.016700	3.530900	-10.650000	25.439709	0.000816	20.875087
1378.387062	-3.004600	3.532800	-10.613000	25.411575	0.000817	20.878131
1379.386716	-2.980200	3.532800	-10.528000	25.429395	0.000816	20.877059
1380.385835	-2.994200	3.530500	-10.570000	25.455962	0.000815	20.868175
1381.386909	-2.998900	3.529600	-10.583000	25.453477	0.000815	20.860938
1382.387992	-2.998200	3.530700	-10.585000	25.446768	0.000815	20.858469
1383.383416	-2.998400	3.530200	-10.584000	25.463468	0.000813	20.862911
1384.385951	-2.994200	3.529300	-10.566000	25.445700	0.000810	20.851707
1385.389968	-2.999900	3.529900	-10.589000	25.435859	0.000809	20.858420
1386.383567	-3.002400	3.529200	-10.595000	25.402259	0.000809	20.856449
1387.388422	-3.008000	3.527900	-10.611000	25.404073	0.000810	20.881503
1388.387761	-2.990200	3.528300	-10.549000	25.417295	0.000810	20.872969
1389.389912	-3.003400	3.528400	-10.595000	25.430120	0.000809	20.865459
1390.389605	-3.000300	3.526200	-10.579000	25.459046	0.000807	20.861316
1391.386736	-3.001300	3.527800	-10.586000	25.459122	0.000810	20.859021
1392.383459	-2.999700	3.527500	-10.580000	25.459942	0.000808	20.854629
1393.390974	-3.012300	3.526000	-10.620000	25.438073	0.000808	20.857799
1394.389154	-2.992000	3.525400	-10.547000	25.409643	0.000806	20.861493
1395.388009	-3.013200	3.524200	-10.618000	25.416949	0.000807	20.852709
1396.386374	-3.019100	3.525200	-10.641000	25.417770	0.000805	20.861593
1397.387385	-2.973200	3.526500	-10.484000	25.436882	0.000803	20.862292
1398.386754	-2.995200	3.522900	-10.551000	25.426992	0.000806	20.848095
1399.392180	-2.997900	3.523800	-10.563000	25.440412	0.000804	20.844500
1400.386947	-2.990100	3.523900	-10.536000	25.412901	0.000802	20.862868
1401.388610	-3.022400	3.522500	-10.645000	25.453559	0.000802	20.854383
1402.386914	-2.999300	3.523000	-10.566000	25.438697	0.000800	20.842779
1403.389143	-3.016100	3.523500	-10.627000	25.407309	0.000802	20.838762
1404.396904	-3.016500	3.521600	-10.621000	25.391056	0.000803	20.856580
1405.396520	-3.020800	3.522300	-10.640000	25.347067	0.000799	20.856507
1406.394388	-3.008100	3.521500	-10.592000	25.304964	0.000799	20.850743
1407.392260	-3.005400	3.521800	-10.584000	25.307797	0.000801	20.838889
1408.388322	-3.027100	3.522400	-10.661000	25.280159	0.000799	20.863295
1409.393150	-2.987000	3.521600	-10.518000	25.314311	0.000801	20.859653
1410.402052	-2.962500	3.522400	-10.434000	25.314334	0.000802	20.844978
1411.393633	-2.992700	3.519900	-10.533000	25.343317	0.000798	20.833302
1412.397727	-2.997600	3.520600	-10.552000	25.369786	0.000799	20.846129
1413.395378	-2.993700	3.520700	-10.539000	25.394243	0.000799	20.828487
1414.397305	-3.001600	3.520600	-10.566000	25.438554	0.000798	20.839317
1415.394324	-2.995600	3.520000	-10.544000	25.440097	0.000797	20.846555
1416.396819	-3.007300	3.519400	-10.582000	25.421160	0.000796	20.845558
1417.392678	-3.000300	3.519400	-10.558000	25.379060	0.000795	20.844535
1418.396514	-3.000200	3.518300	-10.554000	25.373866	0.000795	20.845958
1419.398002	-2.973700	3.518400	-10.460000	25.396583	0.000796	20.849328
1420.401266	-3.020100	3.516600	-10.619000	25.418504	0.000794	20.839097
1421.396494	-2.972900	3.516700	-10.453000	25.434931	0.000793	20.857489
1422.396344	-3.006900	3.517900	-10.577000	25.453273	0.000795	20.869268
1423.398510	-2.995200	3.516700	-10.532000	25.493582	0.000791	20.849530
1424.398241	-2.984900	3.516400	-10.495000	25.490003	0.000795	20.862530
1425.397914	-2.992300	3.515000	-10.517000	25.495347	0.000792	20.859837
1426.395855	-2.980400	3.516200	-10.478000	25.472485	0.000792	20.840672
1427.393431	-3.015100	3.514400	-10.595000	25.435555	0.000794	20.835357
1428.392446	-3.000700	3.515100	-10.547000	25.394996	0.000791	20.861484
1429.395117	-3.015400	3.513700	-10.593000	25.393954	0.000788	20.835309
1430.400101	-2.999300	3.512800	-10.533000	25.438489	0.000787	20.839725
1431.400626	-3.022100	3.513800	-10.618000	25.426362	0.000788	20.832289
1432.400536	-3.002200	3.513400	-10.546000	25.455587	0.000788	20.845515
1433.405968	-3.003000	3.513500	-10.550000	25.469282	0.000791	20.847413
1434.399307	-3.005300	3.511200	-10.551000	25.473854	0.000786	20.848685
1435.398335	-2.978200	3.512500	-10.461000	25.463913	0.000789	20.850082
1436.399263	-3.007600	3.511100	-10.559000	25.483969	0.000785	20.832290
1437.397735	-2.988500	3.512700	-10.496000	25.465704	0.000787	20.834337
1438.400466	-3.027400	3.509900	-10.625000	25.447637	0.000786	20.856023
1439.415523	-3.021200	3.509500	-10.601000	25.389109	0.000785	20.854625
1440.402208	-3.009600	3.511200	-10.566000	25.395497	0.000784	20.828323
1441.406090	-3.006100	3.510700	-10.552000	25.392687	0.000783	20.837356
1442.403092	-2.966400	3.511100	-10.415000	25.377353	0.000783	20.851830
1443.410957	-3.030600	3.509900	-10.635000	25.368853	0.000782	20.825752
1444.405379	-2.953000	3.512700	-10.372000	25.397956	0.000780	20.827474
1445.401572	-3.008900	3.509400	-10.559000	25.408320	0.000783	20.815595
1446.400417	-3.018200	3.507000	-10.583000	25.464485	0.000781	20.836433
1447.401975	-3.005700	3.508500	-10.545000	25.484588	0.000783	20.815843
1448.408586	-3.013400	3.508800	-10.572000	25.499921	0.000781	20.833612
1449.407314	-3.001000	3.508200	-10.526000	25.506234	0.000782	20.832364
1450.404899	-3.008100	3.507600	-10.549000	25.521988	0.000776	20.833486
1451.406612	-2.988400	3.508300	-10.483000	25.508468	0.000776	20.811374
1452.405200	-2.994700	3.508000	-10.504000	25.491496	0.000777	20.822780
1453.407994	-3.003300	3.505700	-10.528000	25.492936	0.000777	20.822804
1454.405693	-2.989800	3.507200	-10.485000	25.510158	0.000776	20.811650
1455.402412	-2.997200	3.506200	-10.507000	25.532622	0.000778	20.817139
1456.407541	-2.985700	3.506000	-10.467000	25.551060	0.000771	20.834706
1457.408270	-3.005300	3.506100	-10.537000	25.572007	0.000775	20.829191
1458.406311	-2.995500	3.504400	-10.497000	25.562713	0.000776	20.813694
1459.406440	-2.978600	3.504400	-10.436000	25.542585	0.000775	20.808652
1460.407994	-2.997400	3.503700	-10.501000	25.538088	0.000773	20.803188
1461.410029	-3.015800	3.502800	-10.562000	25.519821	0.000772	20.807603
1462.415734	-2.983300	3.505100	-10.456000	25.515001	0.000774	20.810349
1463.406460	-2.998100	3.504000	-10.504000	25.523848	0.000774	20.809277
1464.409911	-2.996800	3.503600	-10.499000	25.516343	0.000773	20.815489
1465.415509	-2.993800	3.502700	-10.485000	25.499296	0.000772	20.800268
1466.409592	-2.983400	3.502900	-10.449000	25.505558	0.000771	20.812719
1467.414891	-3.016100	3.501200	-10.559000	25.475935	0.000773	20.815214
1468.417233	-3.000300	3.501100	-10.502000	25.455805	0.000769	20.814914
1469.409018	-3.005200	3.500900	-10.520000	25.445393	0.000770	20.809674
1470.412718	-3.008200	3.499400	-10.526000	25.433488	0.000772	20.812419
1471.411454	-2.998300	3.499900	-10.492000	25.426505	0.000770	20.819157
1472.412811	-3.012800	3.499200	-10.541000	25.430456	0.000769	20.819805
1473.411106	-2.997600	3.499400	-10.488000	25.445392	0.000770	20.817734
1474.409883	-3.025500	3.498800	-10.584000	25.441912	0.000769	20.813766
1475.409730	-2.978400	3.499600	-10.421000	25.463559	0.000766	20.816537
1476.413410	-2.997500	3.498600	-10.485000	25.458364	0.000767	20.817958
1477.419883	-3.015300	3.498700	-10.549000	25.481922	0.000766	20.813640
1478.417918	-3.017800	3.496900	-10.551000	25.515271	0.000765	20.804931
1479.416612	-3.015200	3.497700	-10.546000	25.488831	0.000767	20.792129
1480.420434	-2.993600	3.497000	-10.468000	25.513282	0.000763	20.802933
1481.417649	-2.990400	3.496200	-10.454000	25.516985	0.000762	20.809022
1482.415641	-2.985500	3.496100	-10.437000	25.533808	0.000764	20.815485
1483.423658	-2.993700	3.495400	-10.463000	25.540641	0.000762	20.802433
1484.420322	-3.025200	3.494400	-10.570000	25.561365	0.000763	20.810917
1485.417696	-3.006900	3.495800	-10.510000	25.550779	0.000764	20.792225
1486.415789	-3.015900	3.494600	-10.539000	25.514447	0.000765	20.800310
1487.417763	-3.019100	3.494400	-10.548000	25.510321	0.000762	20.810865
1488.418893	-2.990300	3.492900	-10.442000	25.473963	0.000760	20.810864
1489.422405	-2.995300	3.494400	-10.465000	25.444662	0.000761	20.790923
1490.434543	-3.011100	3.494100	-10.519000	25.456542	0.000762	20.783886
1491.420659	-2.996800	3.494100	-10.469000	25.462654	0.000760	20.780067
1492.426585	-3.006000	3.492600	-10.497000	25.476894	0.000757	20.781090
1493.423241	-3.017700	3.492900	-10.539000	25.453980	0.000760	20.794116
1494.431309	-2.990200	3.492300	-10.441000	25.485267	0.000761	20.781912
1495.427098	-3.008800	3.491400	-10.504000	25.487702	0.000759	20.768235
1496.423853	-2.989700	3.492000	-10.440000	25.501767	0.000759	20.801800
1497.421228	-2.987500	3.492700	-10.432000	25.473585	0.000758	20.795785
1498.420546	-3.024900	3.490700	-10.556000	25.487378	0.000759	20.794463
1499.423574	-2.991000	3.491300	-10.441000	25.498088	0.000758	20.790046
1500.428638	-3.006300	3.490800	-10.494000	25.439513	0.000758	20.797606
1501.424147	-2.967200	3.491300	-10.358000	25.445453	0.000758	20.796933
1502.425291	-2.995500	3.489300	-10.452000	25.418836	0.000756	20.787274
1503.426004	-3.004800	3.488900	-10.481000	25.410188	0.000754	20.778591
1504.424717	-3.000500	3.489300	-10.468000	25.431188	0.000756	20.787824
1505.428322	-2.993800	3.490000	-10.447000	25.425993	0.000756	20.793988
1506.425214	-2.990700	3.488800	-10.433000	25.430666	0.000754	20.790619
1507.426875	-3.002600	3.489000	-10.474000	25.461607	0.000753	20.794188
1508.427939	-2.992800	3.488200	-10.439000	25.481636	0.000755	20.786800
1509.423842	-3.002100	3.486700	-10.465000	25.506687	0.000755	20.780662
1510.428197	-2.994600	3.486500	-10.440000	25.519583	0.000753	20.784605
1511.428674	-3.013000	3.485900	-10.502000	25.523187	0.000751	20.800078
1512.427886	-3.001600	3.486300	-10.464000	25.530543	0.000753	20.789447
1513.427513	-3.024900	3.486200	-10.544000	25.500623	0.000752	20.784531
1514.427108	-3.002100	3.485900	-10.463000	25.489665	0.000751	20.784432
1515.427389	-3.009100	3.485100	-10.485000	25.504029	0.000752	20.795537
1516.427944	-3.002300	3.484000	-10.459000	25.499481	0.000749	20.801401
1517.429108	-3.001300	3.484700	-10.458000	25.499332	0.000748	20.798407
1518.431155	-2.979300	3.483900	-10.378000	25.471574	0.000747	20.789499
1519.429635	-2.993900	3.483300	-10.428000	25.478061	0.000751	20.785581
1520.429349	-2.995600	3.483900	-10.435000	25.482707	0.000749	20.805420
1521.432614	-2.998300	3.483200	-10.442000	25.535714	0.000748	20.783261
1522.431349	-2.993900	3.482800	-10.426000	25.532633	0.000746	20.790124
1523.431221	-3.008600	3.481600	-10.474000	25.553209	0.000746	20.782338
1524.431694	-2.995900	3.481700	-10.430000	25.570703	0.000743	20.798011
1525.428688	-3.004900	3.480300	-10.457000	25.559347	0.000745	20.792770
1526.431522	-3.023700	3.479300	-10.518000	25.596994	0.000746	20.779844
1527.434511	-3.012900	3.480200	-10.484000	25.581886	0.000746	20.802603
1528.432798	-3.034200	3.479700	-10.557000	25.628427	0.000746	20.802404
1529.433660	-3.004500	3.479500	-10.453000	25.598038	0.000746	20.786108
1530.433130	-3.013400	3.479600	-10.484000	25.533729	0.000742	20.797389
1531.430425	-2.999800	3.478300	-10.433000	25.512111	0.000744	20.775204
1532.433732	-3.030300	3.477200	-10.536000	25.529059	0.000745	20.805500
1533.430519	-2.995800	3.479400	-10.422000	25.538826	0.000744	20.802981
1534.432043	-2.982300	3.478900	-10.373000	25.544691	0.000743	20.794646
1535.434967	-3.007600	3.478100	-10.459000	25.510945	0.000743	20.788732
1536.438633	-3.022700	3.477400	-10.508000	25.523172	0.000740	20.818555
1537.441316	-3.023500	3.476200	-10.509000	25.520836	0.000741	20.783018
1538.439331	-2.993000	3.477700	-10.407000	25.534380	0.000740	20.789508
1539.438282	-2.997100	3.478700	-10.423000	25.562014	0.000740	20.807301
1540.435518	-3.004700	3.475500	-10.442000	25.531946	0.000740	20.796072
1541.437144	-3.005500	3.476200	-10.447000	25.568277	0.000739	20.799367
1542.435263	-3.019300	3.473700	-10.487000	25.566463	0.000740	20.807029
1543.438659	-2.986400	3.475900	-10.379000	25.532395	0.000739	20.786091
1544.436449	-2.993400	3.474700	-10.401000	25.505508	0.000737	20.788488
1545.436909	-2.960800	3.476600	-10.292000	25.504091	0.000737	20.785169
1546.437882	-2.995100	3.473000	-10.400000	25.505434	0.000739	20.795052
1547.437001	-2.982900	3.473700	-10.361000	25.538337	0.000737	20.795377
1548.442861	-3.008200	3.472800	-10.445000	25.571511	0.000736	20.788390
1549.437767	-3.009600	3.471200	-10.446000	25.591589	0.000735	20.822305
1550.440817	-2.993400	3.473600	-10.396000	25.591291	0.000737	20.817264
1551.438189	-3.010900	3.472800	-10.454000	25.588658	0.000736	20.818413
1552.441635	-3.001900	3.470800	-10.418000	25.591043	0.000737	20.800420
1553.440454	-2.992300	3.471600	-10.387000	25.568456	0.000736	20.814246
1554.441238	-2.986400	3.470200	-10.362000	25.528276	0.000735	20.796179
1555.440037	-3.006900	3.469100	-10.430000	25.527406	0.000731	20.813323
1556.439069	-2.991500	3.471100	-10.383000	25.523904	0.000734	20.800324
1557.441454	-2.992000	3.470200	-10.381000	25.558519	0.000731	20.799524
1558.439892	-3.000900	3.469600	-10.411000	25.559588	0.000734	20.812451
1559.447837	-2.993700	3.468900	-10.384000	25.567839	0.000732	20.813152
1560.441580	-3.000100	3.469300	-10.407000	25.562844	0.000734	20.809084
1561.449827	-2.998600	3.467600	-10.397000	25.567615	0.000732	20.832841
1562.440884	-3.005700	3.466800	-10.418000	25.585484	0.000730	20.818070
1563.444146	-3.017300	3.467700	-10.462000	25.608195	0.000730	20.820965
1564.443953	-2.989400	3.467000	-10.364000	25.612321	0.000730	20.815151
1565.447347	-2.988300	3.467300	-10.361000	25.629317	0.000729	20.818944
1566.442633	-3.025500	3.467400	-10.490000	25.616396	0.000728	20.810236
1567.443020	-3.009500	3.467900	-10.435000	25.618757	0.000726	20.814503
1568.444757	-2.980800	3.466700	-10.332000	25.609838	0.000729	20.815977
1569.439685	-3.015800	3.465300	-10.449000	25.590755	0.000726	20.824786
1570.444632	-2.981000	3.466400	-10.333000	25.591353	0.000729	20.832499
1571.443163	-3.009000	3.464400	-10.422000	25.564119	0.000727	20.813683
1572.444746	-3.014600	3.463900	-10.441000	25.536684	0.000725	20.823115
1573.445986	-2.996800	3.464500	-10.381000	25.552936	0.000723	20.810513
1574.443827	-2.998700	3.465000	-10.389000	25.563896	0.000722	20.825787
1575.445088	-2.984200	3.463600	-10.335000	25.564692	0.000726	20.848397
1576.443864	-2.980500	3.463900	-10.322000	25.583876	0.000722	20.848697
1577.445211	-3.005700	3.464000	-10.410000	25.583331	0.000723	20.829184
1578.441518	-2.988400	3.463800	-10.351000	25.569265	0.000723	20.824541
1579.446314	-3.008500	3.462600	-10.416000	25.552295	0.000720	20.816507
1580.444626	-2.999600	3.462400	-10.385000	25.542182	0.000719	20.840489
1581.444629	-2.998600	3.462300	-10.380000	25.489947	0.000723	20.816009
1582.450330	-3.019400	3.458000	-10.441000	25.495142	0.000721	20.815062
1583.445287	-2.991200	3.461000	-10.352000	25.478789	0.000721	20.843684
1584.446306	-3.008000	3.458700	-10.402000	25.492831	0.000719	20.851147
1585.446310	-3.020900	3.458600	-10.447000	25.508364	0.000720	20.827391
1586.454425	-2.988800	3.458600	-10.336000	25.517932	0.000720	20.830835
1587.445990	-3.002500	3.459500	-10.387000	25.498673	0.000717	20.835677
1588.443256	-3.003200	3.459500	-10.389000	25.474817	0.000718	20.833531
1589.442446	-3.000300	3.459200	-10.377000	25.470293	0.000718	20.849851
1590.443270	-3.007300	3.458500	-10.399000	25.508217	0.000717	20.841942
1591.451779	-2.998200	3.458400	-10.367000	25.543454	0.000719	20.833232
1592.446752	-3.003700	3.457100	-10.382000	25.564279	0.000716	20.843714
1593.449519	-2.986900	3.456500	-10.322000	25.574045	0.000715	20.840721
1594.443952	-2.977100	3.456400	-10.289000	25.544449	0.000717	20.852249
1595.443462	-2.990100	3.457300	-10.337000	25.569746	0.000714	20.846360
1596.446471	-2.988900	3.455700	-10.327000	25.609728	0.000713	20.835780
1597.445358	-2.994100	3.455900	-10.346000	25.600509	0.000715	20.852125
1598.442572	-2.984800	3.455100	-10.311000	25.635471	0.000714	20.840298
1599.441333	-3.007900	3.454200	-10.389000	25.650652	0.000714	20.844165
1600.446821	-2.994500	3.453700	-10.341000	25.660170	0.000715	20.856094
1601.442466	-3.006000	3.453600	-10.380000	25.662306	0.000713	20.843068
1602.447478	-2.997100	3.454400	-10.352000	25.696495	0.000712	20.847061
1603.446190	-2.996500	3.451900	-10.342000	25.697986	0.000711	20.854722
1604.448770	-2.983000	3.453800	-10.300000	25.735751	0.000712	20.858515
1605.447165	-3.002600	3.452200	-10.365000	25.716496	0.000712	20.851503
1606.448435	-3.005100	3.451700	-10.371000	25.719603	0.000710	20.860313
1607.453428	-3.011800	3.451500	-10.394000	25.741517	0.000709	20.872366
1608.444937	-3.020700	3.450700	-10.422000	25.765344	0.000711	20.856945
1609.447567	-2.994000	3.451700	-10.334000	25.726112	0.000707	20.867325
1610.444541	-3.010600	3.450200	-10.385000	25.683155	0.000709	20.839826
1611.449772	-2.997400	3.450400	-10.341000	25.669689	0.000706	20.866129
1612.449786	-2.985100	3.450100	-10.298000	25.647451	0.000706	20.870820
1613.453340	-2.993300	3.449700	-10.325000	25.661316	0.000707	20.846815
1614.453143	-3.020800	3.448900	-10.417000	25.649490	0.000706	20.858170
1615.447652	-2.998700	3.449600	-10.342000	25.600813	0.000706	20.874240
1616.451737	-3.004600	3.449200	-10.363000	25.586475	0.000705	20.850833
1617.452764	-2.996900	3.449500	-10.337000	25.580412	0.000706	20.868451
1618.450694	-3.014000	3.446700	-10.387000	25.623351	0.000703	20.867005
1619.449829	-3.020200	3.446800	-10.410000	25.632843	0.000703	20.876063
1620.457939	-2.980600	3.448900	-10.278000	25.639875	0.000705	20.863686
1621.452306	-2.990300	3.447200	-10.308000	25.649666	0.000704	20.878260
1622.454349	-3.001300	3.445600	-10.341000	25.696402	0.000703	20.860243
1623.454890	-3.028000	3.446100	-10.434000	25.711807	0.000701	20.871922
1624.456250	-2.987700	3.444500	-10.290000	25.715856	0.000702	20.857498
1625.456408	-3.007000	3.444500	-10.357000	25.731710	0.000700	20.875792
1626.454532	-3.006900	3.445100	-10.358000	25.706913	0.000699	20.875067
1627.454667	-2.981800	3.447400	-10.278000	25.676453	0.000701	20.866758
1628.455052	-3.015100	3.442500	-10.379000	25.668254	0.000704	20.865636
1629.454126	-3.010700	3.442900	-10.365000	25.665570	0.000699	20.870526
1630.462833	-3.003300	3.443900	-10.342000	25.649420	0.000699	20.871850
1631.459854	-2.998100	3.443600	-10.323000	25.661570	0.000698	20.882629
1632.459044	-3.003200	3.442800	-10.336000	25.679858	0.000699	20.884876
1633.457210	-2.990300	3.442700	-10.293000	25.698120	0.000699	20.872399
1634.459539	-3.004500	3.442000	-10.340000	25.720207	0.000697	20.869454
1635.457415	-2.987500	3.441400	-10.280000	25.748855	0.000697	20.889692
1636.460479	-2.989000	3.441700	-10.286000	25.762246	0.000697	20.878963
1637.458828	-3.008000	3.438800	-10.342000	25.774596	0.000695	20.890892
1638.455505	-2.983500	3.440900	-10.264000	25.771614	0.000696	20.881260
1639.455479	-2.982600	3.441500	-10.264000	25.781129	0.000695	20.876120
1640.458085	-3.014000	3.438900	-10.365000	25.769850	0.000696	20.876170
1641.455585	-3.001800	3.439600	-10.323000	25.788707	0.000694	20.875196
1642.458288	-2.990900	3.440300	-10.288000	25.784558	0.000695	20.903269
1643.460954	-3.020600	3.438000	-10.383000	25.792509	0.000695	20.870007
1644.470448	-2.999200	3.438600	-10.312000	25.796186	0.000692	20.885553
1645.459324	-3.023700	3.437900	-10.395000	25.811291	0.000694	20.875597
1646.456394	-3.010600	3.437300	-10.347000	25.813601	0.000692	20.888822
1647.456170	-3.026200	3.437100	-10.400000	25.768784	0.000691	20.895486
1648.457717	-3.025300	3.435700	-10.392000	25.726125	0.000690	20.870657
1649.457826	-3.027800	3.436200	-10.402000	25.692210	0.000692	20.872627
1650.458110	-3.001500	3.435300	-10.310000	25.688310	0.000692	20.881037
1651.460213	-2.984200	3.436100	-10.253000	25.679638	0.000690	20.907412
1652.464395	-3.004400	3.436100	-10.322000	25.690720	0.000691	20.889147
1653.457392	-2.993900	3.434800	-10.282000	25.710845	0.000692	20.918367
1654.469783	-3.020500	3.434600	-10.374000	25.738748	0.000690	20.899454
1655.465214	-3.001000	3.434600	-10.306000	25.730026	0.000688	20.886902
1656.462691	-3.010400	3.434200	-10.337000	25.699466	0.000685	20.911681
1657.462981	-3.000200	3.434900	-10.304000	25.676955	0.000689	20.885279
1658.459987	-3.008500	3.433100	-10.327000	25.634915	0.000689	20.898531
1659.462954	-3.002400	3.432400	-10.304000	25.636381	0.000684	20.898581
1660.463047	-3.001800	3.434000	-10.308000	25.637175	0.000687	20.884680
1661.461722	-2.999700	3.432600	-10.295000	25.648358	0.000684	20.897334
1662.458198	-3.010300	3.431800	-10.329000	25.648506	0.000684	20.885155
1663.458204	-2.998800	3.431900	-10.290000	25.663414	0.000686	20.900127
1664.460248	-2.992000	3.431100	-10.264000	25.673353	0.000687	20.892092
1665.464097	-2.997400	3.431100	-10.282000	25.654768	0.000687	20.915624
1666.465207	-3.010300	3.432300	-10.331000	25.674572	0.000685	20.910859
1667.462635	-2.979800	3.431900	-10.225000	25.634071	0.000682	20.907639
1668.466950	-3.017900	3.429900	-10.350000	25.666223	0.000683	20.901526
1669.461413	-2.997000	3.430400	-10.280000	25.668111	0.000687	20.892517
1670.463403	-3.029600	3.428600	-10.386000	25.649103	0.000682	20.908038
1671.468071	-2.997600	3.429900	-10.280000	25.628083	0.000683	20.912530
1672.469360	-2.970400	3.429900	-10.187000	25.615412	0.000681	20.911658
1673.469562	-2.992700	3.427800	-10.258000	25.600626	0.000680	20.909610
1674.465270	-3.010200	3.428500	-10.320000	25.606391	0.000683	20.906392
1675.465002	-2.989700	3.429400	-10.252000	25.603360	0.000683	20.906667
1676.464106	-2.984200	3.428100	-10.229000	25.583654	0.000681	20.941400
1677.468502	-2.996000	3.427400	-10.267000	25.608355	0.000679	20.939655
1678.467143	-3.004400	3.427600	-10.297000	25.598366	0.000679	20.909712
1679.471851	-3.034400	3.426800	-10.396000	25.604504	0.000680	20.897385
1680.472693	-3.007500	3.426300	-10.304000	25.614790	0.000679	20.923835
1681.473128	-3.019100	3.426800	-10.345000	25.628109	0.000677	20.918720
1682.478148	-2.981100	3.427000	-10.215000	25.656087	0.000677	20.917423
1683.472542	-3.001000	3.426000	-10.279000	25.690003	0.000676	20.908340
1684.474650	-3.015000	3.424900	-10.326000	25.714923	0.000678	20.912032
1685.470195	-2.995600	3.424500	-10.258000	25.738750	0.000679	20.915102
1686.472269	-2.997100	3.425100	-10.263000	25.760290	0.000677	20.919668
1687.470029	-3.008700	3.424200	-10.301000	25.790203	0.000676	20.913680
1688.479555	-2.992100	3.423600	-10.243000	25.793010	0.000675	20.919818
1689.472661	-3.017200	3.421600	-10.323000	25.771942	0.000674	20.928526
1690.475028	-3.001800	3.423000	-10.275000	25.815295	0.000676	20.943149
1691.473377	-2.998100	3.422300	-10.260000	25.811619	0.000674	20.931397
1692.474514	-3.021200	3.420700	-10.333000	25.799544	0.000675	20.904572
1693.480772	-3.004100	3.421200	-10.275000	25.824859	0.000673	20.930946
1694.479249	-3.013400	3.421000	-10.308000	25.848162	0.000674	20.933492
1695.483214	-3.008300	3.421800	-10.293000	25.820288	0.000671	20.932045
1696.475170	-2.998000	3.421500	-10.257000	25.806500	0.000672	20.935737
1697.476439	-3.012100	3.419500	-10.299000	25.814177	0.000671	20.940129
1698.474182	-2.999200	3.419200	-10.254000	25.796290	0.000670	20.923586
1699.476539	-3.007000	3.418800	-10.279000	25.764439	0.000670	20.935687
1700.476692	-3.002800	3.419200	-10.265000	25.767246	0.000673	20.954626
1701.477561	-2.988100	3.419600	-10.217000	25.787371	0.000671	20.941652
1702.478573	-2.994500	3.419400	-10.238000	25.771544	0.000669	20.955624
1703.474787	-3.008200	3.418400	-10.282000	25.741209	0.000667	20.957870
1704.485398	-3.015000	3.418900	-10.307000	25.708686	0.000668	20.959342
1705.476992	-2.982900	3.419000	-10.198000	25.695967	0.000670	20.947042
1706.481450	-3.019400	3.418100	-10.319000	25.711670	0.000668	20.950012
1707.477129	-3.002800	3.417500	-10.262000	25.726576	0.000670	20.929900
1708.479734	-3.033800	3.414800	-10.359000	25.755421	0.000667	20.930898
1709.485370	-2.960900	3.418900	-10.122000	25.762029	0.000667	20.948438
1710.485598	-3.010400	3.415800	-10.280000	25.721906	0.000668	20.929950
1711.483982	-3.008700	3.416700	-10.278000	25.709755	0.000665	20.962312
1712.477684	-2.992200	3.415600	-10.219000	25.711966	0.000664	20.946991
1713.482291	-3.022100	3.414400	-10.318000	25.707917	0.000665	20.954776
1714.481291	-2.998100	3.415700	-10.240000	25.711097	0.000663	20.947540
1715.485248	-3.028600	3.415000	-10.341000	25.720141	0.000664	20.952830
1716.479542	-2.990000	3.413800	-10.206000	25.723967	0.000664	20.949087
1717.482618	-2.998800	3.413800	-10.235000	25.742327	0.000661	20.948089
1718.483552	-2.993800	3.414900	-10.222000	25.746923	0.000662	20.955549
1719.483393	-3.004100	3.413500	-10.253000	25.740787	0.000661	20.952705
1720.488400	-3.018700	3.411900	-10.299000	25.716538	0.000661	20.955375
1721.483411	-3.011800	3.413800	-10.280000	25.703419	0.000660	20.969223
1722.493550	-3.007000	3.411700	-10.258000	25.705257	0.000661	20.958743
1723.481040	-2.989600	3.412400	-10.200000	25.725953	0.000660	20.956297
1724.479154	-3.014200	3.410700	-10.279000	25.789630	0.000659	20.960514
1725.485387	-2.999100	3.411500	-10.230000	25.796263	0.000658	20.968124
1726.484948	-3.017100	3.410800	-10.290000	25.780761	0.000659	20.951132
1727.486119	-2.997800	3.412400	-10.228000	25.771493	0.000658	20.971218
1728.485604	-3.004700	3.409500	-10.244000	25.818323	0.000657	20.982694
1729.483159	-2.989000	3.411000	-10.194000	25.784561	0.000659	20.957319
1730.481362	-3.003700	3.410000	-10.241000	25.804610	0.000657	20.976508
1731.492969	-3.005800	3.409500	-10.247000	25.793380	0.000655	20.967125
1732.483629	-2.972000	3.409200	-10.131000	25.780659	0.000655	20.959563
1733.483997	-3.015700	3.407500	-10.275000	25.754199	0.000655	20.960960
1734.486153	-2.988400	3.410000	-10.190000	25.777627	0.000653	20.964578
1735.487466	-3.013300	3.407900	-10.267000	25.792533	0.000654	20.996141
1736.493567	-2.991800	3.406400	-10.190000	25.829475	0.000652	20.969718
1737.488448	-3.006900	3.408400	-10.246000	25.814470	0.000653	20.971714
1738.490198	-3.000700	3.406500	-10.221000	25.841176	0.000651	20.967247
1739.486759	-2.995000	3.406300	-10.201000	25.821426	0.000649	20.978226
1740.490057	-2.998100	3.407100	-10.213000	25.833077	0.000650	20.974283
1741.492182	-2.998500	3.406200	-10.212000	25.838219	0.000649	20.968544
1742.493087	-2.973200	3.405800	-10.125000	25.822271	0.000651	20.956318
1743.491717	-3.014600	3.406200	-10.267000	25.842069	0.000651	20.968618
1744.495597	-3.003300	3.404800	-10.224000	25.833598	0.000649	20.961532
1745.496229	-3.007500	3.403700	-10.236000	25.866464	0.000649	20.965149
1746.489618	-3.010800	3.405800	-10.253000	25.836355	0.000649	20.958612
1747.494568	-3.024000	3.403000	-10.290000	25.826270	0.000648	20.976928
1748.511817	-2.994800	3.404300	-10.195000	25.839139	0.000649	20.980371
1749.501728	-2.998300	3.402500	-10.200000	25.850366	0.000649	20.951825
1750.494104	-2.989600	3.403200	-10.173000	25.866911	0.000646	20.951850
1751.491867	-2.987800	3.403900	-10.169000	25.882387	0.000647	20.950328
1752.498651	-3.007200	3.402300	-10.229000	25.877343	0.000647	20.958062
1753.498057	-3.007600	3.402800	-10.234000	25.871952	0.000645	20.952647
1754.500719	-3.010400	3.401300	-10.238000	25.878686	0.000646	20.955144
1755.494925	-3.018700	3.401400	-10.267000	25.862710	0.000646	20.966594
1756.495612	-2.996900	3.400800	-10.191000	25.909288	0.000646	20.954592
1757.494281	-3.006600	3.399300	-10.218000	25.904121	0.000644	20.953195
1758.499011	-2.995100	3.399800	-10.181000	25.917311	0.000644	20.962177
1759.497050	-3.016300	3.398800	-10.250000	25.918925	0.000644	20.959057
1760.500262	-2.973300	3.400200	-10.109000	25.934774	0.000644	20.955540
1761.497983	-3.001100	3.400200	-10.203000	25.931569	0.000641	20.959431
1762.500001	-3.039600	3.397300	-10.325000	25.919968	0.000643	20.942563
1763.497678	-3.004400	3.399600	-10.213000	25.904540	0.000644	20.930385
1764.498212	-3.005000	3.399000	-10.213000	25.911869	0.000644	20.943910
1765.497674	-2.999100	3.398400	-10.190000	25.903274	0.000641	20.949973
1766.494211	-3.022300	3.397500	-10.266000	25.872297	0.000641	20.946356
1767.498222	-3.019700	3.396000	-10.254000	25.852199	0.000640	20.938021
1768.502547	-3.024800	3.395700	-10.271000	25.863750	0.000639	20.938245
1769.497803	-3.031100	3.395800	-10.292000	25.858807	0.000641	20.948925
1770.498623	-2.995400	3.396500	-10.173000	25.835431	0.000640	20.933031
1771.498886	-2.985400	3.396400	-10.139000	25.828922	0.000636	20.930761
1772.496017	-2.997500	3.395200	-10.176000	25.809097	0.000639	20.925546
1773.499547	-3.007300	3.394700	-10.208000	25.767906	0.000639	20.942488
1774.502523	-2.993100	3.394200	-10.158000	25.741521	0.000638	20.931160
1775.495364	-2.984000	3.394200	-10.127000	25.708824	0.000636	20.931983
1776.500117	-3.019100	3.393800	-10.245000	25.690165	0.000638	20.936001
1777.496128	-3.001500	3.394600	-10.188000	25.672797	0.000636	20.939418
1778.496427	-3.005700	3.393400	-10.198000	25.671407	0.000636	20.929014
1779.498428	-3.024400	3.392300	-10.259000	25.698836	0.000635	20.929537
1780.497702	-3.020900	3.393000	-10.249000	25.744278	0.000636	20.937722
1781.499301	-3.009300	3.392700	-10.208000	25.792452	0.000632	20.925420
1782.503258	-3.002700	3.392700	-10.187000	25.803061	0.000634	20.915690
1783.501861	-3.003100	3.392600	-10.186000	25.836448	0.000633	20.914141
1784.499996	-2.986100	3.392000	-10.128000	25.849764	0.000634	20.917560
1785.507166	-2.998700	3.391600	-10.169000	25.862435	0.000631	20.899944
1786.502866	-2.993800	3.390500	-10.150000	25.847405	0.000631	20.921828
1787.504021	-3.005000	3.390300	-10.187000	25.870359	0.000632	20.928764
1788.503473	-3.000700	3.391700	-10.177000	25.855380	0.000631	20.896650
1789.503057	-3.005700	3.391000	-10.192000	25.827456	0.000630	20.934503
1790.503092	-3.004300	3.390200	-10.184000	25.860522	0.000629	20.935951
1791.499022	-2.990100	3.391700	-10.141000	25.827830	0.000630	20.923026
1792.502341	-2.991700	3.391000	-10.144000	25.819108	0.000629	20.914266
1793.500782	-3.022500	3.387500	-10.238000	25.839582	0.000630	20.897850
1794.504906	-2.998800	3.388300	-10.159000	25.822340	0.000628	20.903763
1795.504338	-2.986500	3.389000	-10.120000	25.794812	0.000628	20.922576
1796.506557	-3.010400	3.387600	-10.195000	25.818514	0.000625	20.925996
1797.504758	-2.991000	3.388700	-10.134000	25.837667	0.000625	20.922477
1798.504719	-3.006700	3.386600	-10.180000	25.823010	0.000625	20.919133
1799.505235	-3.014400	3.386900	-10.208000	25.793048	0.000624	20.910374
1800.500811	-2.967200	3.387400	-10.050000	25.766118	0.000625	20.902765
1801.503775	-3.005500	3.387100	-10.179000	25.764006	0.000624	20.905858
1802.500622	-3.013800	3.386200	-10.204000	25.790515	0.000623	20.899296
1803.505521	-2.973200	3.386700	-10.069000	25.773296	0.000623	20.928464
1804.504234	-2.997100	3.386100	-10.147000	25.752775	0.000623	20.901690
1805.503473	-2.983200	3.386300	-10.101000	25.776155	0.000620	20.909052
1806.511744	-2.979500	3.384300	-10.082000	25.783483	0.000619	20.896974
1807.506340	-3.002300	3.383200	-10.156000	25.764723	0.000621	20.895200
1808.506259	-3.017900	3.382100	-10.206000	25.809194	0.000620	20.891033
1809.505380	-3.009400	3.383400	-10.180000	25.813416	0.000619	20.902860
1810.506974	-3.022500	3.382100	-10.221000	25.820223	0.000620	20.908748
1811.503061	-3.020000	3.383100	-10.216000	25.841462	0.000617	20.920125
1812.508499	-2.983900	3.383300	-10.094000	25.830332	0.000617	20.918428
1813.506863	-2.959300	3.384200	-10.014000	25.825512	0.000617	20.917853
1814.508606	-2.997200	3.381800	-10.136000	25.838031	0.000616	20.894396
1815.506486	-3.007100	3.381700	-10.168000	25.851917	0.000614	20.899810
1816.508142	-2.982000	3.380700	-10.080000	25.866026	0.000615	20.928679
1817.508362	-3.006200	3.381100	-10.163000	25.822203	0.000617	20.911211
1818.507156	-2.984900	3.382100	-10.093000	25.791071	0.000613	20.896062
1819.509407	-2.973200	3.381000	-10.051000	25.787146	0.000614	20.894015
1820.505103	-3.001300	3.380700	-10.145000	25.739617	0.000614	20.897009
1821.511407	-2.983900	3.378700	-10.081000	25.699963	0.000613	20.907438
1822.522159	-3.016100	3.378200	-10.188000	25.677822	0.000612	20.891366
1823.516165	-3.003000	3.379800	-10.148000	25.694021	0.000614	20.910953
1824.510271	-3.010900	3.376900	-10.166000	25.709001	0.000612	20.886646
1825.512144	-3.029700	3.378000	-10.234000	25.727089	0.000613	20.882529
1826.509318	-3.022900	3.377700	-10.209000	25.771261	0.000611	20.882802
1827.512253	-2.997000	3.378200	-10.123000	25.797346	0.000612	20.888615
1828.517918	-2.991400	3.377600	-10.102000	25.832150	0.000611	20.882799
1829.510182	-3.010300	3.377100	-10.164000	25.847626	0.000608	20.899292
1830.516284	-3.021000	3.375800	-10.197000	25.843898	0.000610	20.885118
1831.509545	-3.012400	3.376700	-10.171000	25.856442	0.000608	20.877804
1832.512936	-3.008600	3.375200	-10.154000	25.885085	0.000607	20.865327
1833.517221	-2.992400	3.375600	-10.100000	25.913850	0.000605	20.885688
1834.511215	-2.970400	3.377100	-10.030000	25.937173	0.000607	20.883989
1835.510952	-3.012100	3.374000	-10.161000	25.876112	0.000608	20.846831
1836.510486	-3.028300	3.374300	-10.217000	25.881055	0.000608	20.867917
1837.510343	-3.012600	3.374400	-10.165000	25.830077	0.000608	20.887829
1838.510834	-3.004300	3.375100	-10.139000	25.818250	0.000604	20.871682
1839.517818	-3.000400	3.374600	-10.123000	25.828931	0.000605	20.868661
1840.513562	-2.987000	3.374500	-10.078000	25.833451	0.000605	20.868935
1841.515051	-2.987700	3.373800	-10.079000	25.862019	0.000604	20.876294
1842.515261	-2.990600	3.373600	-10.088000	25.906707	0.000602	20.874247
1843.515071	-3.012900	3.373000	-10.162000	25.919699	0.000603	20.875444
1844.520484	-3.012900	3.372800	-10.161000	25.897961	0.000601	20.873520
1845.513686	-3.017900	3.371900	-10.175000	25.900045	0.000602	20.864236
1846.518460	-3.017400	3.372000	-10.174000	25.925407	0.000602	20.856997
1847.514228	-2.991600	3.372700	-10.089000	25.920761	0.000602	20.854701
1848.519459	-2.967700	3.373000	-10.008000	25.960727	0.000600	20.876359
1849.516762	-3.012600	3.371000	-10.154000	25.951907	0.000600	20.876507
1850.520409	-2.980800	3.371200	-10.048000	25.940630	0.000598	20.883669
1851.517482	-3.015100	3.370000	-10.160000	25.934865	0.000600	20.854171
1852.514724	-2.980300	3.369800	-10.042000	25.957544	0.000600	20.856093
1853.517686	-3.011000	3.368700	-10.142000	25.924305	0.000598	20.844985
1854.519505	-2.995700	3.370800	-10.097000	25.928353	0.000599	20.864699
1855.524718	-3.017400	3.367700	-10.161000	25.947951	0.000599	20.860206
1856.517746	-2.994900	3.369700	-10.091000	25.961141	0.000598	20.854491
1857.517576	-2.993800	3.369700	-10.088000	25.946187	0.000599	20.871709
1858.522763	-2.988800	3.368900	-10.068000	25.945241	0.000598	20.851793
1859.525075	-3.013300	3.366900	-10.145000	25.972787	0.000600	20.853864
1860.521938	-2.986200	3.367900	-10.056000	25.988337	0.000596	20.847675
1861.526887	-3.029200	3.367100	-10.199000	26.009548	0.000597	20.865192
1862.523646	-3.002000	3.366800	-10.107000	26.017571	0.000595	20.859502
1863.524442	-2.986600	3.367200	-10.056000	26.050929	0.000598	20.856507
1864.524311	-2.978700	3.366900	-10.027000	26.077653	0.000595	20.866289
1865.524541	-2.986700	3.367000	-10.056000	26.082172	0.000594	20.822468
1866.524415	-3.016100	3.366200	-10.152000	26.096628	0.000595	20.850742
1867.525645	-2.996300	3.366100	-10.085000	26.071790	0.000595	20.826735
1868.527881	-3.012200	3.365500	-10.137000	26.051000	0.000592	20.862269
1869.520054	-3.002800	3.364900	-10.103000	26.058874	0.000594	20.855955
1870.535874	-2.997600	3.364900	-10.086000	26.049907	0.000593	20.847895
1871.525608	-2.976000	3.365500	-10.015000	26.035029	0.000590	20.863765
1872.525182	-2.988900	3.364800	-10.056000	26.016995	0.000589	20.839484
1873.526233	-2.999000	3.363200	-10.085000	26.022684	0.000591	20.828604
1874.523723	-2.987900	3.363200	-10.048000	26.024174	0.000592	20.830102
1875.524522	-2.993000	3.364400	-10.069000	26.025217	0.000591	20.853908
1876.523815	-2.995800	3.362800	-10.072000	26.030632	0.000590	20.852710
1877.533698	-2.997000	3.362100	-10.075000	26.040815	0.000590	20.848243
1878.528560	-2.998200	3.361600	-10.077000	26.052291	0.000589	20.840807
1879.528226	-2.973500	3.363700	-10.001000	26.080779	0.000591	20.834343
1880.528683	-2.989400	3.362000	-10.048000	26.050800	0.000588	20.835042
1881.527294	-3.010100	3.361100	-10.116000	26.065279	0.000588	20.831572
1882.531600	-3.012400	3.360200	-10.121000	26.077401	0.000588	20.839484
1883.527047	-3.003500	3.361600	-10.095000	26.070321	0.000585	20.832845
1884.532688	-3.024200	3.359900	-10.159000	26.045161	0.000588	20.843601
1885.528564	-3.011900	3.360500	-10.120000	26.093396	0.000586	20.838011
1886.531289	-2.989400	3.359300	-10.041000	26.070744	0.000586	20.824735
1887.530745	-2.976800	3.361600	-10.006000	26.046527	0.000584	20.828378
1888.532785	-2.983700	3.358100	-10.018000	26.082567	0.000584	20.843252
1889.530869	-3.019100	3.357700	-10.137000	26.087087	0.000582	20.834043
1890.532033	-3.000800	3.359200	-10.079000	26.071687	0.000585	20.840381
1891.533146	-3.008100	3.358400	-10.101000	26.040243	0.000583	20.847194
1892.528063	-2.982300	3.358900	-10.016000	26.034430	0.000582	20.843725
1893.533442	-2.987900	3.358800	-10.035000	26.042577	0.000583	20.843376
1894.528023	-3.016800	3.357800	-10.128000	26.023999	0.000581	20.842728
1895.532351	-2.990700	3.357300	-10.040000	26.024942	0.000582	20.828977
1896.539288	-2.986500	3.357900	-10.027000	26.022981	0.000581	20.838859
1897.529283	-3.020500	3.356900	-10.138000	26.049706	0.000580	20.823038
1898.538203	-2.999100	3.357400	-10.068000	26.060659	0.000579	20.837361
1899.534883	-3.004400	3.357300	-10.086000	26.102633	0.000578	20.832595
1900.536518	-2.968400	3.358300	-9.967800	26.095556	0.000579	20.839234
1901.535601	-2.994800	3.355000	-10.046000	26.124913	0.000578	20.829851
1902.535757	-2.997200	3.355700	-10.056000	26.133183	0.000579	20.817298
1903.538651	-2.997900	3.355100	-10.058000	26.134698	0.000578	20.829726
1904.536344	-3.004600	3.354900	-10.079000	26.112271	0.000578	20.819994
1905.531880	-3.003700	3.354100	-10.074000	26.088130	0.000576	20.837462
1906.536424	-2.988900	3.354000	-10.023000	26.103480	0.000574	20.831074
1907.538257	-3.000200	3.353900	-10.061000	26.086019	0.000577	20.828229
1908.537929	-2.984900	3.353800	-10.010000	26.088453	0.000576	20.809813
1909.542787	-2.993700	3.352900	-10.037000	26.049285	0.000577	20.828304
1910.540637	-3.025900	3.351800	-10.140000	26.010388	0.000576	20.819096
1911.545097	-3.009000	3.351600	-10.084000	25.983563	0.000572	20.839086
1912.542338	-3.010400	3.351000	-10.086000	25.979017	0.000574	20.824562
1913.537942	-2.992300	3.351900	-10.028000	26.016947	0.000573	20.817625
1914.544909	-3.025300	3.350600	-10.135000	26.016574	0.000573	20.825310
1915.539674	-3.008000	3.352000	-10.082000	26.000850	0.000571	20.801453
1916.538954	-3.001700	3.349600	-10.054000	26.011632	0.000573	20.799958
1917.543738	-2.994100	3.351700	-10.034000	26.023406	0.000571	20.809416
1918.541722	-2.992400	3.349600	-10.023000	26.002169	0.000570	20.815580
1919.546637	-3.031500	3.349100	-10.151000	26.001299	0.000570	20.851215
1920.546541	-2.988600	3.349400	-10.009000	26.016203	0.000570	20.832525
1921.547069	-2.990700	3.350300	-10.018000	26.036943	0.000569	20.826336
1922.542965	-3.019200	3.349400	-10.112000	26.010392	0.000568	20.829057
1923.543246	-2.988900	3.350000	-10.013000	25.996582	0.000567	20.807596
1924.545074	-2.988500	3.347800	-10.003000	26.011486	0.000568	20.815458
1925.542563	-3.011600	3.348300	-10.082000	26.006865	0.000568	20.827410
1926.544230	-3.021200	3.348100	-10.114000	26.000283	0.000566	20.828383
1927.544870	-3.038000	3.345900	-10.164000	25.983121	0.000564	20.820624
1928.555401	-2.998600	3.348900	-10.042000	25.947773	0.000566	20.794121
1929.545627	-3.000600	3.346500	-10.040000	25.944470	0.000564	20.822571
1930.548680	-3.000700	3.347500	-10.044000	25.922138	0.000564	20.823843
1931.541298	-2.982200	3.347400	-9.981900	25.914538	0.000565	20.820949
1932.544698	-2.998500	3.346900	-10.035000	25.900229	0.000563	20.821747
1933.541963	-3.003700	3.344700	-10.045000	25.889896	0.000562	20.813738
1934.541389	-3.002000	3.345400	-10.042000	25.930908	0.000564	20.821749
1935.543178	-3.009400	3.344600	-10.064000	25.958555	0.000561	20.794996
1936.541615	-3.005200	3.345000	-10.049000	25.979271	0.000562	20.801110
1937.547237	-3.000700	3.343500	-10.032000	26.002820	0.000561	20.825717
1938.541434	-3.025100	3.344200	-10.114000	26.002398	0.000562	20.803482
1939.542840	-3.007300	3.344100	-10.056000	26.008408	0.000560	20.805728
1940.551620	-2.995300	3.343200	-10.013000	26.035235	0.000561	20.811818
1941.548719	-3.017300	3.342100	-10.083000	26.065039	0.000559	20.814736
1942.545190	-3.006500	3.342000	-10.047000	26.092907	0.000559	20.797218
1943.546368	-3.022700	3.339900	-10.095000	26.064742	0.000556	20.809696
1944.544511	-2.993500	3.343200	-10.006000	26.059328	0.000557	20.805679
1945.548690	-3.004500	3.341500	-10.037000	25.990823	0.000558	20.819354
1946.548938	-2.983900	3.342400	-9.972600	25.970705	0.000560	20.806254
1947.543866	-3.016200	3.341200	-10.077000	25.916329	0.000556	20.814688
1948.546451	-2.993900	3.341500	-10.002000	25.935083	0.000556	20.800813
1949.546374	-2.981400	3.340500	-9.958100	25.927384	0.000553	20.824371
1950.549229	-2.998500	3.341300	-10.018000	25.937395	0.000554	20.807402
1951.552495	-2.994300	3.340700	-10.002000	25.976542	0.000553	20.819231
1952.548465	-2.992800	3.338700	-9.991700	26.022369	0.000553	20.819280
1953.555311	-2.988500	3.338500	-9.976600	26.047532	0.000551	20.793353
1954.563450	-3.012800	3.338000	-10.056000	26.060300	0.000552	20.799543
1955.553502	-2.962000	3.338500	-9.886700	26.085708	0.000553	20.815115
1956.552541	-2.990600	3.339100	-9.984900	26.076122	0.000548	20.795526
1957.555357	-3.011000	3.336900	-10.046000	26.094401	0.000554	20.802039
1958.550391	-3.010200	3.337100	-10.045000	26.103294	0.000550	20.812870
1959.556708	-3.023600	3.335500	-10.083000	26.102450	0.000550	20.806806
1960.557520	-3.005700	3.336000	-10.025000	26.065220	0.000549	20.811125
1961.554397	-2.991000	3.336300	-9.977900	26.064276	0.000550	20.812073
1962.559275	-3.016100	3.335600	-10.058000	26.053497	0.000549	20.814519
1963.555513	-3.002700	3.335500	-10.015000	26.048404	0.000547	20.819833
1964.556473	-3.024100	3.335500	-10.086000	26.045698	0.000549	20.800519
1965.560545	-2.978800	3.336600	-9.937500	26.007771	0.000548	20.794655
1966.557405	-3.017900	3.334400	-10.062000	25.999548	0.000549	20.786869
1967.557559	-2.991300	3.334300	-9.972800	26.020736	0.000548	20.826647
1968.563152	-3.013300	3.332800	-10.041000	26.065296	0.000547	20.796502
1969.555664	-3.000500	3.333900	-10.003000	26.131089	0.000547	20.808082
1970.560466	-2.978700	3.335300	-9.933700	26.139609	0.000545	20.779659
1971.566965	-2.992100	3.334500	-9.976400	26.182400	0.000545	20.802743
1972.555933	-2.980300	3.333400	-9.933600	26.204652	0.000545	20.811827
1973.561594	-2.989000	3.333900	-9.964200	26.215058	0.000543	20.802843
1974.557562	-3.006300	3.332800	-10.019000	26.204355	0.000541	20.808683
1975.582432	-3.007300	3.330600	-10.015000	26.223105	0.000540	20.815197
1976.558433	-2.973800	3.332200	-9.906600	26.233909	0.000543	20.813252
1977.561682	-2.986400	3.331400	-9.948600	26.233983	0.000542	20.800524
1978.563074	-2.977800	3.331500	-9.919600	26.203164	0.000542	20.813177
1979.561317	-2.983600	3.331900	-9.939700	26.218115	0.000541	20.794062
1980.559809	-2.986800	3.330800	-9.947300	26.210391	0.000542	20.829448
1981.560753	-2.994700	3.329700	-9.970800	26.218687	0.000539	20.824033
1982.563695	-3.000600	3.330600	-9.993000	26.229515	0.000540	20.808837
1983.565498	-3.017600	3.329500	-10.046000	26.268131	0.000539	20.809236
1984.566238	-3.016800	3.328100	-10.039000	26.260334	0.000538	20.810409
1985.562336	-2.998300	3.328300	-9.977900	26.251667	0.000535	20.801225
1986.566314	-3.005600	3.328100	-10.002000	26.266891	0.000539	20.801825
1987.565545	-3.023200	3.328600	-10.062000	26.232123	0.000536	20.798181
1988.565210	-2.992600	3.328400	-9.959000	26.173018	0.000537	20.804695
1989.564106	-3.007700	3.327600	-10.007000	26.170535	0.000536	20.812631
1990.565173	-2.978800	3.328000	-9.912000	26.181711	0.000535	20.811534
1991.564798	-3.026400	3.326000	-10.065000	26.145949	0.000534	20.801676
1992.567070	-2.986900	3.327400	-9.937100	26.135493	0.000532	20.837162
1993.565949	-2.974400	3.328700	-9.899400	26.148680	0.000532	20.828603
1994.571531	-3.004100	3.325700	-9.989600	26.159086	0.000534	20.813929
1995.572077	-3.003500	3.325200	-9.986200	26.192068	0.000528	20.825260
1996.566635	-2.993500	3.324800	-9.952000	26.231976	0.000530	20.833594
1997.568069	-3.005900	3.323400	-9.989300	26.254599	0.000531	20.809862
1998.566502	-3.010800	3.324400	-10.008000	26.251793	0.000528	20.818896
1999.566754	-3.006700	3.324100	-9.993800	26.265674	0.000529	20.825259
2000.571202	-3.003300	3.325600	-9.987200	26.274068	0.000527	20.825633
2001.569960	-3.013100	3.323300	-10.012000	26.291698	0.000530	20.830548
2002.571300	-3.012700	3.323300	-10.011000	26.310894	0.000529	20.822339
2003.568812	-3.002000	3.322500	-9.973100	26.303865	0.000527	20.829026
2004.572312	-2.972500	3.322800	-9.876100	26.279032	0.000526	20.814027
2005.573424	-2.988900	3.324000	-9.934300	26.245980	0.000526	20.831545
2006.569664	-3.006200	3.322500	-9.987500	26.223603	0.000525	20.810956
2007.576484	-3.007300	3.321300	-9.987100	26.171997	0.000525	20.814100
2008.570934	-2.980700	3.322300	-9.902300	26.184786	0.000522	20.817942
2009.573685	-2.987700	3.321700	-9.923300	26.182649	0.000524	20.823856
2010.575928	-3.005500	3.321600	-9.982500	26.231596	0.000524	20.843643
2011.572093	-2.978500	3.321700	-9.893100	26.230900	0.000525	20.807858
2012.571333	-2.997200	3.321100	-9.951900	26.220320	0.000523	20.800070
2013.577358	-2.966500	3.320100	-9.847700	26.239764	0.000521	20.826247
2014.572195	-2.983500	3.320600	-9.905700	26.256675	0.000523	20.819534
2015.573768	-2.991300	3.318500	-9.925800	26.238521	0.000523	20.840645
2016.574883	-2.972900	3.320000	-9.868500	26.208596	0.000521	20.823850
2017.572304	-3.006300	3.318800	-9.974900	26.183935	0.000519	20.801440
2018.577453	-3.006300	3.317300	-9.971000	26.209190	0.000521	20.805008
2019.574935	-3.007600	3.315800	-9.970500	26.226226	0.000519	20.820704
2020.573285	-2.996800	3.318300	-9.943100	26.242492	0.000519	20.808126
2021.577856	-3.000500	3.317700	-9.952800	26.234148	0.000519	20.830087
2022.577238	-3.002800	3.316500	-9.957500	26.259626	0.000518	20.838146
2023.576828	-3.040100	3.315000	-10.077000	26.286346	0.000517	20.841290
2024.577278	-3.014100	3.316100	-9.994200	26.290790	0.000516	20.813989
2025.574120	-3.004800	3.316500	-9.964200	26.270675	0.000516	20.832655
2026.575395	-2.998300	3.317000	-9.944300	26.302013	0.000516	20.815785
2027.580753	-3.023300	3.315500	-10.023000	26.287287	0.000515	20.820426
2028.575218	-3.015500	3.315500	-9.996700	26.308022	0.000513	20.839841
2029.581730	-3.018300	3.313800	-10.001000	26.321530	0.000513	20.812640
2030.577744	-3.002300	3.313900	-9.948400	26.322646	0.000515	20.823718
2031.574482	-3.001600	3.313600	-9.945400	26.316786	0.000513	20.824467
2032.581904	-3.010200	3.313300	-9.972000	26.323166	0.000514	20.830405
2033.574268	-3.008700	3.313000	-9.966500	26.350033	0.000511	20.803827
2034.574567	-3.023200	3.312200	-10.012000	26.326915	0.000512	20.827060
2035.577000	-2.987600	3.311600	-9.893000	26.340050	0.000511	20.836467
2036.578213	-3.011400	3.312800	-9.974900	26.339850	0.000511	20.818723
2037.578760	-2.982000	3.313000	-9.877700	26.334809	0.000509	20.832148
2038.573999	-3.033000	3.310000	-10.038000	26.301881	0.000508	20.829877
2039.577881	-3.014200	3.310200	-9.976000	26.303470	0.000508	20.841904
2040.575271	-3.006200	3.310100	-9.949000	26.296194	0.000507	20.837437
2041.579493	-2.998700	3.311500	-9.929100	26.340790	0.000508	20.816823
2042.580718	-3.003100	3.309200	-9.937300	26.348761	0.000506	20.823885
2043.588990	-3.013800	3.310300	-9.976100	26.371902	0.000508	20.826754
2044.581551	-2.997600	3.309500	-9.920300	26.382727	0.000506	20.837633
2045.579844	-3.005600	3.309400	-9.945800	26.410585	0.000506	20.829597
2046.578496	-3.002100	3.309000	-9.932900	26.396879	0.000505	20.845692
2047.580330	-3.015900	3.309400	-9.978700	26.389851	0.000503	20.854750
2048.584572	-2.996700	3.308500	-9.914400	26.376294	0.000502	20.844444
2049.583502	-2.966100	3.309300	-9.815300	26.405716	0.000502	20.832290
2050.585911	-3.002600	3.308000	-9.931300	26.361121	0.000503	20.831091
2051.585223	-2.992600	3.306500	-9.893700	26.355259	0.000500	20.828520
2052.583507	-2.986500	3.308200	-9.878500	26.343787	0.000500	20.811300
2053.589798	-2.995200	3.305800	-9.900200	26.341849	0.000503	20.846336
2054.587303	-2.997300	3.305500	-9.906500	26.346393	0.000501	20.823876
2055.583437	-2.992800	3.304700	-9.889400	26.378325	0.000501	20.829890
2056.581946	-2.984500	3.306600	-9.867800	26.384681	0.000500	20.838649
2057.582314	-2.973900	3.305300	-9.827900	26.404991	0.000500	20.825397
2058.588981	-3.014400	3.304300	-9.958300	26.398236	0.000498	20.825246
2059.589371	-2.998700	3.303500	-9.905600	26.404815	0.000499	20.824746
2060.585412	-3.001200	3.304500	-9.916800	26.384181	0.000497	20.829137
2061.589908	-2.993000	3.303900	-9.886900	26.345172	0.000497	20.837348
2062.584044	-2.986300	3.304100	-9.866400	26.315671	0.000494	20.833304
2063.582819	-3.022600	3.303100	-9.982000	26.268812	0.000495	20.835524
2064.594968	-3.007000	3.303400	-9.931800	26.241396	0.000496	20.835947
2065.585419	-3.012500	3.302300	-9.947600	26.229798	0.000496	20.833776
2066.585114	-2.994200	3.301700	-9.885400	26.185791	0.000495	20.838866
2067.588459	-3.007400	3.301900	-9.929300	26.222669	0.000496	20.837518
2068.586943	-2.992700	3.302000	-9.880500	26.265382	0.000493	20.834922
2069.593867	-3.026600	3.300800	-9.988900	26.308689	0.000492	20.824865
2070.589490	-3.004500	3.300400	-9.915100	26.370916	0.000494	20.846151
2071.586683	-3.007700	3.300400	-9.925600	26.391425	0.000490	20.841634
2072.587354	-2.992000	3.300900	-9.875100	26.446993	0.000491	20.837740
2073.587702	-2.987000	3.301200	-9.858400	26.471076	0.000493	20.839662
2074.588035	-3.033700	3.298600	-10.006000	26.460499	0.000492	20.840884
2075.591964	-2.976000	3.300900	-9.822300	26.440909	0.000490	20.864815
2076.591407	-2.971600	3.299900	-9.804200	26.456128	0.000492	20.830327
2077.589658	-2.979700	3.299600	-9.829500	26.481130	0.000492	20.838388
2078.590970	-2.995400	3.297800	-9.877800	26.470852	0.000490	20.842281
2079.593859	-3.004400	3.297700	-9.904100	26.512711	0.000489	20.851164
2080.593682	-2.988300	3.298300	-9.855600	26.518099	0.000487	20.846623
2081.589882	-3.009700	3.297300	-9.923000	26.476413	0.000488	20.838388
2082.592583	-3.013900	3.297300	-9.937100	26.458635	0.000489	20.855606
2083.591877	-2.994400	3.297400	-9.872700	26.447686	0.000486	20.852187
2084.591186	-3.004000	3.295300	-9.898100	26.415234	0.000487	20.833321
2085.598924	-3.015600	3.296100	-9.938500	26.416825	0.000486	20.853411
2086.596093	-3.015200	3.295200	-9.935000	26.439469	0.000485	20.823540
2087.595940	-3.006000	3.294900	-9.903400	26.465141	0.000484	20.863567
2088.593334	-2.971100	3.296500	-9.791700	26.481081	0.000484	20.845925
2089.593928	-2.993100	3.294900	-9.860300	26.471398	0.000484	20.856106
2090.593957	-3.019200	3.294300	-9.944400	26.464719	0.000484	20.860772
2091.599263	-2.998500	3.293600	-9.875700	26.480411	0.000482	20.869431
2092.598347	-3.005400	3.293200	-9.896200	26.524852	0.000484	20.864316
2093.606670	-2.987100	3.292900	-9.834200	26.551242	0.000483	20.845800
2094.594548	-2.974600	3.294300	-9.797900	26.581406	0.000480	20.874222
2095.593678	-3.004500	3.290300	-9.885100	26.615343	0.000480	20.853337
2096.599350	-3.014400	3.292400	-9.923000	26.606331	0.000479	20.870830
2097.597905	-3.015800	3.291200	-9.924600	26.604121	0.000480	20.834945
2098.599268	-2.994700	3.291900	-9.856400	26.581083	0.000476	20.855407
2099.597264	-3.018000	3.290300	-9.929600	26.588134	0.000477	20.859650
2100.597774	-3.018100	3.291200	-9.931900	26.564698	0.000476	20.872126
2101.599061	-3.010000	3.290600	-9.904000	26.579769	0.000477	20.882533
2102.603414	-2.992300	3.290800	-9.845800	26.627085	0.000478	20.863718
2103.597443	-3.006200	3.290400	-9.890800	26.646174	0.000474	20.880062
2104.601708	-3.003600	3.289400	-9.877900	26.676782	0.000473	20.889494
2105.599257	-2.981500	3.290200	-9.808000	26.689566	0.000475	20.871054
2106.599569	-2.999100	3.288500	-9.861400	26.645802	0.000472	20.863094
2107.604573	-2.990300	3.289100	-9.835100	26.589872	0.000473	20.864716
2108.604234	-2.991800	3.288400	-9.837300	26.554767	0.000473	20.855981
2109.605070	-3.007400	3.287300	-9.885300	26.576119	0.000472	20.879339
2110.600166	-2.991700	3.289000	-9.838200	26.549405	0.000472	20.882358
2111.602099	-3.017200	3.286700	-9.914600	26.573958	0.000472	20.882857
2112.604845	-3.019100	3.286900	-9.922400	26.573909	0.000474	20.873324
2113.604088	-3.024000	3.287300	-9.939000	26.599354	0.000472	20.872824
2114.608903	-3.003400	3.285600	-9.865400	26.620679	0.000471	20.870555
2115.601002	-3.017200	3.285400	-9.910600	26.651956	0.000468	20.874022
2116.601600	-3.011800	3.284900	-9.893000	26.651709	0.000468	20.855756
2117.604800	-2.992600	3.285500	-9.830800	26.631552	0.000467	20.873423
2118.609828	-3.002700	3.285400	-9.864400	26.623260	0.000468	20.863192
2119.602521	-3.002900	3.284700	-9.862900	26.589324	0.000468	20.874122
2120.602878	-3.019400	3.282900	-9.911400	26.611070	0.000468	20.882231
2121.605523	-2.978300	3.285100	-9.782600	26.603077	0.000465	20.887471
2122.601284	-2.996200	3.284400	-9.839800	26.651535	0.000464	20.883080
2123.611518	-3.021200	3.283500	-9.918700	26.660545	0.000465	20.877914
2124.608482	-3.005500	3.282800	-9.865800	26.693560	0.000465	20.880758
2125.605815	-2.999500	3.281400	-9.841700	26.707362	0.000464	20.871875
2126.605753	-3.000600	3.283900	-9.851900	26.674645	0.000461	20.882131
2127.602520	-3.026000	3.280700	-9.926500	26.675215	0.000461	20.880808
2128.604162	-3.005800	3.282000	-9.863500	26.686261	0.000460	20.871999
2129.602998	-3.017100	3.281700	-9.900300	26.652253	0.000462	20.871001
2130.602705	-3.009400	3.280300	-9.870400	26.650292	0.000460	20.900321
2131.602653	-2.983000	3.281200	-9.787100	26.637185	0.000458	20.877190
2132.606832	-2.982900	3.281900	-9.787600	26.634554	0.000458	20.894932
2133.605380	-2.999000	3.280700	-9.837300	26.645575	0.000457	20.890365
2134.604794	-3.007400	3.279100	-9.860600	26.697184	0.000458	20.879660
2135.602946	-3.000300	3.279500	-9.838700	26.710066	0.000455	20.894507
2136.608397	-3.015600	3.277400	-9.882500	26.695644	0.000456	20.909403
2137.608241	-2.997400	3.278400	-9.825100	26.701428	0.000455	20.893883
2138.609842	-2.989700	3.277300	-9.797600	26.687179	0.000453	20.905636
2139.617151	-2.996100	3.277700	-9.819700	26.633957	0.000451	20.884850
2140.609909	-3.001400	3.277000	-9.834400	26.555459	0.000450	20.896028
2141.613682	-2.994900	3.277700	-9.815300	26.563875	0.000450	20.905910
2142.611558	-3.017800	3.277100	-9.888800	26.558437	0.000451	20.899970
2143.607833	-2.997400	3.277100	-9.821500	26.593118	0.000450	20.906856
2144.611374	-2.998700	3.275100	-9.820100	26.629685	0.000449	20.904261
2145.612047	-2.989200	3.275600	-9.790800	26.636461	0.000449	20.894479
2146.612379	-3.015800	3.271900	-9.866200	26.674715	0.000448	20.890261
2147.612572	-3.003000	3.274200	-9.831100	26.680548	0.000448	20.918882
2148.613988	-2.999800	3.274200	-9.820300	26.669228	0.000446	20.896598
2149.609456	-3.011500	3.274400	-9.859100	26.637627	0.000445	20.894228
2150.612789	-2.987900	3.274200	-9.782500	26.571244	0.000449	20.917109
2151.611121	-3.016600	3.273800	-9.874800	26.587827	0.000444	20.895374
2152.613097	-3.003000	3.272400	-9.825700	26.587877	0.000447	20.906803
2153.610471	-3.025900	3.272200	-9.899800	26.607165	0.000446	20.890158
2154.612446	-3.002400	3.270900	-9.820000	26.607711	0.000447	20.894974
2155.612280	-3.029900	3.271700	-9.912800	26.592492	0.000445	20.893900
2156.610313	-2.991200	3.272400	-9.787500	26.609621	0.000445	20.914436
2157.612337	-3.002700	3.270600	-9.819600	26.625062	0.000443	20.920000
2158.612892	-2.996100	3.272500	-9.803700	26.674164	0.000445	20.902034
2159.618342	-3.008100	3.270500	-9.837200	26.711820	0.000442	20.890581
2160.616624	-2.996500	3.269600	-9.796500	26.713035	0.000440	20.893699
2161.618741	-3.004600	3.270100	-9.824900	26.708840	0.000442	20.907024
2162.612617	-3.002700	3.269600	-9.817300	26.715816	0.000441	20.901235
2163.616621	-3.000100	3.268200	-9.803900	26.729542	0.000440	20.914085
2164.613883	-3.016000	3.268100	-9.855000	26.702386	0.000439	20.921396
2165.613431	-3.013400	3.268600	-9.848500	26.745477	0.000440	20.903080
2166.620918	-3.014800	3.267200	-9.849600	26.749598	0.000437	20.932350
2167.616810	-3.011700	3.268100	-9.841400	26.759153	0.000438	20.905925
2168.620062	-3.012000	3.266300	-9.837100	26.774915	0.000437	20.952586
2169.614803	-3.000500	3.266900	-9.801500	26.791197	0.000438	20.943354
2170.615395	-3.002200	3.267300	-9.808400	26.818674	0.000435	20.931152
2171.617113	-3.011000	3.266400	-9.833900	26.824903	0.000436	20.930777
2172.618396	-3.012200	3.265500	-9.835100	26.820833	0.000435	20.934271
2173.617381	-2.999700	3.266100	-9.796200	26.825052	0.000435	20.932824
2174.618278	-3.007500	3.265700	-9.820300	26.781169	0.000435	20.911938
2175.618055	-2.994700	3.266200	-9.780000	26.784718	0.000433	20.950589
2176.620934	-2.974800	3.266500	-9.715900	26.801324	0.000431	20.926985
2177.622358	-2.992800	3.264600	-9.768900	26.825251	0.000431	20.930179
2178.620539	-2.987000	3.263600	-9.747400	26.788492	0.000432	20.914085
2179.619018	-2.993600	3.263200	-9.767300	26.773922	0.000431	20.917453
2180.618971	-3.002100	3.262700	-9.793900	26.759351	0.000430	20.936466
2181.619647	-2.994400	3.262500	-9.768600	26.778092	0.000426	20.946298
2182.620224	-3.008500	3.262300	-9.814100	26.787996	0.000426	20.937765
2183.622007	-2.999400	3.262900	-9.785200	26.780600	0.000426	20.955457
2184.626638	-2.982400	3.260100	-9.721200	26.800779	0.000427	20.949668
2185.620615	-3.017600	3.260000	-9.836200	26.793506	0.000429	20.926711
2186.626900	-2.973700	3.260300	-9.694500	26.757616	0.000426	20.962219
2187.630979	-2.991200	3.260000	-9.749500	26.772509	0.000425	20.916033
2188.625720	-3.002100	3.259300	-9.783800	26.780699	0.000426	20.934697
2189.624553	-3.013400	3.259100	-9.820600	26.831929	0.000426	20.936419
2190.622003	-2.987700	3.259000	-9.736400	26.885564	0.000424	20.936295
2191.623612	-2.987700	3.259100	-9.736300	26.894822	0.000423	20.939913
2192.627100	-3.006600	3.256700	-9.790200	26.917381	0.000424	20.941735
2193.627891	-2.968600	3.260000	-9.676500	26.871865	0.000423	20.928212
2194.624234	-2.987100	3.256600	-9.725900	26.826818	0.000422	20.930332
2195.621376	-2.990200	3.257100	-9.738800	26.805374	0.000421	20.957606
2196.625127	-3.010800	3.256500	-9.803600	26.789811	0.000422	20.954761
2197.622182	-2.984200	3.256900	-9.718300	26.808253	0.000419	20.925417
2198.628472	-3.016700	3.255300	-9.819800	26.810934	0.000418	20.946128
2199.629059	-2.991600	3.254400	-9.735500	26.813441	0.000419	20.942960
2200.635482	-2.997500	3.254300	-9.753600	26.830096	0.000417	20.945480
2201.623105	-2.990600	3.254900	-9.732000	26.830567	0.000416	20.922723
2202.623692	-3.006600	3.254700	-9.783900	26.825132	0.000415	20.948550
2203.632672	-2.988200	3.254400	-9.722900	26.845559	0.000417	20.922150
2204.634343	-2.978200	3.253700	-9.689400	26.822353	0.000416	20.930585
2205.624480	-3.021200	3.253500	-9.827900	26.848440	0.000412	20.940218
2206.630670	-2.998700	3.253100	-9.754100	26.859137	0.000411	20.970409
2207.622602	-2.994000	3.252300	-9.736500	26.875866	0.000414	20.954042
2208.625539	-2.992400	3.251400	-9.728000	26.891477	0.000412	20.957411
2209.623133	-3.019300	3.251200	-9.815300	26.867849	0.000411	20.936026
2210.623240	-3.007200	3.251200	-9.775700	26.840896	0.000413	20.932160
2211.628600	-3.014700	3.250400	-9.797800	26.838142	0.000412	20.941242
2212.628268	-2.984900	3.250600	-9.701600	26.877977	0.000409	20.927719
2213.627301	-2.986000	3.249500	-9.701500	26.896269	0.000409	20.928568
2214.629909	-2.981000	3.249600	-9.685800	26.894730	0.000408	20.945511
2215.625610	-2.975600	3.249800	-9.669000	26.924487	0.000407	20.935131
2216.634102	-2.980100	3.248100	-9.678200	26.953648	0.000409	20.938850
2217.641751	-2.985500	3.248500	-9.697500	26.938559	0.000405	20.926523
2218.624043	-3.004700	3.248100	-9.757900	26.981468	0.000406	20.912775
2219.627115	-3.007900	3.247500	-9.766000	26.945932	0.000404	20.932987
2220.629144	-2.982200	3.246700	-9.680900	26.948513	0.000405	20.916619
2221.625412	-2.966000	3.247400	-9.630400	26.922058	0.000403	20.923206
2222.632930	-2.992200	3.245200	-9.707900	26.912926	0.000403	20.921136
2223.634157	-2.987000	3.246600	-9.696400	26.911710	0.000402	20.930818
2224.629782	-2.983400	3.247300	-9.685600	26.908136	0.000403	20.906838
2225.633119	-3.003400	3.245000	-9.744700	26.932657	0.000402	20.922485
2226.633149	-2.993400	3.245000	-9.711900	26.944347	0.000400	20.914800
2227.637982	-2.992200	3.244500	-9.706700	26.992217	0.000397	20.917894
2228.631155	-2.997500	3.243400	-9.720000	27.012393	0.000399	20.928225
2229.632712	-2.995500	3.243500	-9.714900	27.022816	0.000398	20.901725
2230.633460	-2.966500	3.245600	-9.626800	27.062694	0.000397	20.918119
2231.629719	-2.997200	3.242500	-9.717300	27.089245	0.000398	20.905943
2232.630478	-3.011700	3.241200	-9.760100	27.093861	0.000396	20.905370
2233.631295	-2.995300	3.242400	-9.711200	27.117608	0.000394	20.908389
2234.632146	-3.025100	3.240400	-9.800800	27.121825	0.000396	20.913578
2235.631328	-3.004600	3.241800	-9.739600	27.128650	0.000395	20.925183
2236.633797	-3.008500	3.239500	-9.744200	27.102298	0.000393	20.932344
2237.633605	-3.008300	3.240800	-9.747800	27.114086	0.000392	20.919545
2238.637519	-2.989600	3.239500	-9.683400	27.060711	0.000392	20.909488
2239.638786	-3.018900	3.238800	-9.776100	27.010535	0.000394	20.900280
2240.632788	-3.022700	3.238800	-9.789100	26.977406	0.000390	20.912957
2241.638187	-3.015500	3.238500	-9.765300	26.995994	0.000390	20.926432
2242.632841	-2.992100	3.240300	-9.694600	27.007905	0.000390	20.923711
2243.637152	-2.991500	3.238700	-9.687800	26.995076	0.000389	20.911760
2244.639809	-3.004700	3.238000	-9.728800	26.976761	0.000390	20.903301
2245.636109	-3.003400	3.235900	-9.717900	27.008898	0.000389	20.899583
2246.636078	-2.987100	3.236700	-9.666200	26.986589	0.000387	20.906071
2247.638501	-2.979400	3.236700	-9.642100	26.978151	0.000388	20.888578
2248.636020	-2.987000	3.236200	-9.665000	26.945493	0.000386	20.906945
2249.639166	-2.980000	3.235500	-9.641100	26.956164	0.000387	20.902028
2250.637686	-2.986000	3.235600	-9.660500	26.956686	0.000386	20.899709
2251.636634	-2.999800	3.236300	-9.707400	26.947355	0.000385	20.903602
2252.639893	-2.998000	3.235100	-9.697800	26.932614	0.000384	20.916278
2253.636973	-2.995100	3.232900	-9.681100	26.927848	0.000383	20.891100
2254.639431	-2.961200	3.235100	-9.578300	26.966093	0.000382	20.884987
2255.638243	-2.999600	3.232700	-9.695200	26.950855	0.000381	20.903802
2256.640727	-2.999600	3.233600	-9.698000	26.979543	0.000380	20.886185
2257.642281	-3.001100	3.232700	-9.700800	26.965596	0.000379	20.902030
2258.638679	-2.995000	3.232000	-9.678600	26.963611	0.000379	20.909990
2259.639846	-2.983500	3.231300	-9.639700	27.007561	0.000377	20.906298
2260.643403	-3.010000	3.229600	-9.720600	27.027686	0.000379	20.892873
2261.647045	-3.006100	3.229200	-9.706800	27.018183	0.000379	20.893747
2262.638759	-3.008700	3.229400	-9.715200	27.002449	0.000376	20.899262
2263.645482	-3.031500	3.228700	-9.786700	27.004335	0.000376	20.892624
2264.643600	-3.000200	3.229700	-9.688200	27.031780	0.000374	20.903154
2265.641205	-3.008900	3.228600	-9.713200	27.007860	0.000375	20.876255
2266.642803	-3.013300	3.228200	-9.727000	26.984384	0.000375	20.889630
2267.643371	-2.994700	3.229400	-9.670200	26.954009	0.000374	20.873785
2268.646406	-3.011200	3.226200	-9.712500	26.939094	0.000376	20.884391
2269.642783	-3.004300	3.226000	-9.690100	26.967608	0.000374	20.896942
2270.643978	-3.024200	3.224800	-9.751800	26.969172	0.000372	20.895196
2271.644417	-3.004100	3.225800	-9.688800	27.026423	0.000373	20.890654
2272.643615	-2.985200	3.226600	-9.630900	27.029649	0.000372	20.887735
2273.648858	-3.017900	3.224100	-9.727400	27.039152	0.000370	20.911514
2274.645380	-2.999600	3.225500	-9.675000	27.066597	0.000370	20.894546
2275.644092	-2.986000	3.223800	-9.625600	27.048632	0.000369	20.891653
2276.645230	-2.994600	3.224400	-9.654900	27.096548	0.000369	20.909968
2277.644104	-3.004200	3.223400	-9.682700	27.126695	0.000368	20.899038
2278.641794	-2.990600	3.222500	-9.635900	27.150416	0.000367	20.879275
2279.644569	-3.003300	3.222200	-9.676500	27.121931	0.000368	20.894721
2280.646595	-2.990300	3.223300	-9.636900	27.113495	0.000364	20.864427
2281.646149	-2.998300	3.221100	-9.657100	27.069053	0.000362	20.884689
2282.654817	-2.981600	3.220700	-9.601400	27.053469	0.000362	20.897465
2283.642104	-2.983900	3.221600	-9.610700	27.089499	0.000365	20.898138
2284.645476	-3.000800	3.221200	-9.664900	27.118381	0.000364	20.868393
2285.643920	-2.990200	3.220000	-9.627900	27.114163	0.000363	20.896865
2286.644334	-3.010700	3.219100	-9.691100	27.124535	0.000364	20.875530
2287.644757	-2.994700	3.219000	-9.638800	27.118853	0.000361	20.893521
2288.648547	-3.003500	3.218800	-9.667100	27.115626	0.000361	20.869889
2289.650656	-2.996400	3.219600	-9.646200	27.132500	0.000363	20.868842
2290.652081	-3.015500	3.216300	-9.697700	27.117463	0.000359	20.873159
2291.649846	-3.006400	3.218600	-9.675900	27.090614	0.000360	20.864649
2292.650787	-3.003100	3.216700	-9.658600	27.054856	0.000360	20.863775
2293.651495	-2.998500	3.216200	-9.643500	27.017759	0.000360	20.901855
2294.654006	-2.991700	3.216400	-9.621300	27.030464	0.000358	20.886184
2295.654593	-2.972500	3.216300	-9.559600	27.052922	0.000357	20.887432
2296.650953	-2.990900	3.215400	-9.615900	27.074235	0.000357	20.869513
2297.648773	-2.999000	3.213600	-9.635500	27.101208	0.000356	20.881941
2298.654155	-2.956900	3.216100	-9.508400	27.088950	0.000356	20.890949
2299.651477	-2.994500	3.212500	-9.619400	27.094781	0.000355	20.849400
2300.651717	-2.995500	3.212500	-9.622400	27.109297	0.000357	20.877274
2301.654967	-2.975400	3.212300	-9.556800	27.132943	0.000357	20.885883
2302.647877	-3.006400	3.211800	-9.655000	27.126567	0.000354	20.875677
2303.654288	-3.002200	3.210200	-9.636800	27.150435	0.000352	20.856536
2304.653095	-2.989800	3.211100	-9.599200	27.187232	0.000353	20.869363
2305.651718	-3.010000	3.209600	-9.660400	27.196585	0.000353	20.877822
2306.651877	-2.979700	3.211100	-9.566900	27.201598	0.000349	20.874803
2307.652486	-2.989600	3.209200	-9.593100	27.184403	0.000350	20.851820
2308.654008	-3.005500	3.209500	-9.645300	27.161924	0.000349	20.865720
2309.654747	-2.985800	3.209000	-9.580700	27.123587	0.000349	20.864146
2310.651087	-3.017700	3.207600	-9.678600	27.125202	0.000348	20.858184
2311.657802	-2.981000	3.209700	-9.567600	27.133637	0.000347	20.885158
2312.653338	-3.024600	3.206900	-9.698600	27.167952	0.000349	20.877472
2313.657910	-2.978700	3.206500	-9.549800	27.150856	0.000347	20.874976
2314.656296	-2.987400	3.205400	-9.574700	27.142768	0.000347	20.869213
2315.651978	-3.018700	3.205500	-9.675300	27.169292	0.000348	20.875974
2316.658370	-3.005400	3.204900	-9.631600	27.167680	0.000346	20.870086
2317.656170	-3.001200	3.204400	-9.615800	27.194352	0.000345	20.865145
2318.659155	-2.981300	3.207000	-9.559800	27.237919	0.000345	20.855387
2319.657595	-2.973300	3.204200	-9.525800	27.233156	0.000344	20.868613
2320.662063	-2.991800	3.203500	-9.582700	27.288855	0.000343	20.866319
2321.657381	-2.995400	3.203600	-9.594300	27.289549	0.000342	20.861327
2322.661015	-3.012600	3.202700	-9.647200	27.299373	0.000343	20.854140
2323.658929	-3.018500	3.202500	-9.665600	27.318650	0.000341	20.873530
2324.661921	-2.973900	3.202900	-9.524500	27.312075	0.000339	20.861227
2325.658740	-2.983800	3.201700	-9.550900	27.262879	0.000342	20.881440
2326.655527	-2.997300	3.200800	-9.593000	27.188646	0.000340	20.851820
2327.672461	-3.005800	3.199900	-9.617000	27.142595	0.000339	20.861927
2328.659552	-3.019200	3.199800	-9.659600	27.172370	0.000339	20.869588
2329.660906	-3.009900	3.198800	-9.627000	27.196264	0.000339	20.880817
2330.660994	-3.002800	3.198900	-9.605600	27.194402	0.000338	20.873256
2331.657391	-2.988900	3.200200	-9.563600	27.212118	0.000336	20.846505
2332.660069	-2.978200	3.199900	-9.528900	27.217602	0.000337	20.859133
2333.661189	-2.998600	3.199100	-9.592400	27.226261	0.000338	20.869264
2334.661901	-3.005400	3.196800	-9.606500	27.243181	0.000336	20.865421
2335.658409	-3.001400	3.197200	-9.595000	27.207256	0.000336	20.861529
2336.659826	-3.039400	3.196500	-9.713400	27.238145	0.000335	20.845658
2337.661528	-3.001100	3.198400	-9.597100	27.253577	0.000336	20.860231
2338.663999	-3.013800	3.195500	-9.630300	27.244149	0.000335	20.867343
2339.658162	-3.015600	3.195100	-9.634000	27.227131	0.000332	20.850700
2340.662399	-3.020200	3.194100	-9.646600	27.204429	0.000332	20.847780
2341.660098	-2.985000	3.194500	-9.534600	27.201303	0.000331	20.859809
2342.660337	-2.981200	3.195300	-9.524900	27.200311	0.000330	20.856440
2343.662525	-3.010000	3.192400	-9.608000	27.225097	0.000330	20.856241
2344.664066	-3.015700	3.192500	-9.626200	27.263230	0.000330	20.839122
2345.660775	-2.999700	3.191700	-9.573200	27.257227	0.000330	20.843988
2346.660485	-3.039600	3.190600	-9.697100	27.268565	0.000332	20.851599
2347.665562	-3.011400	3.189200	-9.603000	27.298088	0.000331	20.839572
2348.666412	-3.025200	3.188800	-9.645300	27.288785	0.000331	20.851550
2349.666842	-3.013400	3.189300	-9.609500	27.295707	0.000326	20.840496
2350.666595	-3.004300	3.189600	-9.581400	27.267152	0.000326	20.848757
2351.661243	-2.986300	3.189600	-9.523600	27.281765	0.000326	20.835007
2352.661719	-2.993900	3.190400	-9.550100	27.283477	0.000327	20.850953
2353.668063	-3.005900	3.189100	-9.584600	27.296627	0.000324	20.829094
2354.668576	-3.005400	3.186100	-9.573700	27.309825	0.000327	20.831465
2355.664438	-3.003900	3.185600	-9.568400	27.351875	0.000325	20.840573
2356.671707	-3.009900	3.186400	-9.589600	27.330814	0.000321	20.871067
2357.667472	-2.996600	3.185800	-9.545500	27.313548	0.000323	20.843269
2358.667561	-2.988400	3.186500	-9.521700	27.266386	0.000321	20.829969
2359.668761	-3.009300	3.184800	-9.583100	27.214384	0.000321	20.831241
2360.669981	-3.022500	3.183300	-9.620700	27.174166	0.000321	20.811179
2361.670112	-3.005900	3.184600	-9.571800	27.151066	0.000323	20.842947
2362.665208	-2.988100	3.183600	-9.511700	27.170345	0.000323	20.852853
2363.665935	-2.998900	3.183100	-9.544700	27.195207	0.000319	20.841350
2364.674486	-3.019300	3.183500	-9.610200	27.205852	0.000319	20.829298
2365.676167	-3.017500	3.180800	-9.595600	27.240364	0.000318	20.832243
2366.674201	-2.994400	3.181600	-9.526000	27.276263	0.000319	20.841800
2367.673395	-3.022700	3.180900	-9.613500	27.304373	0.000317	20.838307
2368.675031	-2.982800	3.180500	-9.485900	27.347862	0.000319	20.831794
2369.674891	-2.998400	3.178800	-9.530200	27.356149	0.000319	20.848191
2370.676479	-3.014900	3.179200	-9.584200	27.389861	0.000317	20.836113
2371.675922	-3.035100	3.179500	-9.649600	27.390333	0.000318	20.833742
2372.676421	-3.015700	3.178500	-9.583900	27.372869	0.000317	20.833243
2373.671478	-3.016300	3.176700	-9.580700	27.364709	0.000316	20.832621
2374.672571	-3.014000	3.176300	-9.571200	27.336948	0.000315	20.820816
2375.677371	-3.011300	3.176900	-9.566400	27.327745	0.000314	20.828153
2376.681662	-3.030700	3.173700	-9.616700	27.322759	0.000314	20.833095
2377.676921	-3.031700	3.175300	-9.624600	27.316657	0.000314	20.823164
2378.678864	-2.968000	3.175700	-9.424800	27.336156	0.000315	20.842778
2379.675175	-3.010800	3.173400	-9.553400	27.333030	0.000312	20.834892
2380.672995	-3.000400	3.173600	-9.520900	27.347022	0.000310	20.842329
2381.679073	-3.018400	3.170800	-9.570900	27.294454	0.000312	20.819322
2382.675768	-3.016500	3.171900	-9.566300	27.240642	0.000312	20.833945
2383.682513	-2.988000	3.173500	-9.481400	27.254784	0.000314	20.832523
2384.673903	-3.002900	3.171100	-9.520500	27.238509	0.000312	20.828006
2385.677012	-3.013600	3.170300	-9.552700	27.276220	0.000311	20.816627
2386.682877	-2.966700	3.172900	-9.411100	27.300136	0.000311	20.836417
2387.677339	-3.005500	3.171400	-9.531100	27.329559	0.000308	20.845150
2388.676723	-2.987100	3.170500	-9.469300	27.348414	0.000309	20.836617
2389.678050	-3.001500	3.167900	-9.507100	27.313658	0.000306	20.834371
2390.677406	-3.005300	3.168700	-9.521300	27.303263	0.000306	20.834820
2391.674012	-3.001600	3.167900	-9.508200	27.301575	0.000309	20.823640
2392.683822	-2.963100	3.167400	-9.383700	27.328021	0.000308	20.817526
2393.675616	-3.001800	3.167600	-9.506900	27.346851	0.000308	20.815606
2394.679402	-3.022900	3.165200	-9.567300	27.364315	0.000307	20.815630
2395.679722	-3.013000	3.165400	-9.536700	27.349208	0.000305	20.844528
2396.685890	-2.991000	3.165300	-9.466400	27.350821	0.000306	20.819599
2397.687319	-2.963400	3.164700	-9.376800	27.363373	0.000306	20.832226
2398.678752	-2.992700	3.163500	-9.465900	27.397582	0.000306	20.806422
2399.682705	-2.993700	3.163900	-9.470300	27.441439	0.000305	20.821145
2400.678581	-2.967300	3.164100	-9.387800	27.452230	0.000305	20.810191
2401.680906	-3.006000	3.163500	-9.507700	27.465624	0.000304	20.828882
2402.683836	-2.999400	3.162000	-9.482200	27.480979	0.000304	20.833424
2403.688083	-2.989500	3.160400	-9.447600	27.518259	0.000304	20.821145
2404.687735	-2.985200	3.159300	-9.431000	27.546088	0.000303	20.829231
2405.684499	-3.037100	3.159800	-9.595800	27.486238	0.000301	20.822120
2406.688850	-3.016100	3.159500	-9.528400	27.442680	0.000301	20.817178
2407.684699	-3.029000	3.156900	-9.561500	27.378084	0.000303	20.815731
2408.688668	-2.982500	3.157400	-9.416000	27.369576	0.000301	20.808120
2409.680936	-2.995100	3.157400	-9.455800	27.330231	0.000299	20.809792
2410.688963	-2.993900	3.157400	-9.452100	27.328518	0.000301	20.813759
2411.687506	-3.006000	3.155100	-9.483400	27.355906	0.000298	20.805274
2412.687751	-2.988100	3.155100	-9.425800	27.405643	0.000299	20.809316
2413.696443	-2.998300	3.155400	-9.459000	27.447095	0.000299	20.822095
2414.688305	-2.990300	3.154600	-9.432400	27.492240	0.000298	20.813934
2415.688370	-3.004700	3.152400	-9.471500	27.487031	0.000297	20.802529
2416.688962	-3.013700	3.152900	-9.500600	27.513447	0.000297	20.812985
2417.689593	-3.011100	3.152000	-9.488300	27.521633	0.000298	20.806049
2418.686467	-3.010100	3.151000	-9.482400	27.499333	0.000296	20.812536
2419.693345	-3.014300	3.150600	-9.495900	27.471180	0.000296	20.826885
2420.694475	-2.985900	3.150000	-9.404700	27.479614	0.000295	20.812611
2421.703015	-2.995100	3.149400	-9.431100	27.464483	0.000295	20.808767
2422.687069	-2.994400	3.147800	-9.424500	27.485492	0.000292	20.806671
2423.688385	-3.002900	3.147600	-9.450400	27.503822	0.000295	20.813733
2424.698759	-3.013800	3.145600	-9.478100	27.494000	0.000295	20.797213
2425.694426	-3.009000	3.145500	-9.463800	27.480580	0.000296	20.792246
2426.692998	-3.027900	3.144200	-9.519400	27.476388	0.000294	20.784235
2427.702897	-3.026200	3.142800	-9.509900	27.483061	0.000295	20.800906
2428.695339	-3.003300	3.144500	-9.442600	27.477356	0.000292	20.817451
2429.692496	-3.015700	3.145000	-9.483400	27.494173	0.000293	20.805447
2430.695522	-3.003800	3.143000	-9.440200	27.472171	0.000292	20.814605
2431.693512	-2.990000	3.142400	-9.394700	27.487152	0.000292	20.805022
2432.693906	-2.984800	3.142200	-9.377800	27.529444	0.000294	20.791622
2433.693226	-2.990100	3.141500	-9.392400	27.574512	0.000293	20.816104
2434.695298	-3.000100	3.140200	-9.419900	27.583838	0.000291	20.823591
2435.696982	-2.983000	3.138700	-9.361800	27.604944	0.000293	20.804525
2436.691935	-2.994000	3.138900	-9.397100	27.626944	0.000292	20.812437
2437.694254	-3.008900	3.137000	-9.438400	27.646685	0.000291	20.792472
2438.691491	-3.001900	3.137700	-9.417700	27.616404	0.000290	20.806573
2439.695677	-2.976400	3.137800	-9.337100	27.585277	0.000291	20.805598
2440.702480	-2.996100	3.137100	-9.397900	27.586220	0.000288	20.811763
2441.691998	-2.999600	3.135000	-9.403300	27.593389	0.000290	20.804752
2442.703697	-3.010000	3.134300	-9.432800	27.626126	0.000288	20.802130
2443.695466	-3.004000	3.134600	-9.415900	27.601027	0.000290	20.802955
2444.695462	-2.992600	3.133400	-9.375700	27.593837	0.000285	20.804254
2445.703102	-2.998600	3.131000	-9.387300	27.580269	0.000288	20.833750
2446.706777	-2.999200	3.131500	-9.391100	27.522975	0.000287	20.814510
2447.696654	-2.989900	3.131100	-9.360900	27.471555	0.000286	20.818728
2448.700392	-2.993300	3.129100	-9.365400	27.462974	0.000286	20.808671
2449.703978	-2.970300	3.129100	-9.293400	27.470242	0.000287	20.823096
2450.698489	-2.997900	3.129000	-9.379300	27.486786	0.000287	20.816507
2451.708156	-3.005200	3.126700	-9.395300	27.481826	0.000284	20.815785
2452.703763	-3.024500	3.126700	-9.454400	27.464463	0.000283	20.818705
2453.702458	-2.988000	3.127100	-9.343100	27.423334	0.000283	20.822846
2454.700444	-2.967900	3.126800	-9.278900	27.426263	0.000284	20.808723
2455.703835	-2.998900	3.124000	-9.366800	27.408650	0.000285	20.808547
2456.702496	-3.008900	3.122700	-9.394600	27.390889	0.000283	20.829086
2457.701770	-3.003300	3.123200	-9.378900	27.384165	0.000286	20.815210
2458.700892	-3.006900	3.123300	-9.391000	27.415670	0.000284	20.807075
2459.701574	-3.025300	3.122200	-9.444700	27.452507	0.000283	20.805253
2460.701675	-2.975900	3.122200	-9.291200	27.422467	0.000283	20.796370
2461.701996	-2.975900	3.121500	-9.288000	27.445288	0.000283	20.825018
2462.705456	-2.996700	3.118600	-9.345000	27.499486	0.000282	20.808897
2463.705680	-3.018600	3.117300	-9.409100	27.536073	0.000282	20.807774
2464.703636	-3.000100	3.116800	-9.349400	27.534212	0.000282	20.823446
2465.703278	-3.004200	3.117300	-9.364500	27.531559	0.000281	20.808923
2466.714135	-2.971000	3.118400	-9.263600	27.564894	0.000281	20.823970
2467.705640	-2.992000	3.115000	-9.318500	27.595252	0.000283	20.814687
2468.710641	-3.000400	3.113600	-9.341200	27.624841	0.000282	20.803683
2469.714935	-2.993700	3.113700	-9.320000	27.648328	0.000280	20.816410
2470.707475	-2.979700	3.113700	-9.277200	27.660082	0.000281	20.803108
2471.707476	-2.983900	3.112500	-9.286200	27.673624	0.000281	20.813889
2472.715135	-2.997800	3.110900	-9.323300	27.685256	0.000278	20.788610
2473.723243	-2.980700	3.111100	-9.272400	27.664400	0.000281	20.807926
2474.705632	-3.012600	3.109700	-9.366300	27.620378	0.000277	20.822425
2475.708868	-3.019800	3.106700	-9.381000	27.612614	0.000278	20.813191
2476.712441	-2.986600	3.108700	-9.283800	27.601479	0.000278	20.811469
2477.711450	-3.014300	3.106800	-9.363700	27.617079	0.000277	20.812468
2478.712000	-2.979300	3.107900	-9.258500	27.661324	0.000277	20.816685
2479.715590	-3.003000	3.104800	-9.322600	27.702987	0.000278	20.797918
2480.721169	-3.016500	3.102100	-9.356000	27.773513	0.000277	20.817681
2481.708202	-3.047000	3.102400	-9.452000	27.793997	0.000276	20.821701
2482.706970	-3.014200	3.102000	-9.349300	27.815868	0.000276	20.814787
2483.710231	-3.000400	3.100700	-9.302400	27.821670	0.000275	20.828214
2484.716975	-3.029300	3.099400	-9.388100	27.841556	0.000278	20.810295
2485.711537	-3.019000	3.099100	-9.355300	27.860723	0.000277	20.821524
2486.719074	-2.969500	3.099000	-9.202000	27.820578	0.000277	20.814312
2487.709493	-3.019000	3.096800	-9.348800	27.742714	0.000276	20.815611
2488.721285	-2.974800	3.099000	-9.218400	27.715012	0.000275	20.826614
2489.717196	-2.998800	3.096300	-9.283400	27.720492	0.000275	20.831654
2490.710102	-3.012600	3.094600	-9.321800	27.761757	0.000274	20.809644
2491.710312	-2.977700	3.095200	-9.216800	27.788711	0.000276	20.814484
2492.711912	-2.995000	3.094400	-9.267000	27.807135	0.000274	20.813585
2493.713998	-3.038200	3.090500	-9.387800	27.822857	0.000273	20.828934
2494.716599	-2.975600	3.091000	-9.195900	27.808176	0.000272	20.811314
2495.716763	-2.987400	3.090600	-9.232500	27.793471	0.000275	20.835870
2496.715399	-2.981200	3.091200	-9.215000	27.782312	0.000273	20.823691
2497.716195	-2.981200	3.089300	-9.208800	27.829574	0.000274	20.823840
2498.714395	-2.976900	3.088500	-9.193400	27.850849	0.000273	20.836243
2499.716980	-3.003800	3.087200	-9.271300	27.826474	0.000273	20.815030
2500.721357	-3.011500	3.084900	-9.288700	27.795526	0.000273	20.826084
2501.713326	-2.987400	3.084000	-9.212000	27.796096	0.000273	20.834718
2502.716752	-2.978700	3.085100	-9.188400	27.790839	0.000273	20.826583
2503.717471	-2.972900	3.084900	-9.170700	27.793269	0.000272	20.846098
2504.717341	-2.959500	3.084000	-9.124900	27.786003	0.000272	20.834518
2505.720930	-2.995900	3.082000	-9.232100	27.791830	0.000272	20.839908
2506.716638	-2.993300	3.081600	-9.222300	27.834407	0.000274	20.817798
2507.719018	-2.994300	3.079600	-9.219800	27.828331	0.000274	20.842502
2508.717943	-2.978100	3.078500	-9.167600	27.845094	0.000271	20.825234
2509.724938	-2.987800	3.077800	-9.194700	27.864780	0.000271	20.842202
2510.720321	-3.005800	3.075200	-9.242000	27.871897	0.000272	20.835140
2511.720141	-2.974900	3.076800	-9.152200	27.922675	0.000270	20.814177
2512.720984	-2.976900	3.074800	-9.152400	27.941444	0.000273	20.838757
2513.717822	-2.998100	3.074300	-9.215300	27.968496	0.000272	20.840855
2514.717472	-2.995900	3.072400	-9.203900	27.955082	0.000271	20.828302
2515.719832	-3.015100	3.070300	-9.255800	27.909262	0.000272	20.840505
2516.726491	-2.994100	3.070600	-9.192800	27.928924	0.000270	20.818569
2517.722458	-2.961600	3.071300	-9.095200	27.883302	0.000271	20.825757
2518.723053	-2.982100	3.070100	-9.154100	27.882756	0.000269	20.840380
2519.718725	-2.975300	3.068100	-9.127800	27.916575	0.000270	20.838856
2520.721299	-2.973500	3.066300	-9.116900	27.865448	0.000269	20.850935
2521.729452	-2.981000	3.065700	-9.137400	27.838372	0.000268	20.830797
2522.722410	-2.990700	3.064900	-9.165200	27.853621	0.000268	20.830497
2523.726545	-3.000600	3.063400	-9.189800	27.855281	0.000272	20.827427
2524.722988	-2.990500	3.062300	-9.157400	27.843082	0.000270	20.831270
2525.723959	-3.015300	3.060200	-9.226900	27.811119	0.000270	20.840828
2526.724203	-2.993200	3.060500	-9.159300	27.827063	0.000270	20.833641
2527.724963	-3.000600	3.058800	-9.177700	27.823021	0.000268	20.827202
2528.723895	-3.021700	3.058100	-9.239900	27.823071	0.000268	20.838631
2529.726637	-2.988100	3.057300	-9.134400	27.798992	0.000269	20.856123
2530.726329	-2.998600	3.055700	-9.162000	27.811888	0.000270	20.857722
2531.724219	-3.004500	3.054600	-9.175800	27.856147	0.000269	20.850109
2532.729421	-3.008800	3.054900	-9.190600	27.904375	0.000270	20.830371
2533.727527	-3.013300	3.052100	-9.196100	27.924508	0.000268	20.835462
2534.726994	-3.016600	3.051900	-9.205700	27.886696	0.000269	20.853828
2535.728220	-3.015600	3.050100	-9.197300	27.855380	0.000268	20.846966
2536.726233	-2.989000	3.049500	-9.113900	27.813697	0.000270	20.837732
2537.729307	-3.026200	3.047600	-9.221000	27.817341	0.000269	20.868425
2538.725819	-3.022400	3.045500	-9.203100	27.844098	0.000267	20.847465
2539.728925	-3.015200	3.046000	-9.183200	27.882159	0.000269	20.856373
2540.725711	-3.009600	3.045400	-9.165100	27.903904	0.000270	20.845069
2541.737570	-2.993700	3.044400	-9.112800	27.911293	0.000270	20.853454
2542.727683	-2.984500	3.042200	-9.078300	27.933360	0.000269	20.853380
2543.734441	-3.011100	3.040300	-9.153500	27.961353	0.000268	20.843623
2544.733221	-3.011800	3.040300	-9.155600	27.967850	0.000265	20.856799
2545.733721	-2.993300	3.038300	-9.091700	27.956098	0.000269	20.864411
2546.732173	-3.006700	3.037600	-9.132900	27.938197	0.000267	20.855402
2547.735302	-3.002300	3.036200	-9.114400	27.932023	0.000268	20.839232
2548.738542	-3.007100	3.035700	-9.127300	27.922453	0.000267	20.845246
2549.735425	-2.999000	3.034600	-9.100000	27.940006	0.000267	20.863387
2550.741116	-3.006300	3.034900	-9.121800	27.976454	0.000267	20.864986
2551.735180	-2.987800	3.034000	-9.064200	28.003032	0.000268	20.865186
2552.734547	-3.008800	3.031400	-9.119700	28.025692	0.000268	20.849115
2553.738516	-2.969600	3.031200	-9.000400	28.036304	0.000269	20.852684
2554.737363	-2.998300	3.029400	-9.081000	28.054427	0.000267	20.857177
2555.734316	-3.001400	3.027400	-9.085000	28.051254	0.000266	20.843552
2556.746167	-3.019100	3.026600	-9.136500	28.042304	0.000267	20.855879
2557.737290	-2.986900	3.025400	-9.035500	28.031992	0.000270	20.874895
2558.736140	-2.988600	3.023400	-9.034700	28.040149	0.000270	20.865563
2559.748220	-2.988500	3.023400	-9.033100	28.000333	0.000266	20.878115
2560.733973	-3.009100	3.022600	-9.095200	27.964334	0.000267	20.874123
2561.737072	-2.985000	3.020200	-9.014000	27.916111	0.000266	20.873001
2562.736550	-3.007400	3.019200	-9.078900	27.886778	0.000267	20.870505
2563.735060	-2.995400	3.018500	-9.041100	27.890275	0.000268	20.865964
2564.738807	-2.981100	3.016700	-8.992700	27.919607	0.000266	20.864667
2565.736164	-3.025300	3.014500	-9.118800	27.951915	0.000269	20.880114
2566.735527	-2.999600	3.015100	-9.043100	27.964708	0.000267	20.868810
2567.737512	-3.022300	3.011700	-9.101800	28.001477	0.000267	20.882111
2568.746182	-3.004800	3.011000	-9.046800	28.007775	0.000267	20.883709
2569.739420	-2.992000	3.011100	-9.008000	28.025699	0.000266	20.860027
2570.743711	-2.991200	3.009400	-9.001000	28.064475	0.000268	20.875350
2571.740942	-3.017200	3.006700	-9.071200	28.063557	0.000267	20.870634
2572.736982	-2.966900	3.006800	-8.920000	28.090654	0.000266	20.878470
2573.739812	-2.993300	3.005800	-8.996100	28.100099	0.000266	20.875651
2574.740619	-3.036200	3.004000	-9.119600	28.098538	0.000268	20.877398
2575.739624	-2.994800	3.002600	-8.991700	28.082449	0.000265	20.878745
2576.746860	-2.985100	3.001600	-8.959600	28.103471	0.000265	20.890897
2577.742957	-3.021600	2.999400	-9.062500	28.146457	0.000267	20.873007
2578.739003	-3.002000	2.999700	-9.004000	28.154736	0.000266	20.888927
2579.738134	-2.978600	2.999800	-8.934300	28.204265	0.000266	20.870512
2580.748341	-2.968100	2.998100	-8.897400	28.226202	0.000266	20.890226
2581.744278	-2.991700	2.997100	-8.966200	28.175560	0.000264	20.872434
2582.739535	-2.996500	2.995700	-8.974500	28.177272	0.000265	20.878424
2583.741383	-3.047800	2.992200	-9.118000	28.110712	0.000266	20.898186
2584.738339	-3.045900	2.990700	-9.108100	28.108110	0.000265	20.898411
2585.739351	-2.996500	2.989900	-8.958100	28.105582	0.000264	20.874531
2586.740479	-3.002000	2.990000	-8.975000	28.127843	0.000265	20.894095
2587.737731	-3.013000	2.988900	-9.003900	28.156673	0.000266	20.876179
2588.738101	-2.986000	2.987100	-8.918300	28.183074	0.000265	20.881420
2589.737643	-2.988100	2.984300	-8.916100	28.208754	0.000263	20.879299
2590.738274	-3.028900	2.983700	-9.036000	28.143908	0.000266	20.890354
2591.746316	-3.005400	2.982800	-8.963200	28.135677	0.000265	20.896766
2592.740435	-3.007300	2.982000	-8.966800	28.169514	0.000266	20.885312
2593.742877	-3.018900	2.978900	-8.992300	28.177050	0.000266	20.897639
2594.741200	-3.007100	2.978100	-8.954700	28.188998	0.000265	20.894021
2595.739948	-2.979000	2.978700	-8.872600	28.214827	0.000263	20.888257
2596.744946	-3.001700	2.975400	-8.930000	28.235796	0.000262	20.893721
2597.743131	-2.985900	2.974700	-8.881300	28.218346	0.000264	20.898912
2598.739645	-3.002900	2.972200	-8.924400	28.232624	0.000262	20.890528
2599.743915	-2.994100	2.971600	-8.896100	28.249281	0.000265	20.898763
2600.743674	-3.026500	2.968700	-8.983000	28.273075	0.000266	20.896641
2601.753785	-3.008500	2.969300	-8.931100	28.264449	0.000261	20.893172
2602.742855	-2.972700	2.968700	-8.823800	28.284129	0.000264	20.918674
2603.747234	-3.021500	2.965600	-8.959700	28.284650	0.000263	20.898337
2604.744911	-3.014200	2.964600	-8.934600	28.265937	0.000266	20.906522
2605.743602	-3.002200	2.963500	-8.896500	28.257459	0.000264	20.921693
2606.741770	-2.996200	2.961200	-8.871500	28.239166	0.000264	20.902803
2607.747312	-2.989000	2.960100	-8.845700	28.165497	0.000264	20.897388
2608.742042	-2.995300	2.958700	-8.861300	28.149582	0.000263	20.902229
2609.750201	-2.989000	2.956200	-8.835500	28.125685	0.000263	20.904250
2610.745767	-3.007300	2.955100	-8.884900	28.130990	0.000263	20.907219
2611.749465	-2.979300	2.955600	-8.805600	28.143112	0.000264	20.911835
2612.747825	-3.019800	2.951900	-8.913200	28.162323	0.000263	20.915054
2613.748959	-2.990200	2.951500	-8.824300	28.163636	0.000263	20.927281
2614.746778	-2.987400	2.949500	-8.810300	28.181360	0.000263	20.920468
2615.750160	-2.996100	2.948800	-8.833800	28.177740	0.000265	20.909239
2616.746032	-2.977000	2.947400	-8.773800	28.183341	0.000263	20.910610
2617.744365	-2.999400	2.944500	-8.830800	28.195636	0.000263	20.907815
2618.748672	-2.994400	2.942600	-8.811000	28.215565	0.000263	20.909387
2619.747765	-3.007600	2.940800	-8.843600	28.229222	0.000263	20.912705
2620.758950	-2.988800	2.940400	-8.785800	28.256611	0.000264	20.909461
2621.744602	-2.983100	2.938700	-8.765100	28.262362	0.000262	20.919991
2622.747964	-2.977600	2.939300	-8.749700	28.201334	0.000262	20.918767
2623.754303	-2.982000	2.935800	-8.754000	28.199797	0.000260	20.886876
2624.751209	-3.010900	2.934600	-8.834200	28.222056	0.000262	20.909284
2625.745517	-2.997700	2.932100	-8.788400	28.200688	0.000261	20.916694
2626.749990	-2.974800	2.931800	-8.720000	28.234349	0.000263	20.907436
2627.753835	-3.035300	2.928000	-8.885300	28.219302	0.000264	20.928795
2628.761415	-2.989200	2.927800	-8.750600	28.190052	0.000262	20.922106
2629.751953	-3.006700	2.926900	-8.799500	28.190969	0.000262	20.917340
2630.752454	-3.019900	2.922900	-8.825400	28.225025	0.000263	20.930763
2631.752084	-2.991500	2.923000	-8.742700	28.277474	0.000262	20.898699
2632.751173	-2.988600	2.920800	-8.727600	28.311032	0.000261	20.914468
2633.752773	-2.973900	2.919500	-8.681300	28.334354	0.000262	20.918510
2634.758659	-3.005700	2.918400	-8.771200	28.368209	0.000261	20.938845
2635.755274	-3.018400	2.915700	-8.799900	28.383624	0.000261	20.924023
2636.749128	-3.019000	2.915200	-8.799500	28.370588	0.000260	20.936499
2637.749786	-2.990300	2.914600	-8.714600	28.387440	0.000259	20.926442
2638.751559	-3.010100	2.910400	-8.759600	28.378566	0.000262	20.936947
2639.751686	-2.985200	2.910400	-8.687300	28.337721	0.000259	20.929011
2640.750693	-3.054800	2.906200	-8.876300	28.311845	0.000262	20.939939
2641.751057	-2.992300	2.907800	-8.700200	28.316603	0.000258	20.938566
2642.760654	-3.014500	2.905100	-8.756500	28.324707	0.000261	20.923968
2643.750089	-3.025400	2.902100	-8.779400	28.344261	0.000263	20.914734
2644.754049	-2.979100	2.902000	-8.643600	28.343839	0.000261	20.931378
2645.754877	-3.028400	2.899200	-8.778700	28.364905	0.000261	20.925088
2646.753542	-2.989600	2.898100	-8.662800	28.399824	0.000261	20.929429
2647.756941	-3.020300	2.895600	-8.744700	28.393603	0.000261	20.928855
2648.755355	-3.009900	2.895200	-8.713400	28.369959	0.000263	20.939659
2649.755712	-3.017300	2.891700	-8.723900	28.355930	0.000261	20.941654
2650.753325	-3.006900	2.892300	-8.695200	28.316572	0.000260	20.920993
2651.757039	-3.022300	2.887100	-8.725100	28.322147	0.000261	20.945096
2652.758002	-3.038100	2.887100	-8.770200	28.349014	0.000262	20.937535
2653.754025	-3.018600	2.886200	-8.710700	28.366089	0.000262	20.943349
2654.754371	-3.017900	2.885000	-8.705600	28.371765	0.000263	20.943374
2655.758098	-2.996400	2.881700	-8.633800	28.379993	0.000264	20.934590
2656.757978	-3.032000	2.878800	-8.727400	28.386957	0.000262	20.966254
2657.761714	-3.014100	2.877900	-8.672900	28.406362	0.000264	20.938857
2658.758363	-2.993500	2.876800	-8.610500	28.433498	0.000264	20.925880
2659.756126	-3.001000	2.876000	-8.630100	28.460015	0.000262	20.945942
2660.764526	-2.990500	2.873100	-8.590800	28.459048	0.000262	20.951132
2661.759379	-2.992400	2.870200	-8.587500	28.508833	0.000260	20.939155
2662.758990	-3.002000	2.869600	-8.613400	28.536884	0.000263	20.928525
2663.757679	-3.034700	2.866800	-8.698500	28.539685	0.000263	20.929449
2664.759562	-3.001100	2.864200	-8.594800	28.539214	0.000264	20.936559
2665.761483	-2.999200	2.862600	-8.585100	28.566868	0.000264	20.935961
2666.760252	-3.013800	2.860400	-8.619200	28.545038	0.000263	20.925357
2667.759173	-3.014000	2.858800	-8.614900	28.512056	0.000262	20.930547
2668.759986	-3.023000	2.856300	-8.634000	28.525460	0.000263	20.939778
2669.763225	-3.015800	2.853500	-8.605000	28.482169	0.000263	20.940752
2670.766889	-2.990700	2.852700	-8.529400	28.441454	0.000264	20.947639
2671.764687	-3.009800	2.852300	-8.584300	28.380884	0.000260	20.924109
2672.759211	-3.006400	2.847600	-8.559300	28.356894	0.000262	20.923186
2673.763017	-3.004300	2.845600	-8.547800	28.378753	0.000263	20.926230
2674.761807	-3.012200	2.843800	-8.565700	28.400910	0.000262	20.928152
2675.764270	-2.982200	2.842700	-8.477200	28.425544	0.000261	20.925931
2676.765181	-3.016800	2.838900	-8.562900	28.411467	0.000262	20.933567
2677.760043	-2.993900	2.839200	-8.499100	28.457811	0.000263	20.931397
2678.763655	-3.003500	2.835700	-8.516600	28.494314	0.000262	20.931646
2679.764271	-2.993500	2.834500	-8.484100	28.519913	0.000261	20.904797
2680.764215	-3.009000	2.832600	-8.522100	28.574230	0.000261	20.909713
2681.765688	-3.026600	2.828000	-8.558800	28.607012	0.000260	20.925184
2682.767842	-2.991100	2.827500	-8.456100	28.602106	0.000262	20.933518
2683.763710	-2.983200	2.824700	-8.425500	28.667617	0.000262	20.919370
2684.765955	-2.986400	2.823000	-8.429300	28.622002	0.000263	20.905670
2685.764905	-2.985100	2.820600	-8.418800	28.637712	0.000261	20.900630
2686.760631	-3.002000	2.819600	-8.463400	28.638554	0.000262	20.926132
2687.770392	-2.979400	2.817400	-8.392700	28.688728	0.000262	20.914554
2688.766403	-2.987400	2.814100	-8.406100	28.677206	0.000261	20.920967
2689.769756	-3.025900	2.811300	-8.506000	28.696310	0.000261	20.915553
2690.762608	-3.016900	2.810100	-8.476800	28.679362	0.000261	20.910811
2691.766018	-3.001500	2.805700	-8.419400	28.711472	0.000264	20.910911
2692.763881	-3.013400	2.803000	-8.445700	28.703940	0.000260	20.890998
2693.768418	-3.022800	2.800900	-8.464700	28.710381	0.000262	20.910761
2694.764886	-3.009800	2.798900	-8.422900	28.660208	0.000262	20.944147
2695.766359	-3.004400	2.796400	-8.400300	28.620019	0.000261	20.907940
2696.766346	-3.004000	2.793400	-8.390200	28.593432	0.000262	20.920990
2697.763969	-2.995000	2.791900	-8.361200	28.586370	0.000260	20.906767
2698.768658	-2.996700	2.789500	-8.358100	28.588128	0.000261	20.902848
2699.762984	-3.019000	2.786500	-8.411100	28.598882	0.000263	20.903721
2700.767497	-3.017000	2.783900	-8.397900	28.588970	0.000258	20.896110
2701.765146	-3.033300	2.780900	-8.433400	28.606240	0.000260	20.873677
2702.765534	-2.991800	2.777700	-8.309900	28.627673	0.000261	20.909959
2703.766178	-3.025600	2.773800	-8.391700	28.673436	0.000261	20.898679
2704.763160	-3.002600	2.773300	-8.325900	28.720238	0.000258	20.899352
2705.767230	-2.990800	2.770500	-8.284900	28.724821	0.000261	20.879315
2706.767159	-3.003600	2.767900	-8.312400	28.740453	0.000262	20.920661
2707.767570	-3.010700	2.765000	-8.323000	28.708195	0.000260	20.895758
2708.767470	-2.999200	2.760900	-8.279400	28.723903	0.000261	20.916794
2709.769780	-3.008100	2.756500	-8.290300	28.753931	0.000260	20.903419
2710.772426	-2.991800	2.755500	-8.241700	28.772859	0.000261	20.870805
2711.775090	-2.992700	2.751000	-8.231200	28.804000	0.000261	20.890793
2712.774328	-3.018100	2.747300	-8.290600	28.810044	0.000259	20.896407
2713.769935	-2.968400	2.746300	-8.151500	28.824536	0.000259	20.895833
2714.774920	-2.985300	2.742400	-8.185600	28.854932	0.000263	20.888521
2715.774621	-2.982200	2.740400	-8.171400	28.843116	0.000261	20.896057
2716.776296	-2.988700	2.737400	-8.180800	28.839945	0.000260	20.881484
2717.770559	-3.029400	2.733500	-8.279200	28.795997	0.000260	20.894110
2718.772435	-2.991200	2.730100	-8.165500	28.794536	0.000260	20.885527
2719.771069	-3.020300	2.724900	-8.228200	28.785369	0.000259	20.892888
2720.778702	-3.014000	2.721400	-8.201400	28.733987	0.000260	20.879065
2721.778398	-2.991000	2.720700	-8.136600	28.720212	0.000261	20.894585
2722.772590	-3.017200	2.718400	-8.200700	28.697270	0.000261	20.891866
2723.778902	-2.985800	2.712700	-8.098400	28.639020	0.000260	20.895785
2724.773526	-3.027600	2.709000	-8.201000	28.604876	0.000260	20.854286
2725.778514	-2.989000	2.706500	-8.088700	28.640135	0.000263	20.886476
2726.774451	-3.019300	2.703600	-8.160400	28.624476	0.000261	20.882085
2727.784608	-3.002500	2.699700	-8.105400	28.618505	0.000260	20.891243
2728.775029	-2.979900	2.694900	-8.029500	28.626607	0.000260	20.882335
2729.779358	-3.012200	2.690900	-8.104500	28.670216	0.000261	20.880739
2730.781010	-3.046200	2.686000	-8.180500	28.660355	0.000260	20.860376
2731.779818	-2.973800	2.683100	-7.977900	28.679458	0.000264	20.889099
2732.780087	-3.016800	2.679600	-8.082700	28.703813	0.000261	20.869061
2733.777188	-2.983100	2.674700	-7.977600	28.750243	0.000262	20.876947
2734.780323	-2.981400	2.672000	-7.963700	28.791765	0.000262	20.856659
2735.778710	-2.974100	2.668500	-7.935200	28.806109	0.000263	20.872530
2736.778989	-2.999600	2.665200	-7.993600	28.845301	0.000262	20.866018
2737.779941	-3.011800	2.659000	-8.006900	28.848819	0.000263	20.870984
2738.781130	-2.994900	2.655600	-7.951700	28.890089	0.000263	20.864670
2739.783893	-3.017100	2.651700	-8.000200	28.942852	0.000263	20.875152
2740.781506	-3.016300	2.646700	-7.982100	28.943817	0.000263	20.870435
2741.784627	-2.955600	2.644300	-7.814400	28.953999	0.000261	20.887803
2742.781659	-2.974300	2.639300	-7.849800	29.004331	0.000263	20.850797
2743.783743	-3.002600	2.632900	-7.905000	29.020035	0.000264	20.890325
2744.779142	-2.979400	2.629600	-7.833700	29.036729	0.000263	20.903351
2745.780685	-3.027100	2.624100	-7.941700	29.008296	0.000263	20.883713
2746.782472	-2.972800	2.619900	-7.787100	28.995539	0.000262	20.874181
2747.782942	-3.041400	2.613900	-7.948900	28.927324	0.000263	20.871836
2748.781323	-3.001300	2.611100	-7.835900	28.864752	0.000261	20.853845
2749.782519	-3.005400	2.605700	-7.830200	28.782258	0.000263	20.880272
2750.779035	-2.995200	2.601100	-7.790300	28.756170	0.000263	20.876753
2751.785964	-2.996300	2.594500	-7.772300	28.766899	0.000262	20.854845
2752.787751	-3.005800	2.588300	-7.778700	28.832599	0.000265	20.853223
2753.783587	-2.980200	2.585000	-7.703300	28.886801	0.000261	20.863729
2754.786675	-2.994100	2.578200	-7.718500	28.945534	0.000264	20.888284
2755.780697	-2.970600	2.575100	-7.648500	29.000498	0.000263	20.860686
2756.781616	-2.995300	2.567500	-7.689500	29.045775	0.000261	20.867424
2757.786938	-2.988800	2.562100	-7.656700	29.078148	0.000264	20.852627
2758.784667	-3.000200	2.555700	-7.666400	29.084043	0.000263	20.865204
2759.780519	-2.973100	2.552600	-7.588400	29.085059	0.000264	20.880452
2760.781483	-2.974700	2.545100	-7.570400	29.087586	0.000265	20.857869
2761.781379	-3.051900	2.537500	-7.742900	29.088702	0.000263	20.871795
2762.784393	-2.977300	2.534400	-7.544900	29.096305	0.000264	20.885145
2763.788861	-3.028800	2.528300	-7.656900	29.138879	0.000264	20.863560
2764.787699	-3.004600	2.522500	-7.578100	29.139250	0.000265	20.871046
2765.783844	-2.986800	2.515200	-7.511300	29.135808	0.000261	20.857148
2766.787170	-2.995000	2.510200	-7.516700	29.144899	0.000263	20.859669
2767.787612	-2.969000	2.503800	-7.433000	29.152304	0.000264	20.864286
2768.786617	-2.998200	2.496100	-7.482900	29.174420	0.000263	20.868079
