LabVIEW Measurement	
Writer_Version	2
Reader_Version	2
Separator	Tab
Decimal_Separator	.
Multi_Headings	No
X_Columns	One
Time_Pref	Absolute
Operator	admin
Description	Clolumns are: time, Current, Voltage, Power, Battery Temp, and Chamber Temp
Date	2024/08/16
Time	13:06:06.104549407958984375
***End_of_Header***	
	
Channels	6						
Samples	1	1	1	1	1	1	
Date	2024/09/19	2024/09/19	2024/09/19	2024/09/19	2024/09/19	2024/09/19	
Time	23:33:30.2770190238952636719	23:33:30.2857265472412109375	23:33:30.2917661666870117188	23:33:30.2470240592956542969	23:33:30.2470240592956542969	23:33:30.2470240592956542969	
X_Dimension	Time	Time	Time	Time	Time	Time	
X0	0.0000000000000000E+0	0.0000000000000000E+0	0.0000000000000000E+0	0.0000000000000000E+0	0.0000000000000000E+0	0.0000000000000000E+0	
Delta_X	1.000000	1.000000	1.000000	1.000000	1.000000	1.000000	
***End_of_Header***							
X_Value	Untitled	Untitled 1	Untitled 2	Untitled 3	Untitled 4	Untitled 5	Comment
0.000000	0.004789	4.088200	0.019541	20.989688	0.001035	20.777757
0.985596	-3.004000	3.902600	-11.723000	20.965609	0.001034	20.783546
1.986637	-3.011000	3.895100	-11.727000	20.978582	0.001035	20.783245
2.989822	-2.989000	3.888500	-11.622000	21.010320	0.001032	20.783220
3.993060	-3.024400	3.884900	-11.748000	21.017031	0.001032	20.801312
4.986158	-3.012500	3.881300	-11.692000	21.010444	0.001030	20.798043
5.991939	-2.990500	3.879000	-11.599000	21.008494	0.001029	20.793248
6.991498	-3.028800	3.874700	-11.734000	20.986217	0.001029	20.777605
7.990730	-3.012700	3.872500	-11.666000	21.027036	0.001029	20.793301
8.992109	-2.981500	3.872100	-11.543000	21.030577	0.001026	20.788782
9.993131	-2.960700	3.871100	-11.460000	20.997896	0.001025	20.765577
10.993737	-3.004300	3.867200	-11.617000	21.014237	0.001025	20.776706
11.994812	-2.993200	3.866800	-11.573000	21.034316	0.001024	20.782091
12.991867	-2.978700	3.866000	-11.515000	21.042552	0.001024	20.784639
13.991904	-2.973000	3.864800	-11.488000	21.037313	0.001022	20.788407
14.997125	-2.991700	3.862000	-11.552000	21.060290	0.001021	20.805225
15.994415	-3.012400	3.860000	-11.627000	21.057796	0.001022	20.792774
16.994953	-3.012100	3.859700	-11.624000	21.053101	0.001022	20.787603
17.995690	-3.015400	3.858100	-11.632000	21.077553	0.001020	20.791673
19.002730	-3.010400	3.859100	-11.616000	21.065851	0.001021	20.790399
20.001507	-3.023300	3.856200	-11.657000	21.061205	0.001021	20.790494
21.008809	-2.999600	3.856500	-11.566000	21.078448	0.001019	20.766489
21.998031	-3.008800	3.854900	-11.598000	21.101173	0.001019	20.788271
22.997173	-2.994800	3.854700	-11.543000	21.099099	0.001019	20.808483
23.996677	-3.006300	3.854000	-11.585000	21.117834	0.001020	20.800195
24.996866	-3.022400	3.853400	-11.645000	21.124272	0.001019	20.800471
26.000095	-2.997400	3.851100	-11.543000	21.115913	0.001019	20.774566
26.997762	-3.017700	3.851300	-11.619000	21.117483	0.001018	20.804112
28.000443	-3.007100	3.850300	-11.577000	21.116539	0.001019	20.796530
28.996774	-3.001100	3.848000	-11.546000	21.138485	0.001019	20.819903
29.997575	-2.991700	3.849900	-11.517000	21.161212	0.001018	20.792852
30.999651	-2.981400	3.848200	-11.472000	21.166904	0.001017	20.791908
32.000855	-2.975000	3.848000	-11.445000	21.157070	0.001018	20.793450
33.000689	-2.999100	3.846900	-11.536000	21.176253	0.001018	20.787983
33.999491	-3.005300	3.845800	-11.557000	21.178244	0.001016	20.804199
35.002738	-3.005500	3.845200	-11.556000	21.174402	0.001017	20.796563
36.002086	-2.992400	3.845800	-11.507000	21.177592	0.001018	20.795487
37.012177	-3.017900	3.844400	-11.600000	21.199050	0.001018	20.827857
38.004378	-3.010100	3.843500	-11.568000	21.200769	0.001016	20.802550
39.001914	-3.010500	3.842900	-11.568000	21.214658	0.001016	20.819289
40.001559	-3.024100	3.842700	-11.619000	21.217626	0.001017	20.809930
41.005694	-2.973200	3.842100	-11.422000	21.219176	0.001016	20.806265
42.007396	-2.999600	3.842100	-11.524000	21.237537	0.001016	20.819891
43.007084	-2.994700	3.842800	-11.507000	21.232266	0.001016	20.827894
44.009219	-3.015800	3.840200	-11.580000	21.260354	0.001016	20.828966
45.003776	-3.025000	3.839400	-11.613000	21.268238	0.001014	20.797025
46.006595	-3.001200	3.840800	-11.526000	21.256084	0.001016	20.824221
47.007287	-3.007400	3.839500	-11.546000	21.278958	0.001015	20.803008
48.001928	-3.005700	3.838700	-11.537000	21.275764	0.001016	20.795545
49.016908	-2.999300	3.838400	-11.511000	21.299511	0.001015	20.807922
50.005641	-2.997800	3.838300	-11.506000	21.293123	0.001016	20.788730
51.004364	-3.018900	3.836900	-11.582000	21.304119	0.001016	20.820118
52.009187	-2.986600	3.837600	-11.461000	21.333177	0.001015	20.817422
53.008086	-3.015700	3.834500	-11.563000	21.323423	0.001015	20.815249
54.002174	-3.027700	3.835300	-11.610000	21.318757	0.001014	20.822910
55.006147	-2.997700	3.836500	-11.500000	21.335069	0.001015	20.818840
56.006348	-3.002900	3.836200	-11.519000	21.335543	0.001015	20.800349
57.007411	-3.006300	3.834500	-11.527000	21.347713	0.001016	20.822481
58.009533	-3.006800	3.834500	-11.528000	21.340278	0.001015	20.838750
59.005622	-2.978600	3.834400	-11.418000	21.381806	0.001015	20.818185
60.002307	-3.007500	3.835200	-11.533000	21.374525	0.001014	20.832710
61.005486	-2.991000	3.833500	-11.465000	21.376367	0.001015	20.820329
62.006499	-2.984000	3.833700	-11.438000	21.391829	0.001015	20.826790
63.005401	-2.992400	3.833400	-11.469000	21.421388	0.001017	20.824122
64.006844	-3.018600	3.832600	-11.567000	21.415376	0.001014	20.848452
65.009378	-2.991400	3.833800	-11.467000	21.426724	0.001016	20.832306
66.004005	-3.012500	3.831400	-11.540000	21.426869	0.001015	20.828658
67.007325	-2.999200	3.832300	-11.492000	21.431233	0.001017	20.823067
68.006371	-3.005500	3.830800	-11.512000	21.432502	0.001015	20.830975
69.005359	-3.014500	3.831200	-11.548000	21.441333	0.001017	20.834595
70.009316	-2.988600	3.832400	-11.453000	21.463251	0.001015	20.824758
71.007077	-2.989300	3.829800	-11.446000	21.464525	0.001015	20.837885
72.007075	-2.984800	3.831600	-11.435000	21.461578	0.001015	20.836834
73.008501	-2.998800	3.830400	-11.485000	21.491408	0.001016	20.832542
74.012095	-2.979800	3.830300	-11.413000	21.496517	0.001019	20.840973
75.015606	-2.982500	3.829800	-11.421000	21.509761	0.001015	20.832414
76.008000	-2.977100	3.830100	-11.401000	21.530034	0.001014	20.838949
77.007355	-2.996200	3.829700	-11.473000	21.530928	0.001016	20.836525
78.006454	-2.994700	3.829200	-11.467000	21.552597	0.001015	20.844932
79.010892	-2.975600	3.829400	-11.394000	21.540154	0.001017	20.834851
80.010208	-2.981900	3.828400	-11.415000	21.550101	0.001018	20.823468
81.008882	-3.003300	3.827700	-11.495000	21.577831	0.001016	20.842681
82.009133	-2.998500	3.827100	-11.475000	21.567233	0.001017	20.846775
83.011203	-3.020800	3.827200	-11.560000	21.546182	0.001018	20.847521
84.008787	-2.991500	3.827600	-11.450000	21.571094	0.001016	20.860595
85.011130	-3.008600	3.826200	-11.511000	21.576253	0.001018	20.856274
86.013086	-3.009600	3.825400	-11.512000	21.599920	0.001018	20.833491
87.011289	-3.013000	3.825700	-11.525000	21.590542	0.001018	20.838805
88.011260	-2.991600	3.826600	-11.447000	21.645056	0.001017	20.832666
89.013118	-2.989800	3.825000	-11.433000	21.621810	0.001018	20.854448
90.007303	-3.008200	3.824400	-11.504000	21.620389	0.001021	20.835957
91.009781	-3.016700	3.825100	-11.538000	21.651186	0.001019	20.854922
92.021344	-2.992400	3.825000	-11.445000	21.674749	0.001018	20.861432
93.010375	-3.012700	3.822600	-11.516000	21.684991	0.001020	20.862199
94.013011	-2.999300	3.823200	-11.465000	21.690330	0.001019	20.851896
95.014496	-2.994700	3.822600	-11.444000	21.684418	0.001019	20.854040
96.011562	-3.006800	3.822600	-11.493000	21.697087	0.001021	20.849175
97.010670	-2.991100	3.823500	-11.436000	21.710621	0.001023	20.861296
98.010938	-3.024300	3.820900	-11.555000	21.712396	0.001022	20.842211
99.009266	-2.984800	3.823300	-11.411000	21.733564	0.001020	20.857231
100.009330	-2.999300	3.822000	-11.463000	21.731043	0.001021	20.870828
101.016902	-3.004200	3.821700	-11.479000	21.726255	0.001020	20.847073
102.012970	-3.001800	3.820900	-11.469000	21.750364	0.001021	20.848916
103.012864	-3.018300	3.821000	-11.533000	21.749639	0.001023	20.866207
104.017468	-3.004400	3.821300	-11.480000	21.796195	0.001023	20.866809
105.020054	-2.986500	3.820400	-11.409000	21.802452	0.001024	20.879709
106.014191	-3.002900	3.819500	-11.468000	21.798086	0.001021	20.873917
107.019062	-3.006900	3.820100	-11.485000	21.799828	0.001024	20.871868
108.018627	-2.989100	3.819700	-11.417000	21.826654	0.001022	20.859363
109.015738	-3.010600	3.819700	-11.498000	21.821167	0.001023	20.864303
110.017597	-2.973100	3.821100	-11.360000	21.843906	0.001025	20.862406
111.016011	-2.985400	3.819600	-11.402000	21.839890	0.001026	20.866447
112.015059	-3.003100	3.820400	-11.471000	21.867411	0.001027	20.860803
113.020631	-3.006600	3.818700	-11.481000	21.843326	0.001026	20.891221
114.020512	-2.986100	3.818500	-11.401000	21.862320	0.001027	20.865664
115.017893	-3.005800	3.818500	-11.476000	21.865537	0.001026	20.865091
116.019791	-3.003100	3.816600	-11.461000	21.893980	0.001026	20.842353
117.022705	-3.000100	3.816800	-11.449000	21.878468	0.001026	20.889411
118.020008	-2.989300	3.817600	-11.410000	21.893482	0.001026	20.865561
119.023284	-2.974000	3.818300	-11.354000	21.897960	0.001026	20.859612
120.020640	-2.984600	3.817100	-11.391000	21.922666	0.001027	20.874384
121.018527	-2.996000	3.815600	-11.430000	21.915236	0.001027	20.888282
122.021444	-2.988100	3.815900	-11.402000	21.938718	0.001028	20.872909
123.019178	-2.990500	3.815400	-11.408000	21.941779	0.001027	20.854162
124.020395	-3.005600	3.815800	-11.466000	21.957139	0.001029	20.881389
125.027434	-2.998300	3.817300	-11.445000	21.975287	0.001029	20.879167
126.022671	-3.009800	3.814700	-11.481000	21.957559	0.001029	20.846725
127.025348	-2.985400	3.816300	-11.392000	21.991037	0.001029	20.878339
128.023570	-2.981700	3.817300	-11.380000	21.990758	0.001031	20.884222
129.025925	-2.999400	3.814600	-11.441000	21.997541	0.001029	20.888642
130.022481	-3.009200	3.814200	-11.477000	22.005688	0.001030	20.884944
131.025003	-3.005400	3.812700	-11.457000	22.008604	0.001030	20.880751
132.025864	-3.003800	3.814200	-11.457000	22.024111	0.001029	20.907178
133.024208	-2.991100	3.814900	-11.409000	22.030689	0.001031	20.874885
134.028450	-2.981900	3.813600	-11.370000	22.016175	0.001032	20.876476
135.026423	-3.018900	3.812900	-11.509000	22.044417	0.001031	20.866817
136.026521	-3.006100	3.813500	-11.463000	22.053490	0.001032	20.891071
137.027108	-2.990800	3.812700	-11.402000	22.077369	0.001032	20.891743
138.026610	-2.990200	3.813000	-11.401000	22.097636	0.001033	20.884533
139.026806	-2.978900	3.812200	-11.354000	22.103341	0.001032	20.904466
140.025147	-2.998200	3.811900	-11.428000	22.103691	0.001035	20.904817
141.029852	-3.002900	3.812800	-11.447000	22.104585	0.001035	20.889117
142.024188	-3.006100	3.810800	-11.455000	22.118892	0.001035	20.889216
143.029111	-3.005000	3.809800	-11.447000	22.127940	0.001035	20.894955
144.027772	-3.003700	3.811500	-11.447000	22.122154	0.001034	20.910024
145.025032	-2.994900	3.811700	-11.414000	22.135962	0.001034	20.885444
146.035043	-3.010600	3.810800	-11.471000	22.127536	0.001036	20.904034
147.036767	-3.004200	3.810100	-11.444000	22.120309	0.001035	20.894902
148.032806	-3.007000	3.808800	-11.452000	22.123793	0.001038	20.897916
149.029098	-2.995100	3.810700	-11.411000	22.158642	0.001037	20.898192
150.031057	-3.009400	3.809700	-11.462000	22.147272	0.001036	20.904352
151.030622	-3.026200	3.808300	-11.523000	22.175489	0.001037	20.919325
152.033764	-3.011400	3.808500	-11.468000	22.189343	0.001036	20.910437
153.027716	-3.022300	3.807700	-11.507000	22.189817	0.001039	20.912808
154.039598	-3.004300	3.808400	-11.441000	22.196047	0.001040	20.901029
155.033034	-2.989100	3.808300	-11.382000	22.212948	0.001039	20.916052
156.033469	-3.013000	3.807400	-11.471000	22.226607	0.001040	20.900806
157.034333	-2.987100	3.808700	-11.376000	22.207162	0.001042	20.904571
158.032602	-3.001800	3.807800	-11.429000	22.222020	0.001042	20.889102
159.027993	-2.976500	3.808200	-11.334000	22.259999	0.001044	20.885404
160.035378	-3.007000	3.808100	-11.450000	22.248659	0.001041	20.900127
161.049620	-3.018300	3.807300	-11.491000	22.260374	0.001043	20.896210
162.030924	-3.016300	3.806300	-11.479000	22.249952	0.001042	20.921334
163.035866	-2.986800	3.806400	-11.367000	22.278542	0.001044	20.893539
164.041979	-3.004900	3.805600	-11.433000	22.284369	0.001044	20.906958
165.033555	-3.007100	3.805400	-11.441000	22.307098	0.001046	20.908855
166.034731	-3.008300	3.805200	-11.446000	22.311982	0.001046	20.908055
167.036045	-3.013900	3.806200	-11.470000	22.322198	0.001045	20.908802
168.033245	-3.004100	3.806800	-11.435000	22.310558	0.001044	20.903310
169.034516	-3.009500	3.805400	-11.451000	22.297698	0.001046	20.889013
170.037850	-3.000700	3.805300	-11.417000	22.293988	0.001047	20.902840
171.035810	-2.982200	3.805000	-11.346000	22.320049	0.001048	20.903805
172.041466	-3.041100	3.803900	-11.567000	22.330693	0.001046	20.892653
173.038337	-2.983900	3.805400	-11.354000	22.351301	0.001047	20.900486
174.037299	-3.001300	3.804300	-11.417000	22.368450	0.001049	20.884469
175.036324	-3.006600	3.804400	-11.437000	22.374552	0.001049	20.896743
176.052754	-2.992400	3.803700	-11.382000	22.383825	0.001049	20.889433
177.036453	-3.018500	3.802300	-11.475000	22.371386	0.001048	20.894995
178.034535	-3.000900	3.803500	-11.413000	22.376146	0.001048	20.885538
179.035945	-3.005200	3.802700	-11.426000	22.362110	0.001048	20.890922
180.038006	-3.005700	3.802500	-11.429000	22.374775	0.001049	20.891277
181.034551	-2.996700	3.802600	-11.394000	22.355160	0.001051	20.885859
182.039051	-2.998900	3.803000	-11.404000	22.347732	0.001052	20.868940
183.040250	-3.026100	3.801200	-11.501000	22.355411	0.001053	20.872361
184.034330	-3.011200	3.801300	-11.446000	22.360768	0.001051	20.879622
185.043772	-2.966600	3.802300	-11.278000	22.352788	0.001053	20.899605
186.039040	-3.005200	3.801300	-11.422000	22.366944	0.001052	20.902400
187.037199	-2.998200	3.801400	-11.396000	22.379407	0.001054	20.885958
188.038006	-2.988500	3.801700	-11.360000	22.394156	0.001054	20.856159
189.042483	-2.994100	3.801900	-11.381000	22.417834	0.001055	20.886033
190.048035	-3.021700	3.800100	-11.482000	22.428671	0.001056	20.869385
191.041250	-3.027100	3.799300	-11.500000	22.420622	0.001058	20.837618
192.041019	-3.017400	3.799500	-11.463000	22.426650	0.001058	20.873999
193.038472	-3.001200	3.798300	-11.398000	22.434649	0.001056	20.856407
194.045484	-2.987500	3.799500	-11.350000	22.448257	0.001059	20.866240
195.038918	-3.003200	3.798000	-11.405000	22.459192	0.001057	20.888095
196.037736	-3.005600	3.799100	-11.417000	22.474619	0.001057	20.871777
197.044210	-3.016500	3.798000	-11.456000	22.446536	0.001057	20.861197
198.038112	-3.015000	3.797400	-11.448000	22.472725	0.001061	20.867035
199.038112	-3.002500	3.796900	-11.400000	22.472251	0.001060	20.869406
200.039806	-3.006700	3.796100	-11.411000	22.507707	0.001061	20.860344
201.040047	-3.003500	3.797100	-11.404000	22.515134	0.001060	20.855929
202.042859	-3.018800	3.797000	-11.461000	22.519494	0.001063	20.861717
203.043331	-3.009500	3.795800	-11.422000	22.531700	0.001060	20.862563
204.036999	-2.999400	3.796700	-11.387000	22.530305	0.001062	20.875863
205.043122	-3.014700	3.796700	-11.443000	22.523002	0.001063	20.849584
206.039138	-3.002400	3.796200	-11.397000	22.528637	0.001063	20.863288
207.043984	-2.990700	3.796700	-11.353000	22.547970	0.001065	20.857521
208.042232	-2.998500	3.796000	-11.381000	22.549411	0.001066	20.852800
209.042378	-3.013400	3.794200	-11.432000	22.557958	0.001066	20.846661
210.038930	-3.026300	3.793300	-11.479000	22.577121	0.001065	20.850207
211.041625	-2.999000	3.794800	-11.379000	22.584448	0.001065	20.846166
212.046070	-2.999700	3.794500	-11.382000	22.599018	0.001066	20.865499
213.041926	-3.016100	3.793500	-11.440000	22.557011	0.001066	20.849032
214.044900	-3.000600	3.793300	-11.381000	22.568599	0.001067	20.852103
215.040630	-3.000200	3.793400	-11.380000	22.551927	0.001067	20.853423
216.041482	-2.997300	3.793500	-11.369000	22.524245	0.001068	20.857941
217.041218	-3.017600	3.793000	-11.443000	22.521376	0.001069	20.885412
218.048443	-3.009000	3.790900	-11.405000	22.556460	0.001069	20.844213
219.041629	-3.002400	3.792300	-11.384000	22.563812	0.001070	20.854895
220.044484	-2.976100	3.792700	-11.286000	22.563165	0.001070	20.840023
221.043044	-2.973800	3.792700	-11.278000	22.572383	0.001072	20.849255
222.044896	-2.981600	3.792900	-11.308000	22.557057	0.001072	20.832009
223.045781	-3.011400	3.790900	-11.414000	22.565628	0.001074	20.844860
224.045514	-3.000600	3.792100	-11.376000	22.589027	0.001073	20.827045
225.045176	-2.984900	3.792600	-11.319000	22.587405	0.001071	20.848179
226.043768	-3.003300	3.791500	-11.386000	22.625005	0.001074	20.839372
227.045822	-3.012100	3.790900	-11.417000	22.624528	0.001072	20.840317
228.045624	-3.004800	3.790200	-11.387000	22.632703	0.001075	20.827168
229.049364	-3.034000	3.790000	-11.498000	22.639129	0.001076	20.824596
230.047976	-2.988400	3.791300	-11.329000	22.623557	0.001074	20.838395
231.047708	-3.014700	3.790300	-11.424000	22.683199	0.001077	20.845504
232.049980	-3.002600	3.788600	-11.375000	22.669150	0.001078	20.827165
233.045750	-2.996400	3.789400	-11.354000	22.708094	0.001076	20.845309
234.046803	-3.007100	3.788000	-11.389000	22.723414	0.001079	20.839793
235.048260	-2.986500	3.789600	-11.316000	22.734054	0.001077	20.844287
236.052269	-2.999000	3.787600	-11.357000	22.736972	0.001079	20.835356
237.046336	-3.002900	3.789100	-11.377000	22.752387	0.001079	20.828513
238.048610	-3.001300	3.786900	-11.364000	22.739561	0.001080	20.836053
239.048582	-2.998000	3.786900	-11.352000	22.754556	0.001079	20.826418
240.046706	-2.998200	3.787200	-11.354000	22.738689	0.001081	20.812420
241.048126	-2.995200	3.786200	-11.339000	22.760985	0.001080	20.832858
242.049023	-3.005400	3.786700	-11.379000	22.789258	0.001082	20.855015
243.051856	-3.001100	3.785500	-11.360000	22.799498	0.001083	20.847255
244.048867	-2.985800	3.787300	-11.306000	22.824086	0.001082	20.842489
245.051035	-3.010400	3.786100	-11.396000	22.805676	0.001085	20.836849
246.048407	-2.989600	3.786400	-11.319000	22.798848	0.001083	20.836173
247.050445	-2.979800	3.786300	-11.281000	22.795881	0.001086	20.833201
248.053900	-3.010700	3.784400	-11.392000	22.771197	0.001084	20.835501
249.051671	-3.000900	3.785800	-11.360000	22.791476	0.001085	20.851547
250.054663	-3.003900	3.784500	-11.368000	22.766015	0.001085	20.833155
251.055488	-3.011200	3.784100	-11.393000	22.760607	0.001086	20.825841
252.054053	-3.028400	3.783100	-11.455000	22.802133	0.001085	20.833300
253.049185	-2.971200	3.785800	-11.248000	22.829762	0.001086	20.829684
254.054214	-2.989800	3.784800	-11.313000	22.839327	0.001084	20.815559
255.053586	-3.008100	3.782900	-11.378000	22.869293	0.001087	20.844630
256.053375	-3.006300	3.782200	-11.369000	22.879405	0.001086	20.818251
257.052823	-2.997200	3.784200	-11.341000	22.906930	0.001087	20.832076
258.052598	-3.008600	3.782800	-11.379000	22.904337	0.001089	20.837065
259.057015	-2.996800	3.780700	-11.329000	22.902123	0.001088	20.822993
260.052873	-3.024200	3.779800	-11.429000	22.937643	0.001092	20.844354
261.055583	-3.003000	3.780200	-11.351000	22.946430	0.001091	20.828976
262.058534	-2.990800	3.780800	-11.306000	22.936372	0.001090	20.836916
263.055205	-2.997600	3.781700	-11.335000	22.922968	0.001092	20.831074
264.058187	-2.995000	3.781600	-11.324000	22.936195	0.001091	20.802601
265.056561	-3.006200	3.780200	-11.362000	22.969545	0.001092	20.839807
266.071772	-2.998800	3.779700	-11.333000	22.965907	0.001095	20.828102
267.059269	-2.996500	3.780000	-11.326000	22.981973	0.001094	20.836611
268.059547	-2.966800	3.782800	-11.222000	22.960977	0.001094	20.813679
269.055583	-3.011600	3.778400	-11.377000	22.970191	0.001094	20.831920
270.056465	-2.992800	3.778900	-11.308000	22.973155	0.001095	20.836311
271.054283	-3.018700	3.778700	-11.406000	22.977961	0.001096	20.831169
272.057776	-3.002700	3.779400	-11.347000	22.983344	0.001096	20.819967
273.058021	-2.982800	3.780300	-11.275000	22.974373	0.001095	20.825204
274.057379	-2.994000	3.779100	-11.313000	22.979303	0.001096	20.825876
275.065312	-3.001600	3.779100	-11.343000	22.957855	0.001097	20.796800
276.059601	-2.990100	3.778900	-11.299000	22.973299	0.001097	20.815119
277.058794	-3.001300	3.778000	-11.337000	22.937229	0.001096	20.809801
278.059072	-3.002500	3.777900	-11.342000	22.932200	0.001099	20.829418
279.062016	-2.977700	3.777100	-11.246000	22.944077	0.001097	20.814291
280.058446	-2.987800	3.778100	-11.286000	22.962011	0.001099	20.814241
281.061318	-2.991600	3.778300	-11.302000	22.984480	0.001100	20.822528
282.058251	-3.021000	3.775200	-11.403000	22.990777	0.001099	20.816509
283.061357	-3.025900	3.775300	-11.423000	23.002085	0.001102	20.818356
284.062977	-2.997300	3.776200	-11.317000	23.035360	0.001101	20.817557
285.064149	-3.007300	3.775600	-11.353000	23.046964	0.001101	20.821123
286.061104	-3.028800	3.774000	-11.429000	23.052169	0.001102	20.810218
287.061131	-3.014100	3.773500	-11.373000	23.034233	0.001102	20.825436
288.062733	-3.002000	3.773900	-11.328000	23.043249	0.001103	20.816452
289.062560	-2.986300	3.774400	-11.271000	23.040611	0.001103	20.803378
290.062667	-2.995400	3.773300	-11.301000	23.051664	0.001106	20.815875
291.059970	-2.984000	3.775100	-11.263000	23.050294	0.001103	20.817821
292.063098	-3.005000	3.772900	-11.336000	23.059084	0.001105	20.806240
293.061623	-3.010600	3.772200	-11.354000	23.041472	0.001105	20.814198
294.062251	-3.021800	3.772900	-11.400000	23.041476	0.001103	20.804244
295.063719	-3.024300	3.770800	-11.404000	23.032386	0.001107	20.794188
296.062236	-3.030000	3.771200	-11.424000	23.075992	0.001106	20.791888
297.064561	-3.008100	3.771700	-11.345000	23.092307	0.001107	20.825305
298.063731	-3.016700	3.771400	-11.375000	23.103462	0.001108	20.815620
299.066800	-2.983400	3.770800	-11.248000	23.106075	0.001109	20.804488
300.072034	-2.986600	3.772000	-11.265000	23.131179	0.001110	20.805936
301.065415	-2.992100	3.771500	-11.283000	23.142560	0.001111	20.806434
302.063501	-2.990200	3.770300	-11.272000	23.144477	0.001108	20.807882
303.069423	-3.018800	3.769400	-11.378000	23.126221	0.001109	20.809976
304.069562	-3.002200	3.769000	-11.314000	23.134738	0.001110	20.800493
305.067671	-3.008700	3.769000	-11.339000	23.131574	0.001109	20.787366
306.068820	-2.994600	3.771600	-11.292000	23.128082	0.001109	20.813737
307.064485	-3.001100	3.769500	-11.312000	23.136899	0.001111	20.815461
308.066640	-3.001700	3.768900	-11.311000	23.100266	0.001111	20.805305
309.063298	-3.012200	3.768200	-11.349000	23.123350	0.001110	20.802358
310.068036	-3.011900	3.768100	-11.347000	23.146511	0.001114	20.793324
311.067248	-2.982300	3.769300	-11.240000	23.153209	0.001114	20.800985
312.066785	-3.013900	3.766700	-11.350000	23.167906	0.001111	20.801487
313.068768	-2.998500	3.767800	-11.296000	23.188471	0.001114	20.796965
314.071426	-2.976000	3.768200	-11.213000	23.202340	0.001114	20.796165
315.075512	-3.002600	3.765900	-11.306000	23.212923	0.001114	20.811511
316.072740	-3.004600	3.765900	-11.313000	23.224179	0.001114	20.794343
317.076102	-3.018400	3.765100	-11.363000	23.250325	0.001116	20.799208
318.072486	-3.003000	3.767000	-11.311000	23.237000	0.001114	20.803398
319.073791	-2.990700	3.767100	-11.264000	23.229204	0.001115	20.801749
320.072454	-2.998600	3.766400	-11.293000	23.232713	0.001118	20.797679
321.073495	-3.021700	3.764200	-11.374000	23.242900	0.001116	20.785129
322.071814	-3.010500	3.763900	-11.331000	23.259604	0.001116	20.826999
323.072489	-3.006300	3.763800	-11.314000	23.281442	0.001116	20.805262
324.076749	-2.988600	3.765600	-11.254000	23.286844	0.001118	20.787917
325.071384	-2.989400	3.764600	-11.253000	23.301810	0.001117	20.771148
326.074500	-3.006200	3.764600	-11.315000	23.301662	0.001119	20.795655
327.076762	-2.983400	3.763400	-11.226000	23.308529	0.001120	20.797796
328.074707	-3.011700	3.762200	-11.329000	23.328297	0.001119	20.798641
329.072607	-3.007200	3.762900	-11.315000	23.331037	0.001118	20.804706
330.073446	-3.010200	3.761200	-11.319000	23.307608	0.001119	20.796398
331.075393	-2.995800	3.761600	-11.268000	23.319259	0.001121	20.795273
332.074540	-2.998500	3.761800	-11.278000	23.310217	0.001120	20.804703
333.078021	-3.016200	3.759600	-11.339000	23.308949	0.001120	20.803907
334.073050	-2.999100	3.761300	-11.280000	23.318683	0.001122	20.798489
335.075822	-3.009600	3.761000	-11.317000	23.340145	0.001122	20.798663
336.074828	-3.015800	3.759300	-11.336000	23.371020	0.001122	20.789777
337.073455	-2.992900	3.759800	-11.252000	23.370896	0.001122	20.788705
338.073237	-3.012200	3.760300	-11.326000	23.345321	0.001122	20.795789
339.076710	-2.976100	3.761500	-11.193000	23.308073	0.001123	20.782640
340.076810	-2.990100	3.759700	-11.240000	23.302919	0.001124	20.767991
341.072129	-3.007600	3.758800	-11.303000	23.316409	0.001123	20.796210
342.077549	-3.006000	3.757700	-11.295000	23.320565	0.001125	20.776667
343.077185	-3.006400	3.757500	-11.296000	23.325571	0.001125	20.780262
344.075211	-3.017500	3.757000	-11.336000	23.312921	0.001124	20.786076
345.077306	-3.001100	3.758800	-11.280000	23.287525	0.001124	20.770107
346.079589	-3.018800	3.755500	-11.336000	23.319894	0.001125	20.771727
347.078506	-2.996100	3.756300	-11.253000	23.321440	0.001125	20.761897
348.077262	-2.979800	3.757900	-11.195000	23.316434	0.001126	20.773950
349.078458	-3.020300	3.755000	-11.340000	23.348950	0.001127	20.775719
350.079447	-3.007800	3.756200	-11.297000	23.349123	0.001127	20.783953
351.080566	-2.982000	3.757000	-11.202000	23.354027	0.001126	20.769901
352.081531	-2.998800	3.755900	-11.261000	23.374617	0.001128	20.781529
353.078631	-3.002300	3.755700	-11.274000	23.366500	0.001128	20.771023
354.079381	-3.005500	3.754600	-11.283000	23.352558	0.001127	20.763688
355.077654	-3.007300	3.753900	-11.288000	23.361346	0.001127	20.780082
356.080562	-3.000800	3.755600	-11.268000	23.366571	0.001128	20.780577
357.080854	-3.007800	3.753100	-11.287000	23.387711	0.001129	20.765729
358.077563	-2.988400	3.754700	-11.218000	23.411862	0.001130	20.782350
359.085563	-2.996700	3.752500	-11.243000	23.428744	0.001129	20.781727
360.080018	-2.990300	3.754400	-11.227000	23.431529	0.001129	20.755595
361.084860	-2.996800	3.753100	-11.246000	23.434816	0.001133	20.760786
362.081043	-2.994400	3.752000	-11.234000	23.441064	0.001131	20.760411
363.087350	-2.994300	3.753100	-11.237000	23.450600	0.001131	20.752424
364.080736	-2.974200	3.752100	-11.157000	23.432698	0.001131	20.771939
365.084510	-2.998400	3.751800	-11.248000	23.439296	0.001131	20.765276
366.086479	-2.985600	3.753400	-11.205000	23.442953	0.001131	20.774632
367.083344	-3.027700	3.748600	-11.349000	23.458938	0.001133	20.764101
368.098323	-2.990700	3.751700	-11.220000	23.513982	0.001132	20.758110
369.089000	-3.009700	3.750500	-11.287000	23.483659	0.001135	20.786037
370.085432	-2.998100	3.750800	-11.243000	23.491796	0.001132	20.777123
371.082598	-3.015700	3.748400	-11.303000	23.484725	0.001132	20.752965
372.090713	-2.999300	3.749100	-11.244000	23.502351	0.001135	20.740761
373.081900	-2.972500	3.750900	-11.148000	23.469814	0.001132	20.762201
374.089168	-2.986800	3.749100	-11.196000	23.463414	0.001132	20.762424
375.086063	-2.999400	3.747400	-11.239000	23.465278	0.001133	20.760025
376.085149	-3.014200	3.747900	-11.295000	23.490525	0.001134	20.752141
377.091750	-3.008800	3.748600	-11.278000	23.539468	0.001134	20.748096
378.090057	-3.005400	3.746300	-11.258000	23.550545	0.001134	20.759674
379.084586	-3.010700	3.746300	-11.278000	23.551865	0.001134	20.755782
380.085491	-2.983700	3.746700	-11.178000	23.592889	0.001136	20.748542
381.089578	-3.001500	3.746700	-11.244000	23.609217	0.001137	20.747841
382.085061	-3.002800	3.745900	-11.248000	23.604540	0.001135	20.766861
383.087019	-2.978300	3.746600	-11.157000	23.602747	0.001136	20.769331
384.086846	-2.989900	3.746000	-11.199000	23.574266	0.001137	20.751684
385.084319	-3.020200	3.744100	-11.306000	23.585342	0.001139	20.748563
386.081594	-2.988500	3.744300	-11.189000	23.598141	0.001135	20.750014
387.087176	-3.000500	3.745900	-11.238000	23.613576	0.001135	20.737038
388.087044	-3.021700	3.743600	-11.311000	23.616135	0.001138	20.747664
389.087133	-2.979700	3.744600	-11.157000	23.623555	0.001137	20.740877
390.085671	-3.001700	3.743900	-11.236000	23.677871	0.001140	20.775891
391.085941	-2.975700	3.744000	-11.139000	23.663135	0.001139	20.748790
392.086715	-2.990300	3.743500	-11.193000	23.648569	0.001138	20.737979
393.085676	-2.975000	3.742700	-11.133000	23.661438	0.001138	20.742346
394.088115	-2.989400	3.743100	-11.189000	23.642622	0.001136	20.736758
395.087782	-3.005400	3.743100	-11.249000	23.621634	0.001141	20.751755
396.089858	-3.013200	3.741700	-11.274000	23.661783	0.001140	20.752176
397.086315	-2.978100	3.740300	-11.138000	23.644485	0.001140	20.737678
398.085810	-2.985700	3.741100	-11.168000	23.646875	0.001139	20.747661
399.088553	-3.011000	3.740000	-11.260000	23.673381	0.001140	20.751949
400.087958	-2.999900	3.740000	-11.218000	23.695088	0.001139	20.744787
401.088906	-3.013200	3.738700	-11.264000	23.696803	0.001140	20.719004
402.085762	-2.985100	3.739600	-11.162000	23.654085	0.001140	20.739716
403.088305	-3.002300	3.739300	-11.225000	23.667978	0.001142	20.754118
404.087939	-2.997400	3.738500	-11.205000	23.668525	0.001143	20.740442
405.090019	-2.990500	3.739400	-11.181000	23.654385	0.001139	20.738120
406.090394	-2.986600	3.738700	-11.164000	23.700209	0.001142	20.738067
407.090754	-2.987100	3.737700	-11.164000	23.702623	0.001142	20.722469
408.092994	-3.001600	3.736900	-11.216000	23.699612	0.001142	20.737943
409.090317	-3.012900	3.737100	-11.258000	23.731122	0.001142	20.737292
410.091704	-3.004000	3.737700	-11.227000	23.746827	0.001142	20.729804
411.091963	-3.007000	3.736200	-11.234000	23.745084	0.001141	20.713357
412.090367	-3.006500	3.736400	-11.232000	23.760140	0.001144	20.748368
413.091629	-2.998700	3.737500	-11.205000	23.760909	0.001142	20.738708
414.091883	-2.999000	3.736200	-11.202000	23.754662	0.001144	20.741928
415.093089	-2.995300	3.736600	-11.189000	23.727928	0.001143	20.743099
416.093307	-2.978600	3.737000	-11.130000	23.731958	0.001143	20.740976
417.095288	-2.999500	3.735800	-11.203000	23.743033	0.001145	20.725526
418.095927	-3.016200	3.733900	-11.262000	23.759088	0.001144	20.730243
419.094467	-2.981300	3.734200	-11.131000	23.758738	0.001143	20.737954
420.093534	-3.008000	3.731700	-11.224000	23.767819	0.001146	20.742791
421.096538	-3.015100	3.733800	-11.256000	23.779942	0.001145	20.724599
422.094123	-3.018300	3.732800	-11.266000	23.775089	0.001144	20.710249
423.098988	-3.035300	3.730400	-11.321000	23.783524	0.001148	20.719181
424.096021	-3.006100	3.731900	-11.218000	23.796243	0.001143	20.743789
425.094628	-2.977300	3.732700	-11.112000	23.770579	0.001145	20.725168
426.100384	-2.994100	3.733100	-11.175000	23.754577	0.001145	20.727143
427.097117	-2.988900	3.732500	-11.154000	23.779988	0.001146	20.709945
428.097342	-2.995900	3.731400	-11.178000	23.779010	0.001145	20.734096
429.106504	-3.004600	3.731300	-11.210000	23.788200	0.001146	20.720551
430.097454	-2.987300	3.731400	-11.145000	23.778417	0.001146	20.725915
431.096436	-3.007200	3.729500	-11.214000	23.822192	0.001147	20.715752
432.099771	-3.012600	3.729400	-11.234000	23.801261	0.001146	20.721793
433.095902	-2.983100	3.730100	-11.127000	23.791852	0.001147	20.733222
434.100273	-2.996900	3.729800	-11.177000	23.819305	0.001146	20.719970
435.104383	-3.009100	3.729200	-11.220000	23.840186	0.001147	20.731425
436.107271	-3.007200	3.728200	-11.210000	23.833841	0.001147	20.726959
437.099461	-2.982600	3.729000	-11.122000	23.801409	0.001148	20.731899
438.104329	-3.008800	3.727100	-11.213000	23.822015	0.001147	20.716998
439.100886	-3.026200	3.725700	-11.273000	23.822213	0.001148	20.720041
440.103393	-3.017500	3.727200	-11.245000	23.785698	0.001147	20.731319
441.103101	-2.984400	3.727100	-11.122000	23.784254	0.001149	20.717543
442.103055	-3.016900	3.726300	-11.241000	23.766231	0.001148	20.738353
443.102951	-2.994300	3.726500	-11.157000	23.759635	0.001148	20.732688
444.103706	-2.986500	3.726100	-11.127000	23.799909	0.001149	20.713324
445.101324	-2.998900	3.726400	-11.174000	23.805157	0.001147	20.748934
446.102925	-2.992900	3.725600	-11.150000	23.789548	0.001148	20.725696
447.099976	-3.002600	3.725100	-11.183000	23.807045	0.001150	20.728541
448.106462	-2.996400	3.723200	-11.155000	23.833527	0.001148	20.716686
449.102220	-3.010400	3.724500	-11.211000	23.843902	0.001149	20.739419
450.102548	-2.992300	3.725600	-11.147000	23.851666	0.001149	20.738668
451.101562	-2.985000	3.724600	-11.116000	23.867546	0.001149	20.723771
452.104823	-2.970900	3.724500	-11.063000	23.900939	0.001150	20.723590
453.107928	-3.010600	3.723000	-11.207000	23.927245	0.001151	20.739539
454.103996	-3.007700	3.721900	-11.194000	23.913759	0.001147	20.739291
455.103800	-3.008600	3.722400	-11.199000	23.920371	0.001150	20.744500
456.104660	-3.003100	3.721700	-11.176000	23.930051	0.001149	20.730023
457.106600	-2.997800	3.722100	-11.157000	23.935030	0.001151	20.726955
458.105187	-3.002300	3.720600	-11.170000	23.931296	0.001149	20.721315
459.105349	-2.976400	3.723000	-11.080000	23.931642	0.001150	20.740629
460.103971	-2.983200	3.720600	-11.098000	23.933431	0.001149	20.729146
461.105013	-2.991700	3.720900	-11.131000	23.945397	0.001150	20.738300
462.108214	-2.994200	3.720300	-11.139000	23.938008	0.001148	20.745116
463.105994	-3.000600	3.719400	-11.160000	23.980012	0.001149	20.731287
464.104458	-3.025800	3.718800	-11.251000	23.978392	0.001150	20.749578
465.107124	-3.022100	3.718300	-11.235000	24.005364	0.001152	20.742012
466.110859	-2.989400	3.719000	-11.117000	24.001433	0.001149	20.741390
467.111770	-3.005200	3.717700	-11.172000	24.026492	0.001153	20.739967
468.109207	-2.976000	3.718300	-11.065000	24.021838	0.001150	20.731032
469.110476	-3.017800	3.718700	-11.220000	23.995403	0.001152	20.717798
470.110354	-3.023800	3.715500	-11.233000	24.034551	0.001151	20.739988
471.107624	-3.011100	3.717300	-11.192000	24.063338	0.001149	20.719546
472.112564	-3.006900	3.716600	-11.173000	24.026488	0.001151	20.729058
473.109902	-2.993800	3.716100	-11.125000	24.017350	0.001150	20.730324
474.110103	-3.011300	3.714500	-11.184000	24.023567	0.001151	20.747466
475.114424	-3.007400	3.716000	-11.175000	24.018843	0.001151	20.747469
476.109299	-3.005600	3.715100	-11.165000	24.033845	0.001150	20.754929
477.112579	-3.007800	3.714800	-11.172000	24.048597	0.001151	20.729893
478.110573	-2.997300	3.715100	-11.134000	24.037151	0.001151	20.754451
479.114573	-2.996400	3.714200	-11.128000	24.020452	0.001151	20.758566
480.114778	-3.003700	3.713500	-11.152000	23.995915	0.001151	20.759090
481.112846	-2.992100	3.714300	-11.112000	24.014774	0.001151	20.750028
482.115632	-3.013200	3.713300	-11.187000	24.008109	0.001152	20.752827
483.111915	-3.020500	3.712300	-11.212000	24.017089	0.001151	20.765626
484.115870	-2.998500	3.712500	-11.131000	24.047496	0.001152	20.751549
485.112803	-2.983000	3.713100	-11.075000	24.063917	0.001150	20.750000
486.113922	-2.999400	3.712400	-11.134000	24.077056	0.001153	20.739943
487.112785	-2.996800	3.712100	-11.123000	24.100719	0.001152	20.761779
488.116902	-2.979600	3.712500	-11.061000	24.089345	0.001150	20.751794
489.117254	-2.991300	3.711400	-11.101000	24.080140	0.001150	20.739242
490.117023	-2.996400	3.710800	-11.118000	24.098299	0.001151	20.764094
491.116204	-3.000800	3.711000	-11.135000	24.084790	0.001152	20.752915
492.115826	-2.993000	3.711100	-11.106000	24.073468	0.001150	20.736818
493.116127	-3.014200	3.709600	-11.180000	24.077098	0.001153	20.756107
494.116086	-2.984300	3.709900	-11.071000	24.111808	0.001152	20.760573
495.118005	-3.028300	3.707300	-11.226000	24.103595	0.001153	20.744748
496.114712	-3.013300	3.708600	-11.174000	24.105310	0.001152	20.765909
497.117987	-2.982300	3.708700	-11.059000	24.128701	0.001151	20.752859
498.117451	-2.984300	3.708800	-11.068000	24.116928	0.001151	20.749112
499.117849	-3.004200	3.707500	-11.136000	24.095131	0.001152	20.749062
500.121511	-3.000100	3.708000	-11.123000	24.116900	0.001151	20.748609
501.118367	-3.011200	3.706800	-11.161000	24.127575	0.001152	20.764533
502.116727	-3.012000	3.706500	-11.163000	24.136657	0.001150	20.767951
503.119088	-3.016400	3.706900	-11.179000	24.143723	0.001151	20.761288
504.118661	-2.994800	3.706200	-11.098000	24.162210	0.001151	20.763708
505.116349	-2.987300	3.706300	-11.070000	24.128616	0.001152	20.762258
506.117384	-3.002500	3.705000	-11.123000	24.099478	0.001151	20.761957
507.120415	-3.004100	3.704000	-11.125000	24.085267	0.001150	20.747704
508.120499	-2.992800	3.705100	-11.087000	24.090940	0.001151	20.780895
509.116844	-2.989700	3.705700	-11.078000	24.093678	0.001153	20.770839
510.118734	-3.006000	3.703800	-11.132000	24.121493	0.001151	20.750372
511.120466	-3.016400	3.703800	-11.170000	24.111216	0.001152	20.755237
512.119595	-3.000600	3.704500	-11.114000	24.120745	0.001151	20.767640
513.126319	-3.019100	3.701600	-11.174000	24.113107	0.001151	20.768988
514.119443	-3.023600	3.701400	-11.191000	24.084664	0.001151	20.761798
515.119894	-3.009500	3.702200	-11.141000	24.062341	0.001153	20.755057
516.119335	-3.010300	3.700800	-11.139000	24.074213	0.001151	20.756058
517.123293	-2.986800	3.701500	-11.054000	24.092422	0.001150	20.761993
518.120177	-2.987100	3.702100	-11.057000	24.113996	0.001151	20.759448
519.120921	-2.993900	3.701700	-11.082000	24.147587	0.001151	20.761844
520.120239	-3.014600	3.700800	-11.155000	24.147460	0.001151	20.754130
521.121534	-3.004100	3.699700	-11.113000	24.160150	0.001151	20.780135
522.123744	-2.992400	3.700500	-11.072000	24.163830	0.001151	20.755376
523.122200	-2.979400	3.701100	-11.026000	24.154474	0.001150	20.785347
524.119233	-2.996100	3.699400	-11.083000	24.195079	0.001151	20.782927
525.121068	-2.979600	3.700300	-11.024000	24.191795	0.001151	20.755924
526.121881	-3.003900	3.699200	-11.111000	24.193707	0.001151	20.767800
527.122621	-3.009000	3.698500	-11.128000	24.218338	0.001150	20.746986
528.123314	-2.987200	3.698000	-11.045000	24.193358	0.001151	20.786416
529.126562	-3.023000	3.697600	-11.177000	24.185495	0.001152	20.781848
530.123843	-3.022000	3.695300	-11.165000	24.191591	0.001149	20.781798
531.124858	-3.012400	3.695600	-11.132000	24.219280	0.001150	20.772113
532.129655	-3.002800	3.696100	-11.097000	24.228660	0.001151	20.781996
533.126149	-3.016800	3.696800	-11.151000	24.235451	0.001151	20.759884
534.125452	-3.005500	3.697100	-11.111000	24.255157	0.001150	20.778228
535.130133	-3.018200	3.695500	-11.152000	24.283191	0.001150	20.749449
536.130320	-3.016600	3.695500	-11.147000	24.304063	0.001152	20.771335
537.131558	-3.010800	3.695100	-11.125000	24.319739	0.001151	20.776629
538.131053	-3.007300	3.695400	-11.112000	24.354737	0.001150	20.777598
539.132238	-2.990700	3.694300	-11.047000	24.336501	0.001150	20.761675
540.131125	-3.012500	3.694300	-11.129000	24.344787	0.001149	20.796066
541.136061	-2.999000	3.693700	-11.076000	24.357594	0.001151	20.791370
542.141162	-3.013200	3.693000	-11.127000	24.350430	0.001150	20.781813
543.141623	-3.018300	3.692800	-11.145000	24.306694	0.001152	20.796735
544.135201	-3.034300	3.692300	-11.202000	24.290673	0.001149	20.769757
545.135254	-2.987900	3.692400	-11.031000	24.304105	0.001148	20.776120
546.135283	-3.002700	3.691800	-11.084000	24.285399	0.001148	20.770631
547.137678	-3.000700	3.691500	-11.076000	24.316670	0.001149	20.767861
548.140556	-2.986600	3.690900	-11.022000	24.335298	0.001150	20.762365
549.136216	-2.993500	3.693800	-11.055000	24.352537	0.001148	20.774917
550.137970	-3.007500	3.692300	-11.103000	24.351446	0.001149	20.770030
551.141295	-2.993800	3.689300	-11.044000	24.339651	0.001151	20.787121
552.138835	-2.998400	3.691600	-11.068000	24.363782	0.001149	20.788094
553.143355	-3.009000	3.689400	-11.101000	24.370025	0.001148	20.778236
554.143374	-2.996000	3.690000	-11.054000	24.390024	0.001149	20.797825
555.142138	-3.000800	3.688300	-11.067000	24.388730	0.001150	20.776612
556.142571	-2.997100	3.689700	-11.058000	24.388007	0.001150	20.784421
557.146170	-2.983800	3.688300	-11.004000	24.384896	0.001147	20.784619
558.138568	-3.007600	3.687300	-11.088000	24.386483	0.001147	20.786212
559.143301	-3.006400	3.687900	-11.086000	24.399492	0.001150	20.791201
560.156838	-3.016100	3.687800	-11.120000	24.419864	0.001149	20.785561
561.141737	-2.984400	3.686500	-11.001000	24.422379	0.001148	20.804679
562.145690	-2.987400	3.686800	-11.012000	24.428470	0.001147	20.816480
563.155609	-3.004600	3.685400	-11.073000	24.460133	0.001149	20.799407
564.142265	-2.997100	3.686500	-11.046000	24.489036	0.001148	20.787154
565.148853	-2.987500	3.686700	-11.013000	24.487293	0.001147	20.795363
566.142499	-3.009700	3.686000	-11.093000	24.488934	0.001146	20.811233
567.140166	-2.983900	3.687000	-10.999000	24.527735	0.001148	20.793739
568.146396	-3.011800	3.683700	-11.093000	24.531463	0.001148	20.805540
569.141888	-3.002900	3.684600	-11.063000	24.540544	0.001148	20.808487
570.143528	-2.998800	3.683700	-11.046000	24.555265	0.001151	20.776790
571.145486	-3.003200	3.682500	-11.058000	24.577324	0.001147	20.805087
572.142469	-2.991200	3.684300	-11.020000	24.567425	0.001150	20.816966
573.157199	-2.994600	3.683800	-11.030000	24.526036	0.001148	20.796301
574.146545	-2.990000	3.683100	-11.012000	24.524643	0.001149	20.813870
575.147384	-2.974900	3.682500	-10.954000	24.483845	0.001148	20.786688
576.154963	-3.006700	3.682300	-11.070000	24.480339	0.001149	20.810671
577.149785	-2.997000	3.681000	-11.030000	24.508494	0.001148	20.823746
578.149443	-2.995000	3.683000	-11.030000	24.490536	0.001147	20.803357
579.147169	-2.992500	3.681800	-11.017000	24.523240	0.001146	20.807246
580.156143	-3.001200	3.679900	-11.042000	24.508413	0.001148	20.809440
581.158293	-2.991100	3.681200	-11.010000	24.500030	0.001146	20.831849
582.150142	-3.003500	3.679600	-11.050000	24.475702	0.001146	20.820717
583.151896	-3.007400	3.680400	-11.067000	24.456699	0.001146	20.805920
584.157429	-3.011600	3.679500	-11.080000	24.443861	0.001147	20.831920
585.150403	-2.993100	3.680100	-11.014000	24.472390	0.001146	20.826878
586.159115	-2.971000	3.681000	-10.935000	24.473558	0.001147	20.806713
587.155559	-2.995500	3.678400	-11.017000	24.521862	0.001145	20.834786
588.151087	-2.993600	3.678800	-11.012000	24.545120	0.001145	20.796483
589.176053	-2.987500	3.678000	-10.986000	24.582048	0.001147	20.819784
590.159012	-2.997300	3.677800	-11.022000	24.599508	0.001146	20.828768
591.156111	-2.976400	3.677100	-10.943000	24.607763	0.001146	20.820930
592.161050	-3.001600	3.676300	-11.034000	24.637981	0.001145	20.814268
593.157516	-3.008700	3.676200	-11.058000	24.617557	0.001144	20.825541
594.157495	-2.993100	3.677000	-11.003000	24.648949	0.001146	20.799668
595.158637	-3.034600	3.673900	-11.147000	24.668146	0.001144	20.838845
596.158447	-2.982000	3.676900	-10.963000	24.662324	0.001144	20.848176
597.155477	-3.008300	3.673500	-11.050000	24.675453	0.001143	20.847125
598.161319	-3.005900	3.674100	-11.041000	24.635637	0.001142	20.809070
599.163213	-3.004000	3.673800	-11.034000	24.594847	0.001143	20.822668
600.157709	-2.999200	3.674400	-11.018000	24.595344	0.001146	20.831702
601.156844	-3.010600	3.674200	-11.060000	24.619641	0.001144	20.846598
602.160658	-3.002900	3.672100	-11.025000	24.623817	0.001143	20.840831
603.158012	-2.994700	3.673700	-11.000000	24.649831	0.001143	20.833744
604.161117	-2.970200	3.673300	-10.909000	24.662015	0.001143	20.853555
605.161934	-3.018600	3.673200	-11.086000	24.677460	0.001142	20.835863
606.159925	-2.984500	3.672000	-10.957000	24.684794	0.001143	20.834689
607.161353	-3.013000	3.672100	-11.062000	24.710779	0.001142	20.849384
608.162539	-2.996400	3.671200	-10.999000	24.733706	0.001141	20.833985
609.166539	-2.982600	3.672300	-10.952000	24.747708	0.001142	20.850406
610.158995	-3.009300	3.669700	-11.042000	24.750913	0.001145	20.837028
611.163667	-3.005400	3.670900	-11.031000	24.730522	0.001142	20.832212
612.158695	-3.003600	3.669800	-11.022000	24.730572	0.001142	20.829891
613.160472	-3.004700	3.669600	-11.025000	24.752328	0.001142	20.839870
614.161060	-2.982300	3.670900	-10.947000	24.752254	0.001141	20.843588
615.162058	-2.988800	3.669700	-10.966000	24.755861	0.001139	20.841044
616.165030	-2.994300	3.669300	-10.986000	24.772169	0.001141	20.853616
617.167137	-2.982100	3.669000	-10.940000	24.744789	0.001142	20.855063
618.166965	-3.005800	3.667700	-11.024000	24.739391	0.001141	20.851543
619.166995	-3.000700	3.668200	-11.006000	24.701319	0.001139	20.851270
620.169530	-2.982000	3.668500	-10.938000	24.734166	0.001141	20.831601
621.165327	-3.011800	3.667300	-11.045000	24.764775	0.001140	20.848568
622.163185	-2.996800	3.666300	-10.986000	24.718817	0.001140	20.838958
623.167963	-3.007800	3.667900	-11.031000	24.740277	0.001141	20.853380
624.163793	-2.983500	3.666300	-10.938000	24.690065	0.001139	20.847089
625.169403	-2.997300	3.667400	-10.991000	24.696927	0.001141	20.872466
626.166246	-2.994800	3.666000	-10.977000	24.681161	0.001139	20.846690
627.165131	-2.987700	3.665900	-10.951000	24.653776	0.001138	20.856194
628.166678	-2.998400	3.665600	-10.989000	24.651312	0.001139	20.850402
629.166421	-3.001400	3.663800	-10.996000	24.661210	0.001140	20.844687
630.164788	-2.999700	3.665000	-10.993000	24.668866	0.001138	20.866119
631.166689	-3.000600	3.664500	-10.995000	24.703832	0.001137	20.850947
632.165955	-2.996200	3.665000	-10.980000	24.739569	0.001136	20.869265
633.165287	-2.996500	3.663300	-10.977000	24.742821	0.001137	20.864467
634.167544	-3.003600	3.661700	-10.996000	24.763586	0.001137	20.847848
635.166301	-3.008900	3.662900	-11.021000	24.796955	0.001138	20.847197
636.183861	-2.997200	3.663700	-10.979000	24.822517	0.001138	20.837290
637.181100	-2.998700	3.661000	-10.977000	24.838581	0.001135	20.867160
638.169714	-2.985500	3.662700	-10.934000	24.845393	0.001137	20.862143
639.171074	-3.010600	3.661500	-11.022000	24.805654	0.001137	20.865883
640.176016	-3.027100	3.659100	-11.075000	24.814754	0.001135	20.856050
641.171676	-3.013700	3.661300	-11.032000	24.805527	0.001137	20.876187
642.171072	-3.015700	3.661100	-11.040000	24.819130	0.001136	20.876562
643.172887	-3.022000	3.660500	-11.060000	24.826837	0.001134	20.876711
644.173395	-2.994100	3.660100	-10.958000	24.858164	0.001135	20.870218
645.173401	-2.993700	3.660700	-10.958000	24.843370	0.001133	20.890457
646.171116	-2.969000	3.660400	-10.866000	24.852494	0.001137	20.876856
647.173536	-3.018900	3.659800	-11.047000	24.824444	0.001136	20.864826
648.177998	-3.008000	3.659900	-11.008000	24.803282	0.001135	20.863977
649.174926	-3.002300	3.658200	-10.981000	24.790473	0.001133	20.868666
650.174941	-2.998700	3.658200	-10.968000	24.797112	0.001134	20.861579
651.177316	-2.977200	3.659400	-10.894000	24.788061	0.001134	20.857711
652.176129	-2.996200	3.658300	-10.960000	24.816085	0.001134	20.860705
653.177262	-2.976700	3.659300	-10.891000	24.824987	0.001133	20.861104
654.178341	-3.000300	3.656600	-10.968000	24.823588	0.001133	20.888148
655.175935	-3.002600	3.656800	-10.978000	24.848579	0.001132	20.878142
656.178640	-3.009600	3.656300	-11.003000	24.845448	0.001132	20.876422
657.177751	-3.000500	3.656400	-10.970000	24.831892	0.001134	20.882731
658.186028	-3.015600	3.653600	-11.018000	24.853127	0.001132	20.878913
659.177522	-3.000500	3.656300	-10.969000	24.872793	0.001131	20.866409
660.178398	-3.007600	3.654600	-10.990000	24.837308	0.001133	20.889114
661.178139	-3.027700	3.653400	-11.060000	24.838101	0.001132	20.886592
662.181475	-3.008000	3.654700	-10.992000	24.819404	0.001133	20.895802
663.185202	-3.000000	3.654800	-10.962000	24.806620	0.001133	20.884869
664.177447	-3.025100	3.653400	-11.050000	24.804359	0.001131	20.863636
665.178355	-3.029400	3.651400	-11.060000	24.854016	0.001131	20.891184
666.178529	-2.986300	3.653500	-10.909000	24.831959	0.001131	20.885170
667.177512	-2.990600	3.653400	-10.924000	24.824570	0.001130	20.906201
668.180197	-2.991700	3.652000	-10.925000	24.814744	0.001130	20.884014
669.178307	-3.005800	3.651900	-10.976000	24.836576	0.001130	20.902603
670.177513	-3.018200	3.651800	-11.021000	24.847340	0.001130	20.887329
671.180712	-2.991300	3.651600	-10.921000	24.865617	0.001131	20.876276
672.178571	-2.992600	3.651500	-10.926000	24.882519	0.001130	20.900824
673.179246	-2.986400	3.650400	-10.900000	24.873197	0.001128	20.908537
674.177826	-3.010100	3.649700	-10.985000	24.846466	0.001128	20.897831
675.182640	-3.007700	3.649800	-10.976000	24.837017	0.001129	20.885978
676.177592	-2.996500	3.650900	-10.939000	24.813814	0.001127	20.890667
677.178175	-3.000300	3.649900	-10.949000	24.817816	0.001130	20.907484
678.177070	-3.012200	3.648800	-10.990000	24.801330	0.001126	20.897103
679.181129	-3.017200	3.648000	-11.005000	24.831289	0.001128	20.879281
680.179157	-3.014900	3.647700	-10.997000	24.853645	0.001126	20.904561
681.184110	-3.022800	3.648300	-11.027000	24.897903	0.001127	20.885919
682.177776	-2.991500	3.649200	-10.916000	24.911007	0.001128	20.887692
683.185055	-3.021700	3.646600	-11.018000	24.936884	0.001127	20.888534
684.177071	-2.998900	3.646800	-10.936000	24.950041	0.001128	20.895575
685.177663	-2.993100	3.647000	-10.915000	24.957794	0.001127	20.901459
686.179002	-3.002300	3.647700	-10.951000	24.985464	0.001128	20.895569
687.178702	-2.991500	3.647200	-10.910000	24.992899	0.001128	20.862730
688.178399	-2.998000	3.646600	-10.932000	25.002022	0.001126	20.889904
689.179246	-3.003200	3.645000	-10.946000	25.040682	0.001126	20.884140
690.180040	-2.995800	3.646300	-10.923000	25.031605	0.001126	20.870763
691.193534	-3.003500	3.644000	-10.944000	25.036403	0.001125	20.900706
692.178885	-3.003700	3.644500	-10.946000	25.029339	0.001125	20.884608
693.179752	-3.013200	3.644900	-10.982000	25.030509	0.001126	20.911385
694.181139	-3.013600	3.644400	-10.982000	25.020460	0.001126	20.882334
695.182431	-3.011100	3.643800	-10.970000	25.026950	0.001125	20.869883
696.191959	-3.004900	3.644900	-10.951000	25.046789	0.001124	20.864193
697.185180	-2.989300	3.644700	-10.894000	25.040052	0.001128	20.870707
698.189575	-3.004900	3.642300	-10.943000	25.048848	0.001124	20.877165
699.197596	-2.983800	3.642300	-10.867000	25.009867	0.001126	20.878339
700.179981	-3.011900	3.642800	-10.971000	24.987736	0.001123	20.870825
701.182455	-3.010800	3.642900	-10.967000	24.988632	0.001123	20.868879
702.182645	-3.007700	3.642300	-10.954000	24.978066	0.001122	20.854955
703.183588	-2.998100	3.641700	-10.917000	25.000836	0.001122	20.857896
704.183215	-2.990600	3.642400	-10.892000	24.977686	0.001121	20.868798
705.183985	-2.983800	3.641900	-10.865000	24.973336	0.001119	20.871544
706.192768	-2.985200	3.641500	-10.870000	24.966176	0.001121	20.856297
707.188708	-3.004200	3.639900	-10.932000	24.947876	0.001120	20.881076
708.184661	-2.997600	3.639200	-10.908000	24.960084	0.001120	20.856821
709.181902	-2.981100	3.640900	-10.853000	24.959708	0.001120	20.857865
710.204175	-2.991700	3.638000	-10.883000	24.924975	0.001119	20.864729
711.185202	-3.014400	3.639300	-10.970000	24.910902	0.001119	20.858191
712.181457	-2.998500	3.639300	-10.911000	24.911300	0.001118	20.850530
713.183277	-2.998500	3.638900	-10.911000	24.932827	0.001119	20.839895
714.185670	-3.026700	3.638100	-11.010000	24.918905	0.001118	20.860059
715.183993	-3.006300	3.638100	-10.935000	24.927507	0.001117	20.858262
716.186445	-3.009700	3.636800	-10.945000	24.941059	0.001120	20.847208
717.188021	-3.007100	3.637100	-10.935000	24.938721	0.001116	20.856716
718.187860	-2.997100	3.636700	-10.898000	24.943396	0.001118	20.869467
719.186903	-2.978400	3.638300	-10.835000	24.935662	0.001117	20.868817
720.188260	-2.995300	3.636000	-10.889000	24.944045	0.001117	20.840722
721.183670	-2.993600	3.636300	-10.885000	24.929344	0.001116	20.856313
722.184659	-3.015400	3.635000	-10.960000	24.957861	0.001118	20.842736
723.196085	-2.980600	3.636100	-10.837000	25.012411	0.001115	20.853868
724.194352	-2.997700	3.635000	-10.895000	25.017388	0.001116	20.838475
725.188562	-3.001000	3.635300	-10.908000	25.026459	0.001115	20.839520
726.189618	-3.006400	3.634800	-10.927000	25.060645	0.001113	20.852498
727.184447	-3.010000	3.635000	-10.940000	25.062284	0.001115	20.840394
728.196871	-3.039800	3.633200	-11.043000	25.076303	0.001114	20.848776
729.185605	-3.014000	3.632900	-10.948000	25.075683	0.001116	20.856214
730.184804	-2.995900	3.634600	-10.886000	25.081823	0.001115	20.835826
731.184952	-3.000900	3.633700	-10.904000	25.101433	0.001114	20.821846
732.189406	-2.997600	3.633000	-10.889000	25.096941	0.001112	20.832510
733.185513	-3.003700	3.634200	-10.915000	25.116699	0.001113	20.830533
734.185899	-2.987200	3.633400	-10.853000	25.104542	0.001112	20.825915
735.188935	-3.010200	3.631600	-10.930000	25.097907	0.001112	20.848178
736.186507	-3.009100	3.632200	-10.929000	25.060413	0.001113	20.851791
737.185894	-2.990500	3.631500	-10.859000	25.039608	0.001112	20.829011
738.190438	-2.957900	3.632700	-10.745000	24.984562	0.001112	20.826864
739.187982	-2.986700	3.631200	-10.845000	24.980635	0.001110	20.836198
740.188267	-3.022700	3.630400	-10.973000	24.988193	0.001111	20.820551
741.188064	-3.001300	3.629500	-10.892000	25.003834	0.001112	20.828190
742.191711	-3.022800	3.629000	-10.969000	25.017576	0.001110	20.817802
743.190171	-2.999600	3.630100	-10.888000	25.025610	0.001110	20.830607
744.189492	-2.992700	3.629200	-10.859000	25.043260	0.001110	20.810867
745.191754	-2.968000	3.629200	-10.770000	25.030979	0.001109	20.831255
746.191135	-2.996100	3.629700	-10.874000	25.027873	0.001110	20.821025
747.190898	-2.998100	3.628600	-10.877000	25.060888	0.001108	20.809596
748.197558	-3.004800	3.629000	-10.904000	25.061284	0.001106	20.824691
749.191635	-3.024500	3.626200	-10.966000	25.071428	0.001109	20.806900
750.192682	-2.998500	3.627800	-10.877000	25.080999	0.001107	20.839740
751.193108	-2.996100	3.627000	-10.867000	25.082567	0.001106	20.836099
752.193978	-2.991600	3.628600	-10.854000	25.079211	0.001107	20.813764
753.193383	-2.985000	3.627000	-10.826000	25.088729	0.001108	20.811465
754.194162	-2.975000	3.627700	-10.791000	25.075831	0.001105	20.819854
755.193525	-2.990700	3.626100	-10.844000	25.099247	0.001107	20.822971
756.194531	-3.000100	3.624600	-10.874000	25.095814	0.001106	20.798663
757.195158	-3.006000	3.625700	-10.897000	25.114809	0.001107	20.805403
758.195974	-3.026500	3.623800	-10.966000	25.125028	0.001104	20.806178
759.203123	-3.005800	3.624200	-10.893000	25.162140	0.001104	20.808821
760.194905	-2.985300	3.624900	-10.820000	25.157985	0.001104	20.826461
761.199450	-3.005100	3.624700	-10.892000	25.183573	0.001104	20.789561
762.198794	-2.988100	3.623900	-10.827000	25.166091	0.001104	20.831280
763.196786	-3.005900	3.622600	-10.888000	25.182298	0.001104	20.813411
764.203048	-3.006600	3.622500	-10.890000	25.194281	0.001105	20.813588
765.199770	-2.995900	3.624300	-10.856000	25.223906	0.001103	20.821518
766.197027	-2.993300	3.623900	-10.846000	25.235194	0.001103	20.812463
767.202463	-2.989500	3.622800	-10.829000	25.224356	0.001102	20.822919
768.201709	-3.005600	3.622100	-10.885000	25.234126	0.001102	20.815184
769.197530	-2.996100	3.623100	-10.854000	25.198007	0.001102	20.792198
770.202271	-3.009700	3.621900	-10.899000	25.213268	0.001101	20.833598
771.204668	-3.016900	3.621300	-10.924000	25.157960	0.001101	20.808419
772.202866	-3.014300	3.620100	-10.910000	25.132826	0.001099	20.807842
773.204319	-2.988200	3.620900	-10.819000	25.074902	0.001098	20.796636
774.204773	-3.005600	3.621000	-10.883000	25.059265	0.001101	20.799906
775.199190	-3.006500	3.621100	-10.886000	25.057696	0.001098	20.797857
776.203044	-3.008400	3.620100	-10.889000	25.051333	0.001099	20.785780
777.199969	-2.984800	3.620500	-10.805000	25.052800	0.001100	20.803848
778.202559	-2.983100	3.618900	-10.794000	25.053470	0.001096	20.807839
779.202762	-3.008600	3.618400	-10.885000	25.030053	0.001098	20.809937
780.199439	-3.003300	3.619100	-10.868000	25.062272	0.001098	20.794863
781.202748	-3.001500	3.617100	-10.856000	25.076393	0.001097	20.806193
782.199678	-2.989900	3.618500	-10.818000	25.063115	0.001098	20.790020
783.204668	-2.999700	3.618100	-10.853000	25.109080	0.001096	20.805341
784.202960	-2.997500	3.617300	-10.842000	25.094613	0.001095	20.815001
785.202343	-3.021000	3.617600	-10.926000	25.103338	0.001093	20.800051
786.205573	-3.008800	3.616400	-10.880000	25.090260	0.001094	20.798778
787.204248	-3.016100	3.618100	-10.912000	25.078551	0.001094	20.799825
788.201606	-3.008900	3.615100	-10.876000	25.101495	0.001094	20.808633
789.205152	-3.009600	3.616100	-10.882000	25.099905	0.001094	20.802295
790.206007	-2.998600	3.617100	-10.844000	25.118548	0.001093	20.797302
791.201411	-2.977100	3.617400	-10.768000	25.137268	0.001093	20.791913
792.205395	-3.022000	3.613700	-10.920000	25.157201	0.001093	20.789164
793.201518	-2.981300	3.616000	-10.779000	25.173012	0.001095	20.791287
794.201981	-3.009000	3.615200	-10.877000	25.187456	0.001093	20.782080
795.206045	-3.009300	3.613800	-10.874000	25.151907	0.001094	20.784798
796.204576	-3.010500	3.612700	-10.875000	25.191830	0.001091	20.784575
797.204903	-2.983600	3.614400	-10.783000	25.205798	0.001090	20.803339
798.202254	-3.002400	3.614300	-10.850000	25.192972	0.001090	20.790463
799.205055	-2.990800	3.614400	-10.809000	25.196550	0.001088	20.773666
800.204412	-3.003000	3.613000	-10.848000	25.206493	0.001090	20.799769
801.201826	-2.999200	3.611800	-10.831000	25.234901	0.001090	20.788461
802.200140	-2.997700	3.611600	-10.825000	25.287174	0.001089	20.808701
803.204600	-2.993100	3.612100	-10.810000	25.311682	0.001090	20.798220
804.202051	-2.992200	3.611400	-10.804000	25.301592	0.001089	20.797572
805.207365	-2.982800	3.611600	-10.771000	25.275170	0.001086	20.783846
806.213538	-3.003700	3.611800	-10.848000	25.260826	0.001088	20.783670
807.202922	-2.992800	3.612500	-10.811000	25.232466	0.001087	20.778429
808.213502	-2.994200	3.612300	-10.814000	25.224634	0.001086	20.776257
809.204238	-3.015400	3.609300	-10.882000	25.209225	0.001085	20.792081
810.205697	-3.009500	3.610200	-10.863000	25.224162	0.001086	20.782895
811.205095	-3.010400	3.608800	-10.862000	25.265497	0.001084	20.768918
812.204479	-3.006100	3.607900	-10.845000	25.267682	0.001086	20.788182
813.207918	-3.018200	3.608700	-10.889000	25.273275	0.001086	20.786211
814.207760	-2.980300	3.610100	-10.758000	25.249415	0.001085	20.776006
815.213007	-2.995500	3.608200	-10.807000	25.237735	0.001085	20.773288
816.206091	-2.985200	3.608200	-10.770000	25.204073	0.001083	20.786908
817.205542	-2.977500	3.608800	-10.744000	25.225650	0.001085	20.797191
818.208599	-2.977500	3.608100	-10.742000	25.227190	0.001084	20.772659
819.208431	-3.003500	3.605700	-10.829000	25.224233	0.001082	20.793398
820.206397	-2.963700	3.607100	-10.689000	25.203551	0.001085	20.796816
821.209389	-3.007500	3.606400	-10.845000	25.205616	0.001081	20.785613
822.209874	-2.991200	3.606100	-10.786000	25.212050	0.001082	20.776899
823.206339	-2.989700	3.604700	-10.775000	25.219683	0.001082	20.776502
824.205174	-2.993100	3.604500	-10.788000	25.220230	0.001081	20.789853
825.208766	-3.021100	3.603300	-10.885000	25.257814	0.001080	20.783016
826.210187	-2.972500	3.604900	-10.714000	25.291218	0.001079	20.785260
827.207763	-2.990300	3.604000	-10.775000	25.297555	0.001078	20.773130
828.212163	-2.994500	3.602600	-10.786000	25.329791	0.001079	20.771357
829.211100	-3.003600	3.602900	-10.820000	25.306851	0.001080	20.770136
830.208256	-3.000200	3.603100	-10.810000	25.350893	0.001078	20.781166
831.210565	-2.969200	3.602800	-10.697000	25.347884	0.001078	20.780989
832.211664	-2.989100	3.602300	-10.767000	25.331880	0.001079	20.778671
833.211401	-3.014500	3.601500	-10.856000	25.287366	0.001078	20.788505
834.208573	-3.003700	3.600600	-10.814000	25.285273	0.001077	20.776446
835.213396	-3.022200	3.600300	-10.879000	25.307691	0.001076	20.773824
836.212284	-3.000600	3.601600	-10.806000	25.322880	0.001077	20.770108
837.209077	-2.995000	3.601900	-10.787000	25.367742	0.001075	20.779118
838.213217	-2.980700	3.601400	-10.734000	25.385439	0.001077	20.771283
839.209856	-2.997900	3.600100	-10.792000	25.430001	0.001073	20.747277
840.210519	-2.994500	3.599500	-10.777000	25.458576	0.001075	20.774075
841.217083	-3.030700	3.599100	-10.905000	25.449729	0.001074	20.759500
842.213400	-2.996000	3.599200	-10.781000	25.435313	0.001072	20.762568
843.213939	-2.987100	3.600700	-10.754000	25.385408	0.001072	20.775520
844.215208	-3.003000	3.598900	-10.804000	25.346041	0.001072	20.769656
845.210551	-3.004900	3.598000	-10.811000	25.300978	0.001072	20.767558
846.214576	-3.010800	3.597800	-10.832000	25.297002	0.001071	20.742229
847.215627	-3.018600	3.597000	-10.857000	25.314003	0.001071	20.764989
848.212960	-2.995700	3.596800	-10.773000	25.331028	0.001070	20.752211
849.212941	-2.993000	3.598000	-10.767000	25.308259	0.001071	20.765860
850.215706	-2.996300	3.595900	-10.772000	25.322800	0.001070	20.760545
851.215464	-3.018600	3.596600	-10.856000	25.327720	0.001069	20.756001
852.214755	-2.994700	3.595500	-10.767000	25.344319	0.001069	20.745167
853.211700	-3.002400	3.596000	-10.796000	25.356625	0.001071	20.763687
854.214167	-3.010100	3.594800	-10.818000	25.396439	0.001067	20.768578
855.212454	-2.993700	3.596600	-10.766000	25.421542	0.001070	20.757275
856.212643	-3.010000	3.593100	-10.814000	25.421367	0.001068	20.745718
857.214793	-3.015700	3.594200	-10.838000	25.418012	0.001067	20.755152
858.215357	-2.960900	3.595900	-10.645000	25.382671	0.001065	20.745269
859.214228	-2.983600	3.593000	-10.719000	25.357967	0.001065	20.749862
860.215378	-2.988900	3.593400	-10.739000	25.352498	0.001065	20.737732
861.217803	-2.975900	3.592900	-10.689000	25.305796	0.001067	20.777137
862.215218	-3.023800	3.592100	-10.859000	25.297842	0.001065	20.759194
863.217208	-2.991700	3.593200	-10.749000	25.287175	0.001066	20.763182
864.218905	-3.010200	3.592600	-10.813000	25.282526	0.001063	20.742867
865.216034	-3.001100	3.592400	-10.779000	25.279273	0.001064	20.757145
866.218399	-2.988200	3.591900	-10.731000	25.267791	0.001064	20.752729
867.215265	-2.952200	3.593700	-10.608000	25.293987	0.001062	20.773341
868.219149	-3.004400	3.590600	-10.787000	25.263315	0.001061	20.761512
869.215086	-2.993100	3.589800	-10.743000	25.283422	0.001062	20.764155
870.218771	-2.960600	3.593200	-10.636000	25.307682	0.001062	20.753426
871.219098	-2.992700	3.590600	-10.744000	25.337878	0.001059	20.754821
872.215006	-3.009900	3.590000	-10.805000	25.378736	0.001060	20.744163
873.216297	-2.998600	3.588800	-10.759000	25.418450	0.001060	20.723349
874.215106	-2.998200	3.589500	-10.761000	25.428789	0.001062	20.747956
875.216205	-2.992900	3.588000	-10.738000	25.443523	0.001058	20.723869
876.220849	-2.991000	3.588500	-10.733000	25.444418	0.001059	20.757012
877.217254	-3.011400	3.587600	-10.803000	25.421651	0.001058	20.765445
878.217607	-2.981200	3.588300	-10.696000	25.413997	0.001057	20.767717
879.220739	-2.976100	3.588300	-10.679000	25.372514	0.001057	20.746925
880.217532	-3.007000	3.586100	-10.783000	25.356631	0.001057	20.754685
881.221240	-2.979300	3.588400	-10.690000	25.358943	0.001057	20.761748
882.222111	-2.989800	3.588000	-10.725000	25.390730	0.001058	20.746249
883.221840	-2.985200	3.586200	-10.704000	25.395896	0.001056	20.753808
884.220106	-3.013500	3.586100	-10.805000	25.426046	0.001054	20.730976
885.220256	-3.012200	3.585100	-10.799000	25.453282	0.001055	20.749317
886.221382	-2.983800	3.585600	-10.697000	25.446921	0.001055	20.735343
887.220654	-2.992100	3.586000	-10.729000	25.471721	0.001054	20.768783
888.218337	-2.974900	3.585200	-10.663000	25.512475	0.001052	20.742852
889.220284	-2.999800	3.583300	-10.747000	25.520823	0.001053	20.746494
890.221545	-2.986400	3.585800	-10.707000	25.506884	0.001054	20.753833
891.218955	-3.023100	3.582300	-10.829000	25.531507	0.001051	20.740153
892.222333	-3.011200	3.583600	-10.790000	25.515157	0.001050	20.745071
893.222931	-2.996300	3.583000	-10.735000	25.509140	0.001050	20.758943
894.219267	-2.995700	3.582700	-10.731000	25.479443	0.001051	20.757571
895.222923	-2.978200	3.583100	-10.670000	25.451884	0.001051	20.744120
896.221744	-2.995900	3.581600	-10.729000	25.451236	0.001050	20.740624
897.222598	-2.988300	3.581600	-10.702000	25.457223	0.001050	20.739524
898.224417	-3.024200	3.579000	-10.823000	25.429512	0.001050	20.727819
899.220363	-3.010900	3.580500	-10.779000	25.462491	0.001047	20.751453
900.224885	-2.994800	3.581500	-10.724000	25.481751	0.001049	20.739974
901.222533	-2.998400	3.580200	-10.734000	25.493256	0.001047	20.753898
902.223259	-3.012800	3.579800	-10.785000	25.544792	0.001046	20.764401
903.225850	-3.020300	3.578900	-10.809000	25.555802	0.001045	20.734680
904.223361	-3.014600	3.578700	-10.788000	25.567581	0.001045	20.738923
905.226952	-2.966500	3.580600	-10.620000	25.519123	0.001045	20.729613
906.232751	-2.981700	3.579100	-10.671000	25.522703	0.001047	20.752649
907.223949	-2.996800	3.578500	-10.724000	25.496682	0.001045	20.750700
908.223804	-2.976000	3.579200	-10.650000	25.471459	0.001046	20.750502
909.227261	-3.003600	3.577000	-10.743000	25.476601	0.001044	20.757562
910.224389	-2.995000	3.578200	-10.716000	25.513951	0.001043	20.741489
911.229625	-2.994700	3.578200	-10.715000	25.472080	0.001043	20.759660
912.227706	-3.017300	3.576800	-10.791000	25.508310	0.001044	20.756214
913.230305	-3.000500	3.576000	-10.728000	25.488603	0.001040	20.754915
914.227104	-3.002300	3.575800	-10.735000	25.471706	0.001041	20.754543
915.231757	-2.999000	3.575100	-10.721000	25.430374	0.001040	20.750970
916.233410	-2.990700	3.575900	-10.692000	25.405397	0.001039	20.764770
917.233539	-2.985600	3.576400	-10.677000	25.370901	0.001039	20.749098
918.232983	-2.991900	3.575900	-10.698000	25.316150	0.001039	20.749600
919.234130	-2.987400	3.574000	-10.676000	25.330962	0.001039	20.759257
920.230676	-2.995500	3.573800	-10.704000	25.353080	0.001038	20.751119
921.235565	-3.011000	3.575200	-10.764000	25.397122	0.001038	20.746030
922.231456	-3.029100	3.572500	-10.820000	25.406366	0.001037	20.741087
923.234688	-2.998700	3.572800	-10.712000	25.411437	0.001037	20.756136
924.236042	-3.004900	3.572100	-10.731000	25.410964	0.001036	20.744756
925.234900	-2.989400	3.572800	-10.680000	25.399706	0.001036	20.754788
926.234827	-2.997000	3.571100	-10.702000	25.400499	0.001036	20.750369
927.234772	-3.020300	3.570800	-10.784000	25.389910	0.001034	20.758228
928.233295	-2.975600	3.572700	-10.629000	25.404178	0.001032	20.747899
929.232534	-2.992500	3.572600	-10.690000	25.412551	0.001036	20.758204
930.233326	-2.996000	3.569600	-10.693000	25.462680	0.001033	20.748798
931.238447	-2.993200	3.570700	-10.686000	25.501367	0.001031	20.760147
932.238421	-3.014200	3.569000	-10.757000	25.524851	0.001033	20.748643
933.233525	-2.998700	3.568800	-10.701000	25.564884	0.001031	20.749492
934.237227	-3.008600	3.568900	-10.736000	25.557929	0.001032	20.751041
935.236555	-3.008400	3.568800	-10.735000	25.551813	0.001030	20.749167
936.237397	-3.008800	3.568500	-10.736000	25.565403	0.001028	20.759496
937.241314	-2.996100	3.570000	-10.695000	25.572309	0.001030	20.739404
938.235239	-3.025600	3.566600	-10.790000	25.568384	0.001030	20.757748
939.239043	-3.007100	3.566700	-10.724000	25.586748	0.001028	20.752483
940.237758	-2.991100	3.567600	-10.670000	25.581505	0.001027	20.750062
941.240885	-2.994600	3.566400	-10.679000	25.600112	0.001025	20.759741
942.238137	-2.983300	3.566900	-10.641000	25.571436	0.001028	20.762710
943.238304	-3.006000	3.566200	-10.718000	25.563413	0.001026	20.750859
944.237110	-2.989000	3.565400	-10.656000	25.545820	0.001026	20.764960
945.238800	-2.990400	3.565600	-10.663000	25.533443	0.001026	20.758220
946.242041	-3.001700	3.565700	-10.702000	25.511749	0.001023	20.761089
947.242446	-3.001200	3.565300	-10.698000	25.506802	0.001024	20.749009
948.243486	-3.022400	3.564200	-10.770000	25.521414	0.001024	20.743294
949.245939	-2.995600	3.563900	-10.675000	25.541568	0.001022	20.746939
950.241086	-3.024400	3.564200	-10.779000	25.562713	0.001023	20.765329
951.245364	-2.994300	3.563800	-10.670000	25.620929	0.001021	20.764527
952.243677	-2.978800	3.565000	-10.618000	25.632339	0.001023	20.742321
953.243950	-2.982900	3.562800	-10.626000	25.677410	0.001022	20.752028
954.241555	-3.003600	3.562200	-10.699000	25.693658	0.001021	20.764080
955.244352	-2.979800	3.562400	-10.614000	25.705559	0.001020	20.763231
956.244475	-3.006300	3.562400	-10.709000	25.682949	0.001019	20.771342
957.242089	-3.001300	3.561800	-10.689000	25.666626	0.001018	20.748309
958.245003	-3.018500	3.560700	-10.747000	25.677281	0.001017	20.767545
959.246675	-3.007400	3.561000	-10.707000	25.657876	0.001020	20.762754
960.246109	-2.986700	3.560900	-10.634000	25.623811	0.001017	20.765051
961.243455	-3.017400	3.558500	-10.735000	25.605297	0.001019	20.761155
962.246254	-2.996300	3.558900	-10.661000	25.594046	0.001018	20.761235
963.242671	-3.012300	3.559100	-10.720000	25.607136	0.001016	20.778175
964.251314	-3.007900	3.558100	-10.701000	25.611385	0.001016	20.768218
965.248116	-3.005400	3.559200	-10.696000	25.622243	0.001013	20.772485
966.246886	-3.005100	3.558300	-10.692000	25.664010	0.001014	20.759432
967.254236	-2.994200	3.559100	-10.656000	25.677728	0.001016	20.785065
968.246731	-3.000600	3.557300	-10.673000	25.693529	0.001013	20.760631
969.249501	-2.995000	3.556100	-10.649000	25.720536	0.001015	20.783965
970.248753	-3.013300	3.555800	-10.712000	25.716907	0.001011	20.781743
971.249253	-3.014100	3.554700	-10.713000	25.696587	0.001011	20.774608
972.248372	-3.008200	3.556600	-10.698000	25.748612	0.001011	20.804105
973.246437	-3.016800	3.555400	-10.724000	25.730026	0.001010	20.761254
974.249059	-2.985800	3.557800	-10.622000	25.782448	0.001011	20.760331
975.245997	-2.994900	3.554900	-10.645000	25.779342	0.001010	20.768116
976.248962	-2.993600	3.556000	-10.644000	25.758671	0.001008	20.778172
977.250779	-3.020600	3.554400	-10.736000	25.748384	0.001007	20.761676
978.249788	-3.008400	3.553800	-10.690000	25.761651	0.001009	20.789701
979.254008	-3.022000	3.553500	-10.738000	25.768309	0.001006	20.795441
980.247332	-3.008700	3.553600	-10.690000	25.765748	0.001007	20.791920
981.250284	-3.007800	3.552200	-10.682000	25.734099	0.001007	20.773406
982.249449	-3.010800	3.553100	-10.695000	25.701968	0.001007	20.784281
983.249347	-3.002100	3.552600	-10.664000	25.655485	0.001008	20.772681
984.253043	-2.986500	3.552500	-10.608000	25.678192	0.001003	20.767986
985.248413	-3.001400	3.552400	-10.661000	25.667880	0.001005	20.783708
986.249135	-3.007000	3.550800	-10.675000	25.676624	0.001005	20.780637
987.251376	-3.018300	3.550800	-10.716000	25.647284	0.001002	20.802376
988.248359	-3.050100	3.548400	-10.822000	25.615353	0.001004	20.768885
989.250595	-2.986000	3.550900	-10.602000	25.635083	0.001001	20.800554
990.253009	-2.993800	3.550300	-10.627000	25.664773	0.001000	20.789596
991.253931	-2.992000	3.550200	-10.620000	25.689741	0.001002	20.777690
992.250130	-3.014400	3.549600	-10.699000	25.705223	0.001001	20.814103
993.251332	-2.987600	3.550000	-10.606000	25.725791	0.001000	20.794459
994.249786	-3.005500	3.549300	-10.666000	25.723755	0.001000	20.788146
995.252798	-3.004400	3.547700	-10.658000	25.759757	0.000998	20.792540
996.254570	-2.989400	3.548800	-10.607000	25.724795	0.000997	20.787768
997.252741	-3.012700	3.547600	-10.686000	25.734659	0.000998	20.787244
998.253905	-3.001900	3.547000	-10.646000	25.739530	0.000997	20.799250
999.250808	-3.004400	3.546400	-10.653000	25.735927	0.000996	20.798001
1000.254231	-3.005500	3.546100	-10.657000	25.757811	0.000997	20.803862
1001.253775	-3.015300	3.546600	-10.693000	25.775178	0.000997	20.792857
1002.249779	-2.988100	3.546200	-10.595000	25.737932	0.000995	20.799068
1003.254669	-2.981800	3.545600	-10.572000	25.726927	0.000996	20.777582
1004.253460	-3.002100	3.546000	-10.645000	25.747374	0.000994	20.806180
1005.255430	-3.001500	3.545400	-10.639000	25.754056	0.000994	20.795349
1006.252085	-3.007000	3.543200	-10.653000	25.795294	0.000994	20.800261
1007.251348	-3.003300	3.543600	-10.641000	25.812808	0.000994	20.800311
1008.255752	-3.023100	3.542700	-10.709000	25.802350	0.000992	20.801185
1009.251120	-3.005400	3.544300	-10.651000	25.810399	0.000991	20.803580
1010.255869	-3.004000	3.543100	-10.642000	25.783142	0.000991	20.786632
1011.253791	-2.979900	3.543100	-10.557000	25.782568	0.000988	20.801228
1012.254384	-2.988300	3.542500	-10.585000	25.771511	0.000991	20.813355
1013.257390	-2.985500	3.543200	-10.577000	25.805895	0.000988	20.808065
1014.252827	-2.997000	3.542300	-10.615000	25.828302	0.000990	20.810659
1015.253102	-3.000000	3.542200	-10.625000	25.835404	0.000989	20.806888
1016.255219	-3.014900	3.540700	-10.672000	25.847377	0.000987	20.801846
1017.256248	-2.994200	3.542100	-10.605000	25.875895	0.000989	20.793035
1018.253551	-3.014600	3.541300	-10.675000	25.884514	0.000988	20.805013
1019.257576	-2.989100	3.539900	-10.580000	25.883444	0.000987	20.814369
1020.257471	-2.989800	3.539000	-10.580000	25.843648	0.000985	20.810427
1021.258062	-3.003100	3.539700	-10.627000	25.833683	0.000986	20.797099
1022.254717	-2.997400	3.539000	-10.606000	25.812544	0.000983	20.818063
1023.259769	-3.020100	3.539500	-10.686000	25.773113	0.000983	20.820180
1024.258155	-2.984400	3.539500	-10.562000	25.755197	0.000983	20.823047
1025.258534	-3.022300	3.537300	-10.689000	25.763647	0.000983	20.821578
1026.263124	-3.004700	3.536800	-10.626000	25.758702	0.000982	20.807601
1027.262253	-3.007300	3.537700	-10.637000	25.774499	0.000982	20.814934
1028.259717	-3.019200	3.536900	-10.678000	25.827344	0.000982	20.832455
1029.261589	-2.994500	3.536600	-10.589000	25.838719	0.000981	20.815907
1030.263359	-2.991300	3.537200	-10.580000	25.814446	0.000980	20.833249
1031.260378	-3.003900	3.537200	-10.625000	25.838543	0.000980	20.798661
1032.264340	-3.007400	3.534900	-10.631000	25.806742	0.000979	20.818873
1033.261574	-3.002100	3.535200	-10.610000	25.794741	0.000980	20.806818
1034.260434	-2.973300	3.536200	-10.512000	25.763507	0.000977	20.818592
1035.264419	-3.004000	3.534200	-10.616000	25.774913	0.000978	20.808238
1036.267873	-3.002600	3.535900	-10.616000	25.742141	0.000977	20.824632
1037.265141	-2.993800	3.535400	-10.584000	25.763482	0.000977	20.831369
1038.268682	-3.010100	3.533000	-10.634000	25.753767	0.000976	20.826352
1039.266830	-2.981700	3.532800	-10.533000	25.803701	0.000976	20.843319
1040.267559	-2.998000	3.532600	-10.590000	25.820593	0.000975	20.828519
1041.267746	-2.997700	3.532300	-10.588000	25.837983	0.000975	20.836979
1042.268965	-2.997800	3.532300	-10.588000	25.820991	0.000972	20.838875
1043.266208	-3.029500	3.530700	-10.695000	25.831298	0.000973	20.836427
1044.265162	-3.021900	3.530700	-10.669000	25.859023	0.000972	20.839148
1045.268754	-3.003800	3.530500	-10.604000	25.863145	0.000973	20.847081
1046.269658	-3.003300	3.529300	-10.599000	25.894294	0.000971	20.824320
1047.268200	-2.998800	3.530900	-10.587000	25.916628	0.000972	20.832058
1048.275322	-3.033900	3.528100	-10.702000	25.948645	0.000969	20.843360
1049.284394	-2.984700	3.529400	-10.533000	25.979545	0.000971	20.842635
1050.267312	-3.002100	3.528000	-10.589000	25.982873	0.000968	20.852617
1051.267388	-2.998300	3.529200	-10.580000	25.967447	0.000967	20.850869
1052.268627	-2.990300	3.529400	-10.553000	25.962801	0.000966	20.852840
1053.268223	-2.997100	3.527500	-10.571000	25.924572	0.000966	20.827237
1054.271621	-3.005200	3.526500	-10.596000	25.899977	0.000966	20.845201
1055.270894	-3.024200	3.525200	-10.660000	25.869671	0.000964	20.850318
1056.267616	-3.005200	3.526800	-10.597000	25.874113	0.000966	20.846720
1057.267279	-2.990300	3.525900	-10.543000	25.877393	0.000965	20.856178
1058.272604	-2.982100	3.527200	-10.517000	25.923521	0.000963	20.860793
1059.270283	-2.993300	3.527300	-10.557000	25.929486	0.000963	20.855880
1060.267791	-3.000200	3.526000	-10.577000	25.905610	0.000962	20.852757
1061.270284	-3.020600	3.524300	-10.644000	25.894903	0.000963	20.850061
1062.274985	-2.993200	3.525700	-10.552000	25.887823	0.000961	20.853854
1063.267848	-3.001800	3.524600	-10.579000	25.915670	0.000961	20.855751
1064.275167	-3.004300	3.523200	-10.583000	25.891149	0.000961	20.843920
1065.268871	-3.005700	3.523300	-10.589000	25.860469	0.000961	20.851032
1066.273498	-3.031200	3.522900	-10.677000	25.857412	0.000959	20.864555
1067.273176	-3.007000	3.522400	-10.591000	25.841638	0.000959	20.853452
1068.274550	-3.011100	3.522300	-10.605000	25.874157	0.000957	20.841075
1069.275508	-3.014300	3.523100	-10.619000	25.907246	0.000958	20.843495
1070.270730	-3.008300	3.521900	-10.593000	25.943462	0.000954	20.849532
1071.273553	-3.007700	3.522400	-10.592000	25.951608	0.000958	20.862457
1072.281731	-3.012400	3.521000	-10.606000	25.982511	0.000956	20.853201
1073.276252	-2.981000	3.521600	-10.496000	26.018647	0.000956	20.863902
1074.272606	-3.018000	3.519100	-10.619000	26.036709	0.000956	20.844592
1075.275637	-2.996000	3.520200	-10.545000	26.032509	0.000954	20.865027
1076.276209	-2.990100	3.520000	-10.523000	26.043634	0.000955	20.853446
1077.274806	-3.006100	3.519400	-10.578000	26.045322	0.000953	20.863202
1078.278534	-2.999700	3.522200	-10.564000	26.044430	0.000954	20.874159
1079.280319	-3.017300	3.518800	-10.616000	26.007817	0.000952	20.865349
1080.282302	-2.996900	3.518300	-10.543000	25.961591	0.000952	20.863477
1081.279780	-2.990400	3.520300	-10.526000	25.939110	0.000950	20.892098
1082.280354	-3.017700	3.516300	-10.610000	25.930762	0.000950	20.849576
1083.280996	-3.003100	3.518700	-10.566000	25.908752	0.000948	20.876775
1084.279045	-3.003400	3.517500	-10.564000	25.898245	0.000950	20.879970
1085.275363	-2.992800	3.517600	-10.527000	25.913670	0.000947	20.867965
1086.280462	-3.004900	3.516300	-10.564000	25.937768	0.000947	20.856614
1087.280446	-2.972300	3.516100	-10.450000	25.960170	0.000947	20.866791
1088.279258	-3.029800	3.514200	-10.645000	26.016927	0.000947	20.883983
1089.276206	-2.992800	3.515400	-10.520000	26.019413	0.000947	20.867516
1090.287646	-2.991500	3.516000	-10.517000	26.058928	0.000948	20.873553
1091.279078	-3.016600	3.513400	-10.598000	26.083267	0.000946	20.853438
1092.276175	-2.991700	3.514600	-10.513000	26.061982	0.000945	20.892266
1093.279610	-2.994500	3.513300	-10.519000	26.058503	0.000944	20.892564
1094.279777	-2.990300	3.514400	-10.508000	26.067494	0.000944	20.857504
1095.278583	-3.002700	3.513900	-10.550000	26.050628	0.000943	20.877067
1096.283197	-3.019200	3.512100	-10.603000	26.062275	0.000942	20.890191
1097.278947	-2.997000	3.511300	-10.521000	26.027501	0.000944	20.871375
1098.278628	-3.009300	3.511700	-10.567000	26.000450	0.000942	20.864586
1099.282615	-2.983400	3.511700	-10.477000	25.996798	0.000941	20.878933
1100.285740	-3.021400	3.510500	-10.605000	26.012419	0.000941	20.904582
1101.279142	-2.990500	3.511200	-10.500000	25.995031	0.000940	20.884744
1102.279860	-3.034600	3.508500	-10.645000	25.954814	0.000940	20.886064
1103.279827	-3.016600	3.510300	-10.588000	25.901950	0.000940	20.895544
1104.283174	-2.995300	3.509300	-10.510000	25.893751	0.000937	20.900583
1105.280485	-3.005100	3.507800	-10.540000	25.888756	0.000938	20.903152
1106.284213	-2.980000	3.508500	-10.453000	25.884061	0.000938	20.884212
1107.282235	-3.003400	3.508700	-10.536000	25.921768	0.000937	20.901702
1108.281616	-3.009400	3.508100	-10.556000	25.907013	0.000935	20.891148
1109.282944	-3.021300	3.506400	-10.592000	25.925865	0.000936	20.893491
1110.284173	-2.992300	3.506300	-10.491000	25.926408	0.000932	20.921535
1111.281644	-2.991300	3.508000	-10.492000	25.960315	0.000933	20.894436
1112.286817	-2.997100	3.507000	-10.510000	25.950777	0.000935	20.894337
1113.286492	-2.987800	3.506900	-10.476000	25.918878	0.000932	20.920609
1114.282650	-3.012400	3.506000	-10.561000	25.941234	0.000931	20.902766
1115.284604	-3.005300	3.504300	-10.530000	25.947940	0.000932	20.896702
1116.287298	-2.992300	3.505700	-10.489000	25.955390	0.000930	20.916039
1117.284845	-2.995000	3.504900	-10.497000	25.991731	0.000932	20.898023
1118.289814	-3.018300	3.505000	-10.578000	26.036688	0.000932	20.874915
1119.287511	-3.009000	3.503600	-10.541000	26.058544	0.000929	20.890236
1120.284943	-3.003900	3.504800	-10.527000	26.088047	0.000928	20.917031
1121.287318	-2.982300	3.504300	-10.451000	26.134567	0.000930	20.910195
1122.287058	-3.004000	3.504000	-10.525000	26.149217	0.000929	20.893623
1123.290790	-3.000500	3.502800	-10.508000	26.165560	0.000928	20.895820
1124.290915	-3.014900	3.501400	-10.555000	26.164712	0.000928	20.894969
1125.286402	-2.995200	3.500800	-10.484000	26.119785	0.000926	20.904826
1126.290091	-2.991800	3.500800	-10.472000	26.121942	0.000924	20.886131
1127.289484	-2.996400	3.501000	-10.489000	26.119409	0.000926	20.886906
1128.292266	-3.002000	3.500500	-10.507000	26.148737	0.000925	20.885555
1129.291620	-3.009500	3.499600	-10.530000	26.181892	0.000926	20.884731
1130.288499	-3.012700	3.499800	-10.542000	26.158145	0.000922	20.868931
1131.299559	-2.979200	3.500600	-10.427000	26.197112	0.000923	20.874422
1132.301622	-2.990500	3.499800	-10.466000	26.194753	0.000922	20.879163
1133.288621	-2.983200	3.498600	-10.436000	26.203071	0.000920	20.890366
1134.304619	-2.981600	3.498000	-10.428000	26.163807	0.000923	20.867035
1135.293177	-2.998700	3.498200	-10.489000	26.193455	0.000920	20.875963
1136.289347	-3.039700	3.494200	-10.621000	26.163580	0.000922	20.885771
1137.293207	-3.023300	3.496200	-10.569000	26.160499	0.000918	20.879357
1138.294659	-3.004500	3.496100	-10.504000	26.151906	0.000917	20.893007
1139.291579	-3.002000	3.495400	-10.493000	26.139188	0.000916	20.876435
1140.298555	-3.017000	3.494700	-10.542000	26.115692	0.000916	20.886016
1141.294195	-2.991500	3.495800	-10.457000	26.083779	0.000916	20.871969
1142.292739	-3.001300	3.493700	-10.485000	26.091724	0.000916	20.880900
1143.295422	-2.993300	3.494300	-10.459000	26.085315	0.000915	20.862608
1144.291485	-2.978200	3.495200	-10.408000	26.119116	0.000914	20.868121
1145.295420	-2.998700	3.492000	-10.469000	26.111989	0.000913	20.872339
1146.296947	-3.003400	3.492300	-10.488000	26.126197	0.000913	20.891356
1147.293029	-3.012400	3.491500	-10.517000	26.106104	0.000913	20.867374
1148.295633	-2.997500	3.492500	-10.468000	26.079776	0.000910	20.857991
1149.299242	-3.004300	3.491200	-10.486000	26.056652	0.000910	20.868422
1150.292964	-3.019100	3.492000	-10.541000	26.052581	0.000912	20.853426
1151.295411	-2.992200	3.490600	-10.444000	26.044509	0.000911	20.883720
1152.295675	-3.023800	3.490700	-10.554000	26.104414	0.000909	20.872788
1153.292563	-3.004600	3.490700	-10.487000	26.091522	0.000910	20.873111
1154.295434	-3.013300	3.488600	-10.512000	26.154979	0.000908	20.854372
1155.292893	-3.020100	3.487800	-10.532000	26.179292	0.000906	20.865525
1156.295536	-2.984400	3.489300	-10.413000	26.191760	0.000908	20.858140
1157.295802	-2.984000	3.488900	-10.409000	26.229184	0.000908	20.864452
1158.293686	-3.006100	3.487200	-10.482000	26.236040	0.000907	20.850005
1159.297204	-3.001100	3.488200	-10.467000	26.225583	0.000907	20.871738
1160.296603	-3.004400	3.487400	-10.477000	26.224414	0.000907	20.871986
1161.298680	-2.997300	3.486900	-10.449000	26.212371	0.000903	20.860833
1162.297559	-3.007800	3.486400	-10.484000	26.166425	0.000905	20.860657
1163.296430	-3.004900	3.485500	-10.473000	26.136077	0.000904	20.848655
1164.296824	-3.017400	3.485700	-10.516000	26.065169	0.000903	20.867496
1165.304124	-2.999600	3.485900	-10.455000	26.049793	0.000903	20.860108
1166.296700	-3.012600	3.485400	-10.499000	26.057344	0.000900	20.855841
1167.297019	-3.008000	3.484800	-10.481000	26.075548	0.000902	20.865596
1168.303102	-3.014900	3.483900	-10.502000	26.086948	0.000900	20.854292
1169.296451	-3.003700	3.484600	-10.467000	26.104282	0.000901	20.853217
1170.298694	-3.010700	3.484100	-10.489000	26.091890	0.000899	20.860205
1171.298660	-2.985000	3.483400	-10.396000	26.071650	0.000900	20.837499
1172.298254	-3.013100	3.484000	-10.496000	26.081085	0.000898	20.850298
1173.298723	-3.013200	3.482000	-10.490000	26.101750	0.000900	20.860155
1174.296690	-2.999100	3.482000	-10.442000	26.114491	0.000898	20.840242
1175.298334	-2.996000	3.481800	-10.430000	26.105300	0.000900	20.846179
1176.299836	-2.994000	3.480700	-10.420000	26.121742	0.000895	20.853217
1177.296995	-3.006000	3.480300	-10.461000	26.119257	0.000896	20.852616
1178.300967	-3.011400	3.480600	-10.480000	26.147869	0.000891	20.858606
1179.298865	-2.999400	3.479100	-10.434000	26.133438	0.000896	20.840313
1180.297290	-2.992800	3.480200	-10.415000	26.150626	0.000895	20.836721
1181.301579	-3.019000	3.477900	-10.497000	26.147471	0.000894	20.843982
1182.299016	-2.972200	3.479700	-10.341000	26.162941	0.000893	20.847199
1183.298658	-2.998200	3.477800	-10.426000	26.138802	0.000892	20.838591
1184.301184	-3.007800	3.476100	-10.454000	26.124448	0.000890	20.846926
1185.301228	-3.004700	3.477000	-10.447000	26.146127	0.000890	20.855908
1186.299451	-3.000900	3.477700	-10.435000	26.117216	0.000891	20.850091
1187.298375	-2.996900	3.476300	-10.417000	26.093895	0.000891	20.834720
1188.299136	-2.992100	3.477400	-10.403000	26.095086	0.000892	20.863417
1189.299903	-2.978200	3.475900	-10.351000	26.056938	0.000889	20.821296
1190.302409	-3.003600	3.474900	-10.437000	26.010835	0.000887	20.837563
1191.300986	-3.017500	3.475400	-10.485000	26.024348	0.000888	20.836915
1192.300560	-3.031200	3.472900	-10.525000	26.033587	0.000888	20.840981
1193.303794	-2.995200	3.473700	-10.404000	26.048787	0.000886	20.838235
1194.299963	-3.021800	3.473200	-10.494000	26.089992	0.000886	20.831746
1195.300617	-3.004300	3.472400	-10.431000	26.101715	0.000885	20.843525
1196.303590	-3.018500	3.471400	-10.478000	26.117364	0.000884	20.836964
1197.301024	-3.024600	3.471400	-10.498000	26.137055	0.000884	20.845370
1198.302374	-3.006700	3.471900	-10.438000	26.161471	0.000883	20.845722
1199.305753	-2.990800	3.470500	-10.378000	26.191396	0.000883	20.858722
1200.306813	-2.989000	3.472300	-10.378000	26.231726	0.000882	20.829075
1201.302787	-3.009600	3.471100	-10.446000	26.265599	0.000881	20.825657
1202.307275	-2.985900	3.469200	-10.357000	26.231353	0.000881	20.845295
1203.308736	-3.006300	3.469400	-10.429000	26.206992	0.000881	20.835040
1204.303198	-2.986900	3.470200	-10.363000	26.174330	0.000880	20.837307
1205.310306	-3.009400	3.468400	-10.437000	26.151905	0.000880	20.819515
1206.306349	-2.994300	3.467500	-10.382000	26.132309	0.000879	20.836334
1207.308148	-2.996100	3.468400	-10.391000	26.136953	0.000877	20.827251
1208.305581	-2.994200	3.467600	-10.382000	26.141645	0.000878	20.836706
1209.310718	-2.978600	3.467700	-10.328000	26.160075	0.000877	20.833888
1210.306528	-2.983400	3.468100	-10.345000	26.184162	0.000876	20.838652
1211.306424	-3.006000	3.466200	-10.419000	26.207530	0.000877	20.833685
1212.308484	-3.005100	3.464300	-10.409000	26.225362	0.000875	20.851603
1213.310151	-2.973400	3.466500	-10.306000	26.283323	0.000876	20.822606
1214.306748	-2.999700	3.465400	-10.394000	26.283542	0.000873	20.832309
1215.309462	-3.007000	3.464400	-10.417000	26.313017	0.000875	20.809774
1216.311822	-2.991700	3.462500	-10.358000	26.288932	0.000871	20.832036
1217.314212	-2.998200	3.462700	-10.381000	26.268170	0.000871	20.847680
1218.311324	-2.983200	3.464500	-10.333000	26.214606	0.000872	20.826096
1219.310865	-2.996600	3.462000	-10.373000	26.203901	0.000872	20.830512
1220.313432	-2.998200	3.462700	-10.380000	26.150131	0.000871	20.809198
1221.313216	-2.967700	3.462200	-10.273000	26.139799	0.000871	20.840067
1222.311523	-2.983600	3.461300	-10.326000	26.136323	0.000868	20.818083
1223.308980	-3.003000	3.462300	-10.396000	26.118660	0.000869	20.825465
1224.313523	-2.972800	3.461600	-10.289000	26.101126	0.000867	20.819227
1225.310240	-2.978300	3.460500	-10.305000	26.084508	0.000868	20.809168
1226.313053	-2.984800	3.460700	-10.328000	26.135769	0.000869	20.821319
1227.310049	-2.987000	3.460000	-10.334000	26.169944	0.000866	20.827684
1228.314764	-3.007000	3.458300	-10.399000	26.162419	0.000867	20.834347
1229.313592	-3.015800	3.459500	-10.432000	26.197483	0.000865	20.838761
1230.318991	-2.983800	3.458700	-10.319000	26.165522	0.000865	20.826086
1231.314307	-3.025600	3.456500	-10.456000	26.129160	0.000864	20.814679
1232.311048	-3.005000	3.457200	-10.387000	26.139166	0.000865	20.810982
1233.310635	-2.979400	3.457500	-10.299000	26.073150	0.000863	20.835687
1234.311125	-2.986500	3.457700	-10.325000	26.068434	0.000861	20.813879
1235.311482	-2.996600	3.456100	-10.355000	26.095108	0.000862	20.828352
1236.313479	-3.005200	3.455700	-10.383000	26.130373	0.000864	20.825381
1237.310363	-2.974200	3.457000	-10.279000	26.138420	0.000862	20.818767
1238.313638	-2.992600	3.454800	-10.337000	26.114579	0.000861	20.807140
1239.314781	-2.984400	3.454700	-10.310000	26.079853	0.000860	20.832465
1240.311391	-2.998700	3.455300	-10.360000	26.040015	0.000860	20.829896
1241.315908	-3.005700	3.453500	-10.379000	26.052260	0.000859	20.833664
1242.315675	-2.996500	3.452700	-10.345000	26.067038	0.000857	20.830494
1243.310925	-3.005900	3.452600	-10.377000	26.068950	0.000857	20.822459
1244.318927	-2.979600	3.454200	-10.291000	26.086381	0.000856	20.844239
1245.311821	-2.986600	3.452400	-10.308000	26.067109	0.000858	20.800221
1246.315633	-3.006200	3.451500	-10.376000	26.067159	0.000853	20.820185
1247.318989	-3.022200	3.450800	-10.427000	26.068152	0.000854	20.817389
1248.313814	-3.022000	3.451000	-10.428000	26.082161	0.000855	20.810602
1249.316913	-3.021900	3.450600	-10.426000	26.075829	0.000856	20.828896
1250.314944	-2.988800	3.450300	-10.311000	26.146859	0.000853	20.822032
1251.316138	-2.982700	3.450900	-10.292000	26.200076	0.000852	20.799168
1252.317645	-2.996500	3.449400	-10.335000	26.199360	0.000851	20.823104
1253.319935	-2.995800	3.448900	-10.331000	26.215823	0.000852	20.805034
1254.319397	-2.975300	3.449600	-10.262000	26.187213	0.000850	20.802837
1255.320799	-2.994700	3.446700	-10.320000	26.211104	0.000851	20.811198
1256.320761	-3.006100	3.448200	-10.364000	26.213436	0.000849	20.835826
1257.320966	-2.995000	3.448600	-10.328000	26.232979	0.000849	20.824645
1258.321035	-3.023100	3.446600	-10.417000	26.223244	0.000849	20.805853
1259.318219	-2.995600	3.448100	-10.328000	26.207349	0.000848	20.797942
1260.319118	-2.989200	3.446900	-10.303000	26.174218	0.000849	20.822496
1261.322740	-3.001300	3.445500	-10.340000	26.186933	0.000849	20.807298
1262.319312	-2.982500	3.446600	-10.277000	26.216038	0.000846	20.806198
1263.320132	-2.997500	3.444200	-10.322000	26.224308	0.000849	20.801708
1264.322978	-3.020500	3.443700	-10.401000	26.203567	0.000847	20.796038
1265.319036	-3.010000	3.444000	-10.365000	26.168946	0.000844	20.802974
1266.323234	-2.991400	3.445000	-10.303000	26.171826	0.000846	20.819144
1267.320826	-3.004300	3.443700	-10.344000	26.185659	0.000845	20.820716
1268.322335	-2.997400	3.442300	-10.316000	26.171577	0.000843	20.802773
1269.320373	-3.006400	3.441900	-10.347000	26.183074	0.000842	20.823809
1270.324916	-3.014700	3.440900	-10.372000	26.170776	0.000842	20.815244
1271.325599	-2.981000	3.442600	-10.261000	26.128332	0.000841	20.797251
1272.324960	-3.009300	3.441000	-10.353000	26.126941	0.000841	20.795380
1273.324160	-2.969900	3.442200	-10.222000	26.161685	0.000841	20.802316
1274.326304	-3.040600	3.440600	-10.459000	26.173902	0.000840	20.800841
1275.327195	-3.011200	3.439100	-10.355000	26.203779	0.000838	20.820907
1276.326499	-3.005300	3.441100	-10.339000	26.251954	0.000839	20.813368
1277.325661	-3.017200	3.438100	-10.372000	26.264866	0.000839	20.803584
1278.329990	-2.985700	3.438100	-10.265000	26.250165	0.000839	20.779802
1279.331310	-2.993400	3.438400	-10.291000	26.232656	0.000834	20.782595
1280.327669	-2.988900	3.437400	-10.274000	26.205212	0.000838	20.779673
1281.327764	-3.008600	3.437900	-10.342000	26.215417	0.000835	20.789454
1282.330527	-3.012400	3.437000	-10.353000	26.243182	0.000835	20.794595
1283.335336	-2.991900	3.436800	-10.281000	26.269256	0.000834	20.786659
1284.334196	-3.008500	3.435000	-10.333000	26.270197	0.000832	20.806097
1285.333899	-3.001100	3.434000	-10.306000	26.242557	0.000834	20.803450
1286.331192	-3.016700	3.436000	-10.365000	26.239054	0.000832	20.784283
1287.331862	-3.014700	3.433900	-10.351000	26.211764	0.000831	20.772980
1288.333242	-2.985800	3.435100	-10.255000	26.229321	0.000834	20.801055
1289.336375	-3.011700	3.434400	-10.342000	26.259170	0.000831	20.786006
1290.335127	-3.015200	3.433400	-10.351000	26.290285	0.000830	20.801628
1291.330525	-3.011500	3.432300	-10.335000	26.251645	0.000832	20.807842
1292.332509	-2.988200	3.433400	-10.258000	26.244738	0.000827	20.796633
1293.330496	-2.996400	3.431500	-10.281000	26.225618	0.000829	20.785954
1294.331388	-3.001300	3.429500	-10.292000	26.194201	0.000830	20.798006
1295.331438	-3.003000	3.431400	-10.303000	26.144702	0.000828	20.786674
1296.331716	-3.008300	3.429800	-10.317000	26.107448	0.000829	20.790966
1297.331495	-3.026000	3.430100	-10.378000	26.084177	0.000828	20.803145
1298.335099	-3.009600	3.429700	-10.321000	26.106233	0.000825	20.787848
1299.332966	-3.016800	3.428000	-10.340000	26.119147	0.000826	20.784703
1300.332242	-2.992300	3.430600	-10.264000	26.122623	0.000824	20.764013
1301.334980	-3.012100	3.428900	-10.326000	26.181854	0.000824	20.788918
1302.333014	-3.009700	3.427600	-10.315000	26.228545	0.000823	20.788896
1303.334662	-2.996800	3.427900	-10.272000	26.197127	0.000825	20.794307
1304.333755	-2.978600	3.428200	-10.210000	26.170406	0.000822	20.775517
1305.335709	-2.987100	3.428500	-10.240000	26.153520	0.000822	20.777042
1306.337715	-2.988400	3.429300	-10.247000	26.150390	0.000819	20.784802
1307.335824	-3.002600	3.426500	-10.287000	26.138669	0.000821	20.783931
1308.338896	-3.001500	3.426000	-10.281000	26.170604	0.000822	20.781880
1309.335277	-3.011700	3.426000	-10.316000	26.165435	0.000819	20.806084
1310.339130	-2.992000	3.426500	-10.251000	26.159353	0.000822	20.755875
1311.338707	-3.002800	3.424500	-10.282000	26.201423	0.000819	20.767330
1312.335686	-2.980300	3.424600	-10.205000	26.208152	0.000819	20.788317
1313.340731	-3.004400	3.423600	-10.284000	26.203804	0.000818	20.768301
1314.336981	-3.010700	3.423500	-10.306000	26.160593	0.000818	20.798374
1315.339614	-2.985000	3.423800	-10.218000	26.154755	0.000816	20.782076
1316.335382	-2.999900	3.422600	-10.266000	26.170179	0.000816	20.795678
1317.337111	-2.998400	3.421400	-10.257000	26.155847	0.000815	20.770371
1318.339638	-2.950900	3.423000	-10.100000	26.178176	0.000815	20.755349
1319.342960	-3.001600	3.421000	-10.267000	26.184505	0.000814	20.784469
1320.340759	-2.984300	3.422300	-10.212000	26.200897	0.000815	20.791458
1321.340965	-2.994600	3.421000	-10.243000	26.194960	0.000813	20.774587
1322.343505	-3.007100	3.419900	-10.283000	26.221359	0.000812	20.776458
1323.341307	-3.018700	3.420800	-10.325000	26.245519	0.000813	20.775607
1324.344235	-2.992500	3.418200	-10.228000	26.259825	0.000814	20.767223
1325.343738	-2.975500	3.420600	-10.178000	26.241050	0.000812	20.777754
1326.344376	-3.009100	3.418600	-10.286000	26.266875	0.000811	20.772886
1327.342654	-3.008000	3.418300	-10.281000	26.291632	0.000807	20.784489
1328.344340	-3.016000	3.417700	-10.307000	26.284157	0.000811	20.776503
1329.346740	-2.980300	3.418200	-10.185000	26.247478	0.000809	20.780421
1330.345430	-3.002600	3.418100	-10.262000	26.200469	0.000808	20.771114
1331.345722	-3.015200	3.416100	-10.297000	26.141933	0.000808	20.775830
1332.347300	-2.994100	3.416400	-10.228000	26.125640	0.000808	20.759458
1333.345415	-3.002000	3.416100	-10.254000	26.123853	0.000806	20.766198
1334.347426	-3.020000	3.414300	-10.310000	26.147097	0.000805	20.760156
1335.344892	-2.992300	3.415100	-10.217000	26.191946	0.000806	20.770136
1336.344877	-2.990400	3.415100	-10.210000	26.232451	0.000804	20.771484
1337.346914	-3.014800	3.412500	-10.287000	26.265183	0.000803	20.783988
1338.346359	-3.009100	3.412900	-10.269000	26.260191	0.000802	20.742934
1339.346495	-2.997800	3.413400	-10.230000	26.261307	0.000803	20.769661
1340.348538	-2.995800	3.412800	-10.223000	26.282317	0.000803	20.756635
1341.348638	-2.995900	3.412100	-10.221000	26.279436	0.000801	20.769862
1342.347902	-3.002000	3.412600	-10.243000	26.273646	0.000803	20.762147
1343.345716	-3.016900	3.409900	-10.287000	26.277273	0.000802	20.744928
1344.349143	-2.985200	3.411600	-10.183000	26.261628	0.000801	20.757182
1345.345886	-3.002800	3.408600	-10.234000	26.254227	0.000800	20.758279
1346.345648	-2.990400	3.410700	-10.197000	26.251520	0.000797	20.774525
1347.349499	-3.016100	3.409400	-10.282000	26.249509	0.000798	20.756382
1348.345569	-3.001500	3.409700	-10.233000	26.274538	0.000797	20.769681
1349.351815	-3.028700	3.408600	-10.322000	26.287203	0.000798	20.744950
1350.354943	-2.995100	3.408000	-10.206000	26.270069	0.000797	20.740059
1351.347681	-3.013000	3.407400	-10.265000	26.217869	0.000797	20.750665
1352.345549	-3.005100	3.407500	-10.239000	26.176939	0.000798	20.752684
1353.349312	-2.990500	3.407700	-10.189000	26.193456	0.000794	20.756479
1354.346927	-2.994700	3.405700	-10.197000	26.221021	0.000796	20.761894
1355.347158	-2.994500	3.406300	-10.199000	26.243296	0.000791	20.775744
1356.350715	-2.985500	3.408000	-10.173000	26.245260	0.000791	20.740732
1357.349021	-2.993400	3.406300	-10.194000	26.282458	0.000793	20.755829
1358.351315	-3.007300	3.405100	-10.238000	26.296390	0.000792	20.740432
1359.348946	-3.046700	3.404000	-10.370000	26.302472	0.000793	20.748915
1360.352272	-2.996100	3.405000	-10.201000	26.339321	0.000791	20.754655
1361.349694	-2.989800	3.405000	-10.178000	26.350820	0.000789	20.759573
1362.350951	-2.995700	3.404400	-10.197000	26.391842	0.000788	20.750067
1363.349734	-3.014100	3.402900	-10.256000	26.416594	0.000789	20.748391
1364.351292	-3.003500	3.403300	-10.221000	26.432735	0.000788	20.737113
1365.351317	-3.014500	3.402100	-10.255000	26.441100	0.000788	20.745521
1366.350395	-3.008700	3.400800	-10.231000	26.395214	0.000787	20.747291
1367.351326	-2.991900	3.401800	-10.177000	26.363558	0.000787	20.736812
1368.350961	-3.016400	3.399300	-10.253000	26.358069	0.000787	20.746470
1369.350145	-2.982000	3.401500	-10.142000	26.367782	0.000787	20.746273
1370.355564	-2.996500	3.401500	-10.191000	26.349725	0.000785	20.750412
1371.355148	-3.012200	3.398200	-10.235000	26.369145	0.000786	20.745747
1372.352211	-2.986300	3.399800	-10.152000	26.414509	0.000784	20.737761
1373.357177	-3.008200	3.396900	-10.217000	26.417636	0.000784	20.738533
1374.354456	-2.997300	3.397200	-10.181000	26.434940	0.000783	20.754503
1375.351387	-2.984700	3.398700	-10.143000	26.438319	0.000783	20.751261
1376.354383	-3.020500	3.396700	-10.259000	26.464811	0.000783	20.749439
1377.353601	-2.995100	3.397200	-10.174000	26.485219	0.000783	20.746718
1378.356567	-3.001400	3.396300	-10.192000	26.486362	0.000781	20.735065
1379.358128	-2.990200	3.396600	-10.155000	26.480926	0.000779	20.739558
1380.354198	-3.018500	3.395000	-10.247000	26.468236	0.000780	20.728225
1381.355900	-2.991200	3.395000	-10.153000	26.453736	0.000779	20.745420
1382.356361	-3.007700	3.394700	-10.209000	26.476281	0.000779	20.732992
1383.359909	-3.015400	3.394000	-10.233000	26.512826	0.000779	20.740802
1384.356683	-3.003200	3.394700	-10.194000	26.464984	0.000777	20.741552
1385.359482	-2.975700	3.394400	-10.100000	26.497852	0.000776	20.754675
1386.359310	-2.973900	3.393200	-10.090000	26.503342	0.000779	20.740752
1387.353828	-2.978400	3.393900	-10.107000	26.467216	0.000777	20.760866
1388.357769	-2.980800	3.393700	-10.115000	26.441616	0.000776	20.746040
1389.357602	-2.994600	3.391800	-10.156000	26.407798	0.000776	20.738128
1390.355957	-2.995200	3.392700	-10.161000	26.425997	0.000774	20.758791
1391.354720	-3.015400	3.391700	-10.227000	26.454497	0.000773	20.739072
1392.357616	-2.980300	3.391500	-10.106000	26.470536	0.000772	20.751400
1393.357415	-3.015000	3.389100	-10.217000	26.464352	0.000775	20.751823
1394.354583	-2.995100	3.391100	-10.156000	26.441284	0.000772	20.756137
1395.357780	-2.985900	3.390300	-10.122000	26.405183	0.000771	20.746406
1396.357038	-3.003500	3.389300	-10.177000	26.368506	0.000771	20.746053
1397.354126	-3.014500	3.390200	-10.218000	26.390354	0.000769	20.766589
1398.359471	-3.004400	3.388900	-10.180000	26.344095	0.000769	20.742382
1399.355924	-3.028600	3.386900	-10.255000	26.351814	0.000770	20.760098
1400.355796	-2.994200	3.387300	-10.141000	26.376942	0.000769	20.762118
1401.360210	-3.000900	3.387900	-10.166000	26.433153	0.000766	20.767880
1402.360444	-2.990900	3.388500	-10.133000	26.484894	0.000769	20.766781
1403.360260	-2.997200	3.386900	-10.150000	26.512923	0.000767	20.760341
1404.359451	-3.007100	3.387000	-10.183000	26.522879	0.000767	20.752330
1405.361117	-3.021600	3.385100	-10.227000	26.539139	0.000766	20.745915
1406.368255	-3.010900	3.385000	-10.190000	26.549591	0.000768	20.749783
1407.359201	-3.001000	3.384400	-10.155000	26.539954	0.000763	20.778030
1408.359153	-3.006800	3.383900	-10.174000	26.502566	0.000763	20.732385
1409.361988	-2.992000	3.384100	-10.124000	26.515250	0.000765	20.759835
1410.360052	-2.995500	3.382600	-10.131000	26.519743	0.000762	20.770041
1411.365083	-3.019000	3.383100	-10.212000	26.526021	0.000763	20.740789
1412.363890	-2.989900	3.383500	-10.115000	26.520313	0.000761	20.776779
1413.365318	-3.031100	3.381000	-10.247000	26.513233	0.000759	20.763497
1414.365209	-2.992800	3.382300	-10.122000	26.485651	0.000761	20.750945
1415.366044	-3.000100	3.382200	-10.145000	26.486046	0.000761	20.762723
1416.361838	-2.987100	3.381000	-10.099000	26.489993	0.000760	20.770483
1417.365794	-3.017500	3.380100	-10.197000	26.478943	0.000758	20.773127
1418.369737	-2.997000	3.381200	-10.133000	26.525619	0.000760	20.773103
1419.362434	-2.966900	3.380800	-10.029000	26.557196	0.000759	20.764540
1420.364943	-2.997200	3.380100	-10.130000	26.582368	0.000757	20.760447
1421.367238	-2.994700	3.378900	-10.117000	26.572315	0.000756	20.753185
1422.363940	-3.010200	3.378400	-10.169000	26.600784	0.000756	20.760941
1423.367910	-3.011900	3.378300	-10.173000	26.613816	0.000756	20.764084
1424.371180	-2.984800	3.378700	-10.084000	26.633403	0.000756	20.780456
1425.366178	-2.991400	3.378100	-10.105000	26.639804	0.000755	20.788314
1426.370332	-3.009700	3.376700	-10.161000	26.602742	0.000754	20.762910
1427.371669	-3.008400	3.377400	-10.159000	26.561926	0.000754	20.768821
1428.377075	-2.973200	3.376100	-10.037000	26.566344	0.000753	20.767099
1429.371655	-3.004300	3.377600	-10.146000	26.584715	0.000754	20.754745
1430.373063	-2.993900	3.375900	-10.106000	26.612344	0.000752	20.764502
1431.371635	-2.988800	3.375400	-10.087000	26.623539	0.000752	20.767695
1432.373947	-2.999400	3.374400	-10.120000	26.603010	0.000749	20.768395
1433.374177	-3.012400	3.373400	-10.160000	26.592085	0.000753	20.802457
1434.372407	-3.001900	3.373900	-10.126000	26.595189	0.000750	20.763852
1435.369015	-2.990200	3.372600	-10.082000	26.565297	0.000748	20.772685
1436.373611	-2.993800	3.372700	-10.096000	26.557252	0.000749	20.797788
1437.370119	-3.015800	3.371600	-10.168000	26.544615	0.000748	20.782240
1438.371617	-3.012500	3.371300	-10.155000	26.532175	0.000747	20.769262
1439.370677	-3.004000	3.371600	-10.127000	26.518671	0.000748	20.776550
1440.374389	-3.013200	3.371800	-10.158000	26.502282	0.000745	20.770982
1441.375636	-2.995100	3.371200	-10.096000	26.496376	0.000745	20.781642
1442.370371	-3.002100	3.370900	-10.119000	26.475991	0.000745	20.748348
1443.372058	-3.006200	3.369800	-10.129000	26.466976	0.000743	20.767263
1444.373596	-2.998900	3.369900	-10.105000	26.457070	0.000742	20.769634
1445.370171	-3.006400	3.370100	-10.131000	26.406296	0.000745	20.792096
1446.375324	-3.009100	3.369700	-10.137000	26.443041	0.000742	20.776397
1447.374546	-2.994400	3.370300	-10.091000	26.485399	0.000743	20.784832
1448.371418	-3.008600	3.368800	-10.135000	26.496943	0.000742	20.784107
1449.373487	-2.991900	3.369300	-10.079000	26.502850	0.000742	20.782459
1450.374178	-2.988300	3.368200	-10.063000	26.568815	0.000740	20.796135
1451.371850	-2.973500	3.367900	-10.013000	26.567400	0.000740	20.790445
1452.376863	-3.011700	3.366400	-10.138000	26.570232	0.000740	20.779068
1453.377151	-3.010400	3.366900	-10.135000	26.617995	0.000738	20.799581
1454.379674	-2.991300	3.366300	-10.068000	26.670150	0.000738	20.781836
1455.376244	-3.008200	3.365200	-10.122000	26.681395	0.000737	20.783658
1456.378692	-2.981800	3.365500	-10.034000	26.722351	0.000736	20.808711
1457.377326	-3.003200	3.365600	-10.106000	26.740472	0.000737	20.796110
1458.380579	-2.989600	3.364600	-10.057000	26.752512	0.000733	20.775498
1459.380059	-3.024100	3.363500	-10.171000	26.731410	0.000735	20.777991
1460.376900	-2.999700	3.363900	-10.090000	26.724390	0.000733	20.768562
1461.382504	-3.017700	3.364000	-10.150000	26.725901	0.000734	20.789048
1462.379568	-3.007400	3.361500	-10.108000	26.748141	0.000732	20.785329
1463.380597	-3.004100	3.362800	-10.102000	26.781872	0.000734	20.780362
1464.380886	-2.992900	3.362600	-10.063000	26.805901	0.000731	20.798831
1465.378069	-3.008000	3.363100	-10.114000	26.813047	0.000730	20.816921
1466.381250	-3.000900	3.362400	-10.089000	26.841887	0.000732	20.815099
1467.378351	-2.999600	3.361000	-10.080000	26.811585	0.000731	20.796485
1468.381593	-2.977100	3.362600	-10.009000	26.760949	0.000728	20.791567
1469.382647	-3.011900	3.359800	-10.118000	26.719076	0.000728	20.793092
1470.380243	-3.042500	3.356900	-10.212000	26.670870	0.000726	20.795837
1471.385750	-3.010800	3.358300	-10.110000	26.606127	0.000728	20.797607
1472.383258	-2.989700	3.359900	-10.043000	26.567373	0.000724	20.796108
1473.380672	-2.987800	3.359100	-10.035000	26.524275	0.000728	20.817271
1474.380771	-3.002900	3.359400	-10.087000	26.482070	0.000729	20.784805
1475.383723	-3.007400	3.357900	-10.096000	26.454287	0.000725	20.798605
1476.380768	-3.007500	3.357400	-10.097000	26.446564	0.000723	20.812179
1477.383583	-2.998100	3.357500	-10.065000	26.433233	0.000723	20.797359
1478.381290	-2.990600	3.357500	-10.040000	26.458160	0.000722	20.790170
1479.379848	-3.007800	3.357700	-10.098000	26.436484	0.000725	20.814851
1480.383427	-2.998800	3.356400	-10.063000	26.442990	0.000725	20.801475
1481.383355	-2.995000	3.355400	-10.047000	26.434399	0.000722	20.801376
1482.384741	-3.023900	3.353600	-10.140000	26.453044	0.000721	20.809685
1483.383913	-3.010500	3.354700	-10.098000	26.481003	0.000719	20.810285
1484.384773	-3.020800	3.354500	-10.132000	26.481650	0.000719	20.802401
1485.381119	-2.998100	3.354400	-10.055000	26.502727	0.000719	20.808888
1486.385118	-3.002600	3.353000	-10.067000	26.505535	0.000718	20.816925
1487.382344	-2.979800	3.353600	-9.992300	26.553027	0.000718	20.828154
1488.381540	-3.004700	3.353100	-10.074000	26.607619	0.000719	20.815702
1489.385567	-2.996100	3.353000	-10.045000	26.621919	0.000716	20.815853
1490.383430	-2.999000	3.351900	-10.051000	26.586818	0.000715	20.791947
1491.386283	-3.006700	3.352300	-10.079000	26.553004	0.000718	20.814855
1492.382731	-3.026900	3.350200	-10.140000	26.544938	0.000714	20.808644
1493.386313	-3.014600	3.350800	-10.101000	26.575672	0.000714	20.804925
1494.386194	-3.021500	3.351100	-10.124000	26.607349	0.000713	20.841034
1495.383898	-2.997200	3.349200	-10.038000	26.643072	0.000714	20.823367
1496.387935	-2.957700	3.350500	-9.909600	26.667749	0.000714	20.810716
1497.384542	-3.001500	3.348400	-10.048000	26.661817	0.000713	20.801909
1498.388046	-2.984100	3.348000	-9.990500	26.679814	0.000711	20.822845
1499.383773	-2.999000	3.350100	-10.046000	26.728120	0.000709	20.824943
1500.389868	-2.994300	3.348700	-10.026000	26.747232	0.000710	20.824243
1501.389603	-2.981800	3.349400	-9.986400	26.752965	0.000712	20.816731
1502.390224	-2.973800	3.347800	-9.954100	26.714764	0.000707	20.818628
1503.391562	-3.010500	3.345600	-10.071000	26.721367	0.000711	20.809145
1504.393796	-2.986900	3.347700	-9.997700	26.739933	0.000707	20.822121
1505.387392	-2.987700	3.347000	-9.998800	26.760311	0.000707	20.822220
1506.392011	-2.984500	3.345600	-9.983600	26.789851	0.000707	20.815410
1507.389932	-2.972800	3.345600	-9.944300	26.815912	0.000704	20.807474
1508.388053	-2.998400	3.345700	-10.031000	26.827104	0.000705	20.824891
1509.391289	-3.005100	3.344700	-10.050000	26.823183	0.000703	20.843708
1510.391811	-2.999600	3.344000	-10.029000	26.803253	0.000705	20.821299
1511.390629	-2.983700	3.344600	-9.978100	26.781908	0.000704	20.811692
1512.388171	-2.987200	3.343300	-9.986400	26.778182	0.000705	20.843981
1513.391214	-2.994400	3.342300	-10.007000	26.747506	0.000702	20.834001
1514.392058	-2.985300	3.343200	-9.979700	26.750360	0.000702	20.836871
1515.389356	-2.973800	3.343300	-9.941500	26.761155	0.000700	20.839664
1516.391237	-3.002800	3.343500	-10.038000	26.729335	0.000701	20.848449
1517.389433	-3.000000	3.342100	-10.025000	26.716305	0.000699	20.833453
1518.389464	-3.006200	3.340700	-10.041000	26.712255	0.000699	20.838865
1519.392672	-2.980700	3.341500	-9.958900	26.743683	0.000700	20.838219
1520.389922	-3.023300	3.339500	-10.095000	26.711712	0.000698	20.808447
1521.390669	-2.983200	3.340800	-9.964600	26.759220	0.000697	20.811640
1522.398373	-3.014000	3.339500	-10.064000	26.768256	0.000695	20.848225
1523.397415	-3.002300	3.339700	-10.026000	26.726256	0.000695	20.833974
1524.391919	-3.005100	3.340700	-10.039000	26.694610	0.000696	20.842935
1525.394450	-2.998700	3.337700	-10.008000	26.637491	0.000695	20.848575
1526.401634	-3.015200	3.337100	-10.060000	26.639726	0.000695	20.827115
1527.392812	-2.988700	3.337300	-9.972700	26.606237	0.000695	20.838969
1528.399033	-3.006600	3.336900	-10.032000	26.588487	0.000693	20.855737
1529.398088	-2.986700	3.337500	-9.966700	26.606561	0.000692	20.860155
1530.391982	-2.982100	3.335800	-9.947300	26.633742	0.000692	20.834376
1531.392846	-3.018300	3.335500	-10.067000	26.670828	0.000692	20.842734
1532.397028	-2.988800	3.335900	-9.968800	26.707544	0.000692	20.849300
1533.396399	-3.014100	3.333700	-10.046000	26.767363	0.000688	20.851594
1534.397362	-2.995300	3.334900	-9.987600	26.801542	0.000691	20.843760
1535.400367	-2.974500	3.335800	-9.919800	26.820331	0.000689	20.837521
1536.397407	-2.995800	3.334400	-9.987200	26.818322	0.000690	20.849725
1537.394320	-3.037300	3.332000	-10.119000	26.837133	0.000690	20.839242
1538.397495	-3.000700	3.333600	-10.002000	26.845325	0.000686	20.839418
1539.400440	-3.010300	3.332100	-10.029000	26.876347	0.000686	20.841213
1540.396010	-3.005600	3.331500	-10.012000	26.890271	0.000687	20.864696
1541.402683	-2.999400	3.331600	-9.992400	26.868283	0.000688	20.838321
1542.395099	-3.024100	3.331300	-10.074000	26.852176	0.000684	20.846306
1543.398954	-3.008100	3.330300	-10.017000	26.839888	0.000687	20.865719
1544.396375	-2.995300	3.330100	-9.974300	26.833536	0.000684	20.847004
1545.399267	-2.990000	3.331700	-9.959300	26.793253	0.000683	20.859607
1546.399399	-3.034000	3.327500	-10.095000	26.794942	0.000682	20.859408
1547.396767	-2.995900	3.329300	-9.973900	26.772007	0.000681	20.856737
1548.397894	-3.016900	3.328400	-10.040000	26.755004	0.000681	20.884212
1549.399565	-2.994800	3.329700	-9.971300	26.797549	0.000679	20.869141
1550.399886	-3.016400	3.326900	-10.035000	26.814077	0.000680	20.874379
1551.397148	-3.004100	3.328300	-9.997100	26.831378	0.000678	20.861429
1552.397313	-3.015600	3.326000	-10.029000	26.852151	0.000678	20.854816
1553.398164	-2.999600	3.327900	-9.981600	26.862973	0.000681	20.835352
1554.397098	-2.993700	3.326500	-9.957500	26.875929	0.000677	20.861180
1555.400146	-2.993000	3.327700	-9.958700	26.873446	0.000679	20.861054
1556.402662	-2.993000	3.324700	-9.950000	26.887246	0.000676	20.858810
1557.402378	-2.984900	3.326200	-9.927100	26.892187	0.000677	20.859510
1558.400476	-2.999800	3.325900	-9.975100	26.894665	0.000675	20.868166
1559.401950	-3.018000	3.323800	-10.029000	26.914374	0.000673	20.857638
1560.399560	-3.008200	3.324600	-9.999900	26.935070	0.000675	20.862802
1561.402008	-2.999500	3.323300	-9.967700	26.928668	0.000673	20.849727
1562.401603	-2.995000	3.324700	-9.956400	26.931248	0.000673	20.874131
1563.399762	-3.002600	3.324500	-9.980900	26.933309	0.000673	20.852497
1564.402727	-2.998400	3.321900	-9.958400	26.933356	0.000672	20.881940
1565.401881	-2.999900	3.322000	-9.963000	26.945989	0.000671	20.869514
1566.401637	-3.018500	3.321600	-10.024000	26.962292	0.000671	20.846555
1567.403339	-2.998100	3.321500	-9.958100	26.961971	0.000670	20.884162
1568.403694	-3.027400	3.318500	-10.045000	26.950601	0.000667	20.882211
1569.400678	-3.010900	3.321000	-9.997600	26.985890	0.000668	20.863172
1570.404074	-3.005900	3.320800	-9.981000	27.021699	0.000668	20.865992
1571.403494	-3.022300	3.319800	-10.032000	27.008127	0.000667	20.878895
1572.404430	-3.017400	3.318400	-10.012000	27.005619	0.000665	20.885855
1573.407618	-2.965600	3.320800	-9.847700	27.023462	0.000667	20.883410
1574.406671	-2.997900	3.320300	-9.953000	27.039912	0.000666	20.892840
1575.407408	-3.023700	3.317600	-10.029000	27.055397	0.000663	20.892766
1576.408021	-3.010800	3.316400	-9.983400	27.024551	0.000665	20.899677
1577.404986	-3.024500	3.316300	-10.029000	26.993731	0.000664	20.890495
1578.406481	-3.015100	3.315700	-9.995200	26.981620	0.000663	20.890170
1579.404682	-2.985500	3.317100	-9.902300	26.970925	0.000662	20.897907
1580.407554	-2.968200	3.317400	-9.846000	26.981296	0.000661	20.885577
1581.406881	-2.999700	3.315100	-9.943400	26.998396	0.000661	20.888549
1582.405440	-2.995200	3.315800	-9.929800	26.970948	0.000659	20.893188
1583.408759	-3.006200	3.314000	-9.961900	26.982612	0.000660	20.885478
1584.408747	-2.989300	3.315600	-9.910300	26.998419	0.000659	20.880511
1585.404923	-2.988400	3.314800	-9.905100	27.030631	0.000659	20.880188
1586.408886	-3.000100	3.315900	-9.946900	27.005020	0.000658	20.893786
1587.408897	-3.002200	3.314200	-9.946700	27.025642	0.000656	20.881809
1588.406195	-2.992200	3.313900	-9.915000	27.026634	0.000657	20.900349
1589.411922	-2.998200	3.313400	-9.933300	27.059117	0.000657	20.896033
1590.406466	-2.998800	3.312600	-9.931800	27.021423	0.000655	20.911703
1591.406609	-3.007100	3.311500	-9.957200	26.988093	0.000655	20.903316
1592.407310	-2.986800	3.311400	-9.888300	26.952880	0.000652	20.893037
1593.412327	-2.996800	3.311200	-9.922100	26.911583	0.000651	20.894184
1594.411006	-2.992100	3.310800	-9.905100	26.907563	0.000652	20.881134
1595.409900	-2.984000	3.310900	-9.877500	26.925556	0.000653	20.912500
1596.407751	-3.007400	3.312400	-9.961000	26.957894	0.000650	20.881010
1597.407770	-2.998000	3.309700	-9.921800	26.998491	0.000651	20.905711
1598.412133	-2.972400	3.309700	-9.836700	27.002981	0.000652	20.906434
1599.408130	-2.980200	3.309200	-9.861000	27.041646	0.000649	20.898376
1600.411407	-3.023600	3.308100	-10.001000	27.070578	0.000649	20.904239
1601.410771	-3.002700	3.307200	-9.930200	27.110527	0.000651	20.898424
1602.408124	-3.012000	3.308400	-9.962300	27.099735	0.000648	20.918862
1603.412930	-2.985400	3.307900	-9.874500	27.058194	0.000647	20.883726
1604.415453	-3.003500	3.307100	-9.931800	27.056259	0.000648	20.901693
1605.410824	-3.009600	3.306200	-9.949700	27.006802	0.000646	20.896053
1606.415454	-3.019700	3.305700	-9.981100	26.963918	0.000646	20.887542
1607.413435	-3.015200	3.306700	-9.969200	26.952577	0.000645	20.923549
1608.411088	-2.992800	3.305900	-9.893300	26.955978	0.000645	20.889515
1609.415663	-2.979200	3.306100	-9.848700	27.002110	0.000642	20.863836
1610.415075	-3.005000	3.304200	-9.927200	26.986400	0.000642	20.895450
1611.416638	-2.992600	3.303700	-9.885100	26.952103	0.000642	20.899367
1612.415612	-2.985700	3.303700	-9.862800	26.929744	0.000642	20.908651
1613.412217	-3.010200	3.304400	-9.946200	26.985756	0.000640	20.896225
1614.413633	-2.992700	3.302800	-9.883500	27.007220	0.000641	20.870871
1615.418952	-2.993900	3.303400	-9.888700	26.997442	0.000641	20.891382
1616.413929	-3.007900	3.302800	-9.933600	26.947736	0.000640	20.871744
1617.412922	-3.002500	3.301100	-9.909000	26.930163	0.000638	20.882523
1618.413366	-3.003200	3.301800	-9.914900	26.925944	0.000636	20.864057
1619.416821	-2.991800	3.300700	-9.873700	26.910806	0.000635	20.875860
1620.414958	-3.018800	3.301200	-9.965200	26.919493	0.000636	20.881751
1621.414779	-3.010000	3.300200	-9.932200	26.911176	0.000635	20.859638
1622.417042	-3.002100	3.300200	-9.906000	26.934407	0.000635	20.870670
1623.419631	-3.021300	3.299000	-9.966600	26.954907	0.000633	20.857620
1624.420845	-2.997400	3.298800	-9.886700	27.033473	0.000635	20.885891
1625.421219	-3.005200	3.298800	-9.911500	27.042505	0.000632	20.874587
1626.416174	-2.972500	3.299600	-9.806600	27.056948	0.000632	20.868724
1627.420759	-3.013200	3.296700	-9.931600	27.052752	0.000632	20.864030
1628.420730	-3.012300	3.298100	-9.934600	27.075087	0.000631	20.880326
1629.418042	-3.018900	3.297600	-9.953900	27.115062	0.000630	20.883546
1630.419490	-2.974800	3.296400	-9.805200	27.154115	0.000630	20.859289
1631.427630	-2.984000	3.296500	-9.835100	27.161685	0.000628	20.834187
1632.421338	-3.028600	3.295100	-9.977400	27.196568	0.000629	20.841296
1633.421892	-3.031200	3.294900	-9.986700	27.184958	0.000627	20.846214
1634.425636	-3.010100	3.294800	-9.915700	27.125483	0.000628	20.848510
1635.422889	-2.989700	3.294700	-9.847600	27.137047	0.000626	20.881001
1636.425718	-2.984900	3.294300	-9.831900	27.132059	0.000626	20.840899
1637.422647	-3.013100	3.292500	-9.920200	27.159999	0.000625	20.850982
1638.426096	-3.014900	3.293100	-9.927300	27.191609	0.000625	20.849110
1639.427185	-2.988400	3.293800	-9.842200	27.167194	0.000622	20.844943
1640.424582	-2.992800	3.292000	-9.850700	27.177911	0.000623	20.850032
1641.427059	-2.996100	3.291300	-9.859100	27.185085	0.000622	20.838756
1642.428226	-2.998600	3.292500	-9.872200	27.151387	0.000621	20.847063
1643.427526	-3.028500	3.291100	-9.966100	27.112731	0.000620	20.858444
1644.430183	-3.018500	3.289700	-9.929200	27.074815	0.000621	20.841174
1645.430457	-2.998900	3.291000	-9.866800	27.065085	0.000619	20.861734
1646.427359	-2.992900	3.290300	-9.846600	27.048635	0.000618	20.861786
1647.429652	-3.006100	3.290100	-9.889900	27.057119	0.000618	20.853249
1648.428101	-3.050400	3.288400	-10.030000	27.068363	0.000620	20.848435
1649.428082	-3.017900	3.287500	-9.920600	27.037119	0.000616	20.844516
1650.429506	-3.013400	3.288500	-9.908500	27.046524	0.000617	20.849232
1651.433056	-3.015500	3.287900	-9.912600	27.043372	0.000616	20.843692
1652.428727	-3.016700	3.288500	-9.918900	27.076598	0.000613	20.851976
1653.432734	-2.992600	3.288200	-9.839400	27.095333	0.000615	20.827671
1654.429607	-2.983700	3.287000	-9.806600	27.132874	0.000616	20.844089
1655.430420	-3.029400	3.286600	-9.954900	27.148680	0.000614	20.831064
1656.430221	-2.999200	3.286600	-9.856000	27.128705	0.000613	20.831362
1657.434459	-3.019300	3.284500	-9.915600	27.064458	0.000610	20.844035
1658.433423	-3.026600	3.283300	-9.935700	27.011630	0.000613	20.849702
1659.434319	-3.011300	3.283200	-9.886100	27.032077	0.000609	20.833755
1660.435810	-3.034100	3.283200	-9.959000	27.021210	0.000610	20.841319
1661.434377	-2.986600	3.286000	-9.812900	26.996391	0.000611	20.826318
1662.438096	-3.003700	3.284300	-9.864500	27.019198	0.000609	20.862054
1663.436914	-2.970500	3.284600	-9.755400	27.049569	0.000608	20.853716
1664.436920	-3.020000	3.282700	-9.912500	27.094706	0.000606	20.817558
1665.432592	-3.001300	3.282500	-9.851100	27.126664	0.000607	20.831206
1666.437906	-2.992300	3.281900	-9.819400	27.109517	0.000607	20.834823
1667.435510	-3.006500	3.282000	-9.865300	27.103264	0.000606	20.813837
1668.437807	-2.983500	3.281700	-9.790100	27.105150	0.000605	20.829010
1669.436344	-2.999800	3.281000	-9.841300	27.114480	0.000605	20.804729
1670.433746	-3.010000	3.279700	-9.869600	27.135125	0.000605	20.819802
1671.432171	-2.984600	3.280900	-9.790600	27.090483	0.000603	20.834173
1672.432774	-3.040300	3.279400	-9.969400	27.057555	0.000604	20.805325
1673.435718	-3.012100	3.280400	-9.879800	27.026311	0.000603	20.828906
1674.437188	-3.010200	3.277800	-9.865900	27.031448	0.000599	20.815580
1675.434931	-2.989800	3.277400	-9.797900	27.024502	0.000601	20.816655
1676.436939	-3.004200	3.277300	-9.844300	27.058372	0.000599	20.823216
1677.435584	-2.990800	3.277600	-9.801100	27.104598	0.000597	20.836040
1678.435437	-3.020100	3.276300	-9.894500	27.109414	0.000598	20.820495
1679.439950	-3.012900	3.275700	-9.868300	27.153206	0.000600	20.819021
1680.436277	-2.991600	3.277300	-9.803800	27.135763	0.000597	20.837513
1681.435336	-3.007800	3.274800	-9.849000	27.112314	0.000596	20.829576
1682.439674	-3.008800	3.275500	-9.854900	27.119460	0.000597	20.823013
1683.440475	-3.009100	3.276700	-9.859200	27.137301	0.000596	20.815826
1684.436284	-3.004800	3.274900	-9.838800	27.160401	0.000594	20.819145
1685.441576	-3.001900	3.275300	-9.830900	27.187443	0.000594	20.824058
1686.439444	-2.968800	3.274800	-9.719600	27.189203	0.000592	20.832467
1687.439008	-2.996100	3.273900	-9.807800	27.149056	0.000591	20.840924
1688.441888	-3.005300	3.273800	-9.838000	27.082161	0.000591	20.831493
1689.446071	-3.000700	3.271900	-9.817500	27.057495	0.000591	20.819489
1690.442622	-2.984300	3.273700	-9.768200	27.002602	0.000589	20.825452
1691.438943	-2.986900	3.273300	-9.775900	26.989674	0.000589	20.820037
1692.438641	-3.010500	3.272500	-9.850400	27.034365	0.000587	20.826574
1693.442430	-2.991500	3.273100	-9.789900	27.052306	0.000587	20.825176
1694.439422	-3.000700	3.272700	-9.819000	27.090542	0.000587	20.818112
1695.442303	-3.028700	3.270700	-9.904700	27.091808	0.000588	20.840247
1696.447463	-2.994700	3.270600	-9.793600	27.072380	0.000586	20.829243
1697.442190	-3.008600	3.269000	-9.833300	27.059946	0.000586	20.820058
1698.441850	-3.001400	3.270600	-9.815500	27.063370	0.000585	20.811647
1699.441539	-2.988100	3.270400	-9.770500	27.100367	0.000583	20.840794
1700.443691	-3.003200	3.268400	-9.813000	27.114436	0.000583	20.816064
1701.442743	-2.985400	3.269100	-9.758900	27.109843	0.000582	20.816660
1702.442186	-3.010900	3.266700	-9.835200	27.072077	0.000581	20.818507
1703.444347	-2.988500	3.267200	-9.761900	27.117759	0.000582	20.816086
1704.442379	-2.993500	3.268600	-9.783900	27.156615	0.000578	20.819130
1705.441359	-3.036300	3.264900	-9.912800	27.185122	0.000577	20.816983
1706.444481	-3.007400	3.267600	-9.825100	27.206585	0.000579	20.833354
1707.442249	-3.000600	3.266600	-9.800900	27.200430	0.000577	20.826215
1708.443772	-3.001300	3.265700	-9.800400	27.154628	0.000577	20.831356
1709.443553	-3.000500	3.264100	-9.793300	27.133263	0.000577	20.808446
1710.442566	-3.033800	3.264400	-9.902200	27.120314	0.000577	20.826242
1711.448002	-2.993700	3.265000	-9.773400	27.131453	0.000576	20.804730
1712.445351	-3.010600	3.263800	-9.825000	27.099319	0.000575	20.790902
1713.447032	-3.029700	3.263500	-9.886500	27.080090	0.000574	20.825617
1714.446039	-3.002900	3.263000	-9.797600	27.120832	0.000574	20.816333
1715.445312	-2.989200	3.263400	-9.753400	27.145074	0.000573	20.803255
1716.449490	-2.994700	3.262300	-9.769100	27.191720	0.000573	20.801808
1717.449544	-3.012500	3.260900	-9.822000	27.212413	0.000571	20.816457
1718.447158	-2.989000	3.261900	-9.748800	27.249056	0.000571	20.813011
1719.449214	-2.989300	3.261200	-9.746900	27.271312	0.000569	20.820699
1720.448139	-2.988100	3.261100	-9.744500	27.311502	0.000568	20.810866
1721.448060	-3.023600	3.260400	-9.857500	27.320433	0.000569	20.798988
1722.447667	-2.994800	3.260200	-9.761500	27.304086	0.000569	20.823321
1723.449046	-2.995500	3.260700	-9.766100	27.275977	0.000565	20.833451
1724.447899	-3.034100	3.257000	-9.880400	27.240870	0.000567	20.811889
1725.451103	-3.010700	3.259100	-9.810900	27.283094	0.000564	20.818801
1726.451371	-3.016900	3.258400	-9.827800	27.274533	0.000565	20.807819
1727.449006	-3.018500	3.257400	-9.831100	27.327553	0.000566	20.823219
1728.450253	-3.006800	3.257500	-9.793800	27.357594	0.000564	20.792747
1729.447760	-2.987700	3.257600	-9.732300	27.378158	0.000562	20.803003
1730.451773	-3.009200	3.257300	-9.800100	27.384013	0.000563	20.803203
1731.450764	-2.998600	3.256700	-9.765000	27.346901	0.000561	20.804276
1732.451711	-2.982600	3.256200	-9.710400	27.305002	0.000560	20.812862
1733.468147	-2.987600	3.254800	-9.722200	27.260170	0.000560	20.807595
1734.453722	-3.000800	3.254500	-9.764500	27.276619	0.000559	20.805649
1735.454688	-3.015100	3.253500	-9.806900	27.264686	0.000559	20.799336
1736.454535	-2.999300	3.253600	-9.758100	27.260789	0.000556	20.790200
1737.453529	-2.996800	3.255000	-9.753400	27.242580	0.000557	20.796066
1738.454370	-3.005800	3.253700	-9.779500	27.204621	0.000556	20.790128
1739.454976	-2.995700	3.254700	-9.749400	27.216305	0.000554	20.800932
1740.454444	-3.007300	3.252600	-9.780800	27.207598	0.000553	20.778897
1741.459032	-3.012400	3.252200	-9.796100	27.222458	0.000554	20.805224
1742.452382	-2.976500	3.253100	-9.681800	27.213650	0.000554	20.797313
1743.454985	-3.008000	3.251400	-9.779900	27.241786	0.000553	20.803802
1744.456178	-2.987300	3.252200	-9.714400	27.256075	0.000552	20.796364
1745.455349	-3.018100	3.250200	-9.807700	27.280488	0.000552	20.786308
1746.458260	-2.996600	3.250000	-9.737500	27.319414	0.000551	20.811713
1747.460686	-3.033200	3.250000	-9.855800	27.370145	0.000550	20.789252
1748.462234	-3.000700	3.250400	-9.752600	27.372203	0.000547	20.789426
1749.456271	-2.999400	3.248400	-9.742500	27.387584	0.000548	20.770286
1750.460851	-2.983500	3.250200	-9.696800	27.389766	0.000546	20.791447
1751.456573	-2.998500	3.251100	-9.747500	27.412118	0.000548	20.806346
1752.458043	-3.016100	3.247400	-9.793600	27.470932	0.000547	20.798661
1753.462201	-2.993500	3.249300	-9.725600	27.507964	0.000546	20.803675
1754.457757	-2.976600	3.247100	-9.664600	27.511386	0.000545	20.788627
1755.459507	-2.993000	3.246400	-9.715400	27.503276	0.000544	20.783786
1756.459834	-2.979200	3.247700	-9.675000	27.490255	0.000542	20.791074
1757.460613	-2.990900	3.247100	-9.710100	27.493058	0.000544	20.785359
1758.459469	-3.007600	3.246900	-9.763400	27.505684	0.000542	20.808968
1759.460193	-3.022300	3.244300	-9.803200	27.556630	0.000541	20.778672
1760.458881	-3.008900	3.245200	-9.762900	27.589171	0.000541	20.803827
1761.462746	-2.993000	3.243100	-9.705100	27.574760	0.000541	20.770834
1762.461953	-2.996400	3.243400	-9.717000	27.551446	0.000539	20.803328
1763.465372	-2.997000	3.243000	-9.718500	27.558712	0.000540	20.784086
1764.466192	-3.001200	3.244000	-9.734900	27.553255	0.000539	20.777647
1765.464931	-2.974700	3.243600	-9.647600	27.540407	0.000536	20.778945
1766.468418	-2.984100	3.242500	-9.675100	27.539640	0.000538	20.781966
1767.463579	-2.992400	3.242500	-9.700300	27.550427	0.000536	20.776224
1768.465976	-3.001500	3.241400	-9.728600	27.560250	0.000536	20.789900
1769.472134	-3.014000	3.241100	-9.766800	27.477331	0.000534	20.785183
1770.462800	-3.007500	3.240200	-9.744600	27.471500	0.000534	20.783111
1771.467328	-2.992600	3.240500	-9.696900	27.507118	0.000532	20.778168
1772.461594	-3.010900	3.240000	-9.752600	27.477827	0.000531	20.774777
1773.474926	-3.014500	3.239800	-9.765700	27.457781	0.000531	20.783533
1774.462427	-2.995900	3.239200	-9.702800	27.463486	0.000531	20.775522
1775.462854	-3.005700	3.239000	-9.734800	27.473830	0.000531	20.776920
1776.463375	-2.992000	3.239700	-9.692600	27.445054	0.000531	20.774522
1777.464202	-2.991600	3.239700	-9.690500	27.396089	0.000530	20.781212
1778.465423	-3.002400	3.238300	-9.721500	27.423300	0.000528	20.756429
1779.469264	-3.003200	3.237800	-9.722900	27.416950	0.000527	20.771379
1780.464550	-3.024600	3.235000	-9.782900	27.466287	0.000528	20.772650
1781.463678	-2.994500	3.237300	-9.692200	27.470452	0.000528	20.777789
1782.466656	-2.998600	3.236000	-9.703200	27.508676	0.000527	20.772623
1783.477314	-2.993000	3.236100	-9.684800	27.553740	0.000525	20.774342
1784.471634	-2.989500	3.234600	-9.668800	27.552300	0.000524	20.769573
1785.471384	-2.999900	3.235200	-9.704300	27.576434	0.000522	20.782003
1786.477867	-2.983900	3.234700	-9.651800	27.584867	0.000524	20.767728
1787.470827	-3.005500	3.233400	-9.717000	27.574794	0.000522	20.779404
1788.471503	-2.994700	3.232800	-9.680500	27.579778	0.000520	20.773039
1789.470697	-3.002800	3.232700	-9.704700	27.625934	0.000522	20.781549
1790.472035	-3.018400	3.232300	-9.754800	27.632036	0.000521	20.772989
1791.473010	-2.978500	3.234300	-9.632100	27.630025	0.000518	20.763854
1792.473563	-3.004900	3.231800	-9.709800	27.639795	0.000519	20.757089
1793.472635	-3.008900	3.230400	-9.717800	27.655940	0.000519	20.772387
1794.474608	-2.999200	3.230500	-9.688100	27.705562	0.000517	20.767318
1795.475897	-2.998500	3.228900	-9.680500	27.706006	0.000515	20.768239
1796.473775	-3.026300	3.229200	-9.770900	27.672850	0.000517	20.744831
1797.473245	-2.991200	3.230200	-9.661500	27.617839	0.000516	20.771507
1798.478414	-3.043400	3.226800	-9.819000	27.584902	0.000513	20.759702
1799.473434	-2.986200	3.228000	-9.638800	27.544745	0.000514	20.758652
1800.477272	-2.966400	3.229700	-9.579700	27.492284	0.000513	20.775097
1801.476914	-3.003400	3.229900	-9.699600	27.468371	0.000512	20.760522
1802.476777	-2.997400	3.228400	-9.676100	27.457927	0.000511	20.758075
1803.475995	-2.999000	3.227700	-9.677500	27.495058	0.000512	20.785001
1804.477186	-2.983900	3.229000	-9.634400	27.533725	0.000510	20.785972
1805.478199	-2.998500	3.226000	-9.672500	27.577625	0.000510	20.750958
1806.478477	-2.998900	3.225500	-9.672200	27.618547	0.000507	20.782650
1807.478790	-2.995300	3.227400	-9.664300	27.663959	0.000508	20.750109
1808.480295	-2.998100	3.225200	-9.668300	27.687021	0.000505	20.759566
1809.479098	-2.980400	3.224700	-9.609900	27.729475	0.000506	20.785218
1810.477746	-2.999000	3.224500	-9.669400	27.720273	0.000506	20.775010
1811.478873	-3.015000	3.222900	-9.715700	27.700185	0.000506	20.752898
1812.480653	-2.988900	3.224200	-9.635800	27.693912	0.000504	20.766026
1813.480011	-3.028900	3.221200	-9.754400	27.648972	0.000504	20.762056
1814.481359	-2.995800	3.222700	-9.653600	27.645871	0.000502	20.752772
1815.480995	-3.021100	3.221400	-9.731700	27.639894	0.000502	20.767146
1816.485748	-2.996800	3.221100	-9.651300	27.623648	0.000499	20.745109
1817.481548	-3.010700	3.221900	-9.697500	27.584064	0.000500	20.775929
1818.480641	-3.025800	3.221300	-9.746400	27.561667	0.000499	20.756712
1819.479732	-3.013400	3.220000	-9.702400	27.609857	0.000498	20.766320
1820.483124	-3.004400	3.219300	-9.670700	27.636369	0.000498	20.783514
1821.483068	-3.009000	3.219000	-9.685300	27.670319	0.000495	20.767889
1822.480749	-3.006500	3.220100	-9.680200	27.721333	0.000496	20.771809
1823.483015	-3.008100	3.218300	-9.680400	27.750196	0.000495	20.736843
1824.482194	-2.992600	3.218400	-9.630800	27.715753	0.000495	20.775677
1825.481487	-3.004600	3.219000	-9.670900	27.685792	0.000494	20.762597
1826.484035	-2.997100	3.217100	-9.640900	27.643754	0.000494	20.758702
1827.483964	-3.016100	3.215900	-9.697600	27.656998	0.000492	20.755433
1828.481428	-2.985200	3.216600	-9.601300	27.674607	0.000491	20.775998
1829.482178	-2.991000	3.216300	-9.617900	27.675301	0.000489	20.779067
1830.483796	-2.993900	3.214900	-9.624000	27.688272	0.000489	20.761299
1831.481784	-2.999400	3.215100	-9.642000	27.719839	0.000490	20.771254
1832.482450	-2.993400	3.214700	-9.621100	27.779925	0.000487	20.753484
1833.489913	-3.002700	3.214500	-9.651600	27.774470	0.000486	20.747995
1834.487256	-3.012400	3.216500	-9.687300	27.801250	0.000485	20.770679
1835.484074	-2.998100	3.213100	-9.632600	27.782653	0.000486	20.772826
1836.484117	-3.007300	3.212800	-9.660200	27.743125	0.000485	20.752961
1837.487782	-3.022800	3.211100	-9.705500	27.677951	0.000484	20.757077
1838.486082	-3.021800	3.211700	-9.704300	27.614759	0.000484	20.784055
1839.486691	-3.020200	3.212300	-9.699900	27.609676	0.000483	20.769457
1840.486740	-3.008800	3.212100	-9.663800	27.604318	0.000481	20.760746
1841.487031	-3.002200	3.209900	-9.635400	27.643005	0.000481	20.780709
1842.486155	-3.009100	3.210300	-9.658800	27.712247	0.000481	20.770726
1843.497336	-3.001200	3.210100	-9.632500	27.738113	0.000480	20.769254
1844.488171	-2.977000	3.210600	-9.557200	27.768810	0.000477	20.767430
1845.488687	-2.994900	3.209300	-9.610000	27.790212	0.000478	20.777588
1846.491960	-2.979600	3.209200	-9.560600	27.798641	0.000475	20.750983
1847.490398	-3.001100	3.208900	-9.628500	27.815555	0.000476	20.755677
1848.489947	-3.016500	3.210000	-9.681700	27.849279	0.000474	20.780609
1849.492397	-3.003000	3.206000	-9.627000	27.867426	0.000474	20.778959
1850.490458	-2.992500	3.207800	-9.597600	27.896958	0.000473	20.760792
1851.490235	-3.003700	3.207800	-9.634200	27.907395	0.000473	20.770348
1852.493371	-2.999900	3.207000	-9.619600	27.879278	0.000472	20.770025
1853.493720	-3.008200	3.205300	-9.641200	27.901569	0.000471	20.776338
1854.491175	-3.000400	3.205400	-9.616500	27.890931	0.000470	20.776537
1855.490755	-2.996800	3.204600	-9.602400	27.928370	0.000468	20.766803
1856.492306	-2.980500	3.205400	-9.553000	27.915378	0.000468	20.790712
1857.491552	-3.009500	3.204400	-9.642400	27.908361	0.000469	20.774640
1858.491370	-3.005700	3.204200	-9.630000	27.915699	0.000469	20.759740
1859.494734	-2.968300	3.204600	-9.510500	27.930503	0.000466	20.787916
1860.494761	-3.007400	3.203400	-9.631900	27.963106	0.000465	20.789912
1861.493324	-2.994000	3.203100	-9.588600	27.955692	0.000465	20.771070
1862.493403	-3.009700	3.202300	-9.636600	27.966130	0.000465	20.786318
1863.492692	-2.988800	3.202500	-9.570000	27.973320	0.000463	20.773166
1864.492239	-2.997900	3.200400	-9.593600	27.981747	0.000462	20.781175
1865.493910	-3.006300	3.200400	-9.620300	27.960625	0.000460	20.769871
1866.494737	-2.990600	3.201900	-9.573700	27.911634	0.000462	20.782676
1867.496991	-2.976400	3.200700	-9.524600	27.889018	0.000460	20.773663
1868.495276	-2.981800	3.201600	-9.545700	27.940270	0.000457	20.769298
1869.499179	-2.999100	3.199700	-9.594900	27.951204	0.000458	20.780777
1870.495402	-2.988500	3.199300	-9.559100	28.005080	0.000458	20.779531
1871.496412	-2.976800	3.198500	-9.520700	28.005724	0.000458	20.766902
1872.498428	-3.007800	3.198200	-9.617700	27.995211	0.000455	20.787614
1873.501112	-3.012300	3.197800	-9.632400	27.993452	0.000456	20.790111
1874.497204	-2.971300	3.197700	-9.500400	27.953113	0.000455	20.765629
1875.500161	-2.995500	3.196400	-9.573500	27.906673	0.000454	20.783372
1876.498793	-3.009800	3.196000	-9.618200	27.861496	0.000454	20.771093
1877.497361	-3.013800	3.194000	-9.625200	27.850238	0.000450	20.805282
1878.503380	-2.981200	3.196400	-9.528200	27.907144	0.000452	20.787165
1879.501066	-2.992000	3.194200	-9.555900	27.950161	0.000449	20.762183
1880.497760	-2.978500	3.195800	-9.518300	27.969973	0.000449	20.792557
1881.497556	-3.010300	3.194400	-9.614700	28.031307	0.000450	20.769894
1882.499039	-2.995100	3.193400	-9.562600	28.021366	0.000449	20.779802
1883.500875	-2.999100	3.192800	-9.574700	28.043529	0.000446	20.785517
1884.499022	-2.980000	3.193100	-9.514300	28.019405	0.000445	20.800588
1885.501416	-3.002600	3.193200	-9.587200	28.011969	0.000447	20.789784
1886.502108	-2.994000	3.192400	-9.557500	27.983083	0.000445	20.773510
1887.502038	-3.023600	3.190000	-9.644400	27.998430	0.000445	20.780897
1888.499856	-2.968300	3.193900	-9.479200	28.021263	0.000443	20.781121
1889.501861	-3.000700	3.190100	-9.571700	27.992901	0.000442	20.796669
1890.500503	-2.994100	3.190400	-9.551200	27.987347	0.000442	20.796294
1891.505648	-2.998600	3.189300	-9.562000	27.952436	0.000440	20.777750
1892.504923	-2.960400	3.192200	-9.448800	27.915245	0.000440	20.774930
1893.506995	-2.991600	3.188800	-9.538100	27.846961	0.000437	20.794397
1894.503588	-2.985600	3.187800	-9.516600	27.833197	0.000435	20.794296
1895.506542	-3.007900	3.187500	-9.587400	27.844157	0.000437	20.778299
1896.511187	-2.980500	3.187900	-9.499100	27.849685	0.000436	20.805200
1897.503972	-3.009000	3.187400	-9.590200	27.855735	0.000434	20.797064
1898.505040	-2.988600	3.187400	-9.524700	27.884299	0.000434	20.795466
1899.507859	-2.995800	3.186100	-9.543900	27.847825	0.000432	20.793371
1900.502752	-2.998400	3.186100	-9.552500	27.826449	0.000434	20.795091
1901.509249	-3.004100	3.186600	-9.572000	27.832897	0.000431	20.782140
1902.508399	-3.007000	3.184000	-9.573800	27.856106	0.000431	20.806446
1903.506822	-3.011700	3.183100	-9.584500	27.856947	0.000430	20.792120
1904.510861	-3.014100	3.183200	-9.591900	27.852929	0.000429	20.794715
1905.513101	-2.996800	3.184500	-9.541400	27.896300	0.000428	20.801856
1906.510215	-3.001800	3.182000	-9.550800	27.889106	0.000426	20.810262
1907.510940	-2.975600	3.184200	-9.473900	27.900738	0.000425	20.803951
1908.511268	-3.014000	3.181300	-9.587200	27.879040	0.000424	20.800605
1909.508948	-3.010200	3.180700	-9.573500	27.846558	0.000426	20.795889
1910.511963	-3.025700	3.181400	-9.625200	27.836812	0.000425	20.801727
1911.510036	-3.009400	3.181600	-9.574200	27.818786	0.000423	20.815828
1912.510222	-2.991400	3.180500	-9.512800	27.782111	0.000422	20.810687
1913.512322	-3.019000	3.179500	-9.596900	27.780300	0.000421	20.792269
1914.510896	-2.970100	3.180000	-9.443800	27.829348	0.000422	20.822665
1915.510942	-2.973300	3.182000	-9.458800	27.834928	0.000422	20.807417
1916.514589	-3.011100	3.176700	-9.564000	27.856079	0.000419	20.806893
1917.513140	-3.002800	3.175900	-9.535100	27.808569	0.000418	20.807442
1918.510664	-3.000700	3.177000	-9.531800	27.795673	0.000420	20.802525
1919.511575	-2.984400	3.176900	-9.480500	27.810700	0.000416	20.803897
1920.514368	-2.986500	3.178300	-9.490500	27.873336	0.000415	20.803873
1921.511327	-2.979900	3.177600	-9.467600	27.873410	0.000417	20.790671
1922.513731	-2.999000	3.175900	-9.524000	27.868203	0.000415	20.802974
1923.517993	-3.000500	3.176400	-9.529800	27.863019	0.000412	20.787325
1924.512387	-2.999600	3.173600	-9.518500	27.855853	0.000413	20.814252
1925.512948	-3.004400	3.174500	-9.537000	27.928850	0.000411	20.820391
1926.516703	-2.977900	3.176300	-9.458100	28.004962	0.000411	20.826352
1927.514823	-2.959800	3.175800	-9.399300	28.037912	0.000409	20.819217
1928.514696	-2.996300	3.172900	-9.505900	28.012972	0.000408	20.805492
1929.516284	-3.004900	3.171500	-9.529200	27.970897	0.000407	20.819565
1930.515437	-3.001800	3.170500	-9.516100	27.936584	0.000406	20.807788
1931.514996	-2.997000	3.173300	-9.509700	27.917171	0.000405	20.813378
1932.515334	-3.008900	3.170900	-9.539700	27.908021	0.000404	20.806065
1933.515849	-2.989000	3.172000	-9.480500	27.908515	0.000405	20.813201
1934.516835	-3.009500	3.169700	-9.538600	27.925425	0.000403	20.819315
1935.517093	-2.998700	3.168000	-9.496900	27.894953	0.000402	20.829423
1936.518624	-2.995300	3.170000	-9.494300	27.869413	0.000400	20.829321
1937.517423	-2.987500	3.167700	-9.461900	27.859470	0.000401	20.839229
1938.517577	-3.016500	3.168000	-9.553200	27.880174	0.000401	20.821186
1939.518609	-2.973000	3.166700	-9.413000	27.883423	0.000398	20.809757
1940.518813	-3.001900	3.166900	-9.505800	27.893838	0.000399	20.820240
1941.519651	-3.016800	3.165900	-9.549900	27.941168	0.000397	20.824255
1942.520309	-2.988300	3.167200	-9.462700	27.926540	0.000397	20.826127
1943.519694	-3.005700	3.164600	-9.511000	27.962095	0.000395	20.844370
1944.519856	-3.014600	3.164100	-9.537700	28.007068	0.000395	20.825628
1945.523578	-3.007100	3.165400	-9.517700	28.071080	0.000395	20.834113
1946.519985	-3.023300	3.163900	-9.564000	28.130031	0.000393	20.835610
1947.519918	-3.023900	3.162300	-9.561700	28.171924	0.000393	20.834162
1948.521899	-3.002600	3.162300	-9.494000	28.225093	0.000391	20.846912
1949.523132	-3.031300	3.162600	-9.585900	28.207669	0.000390	20.816095
1950.520569	-2.998500	3.160900	-9.476200	28.229380	0.000390	20.855022
1951.526049	-2.992600	3.164200	-9.467300	28.260934	0.000391	20.833686
1952.521213	-2.974500	3.162000	-9.403900	28.271494	0.000385	20.834835
1953.521962	-2.994500	3.160300	-9.462400	28.253177	0.000387	20.834885
1954.527477	-2.990600	3.162100	-9.456200	28.232428	0.000384	20.845763
1955.522325	-3.003600	3.160300	-9.491100	28.270873	0.000384	20.846538
1956.522383	-3.013900	3.159300	-9.521600	28.284281	0.000384	20.849132
1957.523666	-3.021100	3.156900	-9.536500	28.321684	0.000381	20.846014
1958.523798	-3.000900	3.158100	-9.476000	28.303690	0.000383	20.839751
1959.524535	-3.020200	3.157000	-9.534200	28.303145	0.000380	20.827823
1960.522550	-3.007000	3.156700	-9.490600	28.286017	0.000380	20.840922
1961.524187	-3.011300	3.155700	-9.501200	28.282521	0.000379	20.845937
1962.523919	-2.980800	3.155700	-9.404900	28.280814	0.000378	20.843744
1963.522311	-3.006600	3.155500	-9.487100	28.280316	0.000379	20.852726
1964.526323	-2.993400	3.154100	-9.440800	28.258530	0.000376	20.836481
1965.523173	-2.996900	3.154300	-9.452400	28.254020	0.000376	20.844268
1966.524227	-2.985300	3.155900	-9.420700	28.224572	0.000375	20.841173
1967.525106	-2.979600	3.153800	-9.395600	28.201767	0.000374	20.838127
1968.523639	-2.985700	3.152300	-9.409700	28.175020	0.000374	20.864778
1969.523695	-2.979900	3.152900	-9.394400	28.134465	0.000372	20.830591
1970.526109	-2.998700	3.151200	-9.448300	28.117958	0.000372	20.861387
1971.524195	-3.006800	3.151600	-9.475500	28.123581	0.000370	20.839548
1972.524124	-3.001800	3.152800	-9.462000	28.183101	0.000369	20.841146
1973.524331	-2.991800	3.151000	-9.426400	28.198817	0.000370	20.844167
1974.525565	-2.992200	3.148900	-9.421300	28.151125	0.000368	20.853999
1975.524619	-2.975100	3.148300	-9.366100	28.145000	0.000368	20.844515
1976.525016	-3.004500	3.148400	-9.458000	28.167139	0.000366	20.849732
1977.532781	-2.980900	3.148100	-9.382700	28.245440	0.000367	20.856018
1978.536893	-2.976300	3.147900	-9.368700	28.282671	0.000365	20.841347
1979.526517	-3.008500	3.145300	-9.460900	28.298683	0.000365	20.864105
1980.527172	-3.007600	3.145000	-9.457800	28.337545	0.000364	20.870043
1981.526894	-2.998200	3.145300	-9.428800	28.333705	0.000362	20.842945
1982.527049	-2.994300	3.145800	-9.418100	28.340843	0.000362	20.855821
1983.528340	-3.004400	3.143300	-9.442200	28.364659	0.000361	20.868422
1984.529260	-2.983800	3.144500	-9.381600	28.393558	0.000361	20.868124
1985.526596	-3.014900	3.143400	-9.475800	28.390682	0.000359	20.847210
1986.525737	-2.991100	3.143600	-9.402100	28.426666	0.000358	20.863056
1987.531661	-3.029500	3.141500	-9.516300	28.456529	0.000358	20.874161
1988.529490	-2.991000	3.141700	-9.394300	28.487357	0.000356	20.871540
1989.528197	-3.003900	3.140600	-9.433300	28.494396	0.000358	20.847337
1990.528674	-3.033100	3.139200	-9.519900	28.470877	0.000354	20.857790
1991.528919	-2.982900	3.140800	-9.368200	28.399431	0.000356	20.858391
1992.530603	-2.999700	3.139900	-9.416300	28.365229	0.000354	20.871840
1993.530076	-2.974600	3.140700	-9.341400	28.361536	0.000353	20.859588
1994.529217	-3.001100	3.139100	-9.420400	28.371225	0.000351	20.866499
1995.529791	-2.982800	3.137500	-9.357700	28.372291	0.000352	20.870416
1996.530107	-3.008300	3.137300	-9.436700	28.344160	0.000351	20.875281
1997.529825	-3.002100	3.135600	-9.412600	28.280934	0.000350	20.855718
1998.529594	-3.001600	3.136600	-9.413800	28.262616	0.000349	20.863828
1999.530195	-2.995200	3.134900	-9.387600	28.187337	0.000347	20.880971
2000.532109	-3.005800	3.134700	-9.420900	28.189394	0.000348	20.878300
2001.530299	-2.996100	3.134000	-9.388900	28.221669	0.000346	20.866223
2002.532299	-3.010200	3.132600	-9.428800	28.231012	0.000347	20.870888
2003.531674	-2.993400	3.133700	-9.378800	28.288913	0.000344	20.875130
2004.534033	-3.017200	3.131300	-9.445300	28.310946	0.000344	20.874555
2005.533146	-2.990800	3.133000	-9.368600	28.332883	0.000342	20.874358
2006.532469	-3.014200	3.130400	-9.434900	28.345149	0.000341	20.891923
2007.531662	-2.997900	3.130400	-9.383500	28.362871	0.000342	20.875155
2008.536029	-3.017600	3.130100	-9.444400	28.307873	0.000341	20.905598
2009.532094	-2.992900	3.130100	-9.367200	28.306533	0.000339	20.887654
2010.535954	-3.009600	3.129400	-9.416200	28.316224	0.000340	20.886981
2011.534301	-2.990200	3.129300	-9.355500	28.343636	0.000338	20.876176
2012.533328	-3.005900	3.126300	-9.395600	28.345966	0.000336	20.879470
2013.533093	-3.003300	3.126900	-9.390000	28.345345	0.000336	20.917722
2014.540051	-3.009500	3.126400	-9.406700	28.373451	0.000337	20.872532
2015.531810	-3.011900	3.124300	-9.407700	28.422003	0.000335	20.871162
2016.533977	-2.995300	3.125600	-9.361400	28.494115	0.000335	20.885932
2017.537895	-3.017100	3.124900	-9.427100	28.534681	0.000332	20.913031
2018.534631	-2.998700	3.124500	-9.368400	28.597322	0.000333	20.887928
2019.535304	-3.023400	3.122400	-9.439200	28.642962	0.000330	20.887427
2020.537768	-3.001100	3.121200	-9.365700	28.623884	0.000328	20.898083
2021.542257	-3.020300	3.120700	-9.423200	28.618458	0.000331	20.884559
2022.537170	-2.984400	3.122000	-9.316300	28.631020	0.000328	20.899106
2023.536314	-2.991300	3.121300	-9.335500	28.556188	0.000330	20.902924
2024.536297	-2.993800	3.119100	-9.337300	28.514259	0.000328	20.911905
2025.537371	-2.987000	3.119900	-9.318100	28.462119	0.000327	20.917244
2026.536479	-2.986400	3.119800	-9.315900	28.397585	0.000326	20.897781
2027.539038	-2.977300	3.119300	-9.286200	28.377485	0.000323	20.905516
2028.538680	-3.008900	3.117100	-9.377200	28.371783	0.000323	20.916369
2029.538477	-3.019400	3.117400	-9.412000	28.341720	0.000325	20.910754
2030.538331	-3.005100	3.116200	-9.363700	28.367445	0.000322	20.893984
2031.537524	-3.010500	3.114400	-9.374600	28.384621	0.000320	20.904166
2032.539053	-3.052500	3.112500	-9.498800	28.385191	0.000321	20.907110
2033.538042	-3.011400	3.113300	-9.374000	28.351210	0.000322	20.925524
2034.538705	-3.014000	3.112500	-9.379200	28.296410	0.000320	20.909228
2035.537179	-3.004900	3.113200	-9.353200	28.332226	0.000319	20.924426
2036.542824	-3.004800	3.113600	-9.355300	28.366427	0.000318	20.899123
2037.541455	-3.021800	3.110800	-9.399500	28.410614	0.000317	20.911847
2038.540650	-2.992100	3.112100	-9.310600	28.464169	0.000316	20.911723
2039.543643	-2.979700	3.111600	-9.270900	28.466375	0.000316	20.884550
2040.543013	-2.995800	3.109900	-9.315100	28.460945	0.000316	20.917011
2041.543952	-3.026000	3.107900	-9.403100	28.454553	0.000313	20.925746
2042.552105	-3.025200	3.109300	-9.404800	28.493310	0.000314	20.918783
2043.544128	-2.995100	3.108500	-9.308700	28.515316	0.000312	20.896376
2044.542934	-2.995700	3.108800	-9.310600	28.532167	0.000313	20.895802
2045.546766	-2.977300	3.108600	-9.253900	28.512168	0.000310	20.919282
2046.543966	-3.004900	3.106000	-9.332500	28.521262	0.000310	20.910423
2047.544590	-3.018500	3.105800	-9.372900	28.501438	0.000310	20.930760
2048.543813	-3.015200	3.105500	-9.362000	28.549314	0.000308	20.905483
2049.546259	-2.996900	3.104600	-9.302100	28.587772	0.000308	20.919557
2050.548759	-3.002900	3.103800	-9.318800	28.613291	0.000305	20.914914
2051.547126	-2.981700	3.104200	-9.254900	28.598053	0.000306	20.908102
2052.548808	-2.974500	3.104300	-9.232600	28.637054	0.000306	20.903761
2053.547289	-2.983600	3.102200	-9.254400	28.627563	0.000303	20.913167
2054.549803	-3.022700	3.100000	-9.370200	28.591633	0.000302	20.917282
2055.549855	-2.995900	3.099700	-9.285500	28.525522	0.000302	20.896223
2056.547723	-2.999800	3.100900	-9.301000	28.493035	0.000302	20.914713
2057.547093	-2.995000	3.099800	-9.282400	28.492517	0.000301	20.920355
2058.548310	-3.032100	3.096600	-9.388100	28.504683	0.000300	20.913641
2059.547843	-2.982700	3.098200	-9.240400	28.526341	0.000299	20.904159
2060.549775	-2.974800	3.097800	-9.213500	28.578204	0.000299	20.916560
2061.548863	-2.979400	3.095600	-9.222400	28.606302	0.000296	20.894126
2062.553067	-2.997300	3.094500	-9.274700	28.596812	0.000297	20.887888
2063.552693	-3.050300	3.093200	-9.434400	28.602338	0.000297	20.895349
2064.554687	-3.021400	3.092900	-9.343500	28.619930	0.000295	20.891256
2065.554422	-3.006700	3.092500	-9.297600	28.662200	0.000296	20.900639
2066.551538	-3.003900	3.091700	-9.285400	28.623276	0.000295	20.897471
2067.551559	-3.019300	3.091000	-9.331300	28.604024	0.000295	20.878082
2068.553304	-2.979800	3.091600	-9.210400	28.547550	0.000293	20.891380
2069.558664	-2.988600	3.090800	-9.236400	28.551393	0.000290	20.882449
2070.551599	-2.987800	3.089700	-9.230200	28.489937	0.000291	20.877931
2071.551217	-3.008300	3.087300	-9.286600	28.463742	0.000289	20.905604
2072.555389	-2.970100	3.087900	-9.170700	28.441984	0.000289	20.894600
2073.557247	-2.983900	3.088500	-9.214300	28.451500	0.000288	20.888536
2074.553140	-3.003500	3.085600	-9.266200	28.447906	0.000287	20.903881
2075.555862	-2.989300	3.087500	-9.228800	28.459928	0.000285	20.874264
2076.555024	-2.993900	3.085400	-9.236400	28.472639	0.000287	20.877581
2077.554639	-2.992400	3.084700	-9.229400	28.488228	0.000285	20.908924
2078.557211	-3.015600	3.082400	-9.293900	28.481363	0.000285	20.910546
2079.556728	-2.975900	3.084500	-9.177800	28.519624	0.000285	20.869422
2080.555726	-3.016200	3.082500	-9.294800	28.586802	0.000282	20.891082
2081.566666	-2.999500	3.081200	-9.241500	28.602562	0.000283	20.888463
2082.555730	-2.982600	3.081500	-9.190100	28.604122	0.000281	20.882923
2083.559092	-2.994000	3.080000	-9.220900	28.633087	0.000281	20.886964
2084.558548	-3.028400	3.078200	-9.320700	28.670427	0.000281	20.861987
2085.560459	-2.979600	3.079600	-9.175000	28.715498	0.000279	20.886045
2086.557163	-3.000700	3.077500	-9.234000	28.735688	0.000280	20.882674
2087.557734	-2.990900	3.077100	-9.202100	28.767823	0.000279	20.863361
2088.561762	-3.012000	3.075600	-9.262700	28.764700	0.000278	20.885819
2089.558280	-2.993300	3.075400	-9.204400	28.795917	0.000278	20.870324
2090.559172	-3.010500	3.074000	-9.251700	28.811425	0.000277	20.875989
2091.560983	-3.005000	3.072100	-9.230000	28.850815	0.000276	20.879633
2092.558459	-2.993800	3.073100	-9.198500	28.813432	0.000277	20.878010
2093.558819	-2.983600	3.071300	-9.162300	28.787222	0.000274	20.853506
2094.559754	-2.973000	3.072000	-9.131200	28.771243	0.000275	20.878185
2095.560084	-2.971000	3.070400	-9.120600	28.776817	0.000272	20.856775
2096.559958	-3.006600	3.069200	-9.226900	28.837885	0.000272	20.853806
2097.559103	-2.975300	3.069000	-9.130300	28.869394	0.000270	20.863262
2098.562644	-3.000000	3.066900	-9.200000	28.887727	0.000272	20.864187
2099.560904	-2.999200	3.066800	-9.196400	28.890574	0.000272	20.860891
2100.561971	-2.989400	3.065600	-9.162000	28.838131	0.000267	20.851210
2101.560904	-2.991100	3.065900	-9.168800	28.845911	0.000269	20.869951
2102.564074	-3.006600	3.063800	-9.210700	28.823542	0.000268	20.842677
2103.560798	-3.008400	3.064500	-9.218300	28.812147	0.000267	20.848268
2104.568367	-3.002700	3.063800	-9.198500	28.865013	0.000267	20.867858
2105.565473	-3.004600	3.061400	-9.197100	28.900784	0.000266	20.859324
2106.561109	-3.016900	3.060200	-9.230700	28.905217	0.000265	20.855729
2107.562970	-3.008300	3.059800	-9.204000	28.908142	0.000265	20.856779
2108.565763	-3.031000	3.058400	-9.269100	28.909356	0.000265	20.864640
2109.563675	-2.982100	3.059900	-9.122900	28.910051	0.000265	20.858228
2110.564269	-2.996400	3.058100	-9.162100	28.916887	0.000265	20.846623
2111.561842	-3.003900	3.055500	-9.177800	28.867592	0.000264	20.850069
2112.564478	-2.997300	3.055900	-9.157900	28.825480	0.000264	20.847474
2113.565054	-3.036300	3.053500	-9.270000	28.812697	0.000263	20.835072
2114.566441	-3.005900	3.053200	-9.176500	28.798329	0.000261	20.853789
2115.568705	-2.995200	3.052300	-9.140900	28.788667	0.000262	20.846427
2116.564502	-2.999800	3.051700	-9.153800	28.796325	0.000260	20.837546
2117.565629	-3.014300	3.052000	-9.198300	28.727226	0.000259	20.850919
2118.569532	-2.994500	3.049600	-9.130900	28.692566	0.000260	20.852518
2119.567631	-3.014100	3.049000	-9.188700	28.684613	0.000258	20.843085
2120.568567	-2.993300	3.047600	-9.121000	28.712510	0.000259	20.857907
2121.569594	-2.989300	3.046800	-9.105900	28.769914	0.000257	20.848400
2122.567767	-3.000200	3.046700	-9.139300	28.813096	0.000258	20.858706
2123.566367	-2.997300	3.045100	-9.125500	28.844558	0.000256	20.847252
2124.570053	-3.012500	3.044200	-9.170400	28.788150	0.000257	20.825993
2125.568591	-3.001500	3.042400	-9.130200	28.751359	0.000253	20.858157
2126.568522	-3.001400	3.043400	-9.133800	28.701882	0.000255	20.834875
2127.569591	-2.999000	3.041400	-9.120800	28.689470	0.000255	20.834701
2128.568233	-3.002000	3.040700	-9.126700	28.674307	0.000255	20.843136
2129.568549	-3.008300	3.038900	-9.140500	28.680748	0.000254	20.824968
2130.571459	-3.007100	3.036400	-9.129700	28.669501	0.000254	20.841614
2131.570494	-3.019000	3.037700	-9.169300	28.636399	0.000250	20.841465
2132.570363	-2.990100	3.036500	-9.078000	28.665932	0.000252	20.840391
2133.570419	-2.990300	3.036800	-9.080100	28.672104	0.000252	20.851822
2134.571876	-3.001500	3.033800	-9.104500	28.724356	0.000250	20.839494
2135.586688	-3.003500	3.032100	-9.105800	28.712687	0.000250	20.854766
2136.577505	-3.012600	3.031400	-9.131700	28.687690	0.000250	20.825796
2137.572518	-2.995000	3.031700	-9.078600	28.686226	0.000248	20.831908
2138.571175	-3.020600	3.029800	-9.150800	28.763996	0.000246	20.821576
2139.569685	-3.003400	3.029200	-9.097900	28.788648	0.000247	20.841192
2140.570996	-2.983600	3.029800	-9.039300	28.796898	0.000247	20.838598
2141.573698	-3.010900	3.026300	-9.111100	28.782874	0.000248	20.838221
2142.571831	-2.990500	3.027700	-9.053700	28.726313	0.000247	20.823448
2143.572773	-2.979800	3.025700	-9.015000	28.738034	0.000247	20.828616
2144.577828	-2.976800	3.025500	-9.003600	28.770958	0.000246	20.822425
2145.574731	-3.011000	3.023000	-9.101400	28.799176	0.000245	20.817185
2146.573683	-3.002000	3.021600	-9.070300	28.844313	0.000245	20.828989
2147.577466	-3.024000	3.020400	-9.132500	28.838268	0.000245	20.821951
2148.576123	-2.984800	3.019200	-9.010600	28.876469	0.000244	20.819183
2149.574664	-2.981900	3.020200	-9.005000	28.907159	0.000243	20.847254
2150.576190	-2.980200	3.018900	-8.995700	28.902306	0.000242	20.841418
2151.576219	-3.005200	3.015200	-9.059900	28.938396	0.000241	20.832732
2152.573738	-3.020200	3.015300	-9.106100	28.983254	0.000242	20.830036
2153.577592	-3.001300	3.014100	-9.045200	29.030489	0.000242	20.819781
2154.575293	-2.990400	3.013300	-9.010100	29.082872	0.000242	20.841267
2155.575815	-3.014400	3.011000	-9.075200	29.117049	0.000242	20.838720
2156.576773	-2.975200	3.012100	-8.960200	29.168464	0.000240	20.842639
2157.573839	-2.985300	3.010900	-8.987000	29.115539	0.000240	20.809224
2158.573608	-2.998800	3.007400	-9.017700	29.095253	0.000238	20.820552
2159.576979	-3.008100	3.006600	-9.043100	29.082548	0.000238	20.821500
2160.576321	-2.988700	3.007200	-8.986900	29.055651	0.000240	20.824744
2161.577176	-2.995200	3.005200	-8.998800	29.022933	0.000241	20.816435
2162.576371	-2.980600	3.004200	-8.953500	28.933465	0.000240	20.814489
2163.576864	-2.995200	3.005000	-8.998400	28.881817	0.000237	20.814613
2164.575871	-3.014400	3.001200	-9.045200	28.845698	0.000240	20.828014
2165.576013	-3.046300	2.999200	-9.135000	28.885580	0.000237	20.832155
2166.576322	-3.029900	2.998600	-9.083800	28.901015	0.000238	20.827316
2167.577931	-3.011300	2.996400	-9.022300	28.844905	0.000239	20.842387
2168.575135	-3.010500	2.995600	-9.016300	28.855457	0.000240	20.812241
2169.580367	-2.979100	2.997500	-8.929500	28.879784	0.000238	20.811143
2170.577267	-2.995100	2.995000	-8.969700	28.916794	0.000237	20.841788
2171.577898	-2.978300	2.992600	-8.911000	28.985457	0.000237	20.810920
2172.577759	-3.019900	2.990400	-9.029900	29.018052	0.000234	20.817682
2173.582800	-3.012400	2.988900	-9.003100	29.055850	0.000238	20.807876
2174.580147	-2.999600	2.989100	-8.964100	29.014855	0.000239	20.818253
2175.581312	-2.979400	2.988700	-8.903600	29.000219	0.000234	20.830533
2176.589963	-3.006500	2.987300	-8.980600	28.997171	0.000233	20.833627
2177.581612	-3.002700	2.984900	-8.961700	29.011215	0.000237	20.814587
2178.579262	-3.017200	2.983800	-9.000900	29.048715	0.000235	20.821075
2179.589082	-2.987500	2.983000	-8.910800	29.091885	0.000237	20.841813
2180.582920	-2.994900	2.981300	-8.927000	29.081284	0.000236	20.815959
2181.580037	-2.997800	2.979700	-8.931900	29.091688	0.000236	20.833554
2182.581306	-3.025400	2.978200	-9.009300	29.106124	0.000233	20.819651
2183.581246	-2.983400	2.977600	-8.882500	29.113803	0.000234	20.820276
2184.582421	-3.010100	2.974200	-8.951200	29.143322	0.000237	20.807822
2185.582664	-3.003400	2.974100	-8.931300	29.159076	0.000232	20.808524
2186.586327	-2.985500	2.974700	-8.880300	29.170219	0.000234	20.817856
2187.583787	-2.987600	2.971900	-8.877600	29.154369	0.000233	20.818005
2188.584097	-2.979100	2.970100	-8.847000	29.116303	0.000233	20.825641
2189.586225	-2.992900	2.969000	-8.884700	29.106446	0.000233	20.813338
2190.585885	-3.006800	2.968400	-8.924800	29.134283	0.000233	20.814361
2191.585813	-2.981900	2.967000	-8.846400	29.180273	0.000234	20.800012
2192.586874	-2.994400	2.966000	-8.880100	29.201496	0.000234	20.818080
2193.584903	-2.983600	2.964000	-8.842500	29.214646	0.000234	20.820900
2194.583855	-3.006000	2.961500	-8.902100	29.236413	0.000233	20.813912
2195.592589	-3.000300	2.960500	-8.881900	29.250281	0.000231	20.819827
2196.583014	-2.995000	2.958500	-8.858500	29.258627	0.000231	20.808797
2197.592083	-3.023200	2.956900	-8.938100	29.267145	0.000231	20.815959
2198.584673	-3.012600	2.955100	-8.901300	29.261845	0.000231	20.814411
2199.593098	-3.021600	2.954800	-8.927300	29.257265	0.000232	20.824020
2200.586287	-2.974700	2.953500	-8.784700	29.264891	0.000230	20.806576
2201.584927	-3.016300	2.950900	-8.900000	29.193376	0.000231	20.817957
2202.588633	-3.036100	2.949400	-8.953600	29.181487	0.000231	20.807874
2203.586535	-2.992800	2.948600	-8.823300	29.135547	0.000229	20.818953
2204.586349	-3.004600	2.948300	-8.857600	29.135226	0.000229	20.816259
2205.587496	-3.035000	2.944900	-8.936200	29.148077	0.000230	20.802182
2206.586715	-3.028600	2.943100	-8.912500	29.164374	0.000229	20.811965
2207.585930	-3.042300	2.940700	-8.945600	29.167220	0.000229	20.820997
2208.590119	-3.020300	2.939400	-8.876900	29.210210	0.000226	20.802205
2209.586166	-2.994600	2.940200	-8.802500	29.214174	0.000231	20.815682
2210.586871	-2.998400	2.937200	-8.805500	29.208404	0.000228	20.799911
2211.587155	-3.013300	2.936000	-8.846000	29.141736	0.000228	20.808121
2212.589559	-3.007600	2.934400	-8.824800	29.107486	0.000226	20.808222
2213.589728	-3.001300	2.934800	-8.807900	29.160336	0.000227	20.802681
2214.589106	-3.037200	2.930400	-8.898700	29.176431	0.000227	20.803727
2215.587143	-3.025800	2.929500	-8.862700	29.159740	0.000227	20.799710
2216.592917	-2.989700	2.928600	-8.754200	29.172817	0.000228	20.810516
2217.587395	-2.999700	2.926000	-8.776600	29.142258	0.000225	20.821922
2218.589168	-3.022000	2.923500	-8.833500	29.150701	0.000227	20.793921
2219.590904	-2.992200	2.923500	-8.745400	29.196988	0.000228	20.784139
2220.587567	-3.044200	2.920900	-8.890100	29.251518	0.000226	20.776503
2221.590782	-3.016600	2.919300	-8.805200	29.294282	0.000226	20.787831
2222.589416	-3.021800	2.919500	-8.821000	29.378174	0.000226	20.809319
2223.589593	-2.982500	2.917400	-8.699400	29.400829	0.000226	20.796118
2224.590403	-2.994900	2.914700	-8.727800	29.418508	0.000228	20.809195
2225.591590	-3.019700	2.911900	-8.792300	29.436236	0.000226	20.796244
2226.590619	-2.990100	2.912900	-8.707400	29.398354	0.000223	20.791726
2227.591702	-2.994600	2.911400	-8.717000	29.348338	0.000228	20.808172
2228.592373	-2.962700	2.909200	-8.618200	29.281804	0.000225	20.794223
2229.593238	-3.023400	2.905000	-8.782400	29.220689	0.000225	20.781470
2230.590249	-2.999200	2.905100	-8.711600	29.140178	0.000227	20.797068
2231.597541	-2.969300	2.903100	-8.619100	29.123337	0.000226	20.791003
2232.596669	-2.997100	2.901800	-8.695700	29.089804	0.000226	20.783292
2233.591766	-3.007600	2.897900	-8.714000	29.150185	0.000226	20.791030
2234.593134	-3.027600	2.897500	-8.771100	29.195009	0.000225	20.776930
2235.590806	-2.999900	2.895400	-8.684000	29.213436	0.000225	20.780325
2236.592163	-2.989400	2.894200	-8.650700	29.216010	0.000223	20.791454
2237.593305	-2.979100	2.891200	-8.612100	29.156450	0.000224	20.788808
2238.593987	-3.025900	2.888400	-8.738500	29.169231	0.000224	20.775134
2239.594188	-3.007400	2.886800	-8.679900	29.222374	0.000223	20.787436
2240.594310	-3.024000	2.885600	-8.725600	29.299338	0.000224	20.774434
2241.598490	-3.032700	2.884600	-8.747000	29.298175	0.000226	20.780849
2242.595889	-2.996100	2.883000	-8.636600	29.258405	0.000225	20.777754
2243.596629	-3.026800	2.878300	-8.710800	29.230274	0.000226	20.767896
2244.599370	-2.988000	2.879000	-8.601400	29.214993	0.000222	20.792800
2245.601283	-2.992000	2.877100	-8.607400	29.181687	0.000224	20.772039
2246.596830	-3.005200	2.874800	-8.638300	29.162047	0.000224	20.770741
2247.598609	-3.024100	2.872600	-8.686200	29.158035	0.000223	20.778551
2248.598820	-2.997500	2.870700	-8.604500	29.208381	0.000223	20.770016
2249.598407	-2.980900	2.869500	-8.552100	29.269870	0.000223	20.800213
2250.598856	-3.025100	2.865400	-8.667500	29.284502	0.000225	20.777975
2251.600538	-2.984100	2.864900	-8.547700	29.305996	0.000225	20.790154
2252.599191	-2.996600	2.863000	-8.578000	29.370154	0.000225	20.755242
2253.597061	-2.990600	2.861900	-8.558200	29.371961	0.000222	20.768444
2254.599193	-3.000200	2.860600	-8.581200	29.388996	0.000224	20.780872
2255.602213	-3.004200	2.857100	-8.582300	29.406030	0.000224	20.781920
2256.599959	-3.002100	2.855100	-8.569700	29.424847	0.000222	20.766272
2257.604185	-3.038600	2.851700	-8.663100	29.446462	0.000223	20.775731
2258.601010	-3.015700	2.851000	-8.596500	29.414574	0.000223	20.764452
2259.604417	-2.986100	2.850100	-8.509900	29.399791	0.000221	20.762829
2260.600634	-3.011800	2.847100	-8.573400	29.421355	0.000222	20.778400
2261.603023	-3.004800	2.845100	-8.547800	29.448368	0.000224	20.760108
2262.601180	-2.976400	2.842700	-8.459900	29.446117	0.000223	20.766374
2263.601811	-2.992900	2.841000	-8.501700	29.479639	0.000223	20.784990
2264.607066	-2.977200	2.837700	-8.447000	29.518186	0.000222	20.751300
2265.603339	-2.992700	2.836400	-8.487900	29.520688	0.000222	20.770892
2266.605230	-2.984700	2.835300	-8.461700	29.519920	0.000225	20.781497
2267.605958	-2.977700	2.832200	-8.432400	29.484320	0.000225	20.748931
2268.603334	-2.980000	2.829500	-8.430900	29.458275	0.000224	20.769620
2269.603330	-3.020000	2.826800	-8.535400	29.457012	0.000223	20.737052
2270.606730	-2.978300	2.825900	-8.415400	29.523015	0.000221	20.773712
2271.603327	-2.995600	2.822600	-8.454700	29.527721	0.000225	20.754273
2272.611695	-3.021500	2.819900	-8.519600	29.581466	0.000224	20.765777
2273.608727	-3.004200	2.819500	-8.469000	29.645358	0.000224	20.763806
2274.608120	-2.988000	2.816400	-8.414100	29.664368	0.000222	20.769221
2275.609212	-2.999400	2.812600	-8.435500	29.661027	0.000222	20.768223
2276.609263	-3.012400	2.812200	-8.470100	29.588151	0.000222	20.761611
2277.609816	-2.983800	2.808200	-8.378300	29.517274	0.000222	20.752751
2278.608858	-3.016500	2.804800	-8.459000	29.520195	0.000224	20.742893
2279.609781	-2.957200	2.806300	-8.297000	29.489891	0.000221	20.741269
2280.606367	-2.988200	2.801600	-8.370600	29.469762	0.000222	20.753697
2281.606550	-2.999300	2.802100	-8.402800	29.433715	0.000221	20.751977
2282.608537	-2.982400	2.796900	-8.339900	29.364313	0.000221	20.747459
2283.608774	-2.996400	2.794900	-8.373300	29.375456	0.000222	20.759164
2284.616358	-3.023000	2.791000	-8.435600	29.427349	0.000220	20.749827
2285.611047	-3.004700	2.789200	-8.379500	29.448941	0.000221	20.757366
2286.613323	-3.022900	2.783900	-8.414300	29.486744	0.000224	20.744262
2287.612256	-2.991500	2.784400	-8.328600	29.505634	0.000221	20.746233
2288.612603	-3.027700	2.780400	-8.416900	29.535564	0.000222	20.749850
2289.615542	-3.006000	2.779100	-8.352800	29.550270	0.000223	20.755667
2290.611295	-2.994200	2.776600	-8.312800	29.576806	0.000221	20.771985
2291.613206	-3.018300	2.773200	-8.369400	29.588986	0.000221	20.758185
2292.614026	-3.016600	2.770800	-8.357400	29.626960	0.000220	20.744784
2293.612902	-2.998300	2.767300	-8.296600	29.610077	0.000220	20.746256
2294.612762	-3.007000	2.762700	-8.304800	29.644410	0.000223	20.751470
2295.613201	-3.006600	2.760700	-8.299500	29.668743	0.000222	20.756087
2296.617168	-3.018500	2.757400	-8.322100	29.689065	0.000220	20.750971
2297.617383	-3.010200	2.755500	-8.293300	29.723916	0.000221	20.751969
2298.613839	-2.991300	2.752600	-8.232700	29.735179	0.000219	20.737245
2299.617610	-3.029500	2.748700	-8.325100	29.752875	0.000222	20.731853
2300.615206	-3.016400	2.745500	-8.280400	29.769037	0.000220	20.742459
2301.615281	-3.000100	2.743100	-8.227900	29.807003	0.000221	20.747548
2302.616868	-2.996500	2.740600	-8.210400	29.855339	0.000221	20.737491
2303.618378	-2.993300	2.737000	-8.191000	29.844201	0.000220	20.749495
2304.616248	-3.010100	2.733100	-8.225700	29.857491	0.000222	20.723065
2305.615285	-3.018300	2.729600	-8.237000	29.824969	0.000218	20.730575
2306.618604	-2.966600	2.728200	-8.092600	29.865111	0.000220	20.726956
2307.617180	-2.998800	2.724800	-8.169700	29.904710	0.000218	20.746973
2308.616004	-2.987900	2.720600	-8.127900	29.921710	0.000219	20.752736
2309.622941	-2.998300	2.717700	-8.146800	29.948190	0.000219	20.750042
2310.618526	-3.009800	2.713500	-8.166300	29.894735	0.000221	20.754458
2311.618346	-2.976400	2.712600	-8.072900	29.823435	0.000220	20.730925
2312.619964	-2.997700	2.707400	-8.114800	29.754873	0.000220	20.753783
2313.619107	-3.004100	2.703000	-8.118800	29.730544	0.000220	20.743952
2314.617997	-3.000100	2.699200	-8.096900	29.717797	0.000222	20.736790
2315.619020	-2.971200	2.697400	-8.013600	29.748142	0.000220	20.743202
2316.621634	-2.999000	2.693000	-8.075000	29.749331	0.000219	20.737763
2317.622490	-3.025500	2.687100	-8.128000	29.733019	0.000219	20.732222
2318.623690	-2.995800	2.684300	-8.040300	29.741558	0.000221	20.743677
2319.624662	-3.000500	2.680800	-8.041600	29.753415	0.000220	20.736665
2320.624275	-3.018500	2.677400	-8.080800	29.791829	0.000222	20.748845
2321.625348	-3.006300	2.673700	-8.037500	29.804403	0.000221	20.732598
2322.626944	-2.993900	2.669700	-7.992300	29.838507	0.000218	20.763194
2323.627052	-3.014900	2.665800	-8.034800	29.890431	0.000219	20.752963
2324.627063	-2.980400	2.663100	-7.935400	29.965885	0.000218	20.740858
2325.630883	-3.024100	2.656500	-8.032600	29.961828	0.000220	20.747673
2326.626451	-2.980400	2.655500	-7.913100	29.955565	0.000220	20.751789
2327.626595	-3.018400	2.650300	-7.998200	29.964745	0.000222	20.759150
2328.629227	-3.006100	2.644800	-7.949100	29.982142	0.000220	20.734493
2329.626091	-2.992700	2.640700	-7.902100	29.966998	0.000220	20.735342
2330.627567	-2.993000	2.637300	-7.892300	29.963559	0.000219	20.764118
2331.627483	-2.989900	2.633200	-7.872500	29.893029	0.000221	20.745151
2332.627565	-3.036500	2.628500	-7.979900	29.911020	0.000219	20.738162
2333.631501	-2.999400	2.623500	-7.867300	29.937647	0.000219	20.756953
2334.630383	-3.011700	2.617300	-7.881500	29.942745	0.000220	20.758301
2335.629672	-3.012400	2.614100	-7.873100	29.963037	0.000221	20.743202
2336.628387	-2.999100	2.608500	-7.821900	29.933489	0.000219	20.748493
2337.629902	-3.006600	2.602800	-7.824400	29.883128	0.000219	20.729476
2338.632571	-3.006100	2.597200	-7.806200	29.801132	0.000220	20.751586
2339.629504	-2.991100	2.593000	-7.755200	29.750740	0.000218	20.769530
2340.632748	-3.013700	2.587500	-7.797000	29.735368	0.000220	20.762567
2341.634267	-2.998700	2.581900	-7.741100	29.670146	0.000219	20.736638
2342.632669	-3.019200	2.574800	-7.772400	29.663585	0.000219	20.765112
2343.633677	-2.994500	2.570500	-7.696200	29.673239	0.000220	20.749240
2344.632183	-2.976000	2.565100	-7.631300	29.676357	0.000219	20.765186
2345.634464	-2.990900	2.560500	-7.656500	29.633385	0.000220	20.742252
2346.632544	-3.010400	2.553700	-7.685700	29.648189	0.000221	20.732520
2347.630563	-3.000900	2.546600	-7.640600	29.718857	0.000219	20.747342
2348.635249	-2.996100	2.542500	-7.616300	29.727819	0.000220	20.755430
2349.632500	-3.005500	2.533400	-7.614000	29.719822	0.000221	20.748789
2350.630775	-2.966100	2.529100	-7.500600	29.693387	0.000220	20.745845
2351.635411	-3.025400	2.520700	-7.625400	29.644103	0.000221	20.754953
2352.634932	-2.991800	2.516100	-7.526400	29.602267	0.000219	20.738382
2353.634107	-2.991800	2.509100	-7.506200	29.575285	0.000222	20.763339
2354.635949	-2.986500	2.503000	-7.474100	29.541022	0.000220	20.773846
2355.636117	-3.021500	2.495300	-7.538800	29.589963	0.000221	20.742573
