LabVIEW Measurement	
Writer_Version	2
Reader_Version	2
Separator	Tab
Decimal_Separator	.
Multi_Headings	No
X_Columns	One
Time_Pref	Absolute
Operator	admin
Description	Clolumns are: time, Current, Voltage, Power, Battery Temp, and Chamber Temp
Date	2024/08/16
Time	13:06:06.104549407958984375
***End_of_Header***	
	
Channels	6						
Samples	1	1	1	1	1	1	
Date	2024/08/24	2024/08/24	2024/08/24	2024/08/24	2024/08/24	2024/08/24	
Time	17:22:27.5245137214660644531	17:22:27.530681610107421875	17:22:27.5374121665954589844	17:22:27.5083069801330566406	17:22:27.5083069801330566406	17:22:27.5083069801330566406	
X_Dimension	Time	Time	Time	Time	Time	Time	
X0	0.0000000000000000E+0	0.0000000000000000E+0	0.0000000000000000E+0	0.0000000000000000E+0	0.0000000000000000E+0	0.0000000000000000E+0	
Delta_X	1.000000	1.000000	1.000000	1.000000	1.000000	1.000000	
***End_of_Header***							
X_Value	Untitled	Untitled 1	Untitled 2	Untitled 3	Untitled 4	Untitled 5	Comment
0.000000	0.019571	4.109900	0.080354	20.996780	0.000970	20.765884
1.002349	-3.018600	3.951700	-11.927000	20.998127	0.000969	20.749687
2.006862	-2.999400	3.945100	-11.831000	21.009580	0.000969	20.772522
3.003996	-3.008000	3.940700	-11.851000	21.005689	0.000967	20.797555
4.003930	-3.004400	3.936700	-11.827000	21.018617	0.000966	20.786302
5.004070	-2.995500	3.931400	-11.775000	21.018167	0.000967	20.775896
6.005727	-2.997200	3.930300	-11.779000	21.010758	0.000965	20.774175
7.006070	-3.020100	3.927300	-11.859000	21.006321	0.000964	20.800083
8.002629	-3.033800	3.924300	-11.905000	21.006097	0.000966	20.778522
9.002617	-3.000400	3.922400	-11.768000	21.023138	0.000962	20.792722
10.008062	-3.006600	3.919900	-11.784000	21.034468	0.000963	20.771336
11.008437	-3.008100	3.918800	-11.787000	21.023841	0.000961	20.773510
12.004888	-2.997200	3.917700	-11.739000	21.042006	0.000962	20.784092
13.006253	-2.987700	3.917300	-11.703000	21.042631	0.000961	20.775708
14.009021	-3.009500	3.914400	-11.779000	21.061021	0.000960	20.774662
15.013156	-3.012900	3.912000	-11.786000	21.020453	0.000960	20.791458
16.011288	-3.017800	3.911900	-11.804000	21.049395	0.000957	20.775836
17.008514	-2.998000	3.910300	-11.723000	21.043511	0.000958	20.804564
18.014571	-3.002800	3.909300	-11.737000	21.044236	0.000956	20.792486
19.008746	-2.988600	3.909800	-11.684000	21.055464	0.000956	20.784751
20.014858	-3.002900	3.907500	-11.732000	21.059133	0.000955	20.784628
21.028015	-2.993300	3.906700	-11.693000	21.072882	0.000955	20.776569
22.011690	-3.012200	3.905300	-11.763000	21.060607	0.000957	20.792266
23.011134	-2.994600	3.907000	-11.699000	21.066823	0.000955	20.794216
24.011453	-3.001700	3.903900	-11.717000	21.077326	0.000953	20.798084
25.013625	-3.013700	3.904600	-11.767000	21.092149	0.000952	20.791099
26.012107	-3.000300	3.902600	-11.707000	21.108767	0.000953	20.793496
27.011472	-3.000300	3.902200	-11.707000	21.102331	0.000954	20.806025
28.011294	-2.992300	3.902500	-11.677000	21.104827	0.000952	20.791926
29.012520	-3.022000	3.899000	-11.782000	21.117201	0.000953	20.776329
30.017647	-2.993800	3.900000	-11.675000	21.117004	0.000951	20.761433
31.016232	-2.983700	3.899700	-11.635000	21.122618	0.000950	20.790282
32.019293	-2.992200	3.900100	-11.669000	21.140407	0.000948	20.786265
33.014558	-2.998600	3.897900	-11.688000	21.135296	0.000948	20.799644
34.015454	-3.000100	3.897600	-11.692000	21.128638	0.000950	20.793459
35.014617	-2.990000	3.897100	-11.652000	21.154632	0.000951	20.784848
36.015321	-2.980400	3.897300	-11.614000	21.159749	0.000947	20.811777
37.017626	-2.978300	3.897800	-11.608000	21.142312	0.000947	20.774894
38.021036	-3.005400	3.895700	-11.706000	21.154487	0.000947	20.814574
39.012861	-2.997700	3.894700	-11.673000	21.165266	0.000945	20.792166
40.019342	-3.000100	3.895100	-11.685000	21.187844	0.000946	20.795311
41.023021	-3.017100	3.894800	-11.751000	21.187795	0.000947	20.788149
42.019143	-3.009000	3.894400	-11.717000	21.174524	0.000946	20.801901
43.017958	-3.015300	3.893600	-11.739000	21.187026	0.000943	20.796389
44.015874	-3.018700	3.892800	-11.750000	21.188075	0.000945	20.802180
45.020362	-2.994800	3.892400	-11.655000	21.215794	0.000943	20.800985
46.027328	-3.004800	3.891500	-11.692000	21.222854	0.000944	20.795245
47.022006	-3.020400	3.890700	-11.750000	21.217143	0.000945	20.819404
48.025653	-2.994700	3.891900	-11.655000	21.225426	0.000943	20.784068
49.025248	-3.001600	3.890900	-11.678000	21.229544	0.000943	20.795300
50.024578	-3.010600	3.889600	-11.709000	21.235083	0.000944	20.807005
51.028609	-3.005400	3.891100	-11.693000	21.254168	0.000943	20.779630
52.027450	-2.986200	3.890200	-11.616000	21.264073	0.000943	20.803290
53.026565	-2.982300	3.890800	-11.602000	21.259137	0.000943	20.787446
54.024205	-2.993500	3.889400	-11.641000	21.255569	0.000941	20.792411
55.020934	-2.989500	3.889600	-11.627000	21.264427	0.000943	20.814075
56.022929	-3.000500	3.888200	-11.665000	21.277376	0.000942	20.806167
57.024126	-3.002200	3.887800	-11.670000	21.288577	0.000943	20.796984
58.022930	-3.009900	3.888100	-11.702000	21.297135	0.000941	20.776148
59.023674	-3.013300	3.887000	-11.712000	21.303046	0.000941	20.796761
60.030175	-3.007600	3.887500	-11.691000	21.307562	0.000941	20.819296
61.025804	-3.005700	3.885400	-11.677000	21.315720	0.000941	20.813707
62.023898	-3.010900	3.887200	-11.704000	21.308437	0.000940	20.812585
63.032733	-3.028400	3.885600	-11.766000	21.327620	0.000941	20.830828
64.023590	-3.016600	3.886800	-11.724000	21.336701	0.000941	20.807197
65.024865	-2.981000	3.887200	-11.587000	21.322760	0.000939	20.827389
66.025730	-2.993000	3.885500	-11.628000	21.332713	0.000940	20.819802
67.024441	-3.006400	3.885000	-11.679000	21.345486	0.000939	20.814564
68.023965	-3.017100	3.884600	-11.719000	21.342144	0.000940	20.812642
69.024931	-3.013800	3.883200	-11.701000	21.359729	0.000942	20.841141
70.024013	-3.012600	3.885000	-11.703000	21.374822	0.000939	20.825895
71.023081	-3.003800	3.883900	-11.666000	21.390937	0.000938	20.817363
72.024514	-3.018800	3.882500	-11.719000	21.382880	0.000938	20.833483
73.026070	-2.970500	3.883600	-11.534000	21.390740	0.000940	20.823330
74.029652	-2.996700	3.883200	-11.635000	21.398571	0.000941	20.826423
75.030650	-3.003200	3.882900	-11.660000	21.396377	0.000939	20.820909
76.033179	-2.965000	3.883600	-11.514000	21.410770	0.000939	20.845740
77.030225	-2.984800	3.884200	-11.592000	21.428130	0.000939	20.818540
78.027404	-3.009400	3.881400	-11.680000	21.440578	0.000940	20.825779
79.031384	-3.001200	3.882000	-11.649000	21.456615	0.000939	20.830920
80.024488	-2.997400	3.881800	-11.634000	21.438806	0.000937	20.811204
81.026393	-3.007300	3.881100	-11.671000	21.452052	0.000938	20.824458
82.030569	-2.978300	3.881100	-11.558000	21.444246	0.000938	20.828027
83.028188	-2.986200	3.881300	-11.589000	21.467618	0.000938	20.818221
84.029364	-3.009200	3.882500	-11.682000	21.449387	0.000938	20.848342
85.031450	-2.999100	3.881600	-11.640000	21.470138	0.000941	20.845398
86.027467	-3.007200	3.880400	-11.666000	21.482933	0.000939	20.838760
87.027297	-3.034300	3.879800	-11.772000	21.478345	0.000938	20.866885
88.029264	-3.008900	3.879000	-11.670000	21.499669	0.000938	20.829428
89.026385	-3.015000	3.879600	-11.696000	21.488447	0.000941	20.829105
90.026631	-3.000800	3.879300	-11.640000	21.491990	0.000938	20.840236
91.029556	-3.005300	3.878500	-11.655000	21.508248	0.000937	20.820943
92.035322	-2.985400	3.879600	-11.581000	21.511118	0.000937	20.839936
93.034194	-2.979900	3.880500	-11.563000	21.516031	0.000940	20.845799
94.040608	-2.997700	3.878200	-11.625000	21.542717	0.000938	20.808493
95.033648	-3.009200	3.878400	-11.670000	21.542568	0.000937	20.848172
96.031024	-2.998400	3.878300	-11.627000	21.549076	0.000936	20.842356
97.035665	-2.968600	3.878800	-11.514000	21.555910	0.000940	20.845876
98.032246	-2.999400	3.877500	-11.629000	21.569277	0.000939	20.854984
99.041930	-2.992800	3.878100	-11.604000	21.582869	0.000936	20.865740
100.031973	-2.985100	3.877100	-11.573000	21.567283	0.000942	20.846824
101.037766	-2.991500	3.877000	-11.597000	21.607084	0.000938	20.844454
102.031318	-2.994800	3.876700	-11.609000	21.580027	0.000940	20.870481
103.033835	-3.004500	3.876100	-11.644000	21.600850	0.000940	20.873301
104.034234	-2.991600	3.877000	-11.598000	21.597680	0.000941	20.874396
105.033547	-3.031100	3.874500	-11.742000	21.621996	0.000940	20.857479
106.039482	-3.017000	3.875100	-11.690000	21.628454	0.000941	20.870104
107.030325	-3.002800	3.877500	-11.642000	21.637133	0.000940	20.882582
108.032297	-3.011600	3.874500	-11.668000	21.652070	0.000940	20.871452
109.034922	-2.977300	3.876200	-11.540000	21.640773	0.000940	20.863467
110.034919	-3.004700	3.874600	-11.642000	21.663166	0.000942	20.860272
111.036832	-2.975300	3.875600	-11.528000	21.649074	0.000940	20.858972
112.038652	-2.987200	3.874900	-11.574000	21.642118	0.000940	20.867183
113.035911	-2.974100	3.874600	-11.522000	21.655283	0.000941	20.864711
114.031961	-2.982600	3.873500	-11.552000	21.670070	0.000939	20.858647
115.036541	-3.008600	3.874600	-11.656000	21.674134	0.000941	20.866506
116.037278	-2.996900	3.874200	-11.610000	21.671939	0.000941	20.876163
117.035043	-3.002800	3.874100	-11.631000	21.686750	0.000939	20.869649
118.040257	-3.026000	3.872400	-11.717000	21.686225	0.000939	20.868175
119.038974	-3.001800	3.873100	-11.624000	21.698368	0.000938	20.867525
120.036840	-3.011000	3.872400	-11.659000	21.702433	0.000939	20.878705
121.039978	-3.009000	3.872700	-11.651000	21.699564	0.000939	20.881523
122.041558	-3.016500	3.873300	-11.682000	21.731607	0.000939	20.852902
123.037376	-3.007000	3.872400	-11.643000	21.724252	0.000939	20.873989
124.041135	-2.998400	3.871600	-11.607000	21.727962	0.000941	20.859211
125.047909	-2.984800	3.874000	-11.562000	21.753770	0.000939	20.852799
126.042173	-3.002400	3.872600	-11.626000	21.708961	0.000940	20.874333
127.039742	-2.985000	3.872200	-11.557000	21.737215	0.000940	20.869894
128.046518	-3.002300	3.871400	-11.622000	21.752550	0.000940	20.848258
129.040166	-2.998900	3.872500	-11.612000	21.744347	0.000941	20.865652
130.038737	-2.984300	3.871200	-11.551000	21.755967	0.000939	20.859264
131.042497	-2.984300	3.871700	-11.552000	21.767313	0.000940	20.873937
132.039157	-3.002700	3.870900	-11.621000	21.787036	0.000943	20.864755
133.038977	-2.993900	3.870800	-11.588000	21.777512	0.000943	20.859964
134.039557	-2.993100	3.871800	-11.589000	21.757664	0.000943	20.859540
135.044203	-3.008300	3.870100	-11.641000	21.784171	0.000943	20.863310
136.043102	-3.016600	3.869400	-11.671000	21.793869	0.000943	20.852629
137.048474	-3.001200	3.869300	-11.611000	21.810001	0.000945	20.865455
138.044775	-3.019400	3.868400	-11.678000	21.817407	0.000944	20.813126
139.043903	-2.988500	3.871100	-11.567000	21.809728	0.000944	20.850009
140.050421	-3.025200	3.869600	-11.705000	21.812049	0.000943	20.845694
141.046302	-3.025400	3.870000	-11.708000	21.826437	0.000946	20.847293
142.048635	-2.987100	3.870400	-11.558000	21.828781	0.000942	20.854380
143.041657	-2.994900	3.869100	-11.586000	21.834889	0.000942	20.833942
144.043892	-3.015800	3.869200	-11.667000	21.860996	0.000943	20.866235
145.045119	-3.003400	3.868600	-11.617000	21.861993	0.000946	20.863914
146.052582	-3.010600	3.867400	-11.641000	21.863116	0.000945	20.858400
147.047994	-2.993200	3.868100	-11.577000	21.891961	0.000946	20.847918
148.051784	-3.017700	3.868700	-11.674000	21.869576	0.000944	20.872926
149.046293	-3.001000	3.868400	-11.608000	21.905329	0.000945	20.830954
150.043922	-2.996900	3.866800	-11.588000	21.868482	0.000945	20.848598
151.046443	-3.015500	3.866400	-11.659000	21.904183	0.000946	20.839764
152.049923	-3.000500	3.866300	-11.599000	21.910269	0.000948	20.840165
153.050677	-2.988800	3.866900	-11.555000	21.908575	0.000947	20.849375
154.045200	-3.008600	3.866900	-11.632000	21.907079	0.000948	20.849774
155.044848	-3.016400	3.866300	-11.662000	21.921339	0.000949	20.846031
156.047583	-2.996700	3.867200	-11.588000	21.926451	0.000951	20.815112
157.050330	-2.991900	3.867000	-11.569000	21.922636	0.000948	20.845907
158.047602	-3.003700	3.866700	-11.613000	21.932584	0.000950	20.852544
159.047026	-3.013700	3.866500	-11.651000	21.923309	0.000951	20.860329
160.052084	-2.994900	3.866000	-11.577000	21.933382	0.000948	20.843387
161.046710	-3.016100	3.865400	-11.658000	21.921412	0.000952	20.836621
162.049688	-2.991300	3.865400	-11.562000	21.952576	0.000950	20.836521
163.053557	-3.012000	3.864900	-11.640000	21.963843	0.000953	20.827885
164.056589	-3.007200	3.863700	-11.617000	21.955464	0.000953	20.838464
165.054568	-2.998400	3.865600	-11.589000	21.968104	0.000952	20.837366
166.055550	-3.020200	3.864400	-11.671000	21.961771	0.000951	20.835294
167.054257	-3.019400	3.864600	-11.667000	21.993080	0.000952	20.847195
168.048942	-3.006600	3.863800	-11.616000	21.988369	0.000953	20.844849
169.052537	-3.015000	3.863000	-11.647000	21.989064	0.000952	20.836537
170.049803	-2.990900	3.862700	-11.553000	22.006837	0.000953	20.845320
171.059818	-2.978400	3.864400	-11.508000	21.992326	0.000956	20.837906
172.056081	-2.990300	3.863000	-11.550000	21.975396	0.000952	20.843718
173.053959	-2.991800	3.864700	-11.560000	21.984371	0.000956	20.827572
174.058529	-3.002900	3.861800	-11.596000	22.033154	0.000954	20.839422
175.054641	-3.015800	3.862900	-11.649000	22.016748	0.000956	20.865671
176.055015	-3.000300	3.862200	-11.587000	22.008272	0.000953	20.833006
177.053493	-3.001600	3.861800	-11.590000	22.000642	0.000956	20.830109
178.053271	-2.999800	3.862100	-11.585000	21.999891	0.000955	20.817978
179.053940	-2.986500	3.862400	-11.534000	21.999517	0.000955	20.846052
180.058351	-2.951400	3.863700	-11.402000	22.018509	0.000956	20.829977
181.059691	-3.006600	3.860700	-11.606000	21.989916	0.000957	20.838338
182.057134	-2.995800	3.862300	-11.570000	21.980689	0.000957	20.833369
183.060944	-3.008400	3.860200	-11.612000	22.002378	0.000955	20.838485
184.060307	-3.001600	3.860700	-11.586000	22.003771	0.000957	20.842250
185.056512	-2.985300	3.861700	-11.526000	21.992554	0.000957	20.840030
186.055388	-2.984700	3.860800	-11.523000	22.017058	0.000957	20.832792
187.058823	-2.972900	3.862000	-11.480000	22.033135	0.000956	20.833714
188.067657	-2.997200	3.858800	-11.566000	22.010374	0.000959	20.833687
189.058056	-3.014900	3.860000	-11.636000	22.017052	0.000959	20.832312
190.059999	-2.969200	3.861000	-11.464000	22.029515	0.000960	20.844313
191.058735	-2.996800	3.860000	-11.566000	22.040534	0.000959	20.842543
192.064241	-3.023000	3.859500	-11.667000	22.045840	0.000960	20.836001
193.061816	-3.011900	3.859400	-11.623000	22.050725	0.000960	20.829512
194.055729	-3.019200	3.858500	-11.648000	22.078492	0.000959	20.831231
195.056532	-2.991700	3.858900	-11.543000	22.051318	0.000961	20.831527
196.059384	-3.001800	3.858700	-11.581000	22.079386	0.000961	20.840660
197.058566	-3.011000	3.857800	-11.614000	22.090877	0.000961	20.833198
198.065502	-3.020900	3.857800	-11.651000	22.076115	0.000962	20.847342
199.060332	-3.037600	3.856700	-11.714000	22.104783	0.000963	20.837636
200.062329	-2.991300	3.859800	-11.543000	22.126242	0.000964	20.827352
201.058933	-3.002700	3.857300	-11.580000	22.115397	0.000964	20.828349
202.060845	-3.010300	3.857400	-11.611000	22.100637	0.000962	20.837279
203.061822	-3.000800	3.857700	-11.575000	22.109409	0.000964	20.821405
204.057960	-2.986400	3.859800	-11.526000	22.117634	0.000963	20.823002
205.061580	-3.011400	3.856100	-11.610000	22.105867	0.000968	20.839669
206.061184	-2.989900	3.857800	-11.534000	22.138519	0.000964	20.821151
207.062965	-3.015400	3.857000	-11.629000	22.122090	0.000964	20.841213
208.064437	-3.000800	3.856500	-11.571000	22.163840	0.000963	20.834648
209.065815	-3.003700	3.855400	-11.579000	22.172015	0.000966	20.847574
210.063362	-3.000700	3.856200	-11.571000	22.162390	0.000965	20.841731
211.060524	-3.013600	3.854200	-11.614000	22.155388	0.000965	20.830927
212.062320	-2.993900	3.857000	-11.545000	22.176298	0.000965	20.819147
213.063711	-2.991700	3.855100	-11.532000	22.188136	0.000965	20.826257
214.066046	-3.018500	3.855200	-11.635000	22.200623	0.000967	20.842078
215.062969	-3.017100	3.853100	-11.624000	22.218716	0.000967	20.821313
216.064445	-2.999600	3.853900	-11.559000	22.205856	0.000969	20.830722
217.066830	-3.018900	3.853200	-11.632000	22.208222	0.000968	20.843522
218.064438	-3.009000	3.853800	-11.595000	22.233445	0.000969	20.820413
219.063169	-3.008300	3.854400	-11.594000	22.242891	0.000970	20.822759
220.072396	-3.003000	3.853300	-11.570000	22.246156	0.000969	20.833615
221.065749	-3.027400	3.852200	-11.661000	22.254955	0.000968	20.826303
222.062943	-3.012600	3.853700	-11.609000	22.286756	0.000969	20.837756
223.066616	-2.991600	3.854100	-11.529000	22.282793	0.000968	20.843745
224.062706	-3.000400	3.853300	-11.561000	22.283166	0.000970	20.835110
225.065344	-3.014800	3.851900	-11.612000	22.281073	0.000970	20.830170
226.066865	-3.004600	3.853500	-11.577000	22.299068	0.000971	20.820687
227.068395	-3.027500	3.851800	-11.661000	22.287777	0.000970	20.837830
228.063280	-2.991100	3.853100	-11.524000	22.270082	0.000969	20.837182
229.068695	-3.008400	3.853100	-11.591000	22.293311	0.000973	20.808284
230.067129	-3.000500	3.850600	-11.553000	22.275591	0.000972	20.815198
231.066257	-3.007100	3.851200	-11.581000	22.272152	0.000972	20.809858
232.065665	-3.024900	3.850900	-11.648000	22.306820	0.000972	20.815173
233.069695	-2.979800	3.852800	-11.479000	22.302707	0.000974	20.845193
234.069263	-2.984800	3.852800	-11.498000	22.335930	0.000973	20.821088
235.068130	-3.017500	3.850900	-11.619000	22.316567	0.000972	20.826355
236.072047	-3.001100	3.852400	-11.561000	22.336903	0.000972	20.829649
237.070006	-2.988800	3.852100	-11.512000	22.342085	0.000973	20.838157
238.069990	-2.992300	3.852400	-11.526000	22.330824	0.000974	20.818820
239.070769	-3.004400	3.851300	-11.570000	22.356220	0.000975	20.812956
240.079037	-3.013700	3.848700	-11.598000	22.338451	0.000975	20.814130
241.079033	-2.985400	3.850900	-11.496000	22.347948	0.000976	20.821269
242.068728	-2.993400	3.850800	-11.526000	22.343961	0.000976	20.798311
243.071063	-3.004300	3.849400	-11.563000	22.348001	0.000976	20.819900
244.070554	-2.995200	3.850100	-11.531000	22.358669	0.000976	20.812564
245.074865	-3.005300	3.848500	-11.565000	22.345288	0.000977	20.815286
246.074630	-3.018300	3.848600	-11.615000	22.340154	0.000977	20.836697
247.080913	-3.013000	3.849100	-11.596000	22.343646	0.000979	20.825969
248.077789	-3.005300	3.847900	-11.561000	22.342000	0.000979	20.803459
249.077767	-2.985100	3.849600	-11.490000	22.345618	0.000978	20.816564
250.072029	-2.990800	3.848100	-11.507000	22.335151	0.000980	20.805135
251.079888	-2.979100	3.848700	-11.464000	22.340535	0.000981	20.806259
252.071161	-2.985500	3.849200	-11.491000	22.355941	0.000982	20.807461
253.074738	-3.003400	3.847900	-11.556000	22.339316	0.000980	20.800772
254.075754	-2.993600	3.848900	-11.522000	22.353250	0.000980	20.800974
255.070580	-2.998900	3.847400	-11.537000	22.371918	0.000984	20.807813
256.077044	-3.010300	3.846800	-11.579000	22.384255	0.000983	20.799779
257.075491	-2.996600	3.847200	-11.527000	22.400405	0.000986	20.798882
258.076031	-3.013200	3.846400	-11.588000	22.418423	0.000985	20.810287
259.073804	-2.974300	3.846700	-11.440000	22.392732	0.000986	20.807319
260.076088	-3.018800	3.845100	-11.606000	22.435846	0.000986	20.808294
261.076729	-3.023300	3.844200	-11.620000	22.426178	0.000986	20.810940
262.075397	-2.994800	3.844800	-11.513000	22.458324	0.000986	20.796666
263.074399	-2.988400	3.845700	-11.491000	22.449830	0.000987	20.814238
264.077033	-3.018800	3.845200	-11.606000	22.477889	0.000988	20.807724
265.079589	-3.017900	3.844400	-11.600000	22.462041	0.000988	20.792328
266.075909	-2.995300	3.844500	-11.514000	22.474227	0.000987	20.782720
267.080822	-2.996200	3.845100	-11.519000	22.490872	0.000988	20.804606
268.084404	-2.999200	3.843600	-11.527000	22.496905	0.000989	20.786465
269.086654	-3.004500	3.845600	-11.553000	22.510759	0.000986	20.797021
270.081329	-2.998000	3.845100	-11.526000	22.498400	0.000989	20.804558
271.080959	-2.994800	3.845200	-11.514000	22.470319	0.000990	20.791608
272.076014	-3.003700	3.844000	-11.545000	22.514798	0.000991	20.797748
273.081577	-2.992100	3.843400	-11.499000	22.517542	0.000990	20.787693
274.079678	-2.987500	3.843900	-11.483000	22.487516	0.000991	20.791761
275.079988	-2.999600	3.842500	-11.525000	22.506353	0.000990	20.784548
276.080415	-2.977900	3.844900	-11.448000	22.509294	0.000992	20.778959
277.083828	-2.999000	3.843300	-11.524000	22.524420	0.000992	20.773718
278.077928	-2.979100	3.844200	-11.451000	22.519063	0.000993	20.797277
279.083064	-3.005200	3.842600	-11.546000	22.519861	0.000994	20.792861
280.079432	-3.011000	3.842700	-11.569000	22.526963	0.000994	20.768204
281.082935	-3.000000	3.841500	-11.524000	22.524097	0.000994	20.782878
282.078971	-2.999700	3.842400	-11.525000	22.552253	0.000994	20.796853
283.080418	-3.018600	3.840900	-11.593000	22.544430	0.000993	20.785698
284.088611	-3.008300	3.840700	-11.553000	22.557736	0.000995	20.776739
285.081138	-2.985600	3.840800	-11.466000	22.570295	0.000995	20.770351
286.084265	-3.015000	3.841000	-11.579000	22.564738	0.000995	20.774269
287.084751	-2.990400	3.841000	-11.485000	22.559580	0.000996	20.780483
288.084197	-2.988900	3.840500	-11.477000	22.565784	0.000997	20.794283
289.087939	-2.996800	3.840600	-11.508000	22.584024	0.000996	20.769877
290.087695	-2.999100	3.839800	-11.513000	22.589779	0.000998	20.765210
291.087024	-2.976900	3.841500	-11.435000	22.612203	0.000999	20.782454
292.087594	-2.995600	3.838600	-11.498000	22.600717	0.001000	20.756725
293.084397	-3.012500	3.838100	-11.560000	22.594315	0.000999	20.763114
294.084283	-3.007300	3.839300	-11.544000	22.629696	0.000998	20.789543
295.090275	-3.016300	3.838800	-11.578000	22.616192	0.001000	20.776967
296.091989	-3.033000	3.837500	-11.636000	22.613699	0.001000	20.787272
297.088122	-3.017100	3.837900	-11.579000	22.624962	0.000999	20.797604
298.087217	-3.004300	3.838200	-11.531000	22.624190	0.001001	20.772649
299.087113	-2.984900	3.838700	-11.457000	22.625063	0.001000	20.768307
300.089838	-3.001400	3.838400	-11.520000	22.624990	0.001001	20.760174
301.093715	-3.009200	3.836600	-11.544000	22.617192	0.001001	20.760424
302.089257	-2.976000	3.839100	-11.424000	22.601471	0.001003	20.768860
303.088902	-2.991200	3.837500	-11.477000	22.605607	0.001004	20.778219
304.090156	-3.014900	3.836300	-11.565000	22.627611	0.001004	20.776549
305.088480	-3.000300	3.837300	-11.513000	22.636183	0.001005	20.771859
306.090406	-2.985200	3.837700	-11.454000	22.642912	0.001003	20.763426
307.090149	-2.982500	3.837100	-11.443000	22.650437	0.001004	20.767643
308.089009	-3.010600	3.836800	-11.549000	22.652979	0.001007	20.765923
309.089954	-2.999800	3.835200	-11.503000	22.659408	0.001006	20.767146
310.088964	-2.994500	3.834500	-11.482000	22.680338	0.001006	20.767722
311.089970	-2.998700	3.835100	-11.499000	22.677849	0.001006	20.772815
312.090573	-2.990700	3.834600	-11.466000	22.688463	0.001008	20.759739
313.089193	-3.016900	3.834800	-11.568000	22.692725	0.001006	20.751680
314.089885	-3.001300	3.834500	-11.507000	22.682414	0.001008	20.760793
315.095020	-3.001900	3.834400	-11.509000	22.687598	0.001009	20.753657
316.089245	-3.010600	3.834100	-11.542000	22.687425	0.001009	20.745422
317.090674	-2.993700	3.834500	-11.478000	22.709898	0.001011	20.754183
318.093905	-3.002200	3.833500	-11.506000	22.698614	0.001013	20.731499
319.089158	-2.989400	3.834500	-11.462000	22.695104	0.001010	20.748372
320.093830	-3.012000	3.832900	-11.543000	22.689551	0.001011	20.752768
321.094202	-3.001900	3.833100	-11.505000	22.698921	0.001012	20.742713
322.097836	-2.999600	3.833000	-11.497000	22.704029	0.001013	20.746407
323.100033	-2.979100	3.832100	-11.416000	22.692246	0.001015	20.741717
324.096632	-3.013500	3.832300	-11.547000	22.736769	0.001013	20.747434
325.098691	-3.013800	3.831400	-11.547000	22.736647	0.001012	20.739725
326.095152	-3.024900	3.830900	-11.586000	22.742752	0.001014	20.759118
327.096476	-2.997900	3.831300	-11.485000	22.728304	0.001015	20.748912
328.093341	-2.987900	3.833300	-11.452000	22.733837	0.001016	20.742600
329.095310	-2.987500	3.832500	-11.448000	22.762140	0.001016	20.756728
330.096598	-2.989800	3.831900	-11.455000	22.728336	0.001016	20.759850
331.097270	-3.022200	3.829900	-11.574000	22.720039	0.001017	20.743004
332.098118	-3.019600	3.830300	-11.564000	22.738727	0.001017	20.747025
333.100863	-3.003200	3.829800	-11.499000	22.726920	0.001017	20.746577
334.099229	-2.977300	3.830700	-11.404000	22.718976	0.001017	20.764225
335.098673	-2.983900	3.828500	-11.423000	22.758887	0.001018	20.756788
336.097326	-2.973900	3.830400	-11.389000	22.751741	0.001018	20.733981
337.098454	-2.988100	3.831200	-11.446000	22.766441	0.001020	20.759614
338.110036	-3.005400	3.829800	-11.509000	22.752962	0.001021	20.752750
339.097474	-3.000900	3.829000	-11.490000	22.779025	0.001019	20.743769
340.102616	-3.027300	3.828300	-11.588000	22.799405	0.001020	20.731942
341.101038	-3.014600	3.827800	-11.538000	22.786029	0.001021	20.753157
342.105624	-2.987300	3.829400	-11.438000	22.804390	0.001021	20.726030
343.098392	-3.003700	3.828400	-11.498000	22.813387	0.001023	20.739311
344.101346	-3.009400	3.828300	-11.518000	22.822704	0.001023	20.732523
345.102829	-3.010500	3.828400	-11.524000	22.821138	0.001024	20.753240
346.099703	-2.998800	3.828500	-11.480000	22.834417	0.001023	20.757060
347.103547	-3.007100	3.827800	-11.510000	22.827419	0.001025	20.714011
348.102468	-2.994800	3.827200	-11.460000	22.802461	0.001023	20.732159
349.102132	-3.000500	3.826800	-11.481000	22.792370	0.001023	20.735801
350.105843	-3.013100	3.824900	-11.523000	22.807395	0.001024	20.740421
351.102169	-2.984200	3.826600	-11.418000	22.813974	0.001026	20.740373
352.101486	-2.998800	3.825400	-11.471000	22.816665	0.001026	20.744017
353.102069	-3.012500	3.825600	-11.524000	22.835825	0.001026	20.748038
354.101596	-2.998600	3.825300	-11.469000	22.828752	0.001026	20.745220
355.100133	-3.003100	3.826900	-11.491000	22.831941	0.001027	20.725655
356.103451	-3.010500	3.824900	-11.514000	22.816473	0.001026	20.731022
357.101746	-3.014900	3.824800	-11.529000	22.839967	0.001029	20.719944
358.110360	-3.012500	3.823600	-11.516000	22.834339	0.001029	20.729005
359.107873	-2.986200	3.825200	-11.421000	22.848837	0.001029	20.731202
360.112355	-2.998600	3.823500	-11.465000	22.885905	0.001029	20.736569
361.110141	-2.998600	3.824600	-11.466000	22.882993	0.001028	20.736023
362.112260	-2.983200	3.823900	-11.406000	22.894005	0.001032	20.732355
363.109172	-2.992400	3.824500	-11.443000	22.915728	0.001032	20.734679
364.103920	-3.028300	3.822300	-11.573000	22.914112	0.001031	20.712196
365.105576	-2.986300	3.822700	-11.414000	22.910874	0.001033	20.726021
366.114363	-2.989600	3.822800	-11.428000	22.923230	0.001033	20.719909
367.105330	-3.018500	3.821300	-11.533000	22.930480	0.001035	20.752778
368.104662	-2.984100	3.823300	-11.407000	22.938478	0.001036	20.747515
369.106912	-3.011800	3.822200	-11.510000	22.943037	0.001035	20.730271
370.105812	-3.025100	3.820500	-11.557000	22.929786	0.001035	20.717468
371.104185	-3.005600	3.822300	-11.487000	22.943513	0.001039	20.739756
372.108639	-3.008800	3.820400	-11.494000	22.936538	0.001036	20.727552
373.105921	-3.013200	3.821300	-11.513000	22.919103	0.001037	20.721938
374.108018	-3.018200	3.819800	-11.527000	22.938210	0.001038	20.731124
375.108164	-3.028200	3.819300	-11.564000	22.936666	0.001038	20.717248
376.110742	-3.004100	3.821000	-11.477000	22.930489	0.001039	20.739036
377.107590	-2.990400	3.819900	-11.422000	22.940378	0.001039	20.729977
378.108709	-3.026300	3.819500	-11.559000	22.935269	0.001041	20.762318
379.111887	-3.008600	3.819900	-11.492000	22.945207	0.001041	20.745722
380.109023	-3.008000	3.819000	-11.486000	22.948870	0.001043	20.743227
381.114401	-3.002900	3.818400	-11.464000	22.965283	0.001042	20.739282
382.112113	-3.009700	3.817300	-11.487000	22.961848	0.001044	20.725883
383.113501	-3.000300	3.817900	-11.454000	22.946751	0.001045	20.732569
384.109233	-2.995300	3.818000	-11.434000	22.944383	0.001045	20.738257
385.116754	-2.959700	3.818800	-11.302000	22.909185	0.001046	20.739978
386.112441	-2.984000	3.818200	-11.393000	22.918500	0.001047	20.740301
387.115426	-2.992300	3.818800	-11.425000	22.919893	0.001045	20.735058
388.115677	-2.994800	3.816200	-11.428000	22.928587	0.001047	20.756098
389.113981	-2.998100	3.817700	-11.444000	22.954860	0.001047	20.736426
390.115720	-2.995900	3.816600	-11.433000	22.993218	0.001049	20.765850
391.114265	-3.005600	3.816000	-11.467000	23.007263	0.001048	20.754791
392.116193	-3.028700	3.815100	-11.553000	23.000385	0.001049	20.741735
393.113572	-2.989900	3.816400	-11.409000	23.024371	0.001050	20.737319
394.119621	-2.984000	3.817100	-11.388000	23.036745	0.001048	20.748769
395.114086	-3.010100	3.814700	-11.482000	23.054949	0.001051	20.753258
396.116163	-3.033600	3.813700	-11.568000	23.071309	0.001051	20.747840
397.119520	-3.010400	3.815000	-11.483000	23.096237	0.001053	20.738205
398.118530	-2.997800	3.815600	-11.436000	23.084403	0.001054	20.752900
399.116567	-2.983500	3.814700	-11.381000	23.120587	0.001054	20.751225
400.117166	-3.011200	3.814400	-11.483000	23.108979	0.001054	20.761878
401.117906	-3.001900	3.814000	-11.448000	23.139932	0.001055	20.758282
402.118737	-3.017400	3.813700	-11.506000	23.139182	0.001054	20.763694
403.119108	-3.011300	3.814300	-11.484000	23.136262	0.001057	20.779261
404.121750	-3.002900	3.814100	-11.452000	23.100823	0.001056	20.748490
405.122056	-3.016900	3.813200	-11.503000	23.107743	0.001059	20.756373
406.118213	-3.004600	3.812700	-11.454000	23.096755	0.001057	20.764803
407.118122	-3.022000	3.811600	-11.517000	23.113488	0.001058	20.735576
408.117910	-3.035200	3.811500	-11.568000	23.115726	0.001060	20.768166
409.114725	-3.012100	3.812200	-11.482000	23.125037	0.001058	20.763745
410.119738	-3.013900	3.812300	-11.487000	23.155565	0.001060	20.748816
411.116299	-3.025700	3.810700	-11.529000	23.169981	0.001059	20.764686
412.121315	-2.981500	3.812400	-11.365000	23.167485	0.001059	20.765504
413.115623	-3.017700	3.809100	-11.493000	23.165192	0.001062	20.753722
414.121910	-2.997800	3.811700	-11.425000	23.170116	0.001059	20.770985
415.123713	-3.007600	3.811300	-11.462000	23.135546	0.001061	20.770008
416.119848	-2.993200	3.811400	-11.407000	23.116662	0.001060	20.775268
417.118831	-2.990700	3.810400	-11.395000	23.144529	0.001061	20.795131
418.117825	-3.002800	3.809200	-11.437000	23.147711	0.001062	20.774138
419.120106	-3.004700	3.810000	-11.447000	23.137971	0.001063	20.788560
420.124595	-2.983700	3.809800	-11.366000	23.159009	0.001062	20.784985
421.122448	-3.009300	3.809200	-11.462000	23.164658	0.001064	20.778318
422.119009	-2.995000	3.809100	-11.407000	23.187963	0.001063	20.792663
423.124350	-3.009800	3.808600	-11.460000	23.184049	0.001064	20.785421
424.118301	-3.001000	3.808900	-11.430000	23.206856	0.001065	20.792630
425.123300	-3.009800	3.808900	-11.463000	23.211336	0.001063	20.769618
426.123195	-2.996700	3.807900	-11.409000	23.204008	0.001065	20.804949
427.121001	-2.987700	3.808100	-11.376000	23.202583	0.001066	20.785977
428.123187	-2.993900	3.807800	-11.399000	23.228355	0.001065	20.794734
429.122544	-2.978000	3.806700	-11.336000	23.243791	0.001065	20.792660
430.125202	-3.019200	3.806300	-11.492000	23.245878	0.001064	20.785743
431.125514	-3.018900	3.805000	-11.486000	23.254218	0.001064	20.814014
432.124930	-3.017300	3.804400	-11.478000	23.249481	0.001063	20.774180
433.130206	-3.015800	3.805200	-11.476000	23.271690	0.001064	20.788851
434.126010	-3.005000	3.806400	-11.437000	23.266083	0.001065	20.822113
435.127069	-3.004200	3.804200	-11.427000	23.280198	0.001065	20.797377
436.127688	-3.000800	3.803200	-11.410000	23.306988	0.001067	20.793881
437.123306	-3.004500	3.804800	-11.429000	23.277701	0.001065	20.782547
438.132123	-2.991000	3.805500	-11.380000	23.293235	0.001066	20.808072
439.130334	-3.003000	3.803000	-11.419000	23.322715	0.001066	20.808220
440.127309	-3.002900	3.803400	-11.420000	23.307746	0.001066	20.802701
441.129622	-2.971300	3.803700	-11.301000	23.287251	0.001066	20.812033
442.126918	-2.994100	3.803400	-11.387000	23.283462	0.001065	20.821037
443.127642	-2.994800	3.802300	-11.386000	23.291253	0.001065	20.819836
444.133530	-3.017400	3.802900	-11.474000	23.270583	0.001066	20.820932
445.123510	-2.981500	3.802600	-11.336000	23.254494	0.001068	20.831360
446.126143	-3.024500	3.800800	-11.495000	23.294084	0.001067	20.831682
447.130391	-2.999900	3.803300	-11.408000	23.284716	0.001067	20.812337
448.131609	-3.000000	3.801900	-11.404000	23.305258	0.001068	20.802579
449.136784	-3.015600	3.800800	-11.460000	23.303163	0.001069	20.829401
450.128081	-2.987500	3.801800	-11.356000	23.270890	0.001069	20.829300
451.127179	-3.015000	3.800700	-11.457000	23.283636	0.001069	20.816944
452.134581	-2.987300	3.800700	-11.353000	23.272876	0.001067	20.825126
453.129933	-3.016900	3.800500	-11.463000	23.271106	0.001067	20.825723
454.127600	-3.004800	3.800200	-11.418000	23.266372	0.001066	20.811022
455.133346	-3.002400	3.799100	-11.405000	23.250034	0.001068	20.820727
456.130719	-3.004400	3.799300	-11.413000	23.259894	0.001068	20.827289
457.130548	-2.994400	3.799100	-11.374000	23.262081	0.001068	20.833748
458.137077	-3.014400	3.797900	-11.447000	23.254012	0.001068	20.816179
459.131268	-3.014200	3.799700	-11.453000	23.259016	0.001069	20.826409
460.136473	-3.025000	3.798400	-11.489000	23.293377	0.001067	20.817697
461.139929	-3.009600	3.797400	-11.428000	23.308465	0.001067	20.839457
462.129829	-2.999400	3.798000	-11.391000	23.316034	0.001068	20.831395
463.128378	-2.993500	3.799400	-11.373000	23.342178	0.001069	20.841002
464.132819	-2.998400	3.798800	-11.389000	23.316978	0.001067	20.830919
465.130938	-2.992000	3.797900	-11.361000	23.322231	0.001068	20.848985
466.130234	-2.997000	3.797500	-11.380000	23.340855	0.001067	20.839202
467.130720	-2.992700	3.797000	-11.362000	23.317002	0.001069	20.833788
468.132902	-3.008600	3.796700	-11.422000	23.317498	0.001068	20.821957
469.132972	-2.998200	3.795800	-11.379000	23.333585	0.001068	20.824330
470.133438	-3.006000	3.795300	-11.407000	23.325192	0.001070	20.832039
471.135054	-3.005200	3.795000	-11.403000	23.347627	0.001069	20.834136
472.134813	-2.983900	3.795100	-11.323000	23.334480	0.001069	20.843244
473.133847	-2.983600	3.795100	-11.322000	23.343146	0.001069	20.845291
474.134851	-3.021500	3.792900	-11.459000	23.359780	0.001071	20.833514
475.140396	-2.994400	3.794100	-11.360000	23.359855	0.001072	20.843545
476.142148	-3.021100	3.793800	-11.459000	23.355149	0.001070	20.835984
477.143146	-2.990200	3.793600	-11.343000	23.362968	0.001072	20.838605
478.139524	-3.001300	3.793600	-11.385000	23.372479	0.001071	20.840077
479.140002	-3.006700	3.792300	-11.401000	23.372158	0.001074	20.840229
480.141574	-2.987200	3.793500	-11.331000	23.378108	0.001071	20.825805
481.146438	-3.013100	3.792500	-11.425000	23.409256	0.001073	20.860816
482.140350	-2.987300	3.792700	-11.329000	23.391752	0.001072	20.854178
483.143823	-3.010100	3.791100	-11.411000	23.394192	0.001073	20.850460
484.138223	-2.985100	3.790500	-11.314000	23.437689	0.001074	20.870348
485.139179	-2.978200	3.792700	-11.294000	23.421954	0.001073	20.847466
486.144253	-2.975300	3.791300	-11.278000	23.406120	0.001073	20.854828
487.140669	-3.000100	3.790800	-11.372000	23.396658	0.001075	20.856725
488.138300	-3.011900	3.789500	-11.413000	23.397007	0.001075	20.841902
489.153159	-3.005000	3.788700	-11.384000	23.416924	0.001074	20.855226
490.141293	-2.989500	3.790300	-11.329000	23.414509	0.001078	20.825780
491.141539	-2.988100	3.790800	-11.326000	23.433878	0.001078	20.855150
492.137601	-3.001900	3.788400	-11.372000	23.436817	0.001076	20.849561
493.140209	-2.990400	3.789500	-11.331000	23.466543	0.001076	20.849485
494.141176	-2.992500	3.788400	-11.335000	23.457007	0.001076	20.862685
495.145543	-3.003900	3.788700	-11.379000	23.468335	0.001079	20.849384
496.144006	-2.992700	3.788400	-11.336000	23.480110	0.001079	20.844592
497.144603	-2.966500	3.788400	-11.237000	23.479038	0.001076	20.862483
498.139942	-2.975300	3.787200	-11.267000	23.458821	0.001076	20.846013
499.140361	-2.979900	3.788400	-11.288000	23.456630	0.001075	20.868471
500.143778	-3.001400	3.787000	-11.364000	23.493130	0.001074	20.867599
501.146058	-3.007200	3.787200	-11.388000	23.505925	0.001076	20.863355
502.144049	-2.998100	3.785700	-11.349000	23.512572	0.001077	20.849630
503.148324	-2.998600	3.785800	-11.351000	23.517577	0.001076	20.832836
504.144338	-2.998400	3.786700	-11.353000	23.540131	0.001075	20.863978
505.145589	-2.991600	3.785100	-11.321000	23.542969	0.001077	20.861134
506.144512	-3.013800	3.786600	-11.411000	23.565747	0.001077	20.880173
507.153242	-3.012200	3.785200	-11.400000	23.566295	0.001078	20.888782
508.142653	-3.014300	3.784500	-11.405000	23.565797	0.001077	20.880697
509.145672	-3.009600	3.784700	-11.389000	23.539858	0.001076	20.871765
510.145975	-3.000200	3.784700	-11.354000	23.532414	0.001077	20.868570
511.145457	-3.009700	3.783700	-11.386000	23.520961	0.001080	20.859935
512.143878	-3.011400	3.784200	-11.395000	23.513568	0.001076	20.872912
513.140983	-3.004800	3.783300	-11.367000	23.483944	0.001079	20.867874
514.147416	-3.015400	3.782900	-11.406000	23.506300	0.001078	20.873688
515.143467	-2.988400	3.783400	-11.306000	23.502117	0.001081	20.873288
516.139737	-3.003000	3.781900	-11.356000	23.544040	0.001081	20.873113
517.142218	-2.999200	3.782200	-11.343000	23.557708	0.001083	20.867373
518.150540	-2.986000	3.783200	-11.296000	23.586610	0.001078	20.880699
519.144928	-3.012000	3.781300	-11.389000	23.581631	0.001081	20.854371
520.141269	-2.995200	3.781900	-11.326000	23.616334	0.001081	20.891054
521.142856	-2.984600	3.782200	-11.288000	23.595797	0.001078	20.859563
522.145085	-3.009500	3.780500	-11.377000	23.608465	0.001080	20.878900
523.151419	-3.002000	3.781200	-11.350000	23.598309	0.001081	20.888159
524.144642	-3.003200	3.780100	-11.351000	23.625592	0.001081	20.889430
525.143387	-2.989000	3.779700	-11.297000	23.630694	0.001080	20.868468
526.144118	-2.992400	3.780100	-11.311000	23.618894	0.001080	20.881768
527.147060	-3.004600	3.778000	-11.350000	23.616155	0.001083	20.874282
528.145051	-3.003300	3.779800	-11.350000	23.625863	0.001079	20.891599
529.145945	-2.997500	3.778300	-11.323000	23.656207	0.001080	20.874605
530.144752	-2.988400	3.779000	-11.293000	23.640674	0.001081	20.877525
531.153185	-2.991000	3.777600	-11.297000	23.647271	0.001081	20.873233
532.147199	-2.995600	3.777500	-11.315000	23.662954	0.001079	20.875679
533.144509	-3.001900	3.777200	-11.338000	23.654813	0.001082	20.869889
534.155753	-2.997100	3.778700	-11.324000	23.644432	0.001082	20.862326
535.150527	-3.008800	3.778100	-11.367000	23.643237	0.001081	20.886732
536.150082	-3.018300	3.776200	-11.397000	23.650581	0.001080	20.887456
537.151982	-3.018900	3.776200	-11.398000	23.664943	0.001079	20.888577
538.150202	-3.018800	3.776300	-11.399000	23.657225	0.001082	20.877048
539.152126	-3.011700	3.775500	-11.370000	23.636590	0.001081	20.893817
540.156173	-3.014900	3.775000	-11.381000	23.681668	0.001082	20.883061
541.155220	-3.015900	3.775400	-11.384000	23.688065	0.001081	20.882361
542.149422	-3.002100	3.776000	-11.335000	23.693791	0.001083	20.868663
543.155630	-2.996400	3.774500	-11.308000	23.716764	0.001085	20.886003
544.158396	-2.978900	3.775300	-11.245000	23.694709	0.001085	20.880014
545.149925	-2.984100	3.774500	-11.262000	23.705012	0.001086	20.896980
546.151866	-2.979000	3.773700	-11.240000	23.739187	0.001084	20.891415
547.153669	-2.984900	3.773400	-11.262000	23.729828	0.001085	20.888196
548.164969	-2.956500	3.775300	-11.161000	23.732764	0.001085	20.904889
549.160062	-2.972800	3.773900	-11.218000	23.752849	0.001085	20.897526
550.154590	-3.009100	3.772100	-11.349000	23.753620	0.001085	20.890238
551.153453	-3.002600	3.772300	-11.326000	23.746424	0.001085	20.890610
552.152166	-2.988800	3.771100	-11.270000	23.754836	0.001087	20.891932
553.157771	-3.001700	3.771300	-11.319000	23.743063	0.001085	20.903360
554.155459	-3.001300	3.770700	-11.316000	23.744528	0.001087	20.911467
555.154179	-2.998400	3.772300	-11.310000	23.767949	0.001086	20.898915
556.155542	-2.993500	3.770800	-11.287000	23.745769	0.001085	20.900384
557.164093	-3.014200	3.770600	-11.365000	23.805529	0.001086	20.923790
558.154572	-3.006400	3.770900	-11.335000	23.781558	0.001087	20.906394
559.151205	-3.008800	3.769800	-11.341000	23.786509	0.001084	20.905669
560.161936	-3.006300	3.768900	-11.329000	23.783844	0.001086	20.909634
561.161304	-3.003500	3.770500	-11.324000	23.770302	0.001085	20.904118
562.159066	-3.000200	3.770300	-11.310000	23.815972	0.001086	20.915295
563.155794	-3.016400	3.767700	-11.363000	23.818658	0.001086	20.920832
564.159970	-3.001300	3.769500	-11.313000	23.806262	0.001088	20.910301
565.157231	-2.976700	3.768500	-11.217000	23.813503	0.001088	20.919931
566.160368	-2.978700	3.768100	-11.223000	23.816710	0.001086	20.940688
567.158877	-2.992300	3.768200	-11.275000	23.815588	0.001086	20.938615
568.162854	-2.975500	3.768700	-11.212000	23.820788	0.001085	20.913012
569.161130	-2.990400	3.767600	-11.265000	23.857672	0.001088	20.930079
570.166502	-2.993300	3.768000	-11.277000	23.831711	0.001086	20.927755
571.167711	-2.995000	3.767700	-11.283000	23.849555	0.001087	20.929052
572.165426	-2.975000	3.767000	-11.205000	23.848358	0.001086	20.916948
573.162058	-3.002500	3.765700	-11.305000	23.843503	0.001086	20.931992
574.161366	-2.999900	3.765600	-11.296000	23.845717	0.001087	20.928523
575.160315	-2.992600	3.765900	-11.269000	23.824038	0.001085	20.929071
576.165650	-2.997500	3.764500	-11.283000	23.841783	0.001086	20.922682
577.167593	-3.006600	3.765600	-11.321000	23.837724	0.001085	20.917191
578.160892	-3.011800	3.764300	-11.335000	23.869728	0.001085	20.931262
579.167140	-2.991500	3.765300	-11.263000	23.865148	0.001085	20.930463
580.166924	-3.005700	3.764000	-11.313000	23.860617	0.001086	20.922601
581.163960	-2.996400	3.762800	-11.273000	23.834809	0.001087	20.909053
582.167158	-3.024500	3.761800	-11.377000	23.850213	0.001085	20.903636
583.165998	-3.009200	3.763100	-11.322000	23.844662	0.001084	20.923673
584.167418	-2.973100	3.763200	-11.188000	23.827538	0.001085	20.925469
585.170926	-2.986800	3.762100	-11.235000	23.840430	0.001084	20.926541
586.171285	-2.946400	3.763900	-11.089000	23.836348	0.001086	20.926715
587.166554	-2.985600	3.761600	-11.229000	23.844486	0.001085	20.936297
588.171052	-2.982800	3.762300	-11.221000	23.857030	0.001085	20.918057
589.168506	-2.969600	3.761800	-11.170000	23.824078	0.001085	20.923896
590.176718	-3.028000	3.760000	-11.384000	23.863325	0.001085	20.924369
591.172175	-2.986300	3.761600	-11.231000	23.868378	0.001084	20.926116
592.172336	-3.028400	3.759700	-11.385000	23.854939	0.001085	20.904582
593.174780	-2.974800	3.760600	-11.185000	23.880573	0.001084	20.906578
594.175006	-3.014100	3.759800	-11.331000	23.886123	0.001084	20.918780
595.175916	-3.015700	3.759500	-11.336000	23.884505	0.001083	20.892504
596.168450	-2.987600	3.760400	-11.234000	23.910762	0.001084	20.899392
597.172582	-3.003200	3.758900	-11.287000	23.920219	0.001083	20.911244
598.191221	-2.973800	3.759900	-11.180000	23.931816	0.001084	20.896323
599.170947	-2.984200	3.758800	-11.216000	23.933683	0.001082	20.912892
600.174074	-2.997000	3.757700	-11.260000	23.948416	0.001086	20.902063
601.176921	-3.001000	3.757900	-11.276000	23.928058	0.001084	20.917683
602.170980	-2.984200	3.758700	-11.216000	23.970117	0.001085	20.889686
603.175272	-3.017500	3.756500	-11.334000	23.962651	0.001084	20.895475
604.169805	-3.001600	3.756400	-11.274000	23.960611	0.001086	20.880628
605.173777	-2.989100	3.756300	-11.228000	23.939807	0.001085	20.895801
606.170974	-2.980600	3.755900	-11.194000	23.905141	0.001084	20.903712
607.176152	-3.016200	3.754400	-11.323000	23.905115	0.001086	20.893255
608.175719	-3.000500	3.755900	-11.268000	23.916041	0.001084	20.891410
609.176788	-3.004400	3.755300	-11.280000	23.926843	0.001084	20.885647
610.173942	-3.001600	3.754600	-11.268000	23.938638	0.001083	20.884199
611.175899	-3.005500	3.754000	-11.281000	23.937396	0.001086	20.891961
612.177844	-2.996600	3.754200	-11.249000	23.926843	0.001084	20.868105
613.175766	-3.004100	3.753900	-11.275000	23.932443	0.001084	20.877986
614.173224	-3.007100	3.752800	-11.284000	23.946454	0.001086	20.902940
615.175899	-2.998700	3.754400	-11.257000	23.949291	0.001084	20.891088
616.175313	-2.998100	3.753000	-11.250000	23.926719	0.001085	20.894057
617.174809	-2.979800	3.753400	-11.184000	23.939957	0.001085	20.874142
618.177446	-3.008700	3.751600	-11.287000	23.922961	0.001087	20.888392
619.174865	-3.010500	3.752600	-11.297000	23.917262	0.001083	20.854230
620.175661	-3.023300	3.752100	-11.342000	23.939187	0.001085	20.882378
621.175432	-3.006200	3.751400	-11.276000	23.935478	0.001086	20.861591
622.178916	-2.984100	3.750600	-11.191000	23.959094	0.001086	20.869151
623.179453	-3.002900	3.750400	-11.261000	23.934407	0.001086	20.851509
624.178439	-3.005800	3.749500	-11.270000	23.940902	0.001087	20.879357
625.176591	-3.011000	3.750200	-11.291000	23.938637	0.001086	20.861439
626.180829	-2.999800	3.750100	-11.247000	23.948068	0.001085	20.864732
627.180766	-3.014900	3.748600	-11.301000	23.949037	0.001086	20.887514
628.178479	-3.010400	3.749500	-11.286000	23.966084	0.001087	20.870945
629.176985	-2.991200	3.749200	-11.213000	24.001420	0.001087	20.877931
630.177912	-3.007600	3.749600	-11.275000	24.004229	0.001085	20.875059
631.182455	-3.003000	3.747600	-11.253000	23.994077	0.001086	20.859189
632.177545	-2.998100	3.748700	-11.238000	24.004527	0.001086	20.847858
633.180717	-3.011400	3.746300	-11.280000	24.023737	0.001088	20.889406
634.179952	-3.000900	3.747400	-11.245000	24.035781	0.001088	20.882044
635.187176	-3.010100	3.746600	-11.277000	24.059668	0.001087	20.858586
636.186007	-3.010300	3.746800	-11.278000	24.047573	0.001086	20.864000
637.194828	-3.017400	3.746600	-11.303000	24.058670	0.001088	20.868490
638.180697	-3.004900	3.746300	-11.256000	24.054488	0.001087	20.864770
639.180070	-3.007600	3.746300	-11.267000	24.027887	0.001085	20.869387
640.183607	-2.993900	3.746300	-11.215000	24.014398	0.001085	20.856809
641.179392	-3.037800	3.745100	-11.375000	24.039207	0.001084	20.856084
642.186577	-3.012100	3.744800	-11.277000	24.062771	0.001084	20.859802
643.182147	-3.012300	3.744500	-11.279000	24.051597	0.001087	20.866138
644.184390	-3.011200	3.744300	-11.274000	24.019844	0.001084	20.845675
645.190693	-2.981100	3.744900	-11.162000	23.997946	0.001086	20.864491
646.182446	-3.016000	3.742800	-11.288000	23.976319	0.001084	20.852287
647.188565	-3.023000	3.742700	-11.312000	23.983038	0.001085	20.856180
648.190485	-2.996700	3.742800	-11.214000	23.971141	0.001083	20.845198
649.189299	-2.988400	3.741800	-11.181000	23.992320	0.001083	20.860271
650.183822	-2.996600	3.743200	-11.217000	24.013296	0.001083	20.865660
651.188473	-3.009200	3.742300	-11.260000	24.009438	0.001083	20.839033
652.187913	-2.995500	3.742600	-11.210000	23.982362	0.001083	20.847442
653.187964	-3.020200	3.740100	-11.294000	24.016678	0.001082	20.850086
654.190830	-2.997200	3.741300	-11.212000	24.000377	0.001082	20.865032
655.190283	-2.976000	3.741800	-11.135000	24.028746	0.001082	20.847490
656.189977	-3.030500	3.739600	-11.331000	24.018841	0.001082	20.863160
657.187068	-2.989200	3.741600	-11.183000	24.050742	0.001081	20.837307
658.184724	-3.000800	3.742600	-11.230000	24.024042	0.001081	20.845618
659.184707	-3.007000	3.739700	-11.244000	24.020333	0.001079	20.836683
660.186050	-3.010600	3.739500	-11.257000	23.973550	0.001081	20.844295
661.187482	-3.002400	3.739800	-11.227000	23.944259	0.001081	20.837681
662.186123	-3.015000	3.738500	-11.271000	23.932587	0.001081	20.834985
663.185239	-2.971200	3.739500	-11.110000	23.923130	0.001080	20.848261
664.190077	-2.977500	3.740500	-11.137000	23.893937	0.001080	20.832739
665.186496	-3.002400	3.738500	-11.224000	23.919248	0.001080	20.844368
666.185577	-2.997300	3.737600	-11.202000	23.916809	0.001080	20.840975
667.192514	-2.996900	3.738800	-11.204000	23.921862	0.001080	20.858842
668.189141	-2.971300	3.739100	-11.109000	23.924350	0.001079	20.851855
669.196077	-3.019400	3.736700	-11.281000	23.944383	0.001078	20.832590
670.189937	-2.993000	3.736900	-11.183000	23.943065	0.001080	20.829845
671.193373	-2.985800	3.737700	-11.160000	23.952472	0.001077	20.850184
672.194998	-3.002900	3.736200	-11.218000	23.988208	0.001078	20.841924
673.191824	-3.002300	3.735100	-11.213000	23.993583	0.001077	20.835460
674.191179	-2.996800	3.735900	-11.195000	24.002293	0.001080	20.847040
675.191556	-2.995200	3.734800	-11.186000	24.007942	0.001078	20.838481
676.188178	-3.007400	3.733600	-11.228000	24.017846	0.001078	20.840826
677.189754	-3.010800	3.735100	-11.244000	24.008091	0.001076	20.827251
678.192976	-2.993000	3.734500	-11.176000	24.012074	0.001076	20.835512
679.192495	-3.001700	3.734800	-11.210000	24.033921	0.001079	20.832766
680.193297	-3.012400	3.734100	-11.248000	24.041014	0.001077	20.826129
681.191343	-3.011100	3.733500	-11.241000	24.035167	0.001077	20.831645
682.193845	-3.002500	3.734500	-11.212000	24.033798	0.001077	20.824108
683.193807	-2.989700	3.733100	-11.160000	24.062987	0.001077	20.818294
684.194186	-2.989200	3.733200	-11.158000	24.071621	0.001076	20.822212
685.198627	-2.979800	3.732700	-11.122000	24.102228	0.001077	20.832993
686.194042	-2.987500	3.733000	-11.151000	24.072692	0.001076	20.811906
687.202388	-2.986100	3.732900	-11.145000	24.118353	0.001074	20.844424
688.196901	-2.997700	3.732100	-11.187000	24.107879	0.001075	20.829652
689.194797	-3.005400	3.731200	-11.212000	24.109420	0.001073	20.828827
690.197210	-2.997300	3.732500	-11.186000	24.102852	0.001074	20.815602
691.194761	-2.998000	3.731200	-11.185000	24.086531	0.001074	20.811561
692.196971	-2.984900	3.731100	-11.135000	24.104795	0.001076	20.826085
693.196582	-2.993800	3.729800	-11.166000	24.105468	0.001075	20.808268
694.198425	-2.998500	3.729400	-11.182000	24.113903	0.001074	20.820521
695.202243	-3.020600	3.729500	-11.264000	24.124778	0.001075	20.816729
696.196078	-3.005900	3.730200	-11.212000	24.124454	0.001072	20.803128
697.200588	-3.014600	3.728500	-11.238000	24.146849	0.001074	20.812787
698.198284	-2.982100	3.729600	-11.121000	24.146849	0.001075	20.828908
699.196435	-2.986300	3.729200	-11.136000	24.123759	0.001074	20.823767
700.199362	-3.005600	3.727900	-11.202000	24.127915	0.001074	20.811341
701.198773	-3.007000	3.727800	-11.209000	24.112863	0.001075	20.814736
702.195800	-3.004800	3.727500	-11.200000	24.095420	0.001075	20.795820
703.203660	-3.012100	3.726800	-11.225000	24.110922	0.001074	20.824169
704.200655	-2.986600	3.727200	-11.130000	24.120850	0.001076	20.803781
705.203405	-3.018700	3.725400	-11.245000	24.122494	0.001073	20.808275
706.206382	-3.012300	3.724500	-11.218000	24.110376	0.001072	20.821251
707.200943	-3.001700	3.726100	-11.184000	24.117344	0.001073	20.796946
708.200153	-2.998800	3.726600	-11.174000	24.115428	0.001072	20.782222
709.205678	-3.011200	3.726000	-11.219000	24.110801	0.001072	20.797496
710.204737	-2.998800	3.725200	-11.170000	24.079474	0.001073	20.786940
711.198174	-3.020400	3.725400	-11.251000	24.069696	0.001072	20.792306
712.202052	-3.008100	3.724800	-11.203000	24.102491	0.001070	20.804334
713.206017	-3.008900	3.725800	-11.209000	24.104532	0.001071	20.805907
714.207899	-3.001200	3.724000	-11.175000	24.161588	0.001070	20.823302
715.201621	-3.022400	3.723900	-11.254000	24.155716	0.001070	20.792758
716.205698	-3.011100	3.724700	-11.214000	24.146388	0.001071	20.797152
717.206653	-3.022500	3.722900	-11.251000	24.122551	0.001069	20.794581
718.208633	-3.027900	3.722700	-11.271000	24.117276	0.001071	20.793084
719.208549	-3.022000	3.722900	-11.249000	24.127752	0.001070	20.811177
720.200071	-3.023500	3.722200	-11.253000	24.146986	0.001071	20.796329
721.201854	-3.008500	3.722800	-11.199000	24.155771	0.001071	20.798502
722.210854	-2.992200	3.723400	-11.139000	24.167839	0.001071	20.805390
723.201334	-2.987200	3.721300	-11.115000	24.182420	0.001070	20.791566
724.201425	-2.983600	3.721800	-11.103000	24.178215	0.001071	20.792565
725.202816	-2.971400	3.721700	-11.058000	24.170304	0.001069	20.796483
726.205289	-3.000700	3.721800	-11.167000	24.152764	0.001071	20.779839
727.202006	-2.988900	3.721600	-11.123000	24.128979	0.001068	20.801977
728.205771	-3.023400	3.720400	-11.246000	24.161922	0.001068	20.762946
729.204537	-2.996700	3.720900	-11.150000	24.143237	0.001069	20.805372
730.204724	-3.006800	3.719400	-11.182000	24.168069	0.001066	20.793768
731.207308	-3.011300	3.719400	-11.200000	24.173370	0.001065	20.772531
732.205747	-2.992500	3.719500	-11.130000	24.176207	0.001067	20.778697
733.203568	-2.999200	3.719000	-11.153000	24.180961	0.001068	20.792474
734.207269	-2.989300	3.720000	-11.120000	24.189296	0.001068	20.790877
735.208313	-2.983700	3.719700	-11.098000	24.179596	0.001068	20.766448
736.209031	-3.021100	3.717500	-11.230000	24.193181	0.001068	20.799041
737.208973	-3.004800	3.718600	-11.172000	24.180617	0.001068	20.766050
738.212861	-2.988800	3.717900	-11.111000	24.216993	0.001068	20.777880
739.210712	-3.019700	3.718200	-11.227000	24.213436	0.001068	20.777157
740.210323	-2.998100	3.716300	-11.140000	24.204281	0.001067	20.763707
741.212023	-3.006000	3.716300	-11.170000	24.205501	0.001067	20.767775
742.203554	-3.004200	3.717000	-11.166000	24.221202	0.001067	20.757445
743.206153	-3.024300	3.717100	-11.241000	24.232223	0.001068	20.753327
744.211994	-2.990000	3.716500	-11.111000	24.233045	0.001067	20.767902
745.206289	-2.990600	3.715900	-11.111000	24.230806	0.001068	20.755699
746.206041	-3.015300	3.715300	-11.202000	24.219063	0.001067	20.760990
747.213749	-2.997800	3.716300	-11.140000	24.208539	0.001067	20.744269
748.213684	-2.996900	3.714100	-11.130000	24.232201	0.001066	20.764211
749.211960	-3.002600	3.714000	-11.151000	24.239017	0.001067	20.770100
750.207633	-3.000700	3.714800	-11.146000	24.232027	0.001067	20.763088
751.212958	-2.998600	3.714900	-11.139000	24.240586	0.001067	20.774992
752.213669	-2.998500	3.713400	-11.133000	24.234042	0.001065	20.759419
753.210431	-2.998500	3.712300	-11.130000	24.256509	0.001065	20.773894
754.208128	-2.988800	3.715100	-11.103000	24.268351	0.001065	20.768229
755.210256	-3.005600	3.712900	-11.157000	24.290541	0.001064	20.752081
756.211457	-3.002000	3.712600	-11.144000	24.284770	0.001064	20.757672
757.214142	-2.989900	3.712800	-11.099000	24.290045	0.001065	20.746368
758.212458	-3.004900	3.711500	-11.152000	24.288999	0.001066	20.757173
759.209965	-2.978600	3.712200	-11.055000	24.270440	0.001065	20.763213
760.215256	-3.004000	3.711400	-11.148000	24.282183	0.001062	20.738481
761.212286	-2.988200	3.711800	-11.090000	24.289697	0.001063	20.763562
762.213894	-2.991500	3.712700	-11.105000	24.279445	0.001064	20.759917
763.215547	-2.981500	3.711300	-11.064000	24.280266	0.001062	20.751257
764.212438	-2.994500	3.711300	-11.112000	24.273299	0.001063	20.765132
765.214925	-2.999500	3.711700	-11.132000	24.271930	0.001062	20.731515
766.212530	-2.993300	3.710800	-11.107000	24.267775	0.001063	20.772393
767.212165	-2.987400	3.709700	-11.082000	24.261803	0.001062	20.769247
768.213162	-2.987500	3.710400	-11.084000	24.261803	0.001061	20.744116
769.212132	-2.996700	3.708400	-11.112000	24.248467	0.001060	20.753499
770.212802	-2.988500	3.709600	-11.086000	24.247397	0.001061	20.757642
771.212555	-3.017600	3.708800	-11.191000	24.272822	0.001061	20.770818
772.213326	-2.994900	3.709000	-11.106000	24.226398	0.001061	20.759338
773.216289	-2.997600	3.708600	-11.116000	24.234656	0.001060	20.763828
774.213478	-2.979200	3.709100	-11.050000	24.218832	0.001061	20.769293
775.218996	-2.988400	3.708300	-11.080000	24.222763	0.001060	20.767546
776.213543	-2.999900	3.706900	-11.119000	24.253514	0.001060	20.738646
777.214222	-2.988100	3.707600	-11.078000	24.245377	0.001060	20.755616
778.222213	-3.009300	3.707500	-11.156000	24.273067	0.001059	20.763476
779.216847	-2.974100	3.708300	-11.027000	24.290904	0.001059	20.763825
780.216579	-3.003100	3.707100	-11.131000	24.304388	0.001057	20.758385
781.217352	-2.997500	3.707100	-11.111000	24.316105	0.001058	20.758758
782.213490	-2.990800	3.706000	-11.082000	24.313342	0.001058	20.753142
783.219150	-2.997300	3.704800	-11.103000	24.309959	0.001057	20.744058
784.220909	-3.008200	3.705500	-11.146000	24.340134	0.001057	20.759629
785.215353	-3.001100	3.705400	-11.120000	24.327496	0.001056	20.746003
786.218446	-3.007500	3.705000	-11.142000	24.334585	0.001056	20.764494
787.222582	-2.999900	3.704400	-11.112000	24.345057	0.001058	20.771680
788.217733	-3.000900	3.704800	-11.117000	24.360380	0.001058	20.751964
789.223609	-2.990100	3.704300	-11.076000	24.338785	0.001058	20.758751
790.222250	-2.998400	3.704200	-11.105000	24.317092	0.001057	20.757852
791.223192	-2.993300	3.704300	-11.087000	24.315797	0.001056	20.772675
792.222272	-3.018600	3.702700	-11.176000	24.322562	0.001059	20.761917
793.217542	-3.015000	3.701700	-11.159000	24.314451	0.001058	20.751884
794.230148	-3.011300	3.703300	-11.151000	24.315197	0.001058	20.762589
795.225421	-3.000300	3.702000	-11.105000	24.314051	0.001058	20.765707
796.221075	-2.981400	3.701600	-11.035000	24.296659	0.001057	20.749209
797.225395	-3.008900	3.700900	-11.134000	24.266381	0.001058	20.750132
798.224478	-2.992500	3.701700	-11.076000	24.229210	0.001055	20.757891
799.226468	-2.990600	3.701300	-11.067000	24.262646	0.001055	20.748281
800.224601	-3.018400	3.699600	-11.166000	24.268218	0.001057	20.782795
801.226102	-3.005200	3.699300	-11.116000	24.299115	0.001055	20.740767
802.221025	-2.999400	3.700000	-11.097000	24.309388	0.001056	20.764823
803.221009	-2.996700	3.700500	-11.088000	24.319686	0.001054	20.749075
804.224992	-3.012800	3.699200	-11.144000	24.325755	0.001055	20.737144
805.221431	-2.987100	3.698600	-11.047000	24.338318	0.001055	20.765869
806.227297	-2.985700	3.698800	-11.042000	24.316624	0.001053	20.753115
807.246581	-2.998800	3.697700	-11.087000	24.298957	0.001055	20.770007
808.233986	-2.983600	3.699700	-11.037000	24.290722	0.001054	20.753211
809.231744	-2.986600	3.698400	-11.045000	24.285123	0.001054	20.765139
810.224058	-3.008000	3.696900	-11.118000	24.295148	0.001053	20.779936
811.223557	-3.012600	3.696300	-11.134000	24.262730	0.001052	20.761642
812.230844	-2.980600	3.697200	-11.018000	24.254270	0.001051	20.785873
813.223293	-2.978700	3.698200	-11.015000	24.258921	0.001054	20.763986
814.225520	-2.978600	3.697300	-11.011000	24.272430	0.001053	20.778959
815.222102	-3.010200	3.696400	-11.126000	24.286260	0.001052	20.774814
816.222143	-3.000400	3.697300	-11.093000	24.264763	0.001052	20.767949
817.226016	-2.988300	3.697400	-11.048000	24.259586	0.001050	20.751850
818.223216	-3.001400	3.696600	-11.094000	24.270706	0.001048	20.759212
819.222838	-3.012300	3.695400	-11.131000	24.285258	0.001049	20.791827
820.222580	-3.025200	3.695800	-11.179000	24.299562	0.001049	20.747854
821.225300	-3.009300	3.694800	-11.118000	24.293142	0.001048	20.772234
822.228806	-3.008900	3.694800	-11.117000	24.292145	0.001048	20.776450
823.226356	-3.004500	3.694700	-11.098000	24.276744	0.001050	20.786131
824.228221	-2.999700	3.694900	-11.083000	24.291322	0.001051	20.787004
825.227475	-3.000200	3.695100	-11.085000	24.278383	0.001048	20.790147
826.231809	-2.990900	3.693200	-11.045000	24.273755	0.001047	20.775546
827.225758	-2.978600	3.694300	-11.002000	24.268729	0.001048	20.777617
828.234734	-2.995000	3.694800	-11.066000	24.260939	0.001049	20.773123
829.225401	-3.009400	3.692600	-11.112000	24.275343	0.001048	20.774769
830.228918	-3.008400	3.691200	-11.103000	24.296738	0.001048	20.767781
831.226237	-2.987900	3.693700	-11.035000	24.298205	0.001048	20.768304
832.229249	-2.990300	3.692900	-11.042000	24.311389	0.001046	20.769201
833.231904	-2.985900	3.692400	-11.024000	24.298252	0.001046	20.792534
834.231509	-3.000600	3.692800	-11.079000	24.286036	0.001044	20.769374
835.230138	-2.970400	3.692500	-10.968000	24.287428	0.001045	20.785469
836.227017	-2.995600	3.690900	-11.055000	24.279368	0.001044	20.787341
837.229547	-3.001400	3.690300	-11.075000	24.282426	0.001045	20.782348
838.228532	-3.002600	3.691700	-11.084000	24.312527	0.001043	20.783146
839.234566	-2.981300	3.691400	-11.004000	24.305885	0.001044	20.790233
840.231321	-3.003900	3.690400	-11.085000	24.321159	0.001042	20.799390
841.236901	-3.027300	3.689600	-11.168000	24.319665	0.001042	20.786038
842.233744	-3.014800	3.689800	-11.123000	24.349145	0.001043	20.792851
843.235256	-3.011700	3.690300	-11.113000	24.362752	0.001041	20.755767
844.239192	-3.007900	3.688700	-11.094000	24.357329	0.001041	20.789681
845.230518	-2.983200	3.690000	-11.007000	24.378921	0.001040	20.797592
846.237607	-3.033200	3.687700	-11.185000	24.382378	0.001042	20.790629
847.230422	-2.984600	3.689200	-11.010000	24.354815	0.001041	20.781944
848.230708	-3.000000	3.688800	-11.066000	24.382702	0.001039	20.797117
849.232914	-3.011100	3.686900	-11.101000	24.415189	0.001039	20.794147
850.232229	-2.995900	3.688300	-11.049000	24.396508	0.001039	20.783467
851.232515	-3.033700	3.686000	-11.181000	24.389891	0.001040	20.786312
852.230453	-2.996800	3.687500	-11.050000	24.375935	0.001038	20.795071
853.230589	-3.017000	3.686900	-11.122000	24.362153	0.001036	20.806849
854.231424	-3.032300	3.685700	-11.174000	24.314489	0.001037	20.795545
855.234109	-3.016100	3.685700	-11.116000	24.321505	0.001038	20.785987
856.230816	-3.003500	3.686100	-11.070000	24.322923	0.001036	20.784564
857.235309	-3.021000	3.684200	-11.128000	24.342601	0.001035	20.798141
858.231092	-3.009400	3.686000	-11.090000	24.343844	0.001035	20.780421
859.237485	-2.989600	3.685200	-11.017000	24.333272	0.001035	20.796368
860.236744	-2.990600	3.686100	-11.023000	24.300832	0.001035	20.791328
861.235798	-2.984800	3.685800	-11.000000	24.335287	0.001034	20.786062
862.234946	-2.986200	3.685500	-11.005000	24.333920	0.001035	20.802709
863.237104	-3.000600	3.685100	-11.056000	24.360563	0.001033	20.808099
864.236399	-3.003700	3.685000	-11.067000	24.331283	0.001033	20.786312
865.234156	-2.992800	3.684300	-11.024000	24.329991	0.001034	20.801138
866.233854	-2.994800	3.684000	-11.032000	24.350837	0.001034	20.802610
867.235838	-3.014800	3.683700	-11.105000	24.369919	0.001032	20.775285
868.239883	-2.968000	3.684500	-10.935000	24.364472	0.001032	20.786416
869.239564	-2.991200	3.683900	-11.019000	24.419646	0.001031	20.805256
870.238729	-2.987300	3.683300	-11.002000	24.419622	0.001034	20.777731
871.236004	-3.000400	3.682800	-11.049000	24.437732	0.001033	20.817237
872.240619	-2.990300	3.683100	-11.013000	24.428155	0.001032	20.796249
873.241864	-2.983900	3.683800	-10.991000	24.409176	0.001033	20.797598
874.237921	-2.996900	3.682000	-11.034000	24.457683	0.001033	20.800269
875.241543	-2.994600	3.682200	-11.026000	24.431739	0.001030	20.797949
876.236270	-2.963500	3.682100	-10.910000	24.455322	0.001031	20.795529
877.235174	-3.014700	3.680300	-11.093000	24.465893	0.001029	20.807083
878.234825	-2.980400	3.681900	-10.972000	24.478207	0.001027	20.810429
879.237909	-2.998900	3.680400	-11.036000	24.499451	0.001028	20.799974
880.237738	-3.000100	3.680600	-11.041000	24.478309	0.001029	20.791564
881.239134	-3.007800	3.679300	-11.065000	24.518827	0.001027	20.787171
882.239051	-3.009500	3.680100	-11.075000	24.535841	0.001028	20.787172
883.237669	-3.003300	3.679600	-11.050000	24.524227	0.001028	20.815349
884.241520	-3.017100	3.677700	-11.094000	24.505298	0.001026	20.812005
885.240954	-3.019400	3.678100	-11.104000	24.506270	0.001026	20.801600
886.240500	-2.965700	3.679600	-10.910000	24.488685	0.001027	20.798656
887.242026	-2.994600	3.678300	-11.014000	24.502665	0.001025	20.798932
888.241062	-2.997900	3.677700	-11.023000	24.522988	0.001027	20.782811
889.246812	-3.011900	3.677500	-11.075000	24.495628	0.001027	20.793293
890.243425	-2.980100	3.678100	-10.960000	24.461403	0.001025	20.786931
891.245400	-2.988800	3.677500	-10.991000	24.484288	0.001023	20.797563
892.243114	-3.016000	3.678900	-11.094000	24.506526	0.001026	20.778149
893.245517	-2.973800	3.677800	-10.936000	24.479042	0.001025	20.815060
894.245883	-2.984700	3.677600	-10.975000	24.480162	0.001025	20.797217
895.246404	-3.002500	3.675900	-11.034000	24.484939	0.001023	20.785414
896.247453	-3.005500	3.675400	-11.046000	24.504541	0.001024	20.780899
897.255213	-2.990900	3.675700	-10.993000	24.524713	0.001022	20.792129
898.250717	-2.994800	3.676200	-11.008000	24.517402	0.001023	20.791906
899.249760	-2.998500	3.675800	-11.021000	24.508499	0.001025	20.808577
900.254921	-3.000700	3.675800	-11.029000	24.494895	0.001023	20.789713
901.245646	-3.004400	3.675200	-11.041000	24.485940	0.001021	20.809652
902.253270	-2.988500	3.674300	-10.979000	24.510169	0.001023	20.795554
903.247937	-2.993400	3.674400	-10.998000	24.529670	0.001022	20.792361
904.254976	-3.010600	3.672900	-11.057000	24.530393	0.001020	20.795931
905.251636	-3.001300	3.672400	-11.021000	24.510074	0.001022	20.790243
906.252977	-3.007000	3.673100	-11.044000	24.485500	0.001022	20.806840
907.248074	-3.009400	3.673000	-11.052000	24.472045	0.001021	20.795711
908.253533	-2.985500	3.674100	-10.968000	24.449684	0.001019	20.799356
909.254371	-3.014800	3.672000	-11.069000	24.454410	0.001019	20.796037
910.248661	-2.999400	3.672800	-11.015000	24.469264	0.001019	20.816629
911.255530	-2.992300	3.672800	-10.989000	24.493864	0.001018	20.790102
912.258582	-2.994300	3.671400	-10.992000	24.517794	0.001018	20.809843
913.249071	-2.996300	3.671600	-11.000000	24.506479	0.001020	20.797068
914.255680	-3.016000	3.669700	-11.066000	24.511130	0.001018	20.779924
915.250092	-2.989700	3.672000	-10.978000	24.528370	0.001018	20.795798
916.255795	-3.005600	3.671000	-11.032000	24.555507	0.001020	20.801214
917.256913	-2.990800	3.670200	-10.976000	24.559736	0.001019	20.829639
918.255356	-3.022700	3.669900	-11.093000	24.576626	0.001019	20.802016
919.256515	-3.034300	3.669800	-11.134000	24.567424	0.001018	20.805111
920.256484	-2.998700	3.670500	-11.006000	24.518748	0.001018	20.806533
921.255714	-3.005600	3.669400	-11.028000	24.531212	0.001018	20.795330
922.256097	-3.001300	3.668800	-11.010000	24.533004	0.001016	20.789542
923.256199	-2.992800	3.669200	-10.980000	24.527234	0.001017	20.802244
924.254429	-3.001000	3.669400	-11.010000	24.531811	0.001016	20.806837
925.260366	-2.997500	3.668700	-10.996000	24.515271	0.001016	20.796881
926.260496	-3.005800	3.668100	-11.025000	24.513381	0.001015	20.797355
927.259451	-3.011900	3.667600	-11.045000	24.490474	0.001012	20.791442
928.256594	-3.014900	3.668300	-11.059000	24.528631	0.001014	20.781836
929.262294	-2.980800	3.668300	-10.933000	24.541691	0.001011	20.782611
930.261073	-2.981300	3.668700	-10.936000	24.543433	0.001011	20.828454
931.261224	-2.985500	3.668200	-10.949000	24.524132	0.001013	20.816676
932.267945	-3.000100	3.667100	-11.001000	24.544554	0.001014	20.802553
933.269629	-3.023100	3.666900	-11.083000	24.556569	0.001011	20.807022
934.262182	-3.006600	3.666700	-11.024000	24.539780	0.001010	20.811513
935.263370	-3.015200	3.665500	-11.050000	24.545129	0.001009	20.796018
936.265593	-3.013900	3.665400	-11.046000	24.540107	0.001009	20.797617
937.262169	-2.998300	3.667300	-10.995000	24.580424	0.001009	20.818155
938.260648	-3.008500	3.664200	-11.023000	24.598906	0.001008	20.816310
939.261742	-2.983600	3.666400	-10.938000	24.597488	0.001010	20.827690
940.264240	-3.000500	3.665800	-10.998000	24.597415	0.001009	20.813866
941.267164	-2.997800	3.665600	-10.987000	24.579633	0.001007	20.801240
942.266126	-3.005000	3.664200	-11.009000	24.593515	0.001010	20.834134
943.270110	-2.983600	3.664100	-10.931000	24.554989	0.001008	20.806385
944.266058	-2.996500	3.664600	-10.979000	24.557303	0.001007	20.820086
945.265131	-2.992000	3.664300	-10.962000	24.576158	0.001006	20.799649
946.266150	-3.010000	3.663000	-11.025000	24.558276	0.001007	20.821062
947.267208	-2.980100	3.662900	-10.916000	24.545843	0.001006	20.829924
948.266286	-3.004800	3.661000	-11.000000	24.579296	0.001007	20.807540
949.266778	-3.000000	3.662700	-10.987000	24.562884	0.001008	20.805297
950.267026	-2.995900	3.662100	-10.969000	24.586985	0.001005	20.825211
951.269004	-3.004400	3.662100	-11.000000	24.595740	0.001007	20.809341
952.266363	-2.997000	3.661500	-10.972000	24.613576	0.001004	20.795468
953.270434	-2.998500	3.660900	-10.976000	24.624519	0.001005	20.825889
954.267898	-3.025000	3.661200	-11.074000	24.663517	0.001006	20.814761
955.269512	-3.015500	3.659800	-11.036000	24.662076	0.001005	20.823272
956.269526	-2.992200	3.662200	-10.957000	24.662178	0.001008	20.820055
957.272349	-3.016600	3.660200	-11.040000	24.709603	0.001005	20.819281
958.270173	-3.013200	3.659500	-11.026000	24.724850	0.001006	20.814666
959.271463	-3.013200	3.660400	-11.028000	24.762375	0.001005	20.825297
960.272559	-3.007400	3.658000	-10.999000	24.745765	0.001005	20.824275
961.269958	-2.991100	3.660100	-10.947000	24.768272	0.001003	20.805611
962.273427	-2.990400	3.658600	-10.938000	24.776877	0.001005	20.833686
963.273424	-2.997600	3.658900	-10.967000	24.753205	0.001004	20.801396
964.275531	-3.008800	3.658200	-11.006000	24.743332	0.001002	20.834162
965.276046	-2.989400	3.658400	-10.935000	24.742735	0.001002	20.810804
966.278372	-3.009900	3.656500	-11.004000	24.737042	0.001001	20.807462
967.275325	-2.980000	3.659300	-10.904000	24.767455	0.000999	20.815222
968.279761	-3.013500	3.657400	-11.021000	24.771062	0.001002	20.829748
969.275062	-3.014600	3.657400	-11.025000	24.773326	0.001000	20.834864
970.281209	-3.015100	3.655500	-11.021000	24.780340	0.001002	20.838109
971.277780	-2.997800	3.656400	-10.960000	24.756045	0.001000	20.816574
972.279937	-2.993300	3.656200	-10.943000	24.755921	0.000999	20.830674
973.280612	-2.991200	3.656300	-10.936000	24.757738	0.000998	20.830601
974.281172	-3.014800	3.655600	-11.020000	24.770022	0.000998	20.822540
975.281142	-2.991500	3.655500	-10.935000	24.753462	0.000999	20.845275
976.282550	-3.009800	3.654400	-10.998000	24.770995	0.000997	20.832999
977.282644	-3.004700	3.654900	-10.980000	24.751053	0.000997	20.848547
978.278625	-2.985300	3.655400	-10.912000	24.764805	0.000996	20.849071
979.282799	-3.009100	3.654200	-10.995000	24.772366	0.000995	20.835797
980.280969	-2.999000	3.654300	-10.958000	24.760580	0.000996	20.845780
981.285665	-3.015600	3.653600	-11.015000	24.755283	0.000994	20.835250
982.283690	-2.994300	3.654300	-10.940000	24.764810	0.000996	20.835327
983.291320	-3.012100	3.652700	-11.001000	24.728504	0.000995	20.847257
984.287253	-2.984100	3.653200	-10.900000	24.752129	0.000995	20.838248
985.285651	-3.001100	3.654100	-10.965000	24.746114	0.000995	20.851651
986.285279	-3.011000	3.652800	-10.998000	24.772573	0.000993	20.863504
987.288037	-2.988700	3.652200	-10.916000	24.756658	0.000993	20.839948
988.285037	-3.026500	3.650600	-11.048000	24.736465	0.000994	20.821107
989.286094	-3.000500	3.652900	-10.959000	24.733483	0.000992	20.838977
990.288229	-2.980500	3.652300	-10.885000	24.720901	0.000994	20.848161
991.287230	-2.994400	3.651500	-10.932000	24.715554	0.000993	20.839951
992.286672	-3.001600	3.651400	-10.959000	24.735353	0.000993	20.854129
993.291342	-2.996300	3.651400	-10.939000	24.735501	0.000992	20.825830
994.285529	-3.013000	3.651000	-11.000000	24.749479	0.000993	20.837011
995.288338	-3.011700	3.649000	-10.988000	24.754404	0.000992	20.841953
996.292689	-2.994900	3.650100	-10.931000	24.742740	0.000992	20.844473
997.289588	-3.007100	3.650200	-10.975000	24.739882	0.000992	20.843027
998.290018	-3.010900	3.649600	-10.988000	24.759380	0.000991	20.853110
999.288126	-2.997400	3.650000	-10.940000	24.774899	0.000990	20.867735
1000.292232	-2.990900	3.649100	-10.913000	24.785443	0.000992	20.873101
1001.289305	-2.989300	3.648600	-10.905000	24.795664	0.000991	20.865341
1002.289497	-3.009300	3.647300	-10.974000	24.801507	0.000991	20.837541
1003.291655	-2.988700	3.648700	-10.904000	24.803846	0.000989	20.874500
1004.290628	-2.997900	3.649200	-10.939000	24.821228	0.000989	20.840737
1005.292737	-2.969800	3.648600	-10.834000	24.801211	0.000990	20.855735
1006.291527	-3.001800	3.646100	-10.944000	24.814293	0.000988	20.854639
1007.294131	-2.985300	3.648400	-10.889000	24.824314	0.000990	20.843834
1008.291164	-2.983300	3.648100	-10.882000	24.841746	0.000985	20.885035
1009.291667	-2.986500	3.646300	-10.889000	24.833392	0.000988	20.846307
1010.295745	-3.000800	3.646400	-10.941000	24.823398	0.000987	20.858561
1011.295023	-3.000200	3.645900	-10.938000	24.822901	0.000986	20.850002
1012.292997	-3.004600	3.646400	-10.955000	24.839886	0.000989	20.863254
1013.298499	-3.000700	3.644400	-10.935000	24.849012	0.000986	20.859138
1014.292922	-3.013700	3.643400	-10.979000	24.869676	0.000985	20.858065
1015.294322	-3.003100	3.644600	-10.944000	24.844737	0.000985	20.869071
1016.299525	-2.975600	3.645300	-10.846000	24.886586	0.000985	20.857493
1017.295478	-3.010800	3.643600	-10.970000	24.870252	0.000984	20.877135
1018.297313	-2.997100	3.644600	-10.922000	24.877464	0.000985	20.863985
1019.295860	-3.024200	3.642800	-11.015000	24.895292	0.000984	20.860542
1020.298689	-3.010800	3.643000	-10.967000	24.881319	0.000984	20.859320
1021.300341	-2.994900	3.643000	-10.909000	24.879656	0.000983	20.884201
1022.297150	-3.003900	3.642200	-10.940000	24.865980	0.000982	20.878537
1023.299151	-3.034500	3.641400	-11.049000	24.846362	0.000983	20.861694
1024.302336	-2.997500	3.642700	-10.917000	24.874560	0.000981	20.863915
1025.297005	-3.006800	3.641500	-10.948000	24.883585	0.000981	20.856379
1026.299608	-2.990900	3.643000	-10.895000	24.857430	0.000981	20.873275
1027.297404	-2.997400	3.642700	-10.916000	24.871504	0.000981	20.855158
1028.297271	-2.998100	3.641800	-10.918000	24.863624	0.000981	20.873802
1029.301435	-3.002400	3.641500	-10.932000	24.889383	0.000982	20.873576
1030.297306	-2.995600	3.641400	-10.907000	24.896395	0.000978	20.870657
1031.300924	-3.001500	3.640900	-10.927000	24.919420	0.000978	20.879541
1032.295523	-3.006600	3.640900	-10.946000	24.884860	0.000978	20.897484
1033.302370	-3.001000	3.639600	-10.921000	24.888939	0.000980	20.878346
1034.296624	-3.018400	3.640000	-10.986000	24.855148	0.000980	20.876674
1035.298273	-3.003000	3.640300	-10.931000	24.828095	0.000980	20.872283
1036.303092	-2.991100	3.638500	-10.881000	24.821556	0.000978	20.873307
1037.297824	-3.015200	3.639700	-10.974000	24.819045	0.000978	20.885011
1038.302390	-3.008000	3.639300	-10.945000	24.817207	0.000977	20.870839
1039.301611	-2.993800	3.637300	-10.889000	24.851398	0.000977	20.896617
1040.297775	-3.002400	3.636900	-10.918000	24.844313	0.000977	20.873387
1041.299426	-2.997400	3.640000	-10.909000	24.865200	0.000978	20.880124
1042.308650	-2.984400	3.638500	-10.858000	24.838918	0.000976	20.876033
1043.300229	-2.988900	3.637000	-10.869000	24.855007	0.000973	20.866577
1044.303585	-3.000700	3.636700	-10.912000	24.878753	0.000973	20.862434
1045.300488	-2.984200	3.636200	-10.849000	24.875449	0.000974	20.879506
1046.298468	-2.984800	3.635900	-10.851000	24.887956	0.000973	20.860764
1047.304026	-2.977000	3.636100	-10.823000	24.896859	0.000973	20.865433
1048.302222	-3.008900	3.634700	-10.936000	24.865531	0.000975	20.878561
1049.302890	-3.001600	3.634300	-10.908000	24.854318	0.000972	20.871101
1050.298900	-2.990200	3.636100	-10.872000	24.819656	0.000971	20.860022
1051.297769	-2.983400	3.635400	-10.845000	24.861283	0.000973	20.859125
1052.299271	-3.004200	3.634600	-10.918000	24.870634	0.000972	20.878940
1053.304259	-3.003500	3.635200	-10.918000	24.884957	0.000971	20.868186
1054.298577	-3.001700	3.633700	-10.906000	24.914921	0.000971	20.853216
1055.304405	-3.044200	3.632400	-11.056000	24.929964	0.000969	20.876374
1056.302957	-2.998300	3.634300	-10.896000	24.926932	0.000970	20.865270
1057.303466	-2.997300	3.633200	-10.889000	24.911818	0.000969	20.867644
1058.303116	-3.020900	3.633000	-10.974000	24.909209	0.000970	20.860759
1059.301520	-2.986300	3.633500	-10.850000	24.899513	0.000968	20.845339
1060.304225	-3.025400	3.630900	-10.984000	24.876716	0.000969	20.843795
1061.305384	-2.992800	3.634000	-10.875000	24.900113	0.000968	20.862061
1062.305947	-2.984600	3.633500	-10.843000	24.928884	0.000968	20.866282
1063.303738	-3.010100	3.632300	-10.933000	24.954519	0.000968	20.862615
1064.303336	-2.981200	3.631700	-10.825000	24.926773	0.000965	20.830025
1065.306793	-2.983000	3.631200	-10.831000	24.945151	0.000966	20.840410
1066.309074	-3.007900	3.631300	-10.922000	24.952338	0.000966	20.851891
1067.305871	-3.007000	3.630600	-10.916000	24.962062	0.000965	20.854538
1068.309167	-3.003800	3.630500	-10.904000	24.968603	0.000966	20.841190
1069.312213	-2.996900	3.631500	-10.882000	24.986953	0.000966	20.849651
1070.306077	-3.015500	3.630000	-10.944000	24.961619	0.000965	20.847456
1071.308629	-3.002100	3.631200	-10.900000	24.970101	0.000963	20.852176
1072.309391	-3.012700	3.629800	-10.934000	24.959684	0.000962	20.839824
1073.306717	-3.014800	3.628900	-10.938000	24.970975	0.000964	20.837407
1074.309765	-3.011600	3.629500	-10.929000	24.969287	0.000963	20.854678
1075.307879	-3.007900	3.628700	-10.914000	24.945595	0.000962	20.833269
1076.309332	-2.988000	3.629500	-10.844000	24.924039	0.000962	20.850514
1077.312548	-3.008000	3.627700	-10.912000	24.925858	0.000963	20.833374
1078.311414	-2.988500	3.628100	-10.842000	24.920488	0.000959	20.833200
1079.310629	-2.995900	3.628700	-10.869000	24.908978	0.000960	20.820700
1080.313731	-3.002400	3.626500	-10.887000	24.905052	0.000961	20.836674
1081.311342	-2.987600	3.627800	-10.837000	24.878053	0.000960	20.821430
1082.311978	-3.007600	3.627100	-10.908000	24.888548	0.000959	20.821057
1083.314697	-2.994700	3.626400	-10.858000	24.894270	0.000957	20.817317
1084.311861	-3.019900	3.625900	-10.949000	24.894472	0.000960	20.827477
1085.313011	-2.985300	3.626300	-10.824000	24.914439	0.000958	20.828551
1086.315591	-3.004400	3.624800	-10.889000	24.928044	0.000957	20.841257
1087.315272	-2.986900	3.625100	-10.826000	24.949951	0.000955	20.817254
1088.315077	-3.004500	3.624100	-10.888000	24.934611	0.000956	20.837418
1089.316594	-2.989200	3.625300	-10.836000	24.917805	0.000954	20.823395
1090.316813	-3.002600	3.624700	-10.882000	24.917064	0.000953	20.821703
1091.317715	-2.993200	3.624100	-10.846000	24.904036	0.000955	20.807679
1092.315989	-2.986300	3.624200	-10.822000	24.889892	0.000953	20.816716
1093.317954	-3.019800	3.622800	-10.938000	24.885343	0.000954	20.807409
1094.321404	-3.022800	3.622700	-10.950000	24.886888	0.000954	20.817020
1095.316473	-2.998200	3.623800	-10.863000	24.912996	0.000955	20.819043
1096.319904	-3.002500	3.621700	-10.873000	24.930403	0.000955	20.821815
1097.320309	-3.017700	3.622900	-10.931000	24.949130	0.000952	20.819274
1098.318096	-3.020700	3.620500	-10.935000	24.943189	0.000953	20.820898
1099.321152	-3.005300	3.621600	-10.883000	24.967856	0.000952	20.822897
1100.321057	-3.020600	3.621100	-10.937000	24.962289	0.000951	20.805455
1101.321256	-2.998400	3.621700	-10.859000	25.004083	0.000952	20.798569
1102.319769	-3.009300	3.621500	-10.896000	24.993024	0.000951	20.803115
1103.321695	-2.995800	3.621300	-10.846000	24.970750	0.000951	20.811577
1104.322201	-3.023800	3.619700	-10.944000	24.977739	0.000951	20.818592
1105.321517	-2.985600	3.620900	-10.810000	24.977642	0.000948	20.804270
1106.323235	-3.000600	3.619300	-10.859000	24.972472	0.000950	20.811883
1107.321909	-2.994600	3.619300	-10.836000	24.954298	0.000949	20.811186
1108.321112	-3.004000	3.617800	-10.866000	24.957460	0.000950	20.803928
1109.324790	-2.998800	3.619100	-10.851000	24.956144	0.000947	20.827263
1110.321261	-2.992800	3.618200	-10.828000	25.017034	0.000947	20.809672
1111.326437	-2.969600	3.619800	-10.749000	25.021436	0.000946	20.802236
1112.325513	-3.014900	3.617100	-10.904000	25.035411	0.000947	20.819109
1113.341442	-2.999700	3.618500	-10.853000	25.041007	0.000945	20.792958
1114.353177	-3.023800	3.617500	-10.938000	25.048567	0.000946	20.783951
1115.348503	-3.005000	3.617700	-10.869000	25.015627	0.000945	20.782181
1116.358868	-3.013100	3.616200	-10.895000	24.993004	0.000946	20.796457
1117.327753	-2.991500	3.617700	-10.820000	25.012972	0.000944	20.801801
1118.328588	-3.007700	3.616300	-10.875000	25.041863	0.000945	20.812783
1119.327866	-2.992000	3.616800	-10.820000	25.045792	0.000946	20.784011
1120.366257	-2.978600	3.618100	-10.776000	25.061530	0.000947	20.785110
1121.326089	-2.982600	3.618300	-10.789000	25.071130	0.000943	20.791428
1122.350845	-2.966100	3.617300	-10.728000	25.079933	0.000944	20.791256
1123.352878	-3.011200	3.614200	-10.882000	25.073071	0.000945	20.779151
1124.348501	-3.000200	3.615900	-10.848000	25.090849	0.000944	20.792730
1125.327601	-2.979100	3.615400	-10.769000	25.091868	0.000943	20.796124
1126.327817	-3.025400	3.614600	-10.935000	25.069373	0.000944	20.802466
1127.328136	-3.002100	3.615000	-10.851000	25.064474	0.000943	20.797548
1128.327165	-3.009600	3.614700	-10.878000	25.045206	0.000943	20.782000
1129.327946	-2.998900	3.613800	-10.837000	25.010525	0.000942	20.785121
1130.327182	-2.960200	3.615200	-10.700000	25.048067	0.000942	20.797674
1131.325916	-2.988200	3.614200	-10.798000	25.076582	0.000941	20.814444
1132.331203	-3.001400	3.613100	-10.844000	25.053960	0.000941	20.794107
1133.347404	-3.004700	3.613100	-10.856000	25.025965	0.000941	20.792558
1134.327552	-3.008000	3.612000	-10.863000	25.011171	0.000940	20.775811
1135.331798	-2.989500	3.612200	-10.797000	25.016169	0.000942	20.790786
1136.330440	-2.999200	3.611900	-10.832000	25.021660	0.000939	20.789185
1137.327886	-3.011100	3.611200	-10.872000	25.045751	0.000938	20.808151
1138.328598	-3.005800	3.610800	-10.852000	25.061213	0.000939	20.782421
1139.336133	-3.003100	3.611600	-10.844000	25.040456	0.000937	20.785767
1140.343315	-2.985300	3.611100	-10.780000	25.063624	0.000938	20.795273
1141.344899	-2.995400	3.610500	-10.814000	25.065563	0.000937	20.803857
1142.345840	-2.986100	3.611600	-10.784000	25.072124	0.000935	20.798115
1143.348359	-3.016600	3.609300	-10.885000	25.068843	0.000937	20.772062
1144.343838	-2.997300	3.610200	-10.820000	25.081522	0.000937	20.780996
1145.354936	-3.029500	3.606600	-10.925000	25.092757	0.000940	20.778524
1146.352813	-3.002200	3.608000	-10.831000	25.094471	0.000935	20.784038
1147.345072	-2.991400	3.610000	-10.798000	25.128701	0.000935	20.792796
1148.355405	-3.008900	3.608700	-10.857000	25.107197	0.000937	20.798710
1149.347668	-3.009700	3.606600	-10.854000	25.106349	0.000937	20.787902
1150.330815	-3.023200	3.607200	-10.902000	25.103340	0.000933	20.789148
1151.333420	-3.009400	3.606900	-10.853000	25.059583	0.000935	20.801648
1152.335657	-3.008300	3.606500	-10.847000	25.047799	0.000935	20.799776
1153.330643	-3.017200	3.605600	-10.877000	25.051228	0.000933	20.800373
1154.333552	-3.020700	3.605600	-10.890000	25.075837	0.000934	20.792360
1155.333552	-3.004400	3.605900	-10.832000	25.095449	0.000931	20.796399
1156.349299	-2.994600	3.605400	-10.795000	25.105217	0.000933	20.783446
1157.347826	-3.000800	3.606700	-10.821000	25.119709	0.000931	20.791356
1158.365928	-3.000200	3.606100	-10.818000	25.150558	0.000931	20.779651
1159.345650	-2.991900	3.606000	-10.788000	25.168007	0.000930	20.811392
1160.364273	-2.992800	3.603400	-10.783000	25.175240	0.000931	20.805852
1161.336742	-3.005000	3.604800	-10.831000	25.174543	0.000930	20.774332
1162.330843	-3.014000	3.602900	-10.858000	25.198628	0.000931	20.803253
1163.333871	-3.017300	3.602700	-10.870000	25.162086	0.000927	20.782215
1164.332040	-3.001400	3.603400	-10.813000	25.138095	0.000929	20.797959
1165.330860	-2.993200	3.603700	-10.784000	25.090413	0.000927	20.770955
1166.360016	-3.013100	3.601800	-10.852000	25.093073	0.000927	20.799705
1167.329831	-3.003700	3.600600	-10.814000	25.067342	0.000927	20.790470
1168.328397	-3.006200	3.601000	-10.823000	25.040092	0.000927	20.801997
1169.361725	-3.005100	3.600700	-10.818000	25.036763	0.000923	20.767835
1170.339028	-2.987900	3.601300	-10.759000	25.035542	0.000926	20.802171
1171.349079	-2.984600	3.601100	-10.746000	25.050109	0.000925	20.784551
1172.332724	-2.999500	3.600100	-10.797000	25.062316	0.000923	20.806287
1173.336234	-3.006500	3.600800	-10.825000	25.099703	0.000922	20.807782
1174.342110	-3.019000	3.599400	-10.865000	25.094481	0.000921	20.778832
1175.348176	-3.003900	3.599600	-10.811000	25.120411	0.000922	20.785422
1176.332248	-3.002500	3.599900	-10.807000	25.150735	0.000921	20.776035
1177.332571	-2.985800	3.599100	-10.745000	25.150535	0.000920	20.802387
1178.330444	-2.976700	3.599300	-10.714000	25.161324	0.000920	20.784768
1179.356895	-2.994000	3.599000	-10.775000	25.183471	0.000918	20.797519
1180.361327	-3.006800	3.598600	-10.819000	25.178226	0.000919	20.790831
1181.352137	-3.005000	3.596800	-10.808000	25.162463	0.000917	20.780696
1182.358428	-3.022900	3.596600	-10.871000	25.141209	0.000915	20.797292
1183.351501	-3.018500	3.595800	-10.852000	25.134743	0.000916	20.788430
1184.349894	-3.004200	3.597500	-10.807000	25.113787	0.000916	20.788730
1185.353173	-2.986700	3.597600	-10.744000	25.122561	0.000917	20.787581
1186.357706	-2.993300	3.597100	-10.767000	25.134992	0.000915	20.792473
1187.350793	-2.990800	3.595800	-10.753000	25.119206	0.000916	20.762875
1188.358364	-3.001100	3.595300	-10.788000	25.129945	0.000914	20.789778
1189.353181	-3.006500	3.596000	-10.811000	25.129869	0.000915	20.781166
1190.349457	-2.998200	3.595200	-10.778000	25.137055	0.000915	20.783638
1191.378579	-2.998300	3.595200	-10.778000	25.132606	0.000914	20.777750
1192.335879	-2.987400	3.594800	-10.738000	25.167058	0.000915	20.785784
1193.336608	-3.003700	3.594200	-10.795000	25.172006	0.000914	20.779845
1194.336040	-3.011100	3.594100	-10.820000	25.165666	0.000914	20.791973
1195.351899	-3.006800	3.594600	-10.806000	25.194552	0.000914	20.774031
1196.364617	-3.024000	3.592700	-10.863000	25.191642	0.000914	20.778222
1197.337111	-3.009100	3.594300	-10.814000	25.172850	0.000914	20.770735
1198.360747	-3.018700	3.592000	-10.842000	25.185552	0.000913	20.778746
1199.356802	-3.024400	3.591200	-10.860000	25.150800	0.000912	20.781315
1200.360010	-2.990500	3.591900	-10.739000	25.118729	0.000912	20.778518
1201.359710	-3.013500	3.591000	-10.821000	25.066873	0.000908	20.776723
1202.359016	-3.015600	3.590800	-10.827000	25.049097	0.000911	20.770733
1203.354291	-2.991500	3.590200	-10.739000	25.019115	0.000910	20.783786
1204.363576	-2.998600	3.589800	-10.763000	25.026199	0.000910	20.760076
1205.353144	-2.993100	3.590400	-10.745000	25.051929	0.000909	20.764093
1206.355987	-2.997000	3.590700	-10.760000	25.082556	0.000909	20.769232
1207.363675	-3.020100	3.588200	-10.835000	25.099387	0.000909	20.767636
1208.357381	-2.996000	3.590800	-10.757000	25.112511	0.000907	20.758999
1209.359781	-3.004500	3.588800	-10.781000	25.151813	0.000906	20.769056
1210.356820	-2.996400	3.589400	-10.755000	25.159892	0.000905	20.759148
1211.341308	-3.002700	3.589800	-10.777000	25.171349	0.000905	20.758797
1212.341811	-2.997500	3.588600	-10.755000	25.180050	0.000903	20.772274
1213.343549	-2.992300	3.588500	-10.737000	25.210972	0.000905	20.789567
1214.342373	-3.002100	3.586900	-10.768000	25.192503	0.000901	20.753955
1215.345941	-3.001600	3.586700	-10.765000	25.167919	0.000902	20.769578
1216.344505	-3.010300	3.587200	-10.797000	25.147114	0.000899	20.787099
1217.364854	-2.997500	3.587600	-10.752000	25.143658	0.000901	20.779362
1218.364322	-2.985600	3.586300	-10.706000	25.105773	0.000899	20.761718
1219.365192	-2.976700	3.587400	-10.677000	25.076240	0.000899	20.753409
1220.361493	-2.982500	3.586700	-10.695000	25.046284	0.000897	20.768383
1221.359131	-3.021700	3.585300	-10.832000	25.044991	0.000896	20.758076
1222.371286	-2.994000	3.585400	-10.733000	25.054240	0.000897	20.763093
1223.366978	-2.985700	3.584900	-10.702000	25.083253	0.000895	20.764716
1224.361422	-3.010000	3.584200	-10.787000	25.077560	0.000896	20.768484
1225.347975	-2.995900	3.584600	-10.737000	25.124546	0.000895	20.751166
1226.368721	-2.999400	3.584600	-10.750000	25.120346	0.000893	20.756433
1227.361730	-2.972300	3.583600	-10.651000	25.146524	0.000894	20.751418
1228.363553	-3.026300	3.583300	-10.843000	25.157263	0.000894	20.765519
1229.364347	-2.994700	3.583700	-10.730000	25.157938	0.000894	20.748652
1230.349504	-2.976100	3.583600	-10.664000	25.157317	0.000893	20.759408
1231.349314	-3.004200	3.582600	-10.762000	25.164478	0.000894	20.763752
1232.379339	-3.004500	3.582000	-10.760000	25.130993	0.000892	20.754793
1233.368633	-3.019300	3.581600	-10.812000	25.109195	0.000893	20.758516
1234.371963	-3.001300	3.582100	-10.749000	25.109814	0.000889	20.758189
1235.364785	-2.991500	3.580200	-10.709000	25.095920	0.000891	20.756569
1236.365980	-3.009000	3.580900	-10.773000	25.096692	0.000890	20.752602
1237.368952	-3.010900	3.580900	-10.781000	25.111833	0.000888	20.738878
1238.364862	-3.002300	3.581100	-10.751000	25.107931	0.000889	20.743021
1239.346958	-2.998200	3.580400	-10.734000	25.105746	0.000889	20.730396
1240.347791	-2.981300	3.578900	-10.669000	25.111711	0.000888	20.730220
1241.350738	-2.984000	3.579600	-10.679000	25.142414	0.000888	20.730696
1242.351967	-3.002000	3.580100	-10.746000	25.123101	0.000887	20.730274
1243.350031	-2.995800	3.579300	-10.721000	25.191365	0.000887	20.732423
1244.356048	-2.997400	3.579100	-10.727000	25.213589	0.000886	20.751891
1245.356989	-3.009500	3.578400	-10.768000	25.206008	0.000885	20.744279
1246.366504	-3.008800	3.577400	-10.761000	25.206830	0.000886	20.762650
1247.355361	-2.999600	3.576300	-10.726000	25.195970	0.000885	20.733727
1248.355831	-2.997900	3.576900	-10.721000	25.207131	0.000885	20.739243
1249.353129	-2.984300	3.577200	-10.674000	25.230647	0.000883	20.761904
1250.355925	-3.003600	3.575800	-10.739000	25.247502	0.000882	20.737574
1251.349123	-2.988000	3.576100	-10.684000	25.242730	0.000884	20.760285
1252.351917	-3.024300	3.575700	-10.812000	25.243899	0.000882	20.733482
1253.355042	-3.018300	3.575600	-10.791000	25.236866	0.000879	20.748234
1254.352499	-3.008200	3.575900	-10.757000	25.254714	0.000881	20.723003
1255.351961	-3.017400	3.574500	-10.785000	25.223372	0.000881	20.733263
1256.352917	-3.011000	3.574800	-10.762000	25.222527	0.000880	20.726724
1257.364138	-2.987200	3.575500	-10.680000	25.205650	0.000881	20.721160
1258.351404	-3.011200	3.573800	-10.761000	25.232972	0.000878	20.720615
1259.356955	-2.993800	3.573700	-10.698000	25.242218	0.000878	20.730372
1260.357955	-3.000100	3.574300	-10.722000	25.217762	0.000877	20.723837
1261.358239	-2.994200	3.573800	-10.700000	25.229372	0.000878	20.739286
1262.366569	-3.020500	3.573800	-10.793000	25.224723	0.000877	20.722290
1263.373992	-2.997600	3.573700	-10.711000	25.263328	0.000877	20.724065
1264.355259	-2.977700	3.572300	-10.636000	25.275186	0.000874	20.737868
1265.382262	-2.986300	3.571900	-10.666000	25.266239	0.000874	20.742162
1266.377406	-2.972100	3.572300	-10.615000	25.277351	0.000878	20.738619
1267.373161	-3.000500	3.572100	-10.717000	25.267584	0.000873	20.721700
1268.374365	-2.975400	3.573300	-10.631000	25.268929	0.000875	20.721627
1269.380226	-2.988100	3.570800	-10.668000	25.286975	0.000873	20.724574
1270.389187	-2.999000	3.570600	-10.708000	25.301766	0.000871	20.725199
1271.372968	-2.974500	3.571300	-10.621000	25.293539	0.000874	20.724526
1272.381626	-2.992900	3.571500	-10.688000	25.292348	0.000871	20.721433
1273.356197	-2.972700	3.571100	-10.614000	25.306816	0.000870	20.745918
1274.354924	-2.997600	3.569000	-10.698000	25.310423	0.000870	20.729150
1275.359443	-2.971300	3.569500	-10.605000	25.320043	0.000870	20.721265
1276.359678	-3.009300	3.567600	-10.735000	25.291310	0.000870	20.724185
1277.357357	-2.991500	3.569000	-10.675000	25.267077	0.000869	20.721665
1278.360385	-3.013900	3.566700	-10.748000	25.285647	0.000868	20.729879
1279.360069	-2.999900	3.567600	-10.701000	25.291116	0.000869	20.708816
1280.357579	-2.998800	3.566100	-10.693000	25.244888	0.000868	20.706973
1281.361192	-3.000700	3.568200	-10.706000	25.260350	0.000868	20.704004
1282.359856	-2.998100	3.568400	-10.697000	25.275388	0.000868	20.730958
1283.357597	-3.016200	3.565200	-10.752000	25.260055	0.000867	20.716511
1284.362457	-2.997400	3.566700	-10.689000	25.295453	0.000867	20.743518
1285.361598	-3.003600	3.567300	-10.713000	25.283996	0.000866	20.705934
1286.365082	-2.978100	3.566000	-10.618000	25.265604	0.000867	20.706435
1287.389637	-3.001400	3.565300	-10.701000	25.260137	0.000866	20.710429
1288.384649	-3.005300	3.566300	-10.717000	25.214329	0.000865	20.710906
1289.387905	-2.997200	3.564100	-10.681000	25.189450	0.000863	20.729078
1290.397942	-3.002400	3.565000	-10.703000	25.231036	0.000864	20.725784
1291.378384	-2.984300	3.564800	-10.637000	25.267252	0.000862	20.718522
1292.384138	-3.004700	3.563000	-10.705000	25.262658	0.000864	20.726237
1293.384480	-2.998200	3.563100	-10.682000	25.236510	0.000863	20.710415
1294.385536	-2.974500	3.564500	-10.602000	25.220054	0.000863	20.701006
1295.383543	-2.992300	3.562900	-10.661000	25.232882	0.000861	20.704876
1296.385935	-3.011200	3.561400	-10.722000	25.259828	0.000861	20.703481
1297.381284	-2.992600	3.562600	-10.660000	25.273425	0.000860	20.714288
1298.389949	-2.978500	3.563200	-10.611000	25.257595	0.000859	20.726370
1299.381849	-3.006100	3.563100	-10.710000	25.220162	0.000860	20.709175
1300.379268	-3.001900	3.563300	-10.696000	25.225211	0.000859	20.724202
1301.372427	-3.012400	3.561100	-10.727000	25.252081	0.000857	20.722730
1302.366603	-3.001400	3.561600	-10.688000	25.286259	0.000858	20.716268
1303.368618	-2.983000	3.561200	-10.621000	25.274180	0.000860	20.716468
1304.370739	-2.988400	3.560100	-10.638000	25.310469	0.000857	20.719713
1305.372187	-3.014100	3.559600	-10.728000	25.291134	0.000856	20.719740
1306.370063	-2.989500	3.560300	-10.642000	25.298146	0.000855	20.712555
1307.367156	-3.000400	3.559900	-10.681000	25.295063	0.000854	20.716572
1308.367710	-3.012400	3.559200	-10.721000	25.293522	0.000853	20.713129
1309.367573	-2.997800	3.558600	-10.666000	25.324196	0.000853	20.729702
1310.390695	-3.003100	3.558600	-10.686000	25.327773	0.000853	20.716699
1311.393757	-2.982100	3.560000	-10.615000	25.303518	0.000852	20.708940
1312.397814	-2.992300	3.557700	-10.645000	25.277616	0.000852	20.712806
1313.386600	-2.996000	3.557700	-10.659000	25.254453	0.000852	20.722267
1314.388587	-3.016300	3.555600	-10.724000	25.248761	0.000851	20.721768
1315.396614	-2.991600	3.557600	-10.641000	25.213266	0.000849	20.729280
1316.399072	-2.982500	3.556300	-10.605000	25.188507	0.000851	20.717699
1317.393573	-3.009600	3.556900	-10.703000	25.198848	0.000849	20.725236
1318.395888	-2.996100	3.557200	-10.656000	25.207796	0.000850	20.717150
1319.394435	-3.014100	3.554000	-10.711000	25.221396	0.000848	20.723692
1320.394638	-2.982300	3.556700	-10.606000	25.214161	0.000848	20.717376
1321.397383	-2.974400	3.555700	-10.575000	25.182295	0.000848	20.726636
1322.395353	-3.016200	3.552600	-10.715000	25.188509	0.000847	20.730978
1323.395430	-3.003600	3.553700	-10.673000	25.149703	0.000847	20.726160
1324.377320	-3.004800	3.552300	-10.673000	25.170388	0.000845	20.726062
1325.375666	-2.972300	3.554400	-10.564000	25.190524	0.000845	20.744382
1326.378376	-3.024100	3.553300	-10.745000	25.178195	0.000845	20.739116
1327.377643	-3.005100	3.553100	-10.676000	25.153387	0.000846	20.746454
1328.382337	-2.983400	3.553000	-10.599000	25.161169	0.000845	20.711591
1329.375908	-3.016700	3.552000	-10.714000	25.147198	0.000843	20.716531
1330.378739	-2.992600	3.553100	-10.631000	25.124927	0.000842	20.741591
1331.377066	-3.000400	3.552400	-10.657000	25.126218	0.000842	20.714910
1332.383052	-3.007400	3.551400	-10.679000	25.132284	0.000841	20.718629
1333.384370	-3.006100	3.550400	-10.671000	25.186500	0.000840	20.709520
1334.376085	-3.023000	3.550800	-10.731000	25.208055	0.000840	20.747283
1335.378780	-3.008200	3.551600	-10.683000	25.258762	0.000840	20.746983
1336.375941	-2.991100	3.551700	-10.622000	25.287198	0.000839	20.743765
1337.377346	-2.991100	3.550900	-10.620000	25.309965	0.000840	20.718259
1338.378294	-3.016400	3.549700	-10.705000	25.324382	0.000838	20.709025
1339.392977	-3.013900	3.549400	-10.697000	25.332163	0.000837	20.735806
1340.400513	-2.998900	3.548800	-10.642000	25.314022	0.000836	20.737506
1341.408349	-3.006400	3.548000	-10.665000	25.270424	0.000836	20.730242
1342.395772	-3.002600	3.546300	-10.647000	25.309972	0.000835	20.751932
1343.409290	-2.988200	3.548900	-10.604000	25.314548	0.000834	20.744673
1344.396942	-3.015300	3.548500	-10.698000	25.336941	0.000836	20.733491
1345.404768	-3.029800	3.546900	-10.745000	25.330604	0.000835	20.721912
1346.412953	-2.997900	3.547300	-10.633000	25.329986	0.000833	20.747845
1347.405308	-2.987600	3.547700	-10.598000	25.343085	0.000832	20.731125
1348.403104	-2.995600	3.547300	-10.626000	25.353674	0.000833	20.752663
1349.393903	-3.001200	3.547000	-10.642000	25.360361	0.000834	20.725238
1350.399705	-3.004000	3.545500	-10.649000	25.385290	0.000832	20.753589
1351.408860	-2.991300	3.545200	-10.604000	25.343561	0.000831	20.741561
1352.396756	-3.002800	3.545000	-10.644000	25.318038	0.000832	20.730632
1353.382795	-2.980400	3.544900	-10.564000	25.319754	0.000830	20.747055
1354.389112	-2.991700	3.544600	-10.604000	25.316149	0.000830	20.725891
1355.395902	-2.992200	3.546100	-10.609000	25.286054	0.000830	20.728390
1356.383213	-2.999200	3.543600	-10.627000	25.292069	0.000829	20.734430
1357.410293	-2.985200	3.544400	-10.579000	25.296893	0.000828	20.734058
1358.409599	-3.007500	3.542100	-10.651000	25.309075	0.000829	20.733961
1359.400434	-3.026400	3.541900	-10.717000	25.342131	0.000828	20.739177
1360.409140	-3.010000	3.541900	-10.659000	25.331322	0.000830	20.738754
1361.403058	-2.988800	3.542000	-10.584000	25.345392	0.000828	20.728225
1362.403581	-2.996300	3.542100	-10.612000	25.376759	0.000826	20.743126
1363.409673	-3.012200	3.541200	-10.665000	25.392967	0.000827	20.723838
1364.403954	-2.984700	3.543000	-10.573000	25.382702	0.000826	20.739136
1365.399202	-3.027700	3.541300	-10.721000	25.378304	0.000826	20.740884
1366.387012	-3.000900	3.541400	-10.626000	25.387602	0.000827	20.735521
1367.391810	-2.996500	3.540200	-10.607000	25.357629	0.000826	20.732927
1368.386345	-2.987300	3.540500	-10.575000	25.391928	0.000825	20.762152
1369.389712	-3.001000	3.539700	-10.622000	25.385369	0.000826	20.749401
1370.382694	-2.997900	3.540500	-10.613000	25.384874	0.000825	20.744637
1371.389913	-2.994500	3.538500	-10.595000	25.416040	0.000825	20.740369
1372.389401	-3.024200	3.537700	-10.697000	25.381994	0.000825	20.734632
1373.388640	-3.018700	3.537400	-10.677000	25.386271	0.000823	20.732762
1374.410966	-2.991400	3.538900	-10.586000	25.376676	0.000824	20.737353
1375.407943	-3.003900	3.538000	-10.627000	25.349959	0.000823	20.751305
1376.419011	-3.011700	3.537600	-10.653000	25.318668	0.000823	20.741223
1377.401954	-2.998200	3.538000	-10.605000	25.296275	0.000821	20.740076
1378.411520	-2.990200	3.537800	-10.577000	25.300328	0.000822	20.751732
1379.404801	-3.001000	3.536600	-10.613000	25.347751	0.000821	20.757623
1380.412217	-2.993000	3.536900	-10.584000	25.372752	0.000821	20.766605
1381.405248	-2.992500	3.536300	-10.581000	25.384731	0.000821	20.734061
1382.415437	-3.022500	3.536000	-10.687000	25.422581	0.000819	20.756895
1383.405138	-3.022100	3.534200	-10.680000	25.421016	0.000818	20.741573
1384.407279	-2.991200	3.534100	-10.570000	25.449446	0.000819	20.744991
1385.408365	-3.004200	3.535700	-10.619000	25.468904	0.000818	20.764058
1386.410505	-2.980500	3.535300	-10.536000	25.444846	0.000818	20.768348
1387.391253	-2.998600	3.533900	-10.595000	25.458292	0.000817	20.752926
1388.389927	-3.005200	3.534000	-10.619000	25.464282	0.000817	20.732387
1389.390583	-3.030200	3.532700	-10.704000	25.464477	0.000815	20.755818
1390.433513	-3.009100	3.532800	-10.629000	25.463731	0.000819	20.762655
1391.416447	-3.021300	3.531900	-10.670000	25.458116	0.000815	20.747060
1392.392526	-2.985000	3.533700	-10.547000	25.447155	0.000816	20.763554
1393.392149	-2.999100	3.531900	-10.592000	25.462213	0.000816	20.752596
1394.427330	-3.001100	3.531600	-10.598000	25.474739	0.000815	20.767546
1395.398924	-2.982500	3.531400	-10.531000	25.457540	0.000814	20.776354
1396.398597	-3.018400	3.530500	-10.655000	25.479409	0.000814	20.753269
1397.400065	-3.006900	3.531600	-10.617000	25.462386	0.000815	20.756563
1398.395027	-3.010200	3.530000	-10.625000	25.465415	0.000814	20.767666
1399.414245	-3.005500	3.530800	-10.611000	25.452589	0.000812	20.780865
1400.399938	-2.998200	3.530600	-10.585000	25.450748	0.000814	20.784232
1401.403081	-2.998500	3.529500	-10.582000	25.463247	0.000813	20.774498
1402.395090	-2.988800	3.530700	-10.550000	25.467373	0.000813	20.780538
1403.401502	-3.016400	3.528900	-10.644000	25.480317	0.000813	20.770303
1404.399758	-3.017400	3.528100	-10.644000	25.481108	0.000812	20.757821
1405.399339	-3.001200	3.527900	-10.587000	25.469898	0.000812	20.763633
1406.417907	-2.990100	3.527900	-10.548000	25.483240	0.000810	20.772764
1407.407156	-3.000500	3.528700	-10.585000	25.476481	0.000809	20.758390
1408.401464	-3.007000	3.527500	-10.606000	25.502821	0.000809	20.791479
1409.402361	-2.997000	3.527600	-10.571000	25.483856	0.000808	20.772434
1410.420366	-3.002300	3.527500	-10.589000	25.489967	0.000806	20.777149
1411.429696	-3.016600	3.527300	-10.639000	25.459298	0.000808	20.790448
1412.415497	-3.006100	3.525900	-10.598000	25.452735	0.000807	20.765364
1413.420077	-2.997400	3.524400	-10.563000	25.457407	0.000805	20.798506
1414.424544	-2.988300	3.525300	-10.534000	25.458748	0.000803	20.786101
1415.419606	-2.997400	3.525000	-10.565000	25.449898	0.000803	20.795232
1416.417349	-2.975600	3.525600	-10.490000	25.467442	0.000803	20.784401
1417.421773	-2.976800	3.525900	-10.495000	25.462768	0.000803	20.809579
1418.423504	-2.990900	3.523400	-10.536000	25.438635	0.000802	20.785819
1419.423224	-3.018400	3.522600	-10.631000	25.427226	0.000802	20.783846
1420.428053	-3.016800	3.524000	-10.629000	25.462489	0.000802	20.783220
1421.433834	-3.014200	3.521000	-10.612000	25.478219	0.000798	20.804706
1422.427552	-2.992900	3.523200	-10.544000	25.474838	0.000797	20.794198
1423.422277	-3.005100	3.521900	-10.582000	25.493178	0.000798	20.815460
1424.424835	-3.009000	3.521300	-10.595000	25.492256	0.000798	20.796991
1425.432035	-3.011400	3.521500	-10.604000	25.499885	0.000796	20.798962
1426.428713	-3.019800	3.521600	-10.634000	25.501623	0.000795	20.793595
1427.429276	-2.999800	3.520700	-10.560000	25.508705	0.000797	20.805449
1428.424270	-3.008300	3.519500	-10.587000	25.494887	0.000796	20.800107
1429.426402	-3.010900	3.519400	-10.595000	25.497446	0.000797	20.789874
1430.424748	-3.035000	3.517900	-10.676000	25.461385	0.000796	20.807242
1431.426526	-3.005100	3.519300	-10.574000	25.468196	0.000795	20.815977
1432.409251	-2.989700	3.519200	-10.521000	25.451146	0.000793	20.819719
1433.424341	-2.994500	3.520100	-10.540000	25.474107	0.000794	20.804844
1434.408662	-3.004800	3.519100	-10.572000	25.487800	0.000793	20.798680
1435.412545	-2.996200	3.519500	-10.543000	25.497666	0.000793	20.809536
1436.417510	-3.000100	3.517100	-10.551000	25.501093	0.000795	20.799701
1437.411814	-3.000700	3.518100	-10.556000	25.526836	0.000794	20.792363
1438.417840	-3.003800	3.517700	-10.565000	25.495301	0.000793	20.803842
1439.414412	-3.007800	3.517200	-10.578000	25.466323	0.000792	20.806511
1440.410789	-2.969900	3.517900	-10.446000	25.445842	0.000792	20.813919
1441.415675	-3.012300	3.516200	-10.591000	25.419645	0.000793	20.804208
1442.423666	-2.984900	3.517200	-10.497000	25.440720	0.000791	20.814939
1443.418458	-3.023500	3.515700	-10.629000	25.459479	0.000790	20.813863
1444.418977	-3.010400	3.515000	-10.580000	25.450333	0.000791	20.819376
1445.431000	-3.022000	3.514200	-10.619000	25.465514	0.000789	20.820871
1446.432986	-2.990900	3.514200	-10.510000	25.451770	0.000789	20.813233
1447.431555	-2.982700	3.514700	-10.482000	25.426492	0.000789	20.812980
1448.433451	-3.005200	3.513300	-10.556000	25.438344	0.000786	20.839580
1449.430326	-2.976100	3.514600	-10.458000	25.433272	0.000788	20.817417
1450.436141	-2.999000	3.514000	-10.536000	25.432474	0.000788	20.807607
1451.430130	-2.977400	3.513300	-10.459000	25.451085	0.000786	20.822028
1452.443042	-3.026300	3.512400	-10.628000	25.448771	0.000787	20.823024
1453.446141	-3.018600	3.512000	-10.600000	25.456398	0.000784	20.851070
1454.439196	-3.001700	3.512900	-10.543000	25.454285	0.000784	20.832353
1455.437646	-2.996400	3.512100	-10.522000	25.486862	0.000784	20.820972
1456.413888	-2.990100	3.512300	-10.502000	25.483605	0.000786	20.838089
1457.439131	-3.008800	3.510000	-10.560000	25.463576	0.000784	20.842631
1458.435130	-3.016900	3.510300	-10.590000	25.469811	0.000784	20.832772
1459.445297	-2.996800	3.510400	-10.519000	25.465112	0.000783	20.821889
1460.434417	-3.012100	3.510700	-10.574000	25.435063	0.000783	20.831070
1461.416242	-2.983300	3.510800	-10.473000	25.418759	0.000785	20.840302
1462.437677	-2.986100	3.510600	-10.482000	25.408319	0.000783	20.843095
1463.448917	-3.003800	3.510700	-10.544000	25.418184	0.000781	20.844466
1464.439434	-3.007600	3.509100	-10.553000	25.441917	0.000781	20.835581
1465.441426	-2.983500	3.509000	-10.468000	25.446711	0.000780	20.848455
1466.443369	-3.004100	3.507300	-10.535000	25.455260	0.000781	20.836652
1467.432066	-2.982500	3.506400	-10.457000	25.486023	0.000780	20.847629
1468.434513	-3.002700	3.507000	-10.530000	25.496236	0.000781	20.845083
1469.437074	-3.011400	3.508900	-10.564000	25.490046	0.000780	20.845505
1470.439767	-2.965300	3.509600	-10.404000	25.500184	0.000779	20.856634
1471.434058	-2.984700	3.507300	-10.466000	25.466833	0.000778	20.863919
1472.492058	-2.997300	3.507100	-10.511000	25.471454	0.000778	20.843430
1473.440547	-3.010100	3.505100	-10.550000	25.450528	0.000776	20.848495
1474.440547	-2.991400	3.506400	-10.488000	25.426370	0.000776	20.830875
1475.445543	-2.992600	3.506400	-10.491000	25.426318	0.000778	20.860694
1476.445625	-3.016400	3.505000	-10.572000	25.425201	0.000776	20.866209
1477.421572	-3.009000	3.506100	-10.549000	25.409142	0.000778	20.856249
1478.439561	-3.000900	3.504800	-10.517000	25.407278	0.000778	20.852006
1479.444329	-3.016700	3.504800	-10.572000	25.383990	0.000777	20.853752
1480.439157	-3.004600	3.503400	-10.525000	25.384905	0.000777	20.845189
1481.432192	-3.002300	3.503000	-10.516000	25.358187	0.000775	20.859611
1482.442329	-2.989000	3.502400	-10.468000	25.332709	0.000774	20.870539
1483.445201	-3.014600	3.500900	-10.553000	25.299454	0.000775	20.858013
1484.443645	-2.992600	3.501400	-10.477000	25.342748	0.000774	20.861653
1485.464297	-3.011300	3.501300	-10.541000	25.366233	0.000775	20.857734
1486.448179	-2.986400	3.501600	-10.457000	25.383604	0.000773	20.850520
1487.441562	-2.996600	3.500800	-10.490000	25.395430	0.000774	20.855282
1488.445459	-2.993100	3.501200	-10.478000	25.363491	0.000773	20.873471
1489.441760	-2.999000	3.500800	-10.498000	25.391898	0.000773	20.852210
1490.449511	-2.986400	3.501400	-10.456000	25.410335	0.000773	20.876411
1491.445429	-3.011200	3.498600	-10.534000	25.440603	0.000772	20.868873
1492.446258	-2.972600	3.498600	-10.399000	25.477231	0.000773	20.883842
1493.425237	-3.002100	3.499600	-10.505000	25.483118	0.000772	20.871263
1494.428907	-2.988000	3.498900	-10.454000	25.484928	0.000774	20.856961
1495.433896	-2.993400	3.499100	-10.473000	25.497675	0.000772	20.882561
1496.427637	-3.009300	3.497400	-10.524000	25.510021	0.000769	20.874098
1497.428326	-2.991300	3.497200	-10.460000	25.535266	0.000769	20.888543
1498.425538	-2.995200	3.496800	-10.472000	25.543563	0.000769	20.882177
1499.425997	-3.005600	3.497700	-10.512000	25.549549	0.000770	20.870645
1500.429993	-3.028700	3.496100	-10.587000	25.525663	0.000768	20.884590
1501.431173	-3.004100	3.496500	-10.503000	25.509658	0.000765	20.896965
1502.431674	-3.014700	3.494400	-10.533000	25.547253	0.000768	20.896313
1503.432539	-2.996400	3.496300	-10.476000	25.554856	0.000768	20.881665
1504.434902	-2.983900	3.494500	-10.426000	25.544489	0.000766	20.900649
1505.426470	-2.991600	3.495600	-10.457000	25.531389	0.000767	20.896028
1506.427861	-3.024400	3.493700	-10.564000	25.529548	0.000766	20.895602
1507.426302	-2.991400	3.494900	-10.453000	25.502085	0.000764	20.908325
1508.430359	-3.000400	3.493900	-10.483000	25.478399	0.000763	20.889756
1509.427328	-2.994600	3.494800	-10.464000	25.450539	0.000762	20.895918
1510.430188	-2.995300	3.492900	-10.462000	25.447504	0.000763	20.887656
1511.431553	-2.992800	3.493700	-10.455000	25.406570	0.000763	20.907716
1512.435990	-2.949600	3.493500	-10.304000	25.412159	0.000763	20.899578
1513.437367	-3.027400	3.491800	-10.570000	25.463549	0.000760	20.907559
1514.434716	-2.985500	3.492200	-10.424000	25.481564	0.000763	20.909054
1515.431729	-2.987300	3.491800	-10.429000	25.508198	0.000760	20.901188
1516.430096	-3.004600	3.491300	-10.489000	25.516722	0.000759	20.897420
1517.432242	-2.998800	3.489300	-10.462000	25.476908	0.000760	20.919076
1518.433931	-3.014000	3.489500	-10.516000	25.485876	0.000759	20.912435
1519.431166	-2.985700	3.489200	-10.417000	25.491986	0.000759	20.915252
1520.433051	-3.012200	3.488600	-10.507000	25.493126	0.000757	20.897433
1521.430619	-3.004800	3.489000	-10.482000	25.520209	0.000756	20.929369
1522.434240	-3.025900	3.488100	-10.553000	25.530395	0.000757	20.922529
1523.431274	-3.009300	3.488100	-10.496000	25.522812	0.000759	20.921552
1524.438365	-3.016700	3.487400	-10.519000	25.504993	0.000758	20.919304
1525.436585	-3.005300	3.487600	-10.479000	25.503796	0.000755	20.907672
1526.431246	-3.003800	3.487300	-10.474000	25.513607	0.000755	20.926058
1527.431353	-2.987000	3.488500	-10.419000	25.514723	0.000756	20.933342
1528.433062	-3.014300	3.487100	-10.510000	25.517229	0.000755	20.945814
1529.430909	-2.984600	3.485200	-10.401000	25.538921	0.000754	20.931565
1530.430346	-2.977600	3.486400	-10.380000	25.558028	0.000753	20.919934
1531.432239	-2.986700	3.485300	-10.409000	25.576139	0.000753	20.930061
1532.434208	-2.977000	3.486200	-10.377000	25.604092	0.000752	20.931581
1533.435949	-2.997000	3.484500	-10.443000	25.612091	0.000751	20.921125
1534.430422	-2.996600	3.483700	-10.438000	25.633756	0.000751	20.936717
1535.434844	-2.988000	3.484900	-10.412000	25.656885	0.000751	20.934343
1536.433358	-3.007700	3.482400	-10.473000	25.658348	0.000751	20.938657
1537.439069	-2.988000	3.484200	-10.410000	25.683789	0.000750	20.947139
1538.437914	-3.001100	3.483300	-10.453000	25.682345	0.000751	20.953274
1539.436697	-2.982600	3.483500	-10.389000	25.649869	0.000750	20.927297
1540.440885	-3.015600	3.481400	-10.498000	25.667856	0.000746	20.938724
1541.442537	-3.005900	3.481700	-10.465000	25.646062	0.000748	20.937698
1542.435156	-2.996600	3.481600	-10.431000	25.623600	0.000746	20.934104
1543.433962	-3.006300	3.480900	-10.463000	25.604638	0.000748	20.953938
1544.467404	-3.004100	3.481300	-10.458000	25.593330	0.000747	20.937368
1545.440126	-2.996300	3.480900	-10.428000	25.594172	0.000745	20.941058
1546.434422	-2.969400	3.480900	-10.334000	25.615168	0.000746	20.933223
1547.444435	-2.987200	3.480000	-10.394000	25.559158	0.000744	20.951411
1548.440364	-2.992800	3.481100	-10.418000	25.543724	0.000746	20.945395
1549.442700	-2.999600	3.479800	-10.437000	25.537436	0.000744	20.948563
1550.443117	-3.008000	3.478800	-10.463000	25.483013	0.000742	20.948911
1551.443969	-3.001000	3.477900	-10.437000	25.467157	0.000739	20.959540
1552.441572	-2.991800	3.478900	-10.408000	25.478660	0.000744	20.954971
1553.441908	-3.001000	3.478800	-10.439000	25.460320	0.000743	20.960734
1554.441708	-3.004900	3.478200	-10.451000	25.448911	0.000743	20.922731
1555.448469	-3.021400	3.476500	-10.503000	25.413942	0.000743	20.936452
1556.443512	-2.994200	3.476700	-10.409000	25.442945	0.000740	20.944238
1557.442647	-2.985400	3.477300	-10.380000	25.457406	0.000741	20.938371
1558.446581	-2.988500	3.476000	-10.387000	25.499329	0.000741	20.932107
1559.441522	-2.990200	3.476400	-10.395000	25.527135	0.000740	20.951494
1560.444657	-2.987300	3.474600	-10.378000	25.536301	0.000741	20.941260
1561.447013	-2.993400	3.475400	-10.403000	25.535481	0.000738	20.932850
1562.442144	-2.993100	3.474000	-10.397000	25.554789	0.000738	20.928060
1563.447757	-2.987100	3.475000	-10.379000	25.582070	0.000737	20.918475
1564.447238	-2.968800	3.475100	-10.315000	25.566761	0.000739	20.932022
1565.444853	-2.992900	3.473200	-10.394000	25.565665	0.000736	20.936611
1566.448067	-2.990400	3.474500	-10.389000	25.583283	0.000736	20.916374
1567.446441	-3.005300	3.472100	-10.434000	25.576175	0.000736	20.934838
1568.448917	-3.007800	3.472700	-10.443000	25.591829	0.000735	20.939179
1569.452385	-3.010500	3.473000	-10.454000	25.550975	0.000735	20.933713
1570.452474	-3.003000	3.471600	-10.424000	25.559598	0.000734	20.915821
1571.462110	-2.977100	3.472900	-10.339000	25.524880	0.000733	20.922206
1572.450827	-2.986700	3.472300	-10.369000	25.533974	0.000733	20.918063
1573.452209	-3.012200	3.469400	-10.449000	25.534073	0.000733	20.934756
1574.450048	-3.000100	3.469700	-10.408000	25.556736	0.000733	20.915318
1575.453293	-3.002400	3.471000	-10.420000	25.513271	0.000732	20.929039
1576.457842	-2.996900	3.469300	-10.396000	25.506263	0.000730	20.926743
1577.449086	-3.003300	3.469200	-10.417000	25.498559	0.000731	20.922800
1578.451239	-3.029200	3.467200	-10.501000	25.464785	0.000729	20.910223
1579.450619	-2.995900	3.468500	-10.390000	25.450546	0.000729	20.919156
1580.447532	-3.003400	3.468500	-10.416000	25.435309	0.000726	20.932304
1581.450128	-3.005600	3.468000	-10.422000	25.439162	0.000728	20.900141
1582.456414	-3.011400	3.466500	-10.438000	25.444305	0.000728	20.892504
1583.451296	-3.021600	3.466800	-10.473000	25.488962	0.000729	20.913639
1584.448975	-3.003500	3.466300	-10.409000	25.530139	0.000727	20.902834
1585.447571	-3.028900	3.464600	-10.493000	25.542714	0.000726	20.929209
1586.452390	-3.012800	3.466500	-10.443000	25.565574	0.000725	20.915185
1587.450658	-2.993800	3.466800	-10.378000	25.629188	0.000724	20.927863
1588.449470	-2.998000	3.465700	-10.388000	25.644467	0.000725	20.900538
1589.450222	-2.990300	3.464700	-10.358000	25.642083	0.000725	20.885817
1590.460394	-2.999200	3.465800	-10.393000	25.660145	0.000723	20.918653
1591.454090	-3.001400	3.464900	-10.398000	25.654855	0.000722	20.911918
1592.451993	-3.014600	3.464200	-10.442000	25.632517	0.000724	20.908450
1593.456113	-3.001800	3.463100	-10.395000	25.597753	0.000725	20.901037
1594.455156	-3.005300	3.463200	-10.407000	25.577952	0.000724	20.900590
1595.450890	-2.998700	3.462900	-10.383000	25.539286	0.000724	20.905855
1596.455684	-2.985100	3.463800	-10.339000	25.527309	0.000722	20.896673
1597.457729	-3.009700	3.462400	-10.420000	25.534117	0.000720	20.893079
1598.454260	-3.001300	3.462400	-10.391000	25.549772	0.000721	20.905955
1599.458200	-3.013300	3.459500	-10.423000	25.595073	0.000719	20.904983
1600.458344	-2.982200	3.461600	-10.323000	25.592962	0.000720	20.885320
1601.455189	-3.011000	3.461200	-10.421000	25.602156	0.000720	20.911622
1602.456540	-2.983300	3.460500	-10.323000	25.600169	0.000718	20.883076
1603.459213	-2.971500	3.461000	-10.284000	25.611275	0.000719	20.894703
1604.459205	-2.992600	3.458600	-10.350000	25.630732	0.000718	20.880106
1605.456718	-3.005800	3.458700	-10.395000	25.632473	0.000718	20.905561
1606.462996	-2.998300	3.459200	-10.371000	25.625443	0.000718	20.906086
1607.463404	-3.000000	3.458900	-10.376000	25.587349	0.000718	20.877787
1608.459694	-3.011100	3.459100	-10.414000	25.556190	0.000717	20.877314
1609.463937	-3.014700	3.456900	-10.421000	25.478334	0.000716	20.865037
1610.459825	-3.004800	3.456900	-10.386000	25.429328	0.000715	20.865612
1611.468837	-2.985400	3.458400	-10.324000	25.401344	0.000714	20.885401
1612.460464	-3.000600	3.456800	-10.371000	25.419785	0.000717	20.872150
1613.461133	-3.005400	3.456700	-10.387000	25.428012	0.000715	20.878514
1614.474914	-3.008500	3.454900	-10.393000	25.433430	0.000715	20.873524
1615.463619	-2.985800	3.456100	-10.319000	25.433977	0.000712	20.871228
1616.463861	-2.995600	3.455000	-10.348000	25.441507	0.000715	20.878315
1617.462486	-3.029300	3.455100	-10.466000	25.468621	0.000712	20.883257
1618.460554	-3.002700	3.455300	-10.374000	25.477146	0.000711	20.877594
1619.461706	-3.020700	3.453700	-10.430000	25.510620	0.000712	20.857631
1620.460495	-2.999800	3.453300	-10.359000	25.490614	0.000712	20.900600
1621.460742	-2.990500	3.453300	-10.326000	25.503290	0.000710	20.866864
1622.462354	-3.016900	3.453400	-10.418000	25.518722	0.000710	20.852965
1623.460598	-3.001100	3.452900	-10.361000	25.542379	0.000710	20.880514
1624.462944	-2.995400	3.453400	-10.343000	25.530179	0.000709	20.874427
1625.463251	-2.985800	3.451600	-10.305000	25.508683	0.000708	20.860901
1626.462466	-2.996000	3.452500	-10.343000	25.506398	0.000708	20.866667
1627.463568	-2.977600	3.452100	-10.278000	25.482866	0.000708	20.871484
1628.464972	-3.008100	3.450500	-10.378000	25.497751	0.000709	20.861776
1629.464932	-3.012400	3.452600	-10.399000	25.502398	0.000706	20.887304
1630.466092	-3.003900	3.449800	-10.361000	25.534978	0.000705	20.856013
1631.465493	-3.016400	3.449600	-10.405000	25.528492	0.000706	20.869413
1632.464660	-2.999100	3.452500	-10.353000	25.520143	0.000704	20.861504
1633.466305	-3.009700	3.449100	-10.380000	25.534060	0.000703	20.848454
1634.469191	-2.993100	3.450500	-10.326000	25.560699	0.000704	20.859085
1635.474996	-2.992100	3.449400	-10.320000	25.547705	0.000704	20.848881
1636.465883	-3.020400	3.448200	-10.414000	25.529566	0.000703	20.857690
1637.466828	-3.005100	3.447600	-10.359000	25.528920	0.000704	20.857516
1638.466725	-2.997900	3.447000	-10.332000	25.504021	0.000704	20.849108
1639.469212	-2.990200	3.447800	-10.309000	25.508718	0.000703	20.835333
1640.466254	-3.033500	3.445300	-10.450000	25.518063	0.000704	20.871269
1641.463719	-2.992400	3.447400	-10.315000	25.549400	0.000704	20.842997
1642.465313	-2.997300	3.446600	-10.330000	25.567565	0.000700	20.848437
1643.464631	-2.978300	3.446200	-10.262000	25.588042	0.000703	20.847191
1644.467745	-3.008500	3.445500	-10.364000	25.592514	0.000703	20.866380
1645.471836	-3.001600	3.444400	-10.338000	25.602554	0.000701	20.854178
1646.466988	-3.015100	3.444100	-10.384000	25.596963	0.000700	20.849512
1647.469567	-2.994600	3.444200	-10.313000	25.615997	0.000699	20.845395
1648.469944	-2.989500	3.445700	-10.300000	25.631999	0.000698	20.846294
1649.469874	-3.018400	3.443000	-10.391000	25.670239	0.000700	20.834914
1650.467523	-3.006500	3.444100	-10.353000	25.668300	0.000697	20.834863
1651.471590	-3.023500	3.444000	-10.412000	25.679978	0.000699	20.839954
1652.468712	-2.999500	3.442200	-10.323000	25.683480	0.000698	20.838257
1653.465782	-3.006000	3.442600	-10.348000	25.676498	0.000697	20.855899
1654.472154	-2.991400	3.442600	-10.297000	25.646159	0.000695	20.850084
1655.465963	-2.970600	3.443000	-10.227000	25.637860	0.000699	20.813300
1656.463627	-2.984000	3.440400	-10.264000	25.632492	0.000696	20.854848
1657.467426	-2.999300	3.441400	-10.321000	25.623150	0.000695	20.833613
1658.466019	-2.999600	3.439300	-10.315000	25.644517	0.000696	20.827573
1659.466909	-3.006900	3.440700	-10.345000	25.645635	0.000696	20.838652
1660.469800	-2.986900	3.440900	-10.276000	25.668369	0.000695	20.833985
1661.467642	-2.998000	3.440300	-10.313000	25.692891	0.000694	20.854347
1662.476907	-3.004800	3.439500	-10.333000	25.682332	0.000696	20.846586
1663.471125	-3.015300	3.439400	-10.369000	25.689265	0.000692	20.840273
1664.472920	-3.015000	3.437000	-10.362000	25.710183	0.000693	20.837102
1665.473389	-2.997600	3.439600	-10.310000	25.684094	0.000694	20.837450
1666.472620	-3.011400	3.437800	-10.352000	25.682329	0.000694	20.851799
1667.475122	-2.991000	3.438700	-10.285000	25.642798	0.000692	20.821578
1668.482086	-3.000000	3.436700	-10.308000	25.612085	0.000693	20.848104
1669.474894	-2.985500	3.437400	-10.261000	25.537167	0.000689	20.819806
1670.469722	-2.995500	3.437500	-10.296000	25.530133	0.000691	20.821277
1671.469177	-3.002400	3.436500	-10.316000	25.536319	0.000690	20.823696
1672.483774	-3.003800	3.435200	-10.317000	25.532840	0.000691	20.815936
1673.475814	-2.998300	3.435900	-10.301000	25.537984	0.000689	20.820627
1674.472394	-3.001200	3.435600	-10.310000	25.548246	0.000689	20.805329
1675.470311	-3.001300	3.434100	-10.306000	25.558310	0.000688	20.839616
1676.485007	-3.007100	3.434800	-10.329000	25.570859	0.000688	20.826141
1677.478873	-2.994100	3.434000	-10.280000	25.534678	0.000687	20.830583
1678.473321	-3.027800	3.432300	-10.391000	25.530726	0.000687	20.819976
1679.477613	-2.997000	3.432900	-10.287000	25.500036	0.000686	20.815709
1680.471272	-2.988800	3.433600	-10.260000	25.530701	0.000686	20.825641
1681.471812	-2.978600	3.433100	-10.225000	25.539125	0.000686	20.820825
1682.472938	-2.978300	3.432800	-10.223000	25.578113	0.000686	20.824892
1683.473664	-2.989200	3.431400	-10.257000	25.615285	0.000686	20.825714
1684.473861	-3.003300	3.431500	-10.304000	25.632504	0.000686	20.822619
1685.474520	-2.987500	3.431100	-10.249000	25.626142	0.000683	20.810066
1686.479153	-2.999100	3.431000	-10.289000	25.663014	0.000684	20.826235
1687.479968	-2.986200	3.431100	-10.244000	25.637894	0.000683	20.824713
1688.474601	-2.998200	3.431100	-10.286000	25.643980	0.000685	20.811386
1689.476527	-3.006900	3.430000	-10.313000	25.652278	0.000685	20.821143
1690.485610	-2.972400	3.430200	-10.194000	25.641095	0.000683	20.821291
1691.488353	-3.004000	3.428400	-10.298000	25.619527	0.000683	20.809112
1692.483745	-2.974800	3.429600	-10.201000	25.618954	0.000682	20.817546
1693.485498	-3.010100	3.428100	-10.318000	25.602057	0.000683	20.806266
1694.481513	-2.990500	3.428700	-10.253000	25.601359	0.000681	20.837333
1695.487498	-3.021000	3.426300	-10.351000	25.583594	0.000681	20.813801
1696.485366	-2.982300	3.427700	-10.221000	25.587792	0.000680	20.833190
1697.480471	-3.006900	3.426200	-10.301000	25.626131	0.000682	20.797253
1698.484550	-2.990900	3.427000	-10.248000	25.616788	0.000681	20.803990
1699.486959	-3.027000	3.426900	-10.371000	25.645287	0.000680	20.806535
1700.483628	-2.987300	3.425900	-10.232000	25.635024	0.000679	20.812348
1701.491029	-2.997600	3.424600	-10.264000	25.625133	0.000679	20.829915
1702.483726	-3.004300	3.424100	-10.286000	25.611193	0.000677	20.821130
1703.481469	-2.994800	3.424800	-10.256000	25.617055	0.000678	20.801414
1704.486945	-2.980500	3.426400	-10.212000	25.646647	0.000679	20.826867
1705.492841	-3.018400	3.423200	-10.332000	25.629477	0.000677	20.811045
1706.489589	-3.008700	3.424200	-10.301000	25.638147	0.000676	20.821649
1707.485720	-3.008600	3.421700	-10.293000	25.663862	0.000677	20.817130
1708.490930	-2.990500	3.423300	-10.236000	25.660258	0.000674	20.801657
1709.489297	-3.001600	3.422300	-10.272000	25.669699	0.000675	20.801182
1710.489552	-3.012500	3.422700	-10.311000	25.687288	0.000673	20.804150
1711.486688	-2.987900	3.422500	-10.225000	25.685476	0.000674	20.806597
1712.500503	-2.986900	3.421700	-10.220000	25.732456	0.000670	20.819645
1713.487377	-3.002300	3.421300	-10.271000	25.737375	0.000673	20.824111
1714.492028	-2.994700	3.422600	-10.249000	25.769573	0.000671	20.808564
1715.499845	-2.979500	3.420400	-10.190000	25.774812	0.000670	20.819042
1716.487673	-2.967000	3.422800	-10.155000	25.766266	0.000670	20.806665
1717.487021	-2.991300	3.421500	-10.233000	25.772550	0.000671	20.814399
1718.487450	-2.987100	3.421200	-10.219000	25.747705	0.000669	20.807461
1719.488370	-2.992100	3.420500	-10.233000	25.760200	0.000669	20.807210
1720.490337	-3.026100	3.419100	-10.345000	25.724001	0.000669	20.801195
1721.489908	-2.982200	3.419000	-10.195000	25.685438	0.000670	20.820783
1722.498630	-2.992100	3.418800	-10.229000	25.640964	0.000668	20.801719
1723.499561	-2.993000	3.418100	-10.230000	25.603964	0.000667	20.801542
1724.490230	-2.979200	3.418000	-10.182000	25.613779	0.000665	20.813771
1725.495556	-2.990100	3.417800	-10.219000	25.647470	0.000667	20.787391
1726.491148	-2.998400	3.418700	-10.250000	25.631071	0.000666	20.787041
1727.495977	-3.007300	3.417100	-10.276000	25.650650	0.000666	20.816189
1728.498976	-3.001600	3.416700	-10.254000	25.636363	0.000664	20.804685
1729.498855	-2.984900	3.416700	-10.197000	25.620934	0.000664	20.802464
1730.494915	-3.009200	3.416000	-10.279000	25.606520	0.000664	20.769496
1731.506387	-2.993800	3.416500	-10.227000	25.610621	0.000664	20.800168
1732.496043	-2.975000	3.416100	-10.162000	25.645607	0.000662	20.798796
1733.492018	-2.993200	3.415000	-10.220000	25.658726	0.000663	20.794429
1734.494302	-2.986600	3.415000	-10.198000	25.690181	0.000661	20.794253
1735.495128	-2.992700	3.414200	-10.217000	25.680243	0.000663	20.791383
1736.491148	-2.995500	3.413900	-10.225000	25.713189	0.000661	20.796025
1737.494910	-2.967000	3.415600	-10.132000	25.692492	0.000660	20.782824
1738.502110	-2.999800	3.416100	-10.246000	25.697313	0.000659	20.792408
1739.501382	-3.028800	3.411800	-10.332000	25.704617	0.000660	20.792157
1740.500193	-2.985600	3.413600	-10.190000	25.703151	0.000660	20.812970
1741.499626	-3.005400	3.412000	-10.252000	25.703946	0.000660	20.795276
1742.495992	-2.992600	3.411400	-10.208000	25.701587	0.000659	20.784846
1743.496269	-3.019300	3.411400	-10.299000	25.687002	0.000661	20.787741
1744.495741	-3.004300	3.410400	-10.244000	25.677933	0.000657	20.790486
1745.496006	-3.000400	3.411300	-10.235000	25.655296	0.000658	20.799519
1746.501699	-2.981800	3.411700	-10.171000	25.645856	0.000658	20.784347
1747.499279	-3.010500	3.410000	-10.265000	25.625085	0.000659	20.774391
1748.501182	-3.003600	3.409200	-10.239000	25.634403	0.000657	20.777111
1749.499688	-2.995600	3.408100	-10.208000	25.648964	0.000657	20.803115
1750.502846	-2.984200	3.410800	-10.178000	25.645783	0.000657	20.787118
1751.499843	-2.997800	3.408900	-10.218000	25.650105	0.000657	20.783399
1752.501346	-3.001100	3.408200	-10.227000	25.674853	0.000655	20.779806
1753.503368	-3.019600	3.408400	-10.290000	25.665809	0.000656	20.791111
1754.500870	-2.988500	3.409800	-10.189000	25.673337	0.000654	20.784448
1755.506159	-2.997900	3.408500	-10.218000	25.694803	0.000656	20.781351
1756.503052	-2.981400	3.407800	-10.158000	25.689187	0.000654	20.792307
1757.500399	-3.010100	3.405900	-10.251000	25.686751	0.000654	20.764255
1758.500672	-3.009500	3.405500	-10.247000	25.708914	0.000654	20.772291
1759.501919	-3.011900	3.406400	-10.259000	25.654003	0.000655	20.780201
1760.501764	-3.018100	3.405100	-10.276000	25.655269	0.000653	20.779102
1761.502255	-2.986300	3.405200	-10.168000	25.639738	0.000653	20.770616
1762.503582	-3.005400	3.405600	-10.234000	25.664436	0.000651	20.778352
1763.511546	-3.012300	3.405500	-10.258000	25.650421	0.000651	20.779448
1764.506870	-3.013200	3.403700	-10.255000	25.660558	0.000652	20.801010
1765.504489	-3.025700	3.402600	-10.293000	25.665177	0.000651	20.785735
1766.507465	-3.010500	3.405300	-10.250000	25.651064	0.000650	20.773930
1767.507154	-3.005400	3.403300	-10.227000	25.667833	0.000652	20.792196
1768.510664	-3.020900	3.402400	-10.276000	25.686740	0.000650	20.769934
1769.508915	-3.000900	3.402400	-10.209000	25.705721	0.000648	20.794215
1770.504978	-3.010200	3.402500	-10.242000	25.706441	0.000648	20.778816
1771.508079	-3.006800	3.402100	-10.228000	25.756529	0.000648	20.778866
1772.544678	-2.995300	3.403100	-10.192000	25.716626	0.000648	20.770080
1773.509287	-3.010900	3.401400	-10.240000	25.787134	0.000647	20.778314
1774.505409	-2.986700	3.402000	-10.160000	25.805170	0.000646	20.777465
1775.508425	-2.989100	3.401700	-10.167000	25.816374	0.000646	20.771175
1776.509807	-2.992300	3.400600	-10.175000	25.818683	0.000644	20.776340
1777.508559	-3.001500	3.400800	-10.207000	25.813017	0.000644	20.797676
1778.505305	-2.986000	3.400700	-10.152000	25.816941	0.000644	20.795928
1779.508505	-3.002400	3.399800	-10.207000	25.827250	0.000645	20.774989
1780.512506	-3.020200	3.400500	-10.268000	25.841584	0.000642	20.797923
1781.510813	-3.003600	3.399600	-10.209000	25.846279	0.000640	20.786044
1782.514470	-3.006500	3.398900	-10.218000	25.863545	0.000642	20.782525
1783.510444	-3.001400	3.399000	-10.201000	25.834453	0.000642	20.786018
1784.510769	-2.980200	3.399000	-10.128000	25.882721	0.000640	20.779504
1785.510722	-2.997500	3.398800	-10.187000	25.864835	0.000640	20.766751
1786.509140	-3.006700	3.398000	-10.216000	25.881875	0.000639	20.784344
1787.513165	-3.000600	3.397600	-10.194000	25.876807	0.000638	20.758864
1788.512293	-3.000500	3.395500	-10.186000	25.899164	0.000637	20.776108
1789.514018	-3.003500	3.397700	-10.204000	25.882769	0.000637	20.781922
1790.515446	-2.998000	3.398700	-10.188000	25.913347	0.000635	20.781821
1791.514257	-2.997900	3.395600	-10.179000	25.894691	0.000636	20.758811
1792.517529	-2.989100	3.394900	-10.147000	25.907112	0.000636	20.793576
1793.516982	-3.008000	3.395200	-10.212000	25.882967	0.000634	20.773586
1794.519422	-2.998700	3.395600	-10.181000	25.913697	0.000635	20.772689
1795.518009	-3.009600	3.395100	-10.218000	25.931160	0.000632	20.768422
1796.518487	-3.000400	3.393100	-10.179000	25.927409	0.000633	20.785990
1797.514785	-3.002400	3.393300	-10.186000	25.917075	0.000634	20.774186
1798.522299	-3.012300	3.392900	-10.220000	25.913348	0.000632	20.766175
1799.518042	-2.982400	3.393400	-10.120000	25.898420	0.000631	20.760186
1800.516297	-2.994000	3.394600	-10.161000	25.906319	0.000630	20.788512
1801.521231	-3.015100	3.391900	-10.225000	25.919164	0.000630	20.772492
1802.517791	-2.977200	3.392600	-10.100000	25.917648	0.000630	20.794203
1803.516518	-2.982800	3.392600	-10.119000	25.917824	0.000629	20.764507
1804.517927	-2.998900	3.392200	-10.172000	25.936554	0.000629	20.770522
1805.519999	-2.973400	3.392100	-10.085000	25.928357	0.000628	20.774141
1806.518709	-2.995200	3.391000	-10.156000	25.914421	0.000628	20.779107
1807.518352	-2.999000	3.390600	-10.167000	25.879719	0.000627	20.768902
1808.524558	-2.988100	3.391100	-10.132000	25.899668	0.000625	20.761441
1809.520626	-3.022700	3.390200	-10.246000	25.879696	0.000626	20.784525
1810.519725	-3.022000	3.388800	-10.240000	25.896986	0.000627	20.793360
1811.522609	-2.996600	3.388000	-10.152000	25.886503	0.000627	20.757698
1812.527865	-3.004700	3.388800	-10.182000	25.863675	0.000627	20.777914
1813.523162	-3.002300	3.388000	-10.170000	25.886382	0.000627	20.771327
1814.525054	-3.017400	3.387400	-10.220000	25.904218	0.000626	20.784978
1815.522739	-2.999500	3.387500	-10.160000	25.921807	0.000626	20.773251
1816.521631	-3.023100	3.387400	-10.239000	25.947890	0.000628	20.766737
1817.524132	-3.005700	3.386800	-10.179000	25.931991	0.000627	20.776844
1818.528161	-2.994200	3.387700	-10.142000	25.952337	0.000626	20.781636
1819.524838	-2.988900	3.386600	-10.121000	25.942526	0.000625	20.788850
1820.525290	-3.013600	3.386000	-10.202000	25.920392	0.000626	20.771828
1821.527166	-2.988300	3.385600	-10.115000	25.931296	0.000627	20.793215
1822.524784	-2.989500	3.385700	-10.121000	25.923000	0.000626	20.773501
1823.528802	-3.001600	3.385100	-10.160000	25.935370	0.000624	20.782608
1824.526679	-3.015600	3.384000	-10.203000	25.910454	0.000627	20.788872
1825.526844	-2.992900	3.383400	-10.126000	25.888418	0.000626	20.787124
1826.528069	-2.991000	3.384600	-10.123000	25.872346	0.000624	20.785202
1827.530009	-2.994600	3.384000	-10.133000	25.873463	0.000626	20.797230
1828.525867	-2.987100	3.383700	-10.106000	25.849811	0.000625	20.784850
1829.527376	-2.984100	3.384500	-10.098000	25.845811	0.000625	20.774667
1830.525095	-2.977100	3.384500	-10.074000	25.827825	0.000623	20.775566
1831.526297	-2.999900	3.382600	-10.147000	25.818754	0.000623	20.781627
1832.528502	-2.982700	3.383500	-10.091000	25.799375	0.000623	20.801041
1833.529898	-3.013000	3.383000	-10.191000	25.802579	0.000622	20.780078
1834.530424	-3.000400	3.382400	-10.148000	25.821259	0.000620	20.768022
1835.527600	-3.012800	3.382000	-10.189000	25.833108	0.000623	20.778028
1836.531037	-3.004100	3.382000	-10.159000	25.867936	0.000623	20.782669
1837.530780	-3.010400	3.380400	-10.174000	25.846843	0.000620	20.779024
1838.529119	-3.005300	3.380300	-10.157000	25.855585	0.000620	20.800134
1839.530331	-3.027000	3.380300	-10.231000	25.818295	0.000621	20.790649
1840.533065	-3.005800	3.380400	-10.159000	25.816332	0.000620	20.790574
1841.530029	-3.011000	3.380000	-10.176000	25.824454	0.000619	20.798733
1842.530893	-3.016200	3.380200	-10.194000	25.812055	0.000618	20.796709
1843.536718	-3.025200	3.377700	-10.217000	25.836971	0.000617	20.790918
1844.539353	-3.009700	3.379300	-10.169000	25.834161	0.000616	20.808010
1845.532837	-2.995600	3.378400	-10.119000	25.831379	0.000619	20.772972
1846.534431	-3.020000	3.378100	-10.201000	25.840543	0.000616	20.786920
1847.532701	-2.975400	3.379000	-10.053000	25.857360	0.000617	20.797175
1848.531710	-3.000100	3.378600	-10.135000	25.834901	0.000617	20.817287
1849.533390	-3.012000	3.376600	-10.169000	25.860735	0.000617	20.810048
1850.536318	-3.012900	3.375900	-10.171000	25.880433	0.000615	20.802335
1851.532334	-3.015100	3.376100	-10.178000	25.894095	0.000614	20.810844
1852.532166	-3.012600	3.376500	-10.171000	25.908947	0.000614	20.817230
1853.536606	-3.018500	3.376200	-10.190000	25.908424	0.000614	20.799161
1854.532235	-3.004300	3.375100	-10.138000	25.893766	0.000613	20.821893
1855.531899	-3.012100	3.375400	-10.166000	25.900770	0.000612	20.817076
1856.534435	-3.004900	3.375100	-10.141000	25.915423	0.000612	20.828477
1857.541153	-2.980500	3.375600	-10.060000	25.881266	0.000610	20.794163
1858.533418	-3.016000	3.374600	-10.177000	25.865513	0.000610	20.800624
1859.533584	-3.004900	3.375400	-10.141000	25.885111	0.000611	20.820311
1860.533624	-2.994100	3.373800	-10.100000	25.904089	0.000612	20.822781
1861.533902	-3.025200	3.373800	-10.205000	25.893181	0.000610	20.817038
1862.536952	-3.030100	3.371900	-10.216000	25.893079	0.000608	20.808401
1863.537234	-3.000600	3.373900	-10.123000	25.894395	0.000607	20.831534
1864.536017	-3.009400	3.372000	-10.146000	25.937741	0.000608	20.822448
1865.534149	-2.983100	3.372900	-10.060000	25.946284	0.000611	20.825815
1866.534733	-3.002800	3.372500	-10.125000	25.987169	0.000607	20.820899
1867.533611	-3.020500	3.371700	-10.183000	25.971021	0.000606	20.822219
1868.540174	-2.993700	3.372700	-10.095000	25.972163	0.000605	20.839960
1869.534729	-2.995500	3.372400	-10.101000	25.990841	0.000606	20.831699
1870.539196	-3.006400	3.369400	-10.128000	25.981251	0.000604	20.824436
1871.533119	-3.033400	3.369900	-10.221000	25.979238	0.000603	20.819094
1872.536842	-3.000600	3.370800	-10.114000	25.974691	0.000602	20.844871
1873.538989	-2.953900	3.372100	-9.959200	25.985594	0.000603	20.835436
1874.541067	-3.023200	3.369600	-10.185000	25.982986	0.000601	20.826653
1875.537138	-3.011200	3.369600	-10.146000	25.972105	0.000601	20.831368
1876.536256	-3.019400	3.370000	-10.174000	25.994087	0.000599	20.840176
1877.548122	-3.001700	3.369200	-10.112000	25.963708	0.000601	20.842846
1878.537623	-3.015700	3.368800	-10.158000	25.980821	0.000600	20.838702
1879.536751	-3.026100	3.367400	-10.189000	25.966265	0.000597	20.857742
1880.542312	-2.978300	3.368700	-10.032000	26.020811	0.000599	20.836680
1881.540503	-3.017100	3.367000	-10.158000	26.026027	0.000597	20.842394
1882.536192	-3.001600	3.367300	-10.105000	26.037303	0.000596	20.849455
1883.536364	-2.987500	3.367800	-10.059000	25.988320	0.000597	20.831538
1884.540454	-3.001800	3.365900	-10.103000	25.976869	0.000594	20.849430
1885.542218	-3.006600	3.366500	-10.121000	25.969839	0.000594	20.842842
1886.542148	-2.998300	3.366400	-10.093000	25.967579	0.000592	20.843890
1887.549261	-3.002300	3.364900	-10.102000	25.994181	0.000595	20.849753
1888.546870	-2.988600	3.365900	-10.059000	25.952823	0.000594	20.837600
1889.544139	-2.981800	3.365300	-10.032000	25.914668	0.000594	20.857115
1890.548020	-3.015100	3.363800	-10.141000	25.882101	0.000592	20.862330
1891.542538	-2.996200	3.364600	-10.080000	25.871841	0.000592	20.828317
1892.544454	-3.004400	3.363800	-10.104000	25.811896	0.000595	20.852024
1893.547472	-3.007800	3.364500	-10.118000	25.822379	0.000593	20.841218
1894.542242	-2.988300	3.364100	-10.052000	25.843098	0.000592	20.832159
1895.545165	-2.999900	3.363000	-10.087000	25.883590	0.000593	20.832059
1896.548558	-3.003400	3.362900	-10.100000	25.894717	0.000592	20.855090
1897.547856	-3.003700	3.362900	-10.100000	25.939010	0.000591	20.860232
1898.543308	-3.002100	3.363000	-10.096000	25.952671	0.000590	20.868266
1899.545836	-3.025200	3.361400	-10.168000	25.997630	0.000590	20.855114
1900.545557	-3.011000	3.362000	-10.122000	25.997455	0.000592	20.841189
1901.545585	-3.008600	3.360100	-10.108000	26.025125	0.000591	20.851445
1902.548605	-3.016700	3.362200	-10.142000	26.050633	0.000590	20.856685
1903.547151	-3.002900	3.362000	-10.095000	26.055426	0.000590	20.854388
1904.546893	-2.996800	3.361100	-10.072000	26.069931	0.000589	20.842410
1905.548770	-3.010300	3.359000	-10.111000	26.086521	0.000590	20.857182
1906.550650	-3.004000	3.359700	-10.091000	26.094020	0.000588	20.861397
1907.550593	-2.996300	3.360600	-10.069000	26.054405	0.000587	20.860948
1908.549546	-3.006300	3.361100	-10.104000	26.022760	0.000585	20.858552
1909.553875	-3.007300	3.358900	-10.100000	25.973577	0.000585	20.861769
1910.549765	-2.986100	3.360100	-10.033000	25.951842	0.000587	20.868381
1911.558259	-3.011300	3.359000	-10.114000	25.927323	0.000587	20.880258
1912.551937	-2.995600	3.358900	-10.061000	25.886135	0.000585	20.875391
1913.554950	-3.014300	3.358300	-10.121000	25.906306	0.000584	20.861990
1914.552874	-3.012800	3.358700	-10.118000	25.928936	0.000583	20.859120
1915.551885	-3.021300	3.356000	-10.138000	25.949329	0.000584	20.867279
1916.554615	-3.016000	3.356800	-10.123000	25.957003	0.000583	20.849860
1917.557151	-3.018000	3.356800	-10.130000	26.002385	0.000580	20.865107
1918.553376	-3.019700	3.355300	-10.131000	26.022802	0.000581	20.877558
1919.552097	-3.014100	3.356500	-10.116000	26.026949	0.000583	20.885044
1920.557173	-3.022300	3.356200	-10.143000	26.013734	0.000582	20.864181
1921.554742	-3.009100	3.355200	-10.093000	26.009635	0.000581	20.868123
1922.558566	-3.004000	3.354800	-10.077000	26.039589	0.000581	20.861235
1923.558869	-2.975400	3.356300	-9.984400	26.023618	0.000579	20.880275
1924.564885	-3.012900	3.354200	-10.105000	26.047586	0.000579	20.890131
1925.557483	-3.018600	3.352900	-10.120000	26.054615	0.000579	20.875857
1926.558156	-3.009700	3.354900	-10.096000	26.081960	0.000577	20.886262
1927.560131	-3.005800	3.354200	-10.081000	26.122567	0.000578	20.855468
1928.557404	-2.996800	3.353400	-10.048000	26.113253	0.000575	20.885936
1929.556202	-3.005400	3.353000	-10.076000	26.088367	0.000577	20.884165
1930.556437	-2.988300	3.353700	-10.021000	26.057767	0.000577	20.872860
1931.560098	-2.983200	3.353300	-10.003000	26.056227	0.000574	20.878425
1932.563220	-2.998800	3.352200	-10.052000	26.015665	0.000576	20.877975
1933.558754	-3.000100	3.352900	-10.058000	25.963428	0.000575	20.880021
1934.564093	-2.991100	3.351100	-10.022000	25.965317	0.000573	20.897090
1935.559248	-3.010000	3.350900	-10.085000	25.947629	0.000575	20.881218
1936.564784	-2.997500	3.351600	-10.045000	25.946983	0.000573	20.891000
1937.560199	-3.013100	3.350200	-10.094000	25.939034	0.000571	20.868317
1938.564840	-2.980000	3.349400	-9.978600	25.991073	0.000574	20.880294
1939.563016	-2.988900	3.350800	-10.014000	26.009577	0.000571	20.878022
1940.564965	-3.002000	3.350200	-10.057000	26.002772	0.000571	20.887305
1941.563214	-3.001100	3.349600	-10.050000	26.006821	0.000571	20.891373
1942.563270	-3.003100	3.349800	-10.058000	26.024307	0.000569	20.885708
1943.564223	-3.000000	3.348000	-10.042000	26.053416	0.000570	20.886980
1944.564692	-2.960700	3.349600	-9.915600	26.058309	0.000569	20.903748
1945.562893	-3.002200	3.347900	-10.050000	26.066281	0.000569	20.890422
1946.572811	-2.985000	3.347600	-9.991800	26.071347	0.000567	20.886978
1947.567876	-3.001100	3.347100	-10.044000	26.074054	0.000569	20.909611
1948.568673	-3.004000	3.348000	-10.057000	26.088782	0.000568	20.896909
1949.566540	-3.008500	3.346200	-10.066000	26.125242	0.000567	20.879965
1950.583809	-3.005300	3.346000	-10.055000	26.136965	0.000566	20.903122
1951.600934	-2.987600	3.345200	-9.992700	26.172081	0.000566	20.890046
1952.566405	-2.998100	3.346400	-10.032000	26.135325	0.000564	20.894363
1953.584809	-3.004600	3.344800	-10.049000	26.151119	0.000563	20.901224
1954.590292	-3.005300	3.344400	-10.050000	26.107109	0.000563	20.880712
1955.588003	-2.996200	3.344800	-10.020000	26.101745	0.000561	20.906139
1956.596405	-2.984500	3.343900	-9.979100	26.087365	0.000560	20.884106
1957.586102	-3.006200	3.343300	-10.049000	26.110487	0.000561	20.920612
1958.593464	-3.019300	3.344200	-10.095000	26.098516	0.000559	20.923282
1959.589675	-2.993600	3.343400	-10.008000	26.121489	0.000560	20.901323
1960.584288	-3.017100	3.343300	-10.086000	26.103185	0.000558	20.901423
1961.599359	-2.977600	3.343900	-9.955900	26.064936	0.000557	20.894760
1962.584271	-3.002800	3.341300	-10.033000	26.074474	0.000556	20.893912
1963.571212	-3.018900	3.341500	-10.087000	26.091040	0.000559	20.892539
1964.569129	-2.996900	3.343300	-10.018000	26.105570	0.000555	20.892440
1965.572666	-3.005100	3.342000	-10.042000	26.096107	0.000556	20.899053
1966.574130	-3.014600	3.340800	-10.070000	26.104204	0.000557	20.905765
1967.573098	-2.996900	3.341500	-10.013000	26.117640	0.000556	20.904093
1968.570414	-3.018500	3.340200	-10.081000	26.129810	0.000555	20.895460
1969.573780	-2.992700	3.339900	-9.994200	26.154895	0.000554	20.907862
1970.591938	-2.976500	3.339500	-9.939100	26.168058	0.000552	20.889796
1971.594633	-2.990400	3.340700	-9.987600	26.175285	0.000552	20.919815
1972.597684	-3.014400	3.339500	-10.066000	26.168306	0.000553	20.903795
1973.586634	-3.007000	3.339400	-10.041000	26.141659	0.000554	20.907838
1974.606090	-2.986300	3.340200	-9.972100	26.164532	0.000552	20.896684
1975.592798	-3.005600	3.338500	-10.033000	26.160633	0.000551	20.912205
1976.590641	-2.992200	3.338200	-9.987200	26.178341	0.000552	20.918144
1977.599551	-2.994900	3.337300	-9.994200	26.219293	0.000550	20.927053
1978.592229	-2.971600	3.339300	-9.921700	26.218548	0.000549	20.929149
1979.598014	-2.978900	3.338500	-9.944100	26.216314	0.000551	20.918844
1980.600019	-3.012900	3.337200	-10.053000	26.214501	0.000549	20.917971
1981.588978	-3.019600	3.337300	-10.076000	26.253316	0.000549	20.910036
1982.574552	-3.011200	3.335400	-10.043000	26.240999	0.000549	20.920891
1983.579169	-2.986100	3.335600	-9.959600	26.230470	0.000546	20.924534
1984.578729	-2.991600	3.336400	-9.980300	26.214378	0.000548	20.928277
1985.576368	-3.008100	3.334700	-10.031000	26.187185	0.000547	20.913755
1986.578489	-2.986800	3.335000	-9.959800	26.190091	0.000545	20.923787
1987.580810	-3.001700	3.335400	-10.010000	26.159445	0.000546	20.900581
1988.578971	-3.007800	3.334400	-10.028000	26.149561	0.000545	20.919096
1989.575768	-3.025600	3.333100	-10.084000	26.125371	0.000544	20.927032
1990.577357	-3.000300	3.333300	-10.000000	26.166425	0.000544	20.899060
1991.594274	-2.988100	3.333200	-9.958800	26.217361	0.000543	20.936016
1992.595264	-2.986100	3.333500	-9.953200	26.219026	0.000542	20.938162
1993.597920	-3.017700	3.331300	-10.052000	26.213563	0.000545	20.923191
1994.597277	-2.996100	3.332500	-9.983700	26.233629	0.000543	20.927708
1995.575793	-2.994700	3.332100	-9.977700	26.237255	0.000542	20.907647
1996.579000	-3.018700	3.331800	-10.057000	26.208274	0.000541	20.915506
1997.577516	-2.986200	3.332100	-9.948600	26.204501	0.000542	20.914560
1998.577688	-2.996600	3.330600	-9.979700	26.166428	0.000541	20.913761
1999.579186	-2.991000	3.330600	-9.960300	26.149815	0.000539	20.927885
2000.578056	-2.983800	3.332000	-9.941100	26.135485	0.000538	20.910643
2001.578400	-2.986700	3.330800	-9.946500	26.131884	0.000540	20.931679
2002.583697	-3.000200	3.331100	-9.992500	26.126321	0.000538	20.919927
2003.586132	-2.993400	3.330500	-9.967600	26.123019	0.000537	20.928935
2004.579059	-2.988300	3.330700	-9.952400	26.115220	0.000538	20.931057
2005.581203	-3.009600	3.328800	-10.017000	26.090161	0.000536	20.920103
2006.580309	-3.002000	3.329100	-9.993300	26.117880	0.000536	20.919505
2007.604344	-3.007500	3.328800	-10.010000	26.109957	0.000536	20.906330
2008.598314	-3.000000	3.328400	-9.984500	26.103574	0.000534	20.928838
2009.599145	-3.007700	3.328800	-10.010000	26.142344	0.000536	20.923699
2010.602296	-2.993300	3.328200	-9.961500	26.183075	0.000536	20.924797
2011.596176	-3.003900	3.326100	-9.990300	26.207214	0.000534	20.900218
2012.598168	-2.979400	3.327900	-9.914300	26.232223	0.000534	20.923451
2013.605153	-3.002300	3.325100	-9.981600	26.248041	0.000535	20.931286
2014.599845	-3.005600	3.325000	-9.991900	26.222936	0.000532	20.929290
2015.609632	-3.010800	3.326400	-10.014000	26.179055	0.000532	20.925499
2016.616031	-2.988200	3.325500	-9.936800	26.198301	0.000531	20.922080
2017.585971	-3.008300	3.325600	-10.004000	26.209601	0.000530	20.900247
2018.616757	-2.983400	3.325100	-9.918800	26.203642	0.000530	20.933135
2019.601015	-3.023900	3.324300	-10.051000	26.219933	0.000529	20.923903
2020.587322	-3.003300	3.323800	-9.981100	26.195820	0.000530	20.905838
2021.591563	-3.020500	3.323800	-10.038000	26.232773	0.000529	20.913574
2022.599995	-3.005200	3.322800	-9.984300	26.273376	0.000527	20.915970
2023.587066	-2.989600	3.323700	-9.934500	26.262252	0.000529	20.891042
2024.588210	-2.988100	3.322200	-9.925900	26.291828	0.000527	20.888049
2025.592698	-2.989000	3.323200	-9.931000	26.325749	0.000528	20.910283
2026.611496	-2.992300	3.324200	-9.945100	26.320907	0.000528	20.913003
2027.591821	-3.002800	3.321800	-9.974100	26.342040	0.000527	20.902000
2028.590085	-2.985500	3.321800	-9.915700	26.354580	0.000525	20.890896
2029.594772	-3.005100	3.321100	-9.979000	26.363694	0.000525	20.904322
2030.601126	-3.008400	3.320000	-9.986200	26.370448	0.000524	20.897360
2031.622091	-2.988400	3.320100	-9.921300	26.376707	0.000522	20.893219
2032.607197	-3.009900	3.319400	-9.990500	26.364565	0.000523	20.897611
2033.609699	-3.011200	3.318600	-9.992000	26.355079	0.000525	20.889975
2034.607046	-2.989400	3.319600	-9.922900	26.357936	0.000523	20.899483
2035.605126	-2.986200	3.320300	-9.914100	26.353069	0.000524	20.878947
2036.605379	-3.013700	3.318600	-10.000000	26.384058	0.000524	20.883539
2037.612421	-2.981100	3.319700	-9.895500	26.357589	0.000523	20.894868
2038.613202	-2.987800	3.319400	-9.916500	26.340854	0.000522	20.879946
2039.606523	-2.989700	3.317900	-9.918200	26.338668	0.000521	20.887233
2040.607121	-3.002100	3.319700	-9.964200	26.355727	0.000520	20.892049
2041.628559	-3.037000	3.317000	-10.072000	26.357068	0.000520	20.884388
2042.608990	-3.007100	3.316100	-9.971000	26.350041	0.000520	20.880645
2043.607139	-2.988400	3.317400	-9.912800	26.378472	0.000520	20.870813
2044.613544	-2.972700	3.317800	-9.860700	26.361041	0.000519	20.888855
2045.609446	-3.021500	3.316900	-10.021000	26.366727	0.000518	20.872759
2046.611001	-3.033700	3.315700	-10.057000	26.341573	0.000518	20.883514
2047.608414	-2.998200	3.315600	-9.939800	26.363624	0.000517	20.872012
2048.596183	-3.014200	3.315000	-9.991200	26.330848	0.000517	20.888856
2049.593050	-2.974200	3.316100	-9.861900	26.288460	0.000517	20.880871
2050.593134	-3.002800	3.315500	-9.955000	26.306388	0.000516	20.875654
2051.617988	-2.992100	3.315500	-9.919300	26.278651	0.000515	20.885711
2052.650988	-2.989000	3.314600	-9.906700	26.260498	0.000515	20.887384
2053.610365	-3.012200	3.312700	-9.977200	26.270331	0.000514	20.883041
2054.601610	-2.996500	3.314000	-9.928900	26.251186	0.000514	20.887034
2055.629821	-3.007800	3.312600	-9.961900	26.224068	0.000514	20.870216
2056.631307	-3.014600	3.312000	-9.983200	26.227892	0.000513	20.870740
2057.605200	-3.033100	3.311500	-10.043000	26.225136	0.000512	20.888358
2058.606163	-3.009100	3.310900	-9.962000	26.242867	0.000510	20.876305
2059.622441	-3.023000	3.310600	-10.007000	26.281980	0.000511	20.899013
2060.623228	-3.014500	3.311200	-9.980900	26.275796	0.000510	20.869568
2061.614806	-2.982700	3.311000	-9.875100	26.269836	0.000509	20.880173
2062.615794	-3.001200	3.310600	-9.934000	26.309222	0.000510	20.873287
2063.596797	-2.994000	3.310700	-9.910700	26.318261	0.000508	20.868147
2064.614697	-2.994800	3.310100	-9.911400	26.338871	0.000507	20.871316
2065.631273	-3.007700	3.310200	-9.955600	26.346047	0.000506	20.861460
2066.657919	-3.018900	3.307900	-9.985100	26.377434	0.000508	20.875934
2067.617544	-3.001300	3.310400	-9.934500	26.395213	0.000506	20.873888
2068.614430	-2.996900	3.309400	-9.917100	26.419943	0.000506	20.866027
2069.617772	-3.023700	3.308100	-10.002000	26.434543	0.000505	20.870270
2070.608486	-2.990100	3.309800	-9.894800	26.429006	0.000504	20.859964
2071.608226	-3.008000	3.308900	-9.951700	26.468236	0.000504	20.865729
2072.602674	-2.984000	3.308700	-9.870900	26.468782	0.000503	20.847787
2073.606458	-2.995700	3.306900	-9.905400	26.480626	0.000502	20.850208
2074.601336	-2.994100	3.307400	-9.902200	26.469230	0.000502	20.851556
2075.603295	-2.996400	3.305700	-9.904900	26.475662	0.000500	20.843796
2076.603180	-2.996900	3.305500	-9.904500	26.452571	0.000501	20.855201
2077.600495	-3.017400	3.304700	-9.970000	26.481919	0.000501	20.846292
2078.608020	-2.993400	3.306000	-9.895700	26.471865	0.000501	20.834765
2079.605767	-3.036800	3.304400	-10.033000	26.458930	0.000498	20.867280
2080.606538	-2.974600	3.306200	-9.833300	26.464392	0.000499	20.863288
2081.602489	-3.027300	3.303300	-9.999800	26.453369	0.000499	20.855054
2082.604146	-3.012400	3.304300	-9.953000	26.427149	0.000500	20.842451
2083.604156	-3.004200	3.304100	-9.925400	26.414860	0.000498	20.843376
2084.604234	-3.005500	3.303300	-9.926400	26.434029	0.000498	20.847943
2085.607593	-3.001400	3.303000	-9.911500	26.444433	0.000497	20.856503
2086.608054	-2.993900	3.303500	-9.889000	26.446891	0.000498	20.842853
2087.605479	-2.991300	3.301600	-9.874900	26.454737	0.000495	20.826558
2088.601974	-3.017400	3.301300	-9.960500	26.481701	0.000495	20.833272
2089.601346	-3.012100	3.302100	-9.945400	26.459207	0.000494	20.831526
2090.602594	-2.972400	3.300400	-9.808800	26.460823	0.000494	20.851640
2091.615784	-3.000700	3.300400	-9.902400	26.441778	0.000493	20.836293
2092.629603	-2.987900	3.300700	-9.862000	26.473461	0.000493	20.832102
2093.624189	-3.007600	3.299700	-9.922900	26.459830	0.000490	20.849695
2094.623950	-3.002600	3.299800	-9.906900	26.447988	0.000494	20.833525
2095.628614	-2.999700	3.300600	-9.899300	26.451191	0.000490	20.846701
2096.623963	-2.987300	3.299900	-9.856500	26.494642	0.000488	20.842486
2097.628797	-2.986400	3.299100	-9.851500	26.492433	0.000489	20.841214
2098.629515	-3.012200	3.297900	-9.932000	26.489777	0.000489	20.839493
2099.632765	-2.995900	3.298300	-9.880300	26.486725	0.000488	20.841640
2100.640203	-2.995700	3.298200	-9.878800	26.488314	0.000490	20.822850
2101.623146	-2.989000	3.299000	-9.859800	26.479576	0.000486	20.836826
2102.627013	-2.997400	3.296900	-9.881300	26.428455	0.000486	20.821479
2103.631251	-2.990300	3.297600	-9.859300	26.360596	0.000486	20.833883
2104.634752	-2.980000	3.298300	-9.828200	26.332289	0.000486	20.828193
2105.610500	-2.995900	3.297000	-9.876200	26.314262	0.000484	20.823353
2106.615931	-2.990700	3.295900	-9.857100	26.297006	0.000485	20.818339
2107.615731	-3.018300	3.295500	-9.946200	26.281287	0.000485	20.831465
2108.628547	-3.005900	3.296000	-9.905500	26.278408	0.000483	20.848960
2109.629436	-3.017200	3.295600	-9.942500	26.297679	0.000483	20.827550
2110.609095	-3.002400	3.295100	-9.891300	26.292664	0.000483	20.841950
2111.613565	-2.988600	3.294900	-9.846900	26.312977	0.000481	20.839130
2112.611209	-3.012600	3.294800	-9.925500	26.346798	0.000481	20.827128
2113.609684	-3.005900	3.294600	-9.902600	26.401277	0.000481	20.824034
2114.613098	-2.981600	3.294900	-9.822200	26.437255	0.000481	20.793340
2115.612115	-2.998100	3.292800	-9.871400	26.475541	0.000479	20.816649
2116.610745	-2.993000	3.293000	-9.854800	26.505534	0.000477	20.806020
2117.614526	-3.001500	3.292200	-9.881000	26.500743	0.000479	20.795988
2118.622639	-2.999900	3.291600	-9.874300	26.509360	0.000478	20.826460
2119.611451	-2.987100	3.290900	-9.829400	26.549357	0.000476	20.813085
2120.619986	-3.013200	3.291700	-9.918000	26.554645	0.000477	20.828358
2121.614613	-2.987100	3.291600	-9.831100	26.510554	0.000476	20.807272
2122.624934	-3.013200	3.290400	-9.913800	26.492605	0.000475	20.816731
2123.620063	-3.007700	3.290300	-9.895400	26.528631	0.000477	20.813588
2124.616650	-3.016600	3.290700	-9.925100	26.516318	0.000473	20.812591
2125.617376	-3.009900	3.289100	-9.897800	26.514084	0.000474	20.816036
2126.614728	-2.994000	3.290300	-9.848700	26.530544	0.000474	20.797494
2127.620924	-2.985000	3.288700	-9.815900	26.509394	0.000471	20.813692
2128.615163	-2.976300	3.290000	-9.791200	26.511679	0.000471	20.812196
2129.619202	-2.990800	3.289400	-9.836500	26.529678	0.000470	20.801365
2130.614930	-3.020100	3.287800	-9.928000	26.554307	0.000472	20.806208
2131.616257	-3.003400	3.285900	-9.868100	26.583157	0.000470	20.807233
2132.615461	-3.003900	3.288100	-9.876200	26.607759	0.000471	20.807783
2133.614305	-2.994700	3.287100	-9.843000	26.616150	0.000469	20.805786
2134.615945	-2.998200	3.285800	-9.850000	26.619900	0.000468	20.811452
2135.618900	-3.005200	3.286400	-9.875600	26.602822	0.000467	20.805190
2136.619638	-3.008300	3.285200	-9.881700	26.602723	0.000467	20.793237
2137.615920	-3.030700	3.285800	-9.957400	26.637279	0.000468	20.803319
2138.622413	-3.022700	3.285400	-9.930000	26.645746	0.000466	20.793338
2139.619139	-2.986300	3.284900	-9.808200	26.645450	0.000465	20.789722
2140.619174	-3.013100	3.285200	-9.897600	26.678069	0.000465	20.801177
2141.622926	-3.037000	3.283600	-9.971200	26.681667	0.000465	20.787725
2142.621539	-3.007400	3.284300	-9.876600	26.676828	0.000464	20.777645
2143.620183	-2.989400	3.284200	-9.817100	26.670424	0.000462	20.801079
2144.622360	-3.012700	3.284200	-9.893900	26.688596	0.000465	20.802277
2145.620929	-2.995600	3.283700	-9.835500	26.697409	0.000462	20.801655
2146.629577	-2.968100	3.283600	-9.744900	26.698204	0.000461	20.804824
2147.629886	-3.000800	3.282300	-9.848200	26.739434	0.000461	20.789852
2148.621822	-3.009400	3.283000	-9.878900	26.745688	0.000461	20.799932
2149.631976	-2.996700	3.281900	-9.832900	26.752566	0.000460	20.807322
2150.629972	-2.989700	3.281200	-9.808300	26.743109	0.000460	20.799710
2151.629533	-3.013300	3.280900	-9.885300	26.762371	0.000459	20.781144
2152.625021	-2.977500	3.281700	-9.770000	26.757457	0.000459	20.785212
2153.629096	-3.019600	3.280700	-9.904500	26.690661	0.000459	20.795345
2154.621612	-2.996300	3.279900	-9.826400	26.688006	0.000458	20.786511
2155.626664	-3.005000	3.278800	-9.851100	26.680535	0.000456	20.780423
2156.629514	-2.975000	3.280900	-9.759900	26.704564	0.000455	20.775656
2157.623078	-2.990800	3.279900	-9.808600	26.708883	0.000454	20.789482
2158.623038	-2.997000	3.278200	-9.823400	26.668547	0.000457	20.777380
2159.629512	-3.002800	3.278400	-9.843000	26.654993	0.000456	20.783668
2160.622788	-3.019000	3.278100	-9.894900	26.652883	0.000456	20.773487
2161.630139	-2.989100	3.278700	-9.800100	26.632502	0.000453	20.771964
2162.626449	-2.987700	3.277300	-9.790600	26.611550	0.000452	20.779351
2163.627838	-3.021500	3.277400	-9.902100	26.604326	0.000454	20.787735
2164.627738	-2.994100	3.275700	-9.806000	26.589357	0.000454	20.797344
2165.628645	-3.012300	3.275400	-9.865200	26.595390	0.000452	20.778278
2166.633211	-3.000700	3.275300	-9.827100	26.574709	0.000450	20.779300
2167.630248	-2.992800	3.275800	-9.801700	26.563438	0.000450	20.781247
2168.632524	-2.990300	3.274900	-9.792100	26.523170	0.000449	20.781546
2169.635266	-3.029900	3.274100	-9.919500	26.523567	0.000449	20.783368
2170.629050	-2.953000	3.276200	-9.673600	26.540772	0.000450	20.781697
2171.633650	-2.974200	3.275300	-9.740900	26.567460	0.000445	20.770591
2172.639681	-2.987000	3.274900	-9.781400	26.614702	0.000446	20.770666
2173.630780	-2.980500	3.273500	-9.755500	26.615869	0.000445	20.769467
2174.630766	-3.003600	3.272600	-9.828500	26.650425	0.000444	20.771489
2175.629912	-3.000000	3.273700	-9.818400	26.660356	0.000446	20.766774
2176.632663	-2.981500	3.272400	-9.755000	26.669962	0.000443	20.773112
2177.635333	-2.988700	3.271700	-9.776700	26.719855	0.000446	20.756416
2178.634920	-2.984100	3.271900	-9.761700	26.736685	0.000442	20.767172
2179.631951	-3.001400	3.269800	-9.813100	26.754756	0.000442	20.757365
2180.638608	-3.022900	3.269700	-9.883200	26.768159	0.000441	20.771789
2181.635695	-3.009200	3.270800	-9.841900	26.800227	0.000439	20.764203
2182.638933	-3.014900	3.269400	-9.856400	26.813357	0.000440	20.769818
2183.637196	-2.990800	3.269800	-9.778400	26.820929	0.000438	20.769370
2184.634997	-2.978600	3.269300	-9.736500	26.811892	0.000439	20.767396
2185.634135	-2.991400	3.269100	-9.778000	26.795760	0.000438	20.750228
2186.635861	-2.984600	3.269600	-9.756800	26.792063	0.000436	20.769270
2187.642385	-3.011100	3.269400	-9.844200	26.779081	0.000434	20.767598
2188.636245	-3.021000	3.267000	-9.868800	26.735743	0.000436	20.761483
2189.638335	-3.011900	3.266900	-9.839200	26.702432	0.000433	20.761659
2190.636817	-2.998900	3.266500	-9.794800	26.705411	0.000432	20.772241
2191.638695	-3.030900	3.265100	-9.894600	26.720703	0.000432	20.768648
2192.639850	-2.990700	3.266300	-9.767700	26.758681	0.000430	20.745190
2193.644766	-2.989500	3.266000	-9.762400	26.751582	0.000431	20.771244
2194.637283	-2.984100	3.265600	-9.743800	26.797005	0.000432	20.780878
2195.642364	-2.979700	3.265900	-9.730400	26.821926	0.000430	20.776537
2196.635434	-2.996900	3.265100	-9.783600	26.842327	0.000430	20.759117
2197.636999	-2.985100	3.265100	-9.746000	26.838853	0.000428	20.753253
2198.647743	-2.977400	3.264900	-9.720200	26.823516	0.000430	20.744944
2199.645345	-2.979400	3.264900	-9.726700	26.843446	0.000427	20.783476
2200.645602	-3.005800	3.263400	-9.808100	26.880279	0.000427	20.756974
2201.640170	-3.015500	3.262500	-9.837400	26.898769	0.000425	20.750910
2202.648565	-3.013600	3.261900	-9.829100	26.876707	0.000426	20.752908
2203.642754	-3.039100	3.260700	-9.909000	26.870182	0.000426	20.758675
2204.644529	-3.014200	3.261400	-9.830100	26.866905	0.000423	20.752062
2205.643505	-3.024600	3.260500	-9.860300	26.870134	0.000424	20.748196
2206.646334	-2.992400	3.261100	-9.757400	26.840848	0.000424	20.748620
2207.647349	-2.971100	3.261700	-9.690000	26.821612	0.000423	20.783334
2208.649494	-2.989000	3.260600	-9.745100	26.825560	0.000423	20.745102
2209.647120	-2.997900	3.260500	-9.773400	26.839460	0.000421	20.777098
2210.648311	-2.972800	3.262300	-9.697400	26.836037	0.000422	20.735722
2211.653065	-2.984500	3.260400	-9.728500	26.879496	0.000419	20.736272
2212.646171	-2.976600	3.259000	-9.700400	26.878553	0.000419	20.749549
2213.646434	-2.996500	3.258000	-9.760900	26.908758	0.000417	20.738669
2214.646974	-2.999200	3.258300	-9.771200	26.917966	0.000418	20.760731
2215.648166	-2.998700	3.257800	-9.767700	26.915188	0.000417	20.756988
2216.649426	-3.006900	3.257700	-9.794700	26.857760	0.000415	20.766100
2217.650285	-3.002100	3.256500	-9.775300	26.761756	0.000415	20.752549
2218.649094	-3.000100	3.256400	-9.768500	26.726858	0.000413	20.752550
2219.652327	-3.001000	3.257100	-9.772500	26.677090	0.000417	20.738078
2220.652466	-3.003400	3.256600	-9.778900	26.694318	0.000413	20.748760
2221.651516	-2.994500	3.256900	-9.751100	26.710751	0.000413	20.745840
2222.653032	-3.009200	3.255000	-9.792900	26.715170	0.000412	20.733213
2223.650579	-3.008400	3.254600	-9.789800	26.723289	0.000411	20.748488
2224.647890	-2.999200	3.253800	-9.757200	26.733144	0.000411	20.749861
2225.648918	-2.999400	3.254300	-9.759000	26.739276	0.000412	20.743698
2226.648755	-3.007100	3.253300	-9.781400	26.750896	0.000410	20.743526
2227.645749	-3.012800	3.253600	-9.801200	26.745660	0.000409	20.738262
2228.649907	-3.005400	3.252700	-9.774000	26.739555	0.000408	20.726908
2229.648072	-2.987400	3.252900	-9.716900	26.771775	0.000409	20.732750
2230.649733	-2.987400	3.251600	-9.712000	26.784583	0.000408	20.732825
2231.653488	-2.993300	3.252300	-9.732800	26.778305	0.000406	20.754015
2232.655553	-2.990200	3.253300	-9.726900	26.747602	0.000405	20.723619
2233.655433	-3.017100	3.249900	-9.804500	26.735044	0.000407	20.737547
2234.655661	-3.007800	3.249100	-9.771500	26.748474	0.000404	20.750575
2235.652033	-2.990500	3.249000	-9.715100	26.730158	0.000404	20.725995
2236.652694	-3.014200	3.248500	-9.790800	26.779454	0.000407	20.723874
2237.651979	-3.024300	3.248300	-9.822300	26.808199	0.000402	20.740448
2238.652708	-3.022300	3.248100	-9.815300	26.830637	0.000402	20.735982
2239.648996	-3.022900	3.248100	-9.816900	26.808426	0.000403	20.739254
2240.653827	-3.005300	3.247700	-9.757300	26.803289	0.000401	20.747840
2241.655527	-2.971300	3.248200	-9.650800	26.815801	0.000402	20.733392
2242.656067	-2.986300	3.247400	-9.696500	26.820915	0.000401	20.715774
2243.658313	-3.016800	3.245600	-9.790000	26.844769	0.000400	20.733596
2244.661815	-3.006800	3.244700	-9.754900	26.827173	0.000400	20.747673
2245.654912	-3.011900	3.245200	-9.774100	26.808758	0.000401	20.742908
2246.657675	-3.001800	3.247500	-9.747600	26.805310	0.000396	20.739915
2247.662558	-2.997300	3.246600	-9.730100	26.782253	0.000396	20.744708
2248.657660	-3.022700	3.245400	-9.808200	26.789131	0.000395	20.718430
2249.659474	-3.005700	3.244200	-9.748600	26.735171	0.000397	20.741942
2250.658739	-2.977800	3.245600	-9.663400	26.737134	0.000393	20.724475
2251.662695	-2.982700	3.243200	-9.672500	26.711917	0.000395	20.717614
2252.659432	-2.992800	3.242800	-9.704400	26.706409	0.000395	20.713024
2253.663293	-3.014800	3.241600	-9.770800	26.703381	0.000395	20.719938
2254.667793	-2.976200	3.242800	-9.649800	26.706610	0.000393	20.730771
2255.664648	-3.019700	3.241700	-9.787800	26.719769	0.000391	20.738311
2256.663673	-3.001100	3.241000	-9.725200	26.728756	0.000391	20.736440
2257.661392	-3.000600	3.241100	-9.722700	26.745960	0.000392	20.721493
2258.665740	-3.018200	3.241300	-9.780900	26.774408	0.000390	20.729707
2259.668506	-2.990000	3.239900	-9.686200	26.805782	0.000389	20.747027
2260.663515	-2.981400	3.240600	-9.659800	26.820379	0.000390	20.737996
2261.660561	-2.990200	3.238400	-9.682600	26.854235	0.000390	20.736950
2262.667263	-3.018900	3.237700	-9.772900	26.902633	0.000390	20.734406
2263.663544	-2.995100	3.238900	-9.699900	26.943137	0.000389	20.731513
2264.665287	-3.014900	3.238100	-9.760900	26.951900	0.000387	20.733212
2265.661569	-2.999600	3.237100	-9.708600	26.965056	0.000388	20.742649
2266.667507	-2.966400	3.238300	-9.604500	26.957389	0.000385	20.728775
2267.680330	-2.998600	3.236500	-9.704500	26.971039	0.000385	20.729698
2268.665616	-2.991500	3.236300	-9.681100	26.948335	0.000387	20.722040
2269.667923	-2.978600	3.237000	-9.639900	26.932154	0.000387	20.748445
2270.668542	-3.002300	3.236000	-9.714400	26.901977	0.000387	20.737540
2271.671701	-3.001600	3.235000	-9.708600	26.884184	0.000386	20.730554
2272.663598	-2.996400	3.234600	-9.690700	26.900640	0.000387	20.744257
2273.666006	-2.985900	3.234800	-9.658200	26.895925	0.000385	20.732402
2274.664225	-2.969500	3.235400	-9.606500	26.940623	0.000385	20.743210
2275.665595	-3.017400	3.233400	-9.755400	26.940302	0.000384	20.730558
2276.670766	-2.974400	3.233200	-9.614800	26.973308	0.000385	20.724394
2277.670823	-2.998200	3.231600	-9.688500	26.947572	0.000384	20.725067
2278.664326	-2.999600	3.231200	-9.691600	26.947922	0.000384	20.727789
2279.670799	-3.001900	3.231500	-9.700000	26.956855	0.000384	20.729186
2280.665838	-3.003500	3.232600	-9.707700	26.918587	0.000384	20.746181
2281.668563	-2.986800	3.230500	-9.647100	26.907840	0.000382	20.737746
2282.672366	-3.010100	3.230600	-9.722800	26.906698	0.000383	20.749874
2283.670362	-3.004500	3.231000	-9.706200	26.922728	0.000383	20.729957
2284.669800	-3.003100	3.229800	-9.698300	26.949853	0.000384	20.729257
2285.674049	-3.014500	3.227500	-9.728000	26.967222	0.000382	20.739137
2286.677000	-2.996000	3.227900	-9.669600	26.968836	0.000381	20.719896
2287.669834	-3.002900	3.227500	-9.690000	27.000301	0.000380	20.736841
2288.671242	-2.987100	3.227700	-9.640600	26.978039	0.000380	20.761869
2289.670869	-2.973300	3.227700	-9.595800	26.937760	0.000379	20.741754
2290.670764	-2.979600	3.226800	-9.613600	26.975678	0.000377	20.729148
2291.676641	-2.993500	3.226600	-9.657400	26.990814	0.000375	20.769975
2292.672917	-3.019600	3.226900	-9.743400	26.989672	0.000375	20.739902
2293.670094	-3.027800	3.224900	-9.763700	26.992697	0.000374	20.752902
2294.676610	-2.985600	3.226500	-9.631700	26.984159	0.000375	20.736729
2295.677654	-2.997600	3.224800	-9.664900	26.990434	0.000374	20.754894
2296.673005	-3.016300	3.222900	-9.719700	26.966735	0.000373	20.766149
2297.677178	-2.996100	3.225300	-9.662400	26.963606	0.000370	20.742139
2298.673787	-3.017300	3.221800	-9.719700	26.933180	0.000371	20.766546
2299.672688	-3.030800	3.223000	-9.766500	26.959188	0.000372	20.744335
2300.680040	-3.009800	3.221600	-9.695400	26.993557	0.000370	20.755189
2301.672664	-2.987200	3.222100	-9.624100	27.037055	0.000370	20.754836
2302.676409	-3.026300	3.221100	-9.745200	27.060133	0.000369	20.763347
2303.676062	-2.993300	3.222000	-9.643200	27.095740	0.000370	20.774027
2304.673808	-3.028000	3.221900	-9.753700	27.105763	0.000366	20.765615
2305.678581	-2.981600	3.221900	-9.605200	27.139556	0.000367	20.789645
2306.679904	-2.989500	3.220200	-9.625700	27.150026	0.000367	20.761295
2307.676466	-2.979600	3.219800	-9.592700	27.164515	0.000364	20.776342
2308.675943	-2.987400	3.218700	-9.614300	27.190642	0.000366	20.769429
2309.680139	-3.003600	3.219500	-9.669200	27.173916	0.000366	20.772047
2310.680613	-3.029900	3.218800	-9.752000	27.154387	0.000364	20.779906
2311.679835	-3.001500	3.218500	-9.659200	27.119375	0.000364	20.781202
2312.676921	-3.003800	3.218500	-9.666800	27.112848	0.000363	20.786966
2313.685096	-3.013400	3.216400	-9.691300	27.093789	0.000364	20.770642
2314.678166	-2.971000	3.216100	-9.554500	27.089320	0.000362	20.782744
2315.685094	-2.995700	3.215700	-9.632200	27.125845	0.000362	20.768268
2316.680605	-3.004900	3.214200	-9.657700	27.155294	0.000362	20.789353
2317.683685	-3.009900	3.215200	-9.676800	27.121200	0.000362	20.785883
2318.681832	-2.998100	3.215200	-9.638100	27.117552	0.000359	20.776524
2319.682678	-2.995100	3.215100	-9.628300	27.100825	0.000360	20.799530
2320.688734	-3.009500	3.213500	-9.670200	27.153376	0.000360	20.779363
2321.681019	-3.008100	3.212500	-9.662800	27.117618	0.000358	20.794134
2322.684611	-2.996900	3.213400	-9.629100	27.113672	0.000359	20.799648
2323.682345	-2.979400	3.211800	-9.567500	27.086450	0.000358	20.780331
2324.685575	-3.013000	3.213800	-9.682400	27.065728	0.000359	20.788888
2325.687408	-2.998100	3.212100	-9.628300	27.022672	0.000357	20.797271
2326.682861	-2.999200	3.210600	-9.628500	26.972889	0.000359	20.790356
2327.689457	-3.024000	3.211000	-9.707600	26.912159	0.000357	20.795669
2328.686830	-2.982500	3.210100	-9.573300	26.927395	0.000357	20.793446
2329.688186	-3.002700	3.209800	-9.635600	26.928907	0.000356	20.794018
2330.684916	-3.008400	3.211400	-9.660100	26.891678	0.000355	20.813481
2331.690509	-2.992500	3.208800	-9.601300	26.940764	0.000355	20.793614
2332.685494	-2.982500	3.210000	-9.572800	26.960318	0.000356	20.802845
2333.685190	-3.016500	3.206900	-9.672600	27.027045	0.000353	20.780332
2334.683930	-3.000700	3.207300	-9.623200	27.079625	0.000353	20.812348
2335.685733	-2.996800	3.207700	-9.611200	27.101311	0.000353	20.809028
2336.686499	-3.010700	3.207400	-9.654900	27.105328	0.000352	20.804533
2337.686639	-2.987000	3.206100	-9.575500	27.090314	0.000351	20.811244
2338.687014	-2.982700	3.208200	-9.568100	27.062222	0.000352	20.803380
2339.687814	-2.985400	3.206500	-9.571400	27.058969	0.000351	20.800109
2340.688720	-3.005800	3.204300	-9.631300	27.081696	0.000350	20.800206
2341.688387	-2.984800	3.204600	-9.564200	27.095019	0.000350	20.797484
2342.691517	-3.009700	3.204300	-9.644600	27.085215	0.000351	20.815125
2343.688160	-2.987900	3.203300	-9.569800	27.092905	0.000350	20.807685
2344.691131	-2.997700	3.202900	-9.600800	27.113771	0.000349	20.810179
2345.690694	-2.992600	3.201300	-9.579600	27.127440	0.000350	20.827245
2346.692105	-3.013300	3.200400	-9.642400	27.129051	0.000348	20.814167
2347.691843	-3.007400	3.202000	-9.628200	27.131183	0.000346	20.830061
2348.693748	-3.011300	3.200800	-9.636800	27.119940	0.000346	20.832979
2349.695941	-3.002600	3.200700	-9.608900	27.175864	0.000346	20.819051
2350.694041	-2.993800	3.199700	-9.578600	27.193553	0.000345	20.826411
2351.694426	-3.013800	3.198600	-9.638700	27.183477	0.000343	20.818647
2352.693151	-2.988400	3.200400	-9.563500	27.217864	0.000342	20.830000
2353.695930	-3.014200	3.199000	-9.640700	27.200445	0.000342	20.825282
2354.695121	-2.977400	3.196400	-9.515500	27.169899	0.000341	20.830120
2355.695652	-3.016600	3.197100	-9.643500	27.182377	0.000341	20.832239
2356.695607	-3.012300	3.196000	-9.626500	27.168009	0.000340	20.831064
2357.694996	-3.003800	3.196200	-9.600100	27.178726	0.000338	20.853222
2358.696094	-3.011800	3.196500	-9.625400	27.180138	0.000338	20.827143
2359.695383	-3.003600	3.195800	-9.597500	27.182568	0.000337	20.833379
2360.696136	-3.012700	3.193700	-9.621000	27.214126	0.000336	20.835724
2361.696434	-2.994800	3.194200	-9.564100	27.232584	0.000335	20.845280
2362.697603	-2.984400	3.194100	-9.530500	27.267018	0.000338	20.827760
2363.694608	-2.990400	3.193500	-9.548700	27.241513	0.000337	20.844304
2364.701049	-3.026500	3.191800	-9.658900	27.247590	0.000336	20.849942
2365.698918	-3.012600	3.193500	-9.619600	27.192113	0.000332	20.836341
2366.699916	-3.019600	3.190500	-9.633200	27.126880	0.000333	20.849441
2367.694171	-2.978800	3.193600	-9.512600	27.086359	0.000331	20.830499
2368.694594	-2.994700	3.191700	-9.556700	27.120748	0.000331	20.869825
2369.698733	-3.021700	3.188400	-9.633300	27.125240	0.000331	20.822662
2370.698112	-3.035100	3.188000	-9.675500	27.167345	0.000331	20.838457
2371.697937	-3.008400	3.189300	-9.593500	27.195902	0.000331	20.839678
2372.699481	-2.988500	3.189500	-9.531100	27.225899	0.000329	20.861788
2373.699513	-3.035200	3.186900	-9.672200	27.253040	0.000329	20.853053
2374.700822	-3.013300	3.186200	-9.600500	27.275517	0.000327	20.841998
2375.698373	-2.997700	3.188100	-9.556100	27.297323	0.000325	20.864406
2376.707424	-2.998900	3.187700	-9.558000	27.332502	0.000326	20.848585
2377.701270	-2.996900	3.185400	-9.545700	27.308337	0.000324	20.872165
2378.698972	-3.036100	3.184300	-9.667000	27.238995	0.000325	20.864055
2379.700734	-3.013100	3.186000	-9.599200	27.200215	0.000325	20.853025
2380.700473	-3.013300	3.184500	-9.595200	27.183790	0.000325	20.862582
2381.704287	-2.991700	3.183800	-9.523900	27.178629	0.000322	20.855495
2382.699870	-3.017900	3.185800	-9.613000	27.204855	0.000321	20.852950
2383.697432	-3.020800	3.182000	-9.610800	27.251200	0.000323	20.851676
2384.700622	-3.020400	3.183800	-9.614800	27.275339	0.000321	20.863155
2385.701662	-2.998800	3.182500	-9.542800	27.293003	0.000321	20.870965
2386.699629	-3.015500	3.180600	-9.590300	27.340536	0.000320	20.853822
2387.699856	-3.012700	3.179800	-9.579100	27.345945	0.000322	20.858314
2388.703286	-2.998400	3.180000	-9.534200	27.347904	0.000323	20.869294
2389.706436	-3.017200	3.178700	-9.589900	27.301265	0.000321	20.862681
2390.702734	-2.997100	3.178900	-9.526400	27.325826	0.000319	20.865576
2391.704205	-2.978000	3.179400	-9.467500	27.333244	0.000320	20.877305
2392.704724	-3.008300	3.177400	-9.558100	27.337014	0.000317	20.878252
2393.703995	-3.000700	3.178300	-9.536100	27.361674	0.000319	20.875085
2394.704379	-3.000400	3.178700	-9.535700	27.368050	0.000316	20.874386
2395.706154	-3.000000	3.176500	-9.528400	27.354134	0.000318	20.876508
2396.707086	-2.990400	3.175200	-9.493800	27.319452	0.000316	20.881448
2397.706656	-2.991300	3.176000	-9.499000	27.339299	0.000316	20.870594
2398.705688	-2.993900	3.174400	-9.503400	27.359345	0.000317	20.860889
2399.706710	-2.989200	3.174100	-9.487400	27.341161	0.000315	20.871993
2400.710254	-2.997400	3.175000	-9.515800	27.359767	0.000316	20.884071
2401.714460	-2.987800	3.174400	-9.483600	27.348777	0.000316	20.865905
2402.711742	-3.017300	3.171800	-9.569200	27.331884	0.000316	20.869773
2403.708664	-2.990000	3.173400	-9.486300	27.352350	0.000316	20.859542
2404.708462	-2.963700	3.171900	-9.399000	27.348902	0.000314	20.878357
2405.708895	-2.992100	3.170100	-9.484100	27.343990	0.000314	20.891907
2406.711480	-3.002400	3.171600	-9.521900	27.355427	0.000312	20.878757
2407.711792	-2.980700	3.170700	-9.450000	27.366589	0.000314	20.877184
2408.712365	-2.992900	3.168200	-9.481600	27.340418	0.000313	20.886892
2409.709901	-2.983500	3.169000	-9.454000	27.364208	0.000314	20.877633
2410.709746	-3.005200	3.171100	-9.528400	27.378968	0.000315	20.864033
2411.713453	-2.999100	3.167900	-9.500700	27.413573	0.000311	20.886042
2412.709730	-3.005500	3.167700	-9.519200	27.453980	0.000314	20.875012
2413.712278	-3.008000	3.166700	-9.524800	27.482110	0.000313	20.880078
2414.712682	-2.982200	3.164600	-9.437000	27.478661	0.000311	20.853376
2415.711638	-2.970600	3.165000	-9.400600	27.490591	0.000312	20.876757
2416.711894	-2.972700	3.165400	-9.408800	27.489077	0.000312	20.893725
2417.714911	-3.003600	3.163300	-9.500200	27.493293	0.000313	20.885639
2418.713667	-2.996000	3.163200	-9.476100	27.520453	0.000312	20.876455
2419.718793	-3.005200	3.162900	-9.504600	27.521196	0.000311	20.869617
2420.715965	-2.962600	3.163700	-9.371000	27.535110	0.000311	20.878874
2421.715424	-3.004400	3.161800	-9.498100	27.531140	0.000310	20.858286
2422.716434	-2.987300	3.162200	-9.445000	27.536398	0.000309	20.893445
2423.714471	-3.002000	3.159700	-9.485200	27.548873	0.000308	20.886083
2424.715576	-2.996100	3.160900	-9.469600	27.528137	0.000308	20.882764
2425.715374	-3.010400	3.158900	-9.508100	27.537810	0.000311	20.887280
2426.716953	-3.023200	3.157600	-9.545600	27.528558	0.000307	20.868015
2427.716836	-3.024200	3.157200	-9.546800	27.504596	0.000307	20.889898
2428.714312	-2.988500	3.158000	-9.435900	27.462502	0.000306	20.876473
2429.716834	-2.976200	3.158800	-9.399800	27.433306	0.000305	20.887876
2430.714650	-2.989200	3.156700	-9.434500	27.408004	0.000306	20.892293
2431.717216	-3.014400	3.154200	-9.507200	27.362532	0.000306	20.890171
2432.717889	-3.021200	3.154800	-9.530400	27.344274	0.000304	20.884607
2433.718060	-2.987800	3.153800	-9.422000	27.355561	0.000304	20.911606
2434.720835	-2.996400	3.153400	-9.448200	27.419338	0.000304	20.889946
2435.718493	-3.012000	3.152700	-9.494900	27.444022	0.000304	20.911931
2436.718248	-3.000700	3.153700	-9.461700	27.455531	0.000302	20.889373
2437.718173	-2.991800	3.150400	-9.424500	27.472223	0.000300	20.918966
2438.719173	-2.992000	3.152800	-9.431300	27.466022	0.000301	20.904668
2439.723505	-2.992100	3.150900	-9.427200	27.450842	0.000301	20.896034
2440.724126	-3.020500	3.147900	-9.506800	27.466121	0.000300	20.890070
2441.722776	-2.977300	3.149500	-9.376200	27.465155	0.000300	20.876771
2442.721254	-2.996500	3.148400	-9.432900	27.505264	0.000303	20.922335
2443.723129	-2.999000	3.147300	-9.438000	27.524289	0.000300	20.916821
2444.722371	-3.001300	3.146400	-9.442500	27.565860	0.000299	20.914077
2445.723773	-2.982700	3.148300	-9.389200	27.580592	0.000298	20.914676
2446.721405	-2.978800	3.145000	-9.367900	27.615043	0.000299	20.923734
2447.724054	-2.998500	3.143900	-9.426100	27.636892	0.000298	20.903522
2448.721084	-3.016400	3.143100	-9.480000	27.651350	0.000298	20.900053
2449.723142	-3.001400	3.143900	-9.435400	27.661644	0.000298	20.914203
2450.722126	-3.014000	3.143100	-9.471400	27.655269	0.000299	20.902100
2451.722509	-2.992700	3.140600	-9.397900	27.689072	0.000295	20.911932
2452.721478	-2.981800	3.141700	-9.367100	27.657874	0.000295	20.911358
2453.723306	-3.002100	3.141000	-9.429000	27.679326	0.000294	20.912555
2454.723141	-3.029600	3.138700	-9.508100	27.633916	0.000296	20.909536
2455.722914	-3.030300	3.139300	-9.511600	27.605072	0.000294	20.899006
2456.722420	-3.017300	3.138400	-9.468400	27.591110	0.000294	20.932369
2457.723156	-3.009900	3.138100	-9.444300	27.574393	0.000294	20.917447
2458.729560	-2.989800	3.137400	-9.379600	27.572558	0.000293	20.925083
2459.724258	-2.982700	3.137100	-9.356500	27.581932	0.000294	20.918395
2460.729845	-3.016500	3.135700	-9.458000	27.558570	0.000293	20.910536
2461.725282	-3.007800	3.134800	-9.428200	27.560926	0.000294	20.896313
2462.724537	-3.029500	3.131800	-9.487100	27.560008	0.000293	20.925258
2463.723942	-2.997900	3.133300	-9.392300	27.557031	0.000294	20.910411
2464.727598	-3.000200	3.132900	-9.398300	27.522529	0.000293	20.920266
2465.725550	-2.989400	3.131600	-9.359000	27.502960	0.000293	20.897260
2466.724656	-3.027500	3.130400	-9.475000	27.540933	0.000292	20.908439
2467.729211	-2.990100	3.131900	-9.364000	27.527689	0.000293	20.897010
2468.725035	-2.983300	3.130200	-9.337100	27.557179	0.000293	20.902499
2469.725959	-3.011200	3.128100	-9.419000	27.578385	0.000291	20.887328
2470.725688	-2.983300	3.128500	-9.332400	27.575929	0.000291	20.917570
2471.727460	-2.996500	3.127900	-9.371800	27.574788	0.000291	20.910733
2472.725942	-3.008400	3.126000	-9.403800	27.576101	0.000290	20.901624
2473.724802	-3.003600	3.124300	-9.383400	27.557350	0.000289	20.905991
2474.727277	-3.022600	3.124100	-9.441300	27.562286	0.000292	20.905741
2475.726923	-3.007000	3.123600	-9.391900	27.606185	0.000290	20.892065
2476.724767	-3.007700	3.122500	-9.391000	27.612187	0.000290	20.911853
2477.726520	-2.989300	3.123900	-9.337600	27.663722	0.000289	20.913923
2478.728382	-3.000500	3.122000	-9.365800	27.649288	0.000289	20.906986
2479.728242	-3.001300	3.122000	-9.368700	27.676320	0.000288	20.909057
2480.727603	-3.021800	3.118600	-9.423300	27.690556	0.000288	20.897305
2481.733634	-3.013700	3.117800	-9.392900	27.685546	0.000287	20.889893
2482.729321	-2.979200	3.118100	-9.288200	27.700201	0.000288	20.897054
2483.728432	-3.014500	3.117600	-9.396600	27.709526	0.000287	20.886524
2484.730857	-3.006200	3.115000	-9.363400	27.689363	0.000287	20.888519
2485.734390	-2.985300	3.116600	-9.302700	27.679022	0.000288	20.905138
2486.733214	-3.010000	3.113400	-9.370300	27.655190	0.000286	20.899175
2487.732412	-3.002200	3.114400	-9.349400	27.679469	0.000285	20.886149
2488.736125	-2.981300	3.114200	-9.283700	27.683957	0.000286	20.882605
2489.731092	-3.011600	3.112300	-9.372400	27.687577	0.000283	20.893360
2490.735173	-3.033500	3.110800	-9.435100	27.675401	0.000284	20.884427
2491.733742	-2.992800	3.110800	-9.308800	27.690529	0.000285	20.906286
2492.736258	-3.009900	3.108700	-9.355600	27.682370	0.000286	20.888120
2493.738796	-3.028600	3.109300	-9.415700	27.664217	0.000284	20.892612
2494.734898	-2.999800	3.108000	-9.322700	27.654768	0.000283	20.883105
2495.734463	-3.026200	3.106200	-9.399200	27.712130	0.000283	20.903367
2496.733446	-3.035200	3.105000	-9.423400	27.688695	0.000283	20.895906
2497.739742	-3.019600	3.105900	-9.377100	27.663696	0.000284	20.870753
2498.733068	-2.967000	3.106800	-9.217400	27.588600	0.000282	20.879114
2499.734701	-3.019600	3.103200	-9.369600	27.522252	0.000286	20.895333
2500.739427	-2.988100	3.103300	-9.271600	27.508907	0.000281	20.874797
2501.735887	-3.001200	3.102800	-9.311100	27.538300	0.000282	20.878291
2502.740068	-3.001400	3.100700	-9.305800	27.576447	0.000285	20.878266
2503.738286	-3.015600	3.098800	-9.343500	27.558465	0.000283	20.854959
2504.738542	-3.019800	3.100500	-9.360900	27.565957	0.000284	20.852540
2505.735516	-3.006500	3.099300	-9.316100	27.564865	0.000285	20.877044
2506.734762	-3.026100	3.097200	-9.371800	27.531704	0.000281	20.859328
2507.735974	-2.998400	3.096700	-9.283200	27.549265	0.000282	20.868461
2508.746202	-3.006500	3.095100	-9.304600	27.495690	0.000284	20.872878
2509.742502	-3.005900	3.093400	-9.298000	27.481030	0.000282	20.871880
2510.743168	-3.033000	3.093100	-9.380600	27.429958	0.000282	20.847526
2511.738239	-3.043500	3.091100	-9.406900	27.435836	0.000281	20.851543
2512.739806	-3.001400	3.092800	-9.280800	27.455631	0.000283	20.862448
2513.740906	-2.982100	3.091500	-9.218100	27.497302	0.000281	20.867863
2514.739996	-3.003100	3.090400	-9.279700	27.520222	0.000282	20.854414
2515.739370	-2.996800	3.089400	-9.257500	27.518635	0.000281	20.869886
2516.741726	-2.978100	3.089100	-9.199000	27.540413	0.000281	20.859080
2517.743297	-2.957600	3.088300	-9.132700	27.537536	0.000278	20.859506
2518.742155	-2.988400	3.086100	-9.222400	27.539546	0.000281	20.857260
2519.742457	-2.988000	3.086500	-9.221700	27.532651	0.000280	20.859331
2520.742536	-3.026900	3.083700	-9.332600	27.544135	0.000279	20.843860
2521.746158	-2.986900	3.084700	-9.212200	27.528237	0.000281	20.867218
2522.746066	-2.995200	3.083400	-9.234000	27.547484	0.000278	20.860031
2523.741384	-2.984600	3.083000	-9.200000	27.515810	0.000279	20.848079
2524.743576	-2.985900	3.080900	-9.197900	27.523897	0.000280	20.851947
2525.745799	-2.993600	3.080400	-9.220600	27.557133	0.000278	20.855515
2526.746704	-2.965700	3.080300	-9.133700	27.608623	0.000279	20.834779
2527.744893	-2.981800	3.078600	-9.179400	27.614129	0.000281	20.859758
2528.750326	-2.982900	3.077800	-9.180600	27.623976	0.000278	20.838847
2529.746467	-2.987900	3.077000	-9.192500	27.606690	0.000281	20.843739
2530.744564	-2.981400	3.074400	-9.165600	27.593370	0.000279	20.840768
2531.744726	-3.001600	3.073300	-9.224300	27.596695	0.000279	20.843639
2532.747262	-3.018600	3.072500	-9.273200	27.623281	0.000282	20.853320
2533.745465	-2.969600	3.074000	-9.126800	27.657333	0.000281	20.832583
2534.744970	-3.034000	3.070500	-9.314600	27.681115	0.000279	20.853194
2535.745632	-3.016700	3.068900	-9.257300	27.720174	0.000283	20.845084
2536.746376	-2.990900	3.068500	-9.176500	27.727986	0.000283	20.853419
2537.746189	-2.982400	3.068900	-9.151300	27.741376	0.000280	20.843661
2538.750856	-2.963800	3.069200	-9.094900	27.697358	0.000281	20.845832
2539.748217	-2.970700	3.066800	-9.109100	27.651254	0.000280	20.838794
2540.746142	-2.995200	3.065100	-9.179700	27.615862	0.000282	20.830209
2541.748806	-3.022300	3.063800	-9.258600	27.596665	0.000280	20.828910
2542.747693	-3.019500	3.062700	-9.247400	27.593589	0.000282	20.844781
2543.746336	-3.011000	3.061400	-9.217300	27.620398	0.000282	20.829083
2544.747094	-3.010500	3.059900	-9.210200	27.618488	0.000279	20.830954
2545.747886	-2.994800	3.060200	-9.163300	27.645495	0.000281	20.834422
2546.748314	-3.015400	3.058100	-9.219900	27.671510	0.000281	20.834521
2547.752004	-3.009100	3.057400	-9.198900	27.717091	0.000279	20.831076
2548.752604	-3.028400	3.056300	-9.253400	27.747517	0.000281	20.833246
2549.747342	-3.017900	3.055100	-9.218700	27.812338	0.000282	20.838261
2550.748924	-3.018700	3.053000	-9.214900	27.817321	0.000281	20.828578
2551.750731	-2.990200	3.053300	-9.129500	27.849481	0.000280	20.819219
2552.749129	-3.019300	3.051900	-9.213400	27.853523	0.000280	20.825657
2553.749873	-2.989000	3.050900	-9.118100	27.864530	0.000279	20.851907
2554.750131	-2.987500	3.048900	-9.107600	27.839759	0.000280	20.825081
2555.749601	-2.995000	3.049500	-9.131000	27.829393	0.000279	20.831244
2556.753581	-3.001900	3.047700	-9.148300	27.799264	0.000279	20.825578
2557.752583	-2.987700	3.046500	-9.101300	27.772755	0.000278	20.822608
2558.750672	-2.989700	3.047300	-9.108900	27.740193	0.000278	20.835832
2559.752221	-3.011000	3.042800	-9.159900	27.774960	0.000278	20.842370
2560.749960	-3.001800	3.042700	-9.132900	27.781505	0.000277	20.832837
2561.750217	-3.005700	3.040400	-9.137700	27.842084	0.000277	20.831688
2562.751582	-3.002100	3.041000	-9.128600	27.852571	0.000278	20.830864
2563.751143	-3.006500	3.039400	-9.137200	27.863233	0.000278	20.837326
2564.750742	-2.996500	3.038700	-9.104300	27.832263	0.000277	20.828916
2565.751452	-3.008500	3.038000	-9.138400	27.836725	0.000276	20.824873
2566.757330	-3.018700	3.036100	-9.163600	27.867150	0.000274	20.850277
2567.751995	-2.996900	3.035500	-9.096300	27.918574	0.000274	20.847507
2568.752557	-2.988400	3.034800	-9.067700	27.863875	0.000275	20.847455
2569.749953	-2.998400	3.032800	-9.093100	27.862735	0.000276	20.840618
2570.751577	-3.008200	3.032000	-9.118700	27.873694	0.000276	20.845009
2571.756607	-3.014000	3.030400	-9.132800	27.903076	0.000275	20.821477
2572.754956	-3.006400	3.029100	-9.105900	27.924374	0.000275	20.838645
2573.754198	-2.995200	3.029200	-9.072300	27.869106	0.000275	20.837547
2574.755915	-3.000700	3.027900	-9.084800	27.852542	0.000275	20.840317
2575.751011	-2.992800	3.026200	-9.056900	27.810364	0.000274	20.840542
2576.753839	-3.029900	3.024000	-9.161400	27.843095	0.000273	20.810895
2577.751693	-3.002600	3.024100	-9.079200	27.886834	0.000276	20.848277
2578.752807	-3.010500	3.022300	-9.097200	27.886810	0.000274	20.832606
2579.752760	-3.008600	3.021400	-9.089100	27.869427	0.000270	20.823172
2580.754412	-2.980500	3.020700	-9.002300	27.832060	0.000274	20.836299
2581.756363	-2.993300	3.020000	-9.038500	27.865832	0.000275	20.828088
2582.752634	-2.996200	3.017500	-9.040400	27.866576	0.000273	20.814139
2583.754247	-2.978700	3.016800	-8.985400	27.918298	0.000274	20.825418
2584.752244	-2.986600	3.015900	-9.006600	27.913017	0.000274	20.820103
2585.755776	-2.997500	3.013300	-9.030900	27.852368	0.000273	20.820228
2586.757753	-3.013500	3.012700	-9.077500	27.838160	0.000274	20.828687
2587.757679	-2.995700	3.011000	-9.019200	27.837639	0.000273	20.836224
2588.756390	-3.010800	3.008900	-9.057900	27.841086	0.000273	20.812666
2589.760697	-3.001200	3.008100	-9.027200	27.854501	0.000273	20.816210
2590.758994	-2.996400	3.008400	-9.013200	27.885197	0.000275	20.801112
2591.758646	-3.002000	3.006100	-9.023000	27.905256	0.000275	20.807550
2592.761070	-2.996500	3.004500	-9.001300	27.952564	0.000276	20.816285
2593.759441	-2.991800	3.004100	-8.986200	27.951547	0.000276	20.834702
2594.758325	-3.005300	3.003800	-9.026400	27.987993	0.000275	20.823971
2595.757549	-3.013100	3.002500	-9.045800	27.992728	0.000276	20.795073
2596.758329	-2.989200	3.000400	-8.968000	28.003414	0.000275	20.791129
2597.758663	-3.024300	2.997800	-9.064900	27.991414	0.000276	20.812715
2598.760227	-3.006900	2.998400	-9.014300	28.004875	0.000275	20.826740
2599.765033	-3.008800	2.996300	-9.013700	28.026990	0.000276	20.829560
2600.761478	-2.982700	2.994000	-8.929000	28.036410	0.000275	20.817705
2601.760959	-2.984000	2.995300	-8.936500	28.009932	0.000276	20.804803
2602.763426	-2.983700	2.994300	-8.932600	28.024583	0.000276	20.803429
2603.762609	-3.004700	2.990400	-8.984200	28.042928	0.000275	20.831378
2604.764247	-3.004300	2.990000	-8.980700	28.064372	0.000276	20.800334
2605.760882	-2.982300	2.989500	-8.914800	28.075404	0.000275	20.817603
2606.764877	-2.988700	2.987700	-8.928200	28.102425	0.000276	20.792173
2607.765543	-2.998800	2.986600	-8.955800	28.093252	0.000275	20.802853
2608.763971	-3.003000	2.983400	-8.957800	28.104556	0.000275	20.810913
2609.766057	-3.012200	2.983100	-8.984600	28.100142	0.000276	20.817850
2610.762057	-3.010600	2.980800	-8.972400	28.094019	0.000275	20.804099
2611.764458	-2.996500	2.981100	-8.931900	28.086630	0.000275	20.804721
2612.765789	-2.992400	2.978700	-8.913000	28.108296	0.000275	20.810411
2613.764702	-2.987300	2.978600	-8.896900	28.114220	0.000274	20.827280
2614.762849	-2.982800	2.976700	-8.877800	28.116847	0.000273	20.824234
2615.761791	-3.007300	2.976200	-8.948900	28.110178	0.000273	20.793814
2616.763888	-3.001700	2.973700	-8.925300	28.153684	0.000271	20.829075
2617.766021	-3.018400	2.971600	-8.968100	28.142503	0.000273	20.799328
2618.765864	-2.993200	2.970000	-8.889300	28.172968	0.000272	20.825256
2619.764949	-2.991500	2.969500	-8.881700	28.198425	0.000272	20.810582
2620.763596	-2.998500	2.967300	-8.896900	28.192501	0.000273	20.807462
2621.763410	-2.999900	2.966000	-8.895800	28.139006	0.000271	20.799126
2622.766754	-2.990100	2.964400	-8.862800	28.108787	0.000271	20.816121
2623.765667	-2.991400	2.964400	-8.866400	28.072916	0.000271	20.791390
2624.768034	-2.975700	2.962900	-8.815300	28.083302	0.000272	20.810855
2625.766746	-3.026400	2.959500	-8.955100	28.094879	0.000272	20.800698
2626.764972	-2.987200	2.959500	-8.839200	28.118678	0.000274	20.808534
2627.770001	-2.989200	2.958400	-8.842300	28.070981	0.000272	20.799874
2628.770689	-2.989700	2.957700	-8.842100	28.084541	0.000272	20.792661
2629.767571	-3.008300	2.956000	-8.890400	28.100333	0.000272	20.801446
2630.768261	-2.989400	2.953600	-8.827200	28.100555	0.000273	20.790765
2631.765977	-2.998900	2.951100	-8.849100	28.091233	0.000276	20.793234
2632.767009	-3.008800	2.952300	-8.881400	28.075763	0.000272	20.790938
2633.776070	-3.017200	2.949000	-8.895900	28.051145	0.000273	20.800770
2634.777293	-3.006000	2.946800	-8.857100	28.012098	0.000274	20.803190
2635.767190	-2.990500	2.946200	-8.810100	27.937124	0.000275	20.785571
2636.769947	-2.994900	2.943900	-8.816500	27.937470	0.000273	20.804412
2637.768103	-3.002500	2.942000	-8.832400	27.968636	0.000273	20.795004
2638.769156	-2.970300	2.942900	-8.740100	27.987428	0.000271	20.795902
2639.770599	-2.977200	2.940500	-8.754000	27.993428	0.000271	20.825174
2640.768101	-2.990000	2.938900	-8.786600	28.037656	0.000271	20.810899
2641.769043	-2.991400	2.937300	-8.785500	28.046556	0.000269	20.805633
2642.774026	-3.022700	2.933700	-8.866900	28.063637	0.000270	20.810499
2643.774307	-2.994800	2.932500	-8.780100	28.052580	0.000270	20.808852
2644.771737	-2.989100	2.933000	-8.765600	28.041918	0.000271	20.788163
2645.773479	-2.993000	2.930200	-8.768100	28.047125	0.000273	20.784869
2646.776563	-2.958900	2.929400	-8.666400	28.040331	0.000271	20.809799
2647.768334	-3.005300	2.926500	-8.793000	28.062990	0.000272	20.803684
2648.772973	-3.020200	2.924100	-8.830100	28.050446	0.000273	20.801488
2649.771114	-2.998900	2.923900	-8.767700	28.069435	0.000271	20.793102
2650.771459	-2.989700	2.922700	-8.736500	28.105158	0.000273	20.771216
2651.773101	-2.983400	2.920800	-8.712800	28.116288	0.000272	20.799016
2652.771857	-2.977400	2.920000	-8.692700	28.133987	0.000273	20.801661
2653.773841	-2.976200	2.918100	-8.682800	28.117131	0.000273	20.785640
2654.771028	-2.981200	2.917200	-8.695800	28.135598	0.000273	20.799490
2655.770319	-3.006100	2.913800	-8.758100	28.205353	0.000270	20.811867
2656.771872	-3.015600	2.911800	-8.779900	28.220672	0.000271	20.796470
2657.770301	-3.001000	2.910000	-8.731300	28.264841	0.000270	20.810120
2658.773665	-2.989300	2.909300	-8.696100	28.237204	0.000270	20.805054
2659.772673	-2.993600	2.907500	-8.703100	28.235741	0.000269	20.769441
2660.776020	-3.002500	2.905200	-8.721700	28.192263	0.000270	20.802008
2661.773345	-3.008700	2.904600	-8.737600	28.116038	0.000269	20.787385
2662.772837	-3.009000	2.903400	-8.735200	28.113782	0.000267	20.808347
2663.774923	-2.993600	2.901700	-8.685300	28.088297	0.000269	20.788382
2664.777753	-2.985700	2.899800	-8.657700	28.128457	0.000271	20.799412
2665.774615	-3.021900	2.895900	-8.749600	28.133316	0.000269	20.801459
2666.776822	-2.982100	2.895600	-8.632600	28.165913	0.000269	20.798713
2667.778166	-2.960900	2.894000	-8.567700	28.174639	0.000270	20.771936
2668.781638	-3.007900	2.891700	-8.697500	28.211846	0.000268	20.796119
2669.776387	-2.998900	2.889400	-8.663500	28.241639	0.000269	20.795295
2670.776528	-2.973500	2.889800	-8.591700	28.291138	0.000267	20.805302
2671.775426	-2.995600	2.887100	-8.647400	28.303853	0.000269	20.781594
2672.775935	-3.004000	2.884500	-8.663300	28.301945	0.000270	20.782044
2673.775019	-2.981000	2.882900	-8.593000	28.251035	0.000268	20.791478
2674.781705	-2.961200	2.881100	-8.530300	28.200964	0.000269	20.786112
2675.778351	-3.001600	2.878900	-8.638800	28.178284	0.000270	20.798366
2676.783081	-3.009400	2.876400	-8.654700	28.194743	0.000269	20.786013
2677.776595	-2.994300	2.876900	-8.613400	28.143852	0.000270	20.787410
2678.777445	-2.990100	2.875000	-8.595600	28.150248	0.000269	20.788633
2679.776005	-2.999300	2.872400	-8.614100	28.089192	0.000269	20.790231
2680.777141	-2.987500	2.870700	-8.575300	28.095018	0.000268	20.799415
2681.777366	-2.974300	2.867700	-8.527400	28.105381	0.000267	20.793251
2682.778282	-3.022000	2.864100	-8.653200	28.126774	0.000268	20.790132
2683.778419	-2.992300	2.863200	-8.566400	28.172263	0.000268	20.779976
2684.779649	-2.991600	2.863700	-8.564800	28.190110	0.000268	20.802211
2685.780384	-3.005500	2.860000	-8.595200	28.200324	0.000268	20.776932
2686.781813	-2.998700	2.857700	-8.568200	28.215717	0.000267	20.815189
2687.779294	-3.000000	2.856200	-8.566300	28.209545	0.000268	20.791432
2688.778301	-3.005100	2.854400	-8.576100	28.229450	0.000268	20.782548
2689.783084	-2.992500	2.851600	-8.532700	28.265813	0.000268	20.784546
2690.779680	-2.994000	2.851300	-8.535100	28.267796	0.000267	20.798396
2691.780544	-2.995800	2.848600	-8.532800	28.275059	0.000268	20.799071
2692.783829	-2.970900	2.846200	-8.455100	28.263980	0.000267	20.787916
2693.780006	-2.994400	2.843100	-8.512400	28.236270	0.000267	20.787044
2694.781342	-3.005100	2.843000	-8.541500	28.196313	0.000267	20.791386
2695.783711	-2.959700	2.841400	-8.408600	28.166741	0.000269	20.765407
2696.786546	-3.007300	2.838300	-8.534600	28.182656	0.000270	20.792810
2697.780983	-2.985100	2.834400	-8.459800	28.220458	0.000269	20.789142
2698.787371	-3.007200	2.832200	-8.516300	28.222961	0.000270	20.774592
2699.793298	-2.994100	2.832300	-8.478700	28.258407	0.000272	20.792736
2700.785225	-3.031000	2.827700	-8.569700	28.275907	0.000271	20.782854
2701.785782	-3.006000	2.827000	-8.497700	28.319380	0.000272	20.801970
2702.785979	-2.991800	2.824700	-8.450400	28.354004	0.000272	20.793684
2703.786845	-2.970400	2.822800	-8.383300	28.370659	0.000270	20.788644
2704.788198	-3.011700	2.818200	-8.486600	28.389346	0.000273	20.795133
2705.783755	-3.012600	2.818400	-8.489700	28.377153	0.000273	20.795182
2706.784880	-3.005200	2.814400	-8.456900	28.321215	0.000272	20.811403
2707.791839	-2.960000	2.812700	-8.324100	28.280418	0.000272	20.788345
2708.787697	-2.991600	2.810500	-8.407400	28.267380	0.000271	20.788968
2709.791032	-3.028800	2.808900	-8.506700	28.289291	0.000270	20.784950
2710.788372	-2.983500	2.805500	-8.369600	28.338068	0.000268	20.804665
2711.787819	-2.967500	2.804000	-8.319200	28.349618	0.000269	20.771250
2712.788089	-3.038500	2.798000	-8.499900	28.374872	0.000271	20.787670
2713.789504	-2.982400	2.799500	-8.348500	28.410535	0.000270	20.790864
2714.790522	-2.992900	2.795000	-8.364300	28.396309	0.000271	20.818265
2715.790689	-2.995200	2.792000	-8.361800	28.414823	0.000268	20.798975
2716.791271	-3.000400	2.789700	-8.369000	28.420646	0.000270	20.810529
2717.797542	-2.993100	2.788000	-8.343700	28.488574	0.000271	20.810180
2718.798350	-2.971600	2.786200	-8.278900	28.517790	0.000271	20.800722
2719.791516	-3.007500	2.781200	-8.363700	28.546684	0.000268	20.798052
2720.792379	-3.029700	2.779400	-8.420100	28.524531	0.000268	20.796131
2721.795094	-2.997600	2.776100	-8.320500	28.498883	0.000271	20.805389
2722.800922	-2.987600	2.775400	-8.290100	28.500295	0.000270	20.782155
2723.796480	-2.996300	2.771700	-8.303400	28.506119	0.000268	20.785175
2724.795740	-2.998200	2.768300	-8.298900	28.530008	0.000268	20.799275
2725.799358	-2.994300	2.764800	-8.276900	28.512141	0.000270	20.805464
2726.799737	-2.996400	2.763300	-8.279400	28.482578	0.000270	20.799401
2727.797662	-3.012400	2.759400	-8.311200	28.503567	0.000268	20.796830
2728.796395	-3.000200	2.757200	-8.271500	28.547726	0.000269	20.800049
2729.794879	-2.978400	2.753800	-8.201400	28.539623	0.000270	20.794734
2730.802437	-2.976800	2.750900	-8.187100	28.556746	0.000270	20.790642
2731.797976	-3.004200	2.746700	-8.250900	28.595947	0.000271	20.804517
2732.797058	-2.997300	2.744600	-8.225900	28.629298	0.000270	20.797804
2733.803698	-3.015200	2.740300	-8.261200	28.595401	0.000271	20.786898
2734.798011	-3.019600	2.736100	-8.260000	28.596466	0.000271	20.793187
2735.796547	-2.994400	2.735500	-8.190900	28.608806	0.000269	20.790916
2736.794529	-3.031200	2.730700	-8.275600	28.639506	0.000269	20.806189
2737.795591	-3.001600	2.728000	-8.186700	28.648450	0.000272	20.808085
2738.797055	-2.992100	2.724000	-8.149500	28.668446	0.000271	20.812103
2739.799197	-2.992400	2.722000	-8.144300	28.702809	0.000270	20.798351
2740.801204	-2.967400	2.719300	-8.067600	28.667355	0.000271	20.810530
2741.798110	-2.980400	2.715100	-8.091300	28.586826	0.000270	20.804814
2742.797425	-3.007600	2.711200	-8.152900	28.589328	0.000272	20.803541
2743.797969	-3.012400	2.707900	-8.156500	28.604666	0.000272	20.789117
2744.801389	-2.984200	2.704400	-8.069400	28.626594	0.000269	20.810254
2745.799270	-3.019800	2.698600	-8.147500	28.656624	0.000270	20.815843
2746.799633	-2.984700	2.697100	-8.049100	28.644284	0.000269	20.820010
2747.800468	-2.988900	2.694100	-8.050600	28.632787	0.000270	20.812224
2748.801469	-2.989300	2.688300	-8.034500	28.638188	0.000271	20.816241
2749.800740	-2.953000	2.686700	-7.933000	28.657662	0.000271	20.798871
2750.804354	-2.988800	2.681600	-8.013600	28.667250	0.000273	20.825123
2751.804006	-3.013900	2.678000	-8.070500	28.669083	0.000273	20.826495
2752.809462	-2.962300	2.673200	-7.918500	28.635411	0.000272	20.825772
2753.798916	-3.028800	2.667900	-8.080000	28.560505	0.000274	20.805333
2754.799294	-2.978500	2.666400	-7.940900	28.472162	0.000273	20.828266
2755.802867	-2.982300	2.661200	-7.935200	28.444010	0.000270	20.837374
2756.799151	-3.006100	2.656300	-7.984700	28.476077	0.000270	20.822251
2757.805462	-2.996200	2.653500	-7.949100	28.500808	0.000272	20.810646
2758.804301	-2.988700	2.649400	-7.917600	28.513098	0.000272	20.820178
2759.804566	-3.006600	2.644500	-7.949200	28.537234	0.000272	20.823622
2760.806035	-3.015700	2.638400	-7.955500	28.600247	0.000272	20.827340
2761.803883	-3.018200	2.634700	-7.950500	28.611272	0.000271	20.824693
2762.806596	-2.999100	2.630900	-7.889400	28.623017	0.000270	20.822771
2763.803419	-3.040000	2.626200	-7.982300	28.653814	0.000270	20.830557
2764.808623	-2.985900	2.621200	-7.825400	28.657754	0.000272	20.812714
2765.815149	-2.994300	2.617900	-7.837400	28.686023	0.000272	20.838816
2766.806085	-2.986900	2.612400	-7.802000	28.720313	0.000271	20.838266
2767.813550	-3.013800	2.606200	-7.853000	28.758094	0.000272	20.813735
2768.814059	-2.964800	2.602400	-7.714500	28.820078	0.000272	20.839188
2769.808484	-3.006200	2.596900	-7.805000	28.815569	0.000270	20.824215
2770.809625	-2.998700	2.591400	-7.769800	28.809251	0.000271	20.852937
2771.809379	-3.010200	2.586900	-7.786000	28.809127	0.000270	20.842855
2772.807118	-2.969600	2.582200	-7.667400	28.824931	0.000270	20.866361
2773.810627	-3.030500	2.575200	-7.803100	28.847499	0.000272	20.844526
2774.807791	-2.968000	2.571400	-7.630700	28.851512	0.000272	20.838137
2775.807086	-3.006600	2.564200	-7.707200	28.824261	0.000270	20.863316
2776.811280	-3.018300	2.558600	-7.720700	28.827679	0.000270	20.855854
2777.809536	-2.997200	2.554200	-7.654400	28.863352	0.000270	20.851486
2778.809943	-3.014700	2.548100	-7.680700	28.846159	0.000268	20.855029
2779.811035	-2.981100	2.542400	-7.578400	28.847918	0.000270	20.848267
2780.811130	-2.977000	2.536100	-7.548100	28.877669	0.000270	20.849314
2781.809433	-2.989300	2.530700	-7.564500	28.941232	0.000272	20.841279
2782.813036	-3.010100	2.522400	-7.591800	28.925700	0.000272	20.855502
2783.818482	-3.009900	2.516300	-7.572900	28.977940	0.000270	20.852657
2784.811002	-3.000100	2.511300	-7.532600	29.017521	0.000271	20.858870
2785.816209	-2.979800	2.506300	-7.467500	29.087837	0.000270	20.851958
2786.814256	-2.979700	2.500700	-7.450500	29.086672	0.000271	20.839880
2787.818861	-3.016600	2.491600	-7.515600	29.079762	0.000269	20.850460
