LabVIEW Measurement	
Writer_Version	2
Reader_Version	2
Separator	Tab
Decimal_Separator	.
Multi_Headings	No
X_Columns	One
Time_Pref	Absolute
Operator	admin
Description	Clolumns are: time, Current, Voltage, Power, Battery Temp, and Chamber Temp
Date	2024/08/16
Time	13:06:06.104549407958984375
***End_of_Header***	
	
Channels	6						
Samples	1	1	1	1	1	1	
Date	2024/09/07	2024/09/07	2024/09/07	2024/09/07	2024/09/07	2024/09/07	
Time	10:06:39.5837697982788085938	10:06:39.5897846221923828125	10:06:39.5988030433654785156	10:06:39.5680255889892578125	10:06:39.5680255889892578125	10:06:39.5680255889892578125	
X_Dimension	Time	Time	Time	Time	Time	Time	
X0	0.0000000000000000E+0	0.0000000000000000E+0	0.0000000000000000E+0	0.0000000000000000E+0	0.0000000000000000E+0	0.0000000000000000E+0	
Delta_X	1.000000	1.000000	1.000000	1.000000	1.000000	1.000000	
***End_of_Header***							
X_Value	Untitled	Untitled 1	Untitled 2	Untitled 3	Untitled 4	Untitled 5	Comment
0.000000	0.004400	4.097400	0.018024	20.895121	0.000910	20.699295
1.001083	-3.012000	3.926100	-11.825000	20.888940	0.000910	20.700701
2.001692	-2.990200	3.920100	-11.720000	20.882499	0.000908	20.695207
3.002785	-2.985700	3.913900	-11.685000	20.882899	0.000906	20.684227
4.003664	-2.983100	3.910800	-11.665000	20.903598	0.000907	20.715835
5.002294	-2.966000	3.907100	-11.587000	20.906025	0.000905	20.695502
6.003292	-3.009000	3.903700	-11.745000	20.907447	0.000906	20.708305
7.003608	-2.998400	3.901200	-11.696000	20.897467	0.000905	20.691209
8.004261	-2.980500	3.899500	-11.622000	20.915556	0.000902	20.692706
9.005622	-3.017400	3.896500	-11.756000	20.914355	0.000904	20.697194
10.007493	-2.977000	3.896700	-11.599000	20.926102	0.000903	20.717953
11.005448	-2.999400	3.893500	-11.677000	20.923739	0.000901	20.691406
12.006377	-3.000200	3.892700	-11.678000	20.926780	0.000899	20.700138
13.009615	-3.006000	3.889200	-11.690000	20.921238	0.000901	20.704553
14.006858	-3.011200	3.888300	-11.708000	20.936360	0.000900	20.684113
15.010186	-3.009500	3.887900	-11.699000	20.937814	0.000899	20.692681
16.011000	-2.994500	3.886100	-11.637000	20.940733	0.000899	20.695126
17.007768	-2.989800	3.885400	-11.616000	20.937512	0.000896	20.703759
18.010513	-2.995200	3.883400	-11.630000	20.953035	0.000898	20.709327
19.008649	-2.997400	3.883500	-11.640000	20.941934	0.000897	20.696801
20.009664	-2.994900	3.882500	-11.627000	20.979583	0.000897	20.699369
21.009348	-3.007800	3.880700	-11.671000	20.975194	0.000896	20.722007
22.011195	-2.978200	3.881900	-11.560000	20.981030	0.000896	20.719309
23.011266	-2.984300	3.880600	-11.579000	20.983784	0.000896	20.691241
24.013052	-3.032500	3.878400	-11.759000	20.981684	0.000895	20.707634
25.010663	-2.985300	3.879400	-11.579000	21.001079	0.000893	20.690048
26.009627	-3.001900	3.877700	-11.638000	21.001022	0.000894	20.708010
27.011807	-2.997200	3.877100	-11.620000	21.001971	0.000893	20.695681
28.010488	-2.985300	3.878600	-11.578000	21.029253	0.000893	20.708271
29.010530	-2.994400	3.878200	-11.611000	21.028722	0.000893	20.712482
30.011443	-3.010900	3.876000	-11.668000	21.026205	0.000890	20.700006
31.012376	-3.010800	3.875200	-11.666000	21.040721	0.000894	20.695558
32.011889	-3.001600	3.874200	-11.627000	21.047896	0.000891	20.705581
33.013115	-3.010500	3.872700	-11.658000	21.025036	0.000890	20.705001
34.013365	-2.971000	3.874400	-11.510000	21.040090	0.000891	20.710102
35.013717	-3.002800	3.872300	-11.626000	21.062002	0.000890	20.708785
36.016620	-2.997300	3.872400	-11.605000	21.057964	0.000889	20.685778
37.013620	-2.992400	3.871100	-11.584000	21.079223	0.000891	20.711311
38.017878	-2.975400	3.871500	-11.518000	21.074327	0.000891	20.713053
39.012981	-2.989300	3.870500	-11.569000	21.087257	0.000890	20.709389
40.018903	-2.989600	3.870600	-11.571000	21.086415	0.000888	20.711392
41.016617	-3.004300	3.869300	-11.623000	21.091449	0.000888	20.696038
42.015398	-3.002300	3.868500	-11.613000	21.101804	0.000888	20.707820
43.016376	-2.993500	3.869100	-11.581000	21.114284	0.000890	20.720778
44.019848	-3.008900	3.867600	-11.637000	21.122269	0.000889	20.714065
45.016015	-3.027800	3.867000	-11.708000	21.128104	0.000886	20.687658
46.017534	-3.010500	3.866400	-11.639000	21.164684	0.000887	20.732787
47.017030	-3.004800	3.867100	-11.618000	21.138965	0.000886	20.718913
48.019985	-2.998200	3.866200	-11.591000	21.147758	0.000887	20.730080
49.021630	-2.982300	3.867700	-11.532000	21.161202	0.000887	20.720294
50.015725	-2.995800	3.865700	-11.580000	21.162894	0.000887	20.714874
51.016523	-3.006900	3.866000	-11.623000	21.168337	0.000889	20.711783
52.016257	-3.007700	3.864600	-11.622000	21.178168	0.000887	20.727783
53.017004	-2.984200	3.865200	-11.533000	21.206983	0.000888	20.719149
54.015470	-2.956500	3.865700	-11.428000	21.196261	0.000885	20.718380
55.019256	-2.996800	3.864200	-11.579000	21.195566	0.000885	20.731911
56.016012	-3.003800	3.863900	-11.605000	21.217092	0.000888	20.718356
57.016549	-2.998300	3.864000	-11.585000	21.212033	0.000886	20.702863
58.017975	-3.003400	3.864700	-11.605000	21.222142	0.000885	20.738581
59.018256	-3.014400	3.861600	-11.640000	21.223367	0.000885	20.722737
60.016586	-3.034200	3.861600	-11.716000	21.221766	0.000887	20.725403
61.017480	-2.983300	3.862900	-11.522000	21.247638	0.000886	20.710506
62.016418	-3.007300	3.860900	-11.609000	21.264880	0.000887	20.703573
63.016344	-2.995600	3.861400	-11.566000	21.256938	0.000884	20.735933
64.021020	-2.987600	3.862000	-11.537000	21.259789	0.000886	20.710334
65.018116	-3.008800	3.861400	-11.617000	21.266376	0.000886	20.716450
66.017646	-2.998200	3.859500	-11.570000	21.271761	0.000885	20.744598
67.019883	-3.020300	3.859000	-11.653000	21.293514	0.000885	20.735066
68.020189	-3.003900	3.860500	-11.595000	21.288350	0.000884	20.708086
69.021065	-3.002900	3.859400	-11.588000	21.304415	0.000884	20.735540
70.023079	-3.015800	3.859000	-11.638000	21.310421	0.000884	20.719737
71.021775	-3.010000	3.859600	-11.616000	21.333293	0.000885	20.731714
72.022331	-3.004200	3.858400	-11.591000	21.315177	0.000886	20.729712
73.025821	-3.004200	3.859200	-11.593000	21.325580	0.000885	20.745335
74.024168	-2.988700	3.858400	-11.530000	21.354342	0.000884	20.732859
75.024041	-3.009000	3.857800	-11.607000	21.352373	0.000886	20.744166
76.023734	-2.994900	3.857600	-11.553000	21.362946	0.000886	20.730562
77.025411	-3.016100	3.858000	-11.635000	21.359842	0.000884	20.726033
78.024932	-2.996400	3.857200	-11.556000	21.358126	0.000885	20.754663
79.025914	-2.997700	3.856600	-11.560000	21.389274	0.000883	20.722763
80.024257	-2.984000	3.855800	-11.505000	21.406539	0.000886	20.740038
81.027410	-3.005700	3.856600	-11.589000	21.407258	0.000885	20.730800
82.035793	-2.971700	3.857000	-11.461000	21.411842	0.000884	20.742025
83.027313	-3.007000	3.855400	-11.592000	21.403042	0.000885	20.761670
84.026850	-3.008700	3.855400	-11.599000	21.417856	0.000884	20.727652
85.028149	-3.011100	3.854500	-11.605000	21.410273	0.000884	20.740455
86.032434	-2.985000	3.856300	-11.510000	21.420748	0.000885	20.735762
87.027843	-3.009400	3.856500	-11.605000	21.414081	0.000885	20.740946
88.031091	-3.002900	3.855700	-11.576000	21.431223	0.000887	20.758098
89.029456	-3.008300	3.853800	-11.593000	21.447230	0.000885	20.739025
90.027813	-3.004400	3.854800	-11.581000	21.444060	0.000886	20.747233
91.032742	-2.997100	3.853900	-11.550000	21.481423	0.000885	20.745263
92.029645	-3.005700	3.853300	-11.581000	21.470531	0.000884	20.757125
93.030622	-3.015500	3.853500	-11.618000	21.468873	0.000885	20.742189
94.031655	-2.998100	3.852400	-11.547000	21.474911	0.000885	20.744437
95.029958	-2.999100	3.852200	-11.552000	21.503343	0.000884	20.763404
96.030936	-2.993100	3.851800	-11.527000	21.495067	0.000886	20.748484
97.034387	-3.000600	3.852000	-11.557000	21.503245	0.000886	20.741020
98.032106	-2.995900	3.851700	-11.538000	21.534674	0.000887	20.740227
99.031777	-3.001400	3.852200	-11.560000	21.543744	0.000887	20.749302
100.033474	-3.011200	3.852800	-11.601000	21.556071	0.000885	20.730342
101.032021	-3.024200	3.850100	-11.642000	21.538497	0.000885	20.740733
102.032527	-3.003800	3.851500	-11.568000	21.589109	0.000887	20.757714
103.034613	-2.989500	3.851900	-11.513000	21.547633	0.000886	20.745133
104.033410	-2.986700	3.850900	-11.499000	21.581511	0.000886	20.752956
105.033897	-3.005900	3.849900	-11.571000	21.571765	0.000888	20.752685
106.035345	-2.991600	3.851100	-11.520000	21.583357	0.000885	20.767132
107.034389	-2.997200	3.849700	-11.537000	21.575197	0.000887	20.768922
108.034657	-2.961600	3.851300	-11.405000	21.595162	0.000889	20.759029
109.036289	-2.996800	3.851200	-11.540000	21.613992	0.000887	20.760803
110.034584	-3.002100	3.849100	-11.554000	21.588022	0.000889	20.761842
111.038357	-3.005500	3.849500	-11.567000	21.613739	0.000888	20.741109
112.038538	-2.989100	3.850200	-11.507000	21.626213	0.000888	20.752644
113.034792	-3.004000	3.848300	-11.559000	21.635984	0.000889	20.777595
114.037075	-2.994200	3.849700	-11.525000	21.635861	0.000891	20.756609
115.039078	-3.004900	3.848400	-11.562000	21.659731	0.000889	20.751099
116.037074	-2.985600	3.848000	-11.486000	21.634317	0.000893	20.755538
117.038201	-3.001900	3.848700	-11.552000	21.659853	0.000891	20.761653
118.039751	-2.995000	3.849400	-11.528000	21.667319	0.000891	20.763909
119.038360	-3.015200	3.846500	-11.597000	21.690780	0.000890	20.763680
120.039202	-3.015200	3.847300	-11.599000	21.710475	0.000892	20.759683
121.041055	-2.980600	3.849600	-11.472000	21.712149	0.000891	20.757091
122.038954	-3.001900	3.847600	-11.550000	21.704242	0.000892	20.749652
123.040085	-2.997800	3.847500	-11.533000	21.734719	0.000892	20.773515
124.053564	-3.002400	3.847000	-11.549000	21.738909	0.000891	20.756371
125.041183	-3.005300	3.846300	-11.559000	21.746008	0.000892	20.763002
126.039664	-3.009100	3.845800	-11.571000	21.736614	0.000892	20.770196
127.042396	-2.999800	3.846500	-11.537000	21.760694	0.000893	20.759683
128.040056	-3.003800	3.846200	-11.552000	21.761821	0.000892	20.785467
129.042320	-3.008200	3.844200	-11.562000	21.751742	0.000893	20.769215
130.044215	-2.990200	3.845200	-11.496000	21.767450	0.000893	20.763125
131.042289	-2.987500	3.845200	-11.486000	21.787274	0.000894	20.756413
132.042842	-3.017500	3.844700	-11.600000	21.768520	0.000895	20.771783
133.042821	-2.971000	3.844800	-11.421000	21.804370	0.000894	20.745548
134.043250	-2.983100	3.844700	-11.468000	21.763007	0.000894	20.771006
135.045039	-2.997200	3.843200	-11.518000	21.788516	0.000894	20.782786
136.045186	-3.009400	3.843600	-11.565000	21.810185	0.000897	20.774603
137.044900	-3.001200	3.844100	-11.536000	21.811606	0.000897	20.797363
138.045818	-3.007800	3.844400	-11.562000	21.779637	0.000895	20.782909
139.045496	-3.003200	3.842600	-11.538000	21.807082	0.000896	20.777661
140.045557	-3.000100	3.843400	-11.529000	21.806967	0.000896	20.768537
141.044364	-2.991800	3.843500	-11.498000	21.815617	0.000895	20.788575
142.044945	-2.996200	3.843000	-11.514000	21.818933	0.000897	20.787152
143.044167	-2.988600	3.843700	-11.486000	21.821677	0.000897	20.806968
144.045021	-3.019200	3.840900	-11.595000	21.837123	0.000897	20.768849
145.046521	-2.992200	3.842100	-11.495000	21.852118	0.000896	20.800927
146.045470	-3.017600	3.840800	-11.589000	21.870863	0.000899	20.779386
147.049043	-2.991900	3.840800	-11.489000	21.879039	0.000897	20.781880
148.046546	-2.998500	3.840600	-11.514000	21.887720	0.000899	20.778241
149.046576	-2.995100	3.840500	-11.502000	21.911479	0.000899	20.765513
150.048209	-3.019800	3.839100	-11.592000	21.914289	0.000898	20.794404
151.049496	-3.003700	3.840300	-11.533000	21.913725	0.000900	20.795736
152.045753	-2.995000	3.840400	-11.502000	21.915318	0.000899	20.796382
153.046235	-3.020800	3.839800	-11.598000	21.940374	0.000899	20.809135
154.046139	-2.994700	3.840800	-11.501000	21.922374	0.000899	20.780212
155.050815	-3.024900	3.838600	-11.610000	21.951816	0.000900	20.802096
156.049160	-3.011500	3.840000	-11.564000	21.964605	0.000903	20.794984
157.048246	-2.981700	3.839200	-11.447000	21.964286	0.000901	20.801303
158.047113	-3.001400	3.838700	-11.521000	21.974241	0.000904	20.791353
159.048319	-2.988600	3.838200	-11.470000	21.980661	0.000902	20.778340
160.049333	-2.982400	3.839100	-11.449000	22.000759	0.000904	20.782885
161.048721	-2.995600	3.838200	-11.497000	22.005225	0.000904	20.798188
162.047824	-2.983600	3.839300	-11.454000	21.982122	0.000904	20.785966
163.050117	-2.994400	3.836900	-11.488000	22.003731	0.000906	20.785312
164.048261	-2.986000	3.838700	-11.461000	21.976209	0.000904	20.802807
165.049376	-3.007100	3.837300	-11.538000	21.996177	0.000904	20.809993
166.049110	-3.010700	3.836500	-11.550000	21.974617	0.000905	20.781298
167.053473	-2.989100	3.839700	-11.476000	21.986271	0.000905	20.795810
168.052590	-2.998900	3.835800	-11.502000	21.998881	0.000906	20.806062
169.049470	-2.990700	3.837500	-11.475000	22.012877	0.000906	20.788779
170.052919	-2.991300	3.837600	-11.479000	22.006222	0.000906	20.787332
171.052633	-3.002100	3.836700	-11.517000	22.015042	0.000906	20.807541
172.049929	-3.004000	3.835200	-11.519000	22.032027	0.000906	20.812216
173.055060	-3.000300	3.835700	-11.508000	22.031048	0.000907	20.821667
174.052725	-2.997100	3.836200	-11.497000	22.048899	0.000910	20.803028
175.051352	-2.997400	3.835900	-11.497000	22.048425	0.000906	20.821520
176.054228	-2.986800	3.835200	-11.454000	22.050394	0.000909	20.814955
177.057091	-3.002600	3.834600	-11.513000	22.054158	0.000908	20.816353
178.053097	-3.018600	3.833900	-11.572000	22.057775	0.000909	20.811440
179.059098	-3.009700	3.834800	-11.542000	22.056379	0.000912	20.810990
180.057303	-3.005500	3.834300	-11.523000	22.091729	0.000910	20.797542
181.053998	-3.014100	3.833100	-11.552000	22.069992	0.000912	20.816083
182.056369	-3.007400	3.833800	-11.529000	22.075153	0.000912	20.809396
183.057853	-3.007300	3.832800	-11.525000	22.103791	0.000913	20.811988
184.056238	-3.001200	3.832100	-11.500000	22.114937	0.000913	20.822198
185.058596	-3.000600	3.834100	-11.503000	22.110201	0.000915	20.810818
186.057528	-3.014400	3.832100	-11.550000	22.108608	0.000911	20.827716
187.058830	-2.982100	3.833000	-11.429000	22.116586	0.000913	20.836651
188.058586	-2.997100	3.831300	-11.481000	22.120677	0.000914	20.812772
189.060174	-2.977400	3.833300	-11.412000	22.133088	0.000915	20.829465
190.059094	-3.001800	3.830900	-11.496000	22.152783	0.000916	20.796552
191.067291	-2.987100	3.832700	-11.448000	22.172699	0.000916	20.827396
192.062519	-2.981200	3.832800	-11.425000	22.151608	0.000915	20.827617
193.057963	-2.983000	3.831600	-11.429000	22.171082	0.000915	20.832416
194.060246	-2.992700	3.831200	-11.465000	22.142740	0.000918	20.827274
195.063997	-2.997700	3.830600	-11.482000	22.158614	0.000916	20.836054
196.057478	-2.996900	3.830300	-11.478000	22.179476	0.000917	20.828018
197.060185	-3.009100	3.830100	-11.523000	22.209515	0.000917	20.824903
198.062386	-2.990200	3.831300	-11.455000	22.198697	0.000917	20.826399
199.057384	-3.011500	3.829700	-11.531000	22.204951	0.000920	20.831239
200.064979	-2.999300	3.829800	-11.486000	22.243636	0.000917	20.815919
201.061465	-3.001500	3.830000	-11.494000	22.243570	0.000917	20.801154
202.058606	-3.005200	3.830500	-11.511000	22.276989	0.000919	20.821338
203.058918	-3.002000	3.829100	-11.494000	22.257230	0.000919	20.820995
204.059137	-3.027400	3.828300	-11.588000	22.288859	0.000917	20.821845
205.059282	-3.016200	3.828100	-11.545000	22.297604	0.000922	20.811160
206.062346	-3.004400	3.827200	-11.498000	22.292648	0.000923	20.819948
207.062284	-3.037600	3.827800	-11.626000	22.318063	0.000923	20.817897
208.060260	-3.002400	3.827500	-11.490000	22.316552	0.000922	20.833927
209.060419	-2.996500	3.828400	-11.470000	22.326170	0.000923	20.817005
210.059928	-3.003300	3.828600	-11.497000	22.325582	0.000924	20.821631
211.063924	-2.996300	3.827100	-11.466000	22.344294	0.000923	20.826618
212.064489	-2.999700	3.827400	-11.480000	22.337020	0.000925	20.805584
213.061307	-2.994200	3.827700	-11.460000	22.335207	0.000923	20.826054
214.064521	-3.014200	3.825400	-11.529000	22.335827	0.000924	20.817192
215.061388	-3.005500	3.826300	-11.498000	22.327353	0.000927	20.822931
216.062068	-2.996000	3.826600	-11.463000	22.355649	0.000926	20.810962
217.061961	-2.975500	3.827300	-11.386000	22.344473	0.000926	20.806410
218.065137	-3.010900	3.826100	-11.519000	22.349690	0.000928	20.803098
219.061616	-3.016100	3.824400	-11.533000	22.341795	0.000927	20.799934
220.061752	-3.011600	3.824200	-11.515000	22.332602	0.000929	20.813014
221.064469	-3.017600	3.823700	-11.537000	22.342896	0.000928	20.800563
222.063148	-3.003700	3.824000	-11.483000	22.341876	0.000928	20.802386
223.063266	-2.997800	3.826200	-11.469000	22.337288	0.000930	20.819603
224.065911	-2.998000	3.824900	-11.466000	22.347713	0.000929	20.797800
225.062045	-2.999600	3.825400	-11.473000	22.376670	0.000931	20.797873
226.063721	-2.990200	3.825200	-11.437000	22.380385	0.000930	20.799696
227.068059	-3.003800	3.823400	-11.483000	22.377944	0.000931	20.803890
228.062460	-2.984300	3.822900	-11.407000	22.379241	0.000933	20.785749
229.064503	-2.988200	3.823700	-11.424000	22.380319	0.000932	20.798208
230.065348	-2.995200	3.824900	-11.455000	22.368195	0.000934	20.778006
231.065618	-2.988500	3.823100	-11.424000	22.384767	0.000933	20.791757
232.064320	-2.997900	3.823100	-11.460000	22.385297	0.000933	20.783279
233.067445	-2.981500	3.823100	-11.397000	22.372334	0.000934	20.797798
234.064072	-2.998600	3.822000	-11.460000	22.416499	0.000935	20.772324
235.065094	-3.007900	3.823200	-11.499000	22.424303	0.000935	20.794364
236.066984	-3.012400	3.822200	-11.513000	22.428694	0.000934	20.791649
237.063543	-3.007000	3.822600	-11.494000	22.435200	0.000937	20.770664
238.064938	-2.997800	3.821300	-11.455000	22.425689	0.000938	20.765406
239.066529	-3.005100	3.821800	-11.482000	22.453085	0.000936	20.780514
240.064960	-2.988100	3.819500	-11.412000	22.466661	0.000937	20.774669
241.064920	-2.993000	3.822000	-11.439000	22.457273	0.000936	20.790397
242.067620	-2.974400	3.822900	-11.369000	22.501974	0.000938	20.782533
243.066079	-3.002800	3.820100	-11.470000	22.481419	0.000938	20.793242
244.065532	-3.012200	3.820500	-11.506000	22.513965	0.000938	20.775102
245.068713	-3.012000	3.820400	-11.506000	22.515891	0.000940	20.777979
246.070309	-2.995700	3.819400	-11.441000	22.521327	0.000940	20.796225
247.067260	-2.999400	3.820800	-11.459000	22.521253	0.000940	20.796152
248.069120	-2.980600	3.820000	-11.384000	22.501352	0.000940	20.791393
249.070885	-3.012200	3.818100	-11.499000	22.520143	0.000941	20.766590
250.070198	-2.994400	3.818900	-11.434000	22.539659	0.000944	20.781395
251.068457	-2.975000	3.820700	-11.365000	22.539627	0.000943	20.773776
252.072487	-3.001800	3.819300	-11.464000	22.531839	0.000942	20.773088
253.069843	-3.015300	3.817900	-11.512000	22.514354	0.000945	20.781181
254.070401	-3.030500	3.815400	-11.560000	22.534182	0.000944	20.760736
255.072534	-2.992100	3.817500	-11.421000	22.527496	0.000943	20.763522
256.069864	-3.016100	3.817100	-11.511000	22.552857	0.000944	20.772802
257.069989	-3.024100	3.816200	-11.540000	22.554930	0.000945	20.780568
258.072407	-2.970900	3.816600	-11.337000	22.583286	0.000947	20.766294
259.070248	-3.013400	3.816400	-11.498000	22.570585	0.000946	20.777755
260.071292	-3.009400	3.814600	-11.478000	22.579524	0.000947	20.776276
261.074381	-3.006500	3.816800	-11.474000	22.571410	0.000949	20.755346
262.069563	-2.989100	3.816400	-11.407000	22.549510	0.000947	20.765181
263.072783	-3.009700	3.814500	-11.480000	22.578160	0.000948	20.757840
264.070734	-3.000500	3.815600	-11.448000	22.565729	0.000949	20.768623
265.071754	-2.991200	3.816100	-11.413000	22.561427	0.000949	20.758150
266.071258	-3.009900	3.815900	-11.484000	22.570365	0.000949	20.768999
267.075284	-2.996300	3.815500	-11.431000	22.576257	0.000947	20.759728
268.070677	-3.003700	3.813600	-11.454000	22.578127	0.000950	20.766816
269.074918	-3.031300	3.814800	-11.562000	22.559884	0.000952	20.767985
270.073935	-2.993800	3.814100	-11.418000	22.602369	0.000952	20.759327
271.072381	-2.983000	3.815300	-11.380000	22.621655	0.000951	20.753514
272.072478	-2.987300	3.814000	-11.393000	22.615158	0.000953	20.749851
273.073261	-2.990900	3.813700	-11.405000	22.627214	0.000952	20.765246
274.072426	-3.001500	3.813500	-11.446000	22.632666	0.000955	20.755060
275.074007	-2.986200	3.812600	-11.384000	22.629711	0.000952	20.765376
276.073766	-2.994100	3.813800	-11.418000	22.667255	0.000953	20.764575
277.074456	-3.002100	3.813000	-11.446000	22.672593	0.000953	20.734833
278.075016	-2.990900	3.813300	-11.404000	22.682836	0.000956	20.756947
279.074646	-3.007900	3.811200	-11.463000	22.699004	0.000954	20.761288
280.073946	-3.022000	3.810700	-11.514000	22.704015	0.000955	20.757773
281.073737	-3.007000	3.810800	-11.457000	22.721276	0.000957	20.760365
282.073742	-3.014900	3.811100	-11.489000	22.708446	0.000956	20.768376
283.075829	-3.007700	3.811900	-11.464000	22.738798	0.000957	20.747096
284.073810	-2.990700	3.812200	-11.401000	22.724777	0.000958	20.757233
285.077550	-3.005700	3.811800	-11.456000	22.719194	0.000959	20.747848
286.074236	-3.022300	3.809400	-11.512000	22.711302	0.000960	20.752270
287.073992	-3.019300	3.809800	-11.500000	22.701933	0.000958	20.747152
288.076912	-2.981800	3.809900	-11.360000	22.708486	0.000960	20.763675
289.077364	-3.001100	3.811000	-11.435000	22.692571	0.000961	20.758638
290.076262	-3.007300	3.808500	-11.452000	22.722842	0.000961	20.754346
291.079715	-3.010100	3.807800	-11.460000	22.736716	0.000961	20.740743
292.081263	-3.017900	3.809200	-11.494000	22.756825	0.000959	20.729117
293.078789	-2.987700	3.808900	-11.378000	22.759673	0.000960	20.737186
294.082203	-2.983200	3.808300	-11.359000	22.763712	0.000964	20.746448
295.083490	-2.995200	3.806800	-11.401000	22.769760	0.000963	20.737333
296.080472	-2.990500	3.809300	-11.390000	22.777015	0.000961	20.744601
297.084790	-3.011000	3.808000	-11.464000	22.768323	0.000963	20.747274
298.087485	-3.003000	3.808400	-11.435000	22.773162	0.000963	20.741690
299.081122	-3.017900	3.806800	-11.487000	22.789231	0.000963	20.760158
300.085849	-3.004300	3.806800	-11.436000	22.800150	0.000965	20.771096
301.087778	-3.020800	3.806800	-11.499000	22.778875	0.000966	20.738877
302.082772	-3.002400	3.805600	-11.425000	22.776010	0.000965	20.733162
303.085354	-3.018300	3.806400	-11.487000	22.802867	0.000965	20.738256
304.087721	-3.002200	3.805900	-11.426000	22.793025	0.000968	20.742147
305.083780	-2.978900	3.806500	-11.338000	22.815973	0.000965	20.760394
306.089835	-2.989500	3.805400	-11.375000	22.831877	0.000967	20.756412
307.087760	-2.999700	3.805100	-11.414000	22.847970	0.000967	20.741713
308.086367	-2.993200	3.806000	-11.392000	22.850361	0.000970	20.739841
309.091136	-3.015500	3.803300	-11.468000	22.864911	0.000969	20.722648
310.091725	-2.991600	3.806100	-11.384000	22.867407	0.000969	20.729417
311.087288	-2.989700	3.804100	-11.372000	22.836692	0.000971	20.730888
312.090251	-2.991100	3.804800	-11.379000	22.820762	0.000971	20.742432
313.087101	-2.998700	3.805500	-11.411000	22.803200	0.000971	20.725312
314.087841	-2.985500	3.804800	-11.358000	22.826319	0.000971	20.749421
315.090611	-3.023300	3.801800	-11.493000	22.824205	0.000972	20.738769
316.091003	-3.004000	3.802500	-11.420000	22.860429	0.000971	20.746135
317.087332	-2.985300	3.802800	-11.352000	22.857043	0.000972	20.728991
318.091918	-3.013100	3.802900	-11.456000	22.887186	0.000974	20.755397
319.090981	-3.003300	3.803200	-11.420000	22.890924	0.000974	20.754400
320.088495	-3.004600	3.801200	-11.420000	22.896309	0.000974	20.724232
321.092320	-2.977300	3.801900	-11.318000	22.906868	0.000976	20.720586
322.092196	-2.995500	3.801400	-11.386000	22.924608	0.000975	20.734566
323.089131	-3.001500	3.801000	-11.406000	22.929887	0.000975	20.711879
324.090688	-3.001300	3.801700	-11.409000	22.962093	0.000978	20.741302
325.088621	-2.988100	3.800200	-11.355000	22.985682	0.000977	20.711830
326.090034	-2.969700	3.802000	-11.289000	22.958128	0.000977	20.731639
327.091866	-2.984000	3.801800	-11.344000	22.955443	0.000978	20.740804
328.090389	-2.981900	3.801600	-11.335000	22.974430	0.000977	20.733748
329.090613	-2.999000	3.799400	-11.393000	22.990643	0.000978	20.724387
330.089878	-3.002400	3.800400	-11.409000	22.972578	0.000979	20.735686
331.088994	-3.013100	3.799800	-11.449000	22.957940	0.000979	20.733347
332.088904	-2.987100	3.799200	-11.347000	22.972807	0.000978	20.719793
333.088371	-3.007700	3.798200	-11.421000	22.973883	0.000977	20.732726
334.092732	-2.997300	3.799100	-11.385000	22.977515	0.000981	20.730674
335.093596	-2.998300	3.799400	-11.391000	22.982247	0.000980	20.724510
336.093989	-2.994100	3.798100	-11.371000	22.990088	0.000980	20.716719
337.090670	-3.006100	3.797600	-11.415000	22.989044	0.000978	20.712353
338.096292	-2.992800	3.798200	-11.366000	22.955092	0.000981	20.720063
339.094073	-2.993900	3.797400	-11.368000	22.984410	0.000981	20.727151
340.091697	-2.994900	3.796600	-11.369000	22.984067	0.000982	20.731549
341.092600	-3.004200	3.796700	-11.404000	22.995547	0.000982	20.712704
342.097867	-2.979300	3.796500	-11.309000	23.005232	0.000981	20.752282
343.092641	-2.995200	3.796900	-11.372000	23.013783	0.000984	20.729554
344.092901	-2.993700	3.795900	-11.362000	23.036588	0.000983	20.730119
345.095251	-2.997000	3.795400	-11.373000	23.060347	0.000984	20.720733
346.094573	-2.974500	3.796000	-11.290000	23.051086	0.000983	20.700547
347.093148	-2.970500	3.796200	-11.275000	23.073621	0.000984	20.710326
348.097449	-3.017800	3.794700	-11.451000	23.062818	0.000986	20.721787
349.098708	-2.988700	3.795700	-11.344000	23.067453	0.000985	20.722638
350.095318	-2.986700	3.795600	-11.335000	23.089195	0.000985	20.723561
351.096736	-3.001800	3.792200	-11.382000	23.086479	0.000986	20.717994
352.094975	-2.991100	3.794500	-11.348000	23.111583	0.000989	20.728451
353.095308	-2.988300	3.794500	-11.338000	23.135250	0.000988	20.727984
354.098670	-3.010800	3.793100	-11.419000	23.123665	0.000988	20.710211
355.095846	-2.993300	3.794100	-11.355000	23.123020	0.000988	20.719523
356.095238	-2.985900	3.793600	-11.326000	23.106116	0.000989	20.729137
357.097997	-2.991200	3.792800	-11.344000	23.129800	0.000988	20.723945
358.096334	-2.997900	3.790900	-11.364000	23.133495	0.000991	20.713423
359.098739	-3.001300	3.791600	-11.379000	23.148009	0.000990	20.720855
360.096446	-2.992900	3.793300	-11.350000	23.147062	0.000991	20.713742
361.098352	-2.999800	3.791700	-11.373000	23.146565	0.000991	20.731262
362.100216	-3.018800	3.790700	-11.443000	23.179915	0.000992	20.711101
363.100360	-2.989700	3.790100	-11.330000	23.173894	0.000991	20.723086
364.098480	-2.983900	3.791600	-11.312000	23.165360	0.000992	20.694618
365.099827	-2.983300	3.790100	-11.305000	23.177312	0.000992	20.708018
366.101502	-3.000200	3.789900	-11.368000	23.200888	0.000992	20.710308
367.101862	-2.990600	3.790900	-11.335000	23.212505	0.000993	20.693972
368.100599	-2.996000	3.789700	-11.352000	23.207945	0.000995	20.698412
369.103560	-2.977700	3.789100	-11.282000	23.192331	0.000994	20.712637
370.102326	-2.983100	3.789600	-11.304000	23.162668	0.000991	20.717527
371.102995	-2.987600	3.790200	-11.322000	23.163745	0.000993	20.690154
372.103363	-3.005900	3.788000	-11.386000	23.138242	0.000995	20.693048
373.104298	-2.980600	3.789400	-11.294000	23.168452	0.000994	20.723323
374.106035	-3.009400	3.786700	-11.395000	23.183194	0.000995	20.707748
375.105876	-3.006600	3.788300	-11.389000	23.202250	0.000996	20.691282
376.103771	-3.005100	3.786700	-11.378000	23.219561	0.000995	20.701044
377.103808	-3.016000	3.786000	-11.417000	23.202250	0.000996	20.713095
378.104881	-3.002500	3.786500	-11.368000	23.197820	0.000995	20.705336
379.105280	-2.994400	3.786700	-11.338000	23.199868	0.000994	20.681781
380.109644	-2.996000	3.786300	-11.341000	23.165376	0.000995	20.696056
381.107829	-3.014300	3.785000	-11.408000	23.181202	0.000999	20.700536
382.105760	-3.015100	3.784500	-11.410000	23.172351	0.000997	20.694985
383.106443	-3.010000	3.784600	-11.389000	23.164592	0.000998	20.693848
384.106656	-3.011400	3.785000	-11.397000	23.162651	0.000999	20.699015
385.106965	-3.004000	3.783900	-11.366000	23.177996	0.000998	20.687365
386.107542	-3.016200	3.785000	-11.415000	23.173860	0.000999	20.682745
387.107450	-3.005600	3.784200	-11.373000	23.203007	0.000999	20.680660
388.107985	-2.991700	3.783600	-11.317000	23.208538	0.001000	20.690471
389.106834	-3.010400	3.784700	-11.392000	23.223067	0.001000	20.696496
390.107383	-3.002900	3.784400	-11.364000	23.223964	0.001000	20.683170
391.107816	-3.012700	3.782500	-11.395000	23.217176	0.001000	20.697706
392.109038	-2.983800	3.784700	-11.292000	23.232243	0.001001	20.693839
393.108820	-3.005300	3.781600	-11.364000	23.225995	0.001000	20.693266
394.110321	-3.000800	3.781700	-11.348000	23.205902	0.001001	20.677871
395.110192	-3.001900	3.781200	-11.349000	23.231982	0.001002	20.676031
396.109518	-2.984800	3.781800	-11.287000	23.213007	0.001002	20.685940
397.110230	-2.988600	3.781200	-11.299000	23.198894	0.001002	20.704990
398.111749	-2.998900	3.782100	-11.341000	23.198943	0.001003	20.698400
399.110720	-3.010500	3.781500	-11.383000	23.207484	0.001004	20.676137
400.110342	-3.005700	3.781100	-11.363000	23.214116	0.001004	20.669980
401.112796	-3.000500	3.781400	-11.345000	23.244471	0.001001	20.697558
402.111665	-3.015900	3.779500	-11.398000	23.232373	0.001004	20.703452
403.110906	-3.030200	3.779400	-11.451000	23.246648	0.001004	20.666546
404.111479	-2.999400	3.780200	-11.336000	23.239877	0.001005	20.696274
405.112238	-2.989700	3.779100	-11.298000	23.235840	0.001003	20.691278
406.111116	-2.999600	3.779000	-11.335000	23.274889	0.001006	20.701490
407.110446	-2.996500	3.779600	-11.324000	23.288144	0.001007	20.678262
408.111049	-3.000900	3.778000	-11.337000	23.276912	0.001004	20.682652
409.112149	-3.003500	3.777800	-11.345000	23.278763	0.001006	20.669808
410.112087	-3.003000	3.778200	-11.345000	23.273583	0.001006	20.693542
411.111896	-3.014500	3.778100	-11.387000	23.276569	0.001006	20.687051
412.111887	-3.018600	3.777000	-11.400000	23.278861	0.001006	20.668958
413.114015	-3.007300	3.775900	-11.354000	23.264406	0.001006	20.679602
414.115590	-3.000000	3.776300	-11.328000	23.262432	0.001006	20.669088
415.114823	-3.009300	3.775600	-11.361000	23.283404	0.001007	20.676356
416.113787	-3.013500	3.776900	-11.381000	23.269235	0.001006	20.670690
417.118051	-2.995800	3.775500	-11.309000	23.287001	0.001007	20.694662
418.115299	-3.008400	3.776300	-11.359000	23.310828	0.001008	20.681556
419.116304	-2.996300	3.776900	-11.316000	23.294873	0.001008	20.670306
420.117004	-2.999900	3.775600	-11.325000	23.290492	0.001010	20.683935
421.119158	-2.987300	3.775100	-11.276000	23.291235	0.001008	20.689895
422.117344	-2.992500	3.775200	-11.295000	23.291341	0.001008	20.693795
423.123497	-3.004500	3.772700	-11.333000	23.314156	0.001011	20.682994
424.119412	-2.996500	3.773600	-11.307000	23.313560	0.001009	20.693778
425.117345	-2.990500	3.774600	-11.287000	23.356865	0.001008	20.670796
426.122913	-3.013400	3.772100	-11.366000	23.358684	0.001010	20.676413
427.118761	-3.001200	3.773200	-11.323000	23.360584	0.001010	20.681637
428.119395	-3.006900	3.771900	-11.339000	23.395045	0.001012	20.669234
429.123198	-2.991000	3.773300	-11.285000	23.411904	0.001011	20.683288
430.123468	-3.008400	3.771500	-11.346000	23.400901	0.001010	20.678423
431.120393	-2.989600	3.771300	-11.274000	23.417238	0.001014	20.678203
432.123913	-3.007200	3.770200	-11.336000	23.393340	0.001011	20.667525
433.121615	-2.995700	3.770800	-11.295000	23.386945	0.001011	20.664908
434.121140	-2.983900	3.770800	-11.251000	23.390526	0.001012	20.692208
435.123230	-3.008500	3.769400	-11.338000	23.378854	0.001011	20.670550
436.120229	-3.010700	3.771400	-11.354000	23.374197	0.001013	20.691488
437.120249	-3.005500	3.771200	-11.332000	23.403527	0.001011	20.678685
438.122254	-2.990800	3.770000	-11.273000	23.410925	0.001012	20.678039
439.122507	-2.996600	3.769000	-11.293000	23.407646	0.001014	20.672381
440.121567	-3.001400	3.768800	-11.311000	23.417148	0.001012	20.698029
441.123661	-3.006700	3.769200	-11.332000	23.429700	0.001012	20.678366
442.121433	-3.006200	3.768700	-11.328000	23.474615	0.001012	20.653682
443.122333	-2.992300	3.767700	-11.273000	23.476654	0.001012	20.684653
444.126328	-3.004200	3.767800	-11.319000	23.484622	0.001013	20.693589
445.122012	-2.990800	3.769100	-11.271000	23.504188	0.001016	20.695184
446.123773	-2.998900	3.767500	-11.297000	23.536671	0.001014	20.689812
447.124570	-2.997000	3.768200	-11.291000	23.538498	0.001014	20.679314
448.123774	-3.013100	3.766900	-11.349000	23.541613	0.001017	20.689076
449.123578	-2.990900	3.766700	-11.264000	23.548259	0.001014	20.673926
450.128192	-2.987200	3.766300	-11.249000	23.571208	0.001014	20.699778
451.130655	-2.993900	3.766900	-11.276000	23.528613	0.001015	20.687899
452.125342	-3.021700	3.765500	-11.377000	23.535243	0.001015	20.676526
453.129329	-3.004500	3.765100	-11.312000	23.536410	0.001016	20.674850
454.127420	-2.996000	3.764600	-11.278000	23.528091	0.001018	20.695437
455.127310	-3.000800	3.763900	-11.293000	23.560272	0.001017	20.697350
456.142894	-2.981700	3.765100	-11.225000	23.574095	0.001015	20.686550
457.128897	-3.017800	3.762200	-11.352000	23.569463	0.001016	20.674793
458.129542	-3.007500	3.762100	-11.313000	23.568843	0.001019	20.697881
459.130661	-2.996400	3.763900	-11.278000	23.551668	0.001016	20.683983
460.138232	-2.993400	3.763000	-11.263000	23.554653	0.001018	20.670378
461.131869	-2.985200	3.761600	-11.229000	23.570450	0.001017	20.690957
462.132335	-3.003600	3.762500	-11.300000	23.527496	0.001017	20.676346
463.134377	-2.998100	3.761200	-11.274000	23.561716	0.001016	20.685046
464.131073	-3.000300	3.760500	-11.282000	23.532561	0.001018	20.696124
465.131358	-3.008800	3.762200	-11.319000	23.531696	0.001018	20.691938
466.135128	-2.999800	3.760600	-11.280000	23.561162	0.001016	20.686861
467.133102	-3.000900	3.759900	-11.282000	23.542820	0.001017	20.678906
468.133754	-2.982800	3.760200	-11.215000	23.569007	0.001019	20.697097
469.133980	-2.979100	3.760400	-11.201000	23.582870	0.001017	20.704357
470.134582	-2.999700	3.760100	-11.279000	23.582846	0.001019	20.696745
471.132052	-3.012300	3.759800	-11.324000	23.562466	0.001017	20.718517
472.135139	-2.993100	3.758600	-11.249000	23.591506	0.001019	20.711593
473.133109	-2.996300	3.760500	-11.264000	23.584893	0.001019	20.690262
474.136118	-2.987400	3.760000	-11.231000	23.587755	0.001019	20.705461
475.138402	-3.014300	3.756500	-11.323000	23.549467	0.001020	20.692208
476.145156	-2.995600	3.758300	-11.257000	23.577945	0.001021	20.698470
477.136363	-3.001700	3.757200	-11.276000	23.583922	0.001018	20.695453
478.139620	-3.016600	3.755900	-11.329000	23.594230	0.001021	20.698200
479.137108	-2.990700	3.757200	-11.236000	23.607351	0.001021	20.689542
480.137557	-3.003100	3.756300	-11.279000	23.570287	0.001018	20.710709
481.144681	-2.997800	3.756400	-11.260000	23.550576	0.001019	20.690948
482.139302	-2.988700	3.757300	-11.228000	23.561977	0.001019	20.675823
483.139716	-3.006600	3.756000	-11.292000	23.535643	0.001019	20.720078
484.142912	-3.006500	3.755200	-11.289000	23.558421	0.001020	20.699287
485.141473	-2.983900	3.756700	-11.208000	23.581010	0.001020	20.706760
486.141507	-3.011500	3.754600	-11.306000	23.591114	0.001020	20.689861
487.145319	-3.002100	3.755600	-11.273000	23.628683	0.001022	20.712352
488.142698	-2.992200	3.754900	-11.234000	23.640760	0.001019	20.687473
489.143325	-2.987100	3.754400	-11.213000	23.632972	0.001021	20.695313
490.143402	-3.010000	3.753100	-11.295000	23.600443	0.001021	20.702058
491.142433	-3.010200	3.752700	-11.296000	23.632385	0.001021	20.701363
492.141682	-3.002400	3.753100	-11.268000	23.604895	0.001022	20.700357
493.143263	-2.998500	3.752100	-11.249000	23.604463	0.001020	20.717943
494.143096	-2.994700	3.752300	-11.236000	23.615382	0.001020	20.699490
495.143248	-3.016600	3.751500	-11.316000	23.620438	0.001021	20.688437
496.145310	-3.003500	3.751800	-11.268000	23.639886	0.001021	20.700823
497.143379	-2.984900	3.752600	-11.200000	23.649794	0.001020	20.695582
498.143269	-3.003500	3.750900	-11.265000	23.655257	0.001019	20.680195
499.143739	-3.021500	3.751000	-11.331000	23.660183	0.001021	20.709791
500.145941	-2.976400	3.750700	-11.162000	23.651310	0.001022	20.690464
501.141917	-3.014700	3.751000	-11.307000	23.661299	0.001023	20.711385
502.145045	-3.016600	3.748700	-11.307000	23.666396	0.001021	20.698002
503.144697	-3.002700	3.748700	-11.255000	23.683553	0.001022	20.700029
504.144242	-2.998200	3.748400	-11.236000	23.675790	0.001023	20.706946
505.148519	-2.998000	3.748300	-11.236000	23.695694	0.001021	20.685648
506.144917	-3.006400	3.748200	-11.268000	23.687654	0.001022	20.700822
507.146040	-2.992500	3.748400	-11.217000	23.711880	0.001022	20.717050
508.146792	-2.988700	3.747900	-11.201000	23.711309	0.001023	20.697510
509.145448	-3.005700	3.747100	-11.261000	23.706693	0.001025	20.715170
510.146335	-3.016500	3.746700	-11.301000	23.699567	0.001023	20.704231
511.148201	-3.016300	3.747800	-11.303000	23.703187	0.001022	20.711654
512.149065	-3.009400	3.747700	-11.278000	23.716584	0.001023	20.709438
513.145605	-3.001700	3.747200	-11.246000	23.719267	0.001022	20.703119
514.145422	-3.008300	3.747600	-11.271000	23.720041	0.001022	20.699628
515.147704	-3.012400	3.745600	-11.283000	23.706636	0.001022	20.703732
516.146864	-2.996800	3.745700	-11.224000	23.731449	0.001024	20.707272
517.148539	-3.010000	3.743200	-11.266000	23.718940	0.001025	20.719388
518.147525	-2.994800	3.746100	-11.218000	23.742334	0.001025	20.722928
519.148234	-2.999500	3.744800	-11.231000	23.774076	0.001025	20.712553
520.150046	-3.006500	3.743400	-11.253000	23.762897	0.001024	20.714621
521.149523	-3.031900	3.743500	-11.349000	23.768352	0.001024	20.718194
522.152312	-3.008600	3.745000	-11.265000	23.772364	0.001022	20.697084
523.153521	-3.016400	3.742700	-11.287000	23.754515	0.001023	20.724236
524.149915	-3.004600	3.743800	-11.248000	23.745685	0.001025	20.713485
525.149912	-3.006600	3.742700	-11.251000	23.704271	0.001022	20.708473
526.148705	-3.019800	3.742100	-11.300000	23.694364	0.001022	20.716559
527.150985	-2.995600	3.743200	-11.211000	23.714830	0.001022	20.694403
528.149025	-2.984700	3.742700	-11.170000	23.758657	0.001024	20.723647
529.149739	-2.981200	3.743700	-11.160000	23.768637	0.001024	20.701409
530.148053	-2.985100	3.742000	-11.168000	23.777076	0.001023	20.723623
531.153072	-2.986200	3.741500	-11.172000	23.777207	0.001021	20.716640
532.150387	-3.010900	3.740800	-11.261000	23.783159	0.001024	20.711702
533.151569	-3.011000	3.740500	-11.261000	23.743385	0.001025	20.707860
534.151057	-2.986600	3.740600	-11.170000	23.751824	0.001025	20.713476
535.153088	-3.002400	3.739300	-11.225000	23.773375	0.001027	20.726075
536.152821	-2.996100	3.738900	-11.201000	23.804888	0.001024	20.719265
537.152007	-2.981500	3.738800	-11.145000	23.832910	0.001023	20.725078
538.152164	-2.987700	3.738800	-11.170000	23.851532	0.001022	20.709135
539.152112	-2.995500	3.738700	-11.197000	23.875803	0.001024	20.723516
540.151147	-3.008500	3.737300	-11.243000	23.882342	0.001023	20.736237
541.151770	-2.986000	3.738700	-11.162000	23.889785	0.001023	20.712880
542.155149	-2.999700	3.737800	-11.211000	23.895867	0.001022	20.712340
543.153393	-3.011900	3.737200	-11.254000	23.918140	0.001023	20.724718
544.152785	-2.999200	3.737200	-11.208000	23.904900	0.001024	20.732305
545.157082	-3.011700	3.737000	-11.254000	23.924165	0.001022	20.718431
546.153149	-2.995800	3.737100	-11.195000	23.936507	0.001025	20.719428
547.153571	-2.990200	3.736900	-11.172000	23.948149	0.001024	20.719722
548.159369	-2.978100	3.736900	-11.127000	23.978296	0.001022	20.722453
549.156047	-2.987600	3.736800	-11.163000	23.981980	0.001025	20.723303
550.155328	-3.004000	3.735600	-11.220000	23.981157	0.001024	20.728642
551.157160	-2.994800	3.736000	-11.187000	23.990972	0.001025	20.738485
552.155505	-2.984200	3.735800	-11.147000	23.993312	0.001023	20.731822
553.155592	-3.012300	3.735600	-11.252000	23.953692	0.001026	20.736188
554.158303	-2.994900	3.734400	-11.183000	23.929358	0.001024	20.725535
555.157489	-2.996700	3.734500	-11.190000	23.934632	0.001024	20.724660
556.155734	-3.016400	3.732600	-11.258000	23.929088	0.001025	20.731430
557.157933	-2.992300	3.734100	-11.173000	23.964942	0.001026	20.733719
558.156827	-3.020300	3.731800	-11.270000	23.941757	0.001023	20.714261
559.154820	-3.001800	3.733200	-11.205000	23.943828	0.001023	20.723924
560.158154	-2.993800	3.732700	-11.174000	23.947937	0.001026	20.719509
561.157244	-3.007200	3.731800	-11.222000	23.974195	0.001023	20.726876
562.155523	-2.992900	3.731500	-11.167000	23.938782	0.001026	20.741624
563.160217	-3.005400	3.732100	-11.215000	23.929105	0.001022	20.737136
564.158235	-2.987300	3.732000	-11.148000	23.880743	0.001025	20.734160
565.157741	-2.995700	3.730700	-11.175000	23.909286	0.001025	20.742867
566.160736	-3.016100	3.729900	-11.248000	23.912710	0.001023	20.745352
567.156658	-2.992400	3.731000	-11.164000	23.907908	0.001024	20.751443
568.158059	-2.987400	3.730500	-11.144000	23.943420	0.001024	20.732999
569.161216	-2.981200	3.729900	-11.118000	23.950439	0.001024	20.748099
570.158177	-2.986300	3.730600	-11.141000	23.979225	0.001022	20.753258
571.157099	-3.007000	3.729400	-11.213000	23.980529	0.001024	20.749350
572.161179	-3.014700	3.726900	-11.235000	23.983953	0.001024	20.743300
573.158229	-2.982400	3.729100	-11.121000	23.955861	0.001023	20.737414
574.160246	-3.028900	3.727700	-11.290000	23.960564	0.001023	20.758253
575.162991	-2.979600	3.727800	-11.107000	23.977765	0.001023	20.740888
576.159985	-3.027500	3.725800	-11.278000	24.003493	0.001024	20.759577
577.158983	-3.007800	3.727700	-11.211000	24.032758	0.001024	20.729655
578.162894	-3.004700	3.725800	-11.194000	24.068910	0.001024	20.739834
579.164462	-2.996200	3.726200	-11.164000	24.062870	0.001023	20.761278
580.161748	-2.966200	3.726300	-11.052000	24.033263	0.001022	20.766673
581.165190	-2.992700	3.725700	-11.148000	24.036043	0.001023	20.731527
582.159775	-2.982600	3.725000	-11.109000	24.027753	0.001023	20.747870
583.161262	-2.981500	3.725900	-11.107000	24.059805	0.001023	20.751091
584.164424	-3.002200	3.723800	-11.178000	24.065951	0.001022	20.764842
585.162826	-2.989200	3.724800	-11.133000	24.072138	0.001024	20.751132
586.161089	-3.001600	3.724000	-11.177000	24.080257	0.001021	20.763068
587.166054	-3.023100	3.723300	-11.255000	24.096250	0.001024	20.759667
588.168725	-3.004000	3.723500	-11.184000	24.080452	0.001021	20.747617
589.166483	-2.973000	3.723700	-11.069000	24.059275	0.001022	20.744870
590.170158	-2.968000	3.722500	-11.047000	24.068405	0.001023	20.757820
591.166008	-2.980900	3.723600	-11.098000	24.070418	0.001023	20.742769
592.166119	-2.982100	3.723400	-11.103000	24.067948	0.001022	20.775854
593.182344	-3.004900	3.723300	-11.187000	24.056854	0.001023	20.738648
594.168858	-2.991800	3.721600	-11.133000	24.051181	0.001022	20.766150
595.166942	-2.985300	3.721500	-11.109000	24.079026	0.001021	20.778430
596.170394	-3.003600	3.720300	-11.174000	24.087789	0.001023	20.767303
597.171584	-3.006100	3.720100	-11.180000	24.078178	0.001022	20.762880
598.170325	-2.964100	3.721500	-11.030000	24.100146	0.001023	20.775903
599.174420	-2.990400	3.721900	-11.130000	24.113359	0.001021	20.762128
600.173557	-2.987700	3.720600	-11.114000	24.106300	0.001021	20.775912
601.170277	-3.012500	3.720700	-11.208000	24.114557	0.001022	20.766649
602.173908	-2.992200	3.720400	-11.131000	24.124534	0.001024	20.758637
603.174443	-2.981500	3.721100	-11.094000	24.150494	0.001022	20.761441
604.169357	-2.985900	3.719100	-11.104000	24.161090	0.001021	20.753577
605.173903	-3.006700	3.718100	-11.178000	24.156583	0.001022	20.768022
606.171745	-3.004500	3.717700	-11.169000	24.163185	0.001023	20.777489
607.170483	-2.995100	3.719300	-11.139000	24.188044	0.001020	20.773026
608.174824	-2.990700	3.718300	-11.119000	24.204419	0.001021	20.762422
609.173872	-2.993100	3.716700	-11.124000	24.155703	0.001021	20.788951
610.171446	-3.008900	3.717200	-11.183000	24.156925	0.001023	20.787806
611.176249	-3.004900	3.717500	-11.170000	24.151154	0.001020	20.786286
612.174073	-2.999000	3.716900	-11.147000	24.116480	0.001020	20.763362
613.172167	-3.010900	3.715200	-11.185000	24.122675	0.001020	20.786171
614.175236	-3.004600	3.715700	-11.163000	24.140469	0.001021	20.766085
615.174602	-3.008700	3.716400	-11.180000	24.160348	0.001021	20.768480
616.173249	-3.019300	3.714300	-11.213000	24.169184	0.001021	20.781609
617.178921	-2.959900	3.717300	-11.001000	24.154333	0.001021	20.780939
618.177543	-3.009500	3.715400	-11.180000	24.177448	0.001022	20.774726
619.174013	-2.982600	3.715700	-11.081000	24.164293	0.001022	20.800412
620.177182	-2.987400	3.714600	-11.096000	24.178280	0.001019	20.782672
621.176487	-3.031800	3.713600	-11.256000	24.173455	0.001023	20.780677
622.174737	-3.013400	3.713300	-11.189000	24.169705	0.001019	20.782606
623.179770	-2.993900	3.713200	-11.117000	24.198191	0.001019	20.781307
624.176465	-2.969800	3.714200	-11.029000	24.189886	0.001019	20.801426
625.177082	-3.014200	3.711500	-11.185000	24.197825	0.001020	20.809388
626.182921	-2.977200	3.713300	-11.054000	24.168841	0.001019	20.796913
627.182416	-3.000100	3.712100	-11.136000	24.130182	0.001018	20.807925
628.177768	-3.016000	3.710000	-11.188000	24.148367	0.001020	20.779696
629.183889	-2.987500	3.711800	-11.087000	24.140998	0.001021	20.779418
630.181075	-3.035800	3.710500	-11.263000	24.155588	0.001020	20.793577
631.178880	-3.019200	3.710900	-11.203000	24.135358	0.001019	20.792253
632.180155	-3.023800	3.711400	-11.222000	24.168295	0.001019	20.802529
633.180760	-3.020100	3.710300	-11.204000	24.167252	0.001018	20.797215
634.177243	-3.004900	3.710000	-11.147000	24.175150	0.001018	20.792809
635.181321	-3.008200	3.709900	-11.158000	24.154814	0.001018	20.783318
636.181694	-3.004500	3.710000	-11.145000	24.173895	0.001017	20.792498
637.177106	-3.013200	3.709600	-11.176000	24.158848	0.001018	20.790683
638.177957	-3.014300	3.708300	-11.177000	24.160413	0.001019	20.801262
639.180112	-2.985100	3.708300	-11.069000	24.160788	0.001017	20.805905
640.177876	-3.002000	3.707800	-11.129000	24.156468	0.001018	20.803943
641.181701	-2.977600	3.709400	-11.044000	24.176837	0.001017	20.796398
642.178191	-3.022000	3.707100	-11.202000	24.229016	0.001017	20.806535
643.179517	-2.986500	3.707900	-11.073000	24.208412	0.001017	20.795826
644.183027	-2.998100	3.706300	-11.111000	24.212642	0.001017	20.792008
645.179976	-2.999000	3.707600	-11.117000	24.210254	0.001016	20.796725
646.179772	-2.994700	3.706700	-11.099000	24.221998	0.001017	20.802815
647.182432	-3.006200	3.706200	-11.141000	24.216399	0.001016	20.814742
648.181648	-3.006100	3.705500	-11.139000	24.226302	0.001017	20.811873
649.183814	-2.993600	3.705400	-11.091000	24.229537	0.001016	20.822705
650.185859	-2.995200	3.704500	-11.094000	24.206423	0.001016	20.807107
651.182222	-2.979900	3.706100	-11.043000	24.173161	0.001017	20.828746
652.181811	-3.004400	3.703800	-11.126000	24.160821	0.001015	20.789343
653.187813	-2.984800	3.703400	-11.052000	24.161506	0.001017	20.817530
654.190659	-3.009400	3.704400	-11.148000	24.179975	0.001014	20.808080
655.184937	-3.028100	3.702900	-11.210000	24.195999	0.001014	20.834583
656.188968	-3.004500	3.703100	-11.124000	24.222838	0.001015	20.821201
657.189109	-2.998500	3.701600	-11.097000	24.238894	0.001016	20.823081
658.186388	-2.999700	3.702800	-11.106000	24.250157	0.001014	20.804507
659.190317	-2.969400	3.704500	-10.999000	24.238494	0.001013	20.821732
660.187219	-3.011900	3.701800	-11.148000	24.262757	0.001015	20.806240
661.188216	-2.969500	3.703300	-10.995000	24.255316	0.001015	20.834812
662.192103	-3.009500	3.701000	-11.137000	24.254786	0.001016	20.823375
663.185978	-3.023300	3.702100	-11.191000	24.300124	0.001014	20.809110
664.185884	-2.985900	3.701800	-11.052000	24.293001	0.001013	20.823776
665.190704	-3.000900	3.702300	-11.110000	24.315144	0.001014	20.832237
666.189809	-2.991300	3.700300	-11.068000	24.316220	0.001013	20.811979
667.187654	-3.028100	3.699700	-11.202000	24.282928	0.001011	20.824103
668.191200	-3.008500	3.700800	-11.133000	24.248495	0.001013	20.820383
669.190413	-2.975300	3.700700	-11.010000	24.280809	0.001013	20.821503
670.187659	-2.980300	3.700000	-11.026000	24.295699	0.001012	20.814154
671.192657	-3.004300	3.699100	-11.111000	24.295797	0.001013	20.815200
672.189977	-2.999100	3.699600	-11.095000	24.291966	0.001014	20.822737
673.189280	-3.015000	3.698200	-11.149000	24.278927	0.001012	20.818192
674.191758	-3.004100	3.698300	-11.109000	24.287141	0.001013	20.808415
675.190011	-2.972900	3.700300	-11.000000	24.301452	0.001011	20.801434
676.189442	-2.997800	3.698500	-11.085000	24.295234	0.001012	20.828386
677.189846	-3.010500	3.697400	-11.130000	24.298372	0.001010	20.802137
678.190763	-3.007500	3.697600	-11.118000	24.280931	0.001011	20.821626
679.190097	-3.005700	3.696400	-11.108000	24.259024	0.001012	20.782108
680.196042	-2.980200	3.697900	-11.020000	24.276278	0.001009	20.810794
681.194956	-2.992900	3.696100	-11.061000	24.291453	0.001010	20.801360
682.192671	-2.994600	3.696700	-11.069000	24.322055	0.001011	20.803134
683.193342	-3.006700	3.695000	-11.109000	24.352460	0.001011	20.793806
684.193609	-3.002500	3.695000	-11.093000	24.344180	0.001010	20.799725
685.192474	-3.018200	3.694100	-11.149000	24.382017	0.001009	20.797379
686.195612	-3.027800	3.695700	-11.189000	24.388903	0.001009	20.796700
687.194054	-2.993000	3.694100	-11.057000	24.389710	0.001009	20.793716
688.191642	-3.004400	3.694900	-11.099000	24.400906	0.001008	20.783612
689.201212	-2.992600	3.695600	-11.058000	24.382123	0.001007	20.795114
690.198266	-3.015700	3.694000	-11.139000	24.405731	0.001007	20.795564
691.193539	-2.993300	3.694200	-11.057000	24.425434	0.001008	20.793994
692.196841	-2.995700	3.692500	-11.061000	24.415803	0.001009	20.803297
693.193942	-3.001600	3.694200	-11.088000	24.455250	0.001007	20.790242
694.193517	-2.997900	3.692900	-11.069000	24.443818	0.001009	20.767866
695.197051	-2.967500	3.693700	-10.960000	24.410710	0.001006	20.792498
696.194336	-2.964400	3.692300	-10.944000	24.358099	0.001008	20.783816
697.193522	-3.008100	3.691200	-11.102000	24.370388	0.001006	20.784764
698.195668	-2.999900	3.692200	-11.076000	24.350088	0.001006	20.790953
699.196481	-3.016800	3.691200	-11.134000	24.316089	0.001006	20.784822
700.193294	-3.025800	3.688600	-11.159000	24.303367	0.001007	20.781069
701.198728	-3.007600	3.691300	-11.101000	24.331288	0.001007	20.789163
702.195821	-3.004100	3.690100	-11.084000	24.355198	0.001006	20.803665
703.195232	-2.979000	3.691800	-10.997000	24.342314	0.001008	20.775093
704.200232	-2.980300	3.690600	-10.998000	24.384429	0.001006	20.804540
705.195859	-2.997500	3.690100	-11.060000	24.366966	0.001006	20.772796
706.197175	-3.004200	3.689000	-11.080000	24.370233	0.001004	20.778445
707.202127	-3.002000	3.688900	-11.073000	24.381993	0.001006	20.772224
708.200354	-2.992200	3.689900	-11.040000	24.386654	0.001004	20.785435
709.200037	-2.991200	3.688600	-11.032000	24.379230	0.001003	20.761866
710.201898	-3.014600	3.687500	-11.115000	24.385358	0.001003	20.780816
711.199517	-3.007600	3.687700	-11.089000	24.396946	0.001003	20.754034
712.197566	-2.994200	3.687900	-11.041000	24.420659	0.001002	20.794419
713.201231	-2.977300	3.687800	-10.978000	24.431856	0.001003	20.758236
714.199185	-2.997800	3.688000	-11.054000	24.464368	0.001004	20.777578
715.202193	-3.003600	3.686400	-11.072000	24.459015	0.001003	20.797338
716.199010	-2.977000	3.688000	-10.978000	24.464988	0.001001	20.780096
717.207723	-2.978100	3.687300	-10.980000	24.451828	0.001001	20.789179
718.202430	-2.979700	3.685600	-10.981000	24.446507	0.001001	20.780996
719.201263	-2.981200	3.685900	-10.986000	24.478498	0.001002	20.773736
720.202918	-2.999900	3.685200	-11.054000	24.463228	0.001001	20.750355
721.201723	-3.010600	3.684700	-11.093000	24.480535	0.001002	20.778625
722.201494	-2.989800	3.684900	-11.017000	24.520290	0.001000	20.759241
723.206933	-3.006400	3.685900	-11.079000	24.504368	0.001000	20.774088
724.202081	-3.019500	3.683300	-11.121000	24.500612	0.001000	20.776957
725.203152	-3.016400	3.683100	-11.108000	24.476428	0.001000	20.770711
726.202768	-3.009900	3.682900	-11.084000	24.488928	0.001000	20.771398
727.202758	-3.021000	3.682800	-11.125000	24.525138	0.001001	20.764580
728.201500	-3.026900	3.681300	-11.141000	24.516778	0.001000	20.769943
729.203955	-2.998800	3.681700	-11.040000	24.540089	0.001000	20.786220
730.204382	-2.994300	3.682600	-11.025000	24.545589	0.001001	20.756176
731.203868	-2.995400	3.683100	-11.032000	24.517365	0.001000	20.780015
732.205262	-3.008200	3.681300	-11.073000	24.516737	0.001000	20.749038
733.203609	-3.001700	3.681600	-11.050000	24.508060	0.000999	20.746022
734.204094	-3.012000	3.681700	-11.088000	24.516965	0.001001	20.773450
735.204759	-2.994500	3.680800	-11.022000	24.497817	0.000999	20.757083
736.204767	-2.981300	3.683700	-10.981000	24.475377	0.001001	20.759699
737.202887	-2.999500	3.681100	-11.040000	24.451649	0.000998	20.756756
738.205720	-3.004900	3.680500	-11.059000	24.473046	0.000997	20.768741
739.203260	-2.992100	3.681100	-11.013000	24.494460	0.000998	20.744231
740.203850	-3.013100	3.679100	-11.084000	24.514635	0.000999	20.754990
741.205784	-2.987700	3.679400	-10.991000	24.530784	0.000998	20.754123
742.204338	-3.021500	3.677700	-11.110000	24.516558	0.000997	20.744117
743.206780	-2.994000	3.679200	-11.015000	24.512875	0.000995	20.768398
744.207808	-2.994100	3.679600	-11.017000	24.500938	0.000997	20.759266
745.206855	-3.018800	3.678300	-11.103000	24.492839	0.000997	20.752088
746.208021	-3.004700	3.677500	-11.048000	24.517829	0.000996	20.752505
747.210268	-2.985100	3.677800	-10.978000	24.517536	0.000996	20.749840
748.209767	-2.995300	3.677800	-11.015000	24.503016	0.000996	20.752341
749.210176	-2.985000	3.677000	-10.975000	24.521325	0.000996	20.750796
750.212301	-3.031900	3.674800	-11.140000	24.547968	0.000994	20.759037
751.209358	-3.002300	3.675600	-11.034000	24.566097	0.000996	20.741190
752.209067	-2.986800	3.676700	-10.980000	24.570424	0.000995	20.751695
753.212956	-3.001000	3.676600	-11.032000	24.589073	0.000993	20.767564
754.209869	-2.969200	3.675200	-10.911000	24.610224	0.000996	20.753698
755.209985	-2.981700	3.675500	-10.958000	24.627040	0.000995	20.756347
756.212648	-2.990700	3.676700	-10.995000	24.655392	0.000994	20.730742
757.208786	-2.995000	3.674900	-11.004000	24.645127	0.000993	20.741305
758.210457	-3.003800	3.674600	-11.037000	24.659556	0.000993	20.764318
759.220690	-2.970600	3.676200	-10.918000	24.648231	0.000993	20.742523
760.210200	-3.001200	3.673400	-11.023000	24.656794	0.000992	20.761547
761.211869	-2.981700	3.674300	-10.953000	24.632523	0.000992	20.761375
762.210577	-3.007900	3.672600	-11.046000	24.604863	0.000994	20.737413
763.209445	-3.000400	3.673800	-11.021000	24.557933	0.000994	20.748172
764.213242	-3.004100	3.674500	-11.038000	24.533213	0.000992	20.734274
765.210155	-2.999100	3.673000	-11.014000	24.516273	0.000992	20.743357
766.209965	-2.988500	3.673400	-10.978000	24.501248	0.000991	20.743929
767.210724	-2.997500	3.672400	-11.006000	24.496155	0.000992	20.731707
768.211530	-2.969200	3.673300	-10.906000	24.522767	0.000992	20.746553
769.212091	-2.986900	3.671800	-10.967000	24.533196	0.000990	20.736628
770.210444	-3.013800	3.672600	-11.068000	24.564256	0.000989	20.738394
771.212360	-3.028600	3.669200	-11.111000	24.538867	0.000990	20.742318
772.210757	-3.005100	3.671100	-11.031000	24.570179	0.000988	20.741493
773.211069	-2.997800	3.670800	-11.002000	24.543544	0.000987	20.727096
774.214049	-2.987400	3.670400	-10.964000	24.564867	0.000990	20.738059
775.215143	-2.984400	3.669700	-10.951000	24.567425	0.000988	20.751058
776.214042	-3.010100	3.669300	-11.043000	24.562724	0.000988	20.732590
777.215684	-3.001100	3.670100	-11.014000	24.595233	0.000988	20.745294
778.215339	-3.003200	3.669700	-11.020000	24.603454	0.000988	20.737421
779.215285	-3.005200	3.669700	-11.027000	24.609076	0.000988	20.725043
780.215044	-2.978700	3.668600	-10.926000	24.616050	0.000989	20.743422
781.217793	-2.991500	3.669300	-10.976000	24.568468	0.000987	20.741198
782.218386	-3.007300	3.669300	-11.034000	24.579305	0.000988	20.727889
783.218654	-2.996000	3.668600	-10.989000	24.528528	0.000985	20.739531
784.220119	-2.996400	3.667800	-10.989000	24.557624	0.000989	20.733636
785.222293	-3.006800	3.666800	-11.024000	24.563376	0.000986	20.726605
786.220691	-2.988800	3.667900	-10.962000	24.568525	0.000986	20.723711
787.223451	-3.006600	3.666500	-11.023000	24.566831	0.000987	20.724855
788.220889	-3.009400	3.665400	-11.030000	24.548026	0.000986	20.729695
789.220408	-3.008700	3.666100	-11.029000	24.541638	0.000985	20.739408
790.223208	-3.017900	3.665000	-11.060000	24.577903	0.000983	20.750191
791.222630	-2.987700	3.665600	-10.951000	24.613646	0.000985	20.730104
792.221290	-2.993500	3.665500	-10.970000	24.618771	0.000983	20.735721
793.222119	-3.006100	3.663400	-11.011000	24.644964	0.000985	20.722648
794.222481	-2.994000	3.665000	-10.972000	24.626128	0.000984	20.727930
795.222806	-2.994800	3.665200	-10.975000	24.616710	0.000983	20.737920
796.222845	-2.989100	3.665800	-10.956000	24.612628	0.000983	20.720073
797.222920	-3.025600	3.664400	-11.085000	24.593750	0.000984	20.719149
798.223750	-3.025800	3.663200	-11.082000	24.588332	0.000982	20.723670
799.224344	-3.007700	3.661900	-11.012000	24.589799	0.000981	20.726564
800.224201	-2.988600	3.662500	-10.944000	24.608057	0.000982	20.735402
801.224737	-2.982900	3.663700	-10.928000	24.646854	0.000981	20.727390
802.223563	-3.024900	3.662100	-11.077000	24.670359	0.000982	20.707352
803.223129	-2.985400	3.662300	-10.932000	24.674937	0.000980	20.743242
804.223977	-2.981600	3.662600	-10.920000	24.696551	0.000982	20.724152
805.225204	-3.007300	3.661100	-11.009000	24.737854	0.000981	20.720555
806.224558	-2.983300	3.662900	-10.927000	24.740118	0.000981	20.716664
807.223742	-2.984600	3.662200	-10.928000	24.747972	0.000980	20.725019
808.224427	-3.001300	3.661100	-10.987000	24.766952	0.000979	20.702340
809.226383	-3.012800	3.660800	-11.028000	24.792914	0.000979	20.711799
810.224334	-3.010300	3.659200	-11.014000	24.810998	0.000979	20.726156
811.223060	-3.000400	3.659800	-10.979000	24.837545	0.000976	20.717236
812.226403	-3.012200	3.658900	-11.021000	24.802135	0.000978	20.725322
813.225349	-3.012300	3.658300	-11.019000	24.783017	0.000977	20.737904
814.223741	-3.034600	3.658200	-11.100000	24.723712	0.000977	20.728175
815.228630	-2.998900	3.658000	-10.969000	24.712388	0.000976	20.717759
816.227416	-2.983400	3.658800	-10.915000	24.720225	0.000977	20.707131
817.226701	-3.016000	3.657600	-11.031000	24.721072	0.000977	20.744019
818.225869	-2.977400	3.658400	-10.891000	24.729634	0.000977	20.706616
819.225604	-2.983500	3.658900	-10.915000	24.731394	0.000977	20.717865
820.225292	-2.985300	3.658500	-10.920000	24.752289	0.000975	20.692366
821.227140	-3.010400	3.657600	-11.009000	24.700388	0.000976	20.712355
822.227297	-3.011400	3.657900	-11.015000	24.694986	0.000977	20.725428
823.228089	-3.020700	3.654600	-11.038000	24.699092	0.000974	20.723384
824.229617	-2.975700	3.655900	-10.876000	24.726848	0.000973	20.719468
825.226921	-2.992600	3.657400	-10.943000	24.719883	0.000976	20.720065
826.226201	-2.982900	3.655700	-10.904000	24.745503	0.000974	20.727284
827.232300	-3.002600	3.655500	-10.975000	24.725536	0.000976	20.701555
828.230017	-2.995100	3.654700	-10.944000	24.728192	0.000975	20.682407
829.228502	-2.997400	3.655800	-10.957000	24.715687	0.000972	20.696887
830.230712	-2.990600	3.655300	-10.930000	24.695793	0.000974	20.704899
831.231969	-3.006200	3.654300	-10.984000	24.701105	0.000971	20.710229
832.229301	-3.004500	3.654600	-10.979000	24.711923	0.000972	20.696903
833.230806	-2.993500	3.653800	-10.937000	24.738172	0.000972	20.709968
834.229875	-3.011600	3.652100	-10.997000	24.727174	0.000972	20.719321
835.228571	-3.002100	3.653600	-10.968000	24.751572	0.000972	20.695440
836.234186	-2.989500	3.653800	-10.921000	24.784198	0.000971	20.707319
837.230658	-3.020500	3.651200	-11.027000	24.784418	0.000973	20.713704
838.230833	-2.986900	3.652700	-10.908000	24.786503	0.000972	20.708210
839.235685	-2.997000	3.653300	-10.948000	24.808962	0.000970	20.700402
840.231408	-2.994900	3.651300	-10.934000	24.813686	0.000971	20.713205
841.233876	-2.998500	3.651500	-10.947000	24.818574	0.000969	20.711472
842.237891	-3.000400	3.651000	-10.954000	24.822060	0.000971	20.702642
843.232272	-2.993900	3.651500	-10.931000	24.814770	0.000970	20.703861
844.231894	-2.996800	3.650200	-10.938000	24.800726	0.000970	20.707311
845.235159	-2.996100	3.652000	-10.941000	24.769209	0.000971	20.702234
846.232544	-2.995900	3.649300	-10.931000	24.752346	0.000968	20.708545
847.234427	-3.003800	3.650600	-10.965000	24.728151	0.000967	20.693747
848.241958	-2.985400	3.650900	-10.899000	24.734962	0.000969	20.702953
849.238865	-2.991000	3.651200	-10.919000	24.710286	0.000968	20.695260
850.240930	-3.012700	3.649700	-10.995000	24.686986	0.000969	20.697483
851.244223	-2.998300	3.649200	-10.940000	24.635399	0.000967	20.713050
852.237002	-3.006200	3.648500	-10.967000	24.647091	0.000968	20.674517
853.238746	-3.032600	3.647000	-11.058000	24.652899	0.000967	20.689357
854.239550	-2.976500	3.648300	-10.857000	24.669837	0.000967	20.712518
855.238635	-2.998400	3.645700	-10.930000	24.680029	0.000967	20.699511
856.237947	-2.991100	3.646800	-10.907000	24.700249	0.000967	20.681393
857.239933	-2.980700	3.647900	-10.872000	24.719516	0.000965	20.714006
858.238463	-2.992600	3.647400	-10.914000	24.746497	0.000967	20.706943
859.238568	-3.014100	3.646000	-10.989000	24.743092	0.000966	20.673177
860.239039	-2.977200	3.645700	-10.852000	24.749259	0.000966	20.678892
861.238715	-3.005600	3.646000	-10.957000	24.760419	0.000965	20.702896
862.237041	-3.004600	3.645400	-10.952000	24.752452	0.000962	20.701064
863.241369	-2.998700	3.644100	-10.926000	24.792816	0.000963	20.699846
864.238176	-3.001300	3.645400	-10.940000	24.780002	0.000962	20.704531
865.239268	-3.006200	3.645200	-10.956000	24.795154	0.000963	20.680379
866.241600	-3.021700	3.644200	-11.010000	24.800872	0.000963	20.686119
867.238886	-3.002500	3.645600	-10.944000	24.830189	0.000961	20.670969
868.238450	-3.009100	3.643700	-10.964000	24.823616	0.000963	20.685236
869.242160	-2.986300	3.643800	-10.879000	24.797907	0.000962	20.676504
870.243114	-3.002300	3.643600	-10.938000	24.791643	0.000962	20.672114
871.239477	-3.011500	3.643900	-10.972000	24.793460	0.000961	20.681050
872.244007	-3.002600	3.642600	-10.936000	24.808627	0.000960	20.697222
873.244688	-2.980500	3.644200	-10.859000	24.803593	0.000960	20.681737
874.240817	-2.978100	3.643700	-10.851000	24.826752	0.000960	20.694548
875.246150	-3.002500	3.641100	-10.931000	24.826947	0.000960	20.672457
876.243727	-2.975500	3.642300	-10.837000	24.843157	0.000959	20.711014
877.241000	-3.009400	3.641100	-10.956000	24.885677	0.000958	20.691572
878.243062	-2.992100	3.640400	-10.891000	24.864099	0.000959	20.675131
879.242486	-2.988900	3.640200	-10.880000	24.853958	0.000959	20.688187
880.241014	-2.997000	3.640300	-10.907000	24.855563	0.000958	20.682211
881.244181	-2.993300	3.640700	-10.896000	24.833716	0.000959	20.692055
882.240567	-2.977800	3.642100	-10.844000	24.810110	0.000957	20.677371
883.242624	-2.995000	3.639800	-10.901000	24.820056	0.000957	20.672179
884.254925	-2.994700	3.640000	-10.900000	24.804986	0.000959	20.666538
885.242287	-2.990400	3.640800	-10.886000	24.797924	0.000956	20.701653
886.241997	-2.979700	3.638800	-10.842000	24.734342	0.000956	20.701857
887.245973	-2.998700	3.639300	-10.912000	24.740061	0.000956	20.689577
888.239865	-2.976900	3.640500	-10.834000	24.728176	0.000955	20.681917
889.241118	-3.006200	3.637700	-10.935000	24.689846	0.000957	20.681859
890.239938	-2.993800	3.638000	-10.889000	24.689153	0.000957	20.702029
891.240582	-2.985400	3.638600	-10.862000	24.713544	0.000956	20.689046
892.240382	-2.991000	3.638100	-10.881000	24.722497	0.000956	20.676692
893.240844	-2.985400	3.637400	-10.858000	24.763001	0.000954	20.677510
894.241061	-3.009000	3.636300	-10.940000	24.778520	0.000953	20.682178
895.241621	-3.005400	3.635900	-10.927000	24.802216	0.000952	20.679407
896.241466	-3.032600	3.634900	-11.022000	24.804603	0.000953	20.688441
897.243109	-3.014700	3.636500	-10.962000	24.751034	0.000953	20.696796
898.244358	-2.998500	3.636500	-10.902000	24.752102	0.000953	20.672261
899.243258	-2.992300	3.634100	-10.872000	24.736558	0.000951	20.674681
900.244934	-3.000000	3.634800	-10.903000	24.733340	0.000950	20.687100
901.245800	-3.006200	3.635000	-10.927000	24.763490	0.000952	20.691752
902.245359	-3.011900	3.634300	-10.945000	24.821587	0.000950	20.688416
903.244093	-2.997500	3.633000	-10.889000	24.816789	0.000953	20.676488
904.243804	-2.987400	3.635100	-10.858000	24.845560	0.000949	20.687819
905.245519	-2.995100	3.633700	-10.882000	24.902187	0.000950	20.711464
906.246658	-2.990000	3.632300	-10.860000	24.913924	0.000950	20.695742
907.246360	-2.989800	3.632400	-10.859000	24.918192	0.000950	20.683903
908.245641	-2.994400	3.632000	-10.874000	24.910585	0.000950	20.709461
909.246825	-2.989400	3.633000	-10.859000	24.883380	0.000948	20.681205
910.248948	-3.005200	3.631700	-10.913000	24.858740	0.000947	20.674493
911.245545	-2.997800	3.632100	-10.887000	24.856997	0.000950	20.670372
912.245601	-2.982000	3.632200	-10.831000	24.860597	0.000945	20.700541
913.247965	-3.019500	3.630000	-10.959000	24.859782	0.000946	20.689765
914.247759	-2.998600	3.630200	-10.884000	24.849380	0.000946	20.686438
915.249796	-3.001200	3.632300	-10.900000	24.845405	0.000946	20.687664
916.246902	-3.010000	3.630500	-10.925000	24.858919	0.000946	20.684157
917.246376	-3.023200	3.629900	-10.973000	24.866730	0.000945	20.686307
918.247024	-3.008400	3.629300	-10.917000	24.878240	0.000946	20.702127
919.246356	-2.995100	3.629300	-10.868000	24.889619	0.000944	20.702642
920.247005	-3.005200	3.629600	-10.907000	24.864653	0.000945	20.696551
921.251640	-3.029300	3.628100	-10.990000	24.825954	0.000945	20.711292
922.247644	-2.992700	3.627900	-10.857000	24.831020	0.000943	20.677494
923.253850	-2.987100	3.628500	-10.838000	24.787701	0.000944	20.685228
924.248399	-2.986700	3.628800	-10.837000	24.785094	0.000942	20.702528
925.248333	-2.975000	3.629100	-10.795000	24.774895	0.000942	20.696085
926.252366	-2.987300	3.628200	-10.838000	24.809084	0.000944	20.691041
927.248975	-2.996500	3.626300	-10.865000	24.855702	0.000944	20.704637
928.249329	-3.020100	3.627500	-10.955000	24.843117	0.000941	20.695799
929.250726	-3.005500	3.627100	-10.900000	24.897341	0.000942	20.717506
930.249501	-3.004700	3.627400	-10.899000	24.910422	0.000940	20.687959
931.250008	-3.028700	3.626900	-10.982000	24.843606	0.000941	20.693919
932.254010	-3.023300	3.625900	-10.960000	24.821751	0.000940	20.695693
933.251744	-3.010600	3.624500	-10.910000	24.844998	0.000939	20.692472
934.255875	-3.018600	3.625000	-10.942000	24.846880	0.000940	20.697680
935.253910	-2.984900	3.624900	-10.818000	24.864906	0.000939	20.705341
936.255121	-2.987100	3.625700	-10.829000	24.874257	0.000938	20.691491
937.263966	-3.002200	3.626300	-10.885000	24.889049	0.000939	20.678835
938.255417	-2.988600	3.626400	-10.836000	24.890988	0.000938	20.695006
939.256320	-3.000200	3.624300	-10.873000	24.940102	0.000939	20.687877
940.258090	-3.013400	3.623200	-10.916000	24.957516	0.000937	20.705357
941.260486	-3.009700	3.621500	-10.898000	24.966866	0.000937	20.690085
942.256558	-3.009700	3.623100	-10.904000	25.000976	0.000936	20.708202
943.256826	-2.999100	3.621300	-10.860000	25.038635	0.000935	20.722297
944.259480	-3.017700	3.621800	-10.929000	25.050518	0.000934	20.693919
945.257325	-2.998900	3.623100	-10.865000	25.067050	0.000934	20.670209
946.256884	-2.981700	3.622900	-10.802000	25.052399	0.000934	20.701024
947.260738	-3.003300	3.622800	-10.879000	25.048775	0.000934	20.709715
948.256676	-2.980200	3.621800	-10.793000	25.055844	0.000933	20.695473
949.258321	-3.010000	3.621000	-10.898000	25.065503	0.000936	20.681933
950.257390	-3.015100	3.620400	-10.915000	25.093436	0.000933	20.717089
951.259959	-2.990300	3.621100	-10.827000	25.100098	0.000932	20.720458
952.261714	-3.028200	3.617900	-10.953000	25.104446	0.000934	20.710598
953.259418	-2.982900	3.621400	-10.801000	25.069062	0.000933	20.710639
954.260624	-3.019500	3.617800	-10.923000	25.049027	0.000932	20.696691
955.259348	-2.975200	3.619700	-10.769000	25.050062	0.000932	20.703420
956.257658	-3.018000	3.618300	-10.917000	25.023658	0.000932	20.722436
957.258276	-2.984600	3.620000	-10.804000	25.022966	0.000930	20.716051
958.263342	-3.002500	3.617900	-10.862000	25.001758	0.000930	20.704720
959.258130	-2.993500	3.618300	-10.830000	24.986609	0.000930	20.723180
960.259337	-2.985400	3.619200	-10.803000	24.966671	0.000929	20.704115
961.259792	-3.006700	3.615800	-10.870000	24.927356	0.000930	20.709699
962.260133	-2.997600	3.616500	-10.840000	24.894711	0.000928	20.721978
963.265998	-3.009600	3.616700	-10.884000	24.900021	0.000928	20.702177
964.259306	-3.014900	3.616700	-10.903000	24.931013	0.000925	20.725224
965.260009	-2.990600	3.617100	-10.816000	24.940502	0.000929	20.695865
966.260480	-3.016100	3.615800	-10.904000	24.958747	0.000929	20.729827
967.259979	-3.010500	3.616100	-10.885000	24.975769	0.000929	20.722731
968.261362	-3.030800	3.615000	-10.955000	24.990421	0.000926	20.720368
969.258852	-3.001900	3.616400	-10.855000	25.021989	0.000926	20.716493
970.260145	-3.010700	3.614300	-10.880000	25.034596	0.000926	20.721562
971.260502	-2.983300	3.616300	-10.788000	25.056056	0.000924	20.719869
972.261930	-2.984800	3.616200	-10.792000	25.091279	0.000927	20.704491
973.260225	-3.010500	3.613300	-10.878000	25.126826	0.000924	20.720262
974.263323	-2.986700	3.614900	-10.796000	25.132290	0.000925	20.722428
975.261047	-2.992900	3.612600	-10.811000	25.114675	0.000924	20.709012
976.260668	-2.990400	3.613700	-10.806000	25.089112	0.000925	20.711800
977.261872	-3.014700	3.612500	-10.890000	25.051251	0.000922	20.712675
978.262682	-3.022800	3.610900	-10.913000	25.003013	0.000924	20.715463
979.265823	-3.015500	3.610900	-10.886000	24.985486	0.000922	20.734855
980.263159	-3.000500	3.612400	-10.838000	25.022681	0.000922	20.712446
981.264165	-2.983600	3.611500	-10.774000	25.056317	0.000919	20.728666
982.264638	-2.993000	3.612200	-10.809000	25.071204	0.000921	20.724644
983.264886	-2.991900	3.612800	-10.808000	25.062132	0.000921	20.719330
984.266285	-2.999100	3.609800	-10.825000	25.073647	0.000918	20.714294
985.265400	-3.011800	3.610100	-10.870000	25.052139	0.000920	20.725895
986.263395	-3.022900	3.609300	-10.909000	25.044207	0.000920	20.716509
987.264159	-2.999000	3.610300	-10.826000	25.088803	0.000919	20.721447
988.266345	-2.991500	3.609000	-10.795000	25.085871	0.000918	20.726565
989.264175	-3.002400	3.609200	-10.835000	25.104667	0.000919	20.725993
990.265197	-3.007500	3.608900	-10.852000	25.084975	0.000920	20.742262
991.264333	-3.002100	3.609500	-10.834000	25.037919	0.000917	20.739597
992.271712	-2.979100	3.610100	-10.754000	25.041454	0.000918	20.709478
993.265130	-3.004300	3.606600	-10.834000	25.032650	0.000915	20.723876
994.265467	-2.997100	3.608900	-10.815000	25.079462	0.000918	20.732460
995.270379	-2.995900	3.609900	-10.814000	25.072303	0.000916	20.709625
996.264729	-3.011200	3.607300	-10.861000	25.114610	0.000914	20.733130
997.265918	-3.006100	3.607400	-10.844000	25.129228	0.000913	20.742589
998.268157	-2.995200	3.608000	-10.806000	25.142428	0.000915	20.742565
999.268325	-3.011500	3.607600	-10.863000	25.142347	0.000913	20.739164
1000.266541	-2.994800	3.605900	-10.798000	25.201165	0.000915	20.733727
1001.273218	-3.007800	3.605800	-10.844000	25.210863	0.000912	20.738722
1002.268078	-2.970400	3.606600	-10.711000	25.239054	0.000914	20.732885
1003.268433	-3.006600	3.603900	-10.834000	25.257545	0.000911	20.726794
1004.267758	-2.992600	3.605100	-10.788000	25.256951	0.000911	20.728568
1005.268208	-3.007400	3.603900	-10.837000	25.273382	0.000912	20.730367
1006.269896	-2.990300	3.604300	-10.776000	25.262643	0.000911	20.747560
1007.268740	-2.978700	3.604900	-10.737000	25.218477	0.000911	20.730244
1008.270617	-3.007800	3.603700	-10.838000	25.202093	0.000910	20.745091
1009.270504	-3.017300	3.601600	-10.865000	25.186532	0.000910	20.741796
1010.273716	-2.977700	3.603200	-10.729000	25.194683	0.000909	20.734332
1011.271729	-2.995600	3.603400	-10.794000	25.196320	0.000908	20.728389
1012.270069	-3.002500	3.600700	-10.810000	25.222507	0.000909	20.733817
1013.272203	-2.999100	3.602000	-10.800000	25.229787	0.000909	20.735436
1014.273889	-3.002600	3.600000	-10.808000	25.251284	0.000908	20.747535
1015.276358	-3.004700	3.600900	-10.819000	25.275328	0.000908	20.744175
1016.271976	-2.985600	3.601700	-10.752000	25.278382	0.000908	20.739180
1017.272500	-2.995200	3.602100	-10.788000	25.263172	0.000906	20.734340
1018.272125	-3.015700	3.599500	-10.853000	25.253059	0.000907	20.735092
1019.274235	-2.996300	3.601500	-10.791000	25.239233	0.000907	20.742074
1020.272003	-3.019200	3.600500	-10.870000	25.196035	0.000906	20.738534
1021.275274	-2.994400	3.600000	-10.779000	25.160816	0.000906	20.756757
1022.274462	-3.001700	3.598600	-10.800000	25.102142	0.000903	20.750487
1023.274768	-2.980100	3.599900	-10.727000	25.124097	0.000903	20.756406
1024.273098	-3.000600	3.598500	-10.797000	25.114203	0.000904	20.748843
1025.273225	-2.999900	3.597900	-10.792000	25.144375	0.000905	20.736932
1026.273540	-2.991600	3.599400	-10.767000	25.165857	0.000902	20.743325
1027.273879	-2.988200	3.598600	-10.753000	25.194813	0.000902	20.753904
1028.279850	-2.985500	3.597300	-10.739000	25.227996	0.000904	20.744069
1029.274766	-3.021700	3.596200	-10.866000	25.214275	0.000903	20.756373
1030.274294	-2.987800	3.597200	-10.747000	25.240405	0.000901	20.765063
1031.274236	-3.006600	3.596000	-10.811000	25.273912	0.000902	20.743227
1032.275576	-2.996600	3.595600	-10.774000	25.282339	0.000899	20.763543
1033.279078	-2.992400	3.596200	-10.760000	25.292142	0.000899	20.758212
1034.274903	-2.997600	3.595100	-10.776000	25.271648	0.000898	20.759447
1035.277727	-2.991600	3.596700	-10.759000	25.250648	0.000898	20.747372
1036.275284	-3.012000	3.594000	-10.825000	25.211800	0.000896	20.755310
1037.276252	-2.992800	3.594100	-10.755000	25.198347	0.000900	20.743701
1038.278890	-2.985500	3.594300	-10.730000	25.237311	0.000896	20.732084
1039.276225	-3.001800	3.593600	-10.787000	25.243841	0.000894	20.747650
1040.283328	-3.023600	3.592200	-10.859000	25.243336	0.000897	20.757100
1041.275904	-3.003100	3.593400	-10.790000	25.242547	0.000896	20.780964
1042.277455	-2.994500	3.592000	-10.755000	25.245616	0.000895	20.766502
1043.281622	-3.004100	3.593300	-10.794000	25.239127	0.000897	20.768995
1044.279629	-3.001000	3.594000	-10.785000	25.233085	0.000894	20.768145
1045.278594	-3.038100	3.590800	-10.908000	25.222898	0.000895	20.760289
1046.280441	-2.988200	3.590900	-10.730000	25.242905	0.000893	20.763305
1047.277674	-3.014800	3.592100	-10.828000	25.227849	0.000897	20.759569
1048.278784	-2.988200	3.592000	-10.732000	25.223672	0.000892	20.760117
1049.281144	-2.969500	3.591500	-10.663000	25.204259	0.000894	20.781879
1050.276516	-2.995200	3.590500	-10.753000	25.211808	0.000892	20.749628
1051.279808	-3.017400	3.589100	-10.829000	25.198722	0.000893	20.779165
1052.278058	-3.020500	3.589200	-10.841000	25.192802	0.000891	20.760419
1053.278667	-2.988100	3.591000	-10.730000	25.199691	0.000889	20.764016
1054.277117	-2.975900	3.590600	-10.683000	25.176744	0.000890	20.753307
1055.281075	-2.991300	3.589700	-10.737000	25.208094	0.000888	20.774350
1056.276793	-2.990600	3.589300	-10.733000	25.214674	0.000890	20.763886
1057.276809	-2.966800	3.589700	-10.649000	25.275352	0.000890	20.752260
1058.277915	-2.965700	3.589600	-10.645000	25.289675	0.000888	20.760002
1059.281800	-3.003400	3.588600	-10.776000	25.271534	0.000888	20.754590
1060.279237	-3.001100	3.587600	-10.766000	25.279310	0.000887	20.765243
1061.283803	-3.008600	3.588300	-10.795000	25.270736	0.000888	20.777497
1062.278653	-3.025300	3.586200	-10.848000	25.282070	0.000888	20.783187
1063.278132	-3.019700	3.586300	-10.829000	25.280034	0.000885	20.769764
1064.279855	-3.000000	3.586000	-10.757000	25.286744	0.000888	20.777448
1065.279942	-3.014700	3.585200	-10.807000	25.294177	0.000886	20.753143
1066.279579	-2.968300	3.587100	-10.647000	25.292093	0.000885	20.784242
1067.278224	-2.996600	3.584800	-10.741000	25.301505	0.000884	20.764294
1068.279941	-2.976600	3.587200	-10.676000	25.283283	0.000883	20.790095
1069.278187	-2.993300	3.584100	-10.728000	25.270239	0.000885	20.783163
1070.280488	-3.004300	3.584600	-10.768000	25.253978	0.000882	20.763518
1071.279270	-3.015700	3.583100	-10.804000	25.254679	0.000882	20.774178
1072.281109	-2.995300	3.584800	-10.736000	25.282119	0.000881	20.810737
1073.278935	-2.989600	3.584100	-10.714000	25.327576	0.000883	20.770557
1074.280138	-3.016000	3.582500	-10.803000	25.330459	0.000881	20.800478
1075.283587	-2.977700	3.582900	-10.668000	25.347711	0.000882	20.786032
1076.279676	-3.009000	3.581600	-10.775000	25.352238	0.000880	20.787258
1077.282100	-3.018900	3.581100	-10.810000	25.379049	0.000881	20.774824
1078.278730	-3.019600	3.582100	-10.816000	25.378951	0.000880	20.766191
1079.281259	-3.009900	3.581200	-10.776000	25.385562	0.000879	20.781838
1080.281738	-2.999100	3.581900	-10.741000	25.353199	0.000878	20.757877
1081.281125	-3.021200	3.580300	-10.816000	25.337493	0.000876	20.796161
1082.279348	-2.996100	3.580700	-10.727000	25.352206	0.000876	20.793390
1083.281088	-3.006500	3.579000	-10.759000	25.351758	0.000878	20.785354
1084.280740	-3.012000	3.580100	-10.782000	25.340726	0.000877	20.802726
1085.281220	-2.990000	3.579200	-10.701000	25.349226	0.000875	20.794665
1086.282204	-2.992300	3.579000	-10.707000	25.337046	0.000876	20.806143
1087.279840	-2.994200	3.580200	-10.718000	25.344129	0.000875	20.801401
1088.288170	-2.982000	3.580000	-10.675000	25.334204	0.000875	20.793333
1089.281751	-3.019200	3.577900	-10.800000	25.336020	0.000876	20.773344
1090.282608	-3.015100	3.578300	-10.788000	25.350284	0.000874	20.808056
1091.287300	-2.995700	3.577000	-10.715000	25.346979	0.000873	20.772494
1092.282415	-3.003900	3.577000	-10.744000	25.349250	0.000873	20.797535
1093.283853	-2.992500	3.576700	-10.702000	25.373130	0.000873	20.787847
1094.283933	-2.963400	3.577500	-10.601000	25.382745	0.000873	20.814571
1095.284048	-2.996000	3.577000	-10.715000	25.323050	0.000871	20.809634
1096.283426	-2.990200	3.577100	-10.695000	25.348119	0.000871	20.800192
1097.287217	-3.003200	3.577200	-10.743000	25.343966	0.000870	20.805980
1098.283433	-2.989800	3.574400	-10.686000	25.367358	0.000868	20.810974
1099.283559	-2.990000	3.576600	-10.693000	25.387565	0.000872	20.801868
1100.284774	-3.010000	3.574800	-10.758000	25.399916	0.000870	20.806683
1101.286618	-2.994300	3.576300	-10.707000	25.403514	0.000868	20.803658
1102.289321	-3.028400	3.573200	-10.820000	25.422858	0.000867	20.814547
1103.287092	-3.000800	3.574200	-10.725000	25.443423	0.000869	20.816231
1104.288652	-2.996100	3.574200	-10.707000	25.480774	0.000866	20.833349
1105.287860	-2.995000	3.574600	-10.705000	25.480106	0.000866	20.815136
1106.288217	-3.018200	3.572400	-10.781000	25.489248	0.000866	20.819575
1107.289451	-2.996000	3.574300	-10.707000	25.495834	0.000865	20.820973
1108.287720	-3.003400	3.572800	-10.728000	25.498806	0.000867	20.813051
1109.287216	-3.012500	3.571500	-10.758000	25.518140	0.000867	20.809708
1110.288459	-2.985700	3.572400	-10.665000	25.532418	0.000865	20.823572
1111.288501	-3.016700	3.570400	-10.770000	25.498602	0.000863	20.823278
1112.288369	-2.988400	3.573000	-10.676000	25.482768	0.000863	20.804059
1113.289494	-2.994900	3.573000	-10.699000	25.481002	0.000863	20.817458
1114.288299	-3.009000	3.570300	-10.742000	25.479805	0.000862	20.807721
1115.289894	-3.008400	3.571400	-10.743000	25.498537	0.000862	20.808514
1116.288640	-3.011200	3.569100	-10.747000	25.518164	0.000860	20.823483
1117.290968	-3.002000	3.569200	-10.714000	25.547389	0.000860	20.843822
1118.294393	-2.982500	3.570800	-10.650000	25.565574	0.000860	20.816567
1119.289680	-3.004100	3.568800	-10.720000	25.532272	0.000858	20.811098
1120.291691	-3.006200	3.569300	-10.729000	25.551280	0.000861	20.828290
1121.292090	-3.007500	3.567300	-10.728000	25.550254	0.000860	20.822044
1122.290144	-2.963500	3.569900	-10.578000	25.575001	0.000858	20.805171
1123.289690	-3.010500	3.566800	-10.736000	25.577369	0.000859	20.835050
1124.293571	-2.994800	3.568200	-10.685000	25.551475	0.000858	20.820425
1125.293412	-2.984300	3.567800	-10.647000	25.543107	0.000857	20.821505
1126.291503	-3.007900	3.566000	-10.725000	25.562147	0.000854	20.822134
1127.292262	-2.990000	3.565900	-10.660000	25.536579	0.000856	20.829173
1128.294978	-3.017300	3.564500	-10.754000	25.557174	0.000855	20.822355
1129.293499	-2.981600	3.566000	-10.631000	25.551647	0.000854	20.833399
1130.292598	-3.018200	3.565300	-10.760000	25.523766	0.000854	20.844754
1131.293573	-3.011400	3.565100	-10.734000	25.503610	0.000855	20.831626
1132.294521	-2.992700	3.566000	-10.670000	25.512980	0.000854	20.841035
1133.293043	-2.987800	3.565600	-10.652000	25.515487	0.000852	20.833122
1134.293664	-3.011300	3.563600	-10.730000	25.535855	0.000852	20.843618
1135.293899	-2.975400	3.566000	-10.609000	25.517766	0.000851	20.831617
1136.298190	-3.028100	3.562100	-10.785000	25.526233	0.000851	20.830637
1137.294945	-3.004400	3.562900	-10.704000	25.517359	0.000851	20.829312
1138.293687	-3.011400	3.562300	-10.727000	25.535423	0.000850	20.821375
1139.303320	-3.002400	3.563000	-10.696000	25.518792	0.000851	20.805147
1140.294931	-3.008500	3.562400	-10.716000	25.537947	0.000850	20.831969
1141.294702	-2.996900	3.563200	-10.677000	25.536099	0.000847	20.831536
1142.295121	-2.999000	3.561900	-10.681000	25.559014	0.000849	20.830367
1143.294175	-2.986300	3.562200	-10.637000	25.571233	0.000847	20.816086
1144.295391	-2.998000	3.560800	-10.674000	25.558583	0.000846	20.819977
1145.299222	-3.006300	3.560900	-10.704000	25.569157	0.000847	20.829174
1146.295185	-2.993600	3.560600	-10.658000	25.561669	0.000844	20.825447
1147.295972	-2.986900	3.561400	-10.635000	25.534911	0.000846	20.820860
1148.296362	-2.981600	3.560300	-10.615000	25.554937	0.000845	20.803039
1149.295702	-3.009200	3.559700	-10.711000	25.515846	0.000845	20.817362
1150.301017	-3.006200	3.558200	-10.696000	25.529734	0.000844	20.819455
1151.297153	-2.986100	3.558900	-10.626000	25.565259	0.000843	20.827630
1152.295788	-2.975900	3.558800	-10.590000	25.574628	0.000844	20.796736
1153.298283	-2.985100	3.558000	-10.620000	25.594107	0.000841	20.807290
1154.303594	-2.998300	3.558400	-10.668000	25.567172	0.000841	20.789722
1155.298188	-3.003100	3.556300	-10.679000	25.544925	0.000842	20.810528
1156.295381	-3.005800	3.558500	-10.695000	25.531599	0.000842	20.789085
1157.297926	-3.020100	3.557400	-10.742000	25.520943	0.000841	20.807307
1158.297229	-3.007900	3.556400	-10.697000	25.527447	0.000840	20.805304
1159.298550	-3.020000	3.556100	-10.739000	25.523817	0.000841	20.833426
1160.301198	-2.992700	3.556500	-10.642000	25.525103	0.000838	20.800105
1161.301278	-3.008000	3.556300	-10.696000	25.518713	0.000839	20.811231
1162.301704	-2.992900	3.557000	-10.644000	25.549231	0.000838	20.809637
1163.301742	-3.006000	3.556600	-10.690000	25.543069	0.000836	20.790172
1164.302764	-2.992000	3.556500	-10.640000	25.490180	0.000838	20.807234
1165.302858	-2.994300	3.555300	-10.644000	25.493127	0.000836	20.797392
1166.307978	-2.983400	3.554300	-10.603000	25.485727	0.000837	20.792805
1167.303283	-2.994100	3.554700	-10.643000	25.487111	0.000835	20.791824
1168.304892	-2.996800	3.554600	-10.652000	25.491466	0.000835	20.778654
1169.301746	-2.993800	3.554100	-10.639000	25.496278	0.000834	20.820944
1170.303791	-2.994100	3.552800	-10.637000	25.479426	0.000835	20.799754
1171.306608	-2.985000	3.554100	-10.608000	25.466401	0.000833	20.783355
1172.305465	-3.014200	3.551300	-10.703000	25.503287	0.000833	20.794318
1173.305102	-3.003200	3.552000	-10.666000	25.518062	0.000833	20.784974
1174.305975	-3.030900	3.551000	-10.761000	25.484034	0.000831	20.772613
1175.305318	-2.994900	3.551600	-10.636000	25.445519	0.000834	20.798422
1176.306951	-2.986800	3.549600	-10.601000	25.420990	0.000831	20.781377
1177.308885	-2.991600	3.551700	-10.625000	25.384500	0.000830	20.786936
1178.307847	-2.999800	3.550700	-10.651000	25.378883	0.000830	20.776554
1179.312098	-3.010000	3.551300	-10.688000	25.392821	0.000832	20.798610
1180.309177	-2.988100	3.550600	-10.608000	25.358675	0.000828	20.782342
1181.307286	-3.018400	3.548400	-10.709000	25.340747	0.000828	20.793264
1182.306941	-3.002200	3.547800	-10.650000	25.320864	0.000828	20.772352
1183.307839	-3.003600	3.548600	-10.658000	25.309254	0.000827	20.784876
1184.308913	-3.006300	3.548100	-10.666000	25.280227	0.000827	20.781811
1185.306833	-3.004500	3.549000	-10.662000	25.277385	0.000826	20.787493
1186.307543	-3.015900	3.547200	-10.696000	25.312902	0.000828	20.785220
1187.307965	-3.014000	3.545900	-10.686000	25.333851	0.000825	20.778754
1188.311981	-3.003400	3.546600	-10.650000	25.365791	0.000824	20.786168
1189.309610	-2.986300	3.547000	-10.591000	25.404529	0.000825	20.780021
1190.308661	-2.956900	3.548500	-10.492000	25.405425	0.000822	20.778075
1191.310286	-2.997200	3.546500	-10.629000	25.472630	0.000822	20.764005
1192.310049	-2.991800	3.547200	-10.612000	25.488277	0.000822	20.781615
1193.312189	-3.015600	3.546000	-10.693000	25.517974	0.000821	20.765444
1194.311183	-3.001700	3.546000	-10.642000	25.546547	0.000823	20.774225
1195.313041	-3.017000	3.545700	-10.696000	25.558871	0.000822	20.786602
1196.310468	-3.002500	3.544600	-10.642000	25.573402	0.000821	20.783177
1197.311441	-3.005900	3.544600	-10.652000	25.590976	0.000819	20.773800
1198.311787	-2.993400	3.544100	-10.607000	25.586467	0.000818	20.786341
1199.311123	-2.996900	3.545100	-10.623000	25.585954	0.000819	20.767333
1200.312685	-2.987900	3.544400	-10.589000	25.579759	0.000821	20.759690
1201.312287	-3.009700	3.542500	-10.661000	25.613809	0.000817	20.791041
1202.311565	-3.009900	3.542400	-10.661000	25.571212	0.000819	20.783349
1203.310978	-2.977300	3.544300	-10.552000	25.528199	0.000815	20.774765
1204.316685	-3.001600	3.541400	-10.629000	25.505853	0.000817	20.763230
1205.312532	-3.007400	3.542800	-10.652000	25.529314	0.000815	20.770195
1206.317379	-2.987100	3.542400	-10.580000	25.530706	0.000816	20.753574
1207.313339	-2.994400	3.541200	-10.602000	25.539254	0.000816	20.765478
1208.314328	-2.991300	3.540100	-10.588000	25.504713	0.000812	20.766352
1209.315002	-2.968800	3.542100	-10.514000	25.493716	0.000813	20.781861
1210.313860	-3.012400	3.539400	-10.660000	25.519220	0.000814	20.778076
1211.313363	-2.996500	3.539700	-10.606000	25.529982	0.000814	20.771339
1212.314055	-2.989400	3.540600	-10.583000	25.548045	0.000812	20.762927
1213.317777	-3.019900	3.538700	-10.686000	25.560915	0.000814	20.773482
1214.317339	-3.015000	3.538700	-10.668000	25.581608	0.000811	20.752537
1215.316549	-2.993600	3.538800	-10.593000	25.602690	0.000811	20.780349
1216.317470	-3.002600	3.538100	-10.623000	25.613069	0.000810	20.768487
1217.316389	-3.012600	3.537700	-10.658000	25.628428	0.000811	20.750247
1218.317207	-2.979600	3.539100	-10.544000	25.634216	0.000809	20.743257
1219.317781	-3.003500	3.536700	-10.622000	25.625840	0.000808	20.765192
1220.316028	-3.011200	3.535700	-10.645000	25.627777	0.000809	20.757654
1221.322030	-2.994600	3.536100	-10.588000	25.647459	0.000808	20.757507
1222.317082	-3.006700	3.536600	-10.633000	25.612393	0.000807	20.746471
1223.321293	-3.015700	3.534800	-10.659000	25.612849	0.000806	20.764472
1224.321755	-3.001800	3.535000	-10.611000	25.622608	0.000805	20.746773
1225.317077	-3.003200	3.534500	-10.613000	25.611400	0.000805	20.751637
1226.317484	-3.001000	3.536800	-10.612000	25.603846	0.000806	20.769182
1227.317036	-3.004800	3.535600	-10.623000	25.571644	0.000806	20.779515
1228.317004	-2.983400	3.536000	-10.549000	25.532701	0.000805	20.732818
1229.317410	-2.991400	3.536100	-10.577000	25.534289	0.000804	20.758121
1230.319716	-3.009600	3.533100	-10.632000	25.549739	0.000806	20.757042
1231.318229	-3.002300	3.535400	-10.612000	25.545547	0.000804	20.747141
1232.317916	-3.007800	3.533800	-10.628000	25.537293	0.000802	20.755922
1233.317485	-3.010800	3.533100	-10.636000	25.542258	0.000802	20.744313
1234.317580	-2.997500	3.533300	-10.590000	25.575772	0.000802	20.761849
1235.321180	-2.974900	3.533000	-10.509000	25.609178	0.000800	20.761260
1236.318676	-2.975300	3.532400	-10.509000	25.610310	0.000800	20.746749
1237.319559	-3.001700	3.532200	-10.601000	25.625865	0.000801	20.745776
1238.318004	-3.022400	3.530300	-10.669000	25.644123	0.000800	20.750837
1239.318202	-2.991500	3.531100	-10.562000	25.652571	0.000798	20.751262
1240.320828	-2.993800	3.531000	-10.571000	25.661012	0.000799	20.755947
1241.320167	-2.998300	3.531800	-10.588000	25.668664	0.000799	20.750355
1242.320105	-3.015300	3.528300	-10.638000	25.674459	0.000798	20.716345
1243.322320	-2.995000	3.530200	-10.571000	25.659018	0.000797	20.736874
1244.321020	-2.986500	3.530500	-10.543000	25.684145	0.000796	20.739351
1245.322634	-2.993600	3.529100	-10.563000	25.666344	0.000796	20.741387
1246.324096	-3.005200	3.528300	-10.601000	25.647803	0.000793	20.734618
1247.322400	-3.026500	3.527700	-10.675000	25.627649	0.000794	20.734765
1248.325665	-2.978500	3.528600	-10.509000	25.577678	0.000793	20.738632
1249.323293	-2.996000	3.528000	-10.568000	25.554372	0.000794	20.739409
1250.323702	-3.009200	3.526900	-10.612000	25.564043	0.000794	20.732999
1251.327981	-2.998800	3.528300	-10.579000	25.556847	0.000792	20.745688
1252.324709	-3.002600	3.527200	-10.589000	25.574544	0.000792	20.756348
1253.328131	-3.025500	3.525600	-10.666000	25.576083	0.000791	20.733236
1254.327225	-2.990500	3.525900	-10.542000	25.593942	0.000791	20.726516
1255.333593	-2.990100	3.525400	-10.540000	25.573022	0.000791	20.741543
1256.331267	-2.995700	3.525800	-10.561000	25.580373	0.000791	20.724268
1257.331589	-3.018300	3.524100	-10.636000	25.597785	0.000788	20.748394
1258.329338	-2.984600	3.526100	-10.523000	25.574756	0.000789	20.751820
1259.328081	-3.017800	3.524800	-10.636000	25.592672	0.000787	20.753218
1260.328121	-3.015400	3.523500	-10.623000	25.568708	0.000787	20.734840
1261.326744	-3.015700	3.522900	-10.623000	25.591842	0.000786	20.737210
1262.330502	-2.995400	3.523500	-10.553000	25.571167	0.000786	20.746318
1263.328868	-2.994000	3.522700	-10.546000	25.554960	0.000786	20.757069
1264.331179	-2.995500	3.523000	-10.551000	25.572274	0.000786	20.716609
1265.328458	-2.996800	3.522200	-10.554000	25.602514	0.000787	20.747455
1266.332296	-2.989000	3.522300	-10.527000	25.631411	0.000783	20.747079
1267.333283	-2.993500	3.520800	-10.538000	25.628302	0.000783	20.745378
1268.330043	-2.997000	3.521600	-10.554000	25.608945	0.000782	20.734947
1269.328211	-3.002200	3.518800	-10.563000	25.637841	0.000784	20.733148
1270.331072	-3.016100	3.519400	-10.614000	25.630874	0.000783	20.730418
1271.329142	-3.000100	3.520200	-10.559000	25.648741	0.000782	20.734612
1272.329443	-2.993000	3.519300	-10.532000	25.655773	0.000783	20.745943
1273.333099	-3.003800	3.519600	-10.570000	25.698806	0.000781	20.741749
1274.329110	-2.979100	3.520300	-10.486000	25.696186	0.000780	20.736746
1275.331749	-2.997100	3.518300	-10.544000	25.688982	0.000780	20.718130
1276.333041	-2.992400	3.519400	-10.530000	25.651289	0.000779	20.735749
1277.330316	-3.027200	3.516900	-10.646000	25.662196	0.000778	20.731530
1278.332230	-2.979200	3.518700	-10.481000	25.674137	0.000779	20.738782
1279.330230	-3.005400	3.516100	-10.567000	25.678320	0.000776	20.724965
1280.333073	-2.990100	3.517100	-10.515000	25.671850	0.000776	20.714198
1281.330663	-2.994300	3.516800	-10.529000	25.656075	0.000775	20.729650
1282.331218	-2.980400	3.517400	-10.483000	25.678907	0.000774	20.740728
1283.333205	-3.000700	3.515000	-10.546000	25.648538	0.000776	20.726348
1284.330654	-3.004000	3.513200	-10.552000	25.668024	0.000775	20.726004
1285.334663	-3.014600	3.516300	-10.599000	25.666364	0.000774	20.710585
1286.331425	-3.006900	3.514100	-10.564000	25.680941	0.000775	20.730918
1287.332545	-3.002200	3.515600	-10.554000	25.649385	0.000775	20.727198
1288.332545	-3.028800	3.514100	-10.641000	25.634669	0.000773	20.729013
1289.336444	-3.021400	3.513000	-10.613000	25.614515	0.000772	20.718254
1290.333819	-3.002800	3.513300	-10.549000	25.584600	0.000773	20.725195
1291.332657	-2.995400	3.512800	-10.521000	25.570485	0.000773	20.722873
1292.334200	-2.978000	3.514000	-10.464000	25.538722	0.000770	20.739339
1293.333364	-3.001300	3.511800	-10.539000	25.512030	0.000771	20.703048
1294.338850	-2.990600	3.512000	-10.502000	25.525925	0.000771	20.723642
1295.334166	-2.995300	3.512100	-10.518000	25.543338	0.000771	20.727853
1296.338796	-3.017200	3.510500	-10.591000	25.569526	0.000770	20.720487
1297.334574	-2.978800	3.512100	-10.461000	25.588883	0.000769	20.720012
1298.337112	-3.002300	3.510800	-10.539000	25.616404	0.000769	20.718255
1299.337911	-2.990600	3.511100	-10.498000	25.661653	0.000766	20.714388
1300.344260	-2.995700	3.510500	-10.515000	25.629127	0.000768	20.720127
1301.338394	-2.996100	3.508700	-10.512000	25.616551	0.000768	20.718402
1302.337512	-3.002200	3.508900	-10.534000	25.632375	0.000765	20.727657
1303.336293	-3.016700	3.507700	-10.581000	25.626066	0.000767	20.733176
1304.337262	-2.998500	3.509500	-10.522000	25.668173	0.000766	20.721411
1305.340389	-2.996600	3.508200	-10.512000	25.635346	0.000764	20.725900
1306.342791	-2.996200	3.508200	-10.510000	25.614525	0.000764	20.694554
1307.339596	-2.996600	3.508000	-10.511000	25.610292	0.000764	20.716384
1308.339480	-2.992000	3.508100	-10.495000	25.619531	0.000765	20.705273
1309.339381	-2.993300	3.506200	-10.493000	25.628151	0.000762	20.711561
1310.341588	-2.984200	3.507800	-10.467000	25.661174	0.000764	20.705372
1311.341867	-3.023800	3.505700	-10.598000	25.650186	0.000762	20.691015
1312.342756	-3.006300	3.505000	-10.536000	25.677982	0.000761	20.718462
1313.340594	-3.023900	3.503800	-10.594000	25.688214	0.000762	20.700761
1314.340673	-3.010000	3.505000	-10.549000	25.704394	0.000763	20.717489
1315.342211	-2.997600	3.504000	-10.502000	25.697126	0.000759	20.691695
1316.343406	-2.978500	3.503800	-10.435000	25.691975	0.000761	20.709756
1317.339865	-3.017800	3.500800	-10.564000	25.689524	0.000760	20.714407
1318.340585	-2.996800	3.503200	-10.498000	25.676697	0.000760	20.712903
1319.341886	-2.993800	3.502500	-10.484000	25.692821	0.000759	20.709183
1320.342556	-2.984400	3.502200	-10.451000	25.695426	0.000759	20.720809
1321.343985	-2.980500	3.502500	-10.438000	25.712925	0.000758	20.706142
1322.342561	-3.006900	3.501900	-10.529000	25.733891	0.000755	20.699225
1323.347369	-2.993400	3.501700	-10.481000	25.750210	0.000758	20.706608
1324.342990	-2.985500	3.501700	-10.453000	25.779379	0.000755	20.717416
1325.342764	-2.967300	3.501900	-10.391000	25.775008	0.000754	20.696429
1326.344965	-3.001700	3.499700	-10.504000	25.772721	0.000752	20.712625
1327.343369	-2.991200	3.502200	-10.474000	25.801459	0.000754	20.698343
1328.343584	-2.996500	3.500600	-10.488000	25.822399	0.000755	20.715585
1329.344073	-2.997000	3.499500	-10.486000	25.821935	0.000753	20.704687
1330.344004	-2.990600	3.499700	-10.465000	25.837682	0.000754	20.702962
1331.343844	-3.015300	3.498900	-10.549000	25.798798	0.000751	20.698040
1332.349061	-3.002500	3.497600	-10.501000	25.812787	0.000753	20.696920
1333.343884	-3.007500	3.497600	-10.518000	25.815766	0.000749	20.699438
1334.344465	-2.979400	3.498500	-10.422000	25.808490	0.000751	20.715839
1335.344578	-3.003500	3.496500	-10.500000	25.800840	0.000751	20.685392
1336.345028	-3.020500	3.495800	-10.557000	25.775847	0.000751	20.700591
1337.346917	-2.993500	3.497700	-10.470000	25.764681	0.000749	20.703126
1338.345869	-2.998600	3.495700	-10.481000	25.745156	0.000750	20.698212
1339.348239	-2.984000	3.496600	-10.431000	25.757926	0.000749	20.708195
1340.349306	-3.001500	3.495000	-10.489000	25.750381	0.000749	20.693028
1341.345733	-2.993300	3.496700	-10.466000	25.712486	0.000746	20.705701
1342.346729	-3.000900	3.493300	-10.482000	25.695272	0.000747	20.707851
1343.346801	-3.002200	3.494100	-10.489000	25.637278	0.000747	20.707450
1344.347200	-3.009600	3.493000	-10.512000	25.605053	0.000746	20.711121
1345.347521	-3.003900	3.495000	-10.495000	25.586273	0.000745	20.692734
1346.347749	-2.990400	3.494000	-10.447000	25.597922	0.000747	20.715340
1347.350892	-2.994200	3.492900	-10.457000	25.596750	0.000744	20.708947
1348.347126	-2.979500	3.491600	-10.403000	25.623888	0.000743	20.709650
1349.352525	-2.977300	3.492400	-10.397000	25.626298	0.000743	20.697370
1350.346863	-2.993500	3.492600	-10.453000	25.592924	0.000744	20.707001
1351.347349	-2.990700	3.491300	-10.441000	25.604182	0.000741	20.679424
1352.348232	-3.015800	3.490500	-10.525000	25.623448	0.000742	20.683127
1353.351950	-3.008200	3.490400	-10.498000	25.625158	0.000740	20.687689
1354.348445	-2.971400	3.490800	-10.371000	25.601902	0.000742	20.677608
1355.348641	-2.998200	3.489500	-10.462000	25.600535	0.000739	20.689987
1356.348430	-3.001300	3.488600	-10.469000	25.628333	0.000740	20.716959
1357.349317	-2.989100	3.488600	-10.427000	25.654949	0.000739	20.696274
1358.353195	-2.987900	3.488500	-10.422000	25.663373	0.000738	20.707107
1359.349429	-3.008900	3.487600	-10.493000	25.722432	0.000738	20.701940
1360.350246	-2.988700	3.489300	-10.427000	25.706105	0.000738	20.714465
1361.350634	-3.002300	3.487800	-10.471000	25.695418	0.000736	20.687134
1362.350874	-2.979100	3.487100	-10.388000	25.647395	0.000738	20.688687
1363.350754	-2.993500	3.488400	-10.442000	25.623612	0.000736	20.688507
1364.350579	-3.004900	3.486400	-10.474000	25.600486	0.000734	20.692309
1365.352190	-2.985800	3.485600	-10.405000	25.567853	0.000738	20.696045
1366.352434	-2.959100	3.486800	-10.316000	25.565475	0.000736	20.709306
1367.353951	-3.012800	3.484900	-10.498000	25.590539	0.000736	20.698915
1368.354720	-3.015200	3.485000	-10.507000	25.599534	0.000733	20.693249
1369.353360	-3.002000	3.484600	-10.459000	25.637156	0.000734	20.695947
1370.355629	-2.985200	3.485300	-10.404000	25.654575	0.000734	20.693053
1371.354259	-2.985200	3.485200	-10.402000	25.651547	0.000730	20.697598
1372.352702	-3.013400	3.482600	-10.493000	25.670601	0.000733	20.682596
1373.356785	-3.016100	3.483800	-10.506000	25.688369	0.000733	20.680053
1374.354024	-3.023200	3.481800	-10.524000	25.680938	0.000730	20.694402
1375.360781	-3.005500	3.482500	-10.465000	25.668664	0.000732	20.690134
1376.356517	-2.991300	3.481300	-10.413000	25.668591	0.000731	20.701441
1377.356111	-2.976700	3.482200	-10.365000	25.670455	0.000728	20.699045
1378.358118	-2.986500	3.481400	-10.397000	25.672832	0.000729	20.691475
1379.358924	-3.002000	3.480300	-10.446000	25.664716	0.000730	20.684272
1380.356174	-3.006800	3.480900	-10.464000	25.701978	0.000729	20.702733
1381.355146	-2.997300	3.480900	-10.431000	25.683217	0.000726	20.695269
1382.356288	-2.994300	3.479900	-10.419000	25.670154	0.000729	20.709175
1383.355593	-3.009900	3.478600	-10.469000	25.688785	0.000727	20.692800
1384.360384	-2.995300	3.479700	-10.421000	25.718151	0.000726	20.697640
1385.356569	-3.014400	3.477600	-10.482000	25.703517	0.000724	20.688630
1386.362002	-3.016300	3.477300	-10.486000	25.736586	0.000725	20.691974
1387.360322	-2.982500	3.478200	-10.372000	25.754548	0.000725	20.706698
1388.357571	-2.980200	3.477900	-10.362000	25.771021	0.000726	20.682940
1389.363480	-2.998200	3.476500	-10.422000	25.764681	0.000725	20.694116
1390.358822	-3.000500	3.476900	-10.432000	25.787542	0.000723	20.681991
1391.357952	-3.001100	3.475600	-10.430000	25.789927	0.000723	20.688655
1392.360148	-3.010200	3.476500	-10.464000	25.816328	0.000723	20.688148
1393.360724	-3.017300	3.474300	-10.482000	25.844974	0.000723	20.675197
1394.359621	-3.006300	3.477100	-10.452000	25.843615	0.000722	20.685687
1395.364105	-3.003300	3.474800	-10.434000	25.846366	0.000722	20.707892
1396.361136	-2.978200	3.473700	-10.344000	25.860697	0.000722	20.710909
1397.360382	-2.996600	3.474400	-10.411000	25.846667	0.000719	20.688753
1398.361345	-3.010300	3.472400	-10.453000	25.826737	0.000719	20.716150
1399.360177	-2.987200	3.474300	-10.376000	25.801598	0.000718	20.693266
1400.364078	-2.996700	3.472100	-10.404000	25.810794	0.000719	20.703453
1401.360874	-2.990000	3.473300	-10.384000	25.801199	0.000718	20.704246
1402.360661	-3.001700	3.472700	-10.422000	25.771387	0.000719	20.690895
1403.361551	-3.006600	3.472000	-10.438000	25.783286	0.000718	20.702374
1404.362025	-2.974500	3.472000	-10.327000	25.838611	0.000717	20.689195
1405.362085	-2.982600	3.470300	-10.349000	25.829894	0.000717	20.705096
1406.361350	-2.999800	3.470600	-10.410000	25.791913	0.000717	20.695866
1407.361494	-2.993200	3.471100	-10.389000	25.810216	0.000717	20.697656
1408.361362	-2.996300	3.468600	-10.391000	25.830017	0.000714	20.700951
1409.363207	-2.983600	3.469500	-10.350000	25.782993	0.000713	20.728634
1410.361764	-2.992500	3.469500	-10.380000	25.791140	0.000714	20.713108
1411.366358	-3.015400	3.467400	-10.454000	25.763761	0.000714	20.702202
1412.363575	-2.996600	3.468400	-10.393000	25.752921	0.000713	20.713599
1413.366126	-3.013800	3.467100	-10.447000	25.719559	0.000713	20.699054
1414.364544	-3.011000	3.466400	-10.436000	25.722668	0.000712	20.704074
1415.365197	-3.014600	3.466500	-10.449000	25.756607	0.000712	20.712561
1416.370582	-2.994600	3.466400	-10.379000	25.750544	0.000712	20.701254
1417.366117	-3.003100	3.467100	-10.410000	25.772014	0.000712	20.696740
1418.367929	-2.989600	3.467200	-10.365000	25.788307	0.000710	20.718324
1419.369643	-3.003100	3.464100	-10.402000	25.769027	0.000709	20.704172
1420.365350	-3.021600	3.464900	-10.469000	25.799189	0.000710	20.697485
1421.364903	-3.019400	3.463900	-10.457000	25.785199	0.000708	20.701924
1422.368161	-2.994700	3.463800	-10.372000	25.807132	0.000707	20.716371
1423.365864	-3.002000	3.463200	-10.395000	25.829723	0.000708	20.703028
1424.365316	-2.992900	3.464600	-10.368000	25.843387	0.000705	20.718177
1425.367677	-2.976600	3.464600	-10.311000	25.842688	0.000706	20.682384
1426.370348	-2.982500	3.462600	-10.326000	25.826818	0.000706	20.704851
1427.371600	-3.014500	3.460700	-10.431000	25.781097	0.000705	20.727203
1428.367632	-2.987100	3.464000	-10.345000	25.770801	0.000704	20.705954
1429.368583	-3.010600	3.460900	-10.418000	25.761856	0.000704	20.706927
1430.367976	-2.992300	3.461100	-10.355000	25.776294	0.000705	20.716215
1431.376586	-3.010200	3.461000	-10.417000	25.727690	0.000706	20.707222
1432.369527	-2.992100	3.460800	-10.353000	25.715441	0.000703	20.695866
1433.368602	-2.988400	3.460400	-10.339000	25.702328	0.000704	20.693601
1434.368381	-3.010600	3.459000	-10.411000	25.691096	0.000704	20.735901
1435.369689	-3.018500	3.459000	-10.439000	25.736740	0.000704	20.712993
1436.372408	-3.005900	3.457300	-10.391000	25.720829	0.000703	20.707917
1437.370039	-3.009600	3.458700	-10.408000	25.759513	0.000701	20.722118
1438.372294	-2.995400	3.457100	-10.353000	25.790032	0.000701	20.707728
1439.371164	-2.974300	3.458600	-10.286000	25.793564	0.000702	20.711276
1440.369843	-2.993200	3.457500	-10.349000	25.763321	0.000700	20.726892
1441.380006	-2.997300	3.456900	-10.360000	25.771468	0.000699	20.728912
1442.372761	-2.998900	3.456800	-10.366000	25.771290	0.000699	20.729680
1443.371420	-3.009100	3.455300	-10.397000	25.760677	0.000699	20.750315
1444.369730	-3.005200	3.454600	-10.381000	25.801996	0.000696	20.733972
1445.372017	-3.002800	3.455500	-10.374000	25.832971	0.000698	20.716722
1446.371513	-2.999100	3.455900	-10.363000	25.824206	0.000697	20.724988
1447.374215	-3.004400	3.455100	-10.378000	25.849613	0.000696	20.734864
1448.374024	-3.016900	3.454200	-10.419000	25.891345	0.000695	20.721783
1449.379905	-3.025000	3.453200	-10.444000	25.895519	0.000697	20.732387
1450.374605	-3.029300	3.453600	-10.461000	25.923562	0.000696	20.735183
1451.376584	-3.010300	3.452400	-10.393000	25.900077	0.000696	20.733875
1452.379661	-3.016500	3.452900	-10.415000	25.895170	0.000694	20.723729
1453.376673	-3.027000	3.452800	-10.450000	25.889994	0.000694	20.725168
1454.376648	-3.012800	3.451400	-10.398000	25.858501	0.000692	20.746637
1455.376515	-3.000600	3.450300	-10.352000	25.819609	0.000692	20.722741
1456.376137	-3.003300	3.451400	-10.364000	25.776092	0.000693	20.721228
1457.377465	-2.984100	3.452900	-10.302000	25.767759	0.000692	20.753162
1458.388538	-2.976300	3.450500	-10.268000	25.762566	0.000692	20.741307
1459.379368	-3.006400	3.448800	-10.367000	25.758041	0.000691	20.729649
1460.379232	-3.027200	3.448900	-10.440000	25.779283	0.000691	20.739607
1461.379084	-3.019600	3.448800	-10.413000	25.770689	0.000691	20.732396
1462.379075	-3.005300	3.448500	-10.362000	25.760345	0.000687	20.740498
1463.383132	-2.994900	3.447600	-10.325000	25.737296	0.000689	20.752908
1464.378060	-3.021400	3.446400	-10.410000	25.761769	0.000691	20.729600
1465.380382	-3.012100	3.447000	-10.382000	25.756552	0.000691	20.729101
1466.378684	-3.020100	3.447000	-10.409000	25.764862	0.000687	20.753097
1467.377966	-2.999900	3.445600	-10.336000	25.793559	0.000688	20.731661
1468.380835	-3.007300	3.446600	-10.364000	25.839996	0.000688	20.721883
1469.379451	-2.983700	3.445700	-10.281000	25.867364	0.000687	20.730410
1470.380208	-3.023200	3.445100	-10.414000	25.905131	0.000686	20.724728
1471.379400	-2.990600	3.445900	-10.303000	25.894740	0.000686	20.758861
1472.379213	-2.992000	3.445100	-10.305000	25.951353	0.000686	20.726118
1473.378468	-2.995700	3.445800	-10.321000	25.962728	0.000685	20.735651
1474.380585	-2.999400	3.443500	-10.326000	25.964526	0.000686	20.753579
1475.379160	-2.987500	3.444400	-10.289000	25.985040	0.000686	20.731514
1476.380382	-2.988000	3.443900	-10.289000	25.995521	0.000685	20.727344
1477.379862	-3.002000	3.444000	-10.338000	25.988116	0.000682	20.743139
1478.383722	-2.985500	3.444200	-10.280000	25.992347	0.000682	20.754029
1479.385261	-2.982600	3.442700	-10.267000	25.966536	0.000684	20.759866
1480.386644	-2.995600	3.442900	-10.312000	25.971354	0.000683	20.751429
1481.381989	-2.996200	3.441700	-10.311000	25.951930	0.000683	20.742820
1482.384785	-3.026100	3.439800	-10.408000	25.936607	0.000682	20.763937
1483.384278	-2.989200	3.440000	-10.281000	25.961565	0.000682	20.761983
1484.385663	-3.006500	3.441000	-10.344000	25.954209	0.000680	20.747481
1485.384765	-3.011600	3.440300	-10.360000	25.946738	0.000680	20.745191
1486.384363	-3.000200	3.440300	-10.320000	25.929544	0.000678	20.754470
1487.384312	-2.989000	3.440700	-10.283000	25.919608	0.000678	20.749704
1488.383029	-2.998500	3.438500	-10.309000	25.913644	0.000679	20.760308
1489.389366	-2.977700	3.439100	-10.239000	25.903138	0.000681	20.739321
1490.389059	-3.003700	3.439500	-10.329000	25.911902	0.000677	20.752394
1491.390485	-3.003600	3.438800	-10.328000	25.905774	0.000675	20.755721
1492.387405	-3.009900	3.436700	-10.343000	25.878920	0.000678	20.766676
1493.387949	-3.006400	3.436500	-10.330000	25.864638	0.000675	20.769872
1494.392408	-3.005300	3.436500	-10.326000	25.879913	0.000679	20.762458
1495.389274	-3.017900	3.434700	-10.364000	25.873574	0.000676	20.748977
1496.389166	-2.997600	3.436600	-10.301000	25.881280	0.000675	20.770469
1497.389385	-3.013300	3.435800	-10.352000	25.896408	0.000675	20.757691
1498.389470	-3.046700	3.432700	-10.457000	25.885479	0.000674	20.767101
1499.389051	-3.017800	3.433800	-10.362000	25.882273	0.000674	20.746336
1500.393842	-3.021800	3.433500	-10.374000	25.869708	0.000674	20.757896
1501.392693	-3.028700	3.432100	-10.394000	25.889629	0.000671	20.773167
1502.391593	-3.005200	3.433700	-10.317000	25.903317	0.000674	20.756097
1503.392610	-2.991900	3.434800	-10.275000	25.898751	0.000672	20.766684
1504.399441	-3.024700	3.432000	-10.380000	25.896888	0.000672	20.769079
1505.393797	-2.998600	3.432600	-10.292000	25.874134	0.000671	20.762817
1506.399128	-2.979800	3.431700	-10.223000	25.843454	0.000669	20.778938
1507.394058	-3.003100	3.431800	-10.306000	25.804594	0.000669	20.763136
1508.393253	-3.033100	3.429500	-10.400000	25.845758	0.000667	20.796900
1509.394738	-2.984700	3.432800	-10.244000	25.864768	0.000669	20.765261
1510.400752	-2.997200	3.429800	-10.279000	25.872799	0.000668	20.786132
1511.404033	-3.004900	3.430600	-10.307000	25.894381	0.000671	20.751862
1512.395763	-3.003700	3.430000	-10.301000	25.896993	0.000669	20.777720
1513.394119	-2.993100	3.429700	-10.264000	25.900940	0.000668	20.790220
1514.394352	-3.012900	3.428500	-10.328000	25.924857	0.000667	20.762089
1515.399517	-2.982400	3.430000	-10.228000	25.965226	0.000666	20.772300
1516.395516	-3.005800	3.427000	-10.300000	25.958269	0.000665	20.770526
1517.395341	-2.987600	3.428000	-10.240000	25.998206	0.000667	20.752328
1518.401698	-2.979500	3.428300	-10.213000	26.002453	0.000665	20.800219
1519.395498	-2.988600	3.428200	-10.245000	25.984617	0.000665	20.762858
1520.396399	-2.970700	3.428400	-10.184000	25.986407	0.000665	20.771769
1521.401396	-3.009800	3.426000	-10.309000	25.967204	0.000664	20.779977
1522.401594	-2.989000	3.425300	-10.238000	25.935607	0.000662	20.762458
1523.400503	-2.982900	3.425600	-10.217000	25.929065	0.000664	20.773429
1524.394754	-2.985900	3.426200	-10.230000	25.961068	0.000663	20.779029
1525.395115	-3.026200	3.425300	-10.365000	25.949538	0.000661	20.776928
1526.399416	-3.007800	3.423900	-10.297000	25.955218	0.000663	20.774100
1527.401964	-3.000400	3.423900	-10.272000	25.941084	0.000661	20.790246
1528.397005	-2.984300	3.423600	-10.216000	25.966024	0.000662	20.798233
1529.396112	-3.000000	3.423800	-10.270000	25.968254	0.000661	20.783404
1530.397552	-3.014100	3.422300	-10.315000	25.952858	0.000659	20.762246
1531.397615	-3.009200	3.421300	-10.295000	25.938545	0.000660	20.799075
1532.399700	-2.994100	3.423500	-10.249000	25.944282	0.000660	20.780657
1533.400530	-3.015000	3.421600	-10.315000	25.912660	0.000658	20.769277
1534.400272	-2.980600	3.422000	-10.199000	25.931466	0.000658	20.800972
1535.400165	-3.004300	3.421000	-10.276000	25.942338	0.000657	20.772065
1536.400049	-2.997700	3.420900	-10.254000	25.934314	0.000658	20.776332
1537.401385	-3.010400	3.421200	-10.298000	25.922490	0.000657	20.773463
1538.403433	-2.977600	3.420300	-10.184000	25.927780	0.000655	20.783044
1539.400980	-3.033800	3.418700	-10.371000	25.906020	0.000656	20.799117
1540.399950	-3.023000	3.419800	-10.337000	25.869278	0.000654	20.787811
1541.401464	-3.018600	3.417800	-10.316000	25.871574	0.000655	20.785849
1542.405245	-3.008300	3.417500	-10.280000	25.874543	0.000653	20.795471
1543.401200	-3.012900	3.418300	-10.297000	25.898607	0.000654	20.781712
1544.403287	-3.017300	3.416200	-10.306000	25.893619	0.000652	20.789503
1545.408790	-2.986800	3.418000	-10.207000	25.899250	0.000653	20.813178
1546.407267	-2.981800	3.418000	-10.191000	25.870711	0.000652	20.792095
1547.414325	-3.004000	3.416200	-10.261000	25.878605	0.000652	20.790542
1548.409257	-2.990900	3.417600	-10.221000	25.908739	0.000652	20.791891
1549.413371	-2.998300	3.416400	-10.243000	25.929562	0.000653	20.803801
1550.407158	-2.990500	3.417700	-10.219000	25.941794	0.000652	20.804710
1551.408719	-3.017300	3.415000	-10.303000	25.965416	0.000649	20.784820
1552.411337	-3.017100	3.415500	-10.304000	25.927659	0.000649	20.804734
1553.411429	-2.977700	3.415200	-10.168000	25.926593	0.000650	20.808879
1554.407974	-3.032800	3.412700	-10.348000	25.937766	0.000648	20.797344
1555.409673	-3.002800	3.414000	-10.250000	25.939979	0.000649	20.791981
1556.408208	-2.994100	3.414200	-10.222000	25.960892	0.000647	20.799241
1557.408795	-2.996500	3.414700	-10.232000	25.948719	0.000646	20.809770
1558.409060	-2.987400	3.412900	-10.194000	25.931452	0.000647	20.814234
1559.407349	-3.011800	3.411400	-10.274000	25.927952	0.000647	20.811193
1560.410361	-3.000200	3.412400	-10.237000	25.933958	0.000646	20.804424
1561.409416	-2.997800	3.412100	-10.227000	25.951795	0.000647	20.811912
1562.410032	-2.986200	3.412200	-10.189000	25.953365	0.000644	20.808274
1563.410465	-2.962500	3.412800	-10.109000	25.954211	0.000645	20.830935
1564.409226	-3.000000	3.409700	-10.228000	25.975743	0.000643	20.789979
1565.410267	-3.005800	3.410000	-10.249000	26.019675	0.000645	20.804245
1566.410352	-2.987800	3.411500	-10.192000	26.014760	0.000644	20.805945
1567.411260	-3.019700	3.408500	-10.291000	26.046704	0.000641	20.823341
1568.412553	-3.021800	3.409200	-10.300000	26.065776	0.000642	20.814529
1569.414440	-3.001400	3.408800	-10.230000	26.076817	0.000641	20.830363
1570.412106	-3.010200	3.407300	-10.256000	26.130630	0.000641	20.806198
1571.417979	-3.004900	3.408500	-10.241000	26.137285	0.000639	20.819049
1572.413230	-2.990000	3.407900	-10.189000	26.137683	0.000641	20.803329
1573.412657	-3.007800	3.406200	-10.244000	26.082130	0.000640	20.820054
1574.414066	-3.012500	3.406900	-10.262000	26.091600	0.000640	20.820561
1575.419389	-3.001800	3.405800	-10.222000	26.082284	0.000638	20.824951
1576.423970	-3.015000	3.405800	-10.267000	26.047908	0.000638	20.834033
1577.415228	-3.004900	3.405100	-10.231000	26.028234	0.000637	20.831335
1578.414642	-2.980300	3.405500	-10.148000	25.989535	0.000637	20.826594
1579.427494	-2.994000	3.405700	-10.196000	25.933323	0.000637	20.820381
1580.419896	-3.035000	3.402800	-10.326000	25.914826	0.000635	20.831670
1581.414923	-2.985200	3.405500	-10.164000	25.933257	0.000635	20.824108
1582.420864	-2.983900	3.403600	-10.155000	25.942192	0.000635	20.822179
1583.419292	-3.003100	3.403600	-10.221000	25.954821	0.000634	20.802150
1584.417163	-2.991800	3.402300	-10.178000	25.943844	0.000633	20.806769
1585.425065	-2.987900	3.403900	-10.169000	25.923915	0.000636	20.814249
1586.419429	-2.995500	3.402000	-10.190000	25.908145	0.000634	20.814527
1587.426569	-2.985400	3.401600	-10.155000	25.876774	0.000635	20.823789
1588.418282	-2.983200	3.402400	-10.149000	25.881266	0.000632	20.818345
1589.419154	-3.000400	3.400300	-10.201000	25.892073	0.000631	20.819244
1590.428674	-2.978800	3.401400	-10.130000	25.979541	0.000634	20.818925
1591.419098	-2.991200	3.400800	-10.171000	25.988907	0.000630	20.830231
1592.417634	-2.995000	3.401100	-10.185000	26.034367	0.000630	20.834179
1593.418310	-3.007900	3.399100	-10.223000	26.049933	0.000630	20.834171
1594.425646	-3.001000	3.398700	-10.198000	26.055474	0.000630	20.829307
1595.419235	-2.980100	3.400700	-10.134000	26.079216	0.000630	20.820446
1596.428641	-3.013800	3.397800	-10.239000	26.062154	0.000628	20.830329
1597.420838	-2.987700	3.399400	-10.155000	26.046385	0.000628	20.821124
1598.424341	-3.002800	3.397600	-10.201000	26.040079	0.000628	20.831857
1599.421412	-2.962000	3.399300	-10.066000	26.031039	0.000626	20.818982
1600.421030	-3.004300	3.397200	-10.205000	26.006337	0.000627	20.841104
1601.426291	-3.004300	3.396700	-10.203000	25.958971	0.000626	20.838087
1602.424195	-2.981200	3.398000	-10.129000	25.978378	0.000625	20.822023
1603.420621	-2.978500	3.396600	-10.116000	25.994497	0.000627	20.823993
1604.420416	-3.000500	3.396600	-10.191000	26.037426	0.000623	20.831088
1605.420617	-3.021800	3.395500	-10.259000	26.035181	0.000625	20.830255
1606.422327	-2.998600	3.395600	-10.180000	26.071047	0.000625	20.823617
1607.424498	-3.011400	3.394500	-10.221000	26.101127	0.000622	20.833926
1608.420528	-2.982300	3.395000	-10.124000	26.114616	0.000625	20.833729
1609.427444	-3.016700	3.393400	-10.237000	26.092657	0.000622	20.837269
1610.425477	-3.004800	3.393200	-10.195000	26.056166	0.000620	20.832847
1611.425059	-2.997200	3.394400	-10.172000	26.043529	0.000622	20.832953
1612.427553	-3.013100	3.394400	-10.225000	26.043855	0.000623	20.839918
1613.427829	-2.996000	3.392200	-10.162000	26.032081	0.000621	20.827140
1614.428450	-2.991300	3.393400	-10.150000	26.046637	0.000620	20.806678
1615.424356	-2.989200	3.392000	-10.138000	26.072568	0.000620	20.811870
1616.429549	-2.979900	3.391700	-10.106000	26.100435	0.000618	20.832282
1617.427258	-2.982000	3.392500	-10.116000	26.090427	0.000620	20.811322
1618.427958	-2.989700	3.390800	-10.136000	26.047987	0.000619	20.827001
1619.425930	-3.011000	3.391200	-10.210000	26.031519	0.000618	20.803343
1620.426707	-3.025600	3.390400	-10.257000	25.974341	0.000618	20.815597
1621.429371	-2.999500	3.389800	-10.165000	25.982885	0.000617	20.819913
1622.431936	-2.984600	3.390700	-10.119000	25.975952	0.000618	20.834285
1623.426817	-2.987200	3.391600	-10.130000	26.015945	0.000614	20.807610
1624.425056	-3.010000	3.389100	-10.200000	25.998012	0.000617	20.826576
1625.431859	-2.997100	3.388100	-10.154000	26.022129	0.000616	20.813823
1626.430964	-2.981100	3.389500	-10.104000	25.974446	0.000617	20.810013
1627.424993	-3.013800	3.387100	-10.208000	25.990859	0.000613	20.796157
1628.435842	-2.992900	3.388000	-10.139000	26.009639	0.000612	20.828300
1629.431176	-2.996500	3.387900	-10.151000	26.033764	0.000614	20.812236
1630.429937	-2.989500	3.388500	-10.128000	26.035693	0.000614	20.809433
1631.428560	-2.988200	3.386500	-10.118000	26.074398	0.000613	20.808018
1632.428785	-2.979600	3.387500	-10.092000	26.078124	0.000612	20.824564
1633.431096	-3.008400	3.383800	-10.179000	26.126510	0.000611	20.812015
1634.431524	-2.998400	3.386600	-10.154000	26.124793	0.000611	20.800334
1635.427545	-3.008200	3.385200	-10.182000	26.133368	0.000612	20.785716
1636.433315	-3.029200	3.383000	-10.246000	26.089482	0.000611	20.814639
1637.428348	-3.004400	3.384800	-10.168000	26.091516	0.000611	20.806726
1638.430545	-3.018700	3.383300	-10.212000	26.101084	0.000608	20.802589
1639.436037	-3.022700	3.382100	-10.222000	26.059361	0.000607	20.794332
1640.435512	-3.019000	3.383100	-10.213000	26.076968	0.000608	20.788316
1641.431923	-2.989700	3.383400	-10.114000	26.066139	0.000608	20.792608
1642.432075	-3.009000	3.382500	-10.177000	26.069320	0.000610	20.799123
1643.429593	-3.014200	3.381500	-10.191000	26.058816	0.000607	20.798526
1644.428658	-2.996000	3.382000	-10.132000	26.034585	0.000607	20.783189
1645.429387	-3.012600	3.381800	-10.187000	26.044544	0.000605	20.792247
1646.429430	-3.002300	3.381000	-10.150000	26.051972	0.000606	20.809194
1647.431672	-2.986200	3.382000	-10.098000	26.099855	0.000606	20.790449
1648.429040	-2.990800	3.381600	-10.113000	26.093875	0.000604	20.803880
1649.431396	-3.012200	3.379500	-10.179000	26.111684	0.000605	20.786214
1650.432503	-3.003400	3.380400	-10.152000	26.091100	0.000603	20.786867
1651.429183	-2.976200	3.381100	-10.062000	26.126817	0.000604	20.787668
1652.431800	-3.028300	3.378400	-10.230000	26.109756	0.000602	20.806087
1653.430436	-2.996900	3.379600	-10.127000	26.089838	0.000601	20.799350
1654.432878	-3.001600	3.380500	-10.144000	26.045828	0.000601	20.785951
1655.429922	-3.004200	3.378100	-10.147000	26.035935	0.000601	20.786442
1656.433206	-3.003700	3.378900	-10.148000	26.019547	0.000601	20.787047
1657.433174	-3.004500	3.376900	-10.145000	26.019433	0.000599	20.778871
1658.435686	-3.013200	3.378000	-10.177000	26.023445	0.000601	20.774842
1659.430838	-3.000800	3.377900	-10.134000	26.020149	0.000601	20.781962
1660.434371	-3.014900	3.376200	-10.178000	26.005502	0.000601	20.771988
1661.434556	-2.998500	3.378300	-10.129000	26.020954	0.000598	20.769020
1662.431001	-3.010500	3.375700	-10.162000	26.045990	0.000596	20.777105
1663.431305	-3.013000	3.376300	-10.172000	26.064249	0.000597	20.776484
1664.439827	-2.982400	3.375400	-10.066000	26.042744	0.000596	20.772895
1665.437236	-2.986600	3.375500	-10.080000	26.003045	0.000596	20.788485
1666.439682	-2.989500	3.374700	-10.088000	25.988821	0.000596	20.775617
1667.438394	-2.986500	3.374600	-10.077000	25.998064	0.000595	20.779214
1668.437129	-3.025700	3.373000	-10.205000	25.982759	0.000594	20.788967
1669.436641	-2.996600	3.374800	-10.112000	25.982881	0.000594	20.773442
1670.441436	-3.010800	3.372900	-10.154000	26.025014	0.000595	20.786849
1671.434912	-2.995100	3.374300	-10.106000	26.048610	0.000593	20.778314
1672.437911	-3.008300	3.372400	-10.145000	26.074646	0.000592	20.785982
1673.435881	-2.981200	3.374400	-10.059000	26.136464	0.000593	20.779818
1674.440894	-3.003000	3.372400	-10.126000	26.155381	0.000595	20.778911
1675.437470	-2.984300	3.371800	-10.061000	26.172498	0.000592	20.764343
1676.438577	-3.025800	3.370900	-10.199000	26.125212	0.000590	20.776099
1677.441937	-3.006500	3.372100	-10.137000	26.171627	0.000591	20.765365
1678.444026	-3.002100	3.370700	-10.119000	26.162938	0.000592	20.755685
1679.438824	-3.026500	3.369900	-10.198000	26.132494	0.000591	20.776777
1680.440298	-2.995800	3.370600	-10.097000	26.106320	0.000589	20.764702
1681.448390	-3.017900	3.369900	-10.169000	26.099095	0.000588	20.781625
1682.440747	-3.003800	3.368600	-10.118000	26.093506	0.000586	20.775060
1683.442126	-3.001900	3.370400	-10.117000	26.121421	0.000588	20.777504
1684.440658	-3.001800	3.369200	-10.113000	26.092708	0.000587	20.770466
1685.442011	-3.008400	3.368100	-10.132000	26.097997	0.000586	20.781470
1686.441880	-2.986200	3.369200	-10.060000	26.118353	0.000585	20.750239
1687.445506	-3.008400	3.368300	-10.133000	26.157120	0.000587	20.766909
1688.443388	-2.999500	3.367500	-10.099000	26.180039	0.000584	20.770024
1689.443075	-3.001700	3.367900	-10.108000	26.207260	0.000585	20.764661
1690.443750	-3.001000	3.365700	-10.100000	26.221822	0.000583	20.797786
1691.443810	-3.004100	3.364200	-10.106000	26.219690	0.000581	20.756289
1692.445417	-3.017200	3.364600	-10.151000	26.172651	0.000581	20.768764
1693.444208	-3.022800	3.364000	-10.168000	26.146698	0.000583	20.766868
1694.442949	-2.995000	3.365200	-10.078000	26.180306	0.000581	20.771241
1695.450332	-2.989900	3.365500	-10.061000	26.168314	0.000579	20.774838
1696.443818	-2.985100	3.365100	-10.045000	26.167647	0.000580	20.752830
1697.454336	-3.008300	3.364300	-10.120000	26.145542	0.000581	20.765706
1698.455485	-2.990800	3.363800	-10.059000	26.140384	0.000581	20.770006
1699.446285	-3.034700	3.361300	-10.198000	26.132036	0.000579	20.765886
1700.451962	-3.000700	3.363300	-10.092000	26.118474	0.000579	20.751783
1701.444180	-3.006200	3.362000	-10.106000	26.110126	0.000578	20.750034
1702.443856	-2.997300	3.362100	-10.076000	26.140733	0.000578	20.751865
1703.445472	-3.000400	3.362900	-10.089000	26.131638	0.000579	20.759795
1704.447777	-2.998000	3.362000	-10.078000	26.132085	0.000577	20.743649
1705.450178	-2.991400	3.361000	-10.053000	26.158941	0.000578	20.754039
1706.444675	-3.034500	3.360000	-10.195000	26.138699	0.000576	20.750295
1707.444806	-2.997300	3.359300	-10.068000	26.160853	0.000576	20.744580
1708.444655	-2.994500	3.361200	-10.064000	26.134981	0.000577	20.752723
1709.449963	-3.014500	3.360000	-10.128000	26.152392	0.000577	20.759312
1710.447442	-2.992100	3.359700	-10.052000	26.201042	0.000576	20.764103
1711.448063	-3.039400	3.357800	-10.204000	26.173357	0.000574	20.765206
1712.445881	-2.985700	3.360800	-10.033000	26.202043	0.000572	20.754202
1713.448709	-2.995300	3.358800	-10.059000	26.214783	0.000573	20.748512
1714.450038	-3.007100	3.358700	-10.099000	26.243467	0.000572	20.734663
1715.447856	-3.011500	3.356700	-10.108000	26.274242	0.000573	20.740933
1716.453220	-3.001000	3.358100	-10.077000	26.235804	0.000573	20.752567
1717.448486	-3.011400	3.357200	-10.109000	26.251496	0.000571	20.747474
1718.448781	-3.009100	3.356800	-10.101000	26.260290	0.000571	20.756785
1719.451997	-2.961100	3.357600	-9.941400	26.311921	0.000571	20.723797
1720.450003	-3.004800	3.355000	-10.078000	26.306511	0.000569	20.747759
1721.448709	-3.000100	3.354800	-10.064000	26.279049	0.000567	20.741971
1722.451924	-2.988000	3.355600	-10.025000	26.254514	0.000570	20.747187
1723.458314	-3.018900	3.354800	-10.127000	26.213814	0.000568	20.730942
1724.452215	-2.996000	3.354400	-10.049000	26.186666	0.000570	20.743966
1725.454214	-2.973200	3.357000	-9.980100	26.209119	0.000569	20.738553
1726.459683	-3.001400	3.355600	-10.071000	26.238626	0.000568	20.738807
1727.454963	-3.030700	3.352300	-10.158000	26.202668	0.000566	20.735389
1728.459110	-3.004800	3.353600	-10.076000	26.205556	0.000566	20.749197
1729.453039	-3.006300	3.353800	-10.082000	26.229847	0.000566	20.734727
1730.452968	-3.004200	3.352900	-10.072000	26.242018	0.000564	20.740319
1731.460125	-2.989100	3.352800	-10.021000	26.253960	0.000565	20.748527
1732.461720	-3.014900	3.351800	-10.105000	26.219190	0.000564	20.733026
1733.454787	-3.011200	3.351500	-10.091000	26.189594	0.000564	20.731734
1734.453178	-2.999600	3.351300	-10.052000	26.157539	0.000561	20.722757
1735.454156	-3.000900	3.351400	-10.056000	26.113679	0.000563	20.731791
1736.457131	-2.989400	3.350600	-10.016000	26.143611	0.000560	20.749540
1737.457017	-3.008900	3.350400	-10.080000	26.151136	0.000562	20.744300
1738.458167	-2.989400	3.351000	-10.016000	26.188967	0.000561	20.732527
1739.456549	-2.999600	3.350100	-10.048000	26.212161	0.000560	20.741135
1740.457648	-2.996500	3.351700	-10.042000	26.206401	0.000559	20.736295
1741.458291	-3.005600	3.349100	-10.065000	26.224656	0.000558	20.729036
1742.456284	-2.974600	3.349800	-9.963000	26.223070	0.000558	20.740718
1743.457210	-3.007100	3.348500	-10.068000	26.254691	0.000558	20.733139
1744.455608	-2.997600	3.346500	-10.029000	26.270781	0.000556	20.744569
1745.455892	-2.988200	3.349100	-10.006000	26.241414	0.000555	20.733073
1746.460809	-2.997900	3.348300	-10.037000	26.265420	0.000557	20.738232
1747.455740	-3.007000	3.346900	-10.062000	26.289174	0.000556	20.722748
1748.459813	-3.001900	3.346400	-10.045000	26.316661	0.000555	20.716706
1749.456897	-2.997800	3.347600	-10.034000	26.314001	0.000554	20.734897
1750.458974	-3.008300	3.347000	-10.068000	26.331807	0.000555	20.736196
1751.467901	-3.000600	3.346800	-10.041000	26.319988	0.000554	20.728585
1752.462444	-2.983300	3.346400	-9.982400	26.361115	0.000554	20.723450
1753.466341	-2.998100	3.344700	-10.027000	26.354607	0.000553	20.724971
1754.465329	-3.024000	3.344600	-10.113000	26.373178	0.000553	20.743636
1755.466116	-2.979500	3.345100	-9.966100	26.404574	0.000552	20.726353
1756.464254	-3.005600	3.343400	-10.047000	26.434816	0.000552	20.727350
1757.463388	-2.979600	3.343900	-9.962800	26.434840	0.000550	20.733065
1758.464138	-3.029200	3.342100	-10.121000	26.415181	0.000549	20.720891
1759.462385	-2.985000	3.343800	-9.980500	26.407730	0.000551	20.707238
1760.495154	-3.012500	3.341600	-10.065000	26.419427	0.000550	20.707140
1761.463683	-2.992700	3.342700	-10.003000	26.425933	0.000549	20.714154
1762.468194	-2.994300	3.343000	-10.009000	26.388217	0.000548	20.709911
1763.464250	-3.004300	3.341000	-10.037000	26.396432	0.000549	20.725756
1764.464698	-2.964300	3.342400	-9.906900	26.386435	0.000547	20.726614
1765.464075	-2.990100	3.340500	-9.987500	26.371209	0.000546	20.707041
1766.466193	-2.991900	3.341900	-9.997900	26.363603	0.000546	20.739229
1767.466534	-2.991100	3.341700	-9.994100	26.376968	0.000547	20.712830
1768.467946	-3.017100	3.339700	-10.075000	26.386273	0.000546	20.712699
1769.467158	-2.991900	3.339100	-9.989500	26.389519	0.000544	20.719755
1770.469326	-2.998100	3.339900	-10.011000	26.387363	0.000545	20.719011
1771.467583	-2.989000	3.341200	-9.986000	26.408715	0.000545	20.718185
1772.474992	-3.002800	3.338300	-10.024000	26.438809	0.000541	20.705758
1773.470642	-2.978400	3.339800	-9.946400	26.445918	0.000543	20.710058
1774.468715	-2.994000	3.337600	-9.992300	26.444991	0.000543	20.721456
1775.468730	-2.999200	3.337800	-10.010000	26.413758	0.000541	20.717090
1776.469095	-3.016300	3.338100	-10.068000	26.430123	0.000539	20.716468
1777.468865	-2.994100	3.337500	-9.992000	26.427756	0.000540	20.715986
1778.471828	-3.003400	3.336900	-10.020000	26.414481	0.000540	20.714024
1779.474993	-3.000100	3.337000	-10.010000	26.394114	0.000538	20.715839
1780.481653	-3.019000	3.335600	-10.069000	26.341454	0.000538	20.717915
1781.471355	-3.016700	3.336100	-10.063000	26.335606	0.000539	20.702554
1782.470120	-3.036800	3.335300	-10.127000	26.341023	0.000537	20.740717
1783.473720	-2.990800	3.337500	-9.981300	26.312202	0.000536	20.708906
1784.476259	-3.000000	3.335400	-10.004000	26.298106	0.000538	20.690470
1785.471557	-2.994800	3.335200	-9.987500	26.296251	0.000536	20.706151
1786.474658	-3.012100	3.333600	-10.038000	26.310007	0.000535	20.703854
1787.477842	-3.010700	3.334500	-10.038000	26.302832	0.000535	20.699962
1788.472213	-3.004900	3.334300	-10.017000	26.326145	0.000533	20.715332
1789.478478	-3.030600	3.333400	-10.101000	26.297512	0.000534	20.726386
1790.477659	-3.009200	3.332600	-10.027000	26.292427	0.000534	20.718905
1791.471265	-3.022800	3.331400	-10.069000	26.299724	0.000533	20.695416
1792.473323	-3.001600	3.332300	-10.001000	26.275719	0.000530	20.713493
1793.475617	-2.999800	3.332100	-9.994100	26.291557	0.000532	20.708546
1794.474606	-2.986400	3.331100	-9.947100	26.310860	0.000529	20.682425
1795.478139	-3.003200	3.331100	-10.003000	26.311584	0.000533	20.696430
1796.474421	-3.004400	3.331700	-10.009000	26.336492	0.000530	20.694435
1797.474657	-2.993700	3.331100	-9.971400	26.354916	0.000530	20.705366
1798.475270	-2.998800	3.330600	-9.987000	26.350271	0.000532	20.688368
1799.477073	-3.003900	3.329400	-10.000000	26.346627	0.000528	20.701776
1800.477523	-2.981900	3.330200	-9.929000	26.360952	0.000529	20.701948
1801.474634	-2.984900	3.330300	-9.939100	26.367857	0.000528	20.689921
1802.478499	-2.997200	3.327600	-9.972300	26.375218	0.000526	20.689259
1803.475961	-2.981800	3.328300	-9.922900	26.400824	0.000526	20.690812
1804.476431	-3.011600	3.327700	-10.020000	26.365961	0.000525	20.689438
1805.478828	-3.012600	3.328000	-10.025000	26.365636	0.000527	20.693379
1806.480597	-2.969600	3.328700	-9.883300	26.348717	0.000523	20.692970
1807.482496	-3.021600	3.327300	-10.052000	26.388322	0.000524	20.687255
1808.477904	-2.988200	3.326000	-9.938200	26.383311	0.000525	20.708774
1809.479266	-3.016800	3.324900	-10.029000	26.413154	0.000522	20.697990
1810.489599	-2.994500	3.326100	-9.959200	26.419791	0.000524	20.698022
1811.480705	-3.000100	3.324300	-9.971800	26.465298	0.000525	20.700140
1812.479958	-3.022600	3.325300	-10.050000	26.461362	0.000522	20.690492
1813.482011	-2.989200	3.326600	-9.943100	26.456148	0.000523	20.696158
1814.481268	-3.004900	3.323200	-9.982800	26.495529	0.000519	20.689748
1815.480873	-3.026300	3.323800	-10.057000	26.515813	0.000523	20.675996
1816.484570	-2.971500	3.326000	-9.881200	26.542586	0.000519	20.663552
1817.480660	-2.979100	3.323600	-9.900200	26.543701	0.000519	20.678898
1818.483658	-2.995100	3.323900	-9.954700	26.566602	0.000518	20.702869
1819.480422	-2.993600	3.324200	-9.950400	26.598896	0.000516	20.680329
1820.481705	-2.997800	3.321900	-9.957100	26.600368	0.000517	20.691767
1821.484361	-2.991200	3.322900	-9.938800	26.575149	0.000518	20.672578
1822.484077	-3.011500	3.322600	-10.003000	26.535730	0.000516	20.665669
1823.482146	-3.009400	3.321500	-9.994100	26.506662	0.000517	20.666323
1824.483479	-2.992800	3.320800	-9.938000	26.440124	0.000517	20.690957
1825.485183	-2.990300	3.321000	-9.928900	26.431811	0.000514	20.674065
1826.483225	-2.976000	3.321100	-9.882300	26.443832	0.000515	20.689469
1827.484926	-2.983800	3.319600	-9.903700	26.452348	0.000514	20.687596
1828.485170	-2.999300	3.320200	-9.955700	26.439066	0.000514	20.684678
1829.486667	-2.997800	3.319800	-9.951100	26.439416	0.000514	20.685977
1830.483356	-2.988600	3.319400	-9.918800	26.433877	0.000512	20.678513
1831.486406	-3.033200	3.317600	-10.062000	26.416527	0.000512	20.663445
1832.487889	-2.984800	3.319200	-9.905400	26.403993	0.000512	20.684988
1833.484651	-3.006100	3.317800	-9.973300	26.409980	0.000511	20.685315
1834.486668	-2.976600	3.318900	-9.877100	26.406238	0.000511	20.686770
1835.486186	-2.979300	3.318100	-9.884000	26.435031	0.000510	20.674457
1836.487499	-2.987600	3.317900	-9.911900	26.485133	0.000509	20.663175
1837.486847	-3.017000	3.315800	-10.003000	26.488159	0.000510	20.668113
1838.487814	-3.015600	3.316600	-10.001000	26.503636	0.000507	20.682723
1839.487691	-3.009200	3.314800	-9.973700	26.514876	0.000508	20.664148
1840.488481	-2.986800	3.316100	-9.903500	26.542187	0.000506	20.688283
1841.488837	-2.993400	3.314500	-9.920700	26.563413	0.000507	20.674531
1842.493902	-3.007000	3.315000	-9.967400	26.597464	0.000505	20.672250
1843.491303	-2.998100	3.314400	-9.936100	26.612940	0.000506	20.675005
1844.488365	-2.994900	3.313100	-9.921500	26.630513	0.000506	20.682715
1845.491339	-2.967500	3.315600	-9.837200	26.619787	0.000504	20.675251
1846.489172	-2.975000	3.314200	-9.858700	26.570960	0.000506	20.667418
1847.487833	-2.996700	3.313000	-9.926100	26.567943	0.000503	20.670075
1848.490408	-3.003400	3.311600	-9.944200	26.527588	0.000504	20.675504
1849.492739	-2.997400	3.311500	-9.925300	26.545033	0.000504	20.646095
1850.493429	-2.992900	3.312000	-9.910100	26.558363	0.000503	20.664712
1851.490992	-2.978200	3.312600	-9.864100	26.578914	0.000502	20.690115
1852.493444	-3.012700	3.310400	-9.972000	26.613403	0.000500	20.667410
1853.493819	-3.003600	3.310700	-9.943100	26.642265	0.000503	20.668923
1854.495733	-3.016000	3.310200	-9.982400	26.652267	0.000501	20.674711
1855.492623	-3.011500	3.310300	-9.967900	26.633083	0.000501	20.673918
1856.496492	-3.016400	3.308900	-9.979200	26.591779	0.000499	20.676493
1857.493440	-2.956000	3.311800	-9.788600	26.553174	0.000498	20.658547
1858.497410	-2.991900	3.309800	-9.901100	26.546025	0.000500	20.669380
1859.496226	-2.986400	3.310400	-9.885100	26.559631	0.000497	20.691594
1860.495236	-2.999200	3.309200	-9.923700	26.530784	0.000499	20.667336
1861.495339	-3.026900	3.306700	-10.008000	26.510200	0.000495	20.667982
1862.496144	-3.026500	3.307600	-10.010000	26.468664	0.000497	20.671277
1863.495733	-2.985900	3.309300	-9.879700	26.453145	0.000495	20.692191
1864.496113	-2.989300	3.307300	-9.885400	26.445793	0.000495	20.687171
1865.507642	-3.010700	3.307700	-9.957600	26.464320	0.000494	20.682560
1866.496296	-2.999700	3.305900	-9.915800	26.467053	0.000492	20.688152
1867.497035	-3.004100	3.306000	-9.930800	26.484426	0.000492	20.696132
1868.498022	-3.002800	3.306300	-9.927100	26.432047	0.000493	20.688054
1869.497500	-3.025700	3.305500	-9.999800	26.394005	0.000492	20.664516
1870.500554	-3.011100	3.304900	-9.950400	26.337342	0.000492	20.698135
1871.501312	-2.995500	3.305700	-9.901000	26.318072	0.000488	20.677818
1872.498362	-2.980100	3.305000	-9.847000	26.342882	0.000490	20.680467
1873.498756	-3.012300	3.304100	-9.952300	26.375711	0.000490	20.690703
1874.498038	-2.989200	3.302700	-9.871300	26.430436	0.000488	20.666993
1875.502717	-3.014600	3.303300	-9.957600	26.464849	0.000489	20.689256
1876.502762	-3.000000	3.302500	-9.906500	26.458318	0.000490	20.685536
1877.501883	-3.014400	3.300500	-9.947500	26.440807	0.000488	20.700179
1878.500665	-2.988800	3.302800	-9.870900	26.440807	0.000487	20.668882
1879.500962	-3.007100	3.300700	-9.924900	26.476960	0.000487	20.664442
1880.509832	-3.000000	3.301600	-9.903300	26.508874	0.000487	20.683246
1881.503421	-3.003500	3.301900	-9.915200	26.540495	0.000484	20.673305
1882.501787	-2.994200	3.300300	-9.880200	26.547465	0.000484	20.697383
1883.504302	-2.991000	3.302000	-9.876000	26.542382	0.000484	20.697963
1884.502355	-2.981400	3.300100	-9.837200	26.574953	0.000483	20.696091
1885.502028	-2.988500	3.299600	-9.858800	26.606678	0.000483	20.688626
1886.505778	-3.002000	3.298800	-9.902500	26.619657	0.000484	20.687923
1887.505039	-3.002100	3.298500	-9.900700	26.604986	0.000482	20.679339
1888.505842	-3.015800	3.297400	-9.943300	26.565593	0.000482	20.678619
1889.504159	-3.023500	3.297900	-9.970200	26.520033	0.000479	20.692567
1890.504396	-3.013200	3.298000	-9.936600	26.512331	0.000481	20.706164
1891.503083	-2.998400	3.297700	-9.886700	26.503149	0.000479	20.689346
1892.506483	-2.981600	3.297700	-9.831600	26.494316	0.000478	20.695167
1893.503202	-3.027800	3.296700	-9.980600	26.487639	0.000480	20.707896
1894.503009	-3.031500	3.296200	-9.990800	26.501115	0.000477	20.686353
1895.504441	-3.000400	3.296600	-9.889500	26.461815	0.000478	20.682413
1896.504451	-3.000900	3.296100	-9.890400	26.480237	0.000478	20.703776
1897.506849	-2.980800	3.296100	-9.823200	26.497862	0.000476	20.673125
1898.505006	-3.007100	3.295200	-9.908300	26.503645	0.000477	20.702174
1899.504006	-3.015000	3.294000	-9.930900	26.504523	0.000475	20.673182
1900.505471	-2.997500	3.295400	-9.876600	26.515462	0.000476	20.702672
1901.505733	-3.003800	3.293600	-9.892400	26.571822	0.000474	20.696737
1902.507261	-3.005200	3.294400	-9.899100	26.582370	0.000471	20.707341
1903.506147	-3.015300	3.292400	-9.927000	26.577206	0.000472	20.690294
1904.506307	-2.999900	3.292900	-9.877400	26.621747	0.000472	20.682911
1905.506821	-2.998700	3.294400	-9.877700	26.621178	0.000473	20.693246
1906.513972	-3.022600	3.291600	-9.948300	26.595626	0.000471	20.701700
1907.508183	-3.001300	3.293100	-9.882800	26.600270	0.000472	20.691668
1908.510380	-3.015400	3.292400	-9.927400	26.636336	0.000471	20.688569
1909.509625	-3.014300	3.291300	-9.920100	26.657309	0.000469	20.706810
1910.513436	-2.964500	3.291900	-9.757000	26.682517	0.000470	20.700857
1911.512809	-3.014600	3.290500	-9.916900	26.700537	0.000467	20.702378
1912.518353	-2.979500	3.290000	-9.801800	26.726029	0.000469	20.699557
1913.514921	-3.008500	3.288900	-9.893300	26.716353	0.000468	20.697415
1914.512838	-3.003400	3.290700	-9.882000	26.740926	0.000468	20.712164
1915.512526	-3.005700	3.287600	-9.879600	26.784687	0.000468	20.710643
1916.510678	-2.993900	3.289300	-9.847200	26.793900	0.000466	20.693352
1917.509956	-3.021300	3.288300	-9.932100	26.792851	0.000466	20.714110
1918.509724	-3.023300	3.288600	-9.941000	26.784891	0.000464	20.699941
1919.514116	-3.012600	3.288500	-9.906200	26.786484	0.000464	20.716718
1920.510753	-3.002500	3.287300	-9.868700	26.766002	0.000463	20.710823
1921.512558	-2.998600	3.286800	-9.854000	26.786435	0.000465	20.713823
1922.511781	-2.983200	3.286100	-9.802500	26.805608	0.000463	20.701805
1923.513482	-2.994000	3.287000	-9.840300	26.833472	0.000462	20.704691
1924.516125	-2.995700	3.286300	-9.843500	26.885173	0.000460	20.718271
1925.512985	-2.987400	3.286100	-9.815900	26.881115	0.000461	20.708026
1926.514727	-3.000300	3.285200	-9.855900	26.872132	0.000459	20.707528
1927.512510	-2.986500	3.285400	-9.810900	26.862180	0.000459	20.699892
1928.512577	-3.004100	3.285100	-9.868700	26.850692	0.000460	20.714420
1929.513696	-2.990600	3.285300	-9.823700	26.853204	0.000458	20.706514
1930.516534	-2.996700	3.285200	-9.843600	26.831837	0.000458	20.729127
1931.513885	-2.992200	3.284700	-9.826800	26.832284	0.000456	20.726732
1932.512720	-3.009300	3.283100	-9.878800	26.834243	0.000457	20.712106
1933.515156	-3.012600	3.282700	-9.889100	26.817844	0.000457	20.707944
1934.514930	-3.030500	3.281300	-9.943500	26.794443	0.000454	20.706701
1935.515706	-2.996000	3.282500	-9.833800	26.815437	0.000455	20.725440
1936.516690	-2.998200	3.281800	-9.837400	26.799980	0.000455	20.729814
1937.516216	-2.984400	3.282100	-9.794100	26.791646	0.000453	20.734711
1938.516462	-2.995100	3.282100	-9.829200	26.765903	0.000454	20.709301
1939.517029	-3.008900	3.281000	-9.871300	26.758439	0.000452	20.716970
1940.529188	-2.979300	3.282100	-9.777000	26.735956	0.000452	20.732299
1941.517683	-2.981000	3.280200	-9.776800	26.774628	0.000451	20.716177
1942.516638	-2.987000	3.279200	-9.793400	26.789971	0.000452	20.709317
1943.517547	-2.957900	3.282300	-9.706600	26.795483	0.000449	20.739043
1944.518899	-2.996300	3.278600	-9.821700	26.803232	0.000448	20.731187
1945.521601	-3.002400	3.278600	-9.842500	26.813582	0.000447	20.716937
1946.520744	-3.020100	3.277400	-9.897300	26.788669	0.000449	20.718915
1947.524167	-3.019500	3.276600	-9.892300	26.763772	0.000448	20.722807
1948.519338	-3.028500	3.276200	-9.920700	26.784246	0.000448	20.718261
1949.520365	-2.991300	3.276500	-9.800700	26.780010	0.000447	20.721114
1950.523881	-2.979500	3.277600	-9.764600	26.824266	0.000445	20.715825
1951.520630	-2.991800	3.276900	-9.802300	26.855438	0.000443	20.718719
1952.521285	-2.975800	3.277600	-9.752000	26.889813	0.000445	20.725782
1953.520126	-2.974400	3.277600	-9.748000	26.899919	0.000445	20.730254
1954.519663	-2.998200	3.275000	-9.818100	26.943975	0.000442	20.715285
1955.520152	-3.005800	3.274800	-9.841800	26.912829	0.000442	20.714786
1956.525289	-2.991500	3.274100	-9.793000	26.861308	0.000442	20.736950
1957.520726	-2.976600	3.274600	-9.745100	26.870943	0.000440	20.719135
1958.520381	-2.984300	3.274700	-9.771200	26.858162	0.000443	20.742795
1959.520765	-2.998700	3.273400	-9.814500	26.869731	0.000440	20.710804
1960.522195	-3.002600	3.274200	-9.829500	26.881252	0.000441	20.727131
1961.522566	-3.012900	3.273800	-9.861800	26.880333	0.000439	20.710085
1962.520189	-3.003100	3.272800	-9.827300	26.924983	0.000439	20.728431
1963.522314	-3.006200	3.272300	-9.836400	26.946300	0.000436	20.727106
1964.526315	-3.017800	3.272500	-9.874500	26.929528	0.000438	20.736320
1965.519930	-2.986700	3.272100	-9.770700	26.870194	0.000436	20.736402
1966.524587	-2.988300	3.269600	-9.769300	26.817525	0.000435	20.728962
1967.524784	-2.981600	3.271800	-9.753900	26.824696	0.000437	20.717680
1968.521635	-2.992800	3.270100	-9.786000	26.874593	0.000434	20.729918
1969.521683	-3.010700	3.268700	-9.839200	26.893544	0.000435	20.735224
1970.521407	-3.002500	3.269100	-9.814300	26.881788	0.000436	20.742370
1971.521814	-3.001800	3.269200	-9.812200	26.906235	0.000432	20.733761
1972.527392	-2.992500	3.269500	-9.782100	26.903650	0.000431	20.744912
1973.522947	-2.987900	3.267900	-9.762300	26.838998	0.000431	20.737276
1974.525200	-2.989900	3.270100	-9.775400	26.834331	0.000433	20.745861
1975.523646	-2.971800	3.268200	-9.711000	26.842770	0.000431	20.730638
1976.523212	-2.999600	3.267900	-9.800900	26.874934	0.000429	20.723623
1977.526357	-3.000600	3.267000	-9.801600	26.921747	0.000429	20.732289
1978.524246	-3.019400	3.265700	-9.859100	26.938397	0.000428	20.737178
1979.523090	-2.992100	3.265800	-9.770500	26.939340	0.000428	20.744765
1980.524298	-2.987300	3.265600	-9.753800	26.945356	0.000427	20.743228
1981.533642	-3.002400	3.265600	-9.803000	26.933991	0.000427	20.753137
1982.523686	-2.996700	3.264900	-9.782900	26.923715	0.000424	20.745174
1983.528273	-2.995300	3.264400	-9.776700	26.890016	0.000425	20.754911
1984.525145	-2.980300	3.263800	-9.725800	26.923617	0.000426	20.751714
1985.526413	-2.996600	3.265400	-9.784700	26.984150	0.000425	20.745255
1986.526364	-2.980400	3.264700	-9.728700	27.005067	0.000423	20.740685
1987.526766	-2.981200	3.264600	-9.731300	27.030333	0.000424	20.735273
1988.529022	-3.003600	3.263300	-9.800400	27.014798	0.000422	20.763274
1989.534959	-2.987700	3.263500	-9.748800	27.020082	0.000422	20.745828
1990.527110	-2.990200	3.263600	-9.758100	27.001279	0.000420	20.762007
1991.527507	-2.987100	3.261800	-9.742500	26.980581	0.000420	20.745934
1992.528099	-3.014700	3.262200	-9.834000	27.006766	0.000420	20.763257
1993.529614	-3.003400	3.260900	-9.792700	27.030812	0.000418	20.758516
1994.528309	-2.985800	3.260500	-9.732600	27.036990	0.000420	20.760461
1995.528644	-3.010200	3.259600	-9.810400	27.020618	0.000418	20.759644
1996.526693	-3.008400	3.259900	-9.805600	27.022463	0.000416	20.749171
1997.528348	-2.997900	3.260200	-9.772900	27.040665	0.000416	20.749457
1998.526657	-3.024400	3.258800	-9.853800	27.076830	0.000415	20.765914
1999.529900	-3.010600	3.258800	-9.810000	27.083707	0.000416	20.753389
2000.527954	-3.001100	3.258200	-9.776900	27.087275	0.000415	20.748918
2001.531924	-2.995200	3.257000	-9.754000	27.104304	0.000412	20.738069
2002.529655	-3.004500	3.258400	-9.789300	27.147287	0.000414	20.759962
2003.530409	-2.989300	3.257400	-9.737000	27.155228	0.000412	20.751828
2004.534135	-3.007900	3.255700	-9.792000	27.153887	0.000412	20.755695
2005.530407	-3.016100	3.255300	-9.817800	27.158756	0.000411	20.754428
2006.532506	-3.011400	3.256200	-9.804300	27.159504	0.000411	20.753757
2007.530714	-2.996300	3.254400	-9.749800	27.169696	0.000408	20.769225
2008.530323	-3.010400	3.255900	-9.799400	27.217260	0.000409	20.762537
2009.531040	-2.988800	3.255500	-9.728900	27.198786	0.000407	20.756283
2010.534112	-3.013900	3.253800	-9.805300	27.181457	0.000405	20.759717
2011.533172	-2.986700	3.254600	-9.719200	27.151741	0.000407	20.750217
2012.534569	-2.998200	3.253800	-9.754700	27.111376	0.000405	20.748500
2013.531755	-2.997400	3.253500	-9.750700	27.117683	0.000403	20.760534
2014.531353	-3.013400	3.252700	-9.799900	27.094086	0.000403	20.763355
2015.536728	-2.996600	3.253000	-9.747000	27.124341	0.000404	20.763436
2016.542573	-2.983700	3.253400	-9.705700	27.090916	0.000402	20.768227
2017.534556	-2.976700	3.254400	-9.686100	27.059921	0.000405	20.771195
2018.532929	-2.993400	3.251000	-9.730400	27.089811	0.000402	20.766641
2019.532814	-2.975600	3.251300	-9.673700	27.080251	0.000402	20.768881
2020.532945	-2.980200	3.253400	-9.694300	27.084649	0.000401	20.775675
2021.532568	-2.979700	3.251200	-9.686100	27.087884	0.000399	20.778454
2022.533678	-2.989000	3.249900	-9.713000	27.079820	0.000399	20.791207
2023.537525	-3.003900	3.249800	-9.761100	27.045029	0.000398	20.769968
2024.538405	-2.987300	3.250900	-9.710300	27.014911	0.000398	20.779983
2025.536778	-3.005600	3.248700	-9.763500	27.061441	0.000398	20.783155
2026.533837	-3.003900	3.249100	-9.758800	27.070448	0.000396	20.769927
2027.534637	-2.993200	3.248400	-9.721300	27.124007	0.000396	20.764523
2028.541115	-3.028800	3.246200	-9.831300	27.162616	0.000398	20.780596
2029.535338	-2.983500	3.247900	-9.689200	27.177506	0.000394	20.782296
2030.535083	-3.004600	3.245900	-9.752100	27.182139	0.000395	20.786956
2031.538699	-3.004600	3.246500	-9.753200	27.202621	0.000391	20.782901
2032.534998	-2.990000	3.247400	-9.708600	27.196152	0.000392	20.782083
2033.536302	-2.994800	3.246200	-9.720600	27.177742	0.000392	20.780636
2034.536652	-2.979600	3.245800	-9.670200	27.138093	0.000390	20.792441
2035.536922	-2.993000	3.245400	-9.713100	27.137752	0.000389	20.795891
2036.539573	-2.996600	3.244100	-9.721000	27.135492	0.000389	20.802153
2037.536901	-3.000800	3.243100	-9.730400	27.109847	0.000390	20.782051
2038.539447	-2.996500	3.243100	-9.716800	27.112529	0.000389	20.803240
2039.536808	-2.978900	3.243800	-9.660800	27.084534	0.000386	20.790258
2040.537767	-3.005000	3.241800	-9.739900	27.101076	0.000387	20.787454
2041.536945	-2.996800	3.242800	-9.716300	27.110180	0.000386	20.776222
2042.539182	-3.014300	3.241400	-9.769900	27.108644	0.000384	20.803600
2043.552652	-2.980900	3.241800	-9.662300	27.071276	0.000385	20.793046
2044.554738	-3.017200	3.243100	-9.782900	27.056742	0.000386	20.795499
2045.539463	-3.019100	3.241500	-9.784400	27.066464	0.000386	20.784413
2046.538879	-3.012700	3.240000	-9.759700	27.112814	0.000384	20.793095
2047.541769	-2.981600	3.241700	-9.665300	27.141555	0.000380	20.796872
2048.540095	-2.987000	3.238700	-9.673200	27.176661	0.000382	20.786661
2049.542841	-2.972300	3.240500	-9.630500	27.184228	0.000381	20.798066
2050.541803	-3.008000	3.239800	-9.742900	27.189462	0.000378	20.808072
2051.542669	-3.013200	3.237000	-9.753000	27.198996	0.000378	20.788738
2052.545413	-3.014500	3.237700	-9.759500	27.231596	0.000380	20.800665
2053.543820	-3.016700	3.236700	-9.762600	27.269632	0.000378	20.795302
2054.545372	-2.995800	3.239000	-9.702100	27.295209	0.000378	20.791632
2055.541773	-3.017000	3.236300	-9.762700	27.302751	0.000378	20.796847
2056.541909	-2.995800	3.235800	-9.692400	27.286106	0.000375	20.811399
2057.549451	-2.987500	3.236300	-9.667400	27.322271	0.000376	20.801785
2058.546512	-2.984100	3.234900	-9.652100	27.350008	0.000374	20.806927
2059.552253	-3.012700	3.236000	-9.748500	27.364547	0.000374	20.802112
2060.554254	-3.015700	3.233400	-9.750000	27.372665	0.000372	20.799848
2061.543091	-2.996200	3.235200	-9.692800	27.387292	0.000373	20.814089
2062.543284	-2.996600	3.235100	-9.693200	27.384440	0.000371	20.796046
2063.546745	-3.021800	3.234400	-9.772400	27.391291	0.000372	20.811473
2064.542756	-2.985900	3.233200	-9.652900	27.337330	0.000370	20.804606
2065.547951	-3.016100	3.231800	-9.745900	27.309772	0.000369	20.820032
2066.543567	-2.984400	3.233200	-9.648200	27.295964	0.000368	20.807565
2067.545702	-3.005300	3.232300	-9.712800	27.259490	0.000367	20.802643
2068.543811	-2.979100	3.232100	-9.627100	27.310073	0.000365	20.835507
2069.543679	-3.000500	3.231800	-9.695300	27.352227	0.000368	20.821487
2070.547353	-2.999600	3.231600	-9.692200	27.365668	0.000366	20.827896
2071.545043	-2.996100	3.230900	-9.679400	27.346895	0.000365	20.809486
2072.545892	-3.014700	3.228300	-9.731000	27.346717	0.000365	20.816892
2073.545385	-2.998600	3.228800	-9.680800	27.333405	0.000362	20.821994
2074.548347	-2.978800	3.230000	-9.620600	27.308025	0.000362	20.830128
2075.546928	-2.999300	3.228000	-9.680300	27.309390	0.000363	20.825337
2076.548294	-3.018800	3.229200	-9.747500	27.305912	0.000362	20.827528
2077.548005	-2.985300	3.229900	-9.640500	27.307407	0.000361	20.830929
2078.549761	-2.995700	3.227300	-9.666700	27.289365	0.000362	20.834117
2079.548485	-2.997900	3.225200	-9.667100	27.286423	0.000359	20.827839
2080.547992	-3.011100	3.225700	-9.712200	27.285285	0.000358	20.825272
2081.548392	-2.998200	3.226700	-9.674200	27.271258	0.000357	20.833447
2082.546687	-2.979400	3.225400	-9.608400	27.254272	0.000358	20.828689
2083.555155	-2.994000	3.225900	-9.657400	27.232019	0.000356	20.826694
2084.550150	-3.001700	3.225600	-9.681100	27.200272	0.000355	20.844074
2085.552933	-3.036500	3.222800	-9.785000	27.163745	0.000355	20.825353
2086.549262	-2.998200	3.223200	-9.662900	27.111992	0.000354	20.819770
2087.552976	-2.991000	3.224200	-9.643000	27.109586	0.000355	20.818773
2088.551258	-3.008500	3.222700	-9.694800	27.115171	0.000355	20.822492
2089.550417	-3.005800	3.222100	-9.684400	27.120584	0.000353	20.819876
2090.555467	-3.011700	3.221400	-9.700700	27.127810	0.000351	20.811497
2091.551238	-2.999800	3.222800	-9.666800	27.186560	0.000350	20.833602
2092.555168	-3.024800	3.220400	-9.740100	27.238350	0.000349	20.838752
2093.550689	-3.001300	3.221300	-9.666800	27.278247	0.000350	20.847589
2094.558308	-3.012900	3.220600	-9.701100	27.299987	0.000349	20.821568
2095.555055	-2.976600	3.220600	-9.586300	27.379353	0.000349	20.832179
2096.553397	-3.014100	3.220000	-9.703000	27.413361	0.000348	20.818029
2097.557474	-2.995400	3.219100	-9.641600	27.401554	0.000348	20.855461
2098.558765	-2.986200	3.219400	-9.611700	27.394435	0.000344	20.820800
2099.554726	-2.985800	3.219000	-9.610100	27.375468	0.000345	20.840125
2100.553933	-3.004100	3.217900	-9.664800	27.338557	0.000347	20.835237
2101.556969	-2.997500	3.218500	-9.646500	27.321150	0.000346	20.838588
2102.554573	-3.002400	3.217600	-9.659300	27.337395	0.000343	20.837861
2103.559940	-3.010400	3.216700	-9.682500	27.347350	0.000343	20.845504
2104.554368	-3.019900	3.215400	-9.708300	27.329025	0.000342	20.840346
2105.554110	-3.010100	3.215000	-9.676600	27.347781	0.000342	20.832662
2106.560105	-2.990000	3.215400	-9.613000	27.385090	0.000340	20.826097
2107.553617	-3.015000	3.214400	-9.689900	27.388080	0.000339	20.830528
2108.555208	-2.974400	3.216200	-9.565000	27.389519	0.000339	20.824863
2109.555335	-3.002300	3.214500	-9.649900	27.381612	0.000337	20.820228
2110.556665	-2.999500	3.215300	-9.642900	27.404804	0.000337	20.827912
2111.558764	-2.972300	3.214100	-9.551600	27.425144	0.000336	20.842684
2112.558331	-3.017700	3.213700	-9.697500	27.398612	0.000336	20.813148
2113.554952	-2.986600	3.211800	-9.591000	27.366098	0.000336	20.848243
2114.556317	-3.015500	3.210900	-9.681600	27.360767	0.000335	20.826285
2115.556354	-3.022300	3.211100	-9.703900	27.361214	0.000334	20.828631
2116.557630	-2.995800	3.210600	-9.617300	27.378686	0.000334	20.832931
2117.564306	-3.004000	3.211500	-9.646300	27.399149	0.000334	20.815110
2118.561696	-2.978200	3.210900	-9.561300	27.421154	0.000332	20.804532
2119.562567	-2.968200	3.211400	-9.530600	27.462174	0.000331	20.818773
2120.569723	-3.003700	3.209700	-9.640000	27.486356	0.000331	20.826506
2121.555758	-2.992900	3.209000	-9.602800	27.468374	0.000329	20.819320
2122.560452	-3.007000	3.209600	-9.650200	27.445419	0.000329	20.803813
2123.556577	-2.993300	3.208000	-9.601200	27.463848	0.000328	20.795327
2124.556411	-2.996500	3.207800	-9.610700	27.478361	0.000328	20.810402
2125.557328	-3.008400	3.206700	-9.646000	27.526780	0.000326	20.805063
2126.559419	-2.982000	3.208800	-9.568000	27.530161	0.000327	20.822214
2127.567643	-2.993000	3.206800	-9.596900	27.512951	0.000325	20.830978
2128.561801	-3.002400	3.205900	-9.624600	27.466668	0.000324	20.819500
2129.556606	-3.005100	3.205600	-9.632300	27.423048	0.000326	20.822084
2130.562663	-3.005700	3.204600	-9.631100	27.425526	0.000323	20.800870
2131.562341	-3.009300	3.203800	-9.639400	27.456023	0.000323	20.809740
2132.563516	-2.988300	3.204500	-9.574500	27.455674	0.000322	20.798483
2133.559771	-2.986700	3.203300	-9.566400	27.420708	0.000320	20.804083
2134.560733	-3.019700	3.201800	-9.667700	27.430605	0.000321	20.799815
2135.559041	-3.011900	3.202400	-9.644700	27.410071	0.000320	20.812348
2136.557527	-3.016000	3.200500	-9.651500	27.449913	0.000319	20.801221
2137.565717	-2.989600	3.202500	-9.572400	27.477329	0.000317	20.799407
2138.561896	-2.993500	3.201200	-9.582600	27.470479	0.000320	20.805791
2139.562642	-2.983900	3.201900	-9.552900	27.486064	0.000317	20.804876
2140.561547	-3.022600	3.199500	-9.669800	27.502640	0.000316	20.811122
2141.558870	-2.984800	3.201000	-9.553500	27.474022	0.000316	20.776639
2142.565190	-2.997400	3.200000	-9.589800	27.483862	0.000316	20.797919
2143.558839	-3.002000	3.198700	-9.601600	27.518266	0.000314	20.793652
2144.562696	-2.966600	3.199800	-9.491800	27.525335	0.000312	20.774211
2145.564225	-2.987400	3.197700	-9.551800	27.567577	0.000315	20.813394
2146.566331	-2.986500	3.198300	-9.550700	27.571071	0.000312	20.775184
2147.559912	-3.000600	3.196700	-9.589800	27.559371	0.000313	20.792810
2148.562872	-3.023500	3.195800	-9.659700	27.530072	0.000309	20.808849
2149.565200	-3.000300	3.196500	-9.589500	27.529649	0.000311	20.796570
2150.563952	-2.968900	3.196900	-9.490100	27.536280	0.000311	20.789965
2151.562358	-2.994000	3.195600	-9.566200	27.560809	0.000312	20.774342
2152.566255	-3.029900	3.196100	-9.681200	27.578514	0.000309	20.768447
2153.574718	-3.007200	3.194600	-9.605000	27.557909	0.000307	20.802244
2154.568510	-3.001700	3.192500	-9.581000	27.550645	0.000308	20.800625
2155.566355	-3.033300	3.192200	-9.681600	27.529381	0.000308	20.793455
2156.568516	-3.017000	3.192300	-9.630100	27.565814	0.000305	20.794077
2157.568387	-3.000600	3.192300	-9.578400	27.597323	0.000306	20.780261
2158.564159	-3.017600	3.190500	-9.626500	27.636711	0.000304	20.800927
2159.563749	-2.988700	3.192300	-9.539700	27.674278	0.000305	20.795581
2160.564153	-3.003800	3.191600	-9.585400	27.682093	0.000303	20.789695
2161.563607	-3.022400	3.190300	-9.640400	27.701688	0.000303	20.790447
2162.565220	-2.979500	3.190600	-9.504200	27.637799	0.000303	20.789221
2163.569637	-2.977500	3.189600	-9.496200	27.660645	0.000301	20.779018
2164.567839	-3.002600	3.188300	-9.571600	27.671605	0.000300	20.789572
2165.570015	-2.994200	3.189900	-9.550500	27.650506	0.000299	20.770712
2166.565827	-3.004900	3.187900	-9.577900	27.659305	0.000298	20.776247
2167.568770	-2.992200	3.187700	-9.537200	27.676487	0.000298	20.773148
2168.571450	-3.015300	3.187300	-9.609700	27.687236	0.000296	20.774955
2169.579684	-3.012100	3.186600	-9.597100	27.672279	0.000298	20.780294
2170.584330	-3.014900	3.185900	-9.604500	27.636857	0.000298	20.798704
2171.568777	-2.990700	3.186600	-9.529200	27.656161	0.000296	20.787308
2172.568922	-2.988300	3.185500	-9.518600	27.650473	0.000295	20.774473
2173.570637	-3.004800	3.184600	-9.568300	27.666348	0.000297	20.794240
2174.570319	-2.992400	3.185800	-9.532600	27.698268	0.000295	20.790799
2175.571103	-3.012400	3.182500	-9.585600	27.727205	0.000294	20.764916
2176.574064	-2.990000	3.184100	-9.519400	27.706254	0.000293	20.779868
2177.571904	-3.010500	3.181900	-9.577500	27.752527	0.000293	20.780915
2178.573380	-2.984200	3.182000	-9.494000	27.726742	0.000293	20.773459
2179.572568	-3.000300	3.181800	-9.544900	27.722705	0.000290	20.776983
2180.599358	-2.994400	3.182200	-9.527100	27.655966	0.000290	20.770042
2181.573481	-2.982300	3.181200	-9.486400	27.621201	0.000290	20.794330
2182.573224	-3.008500	3.180700	-9.566800	27.605058	0.000289	20.779983
2183.574956	-3.012900	3.180400	-9.580800	27.630090	0.000287	20.778144
2184.572937	-3.015800	3.179200	-9.586300	27.671849	0.000287	20.763739
2185.572938	-3.005500	3.178800	-9.552900	27.698341	0.000287	20.759578
2186.575033	-3.043300	3.177500	-9.669500	27.721356	0.000285	20.781790
2187.577466	-2.978700	3.178200	-9.465900	27.748140	0.000285	20.766069
2188.572578	-3.030700	3.177000	-9.627900	27.758214	0.000285	20.778577
2189.579023	-2.986300	3.177400	-9.487500	27.770366	0.000284	20.758564
2190.575594	-2.990500	3.179000	-9.505900	27.758019	0.000284	20.757992
2191.573901	-3.001500	3.175400	-9.530200	27.786963	0.000283	20.786646
2192.575340	-2.996100	3.176200	-9.515700	27.810073	0.000282	20.790938
2193.578739	-3.020000	3.174700	-9.585800	27.795841	0.000283	20.771399
2194.583478	-2.986700	3.174500	-9.479900	27.760082	0.000280	20.794208
2195.577429	-2.997200	3.173800	-9.511600	27.767231	0.000283	20.770108
2196.577364	-3.005300	3.173700	-9.537000	27.806442	0.000281	20.779223
2197.580601	-3.011900	3.172600	-9.554000	27.791203	0.000279	20.789491
2198.581748	-3.010200	3.170900	-9.544700	27.786126	0.000278	20.761622
2199.578893	-2.989500	3.172400	-9.482400	27.795281	0.000279	20.763249
2200.577839	-2.990000	3.172000	-9.483300	27.786963	0.000277	20.778585
2201.578441	-3.003900	3.169900	-9.520500	27.809959	0.000277	20.783711
2202.587333	-2.997400	3.170000	-9.500800	27.770846	0.000275	20.766633
2203.583035	-2.984800	3.169900	-9.460200	27.710788	0.000275	20.774473
2204.580792	-2.997300	3.168900	-9.497400	27.710715	0.000276	20.764442
2205.580345	-3.023900	3.168200	-9.578200	27.687350	0.000274	20.773174
2206.580382	-3.019800	3.168900	-9.568100	27.671605	0.000273	20.763968
2207.584996	-2.991900	3.166700	-9.473400	27.685790	0.000274	20.773026
2208.584295	-3.017600	3.168600	-9.559600	27.703468	0.000273	20.757624
2209.580760	-3.008000	3.166800	-9.524100	27.731333	0.000271	20.744887
2210.585082	-2.995700	3.167600	-9.487500	27.766711	0.000270	20.756308
2211.583838	-2.971900	3.166000	-9.408500	27.782284	0.000271	20.756807
2212.581271	-3.011300	3.163500	-9.524500	27.812461	0.000268	20.760150
2213.590385	-3.011900	3.163400	-9.526300	27.834255	0.000270	20.770230
2214.584161	-3.008700	3.162300	-9.513600	27.889385	0.000269	20.752220
2215.583878	-3.008600	3.163100	-9.515300	27.898384	0.000269	20.781194
2216.585116	-3.004200	3.162500	-9.500100	27.907758	0.000267	20.762178
2217.585341	-2.996000	3.163800	-9.477600	27.951999	0.000267	20.770198
2218.592915	-2.991200	3.162600	-9.459100	27.955118	0.000268	20.754845
2219.586602	-3.016500	3.160300	-9.531700	27.982911	0.000266	20.764802
2220.588092	-3.005800	3.160500	-9.499100	27.951853	0.000268	20.768628
2221.587539	-2.994800	3.158700	-9.458700	27.962517	0.000263	20.743326
2222.587452	-2.980700	3.160100	-9.418200	27.970380	0.000264	20.742230
2223.589669	-3.010500	3.157700	-9.505400	27.953916	0.000264	20.745574
2224.602264	-2.994100	3.158700	-9.456900	27.919113	0.000260	20.756537
2225.589818	-3.007500	3.157300	-9.494300	27.860972	0.000262	20.759186
2226.589781	-3.014900	3.156400	-9.514300	27.855221	0.000260	20.750079
2227.588894	-3.010400	3.156300	-9.500600	27.831129	0.000263	20.738633
2228.589314	-3.001100	3.154800	-9.466000	27.849527	0.000260	20.769479
2229.591450	-2.992800	3.154800	-9.439900	27.899100	0.000260	20.751093
2230.591062	-2.978000	3.153600	-9.390400	27.910512	0.000261	20.759734
2231.595342	-3.007000	3.151700	-9.475900	27.966969	0.000260	20.746384
2232.589546	-2.975300	3.154000	-9.383400	28.005897	0.000258	20.737677
2233.588981	-2.993900	3.152300	-9.436900	27.950173	0.000256	20.754609
2234.590549	-3.002200	3.151400	-9.460800	27.939679	0.000256	20.752581
2235.593903	-3.007300	3.150200	-9.472700	27.926269	0.000256	20.745722
2236.590827	-3.022200	3.150900	-9.521200	27.893122	0.000255	20.746973
2237.593274	-3.014800	3.150800	-9.497000	27.886210	0.000255	20.767044
2238.589978	-3.019600	3.149200	-9.506800	27.852387	0.000253	20.754813
2239.589883	-3.026000	3.146800	-9.520700	27.837977	0.000254	20.744103
2240.609572	-3.015900	3.146900	-9.489100	27.815273	0.000253	20.735953
2241.592802	-3.009300	3.145800	-9.464700	27.830358	0.000254	20.755402
2242.597364	-3.011800	3.145800	-9.473900	27.836710	0.000254	20.740458
2243.592678	-2.986000	3.148100	-9.398500	27.891376	0.000251	20.747586
2244.593799	-3.029800	3.144200	-9.525300	27.890150	0.000251	20.735920
2245.595204	-3.008200	3.143700	-9.454500	27.893415	0.000249	20.743948
2246.598425	-2.995100	3.144500	-9.417400	27.921884	0.000250	20.747472
2247.595247	-3.016200	3.142700	-9.477900	27.932297	0.000250	20.724286
2248.601599	-3.016600	3.141900	-9.477000	27.930136	0.000249	20.742976
2249.596175	-3.004800	3.142500	-9.440800	27.936715	0.000249	20.749124
2250.596334	-3.009000	3.142800	-9.455400	27.928089	0.000248	20.747554
2251.599163	-2.981400	3.142100	-9.367300	27.905745	0.000246	20.733598
2252.595528	-2.983100	3.142800	-9.374500	27.904884	0.000247	20.742216
2253.599777	-2.998600	3.140600	-9.415700	27.934287	0.000245	20.737670
2254.595678	-2.999400	3.139900	-9.417000	27.956062	0.000246	20.741570
2255.594741	-2.975200	3.139700	-9.340400	27.972996	0.000245	20.747235
2256.596257	-3.021300	3.137400	-9.476200	27.989882	0.000245	20.745265
2257.596988	-2.971500	3.137100	-9.320800	27.988192	0.000243	20.749255
2258.595897	-3.013000	3.136400	-9.447800	27.997394	0.000244	20.762311
2259.596753	-2.979900	3.136300	-9.344200	27.985244	0.000242	20.736329
2260.596812	-2.994200	3.136200	-9.390100	28.009544	0.000243	20.758894
2261.598501	-2.996700	3.134700	-9.392500	28.027347	0.000242	20.737458
2262.598182	-3.013000	3.133000	-9.439200	28.017674	0.000241	20.758542
2263.597164	-2.990700	3.134400	-9.372800	28.003867	0.000241	20.737531
2264.596605	-3.007000	3.133100	-9.420100	28.019363	0.000240	20.744121
2265.595783	-2.991700	3.133000	-9.370000	28.028622	0.000240	20.747751
2266.600638	-3.004200	3.130300	-9.403000	28.018381	0.000239	20.725113
2267.605887	-3.037000	3.130700	-9.505500	28.020338	0.000237	20.751740
2268.605577	-2.998200	3.129600	-9.381900	28.024513	0.000238	20.746933
2269.596290	-2.992800	3.129500	-9.364500	28.031327	0.000238	20.742412
2270.598028	-3.026300	3.126200	-9.460000	28.030986	0.000237	20.742543
2271.598869	-2.992500	3.127300	-9.357300	28.014767	0.000235	20.735700
2272.601291	-3.009000	3.127200	-9.408700	28.035599	0.000236	20.730591
2273.600445	-2.990100	3.126700	-9.348000	28.032253	0.000236	20.728171
2274.601619	-2.993000	3.125100	-9.352200	28.022840	0.000235	20.740508
2275.600761	-3.001000	3.124600	-9.375800	28.012940	0.000236	20.726748
2276.601396	-3.027800	3.122600	-9.453400	27.955372	0.000233	20.723805
2277.605047	-2.996500	3.124000	-9.359700	27.967523	0.000234	20.718965
2278.602323	-3.009600	3.121600	-9.394300	27.966142	0.000234	20.715679
2279.603238	-3.007000	3.121000	-9.384000	27.987373	0.000234	20.732308
2280.604312	-2.988300	3.121900	-9.327600	28.014272	0.000233	20.719554
2281.604781	-2.976000	3.121200	-9.286600	28.023482	0.000233	20.725032
2282.604040	-3.016000	3.119600	-9.407200	28.021939	0.000231	20.713047
2283.604157	-2.978800	3.119000	-9.289800	28.012453	0.000232	20.734320
2284.603094	-3.001800	3.118800	-9.361500	28.073907	0.000231	20.720315
2285.604203	-3.003700	3.118300	-9.365600	28.091733	0.000231	20.716922
2286.603644	-3.029900	3.114700	-9.436000	28.108267	0.000230	20.726455
2287.604652	-2.991100	3.117400	-9.323800	28.085846	0.000228	20.710995
2288.606698	-2.998400	3.114300	-9.336500	28.020989	0.000229	20.722523
2289.609801	-3.001100	3.114100	-9.344200	27.978911	0.000231	20.733747
2290.607935	-2.997900	3.112600	-9.330200	27.985417	0.000229	20.733184
2291.605634	-3.019700	3.111800	-9.396000	27.983557	0.000228	20.718508
2292.609097	-2.999500	3.111900	-9.332400	27.965404	0.000228	20.703081
2293.613006	-3.003300	3.111900	-9.345100	28.001481	0.000228	20.716162
2294.608315	-2.992300	3.110200	-9.305700	28.007678	0.000228	20.721452
2295.606387	-2.969200	3.110300	-9.233700	28.055530	0.000228	20.713194
2296.608112	-2.992800	3.108500	-9.302800	28.040554	0.000227	20.706654
2297.606120	-3.004800	3.109500	-9.342000	27.998354	0.000225	20.721550
2298.610674	-3.021800	3.107100	-9.387400	27.987845	0.000228	20.703858
2299.610155	-3.003700	3.107500	-9.333100	27.992775	0.000226	20.728262
2300.611208	-2.983600	3.106400	-9.266500	28.011154	0.000224	20.707880
2301.612228	-2.975200	3.106000	-9.238900	28.007028	0.000224	20.705149
2302.607626	-2.983800	3.104600	-9.263000	27.996568	0.000225	20.708370
2303.612918	-3.009900	3.102400	-9.336300	27.994829	0.000224	20.728908
2304.612715	-2.982200	3.103000	-9.252200	28.008514	0.000223	20.710439
2305.609395	-2.988300	3.100900	-9.265000	28.061815	0.000223	20.692019
2306.608652	-2.989200	3.100400	-9.267000	28.094957	0.000222	20.707365
2307.609971	-2.992100	3.101100	-9.278000	28.116551	0.000224	20.712507
2308.609605	-2.996900	3.099600	-9.288700	28.128724	0.000222	20.691095
2309.611821	-2.984400	3.099800	-9.250000	28.093958	0.000222	20.707781
2310.612211	-3.002200	3.096300	-9.294800	28.090482	0.000221	20.701437
2311.609263	-2.978200	3.097400	-9.222600	28.071966	0.000220	20.710299
2312.614317	-3.018000	3.094300	-9.337700	28.078463	0.000222	20.707830
2313.610747	-3.029700	3.094400	-9.373900	28.092642	0.000221	20.695076
2314.611102	-2.986500	3.094300	-9.240300	28.089735	0.000221	20.715859
2315.614448	-3.007200	3.092800	-9.298900	28.139605	0.000220	20.707740
2316.614395	-2.999700	3.092400	-9.275400	28.201035	0.000220	20.688029
2317.625255	-3.011300	3.092600	-9.311100	28.192720	0.000219	20.701469
2318.610753	-2.980300	3.090500	-9.209400	28.201295	0.000220	20.687816
2319.612911	-3.017600	3.088800	-9.319900	28.200694	0.000220	20.697643
2320.614035	-3.006000	3.089100	-9.285500	28.184218	0.000220	20.685796
2321.625224	-3.021900	3.087000	-9.327200	28.197494	0.000217	20.693473
2322.617996	-3.022200	3.086800	-9.328100	28.179273	0.000219	20.690301
2323.613968	-3.005200	3.087000	-9.276000	28.145329	0.000219	20.711132
2324.612470	-2.966400	3.085800	-9.152400	28.157948	0.000217	20.701076
2325.615187	-3.025000	3.084900	-9.330400	28.157916	0.000218	20.699147
2326.616261	-2.994700	3.083700	-9.232600	28.114089	0.000216	20.684422
2327.614068	-3.026200	3.082000	-9.325400	28.065379	0.000216	20.699400
2328.626918	-3.036600	3.080500	-9.352700	27.997005	0.000217	20.704543
2329.611906	-2.996700	3.079800	-9.228500	27.950214	0.000216	20.704387
2330.619535	-3.002700	3.079100	-9.243800	27.977407	0.000217	20.699989
2331.627850	-3.018700	3.080700	-9.298000	27.945528	0.000215	20.704886
2332.616029	-2.996100	3.079100	-9.223300	27.994024	0.000216	20.715768
2333.613924	-3.008100	3.077500	-9.256300	28.009691	0.000215	20.704036
2334.618093	-3.026800	3.076500	-9.311000	27.968091	0.000216	20.690611
2335.619131	-2.996900	3.076200	-9.217700	27.944179	0.000215	20.706374
2336.618294	-3.008700	3.073700	-9.246700	27.943270	0.000215	20.700242
2337.623285	-3.009200	3.073000	-9.245700	27.899458	0.000214	20.675584
2338.617317	-3.007900	3.074200	-9.246200	27.850527	0.000215	20.709317
2339.622292	-3.005200	3.071500	-9.230100	27.842989	0.000214	20.689875
2340.620249	-3.017100	3.071400	-9.266000	27.845369	0.000214	20.693693
2341.630970	-3.004300	3.069200	-9.219600	27.884545	0.000212	20.701828
2342.618134	-2.996600	3.068900	-9.195100	27.930039	0.000213	20.708262
2343.621952	-3.011600	3.068000	-9.238500	27.954933	0.000213	20.698231
2344.620116	-3.023000	3.066300	-9.268100	27.966905	0.000213	20.713601
2345.620605	-2.991500	3.065800	-9.170700	28.002681	0.000212	20.704567
2346.619532	-2.994200	3.064800	-9.175700	27.980566	0.000212	20.696530
2347.627656	-3.004700	3.063600	-9.204000	27.970576	0.000212	20.692638
2348.627987	-3.002600	3.063200	-9.196600	27.937235	0.000212	20.707445
2349.625815	-3.014100	3.061200	-9.226500	27.969975	0.000210	20.708630
2350.617805	-2.990300	3.061100	-9.152900	28.022936	0.000211	20.693186
2351.618278	-3.012300	3.060200	-9.216900	28.082092	0.000211	20.697258
2352.621005	-3.020800	3.058200	-9.236900	28.152223	0.000210	20.706218
2353.628032	-2.988800	3.058100	-9.138900	28.158865	0.000209	20.705793
2354.626757	-2.974100	3.058700	-9.095600	28.189154	0.000210	20.699302
2355.632196	-3.014000	3.056400	-9.210900	28.167546	0.000211	20.688453
2356.631241	-3.012900	3.054000	-9.200500	28.172573	0.000211	20.718171
2357.624171	-3.015500	3.054100	-9.208500	28.188261	0.000210	20.706464
2358.626570	-3.002400	3.053000	-9.165700	28.159637	0.000209	20.689499
2359.624564	-3.011800	3.051800	-9.189800	28.101387	0.000209	20.719054
2360.634334	-2.986100	3.050600	-9.108400	28.045750	0.000210	20.689597
2361.628139	-2.990300	3.050400	-9.120500	28.043175	0.000209	20.698860
2362.627341	-3.007500	3.048300	-9.166500	28.040430	0.000208	20.709849
2363.627932	-2.997200	3.048300	-9.134800	28.078803	0.000210	20.695369
2364.628166	-2.991000	3.046800	-9.111800	28.116314	0.000209	20.702311
2365.627197	-2.983600	3.045300	-9.085200	28.143908	0.000209	20.690734
2366.627481	-2.990700	3.044200	-9.103600	28.151119	0.000207	20.693726
2367.628470	-2.965700	3.044600	-9.028200	28.135689	0.000208	20.703798
2368.632921	-2.973700	3.041600	-9.042500	28.097100	0.000209	20.704305
2369.629160	-2.988000	3.042600	-9.090100	28.101704	0.000207	20.708467
2370.631524	-2.995200	3.040500	-9.106200	28.097741	0.000205	20.708271
2371.628270	-2.997800	3.039100	-9.110200	28.093973	0.000207	20.695467
2372.632383	-2.990300	3.038000	-9.083500	28.096677	0.000205	20.703406
2373.631968	-3.006400	3.035500	-9.124900	28.126935	0.000207	20.692140
2374.634723	-3.004600	3.034000	-9.114500	28.166702	0.000206	20.693293
2375.636348	-3.017000	3.033400	-9.149700	28.163657	0.000205	20.701607
2376.633978	-2.989000	3.033100	-9.064000	28.195634	0.000206	20.697291
2377.634948	-2.992000	3.032100	-9.071100	28.244362	0.000207	20.707943
2378.632209	-3.003200	3.029900	-9.098900	28.269964	0.000206	20.709538
2379.637454	-2.988200	3.029500	-9.051200	28.290189	0.000205	20.704771
2380.632079	-2.982700	3.029100	-9.033800	28.294655	0.000206	20.723494
2381.634220	-3.024200	3.025600	-9.149100	28.325776	0.000207	20.717844
2382.642630	-3.015200	3.024400	-9.117900	28.336486	0.000205	20.704918
2383.638083	-3.011200	3.023300	-9.102800	28.370293	0.000205	20.689646
2384.649410	-3.012500	3.021900	-9.102700	28.361054	0.000208	20.709742
2385.645376	-3.003000	3.021600	-9.073300	28.320061	0.000205	20.687431
2386.643089	-3.027900	3.020500	-9.145000	28.294127	0.000203	20.695459
2387.636301	-2.986100	3.020400	-9.017500	28.283962	0.000206	20.693284
2388.636817	-3.014100	3.018300	-9.096500	28.302847	0.000205	20.716569
2389.638379	-2.997600	3.015900	-9.039100	28.314223	0.000206	20.704313
2390.640841	-3.017400	3.015100	-9.096800	28.329389	0.000205	20.721482
2391.641088	-2.980100	3.014000	-8.981100	28.352910	0.000204	20.704861
2392.638588	-2.986200	3.013900	-8.998800	28.411373	0.000205	20.715367
2393.642048	-3.006900	3.012100	-9.055500	28.433699	0.000205	20.702286
2394.640445	-2.982500	3.012100	-8.983100	28.471116	0.000205	20.713887
2395.638197	-2.991500	3.010800	-9.005000	28.531382	0.000205	20.711990
2396.649678	-2.977500	3.008300	-8.956000	28.558738	0.000203	20.718678
2397.642622	-2.990700	3.008600	-8.996300	28.576361	0.000205	20.717460
2398.652624	-2.967400	3.006800	-8.921500	28.572270	0.000203	20.720926
2399.638606	-3.000600	3.005600	-9.017500	28.589186	0.000204	20.728954
2400.641750	-3.010900	3.002100	-9.038000	28.585452	0.000202	20.729935
2401.648766	-3.006900	3.002200	-9.027300	28.598359	0.000202	20.726812
2402.641746	-3.002000	3.001700	-9.010500	28.581962	0.000205	20.709349
2403.640899	-3.010400	2.998900	-9.026500	28.576605	0.000202	20.751846
2404.641875	-2.989000	2.999800	-8.965000	28.586962	0.000204	20.738095
2405.649036	-2.980700	2.997700	-8.933900	28.586118	0.000204	20.713061
2406.640634	-2.990400	2.995100	-8.956200	28.595777	0.000204	20.713780
2407.659221	-2.982400	2.994700	-8.930000	28.573853	0.000203	20.719675
2408.646979	-3.016300	2.992400	-9.024800	28.535198	0.000203	20.728635
2409.640067	-3.005100	2.993200	-8.994000	28.517477	0.000203	20.736394
2410.638647	-3.005900	2.991000	-8.989500	28.482456	0.000202	20.730524
2411.642703	-2.988600	2.990200	-8.935100	28.457631	0.000202	20.719749
2412.646731	-3.027400	2.987900	-9.044700	28.436345	0.000204	20.709218
2413.648874	-3.001000	2.987300	-8.964200	28.434949	0.000202	20.725831
2414.649500	-2.999200	2.985200	-8.952300	28.439211	0.000203	20.737236
2415.641325	-3.001400	2.984700	-8.957800	28.445535	0.000205	20.741234
2416.652671	-2.986300	2.982100	-8.903600	28.454749	0.000202	20.720165
2417.645967	-2.993300	2.982200	-8.926300	28.438789	0.000201	20.735862
2418.651807	-2.990900	2.980900	-8.914700	28.466845	0.000200	20.739460
2419.643942	-2.993000	2.980400	-8.919100	28.485557	0.000201	20.730328
2420.643661	-3.017400	2.975200	-8.976100	28.450284	0.000203	20.723256
2421.642363	-2.994500	2.975300	-8.908700	28.409749	0.000203	20.716102
2422.644125	-2.994400	2.974500	-8.906000	28.386124	0.000202	20.710804
2423.651635	-2.995900	2.973600	-8.907200	28.366550	0.000204	20.731399
2424.647040	-2.992600	2.972600	-8.894800	28.370503	0.000202	20.750554
2425.657244	-2.980300	2.972000	-8.857200	28.348282	0.000203	20.714900
2426.649076	-2.985900	2.969300	-8.864500	28.335998	0.000202	20.715808
2427.655590	-3.007100	2.966800	-8.920400	28.311291	0.000201	20.748779
2428.648025	-2.976100	2.966700	-8.828000	28.305145	0.000200	20.740220
2429.648017	-3.005700	2.964200	-8.908700	28.277222	0.000201	20.733917
2430.648500	-3.017000	2.961300	-8.933400	28.324184	0.000201	20.729518
2431.645854	-3.021300	2.961500	-8.945600	28.334666	0.000201	20.717312
2432.644132	-2.967400	2.961700	-8.787100	28.369740	0.000202	20.743147
2433.649205	-2.984100	2.957600	-8.823600	28.410285	0.000201	20.747937
2434.656683	-3.014900	2.955300	-8.907900	28.450105	0.000201	20.759587
2435.649801	-3.009800	2.954600	-8.891500	28.460959	0.000200	20.759138
2436.652770	-3.041700	2.952700	-8.979900	28.483511	0.000201	20.729216
2437.650967	-2.979500	2.953600	-8.799400	28.448839	0.000200	20.725120
2438.652818	-3.000200	2.951800	-8.855600	28.423688	0.000200	20.736304
2439.658402	-3.010600	2.948900	-8.876200	28.398829	0.000203	20.745885
2440.651472	-2.969100	2.949700	-8.755700	28.418168	0.000202	20.744022
2441.655327	-3.015100	2.945900	-8.881100	28.443538	0.000201	20.734481
2442.648556	-3.026500	2.943700	-8.908400	28.489933	0.000200	20.755124
2443.658449	-3.002600	2.943100	-8.836800	28.514270	0.000200	20.735061
2444.652389	-3.009600	2.941100	-8.850600	28.524279	0.000200	20.726649
2445.657192	-3.008100	2.940800	-8.844600	28.518775	0.000198	20.735331
2446.648929	-2.996700	2.939300	-8.807500	28.520245	0.000200	20.734440
2447.651156	-3.010000	2.936900	-8.839100	28.506071	0.000200	20.744823
2448.659766	-3.036500	2.932800	-8.903900	28.557935	0.000202	20.759121
2449.656992	-3.004400	2.934000	-8.814000	28.601695	0.000201	20.755778
2450.652353	-2.991900	2.931700	-8.770000	28.589876	0.000199	20.766635
2451.657410	-2.979600	2.931500	-8.733700	28.616881	0.000199	20.751159
2452.666686	-2.965700	2.930100	-8.688700	28.593496	0.000200	20.756056
2453.650295	-2.990500	2.927000	-8.751600	28.640120	0.000197	20.754649
2454.660596	-2.998500	2.926600	-8.774200	28.642133	0.000200	20.755255
2455.668060	-3.016800	2.922600	-8.815600	28.655664	0.000200	20.765089
2456.652102	-3.005900	2.922500	-8.784300	28.697358	0.000201	20.744496
2457.659955	-3.013100	2.922100	-8.803400	28.691904	0.000199	20.762710
2458.657076	-2.997500	2.919500	-8.749700	28.703080	0.000200	20.748837
2459.652812	-3.003200	2.916300	-8.758000	28.711050	0.000199	20.760184
2460.669083	-2.993200	2.915000	-8.723700	28.702901	0.000199	20.747709
2461.655243	-2.977600	2.914900	-8.679200	28.697950	0.000200	20.767378
2462.655798	-2.991100	2.911600	-8.708500	28.722575	0.000200	20.761836
2463.657425	-3.002300	2.911300	-8.739800	28.668764	0.000199	20.762637
2464.655513	-2.999500	2.909000	-8.725000	28.629170	0.000197	20.766381
2465.664921	-2.996000	2.907000	-8.706600	28.614422	0.000199	20.756742
2466.655900	-2.972300	2.905700	-8.635600	28.599836	0.000199	20.773346
2467.656365	-2.994100	2.902300	-8.689300	28.563755	0.000198	20.768302
2468.651675	-2.992200	2.902600	-8.683900	28.536107	0.000199	20.759424
2469.652757	-2.987000	2.899000	-8.658300	28.516332	0.000197	20.746621
2470.655760	-3.034500	2.897700	-8.792100	28.510934	0.000200	20.782912
2471.659766	-3.003200	2.895800	-8.695500	28.556376	0.000197	20.759923
2472.654542	-3.012900	2.893700	-8.716700	28.602888	0.000199	20.777843
2473.656343	-2.991100	2.894200	-8.655700	28.618724	0.000198	20.765343
2474.654882	-3.003500	2.891200	-8.682100	28.680963	0.000200	20.761648
2475.656089	-3.002600	2.888300	-8.671600	28.694939	0.000200	20.776200
2476.658894	-3.007400	2.886600	-8.679700	28.699866	0.000198	20.760773
2477.655411	-3.001500	2.886200	-8.661500	28.696076	0.000198	20.750317
2478.657993	-2.990300	2.884600	-8.624800	28.675614	0.000201	20.770011
2479.662415	-3.001100	2.882000	-8.648300	28.642831	0.000200	20.762596
2480.679749	-3.000900	2.880300	-8.642900	28.686515	0.000198	20.782887
2481.669751	-2.988900	2.877400	-8.599700	28.673236	0.000203	20.781366
2482.672766	-3.005800	2.875500	-8.642600	28.657620	0.000198	20.766111
2483.661145	-3.005200	2.875100	-8.638200	28.631216	0.000199	20.762752
2484.669394	-3.020500	2.872900	-8.677000	28.622466	0.000200	20.779069
2485.662650	-3.030700	2.870000	-8.696600	28.615039	0.000199	20.777279
2486.663198	-2.988500	2.868400	-8.570200	28.658001	0.000197	20.778350
2487.660611	-2.980500	2.866800	-8.543500	28.685679	0.000200	20.769243
2488.670306	-3.017800	2.862700	-8.637700	28.724125	0.000200	20.761975
2489.662467	-3.007800	2.862000	-8.608100	28.749447	0.000199	20.788904
2490.658454	-2.994400	2.859500	-8.561100	28.742987	0.000197	20.763904
2491.659961	-3.046500	2.855500	-8.697400	28.739246	0.000200	20.784318
2492.678635	-2.996400	2.856500	-8.557700	28.728687	0.000197	20.787907
2493.665335	-2.969300	2.856500	-8.480600	28.779955	0.000197	20.767951
2494.661365	-2.984300	2.852800	-8.512900	28.808619	0.000199	20.767902
2495.661901	-2.995300	2.850300	-8.536400	28.764535	0.000199	20.781342
2496.664288	-3.005700	2.847900	-8.559300	28.754017	0.000199	20.778334
2497.663610	-3.021200	2.845700	-8.596300	28.681402	0.000199	20.750709
2498.670906	-3.022000	2.843200	-8.590800	28.624780	0.000199	20.786615
2499.665578	-2.989800	2.841700	-8.495600	28.541627	0.000199	20.786795
2500.663886	-3.012000	2.839900	-8.552300	28.531220	0.000199	20.798126
2501.661428	-2.992000	2.838600	-8.491900	28.480200	0.000198	20.794161
2502.665792	-3.000700	2.837100	-8.511700	28.496980	0.000199	20.809636
2503.673042	-2.998500	2.832700	-8.492200	28.505203	0.000198	20.789943
2504.675470	-3.026500	2.830800	-8.566200	28.555338	0.000198	20.787327
2505.661199	-3.006400	2.828400	-8.502700	28.575956	0.000199	20.778694
2506.659851	-3.029700	2.825900	-8.559800	28.567132	0.000199	20.761272
2507.666230	-2.996800	2.824700	-8.464100	28.553998	0.000199	20.782659
2508.669257	-3.005800	2.822600	-8.482800	28.523136	0.000199	20.785242
2509.664936	-2.989600	2.821800	-8.435600	28.516114	0.000199	20.791447
2510.664669	-3.006600	2.817500	-8.470100	28.549022	0.000199	20.783811
2511.664974	-3.002100	2.814800	-8.449100	28.557895	0.000200	20.801756
2512.665361	-3.003600	2.814200	-8.450800	28.612215	0.000200	20.811419
2513.667222	-3.012800	2.810400	-8.466100	28.636273	0.000197	20.787760
2514.667612	-3.016900	2.808700	-8.472200	28.664617	0.000199	20.791651
2515.664721	-3.001200	2.805300	-8.417900	28.667149	0.000199	20.784719
2516.673097	-2.969000	2.805400	-8.328400	28.677579	0.000200	20.799966
2517.666451	-3.008900	2.800500	-8.425000	28.685606	0.000199	20.794774
2518.676670	-3.022500	2.797200	-8.453500	28.715215	0.000199	20.813691
2519.671086	-2.978300	2.797400	-8.330500	28.698122	0.000199	20.800742
2520.676653	-3.018300	2.794700	-8.433800	28.676971	0.000198	20.792714
2521.668377	-3.015800	2.790800	-8.415600	28.686808	0.000197	20.781760
2522.669094	-3.005800	2.789400	-8.383200	28.682993	0.000197	20.809212
2523.676274	-2.968400	2.787200	-8.271800	28.707391	0.000197	20.790638
2524.675097	-2.995800	2.782600	-8.334700	28.728850	0.000198	20.792813
2525.671606	-3.028900	2.779300	-8.417800	28.771986	0.000198	20.790270
2526.672941	-2.962400	2.778900	-8.231400	28.793095	0.000199	20.805844
2527.678364	-2.981600	2.776200	-8.276300	28.855770	0.000198	20.807340
2528.670926	-2.974500	2.774800	-8.252400	28.892734	0.000198	20.790050
2529.676788	-3.006700	2.769700	-8.326500	28.905490	0.000199	20.810013
2530.676594	-3.013600	2.767500	-8.339700	28.902966	0.000199	20.802729
2531.690184	-2.989000	2.764800	-8.262400	28.880099	0.000198	20.806718
2532.677176	-2.954600	2.762300	-8.160200	28.873688	0.000199	20.812588
2533.681542	-2.988500	2.758500	-8.242600	28.918628	0.000198	20.808550
2534.676801	-2.970600	2.756800	-8.188500	28.932277	0.000198	20.802860
2535.674094	-2.966800	2.753700	-8.168600	28.877259	0.000200	20.788210
2536.679450	-2.980100	2.749300	-8.192600	28.901936	0.000198	20.790311
2537.687192	-2.992500	2.746200	-8.217300	28.897318	0.000197	20.804152
2538.676731	-2.970300	2.745000	-8.152500	28.879750	0.000200	20.813954
2539.675054	-2.982900	2.740000	-8.171800	28.865533	0.000198	20.811011
2540.678537	-2.992900	2.737200	-8.190800	28.890024	0.000200	20.822406
2541.675513	-3.008400	2.733100	-8.220900	28.921484	0.000198	20.825652
2542.691348	-2.975100	2.730400	-8.120700	28.930078	0.000199	20.802541
2543.674952	-2.993300	2.728200	-8.165600	28.969595	0.000196	20.825284
2544.684302	-3.011300	2.723300	-8.199400	28.948157	0.000198	20.826919
2545.678758	-3.004800	2.721400	-8.176400	28.957407	0.000197	20.819169
2546.679172	-2.975700	2.716200	-8.081800	28.971972	0.000199	20.813455
2547.692464	-3.032300	2.713100	-8.226300	29.006668	0.000199	20.827074
2548.680422	-2.976700	2.710600	-8.066500	29.076698	0.000197	20.823192
2549.680023	-2.962000	2.708600	-8.021800	29.132622	0.000197	20.826911
2550.682826	-3.019900	2.702200	-8.159300	29.182442	0.000197	20.820216
2551.686380	-3.009800	2.698500	-8.119900	29.205555	0.000200	20.833075
2552.681830	-2.998100	2.694600	-8.077300	29.230565	0.000199	20.819398
2553.678266	-2.977700	2.693100	-8.018300	29.206764	0.000199	20.834767
2554.684032	-3.001400	2.687600	-8.065900	29.176269	0.000199	20.824900
2555.693358	-3.010600	2.685000	-8.081700	29.155955	0.000198	20.822448
2556.681256	-3.031000	2.678900	-8.118400	29.154998	0.000199	20.812000
2557.690598	-2.982700	2.676600	-7.982500	29.166088	0.000197	20.821753
2558.684576	-2.977000	2.673300	-7.957400	29.181218	0.000199	20.827042
2559.690292	-3.015100	2.667800	-8.041400	29.200412	0.000200	20.835004
2560.685704	-2.989700	2.666500	-7.971100	29.214852	0.000198	20.826323
2561.687253	-3.030400	2.659900	-8.059800	29.248331	0.000198	20.837302
2562.688607	-2.968400	2.657600	-7.888000	29.259769	0.000198	20.816586
2563.683814	-3.005100	2.653000	-7.971100	29.269934	0.000198	20.830149
2564.690528	-2.996800	2.648400	-7.935400	29.299055	0.000199	20.832471
2565.689263	-3.009800	2.644900	-7.959700	29.325523	0.000197	20.824059
2566.689337	-3.015800	2.640300	-7.960900	29.362763	0.000198	20.839305
2567.688394	-2.989300	2.636800	-7.880400	29.364896	0.000199	20.826756
2568.692483	-3.019200	2.631800	-7.945000	29.352883	0.000197	20.839779
2569.684012	-2.996100	2.627000	-7.869700	29.351926	0.000199	20.843082
2570.691139	-2.985200	2.621700	-7.824700	29.391517	0.000200	20.851215
2571.687137	-2.995300	2.617400	-7.839000	29.367849	0.000198	20.844430
2572.682311	-2.997600	2.613000	-7.831700	29.344999	0.000198	20.835626
2573.687865	-2.994100	2.608300	-7.808700	29.354928	0.000198	20.844684
2574.690844	-2.995800	2.603300	-7.798400	29.393699	0.000197	20.827337
2575.692537	-3.015300	2.596500	-7.829000	29.409572	0.000200	20.832430
2576.687478	-2.991100	2.593500	-7.757300	29.422825	0.000198	20.851951
2577.686410	-3.008600	2.586800	-7.780200	29.333125	0.000199	20.866805
2578.689826	-3.004500	2.581600	-7.754300	29.263494	0.000201	20.834564
2579.690330	-3.005500	2.576300	-7.742300	29.226721	0.000198	20.841602
2580.700344	-3.029800	2.570600	-7.787400	29.224969	0.000199	20.840785
2581.692317	-2.996700	2.566200	-7.688400	29.274737	0.000201	20.854903
2582.687078	-3.004000	2.559600	-7.688200	29.328428	0.000197	20.840262
2583.692058	-3.027100	2.553500	-7.728800	29.373892	0.000199	20.861426
2584.691294	-3.041800	2.547400	-7.746600	29.421333	0.000199	20.849025
2585.698053	-3.011600	2.540500	-7.649900	29.463273	0.000200	20.838668
2586.701005	-2.970400	2.536900	-7.534700	29.508585	0.000200	20.848306
2587.697511	-3.015100	2.529600	-7.625600	29.522745	0.000198	20.853571
2588.694334	-3.010600	2.524800	-7.599900	29.515276	0.000198	20.856947
2589.691653	-3.022600	2.517500	-7.608600	29.543588	0.000202	20.855140
2590.695427	-3.011000	2.510800	-7.559200	29.513443	0.000200	20.856522
2591.700817	-3.037300	2.503400	-7.602500	29.513890	0.000199	20.850334
2592.695880	-3.009400	2.500500	-7.524300	29.510524	0.000199	20.840303
2593.702139	-3.012100	2.493300	-7.509500	29.537636	0.000200	20.848666
