LabVIEW Measurement	
Writer_Version	2
Reader_Version	2
Separator	Tab
Decimal_Separator	.
Multi_Headings	No
X_Columns	One
Time_Pref	Absolute
Operator	admin
Description	Clolumns are: time, Current, Voltage, Power, Battery Temp, and Chamber Temp
Date	2024/08/16
Time	13:06:06.104549407958984375
***End_of_Header***	
	
Channels	6						
Samples	1	1	1	1	1	1	
Date	2024/09/18	2024/09/18	2024/09/18	2024/09/18	2024/09/18	2024/09/18	
Time	14:02:38.8897957801818847656	14:02:38.8958368301391601562	14:02:38.9038519859313964844	14:02:38.8700366020202636719	14:02:38.8700366020202636719	14:02:38.8700366020202636719	
X_Dimension	Time	Time	Time	Time	Time	Time	
X0	0.0000000000000000E+0	0.0000000000000000E+0	0.0000000000000000E+0	0.0000000000000000E+0	0.0000000000000000E+0	0.0000000000000000E+0	
Delta_X	1.000000	1.000000	1.000000	1.000000	1.000000	1.000000	
***End_of_Header***							
X_Value	Untitled	Untitled 1	Untitled 2	Untitled 3	Untitled 4	Untitled 5	Comment
0.000000	-0.005589	4.093600	-0.022859	20.943151	0.000991	20.774361
0.995945	-2.985400	3.908900	-11.669000	20.930173	0.000989	20.766597
1.996436	-2.993300	3.900900	-11.675000	20.951507	0.000988	20.785564
2.998273	-2.987900	3.895500	-11.639000	20.945319	0.000986	20.755193
3.998367	-2.980300	3.891800	-11.597000	20.934737	0.000987	20.761678
4.997685	-2.990100	3.887700	-11.623000	20.943423	0.000985	20.767995
6.000803	-2.987000	3.884600	-11.602000	20.950559	0.000985	20.779874
6.996800	-2.990800	3.882700	-11.611000	20.956471	0.000985	20.791002
7.998491	-3.012200	3.880300	-11.687000	20.938583	0.000982	20.774060
9.001682	-3.018300	3.875800	-11.697000	20.957423	0.000982	20.753073
10.000162	-3.004200	3.877000	-11.646000	20.962362	0.000982	20.755642
10.999678	-2.983700	3.874000	-11.558000	20.967478	0.000982	20.783519
12.000082	-2.983500	3.873500	-11.555000	20.959695	0.000980	20.773838
12.999625	-2.988200	3.870700	-11.565000	20.964881	0.000981	20.759110
14.000440	-2.996300	3.868800	-11.591000	20.986363	0.000978	20.761629
15.004971	-2.989500	3.867300	-11.560000	20.964130	0.000978	20.768791
16.001775	-3.009900	3.866700	-11.637000	20.974263	0.000976	20.755691
16.999738	-3.017000	3.864300	-11.658000	21.001009	0.000978	20.781494
18.001946	-2.985700	3.865600	-11.538000	20.994372	0.000977	20.753044
18.999965	-3.024600	3.863200	-11.683000	21.018752	0.000978	20.763204
19.999984	-3.003900	3.862900	-11.603000	21.013187	0.000976	20.777553
21.007291	-2.996100	3.862000	-11.569000	21.039833	0.000975	20.759633
22.005486	-2.999900	3.859700	-11.577000	21.014535	0.000976	20.767995
23.002853	-3.005700	3.860500	-11.601000	21.042653	0.000974	20.757712
24.008304	-3.033500	3.857400	-11.699000	21.049689	0.000974	20.736300
25.005147	-2.995400	3.859000	-11.558000	21.049892	0.000972	20.772065
26.003151	-3.014200	3.857400	-11.625000	21.071495	0.000972	20.755741
27.007028	-2.997100	3.858100	-11.562000	21.060321	0.000973	20.782496
28.006674	-3.000300	3.855400	-11.567000	21.063491	0.000975	20.749156
29.002049	-3.012900	3.856200	-11.618000	21.062419	0.000972	20.759939
30.006085	-3.006500	3.853900	-11.585000	21.077609	0.000975	20.757588
31.007327	-2.989800	3.855500	-11.525000	21.076887	0.000974	20.756867
32.003667	-2.982500	3.853700	-11.492000	21.073124	0.000974	20.750258
33.008788	-3.005600	3.851600	-11.576000	21.101117	0.000972	20.732738
34.004076	-2.996800	3.851700	-11.542000	21.090758	0.000972	20.729488
35.007166	-2.995200	3.851300	-11.535000	21.133124	0.000972	20.737253
36.003845	-2.981000	3.852700	-11.484000	21.117733	0.000971	20.743194
37.006521	-2.983400	3.850900	-11.488000	21.116760	0.000970	20.734634
38.005476	-3.003900	3.850100	-11.564000	21.134501	0.000973	20.751907
39.005731	-2.998500	3.851100	-11.546000	21.135424	0.000969	20.774168
40.008390	-2.993700	3.850200	-11.525000	21.152513	0.000971	20.749536
41.008807	-3.012400	3.848600	-11.592000	21.157678	0.000972	20.745219
42.008440	-3.003900	3.848400	-11.559000	21.169380	0.000969	20.755503
43.013535	-2.999100	3.848000	-11.537000	21.170876	0.000971	20.738506
44.012196	-3.013500	3.846800	-11.591000	21.177013	0.000971	20.750810
45.012335	-2.993300	3.847500	-11.515000	21.191410	0.000970	20.739608
46.013506	-3.006200	3.846300	-11.562000	21.196051	0.000969	20.757053
47.013499	-3.008100	3.844800	-11.564000	21.198594	0.000969	20.745372
48.013573	-3.034400	3.844400	-11.664000	21.208977	0.000969	20.765716
49.015306	-2.999800	3.845300	-11.534000	21.210819	0.000971	20.743376
50.021935	-3.004300	3.843800	-11.546000	21.230529	0.000969	20.730376
51.013532	-2.990600	3.844700	-11.497000	21.221000	0.000970	20.745026
52.016372	-2.978600	3.845700	-11.453000	21.232622	0.000969	20.754756
53.014091	-2.998900	3.843600	-11.525000	21.235071	0.000970	20.729230
54.016262	-2.996500	3.843100	-11.515000	21.257170	0.000970	20.743277
55.015287	-2.985000	3.843400	-11.471000	21.256172	0.000968	20.741331
56.013578	-2.976800	3.842000	-11.435000	21.263933	0.000966	20.731551
57.013827	-2.999400	3.841100	-11.520000	21.277728	0.000968	20.729230
58.012282	-3.006900	3.841100	-11.549000	21.292198	0.000967	20.730430
59.016391	-2.979500	3.840400	-11.440000	21.312928	0.000970	20.729358
60.015527	-2.993000	3.840700	-11.494000	21.309388	0.000967	20.730558
61.015482	-2.998400	3.839000	-11.510000	21.307443	0.000968	20.727189
62.019697	-3.007100	3.840000	-11.545000	21.313653	0.000968	20.737670
63.017814	-2.989600	3.840200	-11.480000	21.327526	0.000969	20.725944
64.019165	-3.003700	3.839500	-11.531000	21.342696	0.000970	20.728319
65.018490	-2.998600	3.839300	-11.511000	21.334639	0.000971	20.729268
66.019613	-2.985600	3.838400	-11.459000	21.337379	0.000969	20.732484
67.018451	-2.987800	3.837900	-11.466000	21.346714	0.000968	20.716692
68.018351	-3.021600	3.838000	-11.596000	21.341377	0.000967	20.738855
69.018105	-3.008800	3.836900	-11.544000	21.377742	0.000970	20.733511
70.019511	-3.013900	3.836000	-11.558000	21.362758	0.000968	20.731322
71.026262	-3.012600	3.836300	-11.556000	21.347613	0.000970	20.724229
72.019918	-3.001900	3.836600	-11.514000	21.357520	0.000969	20.734616
73.020205	-3.002400	3.836900	-11.518000	21.371437	0.000969	20.724831
74.020126	-3.011400	3.835600	-11.549000	21.367423	0.000969	20.719867
75.020812	-2.998800	3.836400	-11.504000	21.395034	0.000969	20.700075
76.019796	-2.992600	3.836000	-11.477000	21.388102	0.000971	20.714952
77.021316	-2.988800	3.834900	-11.461000	21.438558	0.000968	20.728926
78.026825	-3.003500	3.835600	-11.519000	21.420633	0.000969	20.708619
79.020573	-3.001000	3.834600	-11.506000	21.408085	0.000968	20.706970
80.017958	-2.985700	3.834100	-11.446000	21.455400	0.000970	20.735821
81.019734	-3.010700	3.833200	-11.540000	21.454152	0.000969	20.713707
82.021060	-3.004800	3.832600	-11.514000	21.448820	0.000971	20.727814
83.020668	-2.999000	3.832800	-11.494000	21.471768	0.000970	20.714264
84.021918	-2.992400	3.832300	-11.467000	21.477924	0.000969	20.709992
85.025338	-3.009500	3.832000	-11.531000	21.487233	0.000970	20.729739
86.021326	-2.977500	3.833800	-11.414000	21.506711	0.000970	20.721728
87.026771	-3.006100	3.831500	-11.516000	21.526218	0.000970	20.721806
88.023050	-2.998200	3.832000	-11.488000	21.521179	0.000968	20.715815
89.020754	-3.016600	3.832100	-11.559000	21.544027	0.000969	20.725876
90.020689	-3.006500	3.831500	-11.517000	21.537546	0.000970	20.721287
91.023353	-3.021500	3.829500	-11.570000	21.539540	0.000970	20.710954
92.020393	-3.012300	3.830600	-11.539000	21.557151	0.000969	20.707713
93.021827	-3.010100	3.830800	-11.530000	21.549268	0.000971	20.705990
94.024124	-3.004000	3.829200	-11.502000	21.569500	0.000970	20.710588
95.022383	-3.001200	3.830500	-11.495000	21.570546	0.000971	20.726809
96.023781	-3.016500	3.828700	-11.547000	21.574741	0.000971	20.703504
97.025240	-3.003800	3.828300	-11.498000	21.574618	0.000970	20.710493
98.024746	-3.041300	3.827200	-11.638000	21.584494	0.000974	20.691926
99.024339	-2.997100	3.829900	-11.477000	21.615692	0.000970	20.719355
100.028522	-2.982000	3.829700	-11.420000	21.587317	0.000971	20.699493
101.025702	-3.002300	3.827700	-11.490000	21.637191	0.000972	20.691081
102.024865	-2.997500	3.827900	-11.473000	21.641786	0.000972	20.706111
103.029945	-2.994700	3.827400	-11.461000	21.626303	0.000974	20.717170
104.025706	-3.000800	3.827700	-11.485000	21.645156	0.000974	20.684352
105.024827	-3.002200	3.825600	-11.484000	21.627403	0.000974	20.703572
106.029355	-2.985600	3.825800	-11.421000	21.649528	0.000972	20.698686
107.025186	-2.967200	3.827500	-11.355000	21.647954	0.000974	20.710862
108.025623	-3.005400	3.826200	-11.497000	21.645215	0.000974	20.697688
109.032757	-2.972800	3.827000	-11.375000	21.646162	0.000974	20.707172
110.030508	-3.007400	3.824400	-11.500000	21.674496	0.000974	20.701862
111.028047	-2.995300	3.825300	-11.457000	21.683246	0.000974	20.712990
112.030501	-3.007400	3.824100	-11.500000	21.712576	0.000976	20.717213
113.032106	-3.015800	3.824700	-11.534000	21.723502	0.000975	20.703017
114.027924	-2.993900	3.825200	-11.451000	21.698545	0.000977	20.719292
115.032819	-2.999200	3.824700	-11.469000	21.723581	0.000976	20.713053
116.030060	-2.991700	3.823800	-11.438000	21.719840	0.000977	20.687971
117.027992	-3.021100	3.821900	-11.545000	21.732163	0.000978	20.703149
118.032603	-2.986600	3.824800	-11.421000	21.719667	0.000977	20.699653
119.031024	-2.985800	3.823600	-11.416000	21.743809	0.000978	20.685406
120.028054	-2.984700	3.823200	-11.410000	21.727351	0.000979	20.690272
121.041336	-2.999600	3.822500	-11.464000	21.732542	0.000980	20.693571
122.032124	-2.995800	3.822300	-11.448000	21.730326	0.000980	20.705105
123.029773	-3.000700	3.822300	-11.468000	21.748527	0.000979	20.699612
124.031493	-2.996100	3.822100	-11.451000	21.783219	0.000980	20.702091
125.030993	-2.982000	3.822200	-11.397000	21.763321	0.000981	20.691185
126.032843	-2.993200	3.822600	-11.440000	21.781645	0.000979	20.700041
127.029341	-3.001300	3.821900	-11.469000	21.806576	0.000981	20.688483
128.033666	-2.997000	3.821000	-11.451000	21.818749	0.000982	20.695927
129.031400	-3.004000	3.820800	-11.476000	21.832714	0.000980	20.700896
130.030761	-3.000200	3.820700	-11.461000	21.854111	0.000981	20.710932
131.030316	-2.990800	3.822200	-11.430000	21.835759	0.000981	20.682604
132.037861	-2.996200	3.821500	-11.448000	21.859247	0.000982	20.687148
133.032200	-3.010100	3.819600	-11.496000	21.861266	0.000983	20.694385
134.034199	-3.000900	3.819100	-11.458000	21.868578	0.000984	20.702653
135.034317	-2.996900	3.821100	-11.450000	21.860397	0.000982	20.684980
136.032294	-2.995000	3.821100	-11.443000	21.865810	0.000982	20.668111
137.033234	-2.984300	3.820200	-11.399000	21.856859	0.000982	20.685232
138.036864	-3.013100	3.818400	-11.505000	21.865060	0.000983	20.692019
139.034827	-2.996000	3.819900	-11.443000	21.882168	0.000985	20.679269
140.034939	-3.004500	3.817000	-11.467000	21.909144	0.000984	20.698687
141.032278	-2.987700	3.817600	-11.404000	21.914976	0.000984	20.675125
142.034452	-2.981000	3.818700	-11.382000	21.901194	0.000985	20.689306
143.035664	-3.007800	3.816800	-11.479000	21.926671	0.000985	20.701058
144.035212	-2.985700	3.816800	-11.394000	21.936120	0.000986	20.696765
145.033170	-3.002800	3.817300	-11.461000	21.937042	0.000984	20.705276
146.035750	-3.018100	3.815600	-11.515000	21.965216	0.000987	20.703132
147.037107	-2.993400	3.816400	-11.421000	21.956492	0.000987	20.687286
148.036048	-3.010400	3.816000	-11.486000	21.977137	0.000989	20.690407
149.034838	-3.011500	3.814700	-11.486000	21.987607	0.000988	20.688560
150.035279	-3.008100	3.815700	-11.476000	21.988406	0.000990	20.687463
151.035638	-3.002000	3.814600	-11.449000	22.002369	0.000988	20.701916
152.034360	-3.003400	3.815500	-11.458000	22.005832	0.000988	20.706332
153.037737	-2.993900	3.814300	-11.418000	22.027472	0.000990	20.709503
154.036190	-2.983600	3.815400	-11.382000	22.038469	0.000991	20.702968
155.035268	-2.999500	3.814800	-11.442000	22.040433	0.000990	20.703038
156.036962	-2.998100	3.813800	-11.433000	22.055767	0.000991	20.703689
157.038455	-2.988800	3.814100	-11.399000	22.062452	0.000991	20.695682
158.038167	-3.021800	3.812800	-11.521000	22.091965	0.000992	20.702943
159.036550	-3.028200	3.813000	-11.544000	22.089429	0.000991	20.695188
160.037148	-3.006100	3.812800	-11.461000	22.123253	0.000994	20.693963
161.037036	-2.997000	3.811800	-11.422000	22.103810	0.000994	20.708638
162.039072	-2.988400	3.813400	-11.395000	22.114353	0.000993	20.712555
163.037930	-3.001300	3.813400	-11.443000	22.127268	0.000995	20.717425
164.040599	-2.987300	3.813500	-11.389000	22.111018	0.000996	20.697835
165.045268	-2.997700	3.812000	-11.426000	22.116824	0.000997	20.681362
166.041188	-3.013000	3.810600	-11.481000	22.109996	0.000997	20.692071
167.043489	-3.004500	3.812200	-11.453000	22.106982	0.000996	20.700433
168.040712	-3.021000	3.810800	-11.511000	22.124382	0.000999	20.711216
169.042521	-2.997400	3.811900	-11.424000	22.129266	0.000998	20.714684
170.040348	-2.980500	3.812100	-11.361000	22.170646	0.000997	20.714387
171.045156	-2.992300	3.812000	-11.405000	22.150953	0.001000	20.692298
172.043110	-3.001700	3.810200	-11.436000	22.161870	0.000998	20.719826
173.049704	-2.979300	3.811700	-11.356000	22.148634	0.001000	20.705151
174.046787	-2.991800	3.811400	-11.402000	22.166828	0.000999	20.701081
175.046023	-2.987600	3.809700	-11.381000	22.168348	0.000999	20.687902
176.047527	-3.014400	3.808500	-11.479000	22.164539	0.001000	20.724869
177.044250	-2.992000	3.809300	-11.397000	22.150978	0.001003	20.681416
178.046208	-2.993400	3.809600	-11.401000	22.159779	0.000999	20.697341
179.047204	-2.988900	3.809300	-11.384000	22.164791	0.001004	20.709947
180.045640	-2.984300	3.810300	-11.370000	22.200877	0.001003	20.693444
181.045470	-2.997500	3.809800	-11.419000	22.195001	0.001004	20.703683
182.047356	-2.996400	3.808400	-11.410000	22.161924	0.001003	20.697593
183.047508	-3.005600	3.808200	-11.444000	22.217580	0.001003	20.708746
184.045734	-3.013500	3.807400	-11.472000	22.211349	0.001004	20.701559
185.054843	-3.006000	3.808000	-11.446000	22.236000	0.001004	20.720077
186.047516	-3.016100	3.807000	-11.480000	22.262094	0.001006	20.695943
187.049547	-3.016000	3.806400	-11.479000	22.270391	0.001007	20.723219
188.048716	-2.980600	3.807000	-11.345000	22.269819	0.001006	20.718378
189.049775	-3.003500	3.807000	-11.434000	22.288287	0.001008	20.698462
190.048418	-3.009900	3.806000	-11.453000	22.295094	0.001008	20.709072
191.054374	-3.009500	3.805900	-11.452000	22.325469	0.001007	20.724316
192.054179	-2.993000	3.805500	-11.389000	22.316201	0.001008	20.706025
193.050766	-3.006000	3.805900	-11.439000	22.320685	0.001010	20.720947
194.054955	-2.994400	3.805900	-11.395000	22.337411	0.001010	20.714461
195.052140	-3.019600	3.805300	-11.490000	22.334841	0.001009	20.699559
196.053115	-2.996600	3.804800	-11.400000	22.355828	0.001010	20.713938
197.054043	-2.982800	3.806200	-11.352000	22.366616	0.001011	20.715731
198.052713	-2.998800	3.805700	-11.412000	22.371454	0.001014	20.724844
199.051090	-2.995800	3.805300	-11.399000	22.382744	0.001011	20.720028
200.055278	-3.018000	3.804600	-11.481000	22.377309	0.001011	20.729759
201.051867	-2.994700	3.804600	-11.392000	22.369284	0.001011	20.717929
202.060996	-3.012700	3.803200	-11.456000	22.371129	0.001014	20.699860
203.057487	-2.981300	3.804400	-11.341000	22.405142	0.001013	20.720646
204.055272	-2.994400	3.803500	-11.389000	22.407958	0.001015	20.704025
205.057098	-3.008100	3.803300	-11.440000	22.414315	0.001015	20.720823
206.056390	-2.996500	3.802500	-11.393000	22.426572	0.001015	20.730253
207.060425	-2.996400	3.802700	-11.393000	22.441008	0.001015	20.722424
208.056787	-2.982800	3.803000	-11.342000	22.440934	0.001015	20.723298
209.060772	-3.003400	3.801400	-11.416000	22.458122	0.001017	20.707319
210.059088	-3.000900	3.801600	-11.407000	22.456080	0.001018	20.717129
211.060109	-3.011300	3.801100	-11.446000	22.457772	0.001017	20.726884
212.060815	-2.963300	3.802800	-11.268000	22.459370	0.001019	20.718053
213.060738	-2.992600	3.801600	-11.374000	22.477090	0.001020	20.724893
214.060577	-2.994900	3.801500	-11.382000	22.507489	0.001019	20.732105
215.061078	-2.982100	3.800600	-11.332000	22.494632	0.001021	20.703106
216.061433	-2.992300	3.800900	-11.372000	22.512821	0.001020	20.736022
217.059813	-2.974200	3.801500	-11.305000	22.509709	0.001021	20.725318
218.061663	-2.985700	3.799400	-11.341000	22.545863	0.001023	20.725965
219.063950	-3.039100	3.797800	-11.540000	22.525382	0.001023	20.731532
220.061007	-3.015600	3.799800	-11.458000	22.540033	0.001022	20.728662
221.063247	-2.999700	3.800000	-11.398000	22.539930	0.001022	20.709591
222.061219	-2.998700	3.798800	-11.390000	22.532212	0.001024	20.733157
223.066106	-3.023600	3.798600	-11.482000	22.543150	0.001023	20.728464
224.063187	-3.017700	3.797600	-11.459000	22.529598	0.001024	20.720581
225.071911	-3.005900	3.796900	-11.412000	22.534855	0.001025	20.743865
226.063561	-3.018400	3.797200	-11.459000	22.535057	0.001024	20.762560
227.066957	-2.999800	3.797800	-11.391000	22.565978	0.001025	20.716239
228.066139	-3.037100	3.795600	-11.526000	22.573750	0.001023	20.723075
229.065444	-2.993900	3.796900	-11.367000	22.604724	0.001028	20.745090
230.065126	-2.999200	3.796900	-11.387000	22.612969	0.001027	20.750504
231.064978	-3.003600	3.796900	-11.403000	22.630262	0.001027	20.757868
232.065949	-2.994500	3.797000	-11.370000	22.644440	0.001028	20.733186
233.067705	-2.981500	3.797200	-11.320000	22.614838	0.001027	20.739099
234.064711	-2.994700	3.795300	-11.364000	22.638483	0.001028	20.749506
235.067003	-3.015900	3.795400	-11.445000	22.666318	0.001028	20.760318
236.065778	-2.990700	3.794500	-11.347000	22.669607	0.001029	20.746542
237.064654	-3.006600	3.795000	-11.409000	22.681112	0.001029	20.743366
238.064851	-3.020100	3.792800	-11.453000	22.676205	0.001031	20.733710
239.067187	-2.997800	3.794400	-11.374000	22.680643	0.001032	20.740526
240.065461	-3.012200	3.793600	-11.426000	22.695816	0.001031	20.733438
241.064313	-3.006700	3.793700	-11.406000	22.726909	0.001032	20.756524
242.066251	-3.014600	3.793600	-11.435000	22.717393	0.001032	20.720437
243.067794	-3.001300	3.793900	-11.386000	22.714927	0.001034	20.751160
244.067349	-2.993800	3.793200	-11.355000	22.732412	0.001035	20.744966
245.067944	-3.002100	3.792400	-11.385000	22.718344	0.001034	20.759799
246.067358	-3.022400	3.792300	-11.461000	22.728832	0.001032	20.754183
247.067576	-3.007300	3.791800	-11.402000	22.698463	0.001036	20.750315
248.065597	-3.015600	3.792100	-11.433000	22.717472	0.001035	20.757502
249.070080	-2.995600	3.791700	-11.357000	22.721254	0.001034	20.739479
250.068491	-2.983400	3.792200	-11.312000	22.707753	0.001036	20.773372
251.069482	-2.991600	3.791700	-11.342000	22.718389	0.001037	20.728074
252.069568	-2.973600	3.791700	-11.275000	22.718591	0.001037	20.766684
253.068340	-2.970400	3.793700	-11.266000	22.737422	0.001039	20.751407
254.068715	-3.004800	3.790200	-11.388000	22.738867	0.001038	20.750009
255.070493	-2.974200	3.792900	-11.280000	22.748959	0.001038	20.745421
256.070623	-2.992400	3.789700	-11.338000	22.737220	0.001037	20.757369
257.069198	-2.996300	3.789900	-11.353000	22.752712	0.001038	20.752499
258.069148	-3.013700	3.789500	-11.419000	22.759166	0.001040	20.762284
259.070573	-2.985800	3.791100	-11.318000	22.746756	0.001042	20.750326
260.071445	-3.003700	3.789600	-11.381000	22.755099	0.001040	20.773857
261.074020	-2.985700	3.789800	-11.314000	22.763022	0.001042	20.748128
262.071092	-2.994400	3.788500	-11.343000	22.741471	0.001042	20.762102
263.068957	-2.991600	3.789000	-11.334000	22.755691	0.001044	20.747896
264.072247	-3.001700	3.788300	-11.369000	22.763467	0.001043	20.760901
265.073080	-2.993100	3.787900	-11.337000	22.785837	0.001042	20.750593
266.073072	-2.999900	3.787700	-11.361000	22.801826	0.001044	20.753335
267.073741	-2.981700	3.788400	-11.295000	22.816430	0.001044	20.769387
268.071957	-3.010600	3.786800	-11.398000	22.837330	0.001046	20.767564
269.076384	-2.994700	3.787400	-11.341000	22.837473	0.001045	20.779088
270.077365	-3.000400	3.786700	-11.361000	22.840712	0.001044	20.760522
271.073224	-2.989600	3.786300	-11.318000	22.872152	0.001045	20.766414
272.073821	-2.989600	3.786600	-11.320000	22.855685	0.001049	20.759400
273.073906	-3.003500	3.785300	-11.368000	22.886523	0.001047	20.758052
274.075346	-3.011000	3.784700	-11.394000	22.880420	0.001046	20.758575
275.075295	-3.004300	3.784800	-11.369000	22.875164	0.001048	20.765638
276.072715	-3.003900	3.784100	-11.366000	22.868883	0.001048	20.761717
277.074931	-2.993700	3.784800	-11.329000	22.891409	0.001047	20.774800
278.073816	-3.002100	3.784400	-11.360000	22.904705	0.001049	20.758724
279.079663	-3.024400	3.783000	-11.439000	22.912825	0.001048	20.754056
280.074952	-2.990900	3.784300	-11.318000	22.920328	0.001050	20.769634
281.075703	-3.012100	3.782200	-11.391000	22.933703	0.001050	20.783508
282.077390	-3.000000	3.783100	-11.348000	22.929917	0.001050	20.781138
283.075791	-2.996800	3.782400	-11.333000	22.941053	0.001051	20.792769
284.076267	-3.015100	3.781700	-11.402000	22.955803	0.001049	20.787158
285.074050	-2.990100	3.782200	-11.309000	22.954333	0.001051	20.771935
286.076110	-3.004100	3.781400	-11.359000	22.957918	0.001051	20.766991
287.079132	-3.003800	3.781900	-11.359000	22.956996	0.001053	20.782664
288.075419	-3.001100	3.782000	-11.350000	22.960939	0.001052	20.770493
289.082135	-2.987800	3.782300	-11.300000	22.963779	0.001054	20.777605
290.076056	-2.989600	3.781700	-11.305000	22.996881	0.001054	20.776632
291.078529	-2.993300	3.781200	-11.317000	22.986750	0.001054	20.776439
292.076242	-2.998800	3.780800	-11.337000	22.998931	0.001054	20.773945
293.077132	-2.978900	3.781900	-11.265000	23.025506	0.001056	20.774967
294.077020	-3.011300	3.779300	-11.379000	23.042345	0.001057	20.808435
295.077800	-3.003900	3.778400	-11.348000	23.037140	0.001057	20.814598
296.077951	-3.010400	3.778600	-11.374000	23.054609	0.001057	20.772359
297.077545	-3.000300	3.779200	-11.338000	23.089581	0.001056	20.789384
298.078355	-2.987500	3.779700	-11.291000	23.095284	0.001059	20.762855
299.079391	-2.992800	3.778700	-11.307000	23.091943	0.001059	20.791275
300.078582	-2.999500	3.779200	-11.335000	23.084701	0.001060	20.779752
301.078267	-2.997800	3.777300	-11.322000	23.085130	0.001059	20.800570
302.078168	-2.988000	3.777600	-11.286000	23.079875	0.001058	20.780132
303.082240	-2.979500	3.778100	-11.254000	23.106877	0.001059	20.793438
304.079670	-2.996100	3.775800	-11.311000	23.092809	0.001061	20.807791
305.078784	-3.000800	3.776600	-11.332000	23.119308	0.001060	20.783609
306.079014	-3.006700	3.777700	-11.358000	23.146929	0.001062	20.784260
307.080222	-2.989000	3.776800	-11.288000	23.143844	0.001059	20.806299
308.080114	-2.997200	3.777000	-11.319000	23.157916	0.001062	20.779622
309.082511	-2.990000	3.776400	-11.290000	23.152213	0.001061	20.800935
310.089036	-2.998700	3.776000	-11.322000	23.183447	0.001063	20.793353
311.080918	-2.977900	3.776100	-11.242000	23.158616	0.001064	20.809247
312.092688	-3.002800	3.773600	-11.331000	23.173510	0.001065	20.785766
313.085648	-2.993000	3.775100	-11.299000	23.201703	0.001063	20.802638
314.086065	-2.985100	3.774400	-11.266000	23.233053	0.001065	20.797072
315.091300	-2.991000	3.773900	-11.286000	23.239184	0.001065	20.792310
316.086329	-2.989700	3.773000	-11.278000	23.214236	0.001066	20.807612
317.084203	-3.023400	3.772000	-11.403000	23.227134	0.001067	20.792088
318.088764	-3.013300	3.772600	-11.366000	23.229076	0.001069	20.797353
319.088403	-2.992200	3.772800	-11.287000	23.229426	0.001067	20.801497
320.084759	-3.006300	3.771900	-11.338000	23.253580	0.001066	20.804367
321.085447	-2.990400	3.772700	-11.281000	23.242176	0.001068	20.788670
322.086123	-2.974400	3.773100	-11.221000	23.260731	0.001069	20.796360
323.088702	-3.007100	3.771600	-11.340000	23.277911	0.001069	20.786551
324.093174	-2.985300	3.771700	-11.259000	23.243575	0.001070	20.817099
325.092055	-3.007000	3.770500	-11.337000	23.267232	0.001070	20.797185
326.085886	-2.997400	3.770800	-11.302000	23.264417	0.001070	20.792942
327.088907	-2.999700	3.770700	-11.310000	23.267512	0.001070	20.787983
328.091306	-2.999700	3.769400	-11.307000	23.248853	0.001070	20.797733
329.087044	-2.985600	3.769900	-11.254000	23.229484	0.001068	20.814358
330.091231	-2.986300	3.770400	-11.259000	23.212727	0.001072	20.807522
331.097824	-2.983900	3.770100	-11.248000	23.248484	0.001071	20.821070
332.084731	-2.986300	3.769500	-11.256000	23.255141	0.001072	20.814940
333.087966	-3.020700	3.767300	-11.378000	23.280163	0.001073	20.819153
334.089003	-3.020500	3.767000	-11.377000	23.258379	0.001072	20.804435
335.089148	-2.998900	3.767200	-11.296000	23.269109	0.001073	20.806653
336.092629	-3.024600	3.766600	-11.391000	23.294987	0.001072	20.796552
337.090119	-3.001800	3.767100	-11.307000	23.293720	0.001074	20.794334
338.087473	-2.977000	3.767300	-11.214000	23.326586	0.001074	20.811626
339.090211	-3.003300	3.767800	-11.314000	23.314660	0.001075	20.812001
340.089195	-3.022800	3.765800	-11.381000	23.321889	0.001077	20.812608
341.089572	-3.003300	3.765900	-11.310000	23.324777	0.001074	20.813132
342.093703	-3.017100	3.765900	-11.360000	23.334914	0.001074	20.827084
343.090757	-2.983500	3.766000	-11.235000	23.356381	0.001077	20.798339
344.089942	-2.990900	3.766500	-11.262000	23.369553	0.001076	20.804429
345.094102	-3.014200	3.764000	-11.344000	23.366094	0.001078	20.802384
346.091566	-2.999300	3.765900	-11.294000	23.367636	0.001076	20.810094
347.091280	-3.006500	3.762800	-11.312000	23.374564	0.001080	20.827943
348.095292	-3.003500	3.763700	-11.302000	23.361540	0.001078	20.822950
349.093064	-2.993600	3.762800	-11.263000	23.344213	0.001079	20.840197
350.096101	-3.004600	3.762700	-11.305000	23.364704	0.001080	20.822328
351.096143	-3.016800	3.762200	-11.348000	23.374894	0.001080	20.833963
352.094320	-3.017300	3.760900	-11.345000	23.359209	0.001079	20.839579
353.100367	-3.008400	3.762200	-11.316000	23.344740	0.001080	20.820337
354.095494	-3.009800	3.761500	-11.320000	23.328413	0.001082	20.834793
355.095267	-2.994900	3.763200	-11.270000	23.340364	0.001081	20.828279
356.096867	-3.031300	3.760200	-11.397000	23.319671	0.001081	20.838359
357.095244	-2.999800	3.761300	-11.283000	23.325299	0.001082	20.828827
358.100023	-3.022300	3.760100	-11.363000	23.325525	0.001083	20.841381
359.094635	-2.983600	3.761400	-11.221000	23.350353	0.001083	20.850143
360.093969	-2.990800	3.761100	-11.248000	23.346174	0.001083	20.819403
361.095901	-3.013400	3.760400	-11.331000	23.384769	0.001082	20.839119
362.095839	-3.010000	3.760100	-11.317000	23.388229	0.001083	20.838319
363.097377	-3.002000	3.761000	-11.289000	23.390845	0.001084	20.824347
364.096926	-3.007000	3.759700	-11.305000	23.421994	0.001083	20.809574
365.097138	-3.009200	3.758600	-11.309000	23.411463	0.001084	20.836002
366.100749	-2.982900	3.759000	-11.212000	23.401627	0.001083	20.824722
367.100572	-2.996200	3.758500	-11.260000	23.398168	0.001084	20.839272
368.100442	-2.990000	3.758300	-11.237000	23.391865	0.001084	20.838171
369.099041	-3.011800	3.757700	-11.316000	23.410941	0.001084	20.836901
370.102038	-2.999600	3.758300	-11.271000	23.454136	0.001084	20.832782
371.101333	-2.991500	3.758400	-11.242000	23.454861	0.001085	20.835879
372.101351	-2.993000	3.756200	-11.241000	23.494147	0.001085	20.847757
373.101884	-2.990000	3.757800	-11.236000	23.508195	0.001086	20.831493
374.106630	-2.995800	3.756500	-11.253000	23.517232	0.001085	20.848137
375.104717	-3.006200	3.754700	-11.287000	23.499902	0.001087	20.853051
376.103219	-2.992300	3.755900	-11.238000	23.544469	0.001086	20.835612
377.104291	-3.009400	3.755700	-11.301000	23.525968	0.001084	20.825127
378.102994	-3.013000	3.755700	-11.315000	23.533984	0.001088	20.831740
379.106059	-2.980400	3.754900	-11.189000	23.535083	0.001089	20.833790
380.103428	-2.995500	3.756000	-11.250000	23.520395	0.001087	20.843722
381.103964	-3.015700	3.753800	-11.318000	23.533467	0.001088	20.842600
382.104238	-3.005900	3.753300	-11.281000	23.556920	0.001091	20.827230
383.105374	-3.023100	3.752000	-11.341000	23.547883	0.001089	20.845198
384.107779	-2.995700	3.753500	-11.243000	23.568247	0.001088	20.827680
385.103771	-2.990100	3.754600	-11.226000	23.584358	0.001091	20.839563
386.106397	-3.031900	3.752700	-11.377000	23.580747	0.001090	20.834520
387.106715	-2.994000	3.753300	-11.237000	23.564443	0.001090	20.848522
388.107521	-3.004000	3.752100	-11.271000	23.545301	0.001089	20.823644
389.104091	-3.007100	3.751400	-11.280000	23.567035	0.001090	20.839740
390.113297	-2.990200	3.751300	-11.216000	23.573982	0.001090	20.825368
391.106616	-3.005000	3.751500	-11.272000	23.550337	0.001091	20.829166
392.110650	-3.013100	3.749900	-11.297000	23.557604	0.001091	20.825072
393.105253	-3.018200	3.749700	-11.317000	23.594724	0.001091	20.818187
394.109522	-2.986400	3.751000	-11.200000	23.607475	0.001091	20.820537
395.110684	-2.986400	3.751300	-11.202000	23.580318	0.001091	20.822236
396.107350	-2.996300	3.749000	-11.232000	23.608027	0.001093	20.814927
397.110703	-3.004800	3.750300	-11.267000	23.621900	0.001092	20.812239
398.111700	-2.997400	3.749600	-11.238000	23.600340	0.001093	20.818127
399.107552	-2.998000	3.749200	-11.239000	23.637804	0.001092	20.795466
400.109456	-3.003300	3.748700	-11.258000	23.628201	0.001094	20.799590
401.111490	-3.001000	3.748000	-11.247000	23.629674	0.001094	20.799645
402.109167	-3.010300	3.747200	-11.279000	23.620890	0.001096	20.819761
403.111116	-2.988200	3.749100	-11.200000	23.644809	0.001096	20.810550
404.111362	-2.988400	3.747300	-11.198000	23.655811	0.001094	20.797871
405.113342	-3.001400	3.747800	-11.248000	23.684291	0.001097	20.804613
406.122160	-3.007400	3.745900	-11.264000	23.692504	0.001098	20.791984
407.116082	-3.020200	3.745400	-11.311000	23.704677	0.001098	20.811775
408.108119	-3.010000	3.747000	-11.276000	23.716796	0.001096	20.803062
409.114914	-2.967300	3.747700	-11.119000	23.718885	0.001097	20.796148
410.117874	-3.024600	3.743300	-11.321000	23.708165	0.001099	20.792038
411.108634	-2.991400	3.745600	-11.202000	23.708751	0.001097	20.796894
412.113865	-2.976400	3.746600	-11.150000	23.672660	0.001098	20.795323
413.116086	-2.995500	3.743000	-11.212000	23.671960	0.001099	20.778975
414.118505	-2.978800	3.745000	-11.154000	23.641090	0.001098	20.813459
415.115653	-2.994800	3.743300	-11.209000	23.624585	0.001102	20.786482
416.125185	-2.992900	3.744400	-11.205000	23.638050	0.001099	20.792394
417.111626	-2.988400	3.744000	-11.187000	23.631527	0.001099	20.800080
418.117966	-3.005300	3.742900	-11.248000	23.641233	0.001101	20.797482
419.126961	-3.000100	3.741700	-11.224000	23.681577	0.001101	20.825126
420.113788	-3.001700	3.741600	-11.230000	23.692652	0.001101	20.803987
421.113383	-3.000800	3.742000	-11.227000	23.685356	0.001101	20.774861
422.113446	-2.996800	3.742000	-11.213000	23.698870	0.001100	20.781297
423.121848	-3.006100	3.741000	-11.243000	23.704989	0.001100	20.807346
424.116632	-3.019100	3.740300	-11.291000	23.739734	0.001099	20.772481
425.118425	-2.974200	3.742600	-11.129000	23.743444	0.001101	20.787580
426.120470	-2.995200	3.740100	-11.200000	23.726266	0.001101	20.774150
427.113532	-2.981300	3.741100	-11.152000	23.726611	0.001102	20.783979
428.127911	-2.990900	3.739500	-11.184000	23.727207	0.001100	20.792163
429.121720	-3.014200	3.739400	-11.270000	23.715975	0.001104	20.779954
430.130624	-3.010100	3.739500	-11.254000	23.696787	0.001101	20.795804
431.132906	-3.002200	3.738500	-11.223000	23.716197	0.001101	20.798194
432.118904	-2.991300	3.739100	-11.184000	23.739503	0.001101	20.787896
433.119771	-3.011000	3.736400	-11.249000	23.721025	0.001103	20.792603
434.120183	-3.044300	3.735900	-11.371000	23.732498	0.001101	20.796520
435.124289	-2.997000	3.736900	-11.199000	23.765056	0.001100	20.773212
436.121279	-2.996500	3.737100	-11.198000	23.787135	0.001102	20.792505
437.126451	-2.977500	3.737000	-11.125000	23.784470	0.001101	20.787462
438.122822	-2.996800	3.736200	-11.196000	23.778568	0.001101	20.796718
439.121414	-2.991300	3.736600	-11.175000	23.814607	0.001101	20.788756
440.123790	-3.007100	3.735500	-11.232000	23.826577	0.001101	20.796965
441.129084	-3.005000	3.735400	-11.223000	23.836458	0.001102	20.792648
442.119666	-2.997900	3.734700	-11.194000	23.833104	0.001100	20.781224
443.131722	-2.984700	3.735400	-11.148000	23.856122	0.001100	20.794821
444.131515	-2.995100	3.735300	-11.187000	23.872150	0.001101	20.787659
445.116869	-2.999900	3.735700	-11.204000	23.837906	0.001103	20.783194
446.118505	-3.002700	3.734900	-11.213000	23.864457	0.001103	20.791799
447.142213	-2.975100	3.735000	-11.111000	23.853285	0.001100	20.779174
448.131793	-2.996300	3.732400	-11.183000	23.896562	0.001103	20.789378
449.134977	-2.987500	3.733100	-11.151000	23.877894	0.001104	20.779668
450.119543	-2.994200	3.733600	-11.178000	23.899025	0.001102	20.786632
451.136452	-2.996900	3.731600	-11.182000	23.914806	0.001103	20.803879
452.117442	-3.014000	3.731500	-11.246000	23.907388	0.001103	20.789803
453.122937	-3.009200	3.731000	-11.226000	23.846414	0.001101	20.780819
454.130622	-3.018900	3.730700	-11.262000	23.835483	0.001103	20.775549
455.125382	-3.006600	3.730600	-11.216000	23.827070	0.001103	20.768061
456.123609	-3.008900	3.730800	-11.225000	23.831622	0.001104	20.780212
457.130352	-3.006000	3.729600	-11.209000	23.849562	0.001102	20.785398
458.126892	-2.993700	3.730300	-11.166000	23.859920	0.001103	20.771603
459.123367	-3.003600	3.728800	-11.197000	23.857773	0.001104	20.798847
460.121299	-3.004300	3.729500	-11.203000	23.856605	0.001102	20.780133
461.124367	-3.009100	3.728800	-11.220000	23.833730	0.001103	20.767153
462.126505	-3.002300	3.729300	-11.194000	23.833952	0.001104	20.785393
463.121396	-2.995400	3.727900	-11.165000	23.763441	0.001103	20.782973
464.132696	-2.977800	3.728500	-11.101000	23.758790	0.001102	20.795380
465.125801	-2.991200	3.729400	-11.154000	23.744406	0.001105	20.778587
466.127271	-3.002200	3.728200	-11.191000	23.767850	0.001104	20.769375
467.127743	-2.985800	3.727300	-11.128000	23.765062	0.001105	20.780330
468.126524	-2.992300	3.726700	-11.151000	23.782333	0.001104	20.767775
469.133069	-3.019600	3.725400	-11.248000	23.817228	0.001103	20.795652
470.129152	-3.013900	3.725500	-11.227000	23.852970	0.001106	20.782652
471.127881	-2.996500	3.726700	-11.166000	23.837291	0.001103	20.768827
472.134120	-3.001200	3.726100	-11.182000	23.828036	0.001104	20.789892
473.129622	-2.994800	3.725500	-11.156000	23.842695	0.001104	20.756227
474.127378	-3.012000	3.725200	-11.219000	23.868161	0.001103	20.761848
475.127330	-3.031500	3.722500	-11.283000	23.890056	0.001105	20.765310
476.131644	-2.982400	3.724900	-11.108000	23.900468	0.001104	20.757733
477.136580	-3.010400	3.723400	-11.208000	23.920106	0.001103	20.761778
478.129020	-2.989600	3.723700	-11.130000	23.933193	0.001103	20.773953
479.130700	-3.003500	3.725100	-11.187000	23.957514	0.001104	20.776057
480.139055	-3.007600	3.723300	-11.198000	23.926760	0.001104	20.763235
481.127653	-3.004200	3.721000	-11.177000	23.923898	0.001105	20.756572
482.131558	-2.993000	3.722400	-11.139000	23.938359	0.001105	20.763012
483.133422	-3.002900	3.721100	-11.172000	23.985277	0.001105	20.761698
484.127620	-2.995200	3.721800	-11.146000	23.989528	0.001103	20.742253
485.131719	-3.003100	3.720300	-11.171000	24.022008	0.001105	20.770559
486.128835	-2.992500	3.721800	-11.136000	24.029730	0.001104	20.752699
487.128217	-2.978800	3.721200	-11.083000	24.049292	0.001104	20.752402
488.139120	-2.987800	3.720900	-11.116000	24.075221	0.001104	20.779355
489.135564	-2.991500	3.720400	-11.128000	24.105385	0.001104	20.756976
490.130811	-3.005900	3.719400	-11.179000	24.089710	0.001104	20.752634
491.147932	-2.973700	3.719900	-11.061000	24.105562	0.001102	20.755257
492.133341	-2.999300	3.718900	-11.153000	24.137094	0.001103	20.742785
493.134060	-3.012700	3.718900	-11.201000	24.122936	0.001106	20.749922
494.142732	-3.026500	3.717100	-11.248000	24.111846	0.001106	20.755395
495.131848	-3.005900	3.717700	-11.173000	24.131283	0.001105	20.755923
496.136215	-3.003900	3.716900	-11.164000	24.128397	0.001105	20.763934
497.130326	-2.983900	3.718500	-11.094000	24.122128	0.001106	20.766656
498.132222	-2.993900	3.716400	-11.125000	24.095781	0.001104	20.743076
499.136431	-3.002300	3.715900	-11.155000	24.118804	0.001106	20.760002
500.134770	-3.016700	3.714900	-11.206000	24.115174	0.001107	20.768216
501.141328	-2.990900	3.715800	-11.112000	24.106044	0.001104	20.755740
502.140013	-2.987000	3.717200	-11.102000	24.112362	0.001106	20.750697
503.131894	-2.998500	3.716700	-11.143000	24.108934	0.001105	20.750578
504.146585	-3.008800	3.715400	-11.178000	24.123895	0.001102	20.760842
505.138959	-2.980200	3.715400	-11.072000	24.110505	0.001106	20.741248
506.134197	-3.007400	3.714700	-11.170000	24.126308	0.001105	20.731492
507.138824	-3.006200	3.713800	-11.162000	24.130164	0.001106	20.752430
508.140797	-3.018000	3.713700	-11.207000	24.122108	0.001105	20.741030
509.148550	-2.986000	3.714000	-11.088000	24.103251	0.001106	20.754835
510.137248	-2.989800	3.714300	-11.104000	24.122984	0.001104	20.749496
511.138062	-3.014900	3.712300	-11.190000	24.126894	0.001106	20.743460
512.143836	-2.996700	3.713100	-11.127000	24.131444	0.001106	20.740911
513.142678	-2.999100	3.712500	-11.134000	24.157150	0.001107	20.756263
514.138758	-3.008500	3.711100	-11.163000	24.132247	0.001104	20.753097
515.144123	-2.995400	3.712700	-11.120000	24.148498	0.001108	20.739997
516.142005	-3.016200	3.711000	-11.191000	24.141904	0.001103	20.735280
517.138199	-3.004200	3.711000	-11.147000	24.152654	0.001104	20.742744
518.151413	-2.987700	3.709500	-11.081000	24.143278	0.001104	20.741400
519.138944	-2.982900	3.710300	-11.067000	24.123447	0.001106	20.756598
520.139875	-3.012800	3.710000	-11.177000	24.108673	0.001105	20.745574
521.139430	-3.005300	3.710500	-11.151000	24.101729	0.001104	20.740032
522.144939	-3.009600	3.709000	-11.161000	24.098745	0.001105	20.721865
523.140678	-3.002800	3.708500	-11.134000	24.103901	0.001104	20.725139
524.143517	-2.993600	3.708600	-11.101000	24.150408	0.001104	20.740965
525.170997	-3.000300	3.707500	-11.122000	24.128435	0.001104	20.730780
526.155375	-3.012400	3.707900	-11.168000	24.138368	0.001106	20.739320
527.146638	-3.005400	3.707400	-11.141000	24.156534	0.001104	20.746635
528.145482	-3.020000	3.705700	-11.190000	24.174173	0.001103	20.738248
529.153528	-3.013400	3.706900	-11.168000	24.167934	0.001105	20.744793
530.142329	-3.012700	3.705800	-11.164000	24.150122	0.001103	20.727876
531.147594	-2.996000	3.705300	-11.100000	24.120565	0.001105	20.746596
532.152889	-3.008100	3.706400	-11.148000	24.114794	0.001102	20.750764
533.145566	-3.008700	3.705600	-11.148000	24.117832	0.001103	20.720620
534.149777	-3.009100	3.705000	-11.147000	24.140002	0.001101	20.722467
535.149373	-2.998100	3.704300	-11.105000	24.137520	0.001104	20.737048
536.146584	-3.002000	3.704900	-11.121000	24.166486	0.001103	20.749979
537.149258	-3.007900	3.703800	-11.140000	24.182303	0.001103	20.738342
538.146499	-2.994400	3.702900	-11.086000	24.165742	0.001105	20.716041
539.169036	-3.019800	3.703800	-11.183000	24.156839	0.001103	20.722758
540.147480	-3.007300	3.702700	-11.133000	24.167613	0.001102	20.728824
541.148021	-3.022900	3.700900	-11.186000	24.168140	0.001105	20.698530
542.148366	-3.017700	3.702200	-11.171000	24.206481	0.001102	20.723711
543.150270	-3.015200	3.701700	-11.160000	24.214522	0.001104	20.727510
544.150771	-3.021700	3.701600	-11.184000	24.229850	0.001104	20.722496
545.158541	-2.990700	3.702600	-11.071000	24.263861	0.001102	20.732904
546.152432	-3.012300	3.700800	-11.146000	24.272074	0.001103	20.716011
547.154605	-3.000000	3.700100	-11.100000	24.265190	0.001102	20.711002
548.156268	-3.002300	3.699800	-11.106000	24.252875	0.001104	20.705761
549.159238	-3.000800	3.699700	-11.100000	24.235287	0.001103	20.699024
550.154378	-3.011300	3.699400	-11.139000	24.284373	0.001101	20.703217
551.152477	-3.017500	3.698500	-11.159000	24.294930	0.001104	20.717601
552.149851	-3.007300	3.699900	-11.125000	24.279356	0.001103	20.731377
553.150433	-3.001400	3.698800	-11.101000	24.296545	0.001104	20.717799
554.153617	-2.978900	3.699800	-11.019000	24.310656	0.001101	20.695443
555.152945	-2.996700	3.698100	-11.081000	24.294364	0.001101	20.724146
556.157995	-2.996800	3.698900	-11.083000	24.293148	0.001100	20.715813
557.149475	-2.983500	3.699100	-11.034000	24.310514	0.001101	20.724699
558.151355	-2.997100	3.698600	-11.084000	24.338677	0.001103	20.714544
559.150212	-3.007000	3.695800	-11.112000	24.343802	0.001102	20.697873
560.157131	-2.993200	3.697000	-11.065000	24.359031	0.001102	20.704615
561.155398	-3.024700	3.696600	-11.179000	24.364481	0.001102	20.719093
562.152651	-2.981200	3.697300	-11.021000	24.366096	0.001102	20.705539
563.165027	-3.016100	3.696600	-11.148000	24.360080	0.001102	20.697606
564.154109	-3.020000	3.694900	-11.157000	24.380556	0.001103	20.701553
565.159286	-2.995100	3.694900	-11.065000	24.378420	0.001102	20.709367
566.161017	-3.023000	3.694500	-11.167000	24.368051	0.001101	20.713664
567.158588	-3.007600	3.694300	-11.110000	24.348155	0.001102	20.698920
568.155144	-3.000100	3.694400	-11.083000	24.333079	0.001102	20.674785
569.159868	-3.009600	3.695400	-11.121000	24.324699	0.001101	20.701943
570.152302	-2.997100	3.694500	-11.072000	24.338007	0.001102	20.698224
571.151925	-2.996400	3.693600	-11.067000	24.378134	0.001102	20.699597
572.162220	-2.995100	3.692800	-11.059000	24.394061	0.001102	20.692341
573.157557	-3.000800	3.692500	-11.079000	24.399462	0.001101	20.690646
574.153775	-2.984300	3.693000	-11.020000	24.401028	0.001100	20.707391
575.153837	-2.996100	3.693000	-11.063000	24.388793	0.001101	20.699384
576.159971	-2.983400	3.691900	-11.013000	24.403647	0.001100	20.705752
577.164257	-2.995600	3.691000	-11.056000	24.376632	0.001099	20.718006
578.158454	-2.998000	3.690800	-11.064000	24.388331	0.001101	20.672365
579.153860	-2.995000	3.690700	-11.052000	24.376170	0.001099	20.700471
580.159590	-3.003600	3.690000	-11.081000	24.350592	0.001101	20.704685
581.162480	-3.002100	3.690300	-11.077000	24.333901	0.001101	20.690311
582.158949	-3.020500	3.688900	-11.141000	24.325300	0.001100	20.687846
583.163877	-3.021400	3.688600	-11.143000	24.333611	0.001099	20.679587
584.170299	-3.017000	3.688300	-11.126000	24.359061	0.001100	20.707965
585.156262	-3.005800	3.687300	-11.082000	24.352370	0.001101	20.707416
586.155508	-2.991100	3.688600	-11.032000	24.353118	0.001099	20.699632
587.155988	-3.005900	3.688300	-11.085000	24.374043	0.001098	20.692173
588.162112	-2.978300	3.689500	-10.987000	24.350706	0.001099	20.683934
589.167180	-3.025700	3.687300	-11.155000	24.366259	0.001098	20.700486
590.157171	-2.994100	3.688500	-11.043000	24.348874	0.001099	20.688735
591.160347	-2.997600	3.686600	-11.049000	24.333572	0.001098	20.692351
592.165228	-3.004500	3.686400	-11.076000	24.322109	0.001098	20.710726
593.163146	-3.015400	3.686100	-11.114000	24.319170	0.001099	20.701613
594.162080	-2.985000	3.686600	-11.004000	24.319426	0.001097	20.687644
595.165342	-3.009300	3.684500	-11.086000	24.348879	0.001098	20.702966
596.171204	-3.002100	3.686300	-11.066000	24.334729	0.001098	20.691615
597.169369	-2.992300	3.685600	-11.027000	24.311593	0.001098	20.685949
598.170696	-2.985500	3.685500	-11.002000	24.309707	0.001097	20.698284
599.170885	-2.989400	3.684800	-11.015000	24.329712	0.001096	20.695592
600.159544	-2.984100	3.684100	-10.993000	24.331878	0.001097	20.688755
601.170156	-2.986600	3.683600	-10.999000	24.344118	0.001096	20.691551
602.161054	-2.989400	3.682400	-11.007000	24.329323	0.001098	20.706582
603.160718	-3.006800	3.681300	-11.067000	24.341317	0.001097	20.699173
604.161017	-3.007900	3.682100	-11.074000	24.344232	0.001096	20.695458
605.162642	-3.013700	3.681100	-11.093000	24.366619	0.001097	20.703218
606.166446	-2.997500	3.681600	-11.035000	24.392418	0.001098	20.687847
607.163006	-2.983700	3.682600	-10.987000	24.385180	0.001095	20.677266
608.165804	-3.002300	3.680900	-11.050000	24.393117	0.001095	20.695661
609.162350	-3.010100	3.680600	-11.078000	24.428471	0.001096	20.681341
610.165182	-2.996000	3.681400	-11.027000	24.442153	0.001094	20.672307
611.162355	-2.994500	3.680700	-11.021000	24.458945	0.001096	20.680620
612.164907	-3.003100	3.679600	-11.049000	24.520511	0.001097	20.694975
613.161069	-2.998800	3.677900	-11.028000	24.474945	0.001094	20.696674
614.159552	-2.991700	3.678900	-11.004000	24.496040	0.001093	20.704088
615.162586	-2.990000	3.679400	-11.000000	24.515096	0.001096	20.687645
616.177780	-2.992000	3.679200	-11.007000	24.529574	0.001095	20.688420
617.164628	-2.971000	3.678900	-10.929000	24.558530	0.001093	20.673848
618.168388	-3.007500	3.677800	-11.059000	24.545923	0.001094	20.683960
619.165798	-3.005200	3.677800	-11.051000	24.556871	0.001095	20.703007
620.161118	-3.017300	3.676900	-11.093000	24.545111	0.001094	20.682197
621.172277	-3.003900	3.675900	-11.041000	24.540434	0.001093	20.685091
622.167698	-3.011300	3.676800	-11.070000	24.507230	0.001092	20.691607
623.169083	-2.992800	3.675500	-10.999000	24.518528	0.001092	20.698201
624.164638	-2.986700	3.675800	-10.978000	24.529998	0.001091	20.693588
625.179492	-2.993600	3.675900	-11.003000	24.503017	0.001092	20.681688
626.176476	-3.001100	3.674800	-11.027000	24.496578	0.001092	20.689928
627.163891	-3.008200	3.674800	-11.053000	24.493865	0.001094	20.700958
628.165669	-3.018600	3.674500	-11.091000	24.484423	0.001091	20.702390
629.172208	-3.005500	3.674200	-11.041000	24.474745	0.001090	20.691731
630.170228	-3.022500	3.671800	-11.097000	24.462565	0.001090	20.686624
631.176612	-3.013800	3.673800	-11.070000	24.438812	0.001091	20.683655
632.172328	-2.989900	3.672800	-10.980000	24.444710	0.001091	20.694315
633.172814	-3.022100	3.671000	-11.092000	24.430561	0.001092	20.692922
634.175384	-2.991400	3.672500	-10.983000	24.444198	0.001091	20.717037
635.177335	-2.987800	3.672800	-10.972000	24.465594	0.001088	20.706733
636.191619	-3.019200	3.671300	-11.084000	24.478709	0.001090	20.694286
637.168182	-3.000000	3.671300	-11.012000	24.536843	0.001091	20.707568
638.176551	-3.001700	3.672600	-11.023000	24.541224	0.001091	20.694894
639.177833	-2.999300	3.670100	-11.007000	24.558010	0.001089	20.719798
640.169091	-3.006000	3.669400	-11.030000	24.604380	0.001088	20.707529
641.172125	-2.987300	3.671400	-10.966000	24.602943	0.001089	20.684748
642.168793	-2.991300	3.670600	-10.978000	24.616076	0.001090	20.669949
643.169051	-3.003400	3.669500	-11.020000	24.620329	0.001089	20.697927
644.169320	-3.011200	3.670700	-11.051000	24.629864	0.001088	20.691373
645.178519	-2.986600	3.670900	-10.963000	24.642903	0.001087	20.699242
646.182883	-3.012500	3.668000	-11.049000	24.654318	0.001086	20.711645
647.174665	-3.015300	3.669500	-11.061000	24.679711	0.001086	20.708676
648.177168	-2.998200	3.668400	-10.998000	24.680661	0.001085	20.699197
649.168841	-2.979300	3.669900	-10.931000	24.668878	0.001087	20.710608
650.182796	-3.015200	3.666500	-11.054000	24.661815	0.001088	20.704468
651.185643	-2.989000	3.668800	-10.965000	24.678777	0.001087	20.693038
652.174270	-2.996700	3.666400	-10.986000	24.664606	0.001087	20.698259
653.170318	-2.996500	3.666600	-10.986000	24.655677	0.001088	20.717276
654.171037	-2.988400	3.666600	-10.956000	24.642250	0.001087	20.707121
655.178226	-2.986500	3.667900	-10.952000	24.653221	0.001086	20.695844
656.174065	-2.995600	3.667300	-10.986000	24.646808	0.001085	20.713118
657.174560	-2.984100	3.666800	-10.941000	24.676282	0.001086	20.699544
658.179673	-2.987200	3.665300	-10.948000	24.680909	0.001087	20.721258
659.173054	-2.997800	3.665500	-10.986000	24.691255	0.001086	20.716941
660.173625	-3.004400	3.663600	-11.006000	24.708448	0.001087	20.703847
661.172487	-2.991900	3.664800	-10.963000	24.689321	0.001086	20.709784
662.172279	-2.979800	3.665500	-10.921000	24.670401	0.001087	20.708816
663.187651	-2.994200	3.664600	-10.971000	24.673708	0.001085	20.706920
664.177375	-3.006100	3.662700	-11.009000	24.644515	0.001084	20.720301
665.173985	-2.983500	3.664500	-10.932000	24.622956	0.001085	20.705779
666.175914	-2.983900	3.663500	-10.930000	24.591620	0.001086	20.709898
667.176055	-2.993100	3.663000	-10.962000	24.604600	0.001085	20.717233
668.178110	-3.006900	3.661800	-11.009000	24.568066	0.001083	20.715189
669.179271	-2.992600	3.661300	-10.956000	24.538397	0.001085	20.706283
670.176390	-3.004400	3.661400	-10.999000	24.576454	0.001082	20.695629
671.193547	-3.008600	3.661000	-11.013000	24.588967	0.001083	20.718143
672.174435	-2.994800	3.661200	-10.964000	24.607550	0.001083	20.739160
673.176169	-3.004900	3.661600	-11.001000	24.647218	0.001082	20.707365
674.175321	-2.986100	3.659800	-10.928000	24.680866	0.001083	20.717896
675.181640	-3.004100	3.658800	-10.990000	24.681988	0.001083	20.724238
676.182975	-2.989800	3.660300	-10.941000	24.708705	0.001083	20.709796
677.176872	-3.010300	3.659000	-11.013000	24.694151	0.001082	20.727908
678.178172	-2.984100	3.659900	-10.921000	24.718530	0.001081	20.722974
679.176121	-3.005400	3.656900	-10.990000	24.707268	0.001082	20.720209
680.180022	-2.984900	3.658900	-10.919000	24.725051	0.001080	20.700120
681.176033	-3.004800	3.658600	-10.992000	24.699782	0.001080	20.706057
682.177017	-3.013800	3.656600	-11.019000	24.677432	0.001080	20.725830
683.194434	-3.004200	3.655900	-10.982000	24.670019	0.001080	20.725978
684.187598	-2.995200	3.657800	-10.955000	24.664772	0.001079	20.719764
685.178792	-3.032100	3.656300	-11.084000	24.677830	0.001077	20.728601
686.182788	-2.988000	3.656800	-10.925000	24.698670	0.001079	20.721064
687.183979	-2.988100	3.656600	-10.924000	24.695914	0.001078	20.708340
688.200156	-3.031900	3.654700	-11.078000	24.715366	0.001077	20.726912
689.185034	-3.011900	3.654800	-11.007000	24.752442	0.001078	20.712435
690.187069	-2.992300	3.655700	-10.937000	24.752698	0.001079	20.712218
691.184843	-3.012600	3.656500	-11.012000	24.728153	0.001078	20.738797
692.188913	-3.005500	3.655400	-10.985000	24.743431	0.001078	20.716195
693.184121	-2.971900	3.655500	-10.863000	24.734596	0.001078	20.737676
694.188464	-2.997300	3.654800	-10.953000	24.716720	0.001077	20.712623
695.189118	-2.999700	3.654700	-10.962000	24.704509	0.001078	20.737829
696.199740	-2.995200	3.654000	-10.944000	24.707398	0.001077	20.734090
697.183721	-3.009200	3.652900	-10.991000	24.738406	0.001078	20.734386
698.195260	-3.001900	3.652800	-10.964000	24.788759	0.001076	20.739874
699.193994	-3.002200	3.652000	-10.963000	24.794784	0.001077	20.722211
700.189694	-2.978000	3.654200	-10.881000	24.814327	0.001076	20.740877
701.186739	-2.971600	3.652400	-10.851000	24.808534	0.001076	20.727950
702.197676	-2.972000	3.653800	-10.857000	24.832851	0.001077	20.735285
703.188208	-2.997100	3.651900	-10.945000	24.848791	0.001076	20.738955
704.189278	-2.993900	3.651800	-10.932000	24.866867	0.001076	20.719163
705.189231	-2.994700	3.650800	-10.931000	24.889819	0.001077	20.744097
706.195987	-3.000700	3.650500	-10.953000	24.880444	0.001078	20.740378
707.203106	-3.009300	3.649800	-10.982000	24.870947	0.001075	20.725629
708.198064	-3.019600	3.648400	-11.016000	24.859706	0.001074	20.728099
709.195365	-2.997600	3.649500	-10.939000	24.879003	0.001075	20.738931
710.191027	-3.007500	3.649400	-10.974000	24.883432	0.001075	20.730099
711.193022	-2.998000	3.649400	-10.940000	24.887088	0.001073	20.744675
712.193357	-3.000900	3.649000	-10.948000	24.853447	0.001076	20.734619
713.193716	-3.005600	3.648500	-10.965000	24.812994	0.001074	20.745703
714.188693	-3.005400	3.647500	-10.961000	24.843078	0.001074	20.721841
715.201807	-3.028200	3.646400	-11.041000	24.846562	0.001074	20.738141
716.195486	-2.986600	3.648400	-10.894000	24.859643	0.001075	20.755063
717.188394	-2.981700	3.648500	-10.878000	24.893983	0.001074	20.755863
718.195762	-3.008100	3.646700	-10.969000	24.920837	0.001072	20.719278
719.201362	-3.000800	3.645400	-10.938000	24.924764	0.001073	20.724642
720.192386	-2.972900	3.647000	-10.841000	24.956868	0.001071	20.735528
721.198547	-3.012000	3.645100	-10.978000	24.959899	0.001070	20.744261
722.194952	-3.014100	3.643800	-10.982000	24.987372	0.001071	20.744809
723.197580	-3.006800	3.645400	-10.960000	24.944709	0.001074	20.744187
724.202444	-3.025900	3.642400	-11.020000	24.922260	0.001070	20.743466
725.200964	-3.014200	3.644800	-10.986000	24.923751	0.001072	20.773413
726.192687	-3.011700	3.644000	-10.973000	24.912069	0.001073	20.754101
727.192940	-3.002800	3.643600	-10.939000	24.942874	0.001072	20.724326
728.192765	-2.983300	3.645100	-10.873000	24.939965	0.001070	20.764557
729.200507	-3.003100	3.642800	-10.939000	24.952199	0.001069	20.754076
730.205194	-3.018100	3.641300	-10.988000	24.929179	0.001070	20.749937
731.192918	-2.999400	3.642100	-10.923000	24.919676	0.001069	20.759366
732.199080	-3.016600	3.640800	-10.982000	24.929400	0.001070	20.745417
733.193378	-3.003500	3.641400	-10.935000	24.936364	0.001070	20.750984
734.203244	-3.007700	3.641000	-10.949000	24.938179	0.001070	20.759445
735.208438	-2.999900	3.641600	-10.924000	24.926719	0.001070	20.759322
736.207438	-2.985900	3.641600	-10.872000	24.919086	0.001068	20.750238
737.198111	-2.971700	3.642100	-10.821000	24.890692	0.001070	20.754931
738.199126	-2.989500	3.642100	-10.887000	24.875776	0.001069	20.765091
739.202290	-2.999400	3.641300	-10.921000	24.896159	0.001067	20.785549
740.205514	-3.017500	3.640400	-10.983000	24.910809	0.001067	20.746198
741.203656	-2.994600	3.641400	-10.901000	24.931625	0.001068	20.768514
742.208994	-3.013300	3.639600	-10.966000	24.939828	0.001065	20.746401
743.204377	-3.001800	3.641400	-10.929000	24.932871	0.001066	20.771661
744.210977	-3.012400	3.638100	-10.958000	24.958006	0.001065	20.757534
745.205198	-3.000300	3.638600	-10.917000	24.920692	0.001064	20.761807
746.212620	-2.999100	3.638900	-10.912000	24.926612	0.001065	20.753524
747.204538	-2.990400	3.638200	-10.879000	24.893444	0.001066	20.774289
748.214325	-2.994700	3.639000	-10.896000	24.887726	0.001065	20.764282
749.215776	-3.010200	3.637300	-10.948000	24.893941	0.001064	20.749657
750.209546	-3.029000	3.636500	-11.014000	24.936415	0.001065	20.778537
751.212356	-2.986500	3.636800	-10.861000	24.939948	0.001062	20.781135
752.213852	-2.975300	3.636600	-10.818000	24.973592	0.001063	20.760376
753.212586	-3.011700	3.636500	-10.951000	24.946223	0.001064	20.772734
754.220399	-3.016100	3.635900	-10.965000	24.988064	0.001062	20.787230
755.208602	-3.026000	3.634700	-10.997000	24.999982	0.001062	20.769322
756.218462	-3.001200	3.637000	-10.913000	25.001596	0.001062	20.782796
757.213364	-2.995200	3.634700	-10.886000	24.954859	0.001061	20.772868
758.208863	-2.993500	3.635600	-10.882000	24.907324	0.001062	20.787271
759.216493	-2.983200	3.636100	-10.846000	24.883978	0.001060	20.781858
760.213881	-3.006100	3.634600	-10.925000	24.891237	0.001061	20.782031
761.227060	-2.998800	3.634500	-10.898000	24.927023	0.001060	20.779542
762.211316	-2.999400	3.633800	-10.898000	24.926801	0.001058	20.776949
763.215310	-2.987500	3.633800	-10.855000	24.940624	0.001059	20.775176
764.218486	-3.007700	3.633400	-10.928000	24.966114	0.001059	20.779424
765.220807	-3.001100	3.632200	-10.899000	24.996391	0.001057	20.781839
766.210144	-3.012100	3.632800	-10.941000	25.034432	0.001058	20.785884
767.220383	-2.984000	3.633400	-10.840000	25.013402	0.001060	20.769042
768.212441	-3.028300	3.630400	-10.993000	25.043038	0.001059	20.773186
769.211235	-2.985200	3.631900	-10.840000	25.034413	0.001058	20.783494
770.211408	-3.005400	3.631400	-10.913000	25.081574	0.001059	20.792429
771.227319	-2.992500	3.631800	-10.866000	25.075385	0.001058	20.789060
772.218958	-3.002800	3.630900	-10.902000	25.118998	0.001057	20.784952
773.225811	-2.997100	3.630900	-10.880000	25.105423	0.001057	20.774643
774.218235	-3.000100	3.629900	-10.890000	25.098013	0.001056	20.777162
775.211256	-2.997600	3.630700	-10.881000	25.093093	0.001056	20.784077
776.209136	-2.993500	3.630100	-10.866000	25.119071	0.001054	20.804940
777.210095	-2.999400	3.629900	-10.886000	25.134486	0.001054	20.782008
778.223565	-3.010500	3.629100	-10.924000	25.137566	0.001054	20.792686
779.233012	-2.984000	3.629500	-10.830000	25.133492	0.001053	20.788597
780.212759	-2.997100	3.626900	-10.869000	25.137246	0.001055	20.805168
781.213923	-2.994600	3.627700	-10.863000	25.125040	0.001053	20.800974
782.226732	-3.008900	3.628200	-10.916000	25.171474	0.001054	20.792588
783.212552	-3.011000	3.625900	-10.917000	25.172847	0.001053	20.802501
784.223179	-2.996700	3.627400	-10.869000	25.147839	0.001052	20.810112
785.233311	-3.020000	3.625200	-10.947000	25.131805	0.001051	20.797334
786.214217	-3.010300	3.626800	-10.917000	25.121812	0.001053	20.792045
787.214039	-3.011700	3.625900	-10.918000	25.163701	0.001051	20.774353
788.221048	-3.002600	3.626500	-10.887000	25.156690	0.001051	20.796238
789.220056	-3.008200	3.626400	-10.908000	25.153488	0.001053	20.772634
790.225979	-2.996500	3.625100	-10.862000	25.187518	0.001053	20.804427
791.221463	-2.960500	3.625100	-10.731000	25.197436	0.001050	20.812014
792.216425	-3.016500	3.623500	-10.927000	25.213218	0.001051	20.804625
793.212852	-3.004500	3.623800	-10.886000	25.231815	0.001050	20.798639
794.220104	-3.004300	3.624300	-10.888000	25.233202	0.001051	20.800980
795.218559	-2.990000	3.623100	-10.830000	25.235740	0.001048	20.812063
796.223524	-3.002400	3.622700	-10.876000	25.250405	0.001050	20.787906
797.224210	-3.004500	3.622900	-10.884000	25.256840	0.001050	20.805746
798.219773	-3.017600	3.621900	-10.929000	25.237477	0.001048	20.821393
799.221597	-3.013200	3.622700	-10.915000	25.208072	0.001049	20.818899
800.212577	-3.007400	3.621100	-10.889000	25.190972	0.001049	20.812162
801.231591	-2.986800	3.620800	-10.814000	25.189648	0.001047	20.793289
802.218353	-2.988700	3.623200	-10.827000	25.183808	0.001049	20.835315
803.219028	-3.004100	3.621400	-10.878000	25.195788	0.001047	20.806091
804.217897	-2.984800	3.620600	-10.805000	25.156562	0.001046	20.807489
805.216279	-2.983400	3.621900	-10.803000	25.159096	0.001046	20.811929
806.230681	-3.014300	3.619400	-10.909000	25.144803	0.001047	20.813702
807.218747	-3.008400	3.619900	-10.888000	25.168591	0.001047	20.814823
808.219487	-2.995400	3.620400	-10.843000	25.193770	0.001045	20.839627
809.220346	-2.999800	3.619400	-10.857000	25.195837	0.001047	20.834589
810.220769	-3.002300	3.619600	-10.866000	25.201627	0.001045	20.818592
811.232403	-2.999600	3.620400	-10.859000	25.206798	0.001044	20.828998
812.220271	-2.971900	3.618700	-10.753000	25.241643	0.001046	20.825575
813.222487	-3.021900	3.617400	-10.930000	25.263293	0.001043	20.837829
814.222005	-3.011800	3.616600	-10.891000	25.269182	0.001045	20.810551
815.226703	-3.021500	3.617300	-10.928000	25.282258	0.001042	20.841696
816.222435	-3.016200	3.617200	-10.909000	25.257326	0.001043	20.843217
817.218391	-3.000300	3.617000	-10.851000	25.241539	0.001043	20.853919
818.217297	-2.950100	3.618900	-10.675000	25.259589	0.001045	20.839325
819.218231	-3.001400	3.617000	-10.855000	25.297585	0.001044	20.847602
820.235932	-2.992400	3.615600	-10.818000	25.304251	0.001042	20.840071
821.242716	-3.006000	3.615300	-10.867000	25.318738	0.001043	20.839917
822.217432	-2.997200	3.615800	-10.836000	25.275739	0.001041	20.851272
823.228660	-3.008400	3.614200	-10.871000	25.282621	0.001042	20.834000
824.226929	-2.997500	3.615700	-10.837000	25.293384	0.001041	20.847652
825.225775	-3.011400	3.614100	-10.880000	25.288864	0.001042	20.848328
826.222352	-2.970000	3.615300	-10.736000	25.312703	0.001040	20.821530
827.223767	-3.003300	3.614000	-10.853000	25.307724	0.001041	20.828385
828.221181	-3.007900	3.613300	-10.868000	25.349114	0.001039	20.838174
829.223137	-3.006500	3.614000	-10.864000	25.354180	0.001038	20.852269
830.225196	-2.992500	3.612800	-10.810000	25.332286	0.001038	20.823174
831.225917	-2.985600	3.612100	-10.783000	25.341627	0.001039	20.840614
832.236526	-2.990200	3.613600	-10.804000	25.351426	0.001038	20.852349
833.231664	-3.005500	3.612900	-10.858000	25.338425	0.001038	20.849252
834.227613	-2.991300	3.613600	-10.809000	25.323043	0.001039	20.850403
835.222120	-3.008300	3.612400	-10.866000	25.357540	0.001038	20.849954
836.228261	-3.007700	3.612500	-10.864000	25.358086	0.001034	20.848131
837.232304	-2.995700	3.610200	-10.814000	25.353462	0.001036	20.830687
838.227713	-2.985500	3.610500	-10.778000	25.343545	0.001036	20.841592
839.230984	-2.994400	3.611600	-10.813000	25.338253	0.001033	20.831536
840.225273	-3.005800	3.609900	-10.849000	25.338627	0.001035	20.843765
841.228084	-2.992400	3.609000	-10.798000	25.313800	0.001033	20.821209
842.226560	-3.006500	3.608200	-10.847000	25.269163	0.001032	20.849411
843.232281	-2.995000	3.609900	-10.810000	25.282361	0.001033	20.842274
844.232652	-2.999000	3.610800	-10.827000	25.275174	0.001032	20.820360
845.236236	-3.000500	3.609000	-10.828000	25.260692	0.001031	20.831424
846.236142	-3.004400	3.609300	-10.843000	25.264017	0.001031	20.839029
847.229882	-2.977300	3.609400	-10.745000	25.299515	0.001031	20.837212
848.236950	-2.996300	3.609500	-10.813000	25.310874	0.001030	20.836762
849.225662	-2.994900	3.608400	-10.806000	25.315252	0.001030	20.826460
850.227407	-3.004200	3.607600	-10.837000	25.329247	0.001030	20.843356
851.226190	-3.000300	3.606200	-10.818000	25.272725	0.001029	20.843504
852.235230	-2.996400	3.608800	-10.811000	25.240174	0.001029	20.825048
853.237655	-3.019800	3.605300	-10.885000	25.196516	0.001028	20.843332
854.227026	-3.016000	3.605900	-10.873000	25.184021	0.001030	20.824624
855.231874	-3.020800	3.605400	-10.889000	25.215738	0.001029	20.828017
856.228605	-3.002800	3.604800	-10.823000	25.216983	0.001028	20.842068
857.231599	-3.001200	3.605300	-10.820000	25.255783	0.001026	20.810375
858.240460	-2.995500	3.605100	-10.798000	25.268619	0.001027	20.820891
859.231903	-3.029100	3.603000	-10.912000	25.264265	0.001027	20.831692
860.246934	-3.003500	3.604300	-10.824000	25.309803	0.001024	20.827627
861.244247	-2.992100	3.604400	-10.783000	25.308091	0.001026	20.828754
862.240462	-2.993400	3.605200	-10.791000	25.290968	0.001026	20.819622
863.245969	-3.013400	3.601900	-10.853000	25.281872	0.001024	20.833722
864.232932	-3.034200	3.602100	-10.928000	25.284381	0.001025	20.830551
865.244493	-2.993500	3.602300	-10.782000	25.286766	0.001022	20.824886
866.238461	-3.008000	3.603100	-10.837000	25.296064	0.001024	20.812411
867.233079	-2.999900	3.601200	-10.802000	25.289261	0.001023	20.826443
868.236928	-3.012400	3.602400	-10.851000	25.278075	0.001024	20.826591
869.235449	-2.990300	3.602300	-10.771000	25.301392	0.001024	20.816812
870.234591	-2.995800	3.602100	-10.790000	25.322048	0.001023	20.796300
871.238989	-2.992300	3.601000	-10.774000	25.342556	0.001023	20.822581
872.237249	-3.015400	3.600200	-10.855000	25.355675	0.001022	20.820581
873.237307	-2.983900	3.601800	-10.746000	25.354804	0.001021	20.809749
874.238076	-2.988600	3.600000	-10.758000	25.317730	0.001020	20.815198
875.237525	-3.005500	3.600500	-10.821000	25.304900	0.001022	20.793307
876.235431	-3.012400	3.599200	-10.841000	25.318674	0.001022	20.814724
877.239308	-2.981200	3.600100	-10.732000	25.318674	0.001019	20.814724
878.241959	-3.001700	3.599800	-10.804000	25.297123	0.001022	20.803517
879.260350	-2.984500	3.599100	-10.741000	25.275822	0.001019	20.806786
880.238795	-3.014300	3.597400	-10.842000	25.259618	0.001020	20.809483
881.239629	-2.991000	3.598900	-10.764000	25.256086	0.001021	20.822058
882.244039	-2.987800	3.598800	-10.752000	25.300153	0.001019	20.809404
883.240743	-2.987200	3.597000	-10.744000	25.307089	0.001021	20.799299
884.249414	-3.004600	3.597300	-10.807000	25.302435	0.001018	20.804109
885.239974	-3.007800	3.597200	-10.819000	25.338271	0.001021	20.809270
886.255809	-3.007300	3.595800	-10.812000	25.351788	0.001019	20.789177
887.238215	-2.998600	3.596800	-10.784000	25.384666	0.001019	20.800379
888.242608	-2.991700	3.595700	-10.756000	25.375467	0.001018	20.799203
889.237591	-3.005900	3.594700	-10.805000	25.381453	0.001020	20.792412
890.241451	-3.008800	3.594800	-10.815000	25.410651	0.001018	20.816514
891.240977	-2.985900	3.595900	-10.735000	25.408364	0.001018	20.799519
892.241683	-2.979800	3.594400	-10.710000	25.395363	0.001018	20.796896
893.245356	-3.001800	3.593400	-10.786000	25.396130	0.001019	20.793398
894.250290	-2.965100	3.595100	-10.659000	25.410040	0.001018	20.785555
895.251070	-2.993400	3.593400	-10.755000	25.422459	0.001016	20.811776
896.241918	-3.007200	3.592300	-10.801000	25.443028	0.001015	20.791653
897.249597	-2.986800	3.592400	-10.728000	25.447076	0.001015	20.790028
898.242025	-2.990100	3.593000	-10.743000	25.470975	0.001015	20.808337
899.251689	-3.006000	3.591000	-10.793000	25.460680	0.001012	20.802740
900.241987	-3.001400	3.591100	-10.777000	25.472337	0.001016	20.794531
901.254838	-3.022900	3.591500	-10.855000	25.453665	0.001011	20.782420
902.244239	-2.983600	3.591700	-10.715000	25.433626	0.001012	20.806868
903.251586	-3.016800	3.590500	-10.830000	25.422889	0.001010	20.784706
904.245668	-2.977900	3.591400	-10.694000	25.435485	0.001011	20.802571
905.245376	-2.996800	3.590700	-10.759000	25.437216	0.001011	20.807154
906.266975	-3.001100	3.590100	-10.773000	25.445710	0.001010	20.786760
907.252622	-2.989700	3.589800	-10.731000	25.463053	0.001010	20.798959
908.246497	-3.007400	3.589000	-10.793000	25.504893	0.001007	20.808259
909.245252	-3.033100	3.586900	-10.878000	25.515870	0.001006	20.806480
910.251492	-2.998500	3.589000	-10.760000	25.497082	0.001006	20.800889
911.245008	-2.987700	3.587600	-10.717000	25.488223	0.001006	20.802899
912.248365	-2.991900	3.590300	-10.741000	25.482154	0.001006	20.789691
913.252440	-3.008800	3.586900	-10.792000	25.488095	0.001005	20.793761
914.254366	-3.018300	3.587700	-10.827000	25.498802	0.001003	20.790763
915.272111	-2.973300	3.588000	-10.667000	25.523649	0.001005	20.791533
916.250525	-2.998800	3.586800	-10.754000	25.566407	0.001006	20.797015
917.261549	-2.994900	3.587500	-10.743000	25.549656	0.001003	20.806745
918.249305	-3.003900	3.586600	-10.773000	25.565605	0.001002	20.802374
919.258716	-3.016000	3.585500	-10.813000	25.559590	0.001002	20.773099
920.251067	-2.975600	3.586000	-10.670000	25.574920	0.001002	20.772847
921.252337	-3.001900	3.585200	-10.761000	25.574246	0.001003	20.791611
922.249511	-2.983700	3.584600	-10.693000	25.586688	0.001001	20.798417
923.254872	-2.988000	3.584200	-10.709000	25.559329	0.000999	20.780897
924.248976	-3.000900	3.584300	-10.755000	25.535078	0.000999	20.796372
925.261995	-3.002000	3.583600	-10.757000	25.488949	0.001000	20.777548
926.263446	-2.988000	3.583500	-10.706000	25.499184	0.001000	20.798258
927.246076	-2.973500	3.583100	-10.654000	25.527390	0.000998	20.785332
928.249052	-3.002700	3.583700	-10.760000	25.557130	0.001000	20.785327
929.250867	-2.974400	3.583500	-10.658000	25.570895	0.000997	20.794410
930.248937	-2.979600	3.582800	-10.674000	25.570079	0.000997	20.788375
931.258568	-2.991200	3.582600	-10.715000	25.570497	0.000996	20.774570
932.248843	-2.993000	3.583000	-10.723000	25.559835	0.000997	20.785673
933.254902	-3.021400	3.580900	-10.818000	25.527950	0.000996	20.789214
934.246437	-3.010100	3.580800	-10.776000	25.495170	0.000996	20.772416
935.253314	-3.017500	3.579000	-10.798000	25.470524	0.000993	20.759994
936.251712	-3.015600	3.580200	-10.795000	25.458296	0.000993	20.795605
937.261027	-3.002600	3.580700	-10.750000	25.449674	0.000992	20.803068
938.252601	-3.033700	3.577700	-10.853000	25.467833	0.000994	20.776733
939.253055	-2.988900	3.580000	-10.699000	25.481226	0.000992	20.782121
940.265913	-2.962900	3.579600	-10.605000	25.489125	0.000992	20.792898
941.261158	-2.995900	3.577600	-10.717000	25.493423	0.000991	20.777300
942.254667	-3.007700	3.578000	-10.760000	25.541637	0.000989	20.776881
943.256049	-2.989900	3.576500	-10.692000	25.536940	0.000992	20.784018
944.260936	-2.972800	3.578800	-10.638000	25.563424	0.000988	20.786907
945.262113	-2.995900	3.576200	-10.711000	25.572424	0.000988	20.801161
946.261117	-2.993400	3.576800	-10.706000	25.607287	0.000988	20.798717
947.256069	-2.981800	3.576700	-10.664000	25.609973	0.000989	20.791456
948.268902	-3.003600	3.575900	-10.740000	25.631444	0.000986	20.789787
949.257940	-2.992100	3.576100	-10.699000	25.619238	0.000988	20.767570
950.260316	-2.993600	3.576200	-10.704000	25.626772	0.000988	20.777508
951.280466	-2.990100	3.575900	-10.690000	25.677311	0.000986	20.782749
952.258262	-2.992800	3.576200	-10.701000	25.680517	0.000984	20.770322
953.260349	-3.004100	3.574600	-10.737000	25.645061	0.000985	20.779755
954.272308	-2.985500	3.575700	-10.674000	25.608567	0.000986	20.783880
955.260599	-3.000300	3.574000	-10.723000	25.570123	0.000984	20.763763
956.259804	-2.979700	3.574000	-10.648000	25.571766	0.000984	20.773473
957.263023	-3.002600	3.573900	-10.730000	25.571446	0.000984	20.785480
958.263557	-2.990900	3.572500	-10.684000	25.551887	0.000983	20.766311
959.258064	-2.986100	3.573400	-10.670000	25.552714	0.000983	20.770935
960.257943	-2.979900	3.574300	-10.650000	25.598982	0.000982	20.795591
961.259756	-2.988200	3.572000	-10.673000	25.579827	0.000982	20.773982
962.259717	-2.997300	3.571700	-10.705000	25.544865	0.000981	20.778699
963.262030	-2.988700	3.570300	-10.669000	25.511691	0.000981	20.739694
964.262073	-3.005900	3.570700	-10.733000	25.512316	0.000980	20.772565
965.277113	-3.000500	3.570100	-10.712000	25.559383	0.000980	20.772891
966.261527	-2.975200	3.571000	-10.623000	25.560500	0.000979	20.766900
967.260308	-3.006300	3.570800	-10.733000	25.560303	0.000980	20.761961
968.260359	-3.003600	3.570800	-10.724000	25.597478	0.000980	20.754251
969.263208	-2.999400	3.569000	-10.704000	25.601831	0.000979	20.764786
970.271303	-3.015600	3.568700	-10.760000	25.586821	0.000980	20.756824
971.282024	-2.984800	3.569000	-10.651000	25.580801	0.000978	20.763581
972.274547	-2.988300	3.569800	-10.667000	25.557446	0.000977	20.768100
973.262963	-3.007800	3.568600	-10.733000	25.577747	0.000976	20.756246
974.263452	-3.005800	3.568600	-10.725000	25.584682	0.000976	20.736183
975.271890	-3.034200	3.566100	-10.819000	25.609778	0.000975	20.755224
976.267384	-2.996500	3.567300	-10.688000	25.640765	0.000974	20.772121
977.261402	-3.023700	3.565200	-10.779000	25.650428	0.000972	20.746264
978.261745	-2.975400	3.567200	-10.613000	25.636240	0.000975	20.772793
979.269218	-2.997900	3.566600	-10.691000	25.643543	0.000974	20.759738
980.271966	-2.991000	3.566000	-10.664000	25.633658	0.000973	20.755026
981.264043	-2.988100	3.565800	-10.654000	25.605081	0.000970	20.745291
982.270795	-2.995400	3.563900	-10.673000	25.596858	0.000971	20.756473
983.266150	-3.024900	3.564700	-10.780000	25.607368	0.000970	20.763235
984.263470	-3.019200	3.564800	-10.762000	25.644045	0.000971	20.766406
985.265404	-2.996300	3.564400	-10.679000	25.640765	0.000973	20.755999
986.266970	-2.984400	3.565500	-10.640000	25.674258	0.000970	20.755500
987.272284	-2.999100	3.564300	-10.688000	25.659299	0.000969	20.739052
988.273122	-3.002100	3.563100	-10.695000	25.682131	0.000969	20.745389
989.273232	-3.003100	3.563200	-10.699000	25.700218	0.000969	20.746012
990.267632	-3.003000	3.562700	-10.698000	25.683272	0.000968	20.764554
991.277189	-3.000300	3.561300	-10.683000	25.691396	0.000968	20.741892
992.273065	-2.992200	3.561600	-10.655000	25.688784	0.000967	20.734528
993.269284	-2.972200	3.561600	-10.585000	25.699617	0.000966	20.759160
994.265083	-2.996000	3.562300	-10.671000	25.710426	0.000966	20.756266
995.272551	-2.988200	3.561200	-10.640000	25.710794	0.000965	20.757584
996.267147	-2.985300	3.561000	-10.629000	25.717226	0.000964	20.766415
997.284680	-2.986900	3.562000	-10.638000	25.702395	0.000964	20.740138
998.279539	-2.998800	3.561100	-10.678000	25.691489	0.000964	20.749573
999.279799	-2.974100	3.562500	-10.594000	25.693967	0.000961	20.761071
1000.268678	-2.971100	3.561700	-10.579000	25.722296	0.000963	20.761550
1001.281750	-3.023500	3.557900	-10.757000	25.738744	0.000961	20.749148
1002.287358	-2.994300	3.560000	-10.659000	25.722645	0.000959	20.723493
1003.270525	-3.005200	3.558800	-10.694000	25.737820	0.000961	20.744425
1004.268608	-2.973200	3.558700	-10.580000	25.766265	0.000960	20.752610
1005.270985	-3.006900	3.558100	-10.698000	25.770986	0.000961	20.744075
1006.290168	-3.013800	3.558100	-10.723000	25.755787	0.000958	20.745878
1007.277716	-2.989200	3.556300	-10.627000	25.736856	0.000958	20.756734
1008.282987	-3.001100	3.555400	-10.668000	25.694168	0.000958	20.763644
1009.274019	-2.996800	3.556600	-10.657000	25.638541	0.000956	20.735273
1010.271119	-2.982200	3.556300	-10.604000	25.645071	0.000954	20.748471
1011.277743	-3.001600	3.556000	-10.673000	25.617326	0.000956	20.751899
1012.273548	-3.001700	3.555600	-10.672000	25.569593	0.000954	20.729564
1013.271264	-2.970100	3.555100	-10.558000	25.546011	0.000955	20.739546
1014.274487	-2.986600	3.553500	-10.612000	25.548923	0.000954	20.735358
1015.275312	-3.006400	3.555600	-10.688000	25.545249	0.000953	20.753006
1016.272016	-3.021400	3.552900	-10.733000	25.562644	0.000953	20.718317
1017.292718	-3.026900	3.552600	-10.752000	25.566623	0.000954	20.744126
1018.277311	-3.036000	3.551600	-10.781000	25.616545	0.000953	20.754908
1019.273740	-3.015300	3.553400	-10.713000	25.648151	0.000953	20.723588
1020.276289	-3.002400	3.553000	-10.666000	25.675287	0.000951	20.734721
1021.283164	-3.038800	3.549600	-10.785000	25.672528	0.000951	20.721044
1022.277432	-3.003300	3.552000	-10.667000	25.660677	0.000949	20.723366
1023.278044	-3.032400	3.549900	-10.764000	25.648579	0.000950	20.733501
1024.280058	-3.025000	3.550600	-10.740000	25.658739	0.000948	20.722842
1025.279444	-3.031800	3.550400	-10.762000	25.655287	0.000947	20.732178
1026.292686	-2.978500	3.550600	-10.574000	25.632804	0.000947	20.733304
1027.290076	-3.000400	3.551500	-10.655000	25.600351	0.000948	20.722995
1028.278367	-3.017200	3.549300	-10.708000	25.581417	0.000946	20.730059
1029.285593	-2.995000	3.550500	-10.633000	25.564843	0.000946	20.732854
1030.279632	-3.029700	3.548700	-10.750000	25.536510	0.000944	20.746600
1031.284908	-3.024000	3.547400	-10.725000	25.552808	0.000945	20.720293
1032.279850	-2.998000	3.548400	-10.637000	25.555376	0.000943	20.748003
1033.277521	-2.979800	3.548300	-10.572000	25.587058	0.000944	20.712489
1034.282000	-3.008600	3.546400	-10.667000	25.611559	0.000943	20.722398
1035.282567	-3.007900	3.546900	-10.666000	25.621227	0.000944	20.722151
1036.287620	-2.973300	3.548600	-10.550000	25.639910	0.000942	20.720052
1037.279517	-2.991000	3.547500	-10.610000	25.628756	0.000940	20.708849
1038.289309	-2.996700	3.546000	-10.625000	25.619909	0.000939	20.732208
1039.281589	-2.989700	3.546700	-10.603000	25.623986	0.000940	20.739147
1040.279654	-2.999600	3.545200	-10.634000	25.616555	0.000939	20.733107
1041.299572	-2.976300	3.546800	-10.555000	25.679993	0.000940	20.722378
1042.285203	-3.016400	3.545300	-10.694000	25.718305	0.000939	20.734307
1043.284016	-2.995800	3.545400	-10.620000	25.745493	0.000937	20.730321
1044.289234	-2.997500	3.545200	-10.625000	25.730180	0.000936	20.736278
1045.282211	-3.008600	3.543600	-10.660000	25.727201	0.000936	20.717162
1046.289198	-2.999600	3.544000	-10.629000	25.727678	0.000935	20.711952
1047.290542	-3.010800	3.543600	-10.668000	25.751919	0.000935	20.734406
1048.287723	-2.985200	3.542400	-10.574000	25.741712	0.000936	20.730316
1049.284368	-2.983100	3.544000	-10.570000	25.730884	0.000934	20.722285
1050.283002	-2.985100	3.542100	-10.572000	25.761420	0.000934	20.739207
1051.299737	-3.019600	3.541100	-10.691000	25.746988	0.000933	20.725185
1052.283708	-2.969000	3.541300	-10.513000	25.756778	0.000932	20.740709
1053.283657	-2.982400	3.542500	-10.564000	25.756675	0.000932	20.725906
1054.283683	-3.005000	3.541900	-10.642000	25.797620	0.000931	20.721989
1055.282028	-2.993900	3.539700	-10.596000	25.811412	0.000930	20.713557
1056.298737	-3.002300	3.539300	-10.625000	25.815930	0.000929	20.714777
1057.293470	-2.997000	3.539900	-10.607000	25.822121	0.000930	20.731428
1058.282844	-2.971600	3.540800	-10.521000	25.849522	0.000928	20.714382
1059.282547	-2.998400	3.539200	-10.610000	25.844979	0.000929	20.728312
1060.284918	-2.989400	3.538400	-10.576000	25.872208	0.000929	20.727690
1061.282484	-2.999600	3.538400	-10.613000	25.854149	0.000928	20.723773
1062.282691	-3.018200	3.538900	-10.680000	25.838873	0.000928	20.721229
1063.286209	-2.989500	3.538800	-10.579000	25.822751	0.000926	20.718784
1064.283389	-3.028200	3.537400	-10.710000	25.809662	0.000927	20.714171
1065.286888	-3.005800	3.536600	-10.629000	25.780647	0.000926	20.718216
1066.283154	-3.008700	3.536800	-10.641000	25.758860	0.000926	20.719565
1067.285775	-3.019900	3.534800	-10.674000	25.748824	0.000925	20.696206
1068.296355	-2.989000	3.535600	-10.567000	25.759828	0.000925	20.712477
1069.294133	-3.003600	3.536200	-10.620000	25.763787	0.000923	20.727360
1070.287127	-3.015100	3.535700	-10.660000	25.736378	0.000925	20.724959
1071.306043	-2.997700	3.534900	-10.596000	25.747964	0.000921	20.720000
1072.295930	-2.988200	3.535400	-10.563000	25.741876	0.000923	20.726214
1073.294532	-3.021100	3.533700	-10.675000	25.789002	0.000922	20.702900
1074.289135	-3.008600	3.534600	-10.633000	25.784961	0.000921	20.728239
1075.292315	-2.991400	3.533400	-10.569000	25.805326	0.000919	20.738266
1076.293816	-2.999200	3.533100	-10.596000	25.827861	0.000920	20.728185
1077.288804	-2.990700	3.534300	-10.568000	25.808690	0.000920	20.712720
1078.288123	-3.007800	3.532100	-10.622000	25.791122	0.000918	20.734903
1079.287595	-3.004800	3.533500	-10.616000	25.825879	0.000919	20.752274
1080.294017	-3.018800	3.529700	-10.653000	25.813282	0.000919	20.728239
1081.289811	-2.989300	3.531500	-10.556000	25.817113	0.000917	20.719759
1082.296929	-3.010100	3.530700	-10.626000	25.842002	0.000917	20.722475
1083.294736	-3.001200	3.530100	-10.593000	25.830035	0.000915	20.735585
1084.290546	-2.984100	3.529700	-10.531000	25.828319	0.000916	20.698771
1085.294123	-3.001600	3.529400	-10.592000	25.818008	0.000915	20.727771
1086.293073	-3.017700	3.528600	-10.647000	25.858606	0.000916	20.720663
1087.293331	-2.981800	3.529800	-10.525000	25.832316	0.000913	20.729815
1088.289725	-3.009500	3.528900	-10.619000	25.826780	0.000915	20.740850
1089.292520	-2.996000	3.530100	-10.575000	25.831972	0.000914	20.736583
1090.293913	-3.000700	3.527600	-10.584000	25.838978	0.000913	20.737457
1091.289206	-3.004500	3.527400	-10.597000	25.871670	0.000913	20.736158
1092.300292	-3.000300	3.526900	-10.580000	25.904984	0.000911	20.735486
1093.293210	-2.999200	3.528400	-10.581000	25.891297	0.000912	20.721735
1094.288489	-3.009300	3.527300	-10.613000	25.915043	0.000911	20.740376
1095.306089	-3.016100	3.524900	-10.629000	25.876586	0.000909	20.736355
1096.290616	-2.996600	3.526700	-10.567000	25.810038	0.000908	20.720713
1097.295424	-2.989500	3.526200	-10.540000	25.808573	0.000909	20.749114
1098.307111	-3.000900	3.524100	-10.575000	25.808720	0.000909	20.743098
1099.296474	-3.007100	3.525600	-10.600000	25.823525	0.000907	20.736632
1100.296225	-2.986100	3.526100	-10.529000	25.840561	0.000906	20.721028
1101.298263	-2.987000	3.525200	-10.529000	25.859741	0.000907	20.712794
1102.297103	-2.997500	3.524100	-10.562000	25.876065	0.000905	20.731564
1103.294896	-2.998600	3.523800	-10.565000	25.869855	0.000904	20.734809
1104.295027	-2.992400	3.522500	-10.540000	25.889232	0.000904	20.745740
1105.298904	-2.995700	3.523400	-10.554000	25.869880	0.000902	20.748585
1106.304056	-2.979100	3.524500	-10.498000	25.885707	0.000903	20.748837
1107.296263	-2.984400	3.522300	-10.510000	25.865091	0.000902	20.751836
1108.300521	-2.990900	3.521400	-10.531000	25.874187	0.000902	20.734894
1109.302481	-3.009700	3.520500	-10.595000	25.881281	0.000901	20.733960
1110.292518	-3.005300	3.520800	-10.579000	25.899517	0.000901	20.740900
1111.305252	-2.994800	3.519100	-10.538000	25.892320	0.000900	20.741730
1112.300597	-3.003800	3.520200	-10.573000	25.929282	0.000899	20.727178
1113.301938	-3.002000	3.521000	-10.568000	25.943244	0.000899	20.745000
1114.294754	-2.998100	3.519100	-10.549000	25.958898	0.000899	20.741286
1115.298428	-3.011400	3.519000	-10.596000	25.964979	0.000899	20.736489
1116.295086	-2.998400	3.518200	-10.546000	25.958800	0.000897	20.747825
1117.306461	-3.020400	3.516300	-10.619000	25.979039	0.000895	20.740658
1118.299587	-3.000900	3.515900	-10.550000	25.926160	0.000896	20.741113
1119.301127	-3.004100	3.517000	-10.564000	25.894390	0.000894	20.759932
1120.297956	-2.982800	3.517800	-10.492000	25.862093	0.000894	20.755936
1121.299329	-2.983000	3.516100	-10.488000	25.872182	0.000895	20.758010
1122.296469	-3.018700	3.516200	-10.613000	25.890609	0.000893	20.760401
1123.296925	-2.993400	3.516000	-10.524000	25.885998	0.000892	20.730163
1124.313330	-2.972500	3.515700	-10.450000	25.922341	0.000892	20.768571
1125.308584	-3.014800	3.515300	-10.597000	25.929243	0.000890	20.752745
1126.301027	-3.003500	3.514800	-10.555000	25.958063	0.000892	20.753723
1127.307692	-3.001900	3.515800	-10.553000	25.981783	0.000892	20.754795
1128.302516	-3.001300	3.513400	-10.543000	26.006895	0.000891	20.760584
1129.305473	-2.988500	3.512900	-10.497000	26.050661	0.000891	20.751451
1130.307985	-3.024800	3.511800	-10.622000	26.052972	0.000888	20.750928
1131.312486	-2.978800	3.513800	-10.465000	26.079999	0.000889	20.746789
1132.317006	-2.982900	3.513800	-10.481000	26.080151	0.000890	20.751210
1133.303064	-2.999900	3.511800	-10.535000	26.077786	0.000890	20.756895
1134.306024	-2.984200	3.511100	-10.477000	26.053296	0.000888	20.757418
1135.309680	-2.987400	3.511100	-10.487000	26.012140	0.000889	20.752578
1136.304856	-3.014900	3.511300	-10.585000	26.015070	0.000889	20.749357
1137.306125	-3.014500	3.510300	-10.581000	26.017223	0.000887	20.766693
1138.309799	-2.995800	3.510300	-10.515000	26.014838	0.000888	20.742960
1139.306769	-2.974100	3.511400	-10.442000	26.001870	0.000886	20.753165
1140.312852	-2.987300	3.510200	-10.485000	25.998831	0.000885	20.761966
1141.309835	-3.009000	3.508600	-10.557000	26.014847	0.000887	20.756720
1142.307145	-3.001600	3.508900	-10.531000	25.994603	0.000886	20.779055
1143.316787	-3.018900	3.509100	-10.592000	25.972716	0.000885	20.764178
1144.311799	-2.989900	3.508500	-10.489000	25.968409	0.000883	20.757006
1145.317753	-2.993700	3.507800	-10.500000	25.976407	0.000884	20.760774
1146.315622	-3.002800	3.506400	-10.526000	26.003058	0.000882	20.745823
1147.312739	-3.004700	3.507000	-10.537000	26.016616	0.000880	20.765135
1148.309921	-2.989800	3.505800	-10.481000	26.020337	0.000882	20.763184
1149.307567	-2.993200	3.506900	-10.495000	26.018916	0.000880	20.764127
1150.316868	-2.981500	3.506300	-10.453000	25.972709	0.000882	20.774128
1151.316204	-2.993100	3.506000	-10.492000	25.957233	0.000882	20.776124
1152.307211	-2.983100	3.504900	-10.452000	25.915498	0.000880	20.759799
1153.310435	-3.005300	3.504000	-10.530000	25.880615	0.000879	20.767904
1154.315708	-3.002800	3.504800	-10.524000	25.838656	0.000877	20.765109
1155.310264	-2.998600	3.504500	-10.507000	25.813761	0.000879	20.792733
1156.309376	-3.009200	3.502300	-10.538000	25.763052	0.000877	20.766452
1157.313741	-2.999300	3.503700	-10.507000	25.764468	0.000877	20.795850
1158.325346	-2.995200	3.504100	-10.494000	25.731719	0.000876	20.782395
1159.307866	-3.013700	3.502900	-10.555000	25.729905	0.000875	20.769667
1160.318473	-3.024200	3.500800	-10.586000	25.745832	0.000876	20.765750
1161.309023	-3.009100	3.501500	-10.535000	25.769827	0.000873	20.780844
1162.323058	-2.964400	3.502800	-10.382000	25.790199	0.000873	20.776651
1163.313352	-3.015000	3.498600	-10.546000	25.826122	0.000872	20.764846
1164.314278	-2.993800	3.500400	-10.478000	25.859187	0.000871	20.783837
1165.311946	-3.010500	3.500300	-10.537000	25.891283	0.000872	20.769613
1166.320091	-3.008500	3.498800	-10.526000	25.892644	0.000871	20.787102
1167.312595	-3.016500	3.497800	-10.550000	25.929110	0.000869	20.784380
1168.316084	-3.014300	3.498100	-10.543000	25.894459	0.000872	20.781812
1169.310627	-3.019100	3.498800	-10.561000	25.899080	0.000870	20.785981
1170.325413	-2.981200	3.497800	-10.427000	25.899179	0.000869	20.774226
1171.316894	-2.993700	3.497800	-10.470000	25.911524	0.000869	20.782360
1172.317587	-3.015900	3.497100	-10.546000	25.946750	0.000866	20.794990
1173.324693	-3.010100	3.496100	-10.522000	25.955840	0.000866	20.782311
1174.317730	-3.005700	3.497600	-10.511000	25.937905	0.000864	20.781363
1175.339703	-3.004900	3.496400	-10.505000	25.890663	0.000866	20.787008
1176.309432	-2.994900	3.496000	-10.470000	25.897492	0.000865	20.779170
1177.325298	-2.992700	3.495900	-10.460000	25.913319	0.000865	20.782267
1178.320585	-3.007700	3.493300	-10.506000	25.952891	0.000864	20.776503
1179.311656	-2.973400	3.494400	-10.389000	25.965211	0.000862	20.763750
1180.320980	-2.991300	3.494700	-10.453000	25.955856	0.000863	20.783275
1181.324258	-3.009100	3.492600	-10.506000	25.930266	0.000861	20.795499
1182.326292	-3.013900	3.492600	-10.525000	25.931038	0.000859	20.790585
1183.321288	-3.011600	3.494700	-10.523000	25.956529	0.000859	20.801970
1184.320456	-3.005600	3.491800	-10.494000	25.957075	0.000860	20.807734
1185.316092	-2.980300	3.493200	-10.409000	25.962045	0.000860	20.777640
1186.321467	-3.036000	3.492100	-10.601000	25.935665	0.000859	20.800923
1187.315015	-3.010500	3.491300	-10.509000	25.915945	0.000857	20.811458
1188.320563	-2.997600	3.491200	-10.464000	25.905163	0.000857	20.786402
1189.322947	-3.014100	3.490100	-10.518000	25.916245	0.000857	20.803699
1190.317338	-3.021800	3.488300	-10.540000	25.941855	0.000855	20.778218
1191.321768	-3.024700	3.489600	-10.554000	25.976313	0.000856	20.816155
1192.329623	-2.976800	3.488700	-10.384000	26.001798	0.000855	20.814733
1193.322494	-3.010100	3.488600	-10.500000	26.027056	0.000853	20.800281
1194.322159	-3.004000	3.489600	-10.482000	26.037596	0.000853	20.809923
1195.334114	-3.008800	3.487600	-10.492000	26.054310	0.000853	20.806801
1196.321950	-3.017600	3.487700	-10.523000	26.013523	0.000852	20.815607
1197.322492	-3.010500	3.486900	-10.497000	25.968590	0.000853	20.790853
1198.333101	-3.001400	3.487600	-10.467000	25.958978	0.000851	20.804905
1199.321225	-3.005800	3.487100	-10.481000	25.918168	0.000851	20.811795
1200.325580	-2.981000	3.487100	-10.394000	25.960572	0.000851	20.806031
1201.323931	-2.989500	3.485500	-10.419000	26.013656	0.000850	20.796775
1202.333679	-2.997400	3.484800	-10.444000	26.022047	0.000850	20.823223
1203.324609	-2.993700	3.485100	-10.432000	26.058612	0.000849	20.814916
1204.326719	-3.016600	3.483700	-10.508000	26.061792	0.000848	20.804362
1205.325099	-2.987800	3.484600	-10.409000	26.087374	0.000847	20.808728
1206.323107	-2.997600	3.483100	-10.440000	26.100562	0.000846	20.802539
1207.321804	-2.985200	3.483500	-10.398000	26.093882	0.000846	20.805310
1208.322941	-2.978200	3.484600	-10.377000	26.083677	0.000847	20.815919
1209.319806	-2.998700	3.484000	-10.446000	26.107444	0.000845	20.818937
1210.325988	-2.996900	3.481600	-10.433000	26.139036	0.000846	20.804214
1211.323614	-2.979400	3.482400	-10.374000	26.126197	0.000847	20.813598
1212.327483	-3.000500	3.481100	-10.445000	26.113309	0.000844	20.813450
1213.319526	-3.015300	3.480600	-10.493000	26.101609	0.000843	20.818290
1214.328057	-3.000000	3.481800	-10.443000	26.109362	0.000843	20.822760
1215.320364	-3.012600	3.479300	-10.480000	26.126944	0.000843	20.838530
1216.324097	-2.978500	3.480100	-10.365000	26.136810	0.000843	20.821417
1217.327956	-2.999700	3.479500	-10.436000	26.148356	0.000842	20.820691
1218.324083	-2.990100	3.478700	-10.401000	26.155336	0.000841	20.815850
1219.328318	-2.981900	3.479700	-10.375000	26.166789	0.000841	20.820721
1220.324439	-3.003800	3.478800	-10.449000	26.200065	0.000839	20.828079
1221.328140	-3.000700	3.478100	-10.435000	26.217425	0.000837	20.822765
1222.332998	-3.014600	3.477900	-10.484000	26.223466	0.000836	20.826939
1223.328499	-2.999500	3.476600	-10.426000	26.217528	0.000837	20.815283
1224.328671	-3.005400	3.476100	-10.446000	26.242010	0.000836	20.820918
1225.332974	-3.005400	3.476100	-10.445000	26.244993	0.000836	20.847149
1226.333818	-2.986100	3.477000	-10.380000	26.211075	0.000834	20.820652
1227.331992	-3.000200	3.475400	-10.425000	26.206209	0.000835	20.828090
1228.337742	-2.990000	3.475500	-10.390000	26.195902	0.000834	20.820578
1229.327259	-2.966600	3.476200	-10.311000	26.178149	0.000835	20.833083
1230.337008	-3.013700	3.474000	-10.467000	26.095471	0.000831	20.824924
1231.327154	-3.003600	3.472500	-10.429000	26.067353	0.000833	20.845984
1232.334319	-3.001100	3.474700	-10.426000	26.018628	0.000832	20.826426
1233.326499	-3.000300	3.472600	-10.418000	25.993542	0.000833	20.823981
1234.342234	-3.002300	3.473200	-10.428000	26.029610	0.000834	20.835563
1235.332812	-2.977600	3.472900	-10.340000	26.014754	0.000832	20.816845
1236.342072	-3.001900	3.471600	-10.420000	26.027324	0.000832	20.842275
1237.337903	-3.013200	3.471500	-10.459000	26.070269	0.000832	20.821413
1238.333318	-2.990000	3.471700	-10.379000	26.104123	0.000828	20.849264
1239.337524	-2.988700	3.471300	-10.373000	26.130972	0.000829	20.828827
1240.330127	-3.021200	3.469600	-10.481000	26.088851	0.000831	20.826333
1241.340242	-3.016200	3.469400	-10.463000	26.052740	0.000829	20.828457
1242.342636	-2.997900	3.471500	-10.406000	26.068460	0.000829	20.853260
1243.351284	-2.988800	3.469900	-10.370000	26.093649	0.000829	20.828309
1244.339796	-3.017000	3.467300	-10.460000	26.134782	0.000828	20.848302
1245.349704	-3.003400	3.468800	-10.417000	26.158180	0.000828	20.840518
1246.346494	-3.003600	3.467900	-10.414000	26.189966	0.000830	20.819829
1247.339664	-3.011500	3.467400	-10.440000	26.202706	0.000827	20.844010
1248.335310	-2.987800	3.468000	-10.361000	26.212591	0.000824	20.843985
1249.349892	-3.027100	3.466200	-10.491000	26.242838	0.000827	20.848776
1250.340918	-3.000300	3.466000	-10.398000	26.262458	0.000827	20.850949
1251.340393	-2.982000	3.467200	-10.337000	26.259971	0.000827	20.847976
1252.342446	-3.012400	3.464700	-10.437000	26.296704	0.000826	20.826571
1253.333613	-3.006700	3.465500	-10.419000	26.310859	0.000825	20.856441
1254.338162	-2.963300	3.466200	-10.271000	26.311527	0.000825	20.832932
1255.344943	-3.006000	3.462700	-10.408000	26.292944	0.000825	20.859774
1256.348022	-3.014300	3.463100	-10.438000	26.272459	0.000823	20.862896
1257.340687	-2.994500	3.464300	-10.372000	26.266920	0.000823	20.851640
1258.356817	-2.980400	3.464500	-10.325000	26.250627	0.000823	20.858026
1259.343010	-2.980800	3.463100	-10.322000	26.271014	0.000822	20.862866
1260.349088	-2.999400	3.461700	-10.381000	26.285665	0.000822	20.862890
1261.340633	-3.005400	3.462000	-10.404000	26.292088	0.000821	20.860811
1262.345423	-3.003600	3.461700	-10.396000	26.269018	0.000821	20.852800
1263.341491	-3.009000	3.460900	-10.413000	26.287984	0.000819	20.876125
1264.344877	-2.996400	3.459500	-10.363000	26.287158	0.000819	20.867235
1265.348462	-2.987000	3.461300	-10.337000	26.275485	0.000816	20.862143
1266.342812	-2.990900	3.460400	-10.348000	26.264033	0.000819	20.874816
1267.348794	-2.999200	3.459200	-10.374000	26.291939	0.000817	20.849282
1268.338146	-3.004700	3.458500	-10.391000	26.299311	0.000818	20.869017
1269.346426	-3.002400	3.459500	-10.386000	26.315445	0.000817	20.869110
1270.344265	-3.024600	3.458000	-10.458000	26.280629	0.000816	20.854985
1271.338461	-3.004800	3.458900	-10.392000	26.210272	0.000815	20.871999
1272.345868	-3.010500	3.457300	-10.407000	26.183474	0.000817	20.854081
1273.344513	-3.012300	3.457100	-10.412000	26.170773	0.000815	20.869766
1274.342578	-2.976500	3.456000	-10.284000	26.138562	0.000815	20.860160
1275.353820	-3.008800	3.456200	-10.397000	26.178770	0.000815	20.861207
1276.346195	-2.989700	3.456400	-10.332000	26.179433	0.000812	20.861874
1277.346146	-2.994400	3.454400	-10.343000	26.161418	0.000814	20.877909
1278.338808	-3.022300	3.453700	-10.437000	26.167921	0.000812	20.870693
1279.340883	-2.997100	3.453800	-10.351000	26.129320	0.000814	20.869365
1280.341231	-3.028500	3.452600	-10.456000	26.169738	0.000811	20.873468
1281.346303	-3.016500	3.454100	-10.417000	26.216152	0.000813	20.872692
1282.349528	-2.989500	3.452900	-10.321000	26.234849	0.000813	20.863032
1283.347221	-2.998700	3.452700	-10.353000	26.277853	0.000810	20.870213
1284.345984	-2.972400	3.453500	-10.264000	26.284301	0.000811	20.873847
1285.347836	-2.994800	3.452100	-10.337000	26.271306	0.000807	20.875486
1286.354046	-2.986500	3.451900	-10.308000	26.273341	0.000809	20.870419
1287.352111	-2.989800	3.452100	-10.320000	26.262056	0.000809	20.880415
1288.355203	-3.009000	3.450400	-10.382000	26.256069	0.000808	20.872977
1289.345810	-2.974400	3.451200	-10.264000	26.293377	0.000807	20.872062
1290.346412	-2.983200	3.449800	-10.290000	26.292011	0.000807	20.857414
1291.346001	-2.994800	3.450800	-10.333000	26.302056	0.000808	20.838112
1292.361438	-2.993000	3.449000	-10.321000	26.300586	0.000805	20.862713
1293.349505	-2.993200	3.449200	-10.323000	26.303726	0.000806	20.863497
1294.354188	-2.996300	3.448000	-10.331000	26.285797	0.000804	20.848325
1295.360503	-3.000900	3.449600	-10.351000	26.264751	0.000805	20.860366
1296.354590	-2.982700	3.448400	-10.283000	26.236903	0.000803	20.866993
1297.350655	-2.982600	3.447900	-10.282000	26.277598	0.000802	20.866637
1298.353391	-2.999900	3.446600	-10.339000	26.281515	0.000804	20.849712
1299.351835	-2.988200	3.446700	-10.299000	26.327049	0.000801	20.875082
1300.347850	-2.998700	3.445800	-10.331000	26.320213	0.000800	20.850669
1301.352879	-3.003200	3.444800	-10.345000	26.340691	0.000804	20.859870
1302.353887	-3.005700	3.444600	-10.353000	26.308127	0.000798	20.848007
1303.362638	-3.005400	3.445700	-10.354000	26.258478	0.000799	20.873027
1304.359763	-3.004300	3.443900	-10.346000	26.232498	0.000800	20.838385
1305.365311	-3.000300	3.442700	-10.328000	26.220918	0.000798	20.852352
1306.367054	-3.000900	3.442800	-10.330000	26.229008	0.000797	20.852421
1307.354578	-3.013100	3.442500	-10.372000	26.266995	0.000795	20.842707
1308.367360	-2.998400	3.443800	-10.325000	26.279080	0.000796	20.868127
1309.356990	-3.002400	3.444000	-10.339000	26.307600	0.000794	20.870709
1310.355508	-2.970500	3.443500	-10.228000	26.283189	0.000795	20.843333
1311.359122	-3.007600	3.441400	-10.349000	26.261249	0.000795	20.875811
1312.354605	-3.025400	3.439500	-10.405000	26.252235	0.000793	20.861538
1313.372195	-3.023200	3.438900	-10.395000	26.225434	0.000794	20.860683
1314.358780	-2.995900	3.440000	-10.304000	26.229051	0.000792	20.853887
1315.363197	-3.024300	3.438400	-10.397000	26.249477	0.000792	20.847388
1316.355530	-3.007900	3.440000	-10.347000	26.272695	0.000789	20.863607
1317.357102	-3.008800	3.439300	-10.346000	26.287965	0.000791	20.862831
1318.358347	-2.991400	3.438600	-10.284000	26.270307	0.000790	20.852672
1319.362940	-2.982300	3.439100	-10.255000	26.285095	0.000787	20.847146
1320.358997	-2.993700	3.438000	-10.292000	26.329666	0.000790	20.860643
1321.363503	-3.011300	3.436700	-10.348000	26.324520	0.000787	20.834611
1322.356371	-2.999700	3.436900	-10.309000	26.351835	0.000787	20.845940
1323.357147	-3.005500	3.437100	-10.329000	26.374992	0.000786	20.849299
1324.365888	-2.980900	3.436000	-10.241000	26.371070	0.000786	20.857211
1325.361806	-2.997000	3.435100	-10.293000	26.386983	0.000786	20.856134
1326.362164	-2.988100	3.436600	-10.268000	26.420301	0.000784	20.851215
1327.372532	-3.022500	3.434200	-10.379000	26.386182	0.000786	20.860545
1328.371939	-2.995900	3.434900	-10.290000	26.430075	0.000783	20.836858
1329.363552	-3.024300	3.432900	-10.380000	26.430896	0.000784	20.851906
1330.365963	-2.995200	3.435700	-10.289000	26.412026	0.000782	20.825829
1331.374783	-2.995800	3.433700	-10.286000	26.390147	0.000782	20.846039
1332.366301	-2.993100	3.432600	-10.273000	26.399553	0.000783	20.843639
1333.360996	-3.011000	3.432000	-10.332000	26.406807	0.000780	20.837179
1334.359855	-3.005300	3.432700	-10.314000	26.404492	0.000780	20.845758
1335.363977	-2.992200	3.432500	-10.270000	26.385199	0.000780	20.869988
1336.362791	-3.024200	3.430900	-10.375000	26.352695	0.000779	20.845856
1337.362522	-2.993500	3.431600	-10.272000	26.328211	0.000778	20.820302
1338.362721	-2.993400	3.431700	-10.271000	26.324958	0.000779	20.834576
1339.375294	-2.993800	3.431000	-10.270000	26.322825	0.000780	20.839544
1340.359685	-2.998900	3.429700	-10.283000	26.300748	0.000779	20.842962
1341.361501	-3.006900	3.429900	-10.313000	26.322594	0.000778	20.834571
1342.361740	-2.993000	3.428600	-10.261000	26.309526	0.000777	20.840404
1343.360215	-2.986000	3.427900	-10.234000	26.282318	0.000776	20.831553
1344.364318	-3.009500	3.428700	-10.318000	26.311315	0.000776	20.816124
1345.367244	-3.019100	3.426900	-10.346000	26.317247	0.000777	20.848637
1346.370159	-2.998900	3.426600	-10.275000	26.311757	0.000777	20.848336
1347.365614	-3.001900	3.426400	-10.285000	26.289951	0.000775	20.828318
1348.366391	-3.008600	3.426600	-10.308000	26.266797	0.000775	20.825913
1349.371673	-2.995000	3.425200	-10.258000	26.269727	0.000774	20.848296
1350.378942	-3.002700	3.424500	-10.281000	26.273422	0.000774	20.830200
1351.373928	-2.993200	3.424900	-10.249000	26.294699	0.000775	20.834986
1352.363808	-2.981100	3.425300	-10.209000	26.305054	0.000775	20.834013
1353.366354	-2.986500	3.424000	-10.225000	26.345742	0.000775	20.848825
1354.365261	-2.984300	3.424000	-10.217000	26.342931	0.000773	20.835569
1355.376006	-2.979700	3.423400	-10.200000	26.383651	0.000772	20.837140
1356.367131	-3.002700	3.421700	-10.273000	26.415923	0.000772	20.812203
1357.371828	-2.996400	3.423000	-10.255000	26.377086	0.000772	20.828171
1358.382219	-2.985500	3.421400	-10.212000	26.371316	0.000770	20.839916
1359.367984	-3.005500	3.420800	-10.280000	26.372752	0.000769	20.821444
1360.370971	-2.986500	3.421200	-10.216000	26.387401	0.000768	20.844701
1361.369958	-2.988900	3.422600	-10.228000	26.423545	0.000768	20.833140
1362.371080	-3.001800	3.420500	-10.267000	26.410434	0.000767	20.826126
1363.380062	-2.982000	3.421700	-10.203000	26.417457	0.000767	20.848831
1364.369795	-3.005200	3.419500	-10.275000	26.417997	0.000768	20.828038
1365.369256	-3.002700	3.418300	-10.263000	26.456529	0.000766	20.837368
1366.378717	-3.004900	3.418100	-10.269000	26.464966	0.000767	20.807442
1367.382400	-3.003100	3.419000	-10.266000	26.470804	0.000763	20.811887
1368.374342	-2.995500	3.417900	-10.237000	26.465757	0.000761	20.837634
1369.370860	-2.997500	3.417600	-10.243000	26.479609	0.000762	20.840178
1370.373176	-2.988800	3.417300	-10.213000	26.468853	0.000761	20.824625
1371.378103	-2.992700	3.418000	-10.228000	26.409437	0.000761	20.824176
1372.373187	-3.011700	3.416900	-10.290000	26.399904	0.000760	20.810801
1373.379705	-3.003700	3.414100	-10.254000	26.340479	0.000760	20.821726
1374.372415	-2.982200	3.416300	-10.186000	26.322330	0.000759	20.826720
1375.374265	-2.985700	3.414200	-10.193000	26.328734	0.000758	20.831259
1376.375040	-3.008600	3.413100	-10.268000	26.348574	0.000759	20.799516
1377.375787	-2.997200	3.413900	-10.231000	26.388203	0.000757	20.826068
1378.384502	-3.003300	3.413500	-10.250000	26.388380	0.000758	20.828142
1379.380896	-3.001100	3.411900	-10.238000	26.400346	0.000757	20.820729
1380.380737	-2.999200	3.412800	-10.235000	26.421649	0.000754	20.845458
1381.376171	-2.990300	3.412200	-10.202000	26.450755	0.000754	20.829194
1382.380188	-2.994200	3.412300	-10.216000	26.435659	0.000754	20.812125
1383.380681	-3.002700	3.411900	-10.244000	26.418700	0.000753	20.826374
1384.387027	-2.997300	3.410800	-10.222000	26.359680	0.000753	20.801669
1385.377705	-2.999800	3.411200	-10.232000	26.378428	0.000754	20.811977
1386.379247	-3.022500	3.410000	-10.306000	26.360550	0.000753	20.802543
1387.382728	-3.013600	3.409900	-10.274000	26.382502	0.000752	20.807536
1388.385020	-2.991600	3.411900	-10.205000	26.399884	0.000751	20.823109
1389.379751	-3.000600	3.408700	-10.227000	26.392291	0.000750	20.800780
1390.384376	-3.016900	3.408300	-10.281000	26.380369	0.000749	20.816772
1391.388315	-2.996000	3.409200	-10.212000	26.344268	0.000750	20.815103
1392.384221	-3.028500	3.406300	-10.315000	26.323735	0.000749	20.822916
1393.381410	-3.000500	3.408200	-10.225000	26.313208	0.000748	20.820397
1394.392138	-3.016200	3.405900	-10.272000	26.277473	0.000748	20.793020
1395.385969	-3.006600	3.407300	-10.244000	26.285470	0.000748	20.801056
1396.396660	-2.999400	3.407100	-10.218000	26.275915	0.000746	20.806627
1397.395153	-2.994100	3.406100	-10.197000	26.235938	0.000749	20.817187
1398.385372	-2.990300	3.406400	-10.185000	26.215176	0.000747	20.801066
1399.385688	-3.008300	3.405000	-10.242000	26.216292	0.000745	20.803135
1400.384252	-2.994100	3.405500	-10.196000	26.218135	0.000744	20.796927
1401.389335	-3.023000	3.404200	-10.288000	26.252334	0.000745	20.810904
1402.386509	-2.979300	3.406100	-10.147000	26.278210	0.000743	20.820787
1403.397060	-3.010800	3.404400	-10.248000	26.265122	0.000743	20.799574
1404.392488	-3.005200	3.402800	-10.225000	26.296169	0.000743	20.818446
1405.397081	-3.003100	3.403400	-10.219000	26.325224	0.000741	20.783635
1406.385466	-3.006600	3.403100	-10.231000	26.306401	0.000742	20.805970
1407.385161	-2.991000	3.402300	-10.175000	26.299378	0.000741	20.798438
1408.384149	-2.981900	3.402100	-10.144000	26.283833	0.000741	20.795143
1409.387156	-3.001500	3.402100	-10.210000	26.242813	0.000739	20.780474
1410.387879	-3.007800	3.401000	-10.229000	26.229179	0.000741	20.770566
1411.397431	-3.003000	3.400000	-10.209000	26.226078	0.000739	20.790209
1412.388401	-2.989600	3.401600	-10.168000	26.211278	0.000737	20.780079
1413.384866	-2.999400	3.398300	-10.191000	26.241658	0.000736	20.794960
1414.386168	-2.982300	3.399000	-10.136000	26.259588	0.000737	20.794486
1415.386460	-3.019100	3.398200	-10.258000	26.309698	0.000736	20.786999
1416.387398	-2.981300	3.399200	-10.133000	26.353384	0.000738	20.778745
1417.389064	-2.991600	3.398300	-10.165000	26.361242	0.000735	20.795178
1418.391644	-2.987600	3.397100	-10.149000	26.412065	0.000736	20.793153
1419.395586	-3.013100	3.397600	-10.235000	26.448243	0.000736	20.790159
1420.387576	-3.018800	3.397100	-10.254000	26.470095	0.000734	20.795528
1421.389575	-3.002800	3.397600	-10.201000	26.490035	0.000733	20.780009
1422.391484	-3.022200	3.395700	-10.262000	26.491971	0.000734	20.780533
1423.391348	-3.011700	3.394500	-10.222000	26.507592	0.000733	20.768259
1424.394928	-3.006700	3.394900	-10.206000	26.517778	0.000731	20.783240
1425.393473	-3.021000	3.394600	-10.253000	26.510427	0.000732	20.782489
1426.393631	-3.002000	3.395300	-10.191000	26.515724	0.000733	20.760786
1427.396780	-3.009300	3.394400	-10.213000	26.530102	0.000733	20.785670
1428.396271	-2.974400	3.393600	-10.093000	26.502496	0.000731	20.784474
1429.393516	-3.012500	3.393700	-10.222000	26.484748	0.000731	20.776117
1430.400548	-2.993200	3.393600	-10.156000	26.475362	0.000730	20.769528
1431.395358	-3.006100	3.392000	-10.196000	26.434842	0.000731	20.783803
1432.394191	-2.987900	3.393400	-10.138000	26.395263	0.000729	20.785274
1433.398782	-2.977900	3.391900	-10.099000	26.340886	0.000728	20.786573
1434.398804	-2.982500	3.391900	-10.116000	26.357944	0.000727	20.772423
1435.395395	-2.994900	3.390400	-10.153000	26.359330	0.000726	20.782350
1436.395236	-2.985200	3.390600	-10.120000	26.319950	0.000726	20.767429
1437.397577	-3.006400	3.389500	-10.189000	26.360106	0.000726	20.767958
1438.402326	-3.005900	3.388900	-10.185000	26.397922	0.000725	20.781308
1439.404385	-3.011300	3.388300	-10.201000	26.402836	0.000725	20.777238
1440.396608	-2.997600	3.387800	-10.154000	26.432852	0.000725	20.773267
1441.406454	-3.012700	3.386900	-10.202000	26.397421	0.000725	20.764683
1442.405424	-3.005100	3.387100	-10.178000	26.431269	0.000723	20.763142
1443.404079	-3.000700	3.387200	-10.163000	26.445943	0.000720	20.766510
1444.399560	-2.993700	3.386800	-10.138000	26.423421	0.000721	20.767108
1445.405332	-3.020500	3.386600	-10.228000	26.423618	0.000723	20.748339
1446.398663	-3.019700	3.386000	-10.224000	26.425554	0.000720	20.761665
1447.403345	-3.002500	3.385900	-10.165000	26.437127	0.000719	20.747218
1448.399164	-3.018800	3.386100	-10.221000	26.469947	0.000718	20.762189
1449.398908	-3.000500	3.385200	-10.156000	26.447682	0.000719	20.773001
1450.399868	-2.988800	3.384700	-10.115000	26.423893	0.000718	20.777540
1451.402119	-2.984900	3.385500	-10.104000	26.414704	0.000717	20.729421
1452.412137	-2.994700	3.384000	-10.133000	26.430478	0.000717	20.768037
1453.400054	-3.000400	3.383700	-10.152000	26.402866	0.000717	20.762095
1454.408310	-2.991400	3.384700	-10.124000	26.409696	0.000716	20.752839
1455.399539	-2.995300	3.384000	-10.135000	26.424321	0.000716	20.755684
1456.404643	-3.042700	3.381200	-10.287000	26.454218	0.000713	20.744481
1457.401814	-2.990200	3.382700	-10.114000	26.491632	0.000715	20.763122
1458.402161	-2.983400	3.382200	-10.089000	26.489721	0.000713	20.748872
1459.402866	-3.018300	3.380000	-10.201000	26.460375	0.000712	20.765369
1460.404014	-3.004400	3.380600	-10.156000	26.442203	0.000712	20.739043
1461.403183	-3.000700	3.380600	-10.143000	26.444655	0.000712	20.765216
1462.403633	-2.986700	3.380900	-10.097000	26.421598	0.000709	20.727816
1463.407870	-2.999600	3.379900	-10.138000	26.457102	0.000709	20.753545
1464.403540	-3.016300	3.379900	-10.194000	26.468080	0.000707	20.755570
1465.404307	-3.009400	3.379400	-10.170000	26.522972	0.000709	20.747208
1466.410525	-2.997900	3.378700	-10.128000	26.569228	0.000709	20.758617
1467.417982	-3.015500	3.376900	-10.181000	26.533600	0.000705	20.748408
1468.404574	-2.997200	3.378700	-10.125000	26.509499	0.000708	20.749312
1469.409044	-3.014600	3.376200	-10.178000	26.492345	0.000707	20.744397
1470.408219	-2.984700	3.379300	-10.084000	26.452916	0.000707	20.760717
1471.406342	-2.994600	3.377600	-10.112000	26.489146	0.000705	20.743553
1472.405689	-3.016000	3.376100	-10.182000	26.504762	0.000706	20.744550
1473.410850	-2.990300	3.377200	-10.096000	26.556330	0.000705	20.749445
1474.411719	-2.968700	3.376900	-10.023000	26.564545	0.000702	20.732572
1475.412125	-3.006500	3.374100	-10.143000	26.592645	0.000703	20.737112
1476.410232	-3.023700	3.373200	-10.199000	26.569439	0.000704	20.743182
1477.415249	-3.006400	3.374400	-10.144000	26.547599	0.000702	20.728814
1478.410703	-3.021100	3.372900	-10.188000	26.555220	0.000701	20.729362
1479.414047	-2.998500	3.374100	-10.116000	26.566442	0.000702	20.744911
1480.412363	-3.005100	3.374100	-10.138000	26.566840	0.000701	20.741992
1481.412700	-2.997700	3.371500	-10.106000	26.570962	0.000701	20.750878
1482.412562	-2.979300	3.373300	-10.048000	26.534666	0.000701	20.739996
1483.413062	-2.989500	3.373600	-10.084000	26.551746	0.000701	20.740569
1484.413970	-2.970100	3.372300	-10.015000	26.532951	0.000701	20.738747
1485.414218	-3.015600	3.370600	-10.163000	26.549579	0.000700	20.740762
1486.414398	-2.989900	3.370500	-10.076000	26.545117	0.000697	20.727268
1487.413981	-2.984700	3.371700	-10.062000	26.575724	0.000699	20.722946
1488.415047	-3.012900	3.369600	-10.151000	26.558723	0.000697	20.724823
1489.413911	-2.963000	3.371800	-9.989900	26.550527	0.000697	20.741715
1490.416063	-2.979200	3.370700	-10.041000	26.541437	0.000699	20.731629
1491.415411	-3.009100	3.369100	-10.136000	26.538656	0.000697	20.733575
1492.415513	-3.002300	3.368700	-10.112000	26.510476	0.000699	20.740337
1493.416967	-2.987500	3.368300	-10.061000	26.487111	0.000696	20.739137
1494.418622	-3.010800	3.367800	-10.139000	26.509233	0.000697	20.731975
1495.421031	-3.018600	3.366900	-10.162000	26.527006	0.000694	20.735615
1496.417694	-3.012200	3.367900	-10.144000	26.534755	0.000696	20.731550
1497.417846	-3.005900	3.366300	-10.117000	26.487902	0.000695	20.734716
1498.419409	-3.016900	3.365300	-10.151000	26.443112	0.000693	20.729051
1499.421469	-2.989700	3.366500	-10.063000	26.390147	0.000693	20.724655
1500.419508	-2.991600	3.367300	-10.072000	26.350636	0.000693	20.725247
1501.417518	-2.957400	3.366800	-9.955500	26.409185	0.000692	20.727668
1502.417764	-2.988200	3.364200	-10.050000	26.461299	0.000691	20.725045
1503.418811	-2.978700	3.364100	-10.020000	26.458837	0.000692	20.728260
1504.418723	-3.012400	3.363800	-10.132000	26.421446	0.000690	20.729085
1505.419248	-3.001000	3.362700	-10.091000	26.377940	0.000691	20.709540
1506.418032	-3.004400	3.363600	-10.105000	26.384270	0.000690	20.733921
1507.420414	-3.014700	3.363200	-10.138000	26.374407	0.000689	20.709308
1508.417406	-3.005300	3.362400	-10.104000	26.430522	0.000689	20.725880
1509.419758	-3.003900	3.361200	-10.095000	26.452542	0.000689	20.736159
1510.420063	-3.002100	3.361800	-10.091000	26.516643	0.000687	20.728043
1511.419430	-3.005700	3.360800	-10.100000	26.548935	0.000688	20.719725
1512.420091	-2.973900	3.362600	-9.997400	26.532745	0.000687	20.731901
1513.417470	-3.006900	3.359900	-10.102000	26.541899	0.000686	20.723084
1514.417723	-3.015000	3.359600	-10.128000	26.484296	0.000686	20.730143
1515.420157	-3.001700	3.360400	-10.086000	26.437692	0.000687	20.721232
1516.419034	-3.002000	3.358700	-10.082000	26.421618	0.000686	20.724043
1517.417544	-3.003500	3.360500	-10.092000	26.389710	0.000683	20.730854
1518.418463	-2.996500	3.359300	-10.064000	26.384688	0.000683	20.750463
1519.419138	-3.014300	3.357700	-10.120000	26.413987	0.000682	20.740081
1520.418599	-3.023300	3.358000	-10.151000	26.453010	0.000682	20.742793
1521.421826	-3.015000	3.357600	-10.122000	26.489033	0.000681	20.727318
1522.420172	-3.005000	3.357900	-10.089000	26.505662	0.000680	20.734075
1523.421877	-2.999900	3.357100	-10.070000	26.492571	0.000680	20.749367
1524.421082	-2.997200	3.357300	-10.062000	26.512777	0.000680	20.751185
1525.421603	-3.001600	3.355800	-10.071000	26.507583	0.000678	20.731265
1526.424942	-2.987200	3.355600	-10.023000	26.504999	0.000678	20.748108
1527.423192	-3.005700	3.355300	-10.083000	26.541989	0.000676	20.738822
1528.423801	-3.006400	3.354600	-10.084000	26.576865	0.000674	20.742112
1529.423306	-2.977700	3.355700	-9.991200	26.608836	0.000676	20.747224
1530.422568	-2.999900	3.355200	-10.063000	26.639494	0.000674	20.724463
1531.424022	-2.986000	3.354600	-10.016000	26.645567	0.000672	20.749062
1532.424464	-2.996700	3.353800	-10.049000	26.665897	0.000673	20.743421
1533.422599	-3.004400	3.352500	-10.071000	26.689352	0.000672	20.736654
1534.427932	-2.996500	3.352700	-10.045000	26.705834	0.000670	20.752277
1535.423053	-3.005900	3.352900	-10.077000	26.710497	0.000670	20.729462
1536.425321	-3.002900	3.352800	-10.067000	26.722956	0.000671	20.731557
1537.431902	-3.014500	3.351300	-10.102000	26.717817	0.000671	20.747254
1538.424272	-2.974500	3.353500	-9.973900	26.652352	0.000671	20.770582
1539.425395	-3.001500	3.350100	-10.054000	26.620132	0.000669	20.752890
1540.425562	-2.996400	3.350500	-10.039000	26.585719	0.000668	20.733469
1541.425109	-2.986500	3.350700	-10.006000	26.596200	0.000669	20.748272
1542.426595	-2.996600	3.349300	-10.035000	26.602155	0.000666	20.762319
1543.425228	-3.000300	3.349100	-10.047000	26.634523	0.000666	20.768780
1544.426203	-2.985100	3.348400	-9.994400	26.666075	0.000666	20.758299
1545.426003	-3.024500	3.347200	-10.123000	26.697046	0.000664	20.747709
1546.425148	-2.998600	3.347800	-10.037000	26.698166	0.000665	20.741722
1547.428641	-2.996300	3.347600	-10.030000	26.696181	0.000665	20.742098
1548.427104	-2.967100	3.346700	-9.929500	26.722219	0.000662	20.755948
1549.425672	-3.004700	3.346500	-10.055000	26.749720	0.000665	20.759415
1550.426456	-3.019400	3.346500	-10.103000	26.745156	0.000663	20.759568
1551.426383	-3.002800	3.348000	-10.052000	26.750467	0.000663	20.752579
1552.426348	-3.001100	3.345700	-10.040000	26.763716	0.000661	20.752624
1553.426908	-2.991300	3.345700	-10.007000	26.757438	0.000661	20.761485
1554.426575	-2.977400	3.344800	-9.958300	26.744479	0.000663	20.768844
1555.427732	-3.002700	3.345300	-10.044000	26.731298	0.000660	20.764601
1556.430739	-3.004200	3.343200	-10.042000	26.716383	0.000659	20.771417
1557.425464	-3.015500	3.342600	-10.078000	26.695179	0.000659	20.772386
1558.428984	-2.988000	3.344100	-9.990200	26.735046	0.000659	20.749877
1559.426000	-3.004300	3.341600	-10.039000	26.729461	0.000657	20.757538
1560.427505	-3.021200	3.341500	-10.093000	26.766143	0.000657	20.756961
1561.430051	-3.004100	3.341200	-10.036000	26.740848	0.000656	20.761875
1562.428715	-3.008300	3.341400	-10.051000	26.711210	0.000655	20.760527
1563.427884	-3.005800	3.342300	-10.044000	26.675066	0.000655	20.746000
1564.431620	-3.025200	3.340100	-10.103000	26.662779	0.000655	20.743605
1565.431415	-3.004600	3.340500	-10.036000	26.672162	0.000655	20.769635
1566.436028	-2.991100	3.340000	-9.989100	26.687697	0.000654	20.753009
1567.430164	-3.023600	3.340200	-10.098000	26.675238	0.000651	20.773201
1568.434014	-2.998500	3.338800	-10.009000	26.671765	0.000652	20.782037
1569.433207	-2.972100	3.339600	-9.924500	26.606995	0.000650	20.761969
1570.430909	-2.994300	3.338900	-9.995600	26.601507	0.000652	20.770203
1571.431983	-3.010700	3.338800	-10.051000	26.548555	0.000651	20.772924
1572.431486	-2.987100	3.339100	-9.973200	26.541774	0.000649	20.757573
1573.431837	-3.000900	3.337500	-10.015000	26.510347	0.000647	20.762493
1574.436647	-2.987600	3.337400	-9.969600	26.504411	0.000650	20.773122
1575.435020	-2.982800	3.336600	-9.950200	26.482884	0.000649	20.748638
1576.438571	-2.996900	3.335300	-9.994600	26.465626	0.000648	20.754526
1577.434084	-3.014200	3.335600	-10.053000	26.469503	0.000645	20.773122
1578.435082	-2.984300	3.336900	-9.956400	26.501232	0.000646	20.756176
1579.437448	-3.009300	3.335000	-10.035000	26.536040	0.000645	20.754180
1580.434698	-2.981300	3.335200	-9.941500	26.572734	0.000644	20.782057
1581.433793	-2.982700	3.335700	-9.947600	26.551081	0.000646	20.759342
1582.434360	-2.996900	3.333200	-9.987500	26.534571	0.000643	20.779731
1583.434895	-2.965000	3.335000	-9.887500	26.506642	0.000643	20.754501
1584.433420	-3.006400	3.333000	-10.020000	26.526061	0.000641	20.766908
1585.437548	-2.997900	3.331400	-9.985600	26.567221	0.000641	20.775093
1586.433804	-2.993200	3.332800	-9.975200	26.595547	0.000643	20.778911
1587.435681	-2.979000	3.332100	-9.925400	26.659349	0.000641	20.769556
1588.435638	-2.963800	3.332200	-9.874200	26.694767	0.000642	20.765333
1589.434688	-3.002600	3.330000	-9.997500	26.694915	0.000640	20.794879
1590.436996	-3.003700	3.330800	-10.003000	26.701026	0.000640	20.770677
1591.435506	-3.022400	3.329300	-10.060000	26.667564	0.000639	20.787297
1592.435980	-3.005500	3.329300	-10.005000	26.634868	0.000637	20.779084
1593.435224	-3.005900	3.329400	-10.006000	26.620177	0.000637	20.780911
1594.435432	-3.018600	3.328400	-10.046000	26.601753	0.000637	20.776140
1595.435251	-2.981600	3.328900	-9.924800	26.603094	0.000637	20.777962
1596.437746	-3.000500	3.328100	-9.985500	26.616252	0.000636	20.785974
1597.437071	-2.993100	3.329600	-9.964300	26.578670	0.000635	20.795136
1598.438404	-2.998300	3.327500	-9.975600	26.589514	0.000636	20.764785
1599.438098	-3.024800	3.327100	-10.062000	26.613623	0.000634	20.793763
1600.438438	-2.985000	3.326500	-9.927800	26.620944	0.000632	20.774569
1601.440436	-2.997200	3.325700	-9.965900	26.649617	0.000633	20.771151
1602.437886	-3.000500	3.326400	-9.979500	26.650536	0.000629	20.768282
1603.441019	-3.008700	3.326200	-10.007000	26.679557	0.000632	20.778017
1604.438286	-3.004200	3.326000	-9.991100	26.694899	0.000629	20.780165
1605.438921	-2.991500	3.324400	-9.944200	26.761300	0.000631	20.780066
1606.440300	-3.002000	3.324000	-9.977700	26.783072	0.000628	20.773507
1607.438420	-3.026000	3.322800	-10.053000	26.829577	0.000627	20.764789
1608.441584	-3.010100	3.323500	-10.000000	26.849860	0.000630	20.777597
1609.438300	-3.006100	3.323100	-9.988400	26.816427	0.000627	20.801354
1610.438190	-2.974200	3.324100	-9.884500	26.816329	0.000629	20.764271
1611.437801	-2.970700	3.324000	-9.872600	26.765569	0.000626	20.784833
1612.440588	-2.996200	3.322800	-9.954900	26.759762	0.000625	20.785633
1613.437330	-2.973000	3.323000	-9.878100	26.746734	0.000623	20.797190
1614.440021	-3.012300	3.320500	-10.001000	26.735194	0.000624	20.766622
1615.438136	-3.011200	3.320200	-9.996500	26.752422	0.000623	20.793426
1616.440076	-3.004100	3.320300	-9.973900	26.778660	0.000624	20.786615
1617.442020	-2.991900	3.320400	-9.933100	26.803212	0.000623	20.796602
1618.439081	-3.009600	3.319400	-9.989000	26.808970	0.000622	20.789589
1619.439051	-3.007000	3.318400	-9.977700	26.822154	0.000622	20.793836
1620.439305	-2.992300	3.319800	-9.933600	26.883585	0.000619	20.797283
1621.439804	-2.995100	3.318300	-9.937800	26.912374	0.000621	20.784506
1622.438931	-3.028700	3.317100	-10.046000	26.922826	0.000619	20.786956
1623.443621	-2.994000	3.317600	-9.931800	26.948461	0.000619	20.788077
1624.439956	-2.978300	3.318400	-9.882600	26.949586	0.000620	20.803906
1625.440110	-3.011300	3.317400	-9.988800	26.962194	0.000616	20.799516
1626.439034	-3.003800	3.316600	-9.961800	26.981855	0.000617	20.777561
1627.439281	-2.994300	3.316200	-9.928900	26.953544	0.000619	20.797930
1628.443842	-2.986600	3.315700	-9.901800	26.960273	0.000617	20.793317
1629.440276	-2.990900	3.316100	-9.917400	26.958863	0.000615	20.790951
1630.441702	-2.992100	3.314800	-9.917000	26.981771	0.000616	20.792176
1631.440464	-2.993300	3.316000	-9.925200	26.980229	0.000614	20.784461
1632.438952	-2.995700	3.314500	-9.927000	26.989497	0.000614	20.795677
1633.444244	-2.990300	3.313600	-9.907000	26.983617	0.000613	20.801145
1634.441755	-2.982600	3.313400	-9.882100	26.956024	0.000612	20.793311
1635.443122	-3.034200	3.312600	-10.050000	26.953622	0.000611	20.782361
1636.441624	-2.987000	3.314300	-9.899300	26.946623	0.000610	20.803772
1637.441817	-2.972100	3.313300	-9.846600	26.941190	0.000608	20.791197
1638.443459	-2.993600	3.311800	-9.913500	26.954550	0.000609	20.802735
1639.445892	-2.990500	3.312100	-9.904200	26.963759	0.000608	20.802987
1640.454518	-2.981600	3.312000	-9.874100	26.958750	0.000609	20.784198
1641.443819	-3.001600	3.311300	-9.937600	26.947634	0.000607	20.792935
1642.443410	-2.985000	3.311300	-9.883400	26.975704	0.000608	20.793187
1643.443510	-2.972400	3.311100	-9.840700	27.001868	0.000607	20.784410
1644.445437	-2.995100	3.310000	-9.913000	27.002737	0.000607	20.793819
1645.442722	-2.998000	3.309100	-9.919600	27.026386	0.000605	20.822342
1646.450571	-3.010200	3.309000	-9.959900	27.018699	0.000606	20.811294
1647.442359	-3.017000	3.309400	-9.983400	27.000365	0.000605	20.818460
1648.442670	-3.014600	3.307400	-9.969100	26.974884	0.000605	20.787147
1649.446712	-2.997000	3.309000	-9.915600	27.007275	0.000602	20.814978
1650.446478	-3.002500	3.308100	-9.931500	27.012634	0.000603	20.802823
1651.444596	-3.015800	3.307200	-9.972600	26.997673	0.000603	20.788727
1652.445160	-2.993200	3.307400	-9.897600	26.996863	0.000602	20.805930
1653.443876	-2.998400	3.307900	-9.917000	26.973386	0.000604	20.795597
1654.445903	-3.008300	3.305600	-9.943200	26.958130	0.000602	20.783101
1655.448934	-2.992400	3.305700	-9.891200	26.928429	0.000598	20.808236
1656.443375	-2.983500	3.305900	-9.862000	26.911459	0.000600	20.808241
1657.462632	-3.012600	3.305300	-9.956900	26.896394	0.000601	20.800205
1658.445827	-3.014700	3.304700	-9.961100	26.898334	0.000599	20.805949
1659.444510	-2.995500	3.302800	-9.891800	26.927697	0.000597	20.797543
1660.448294	-3.011400	3.302500	-9.944600	26.941254	0.000598	20.805485
1661.446303	-3.001800	3.303700	-9.915800	26.946637	0.000595	20.826071
1662.446331	-2.983900	3.303500	-9.856400	26.940536	0.000598	20.809506
1663.447472	-2.981700	3.303500	-9.849100	26.980797	0.000597	20.811111
1664.447107	-2.994500	3.300200	-9.881500	27.024524	0.000593	20.811461
1665.449016	-2.971500	3.302200	-9.811100	27.062542	0.000594	20.809392
1666.451809	-2.990600	3.302500	-9.875500	27.069295	0.000593	20.815709
1667.448413	-2.982800	3.301800	-9.847800	27.023389	0.000592	20.810321
1668.448167	-2.986900	3.301800	-9.861300	26.964461	0.000591	20.819813
1669.449099	-3.000600	3.299700	-9.900100	26.981760	0.000593	20.823458
1670.447967	-2.960200	3.300900	-9.769300	26.981239	0.000590	20.814874
1671.453364	-2.987200	3.298800	-9.852300	27.002860	0.000591	20.817176
1672.449036	-2.972100	3.300800	-9.808600	26.950227	0.000590	20.798862
1673.448351	-2.998900	3.299200	-9.893000	26.914440	0.000589	20.829731
1674.447398	-3.012900	3.298400	-9.936700	26.902804	0.000589	20.816608
1675.448318	-2.999800	3.297500	-9.890700	26.841777	0.000588	20.817833
1676.448408	-3.013000	3.296800	-9.932700	26.825001	0.000588	20.820880
1677.451934	-2.995900	3.297100	-9.876700	26.804026	0.000587	20.813067
1678.450174	-3.022600	3.295900	-9.961200	26.791745	0.000586	20.813995
1679.451098	-3.001800	3.296000	-9.892200	26.788847	0.000585	20.818194
1680.450319	-3.000500	3.295900	-9.888100	26.819500	0.000586	20.825306
1681.450718	-3.013200	3.294600	-9.926200	26.872438	0.000583	20.829696
1682.453360	-2.971400	3.296500	-9.794200	26.912898	0.000583	20.811111
1683.454344	-3.009800	3.295200	-9.916800	26.933277	0.000585	20.842508
1684.452255	-2.990300	3.293400	-9.846900	26.984054	0.000583	20.824343
1685.450421	-2.995300	3.293700	-9.864400	27.000488	0.000584	20.827119
1686.452041	-3.015300	3.292900	-9.928300	27.009299	0.000580	20.838350
1687.451675	-2.998000	3.293400	-9.872200	27.000866	0.000582	20.813749
1688.451881	-3.000800	3.292800	-9.878300	27.010365	0.000581	20.821878
1689.452042	-2.987100	3.292000	-9.832500	27.034013	0.000580	20.820530
1690.451334	-2.991300	3.292100	-9.847300	27.042755	0.000580	20.833115
1691.451556	-3.009400	3.291100	-9.902800	27.069104	0.000579	20.823577
1692.453871	-2.996100	3.290900	-9.858400	27.094018	0.000576	20.834408
1693.454437	-3.002700	3.290900	-9.879700	27.095609	0.000579	20.840750
1694.453102	-3.019700	3.289800	-9.933500	27.113946	0.000577	20.838330
1695.456028	-2.986000	3.290300	-9.824400	27.127520	0.000574	20.829697
1696.453216	-3.030100	3.288900	-9.963900	27.128267	0.000576	20.822861
1697.453650	-2.996300	3.289100	-9.853800	27.136930	0.000575	20.827781
1698.456091	-2.999500	3.287500	-9.860000	27.115636	0.000574	20.847615
1699.455414	-3.042500	3.286800	-9.998700	27.083783	0.000574	20.837392
1700.457843	-3.007800	3.286500	-9.883400	27.064649	0.000572	20.833796
1701.456258	-2.980400	3.288600	-9.799700	27.065666	0.000573	20.846672
1702.457767	-2.992900	3.286800	-9.835600	27.092967	0.000572	20.852791
1703.459780	-2.982500	3.286200	-9.800200	27.051330	0.000571	20.839842
1704.460742	-2.971700	3.287300	-9.767100	27.047485	0.000571	20.842612
1705.456676	-2.976800	3.285700	-9.779400	27.062597	0.000571	20.819404
1706.456677	-2.992200	3.285100	-9.828400	27.066815	0.000570	20.855414
1707.457738	-3.014600	3.284300	-9.900000	27.111830	0.000569	20.823874
1708.456840	-2.985200	3.285400	-9.806500	27.107911	0.000570	20.849803
1709.460094	-2.980900	3.285000	-9.791000	27.117787	0.000567	20.838874
1710.457996	-3.006200	3.284200	-9.871400	27.090124	0.000568	20.841397
1711.461879	-2.984400	3.285400	-9.803600	27.124387	0.000565	20.831762
1712.460622	-3.011800	3.282500	-9.884600	27.149845	0.000566	20.856891
1713.465249	-3.004500	3.282600	-9.860300	27.175877	0.000564	20.832814
1714.461256	-3.002500	3.282900	-9.854900	27.163124	0.000565	20.839901
1715.458047	-2.986100	3.283700	-9.803700	27.151436	0.000563	20.856594
1716.458260	-3.027000	3.281400	-9.931000	27.141124	0.000563	20.853335
1717.459040	-2.987600	3.282700	-9.806200	27.120749	0.000563	20.848964
1718.458425	-3.014100	3.280900	-9.888100	27.140102	0.000564	20.849937
1719.457555	-2.997500	3.281900	-9.835700	27.149752	0.000560	20.838780
1720.461399	-2.993600	3.280800	-9.820000	27.166208	0.000562	20.860072
1721.459145	-3.002800	3.280700	-9.850300	27.140132	0.000561	20.830053
1722.461688	-3.010400	3.280100	-9.873300	27.166232	0.000560	20.846346
1723.459799	-3.006600	3.279300	-9.857300	27.202684	0.000558	20.848396
1724.461262	-2.956000	3.280300	-9.695400	27.196457	0.000559	20.853039
1725.464147	-3.001800	3.277200	-9.835700	27.186882	0.000558	20.862373
1726.462685	-3.011000	3.278200	-9.869100	27.191002	0.000558	20.859879
1727.463205	-3.012000	3.276600	-9.868400	27.193708	0.000555	20.871609
1728.461679	-2.991500	3.277800	-9.804500	27.172572	0.000556	20.864576
1729.463041	-3.028200	3.275300	-9.916800	27.155326	0.000556	20.878049
1730.464456	-2.992200	3.277500	-9.805900	27.138634	0.000555	20.874064
1731.465152	-3.021500	3.275600	-9.896000	27.122330	0.000553	20.866201
1732.463311	-2.986000	3.276400	-9.782500	27.136552	0.000553	20.873866
1733.462779	-2.993100	3.275500	-9.802900	27.187943	0.000552	20.881457
1734.462172	-3.004200	3.276400	-9.841000	27.181937	0.000552	20.845073
1735.463496	-3.016200	3.274300	-9.874700	27.205660	0.000550	20.858502
1736.464190	-2.972600	3.275600	-9.735300	27.234539	0.000551	20.873323
1737.464508	-2.993500	3.274600	-9.801000	27.255585	0.000550	20.864147
1738.465427	-3.037100	3.272300	-9.937100	27.279198	0.000548	20.853760
1739.463860	-2.988600	3.273500	-9.782500	27.317010	0.000547	20.856235
1740.465899	-2.998600	3.271900	-9.810500	27.328451	0.000547	20.887655
1741.464255	-2.997500	3.272800	-9.808800	27.344722	0.000545	20.859929
1742.463956	-2.994000	3.273000	-9.798500	27.365859	0.000547	20.863648
1743.465087	-2.998100	3.271400	-9.807200	27.405382	0.000546	20.876380
1744.465747	-2.983600	3.271700	-9.760300	27.412305	0.000545	20.861534
1745.466094	-2.996900	3.271200	-9.802600	27.441948	0.000543	20.869071
1746.469431	-2.989800	3.270900	-9.777900	27.445247	0.000543	20.870493
1747.467233	-2.981000	3.269700	-9.744600	27.471395	0.000542	20.879255
1748.466954	-3.009900	3.268800	-9.837800	27.446642	0.000542	20.869051
1749.466807	-3.005500	3.268600	-9.823500	27.374279	0.000540	20.860265
1750.467596	-3.005600	3.268900	-9.823100	27.351930	0.000540	20.867654
1751.470394	-3.008400	3.269100	-9.832700	27.320551	0.000540	20.846520
1752.467584	-2.995000	3.269600	-9.790700	27.331618	0.000539	20.842481
1753.467459	-3.019800	3.265800	-9.861800	27.331545	0.000539	20.844303
1754.469761	-3.012400	3.266900	-9.839700	27.309965	0.000537	20.853415
1755.469728	-2.974000	3.267800	-9.716600	27.285920	0.000537	20.865738
1756.469695	-3.008000	3.266100	-9.822300	27.259680	0.000537	20.841715
1757.467433	-3.011800	3.267100	-9.839100	27.271809	0.000537	20.857233
1758.467580	-3.001600	3.267100	-9.805900	27.275452	0.000535	20.851415
1759.468665	-3.020800	3.265400	-9.863200	27.258414	0.000534	20.841863
1760.468446	-2.997300	3.266200	-9.788300	27.302055	0.000533	20.831235
1761.467740	-2.983300	3.265600	-9.740500	27.269629	0.000534	20.842239
1762.469430	-2.991300	3.264400	-9.763800	27.266530	0.000533	20.832959
1763.469002	-2.994500	3.264600	-9.775300	27.276552	0.000534	20.851099
1764.471472	-3.011100	3.263200	-9.824800	27.295579	0.000530	20.839419
1765.469643	-2.985400	3.263100	-9.739800	27.321803	0.000531	20.844935
1766.476972	-2.994900	3.262400	-9.769900	27.360803	0.000531	20.823950
1767.472136	-2.976900	3.265100	-9.719000	27.342292	0.000530	20.829037
1768.470491	-2.968600	3.262500	-9.683600	27.385936	0.000530	20.843543
1769.474248	-2.978500	3.262100	-9.714900	27.396452	0.000529	20.839898
1770.471678	-2.991800	3.262300	-9.759000	27.352275	0.000528	20.845242
1771.471677	-3.014800	3.260700	-9.828600	27.361569	0.000528	20.843212
1772.473783	-3.019300	3.259600	-9.840400	27.380378	0.000526	20.836530
1773.477064	-2.995000	3.260300	-9.763500	27.374953	0.000526	20.811158
1774.473703	-2.988000	3.260500	-9.741200	27.337957	0.000526	20.843167
1775.473420	-3.014500	3.259800	-9.825300	27.370485	0.000526	20.818991
1776.474887	-3.013900	3.258200	-9.818800	27.390723	0.000523	20.830341
1777.475329	-3.000800	3.258700	-9.777300	27.386456	0.000524	20.830791
1778.475702	-2.982100	3.258800	-9.717100	27.424889	0.000524	20.838634
1779.473551	-3.017500	3.256200	-9.823300	27.420794	0.000522	20.831196
1780.476468	-3.013100	3.256700	-9.811800	27.426278	0.000521	20.837187
1781.474433	-3.014600	3.255700	-9.813300	27.423102	0.000521	20.820715
1782.475147	-3.006000	3.255000	-9.783000	27.462961	0.000521	20.831892
1783.479573	-3.012200	3.254900	-9.803600	27.467399	0.000520	20.837305
1784.475084	-3.007700	3.255600	-9.790700	27.470679	0.000521	20.809311
1785.475355	-3.005000	3.254200	-9.777300	27.419999	0.000518	20.808111
1786.474428	-2.992400	3.255000	-9.739600	27.376367	0.000518	20.821589
1787.474914	-3.018600	3.253100	-9.818100	27.326012	0.000517	20.814556
1788.475266	-3.008100	3.254400	-9.788400	27.364387	0.000517	20.791521
1789.478693	-2.974700	3.253000	-9.674400	27.364191	0.000513	20.809341
1790.474984	-2.972700	3.253400	-9.669600	27.312588	0.000513	20.806743
1791.475207	-2.986800	3.254100	-9.718300	27.309838	0.000514	20.822943
1792.473985	-3.003300	3.251800	-9.764600	27.336760	0.000514	20.809721
1793.478049	-2.986400	3.251800	-9.710500	27.364839	0.000513	20.836071
1794.479351	-2.985300	3.251300	-9.705200	27.396394	0.000510	20.822296
1795.477875	-2.983300	3.251800	-9.700000	27.440575	0.000510	20.819328
1796.477480	-2.993800	3.251100	-9.731700	27.499437	0.000508	20.815485
1797.488940	-3.005000	3.249900	-9.764800	27.504621	0.000508	20.812166
1798.476768	-2.987500	3.249600	-9.707600	27.516580	0.000506	20.797171
1799.479354	-2.995200	3.249500	-9.731400	27.538136	0.000505	20.830238
1800.476743	-3.009800	3.249400	-9.779000	27.540541	0.000505	20.830287
1801.477208	-3.017100	3.247400	-9.796700	27.562960	0.000505	20.808748
1802.478136	-3.007100	3.248300	-9.766700	27.568227	0.000506	20.808359
1803.476659	-3.001100	3.248300	-9.747300	27.549274	0.000505	20.790711
1804.479508	-3.014200	3.247300	-9.786300	27.536079	0.000504	20.798772
1805.478114	-3.027800	3.245200	-9.824800	27.490714	0.000503	20.803390
1806.478967	-3.000200	3.245900	-9.737500	27.495157	0.000505	20.805489
1807.480129	-2.996000	3.246300	-9.725700	27.478166	0.000502	20.802145
1808.480924	-3.004400	3.244800	-9.747500	27.499693	0.000500	20.812423
1809.481675	-3.004800	3.244800	-9.748400	27.520827	0.000499	20.811401
1810.482318	-3.013700	3.243900	-9.774800	27.523654	0.000499	20.797651
1811.481034	-3.002000	3.245200	-9.740000	27.553766	0.000498	20.802343
1812.481991	-2.979400	3.245000	-9.666800	27.547689	0.000500	20.817565
1813.480538	-3.003200	3.244200	-9.742400	27.552278	0.000497	20.787096
1814.481390	-3.021700	3.243700	-9.800300	27.552156	0.000498	20.808783
1815.484239	-2.998600	3.241000	-9.716700	27.570927	0.000497	20.806808
1816.481425	-2.998100	3.242700	-9.720500	27.528269	0.000498	20.807983
1817.483747	-3.011600	3.242000	-9.762600	27.461249	0.000494	20.797927
1818.481652	-3.008800	3.241500	-9.752100	27.413946	0.000495	20.797754
1819.483725	-3.003800	3.241200	-9.735000	27.409606	0.000493	20.794811
1820.482529	-2.999100	3.240600	-9.716800	27.443565	0.000493	20.810957
1821.488756	-3.014000	3.239600	-9.763400	27.474322	0.000491	20.790217
1822.482131	-3.006200	3.240400	-9.740300	27.496203	0.000492	20.794687
1823.481866	-2.985100	3.240700	-9.672500	27.512869	0.000490	20.792015
1824.482571	-2.980900	3.240300	-9.658100	27.530213	0.000491	20.781490
1825.482390	-2.974200	3.239700	-9.633600	27.551910	0.000490	20.786725
1826.484111	-2.982900	3.239400	-9.660400	27.554817	0.000490	20.803874
1827.482622	-2.994400	3.238100	-9.694900	27.607046	0.000489	20.804743
1828.488103	-3.023200	3.238200	-9.788400	27.552210	0.000488	20.805993
1829.482454	-3.004200	3.237400	-9.724900	27.517214	0.000486	20.812982
1830.483656	-2.989900	3.236300	-9.675900	27.472118	0.000486	20.784206
1831.485718	-3.010200	3.236000	-9.739700	27.421144	0.000485	20.796460
1832.483535	-3.015100	3.236200	-9.756300	27.449869	0.000484	20.790746
1833.483367	-2.999900	3.236200	-9.707000	27.473660	0.000483	20.805198
1834.483024	-3.000700	3.235900	-9.708900	27.480473	0.000485	20.790242
1835.490191	-2.998300	3.236200	-9.702100	27.529987	0.000484	20.786953
1836.483316	-2.980800	3.235900	-9.645000	27.508799	0.000481	20.784127
1837.488113	-2.994000	3.234600	-9.683500	27.494470	0.000483	20.780142
1838.483990	-3.002700	3.233800	-9.709400	27.494043	0.000482	20.791092
1839.484591	-2.992500	3.232100	-9.671100	27.552927	0.000479	20.797705
1840.485646	-2.990600	3.232400	-9.664900	27.543649	0.000479	20.785051
1841.485000	-2.996800	3.233800	-9.689600	27.591966	0.000480	20.774871
1842.489088	-2.975300	3.231700	-9.613700	27.641715	0.000478	20.801222
1843.486750	-2.960700	3.234300	-9.573500	27.669217	0.000477	20.782902
1844.488326	-3.006300	3.232200	-9.715400	27.678543	0.000476	20.779484
1845.487059	-3.022300	3.232500	-9.767600	27.701057	0.000476	20.793131
1846.490263	-2.982500	3.231600	-9.636500	27.689876	0.000476	20.790415
1847.487625	-3.017000	3.230100	-9.744000	27.685763	0.000474	20.782483
1848.488631	-2.971400	3.230400	-9.597900	27.711301	0.000473	20.792059
1849.487642	-3.020100	3.229900	-9.753600	27.700591	0.000473	20.779386
1850.486214	-3.011100	3.228300	-9.719600	27.681714	0.000473	20.788839
1851.487356	-3.010400	3.229100	-9.719300	27.676040	0.000473	20.776491
1852.488609	-3.007700	3.229300	-9.711400	27.674081	0.000468	20.782107
1853.489154	-3.001300	3.227900	-9.686500	27.660466	0.000469	20.777889
1854.488459	-2.999400	3.227900	-9.680900	27.667062	0.000468	20.780260
1855.490587	-2.994100	3.225600	-9.656300	27.681523	0.000469	20.787698
1856.488686	-2.970200	3.227800	-9.585200	27.689533	0.000467	20.769206
1857.487655	-2.999800	3.224800	-9.672300	27.685420	0.000466	20.767438
1858.492339	-2.991300	3.226100	-9.648400	27.720037	0.000466	20.776195
1859.489080	-3.006700	3.223300	-9.690000	27.738487	0.000466	20.792865
1860.493050	-3.017500	3.223000	-9.724300	27.645784	0.000466	20.763116
1861.490390	-2.969900	3.225900	-9.579500	27.638054	0.000466	20.794218
1862.491945	-2.978300	3.222300	-9.595800	27.567418	0.000462	20.790949
1863.496475	-2.984000	3.225300	-9.624300	27.530041	0.000463	20.790326
1864.494193	-3.011300	3.222700	-9.703800	27.527979	0.000463	20.765492
1865.491561	-2.976700	3.222500	-9.591500	27.535146	0.000461	20.770332
1866.492451	-2.982100	3.222700	-9.608300	27.558960	0.000460	20.763946
1867.491572	-3.015400	3.221900	-9.714300	27.614046	0.000460	20.773380
1868.492384	-2.998100	3.220900	-9.656000	27.629596	0.000459	20.759155
1869.498204	-3.007400	3.221000	-9.683900	27.644896	0.000457	20.773128
1870.493955	-3.002100	3.221400	-9.668700	27.675284	0.000458	20.742065
1871.496915	-2.985700	3.221000	-9.615400	27.672948	0.000457	20.780018
1872.493420	-3.003000	3.218600	-9.664400	27.724602	0.000457	20.784108
1873.494514	-3.018500	3.218300	-9.713200	27.745884	0.000457	20.778497
1874.495608	-2.992100	3.219300	-9.631600	27.752004	0.000454	20.781811
1875.495464	-2.997700	3.217400	-9.642100	27.762021	0.000452	20.770080
1876.495266	-3.019400	3.216800	-9.711900	27.766708	0.000453	20.766262
1877.495213	-2.989200	3.217900	-9.617500	27.798153	0.000451	20.780364
1878.496183	-2.995500	3.217800	-9.637700	27.792847	0.000451	20.769809
1879.497551	-3.000200	3.216300	-9.648400	27.738291	0.000451	20.756631
1880.497268	-2.996600	3.216500	-9.636800	27.725917	0.000450	20.770732
1881.497208	-2.994100	3.216100	-9.628100	27.722619	0.000449	20.782112
1882.497363	-2.987600	3.215000	-9.604400	27.724774	0.000450	20.768159
1883.497753	-2.999800	3.214800	-9.642800	27.747915	0.000447	20.769636
1884.497148	-2.981500	3.215300	-9.585200	27.755106	0.000448	20.763595
1885.500971	-2.993600	3.214800	-9.622400	27.797014	0.000447	20.780166
1886.499022	-3.000100	3.213900	-9.641100	27.817445	0.000446	20.761373
1887.501092	-2.981500	3.213700	-9.580600	27.846660	0.000443	20.753317
1888.498084	-2.971800	3.213800	-9.549700	27.821936	0.000444	20.758305
1889.508605	-3.003300	3.210900	-9.642300	27.846729	0.000443	20.758127
1890.503283	-3.010800	3.210600	-9.665300	27.853128	0.000442	20.762197
1891.500994	-2.988400	3.213000	-9.600700	27.890224	0.000442	20.752591
1892.499690	-2.998400	3.211600	-9.629400	27.884590	0.000441	20.767784
1893.498582	-3.012000	3.209100	-9.664400	27.907630	0.000438	20.741186
1894.500155	-3.018800	3.208700	-9.685700	27.925016	0.000438	20.755367
1895.500896	-2.994000	3.209700	-9.608700	27.921365	0.000437	20.759753
1896.502346	-2.989500	3.208100	-9.589800	27.908773	0.000436	20.759407
1897.499209	-2.943200	3.210700	-9.447700	27.922141	0.000437	20.773336
1898.500310	-2.996100	3.208100	-9.611000	27.884330	0.000436	20.776531
1899.500391	-3.007800	3.207000	-9.644900	27.822638	0.000434	20.766125
1900.500663	-2.984000	3.210200	-9.578800	27.761663	0.000433	20.762608
1901.504091	-3.011900	3.206700	-9.657100	27.764858	0.000432	20.758711
1902.500589	-2.984200	3.207400	-9.570000	27.769000	0.000432	20.745809
1903.502161	-3.014000	3.206300	-9.663200	27.728362	0.000430	20.765606
1904.500059	-3.000900	3.204700	-9.615500	27.736195	0.000430	20.740771
1905.511096	-3.011500	3.204100	-9.648100	27.752368	0.000428	20.739502
1906.501001	-2.979500	3.206500	-9.552700	27.785044	0.000427	20.728289
1907.500561	-3.008300	3.203800	-9.636600	27.828694	0.000429	20.773642
1908.499794	-3.017200	3.202800	-9.662300	27.844138	0.000425	20.752675
1909.500857	-3.002200	3.203500	-9.616200	27.840565	0.000427	20.751924
1910.500578	-3.015300	3.202900	-9.656700	27.833749	0.000425	20.753599
1911.505817	-2.985800	3.205100	-9.568900	27.818348	0.000426	20.758014
1912.503495	-2.989900	3.202200	-9.573500	27.764642	0.000424	20.740475
1913.502150	-3.007400	3.202500	-9.630900	27.725604	0.000424	20.720154
1914.502531	-2.988400	3.200600	-9.563100	27.664398	0.000422	20.760983
1915.501636	-3.003800	3.200700	-9.613300	27.611749	0.000421	20.753525
1916.505889	-2.983500	3.201500	-9.550000	27.643757	0.000420	20.726462
1917.505740	-2.960100	3.201300	-9.475200	27.659092	0.000422	20.750428
1918.507545	-3.009700	3.201200	-9.633500	27.629528	0.000418	20.749603
1919.512265	-2.995400	3.199400	-9.582700	27.620717	0.000419	20.739314
1920.502928	-2.976800	3.200200	-9.524900	27.640037	0.000418	20.728882
1921.507219	-3.008600	3.198600	-9.621500	27.666675	0.000415	20.740040
1922.508169	-3.005300	3.198700	-9.611000	27.700474	0.000416	20.744653
1923.507571	-2.990700	3.196900	-9.559200	27.730801	0.000414	20.744352
1924.506879	-3.008700	3.197600	-9.619900	27.754531	0.000415	20.727454
1925.507066	-3.010800	3.196500	-9.623100	27.743645	0.000414	20.729302
1926.506226	-3.011300	3.195900	-9.622700	27.747532	0.000413	20.755025
1927.509728	-2.984500	3.194400	-9.532100	27.778016	0.000411	20.739235
1928.509393	-2.991000	3.198000	-9.564100	27.795914	0.000408	20.741600
1929.506371	-3.001100	3.195700	-9.589400	27.814667	0.000409	20.732023
1930.508158	-2.958800	3.194800	-9.451400	27.810348	0.000409	20.727676
1931.505544	-3.017200	3.193000	-9.632100	27.840923	0.000408	20.753233
1932.508848	-3.003800	3.194100	-9.593300	27.877921	0.000407	20.743527
1933.510505	-2.959800	3.194000	-9.451400	27.922204	0.000405	20.734992
1934.506093	-3.004800	3.191000	-9.587100	27.898203	0.000404	20.728378
1935.505608	-3.013800	3.193400	-9.623500	27.881788	0.000404	20.743626
1936.506470	-3.016400	3.191300	-9.625200	27.878264	0.000403	20.732966
1937.508075	-2.998200	3.190700	-9.565600	27.897604	0.000402	20.735362
1938.511128	-3.006300	3.191400	-9.593000	27.910520	0.000402	20.733663
1939.507535	-3.023500	3.189500	-9.642500	27.899513	0.000402	20.723532
1940.507678	-3.022500	3.190800	-9.642900	27.891014	0.000402	20.724461
1941.507921	-3.020200	3.188100	-9.627200	27.935566	0.000401	20.740855
1942.508003	-2.997400	3.189300	-9.558100	27.918901	0.000398	20.730719
1943.508368	-3.007200	3.190200	-9.591200	27.940351	0.000400	20.724332
1944.509036	-3.016300	3.187200	-9.612700	27.948806	0.000399	20.736162
1945.508860	-3.000300	3.187900	-9.564700	27.921586	0.000395	20.715876
1946.510053	-3.010500	3.187300	-9.593900	27.955229	0.000395	20.706590
1947.510692	-2.996600	3.187200	-9.549800	27.949772	0.000395	20.733342
1948.510041	-3.008800	3.185900	-9.585100	27.947515	0.000394	20.730596
1949.510885	-2.993600	3.186400	-9.537900	27.948482	0.000392	20.734888
1950.509737	-2.994400	3.184500	-9.534800	27.943006	0.000393	20.714202
1951.515553	-3.000800	3.183600	-9.551400	27.907428	0.000390	20.706368
1952.512174	-2.993600	3.184000	-9.530700	27.864528	0.000391	20.720089
1953.510966	-3.027100	3.183200	-9.634000	27.818034	0.000389	20.702218
1954.513118	-2.981000	3.185100	-9.494000	27.833483	0.000390	20.747641
1955.510635	-2.975900	3.184900	-9.477100	27.851219	0.000389	20.719023
1956.510945	-3.012200	3.183000	-9.586100	27.844398	0.000388	20.715950
1957.510972	-2.985900	3.182500	-9.501900	27.875364	0.000385	20.715348
1958.510568	-2.977100	3.184100	-9.478400	27.852731	0.000385	20.739037
1959.514713	-2.995700	3.181900	-9.531300	27.880924	0.000385	20.711935
1960.511841	-2.985600	3.183900	-9.504600	27.866594	0.000385	20.714582
1961.513185	-3.008200	3.179100	-9.562100	27.873955	0.000383	20.712508
1962.511610	-3.002400	3.179500	-9.545200	27.838494	0.000385	20.715224
1963.512684	-2.989900	3.180800	-9.508100	27.840059	0.000382	20.726284
1964.514720	-2.997600	3.178500	-9.526700	27.847151	0.000380	20.711134
1965.515681	-2.992800	3.179800	-9.515700	27.817091	0.000378	20.727350
1966.512867	-3.013900	3.179300	-9.581800	27.791606	0.000380	20.742006
1967.512691	-2.989100	3.177600	-9.497100	27.811423	0.000377	20.718326
1968.530064	-2.988200	3.178900	-9.497700	27.846037	0.000375	20.712858
1969.514816	-2.987700	3.177700	-9.493400	27.892456	0.000376	20.730181
1970.519034	-3.003200	3.176200	-9.537900	27.916208	0.000376	20.715205
1971.515476	-2.982000	3.175400	-9.467700	27.937358	0.000374	20.719897
1972.520178	-2.997200	3.175900	-9.517700	27.954194	0.000376	20.740163
1973.515942	-2.991000	3.175200	-9.496200	28.014044	0.000373	20.727859
1974.520442	-2.966300	3.176000	-9.419700	28.043131	0.000372	20.728215
1975.521224	-2.999400	3.173500	-9.517500	28.037228	0.000372	20.718005
1976.517699	-2.981200	3.174800	-9.462900	28.014147	0.000372	20.731283
1977.518954	-2.993700	3.172900	-9.497900	27.960421	0.000368	20.725568
1978.516974	-3.012400	3.171200	-9.551200	27.932284	0.000370	20.725696
1979.517796	-2.983400	3.172600	-9.464600	27.962929	0.000369	20.709599
1980.519450	-2.985500	3.170700	-9.464800	27.963454	0.000366	20.721982
1981.523860	-3.011600	3.171400	-9.549400	27.947511	0.000366	20.732488
1982.519969	-3.001200	3.170300	-9.513700	27.941087	0.000365	20.719858
1983.520046	-3.007300	3.169000	-9.528300	27.981938	0.000366	20.730630
1984.519784	-2.996300	3.168900	-9.493100	28.013431	0.000364	20.728191
1985.520716	-2.992600	3.170000	-9.485900	28.029299	0.000362	20.725672
1986.522044	-2.978500	3.169200	-9.438600	28.016336	0.000362	20.719260
1987.519767	-3.001300	3.168200	-9.508100	28.033636	0.000360	20.740470
1988.521900	-2.986800	3.169700	-9.466700	28.070358	0.000361	20.722906
1989.520053	-3.007700	3.166700	-9.522600	28.074101	0.000363	20.728097
1990.519986	-3.010800	3.168400	-9.538300	28.125123	0.000360	20.736311
1991.522485	-3.005100	3.166400	-9.514700	28.147255	0.000360	20.720658
1992.521949	-2.981200	3.166200	-9.437700	28.118603	0.000360	20.703667
1993.523695	-3.009100	3.164900	-9.522400	28.116291	0.000358	20.723153
1994.521728	-2.990500	3.165300	-9.465000	28.108834	0.000354	20.728448
1995.521449	-3.000500	3.164700	-9.495300	28.147382	0.000357	20.689490
1996.525062	-3.005300	3.164400	-9.508900	28.142202	0.000357	20.727900
1997.523254	-2.996500	3.162600	-9.475700	28.154001	0.000355	20.726502
1998.526639	-3.033400	3.161200	-9.587900	28.126634	0.000352	20.721710
1999.523706	-3.018700	3.161700	-9.542800	28.109820	0.000354	20.726121
2000.523955	-3.010400	3.162300	-9.518900	28.057861	0.000350	20.721705
2001.526752	-3.000500	3.160300	-9.480700	28.019039	0.000351	20.720559
2002.528953	-3.005100	3.161400	-9.499500	28.040786	0.000350	20.746244
2003.525617	-2.999800	3.162200	-9.485400	28.055260	0.000350	20.717191
2004.528978	-3.020900	3.158800	-9.540700	28.077796	0.000348	20.711427
2005.524444	-3.018100	3.157700	-9.529700	28.123680	0.000348	20.717788
2006.526850	-2.997200	3.159300	-9.467200	28.165128	0.000347	20.718263
2007.528245	-3.012200	3.156200	-9.506400	28.181661	0.000348	20.742495
2008.525311	-2.991700	3.158000	-9.446600	28.208261	0.000344	20.730868
2009.525570	-2.978100	3.157600	-9.402300	28.239089	0.000345	20.723498
2010.524746	-2.977000	3.157300	-9.398400	28.284501	0.000346	20.726546
2011.525897	-2.986400	3.157500	-9.428000	28.308170	0.000345	20.729040
2012.527134	-2.979800	3.154200	-9.396200	28.354490	0.000343	20.727791
2013.525718	-2.999600	3.155600	-9.463200	28.371639	0.000342	20.729885
2014.526675	-2.996400	3.152500	-9.445000	28.395502	0.000341	20.748699
2015.526548	-2.987000	3.153300	-9.418200	28.412698	0.000342	20.742307
2016.526469	-2.994800	3.152900	-9.441900	28.365017	0.000341	20.708517
2017.527007	-3.023800	3.151100	-9.526900	28.285476	0.000340	20.729899
2018.528232	-3.006200	3.152900	-9.477400	28.290151	0.000339	20.740296
2019.527943	-2.995200	3.150800	-9.436800	28.267448	0.000339	20.726920
2020.528131	-3.019900	3.149100	-9.509200	28.267472	0.000338	20.751128
2021.527009	-3.028100	3.148500	-9.531400	28.295944	0.000335	20.715308
2022.529848	-3.000300	3.148700	-9.446100	28.288856	0.000337	20.726189
2023.530102	-3.027400	3.148700	-9.531400	28.325332	0.000336	20.741580
2024.528390	-3.000600	3.148500	-9.446500	28.359507	0.000333	20.744222
2025.529085	-3.014100	3.147600	-9.485400	28.374154	0.000334	20.749488
2026.534985	-3.018000	3.146100	-9.493400	28.399773	0.000333	20.720755
2027.529418	-2.988700	3.147800	-9.406500	28.432385	0.000331	20.732733
2028.530061	-2.993800	3.145200	-9.414600	28.382443	0.000331	20.736023
2029.529520	-2.981500	3.146800	-9.380700	28.364574	0.000328	20.733202
2030.530274	-3.002600	3.144800	-9.440000	28.383576	0.000328	20.751389
2031.531260	-3.037100	3.143500	-9.545900	28.403225	0.000329	20.740828
2032.531399	-3.014500	3.144800	-9.478400	28.404167	0.000328	20.751260
2033.532733	-3.003100	3.143400	-9.438100	28.411598	0.000328	20.761588
2034.532398	-2.997800	3.144200	-9.424300	28.398756	0.000327	20.742967
2035.533273	-2.995500	3.142100	-9.410800	28.432453	0.000325	20.749398
2036.532753	-3.008700	3.140100	-9.446100	28.399860	0.000326	20.733646
2037.531609	-3.014100	3.141700	-9.468200	28.399659	0.000326	20.750040
2038.533159	-3.019700	3.140600	-9.482400	28.384316	0.000324	20.757350
2039.532375	-2.989700	3.139500	-9.383800	28.356778	0.000324	20.762338
2040.535367	-3.011500	3.139300	-9.453200	28.355385	0.000324	20.751452
2041.532588	-2.991000	3.139200	-9.387900	28.333866	0.000322	20.760604
2042.533859	-3.018400	3.137000	-9.467900	28.347051	0.000321	20.762027
2043.536543	-2.999300	3.137800	-9.410400	28.377674	0.000319	20.766309
2044.532429	-3.009200	3.135900	-9.435600	28.385924	0.000321	20.750908
2045.534650	-3.010100	3.136600	-9.440500	28.423246	0.000317	20.751506
2046.533142	-3.007400	3.134900	-9.426500	28.455877	0.000317	20.765874
2047.535083	-3.017400	3.134600	-9.457700	28.449207	0.000317	20.784287
2048.536252	-3.011300	3.134400	-9.437500	28.374480	0.000316	20.763093
2049.534210	-2.987000	3.133400	-9.358200	28.288524	0.000313	20.786549
2050.534061	-2.965600	3.133900	-9.292800	28.241455	0.000315	20.779462
2051.534367	-2.969800	3.133300	-9.304400	28.224697	0.000312	20.757373
2052.534525	-2.993000	3.132600	-9.374600	28.266459	0.000311	20.744418
2053.533492	-2.987400	3.133000	-9.359000	28.303039	0.000312	20.769870
2054.534616	-2.972800	3.131300	-9.307800	28.389136	0.000310	20.775955
2055.533206	-3.012600	3.129600	-9.427100	28.414981	0.000309	20.758830
2056.533291	-2.998500	3.128300	-9.379100	28.406431	0.000309	20.756385
2057.535002	-2.980400	3.130100	-9.326600	28.358602	0.000309	20.763700
2058.533861	-2.985300	3.128700	-9.339100	28.348580	0.000309	20.778266
2059.539054	-3.023000	3.128200	-9.455100	28.339437	0.000307	20.775698
2060.534287	-2.995800	3.126300	-9.364000	28.316926	0.000306	20.778636
2061.536519	-3.022600	3.125600	-9.446200	28.342410	0.000305	20.764466
2062.534540	-2.992500	3.126800	-9.355400	28.350135	0.000305	20.768452
2063.535821	-3.003000	3.125600	-9.384700	28.352838	0.000305	20.776863
2064.539282	-3.020900	3.124100	-9.436400	28.356777	0.000304	20.782252
2065.539776	-2.991600	3.124400	-9.346000	28.354692	0.000303	20.772092
2066.536627	-2.993000	3.124900	-9.351500	28.392584	0.000303	20.768047
2067.537313	-2.992300	3.123500	-9.345600	28.410747	0.000303	20.768318
2068.538295	-3.012400	3.121700	-9.402600	28.386188	0.000303	20.785314
2069.538386	-2.991400	3.121900	-9.338100	28.406627	0.000299	20.786929
2070.538102	-3.000400	3.120500	-9.362200	28.430838	0.000298	20.789497
2071.538363	-2.967400	3.120300	-9.258300	28.457103	0.000299	20.758573
2072.541203	-2.988700	3.119600	-9.321700	28.500219	0.000296	20.788717
2073.538068	-3.009600	3.118400	-9.383700	28.506134	0.000299	20.776181
2074.538190	-3.002500	3.116500	-9.356000	28.533736	0.000299	20.785961
2075.541783	-2.996500	3.116900	-9.338100	28.544016	0.000297	20.784934
2076.542828	-2.990900	3.118000	-9.324200	28.544114	0.000296	20.767963
2077.538847	-3.050100	3.115500	-9.501500	28.555482	0.000294	20.788895
2078.537373	-3.002200	3.117200	-9.357200	28.548190	0.000294	20.786292
2079.538407	-2.987900	3.114900	-9.305900	28.582436	0.000291	20.793755
2080.537843	-3.019700	3.112900	-9.399000	28.597050	0.000293	20.782869
2081.540474	-2.997400	3.113700	-9.332100	28.585202	0.000291	20.791799
2082.537494	-3.021400	3.112000	-9.401200	28.528155	0.000291	20.803574
2083.537967	-3.009600	3.111300	-9.363200	28.501730	0.000291	20.801618
2084.538661	-2.983000	3.111300	-9.279600	28.461807	0.000290	20.788915
2085.541739	-3.036700	3.109100	-9.439600	28.479944	0.000291	20.796748
2086.539335	-2.999100	3.110100	-9.325900	28.491754	0.000289	20.793469
2087.539519	-2.989500	3.109900	-9.295200	28.503246	0.000288	20.796506
2088.538671	-3.003600	3.108500	-9.335900	28.534320	0.000288	20.791290
2089.539035	-3.012700	3.107400	-9.360600	28.588635	0.000284	20.795731
2090.537759	-3.015100	3.106500	-9.364200	28.626533	0.000285	20.820150
2091.542139	-2.998800	3.106100	-9.312500	28.646948	0.000285	20.793770
2092.539561	-3.027400	3.105100	-9.399400	28.631506	0.000283	20.797183
2093.538335	-2.982200	3.104300	-9.256500	28.643648	0.000285	20.809886
2094.538341	-3.009000	3.103800	-9.338700	28.672433	0.000283	20.800473
2095.540006	-3.002500	3.103800	-9.318400	28.705062	0.000282	20.793034
2096.540859	-2.997100	3.102600	-9.297100	28.732037	0.000279	20.797445
2097.539483	-2.981000	3.102400	-9.246600	28.773681	0.000280	20.808099
2098.539216	-3.005300	3.101000	-9.317800	28.803164	0.000278	20.819305
2099.540782	-2.985800	3.100800	-9.257400	28.807518	0.000278	20.802355
2100.540518	-3.007700	3.100200	-9.322600	28.808307	0.000279	20.803150
2101.540140	-2.993100	3.099000	-9.274200	28.799712	0.000278	20.821992
2102.543366	-2.995600	3.098700	-9.280900	28.805875	0.000277	20.806390
2103.541945	-3.012900	3.097000	-9.329100	28.728997	0.000276	20.786797
2104.542426	-2.999300	3.097800	-9.290600	28.684154	0.000276	20.809907
2105.544079	-2.981200	3.097500	-9.233800	28.683354	0.000275	20.799619
2106.545457	-2.980900	3.097700	-9.233000	28.628147	0.000274	20.825568
2107.544074	-2.996600	3.094600	-9.272200	28.529878	0.000275	20.815740
2108.544342	-3.009400	3.093800	-9.309000	28.500780	0.000273	20.828161
2109.544700	-2.998100	3.094100	-9.274000	28.498376	0.000273	20.798715
2110.547710	-2.993200	3.093200	-9.257700	28.522511	0.000271	20.823020
2111.548122	-2.998000	3.091000	-9.266000	28.566194	0.000272	20.819123
2112.545932	-3.004700	3.091900	-9.288900	28.585218	0.000272	20.816945
2113.550206	-2.979500	3.091900	-9.210900	28.584575	0.000269	20.801600
2114.547486	-2.995800	3.090000	-9.256200	28.609773	0.000269	20.829347
2115.547039	-2.989700	3.091100	-9.240600	28.636754	0.000271	20.814797
2116.549276	-3.009200	3.088600	-9.292800	28.654791	0.000269	20.830118
2117.549425	-2.999700	3.087900	-9.261700	28.699978	0.000269	20.815414
2118.548036	-3.012100	3.087400	-9.297500	28.716852	0.000268	20.825771
2119.547670	-3.003900	3.085800	-9.267300	28.685969	0.000269	20.822166
2120.547675	-2.991800	3.084900	-9.228800	28.684532	0.000267	20.836840
2121.549187	-3.011800	3.084200	-9.288000	28.645302	0.000266	20.849010
2122.550045	-3.022400	3.082100	-9.313600	28.606002	0.000264	20.827446
2123.548379	-2.988500	3.082900	-9.210000	28.597450	0.000266	20.827842
2124.552107	-3.002100	3.082000	-9.250000	28.600937	0.000264	20.828034
2125.547498	-2.999000	3.081200	-9.238500	28.593301	0.000265	20.826983
2126.548054	-3.009700	3.080400	-9.270100	28.590442	0.000262	20.859189
2127.554688	-2.998300	3.079100	-9.230400	28.549703	0.000264	20.837602
2128.548018	-2.998600	3.079000	-9.232100	28.551881	0.000262	20.834105
2129.546941	-3.001800	3.077500	-9.236800	28.555593	0.000263	20.831680
2130.547753	-3.008000	3.078000	-9.257600	28.611810	0.000261	20.832347
2131.548410	-2.972000	3.076400	-9.141200	28.634530	0.000261	20.856177
2132.547723	-2.986000	3.076300	-9.184000	28.656254	0.000261	20.833962
2133.551826	-3.016300	3.073000	-9.267500	28.662669	0.000261	20.838052
2134.548527	-2.976600	3.075400	-9.153600	28.700545	0.000260	20.840166
2135.549438	-2.966100	3.074000	-9.116600	28.746226	0.000261	20.850143
2136.548884	-2.975500	3.073200	-9.143100	28.782320	0.000258	20.857102
2137.549096	-2.972900	3.072200	-9.132900	28.799138	0.000258	20.855551
2138.552928	-3.004400	3.070300	-9.223800	28.762364	0.000257	20.850751
2139.554283	-2.982900	3.069400	-9.155100	28.681196	0.000258	20.876626
2140.552691	-2.991700	3.068100	-9.177600	28.637038	0.000257	20.848746
2141.549284	-3.007000	3.068000	-9.224200	28.641741	0.000257	20.868655
2142.550675	-3.002200	3.067600	-9.208300	28.690077	0.000257	20.842425
2143.552555	-2.999200	3.066000	-9.194100	28.698272	0.000257	20.861109
2144.553535	-3.015900	3.064600	-9.241500	28.711002	0.000255	20.863026
2145.551057	-3.037700	3.062900	-9.302700	28.734382	0.000255	20.824937
2146.551476	-2.989000	3.063100	-9.153900	28.754001	0.000256	20.847069
2147.552024	-3.019100	3.061100	-9.239400	28.715691	0.000255	20.853524
2148.551396	-3.014800	3.061600	-9.228600	28.698666	0.000254	20.861980
2149.554601	-2.981600	3.061200	-9.125100	28.701653	0.000254	20.868781
2150.551087	-3.021500	3.060100	-9.244800	28.725239	0.000253	20.857926
2151.558158	-3.007500	3.059500	-9.199300	28.718316	0.000252	20.860909
2152.551832	-3.006800	3.057200	-9.191800	28.724254	0.000250	20.879692
2153.552525	-3.013500	3.057600	-9.212100	28.774347	0.000250	20.867089
2154.557065	-3.006900	3.056100	-9.187900	28.829684	0.000248	20.873519
2155.552724	-3.007100	3.055400	-9.186100	28.876625	0.000249	20.874814
2156.553487	-2.985400	3.055900	-9.122100	28.915881	0.000248	20.878800
2157.553596	-2.973800	3.054100	-9.081600	28.956126	0.000247	20.856758
2158.553078	-2.984500	3.053900	-9.113600	28.992213	0.000247	20.864191
2159.553036	-2.979900	3.052700	-9.096400	28.990497	0.000248	20.872420
2160.557747	-3.009200	3.050600	-9.179100	28.972462	0.000248	20.865155
2161.556674	-3.002800	3.049100	-9.155300	28.960079	0.000245	20.874015
2162.556209	-3.017300	3.048200	-9.195400	28.954569	0.000244	20.884585
2163.555376	-2.998700	3.047900	-9.137400	28.964698	0.000248	20.874401
2164.561668	-2.989500	3.047300	-9.108700	28.971581	0.000244	20.887973
2165.560836	-2.999000	3.046100	-9.135000	28.992087	0.000245	20.891564
2166.558806	-2.984600	3.045400	-9.088200	29.029363	0.000244	20.892137
2167.559152	-3.024400	3.043400	-9.203400	29.053138	0.000244	20.860144
2168.558551	-2.981400	3.044400	-9.075100	29.058486	0.000243	20.886868
2169.559351	-2.977500	3.042600	-9.058800	29.039658	0.000242	20.895397
2170.562517	-2.991900	3.041000	-9.098000	29.020388	0.000243	20.875983
2171.559554	-3.017700	3.038700	-9.168200	28.974984	0.000243	20.871015
2172.561278	-3.016400	3.037900	-9.160800	28.992299	0.000242	20.882295
2173.559031	-3.003400	3.037600	-9.122200	28.950409	0.000242	20.910263
2174.559137	-2.969700	3.037600	-9.020000	28.921818	0.000240	20.879565
2175.559647	-3.016600	3.034200	-9.151700	28.942722	0.000241	20.896831
2176.558672	-3.014700	3.034800	-9.148000	28.975838	0.000239	20.891788
2177.560314	-2.984300	3.034000	-9.053400	28.954238	0.000240	20.901320
2178.559894	-3.012700	3.031200	-9.131400	28.876826	0.000240	20.908679
2179.560296	-3.022400	3.030000	-9.156100	28.898845	0.000238	20.898145
2180.560878	-3.018600	3.028400	-9.139400	28.902831	0.000237	20.903583
2181.563374	-3.009400	3.028000	-9.110900	28.917269	0.000238	20.921446
2182.560214	-3.019200	3.026900	-9.137400	28.966662	0.000238	20.899138
2183.563252	-3.010000	3.026800	-9.110100	28.999208	0.000235	20.915332
2184.563823	-3.016100	3.025300	-9.124000	29.023754	0.000237	20.892649
2185.562996	-3.015400	3.024400	-9.119300	29.003591	0.000235	20.887982
2186.566900	-3.015600	3.022500	-9.113900	29.016371	0.000236	20.877625
2187.564995	-3.016200	3.021700	-9.113400	29.008195	0.000236	20.925333
2188.565094	-2.967000	3.023100	-8.968400	28.972231	0.000234	20.880095
2189.565635	-2.985400	3.019200	-9.012000	28.939140	0.000236	20.886110
2190.565104	-2.996100	3.018900	-9.043700	28.900101	0.000235	20.896565
2191.568301	-2.994000	3.018100	-9.035500	28.915882	0.000235	20.905825
2192.564887	-3.004100	3.016000	-9.059300	28.943249	0.000235	20.894516
2193.566918	-2.976100	3.016400	-8.974800	28.982164	0.000234	20.916177
2194.565192	-2.997100	3.013500	-9.031300	29.054534	0.000232	20.912280
2195.565526	-3.010000	3.012700	-9.066700	29.084210	0.000234	20.895716
2196.569093	-3.011400	3.012000	-9.069400	29.088219	0.000232	20.902601
2197.566653	-2.989300	3.010700	-8.998800	29.069573	0.000234	20.898037
2198.568326	-3.025500	3.008100	-9.099000	29.071205	0.000232	20.905371
2199.568711	-2.993600	3.008700	-9.005500	29.094067	0.000232	20.919397
2200.569202	-3.009600	3.006900	-9.048500	29.082990	0.000231	20.911081
2201.569246	-2.980800	3.007700	-8.963600	29.055754	0.000232	20.928207
2202.572159	-2.985200	3.005900	-8.971800	28.992595	0.000233	20.923367
2203.571179	-2.981700	3.002600	-8.951700	28.965991	0.000231	20.900358
2204.572647	-3.002000	3.003000	-9.014300	28.920412	0.000230	20.902803
2205.573237	-3.007300	3.000400	-9.022900	28.895267	0.000227	20.922987
2206.572299	-3.001900	2.998600	-9.000400	28.916971	0.000228	20.899810
2207.575993	-3.025200	2.997700	-9.067100	28.894625	0.000231	20.928503
2208.574960	-2.985400	2.998000	-8.949300	28.893021	0.000230	20.908872
2209.576372	-2.968800	2.996000	-8.893100	28.947763	0.000229	20.884366
2210.573721	-2.980900	2.995800	-8.928600	28.969834	0.000228	20.891429
2211.575794	-2.994500	2.992800	-8.960900	29.004934	0.000228	20.904506
2212.576656	-3.016100	2.991700	-9.022700	29.003100	0.000227	20.906452
2213.578064	-3.021000	2.990600	-9.034300	29.028886	0.000228	20.896871
2214.574510	-2.993200	2.990500	-8.950000	29.065170	0.000228	20.903084
2215.574822	-2.992000	2.989400	-8.943400	29.043503	0.000226	20.907805
2216.577281	-2.982800	2.988800	-8.913700	28.944772	0.000228	20.899844
2217.577528	-2.995700	2.986700	-8.946200	28.914823	0.000226	20.890060
2218.579884	-2.987700	2.984700	-8.916200	28.850076	0.000228	20.896905
2219.577230	-3.004800	2.983100	-8.962900	28.771441	0.000229	20.901142
2220.581386	-2.997000	2.983100	-8.939100	28.741466	0.000227	20.882805
2221.577495	-2.983700	2.981000	-8.892600	28.718479	0.000225	20.906115
2222.577147	-2.989200	2.979300	-8.905400	28.704655	0.000226	20.888400
2223.581433	-3.001000	2.978500	-8.936300	28.733522	0.000224	20.892820
2224.576955	-2.993000	2.977300	-8.910500	28.778707	0.000224	20.882385
2225.577873	-3.012000	2.974500	-8.958000	28.818942	0.000225	20.875026
2226.577746	-2.982900	2.975000	-8.872800	28.821050	0.000227	20.886157
2227.579057	-3.007600	2.973100	-8.940100	28.839980	0.000225	20.865874
2228.579033	-2.990700	2.971700	-8.887000	28.878379	0.000224	20.880848
2229.581108	-2.984700	2.970700	-8.865900	28.925965	0.000225	20.872837
2230.579380	-2.979800	2.970000	-8.847500	28.930225	0.000225	20.866698
2231.579305	-2.991500	2.967200	-8.874800	28.929685	0.000227	20.875637
2232.585439	-2.994700	2.965800	-8.879900	28.925081	0.000226	20.893757
2233.580569	-2.974800	2.963300	-8.814500	28.894759	0.000224	20.890236
2234.583643	-2.991200	2.963200	-8.862500	28.934470	0.000225	20.876664
2235.580972	-2.977700	2.962100	-8.818700	28.992038	0.000226	20.856904
2236.584188	-2.986400	2.960100	-8.838900	29.021642	0.000224	20.864919
2237.585244	-2.996800	2.957400	-8.861600	29.074819	0.000225	20.862548
2238.582494	-2.980800	2.957900	-8.815700	29.100700	0.000225	20.838842
2239.582709	-3.009500	2.954200	-8.889800	29.104416	0.000225	20.862025
2240.582411	-3.022200	2.952400	-8.921000	29.108111	0.000225	20.865748
2241.583017	-3.009500	2.952600	-8.883900	29.138678	0.000224	20.861461
2242.584553	-2.972600	2.951500	-8.772300	29.138996	0.000224	20.866049
2243.584903	-3.003100	2.948100	-8.852200	29.190785	0.000226	20.862760
2244.584153	-3.016500	2.947000	-8.887200	29.191054	0.000223	20.854497
2245.585973	-3.013000	2.944700	-8.871400	29.200891	0.000224	20.848289
2246.584107	-2.994900	2.943500	-8.815000	29.195367	0.000224	20.865955
2247.584653	-3.003700	2.941400	-8.833900	29.214242	0.000224	20.870276
2248.583468	-3.001400	2.939800	-8.821200	29.128330	0.000222	20.859095
2249.585535	-2.971800	2.939300	-8.733000	29.090591	0.000226	20.859475
2250.588609	-2.972300	2.938600	-8.733500	29.087395	0.000224	20.850565
2251.585776	-3.002100	2.935400	-8.811100	29.144632	0.000224	20.849444
2252.586527	-2.996400	2.933500	-8.788200	29.183020	0.000224	20.862048
2253.586591	-3.006500	2.932600	-8.815700	29.221211	0.000224	20.846006
2254.588770	-2.999200	2.931000	-8.789900	29.235919	0.000222	20.870310
2255.591905	-3.015900	2.928000	-8.829900	29.241541	0.000223	20.848476
2256.588073	-2.986100	2.928300	-8.742200	29.241075	0.000224	20.845161
2257.588878	-3.001100	2.926000	-8.779900	29.213839	0.000223	20.836207
2258.588066	-2.997500	2.925700	-8.768500	29.224979	0.000220	20.848381
2259.587718	-2.977300	2.922200	-8.698700	29.224955	0.000222	20.849779
2260.588647	-3.003000	2.920800	-8.770600	29.256708	0.000224	20.845269
2261.587926	-3.001700	2.919000	-8.761300	29.279022	0.000221	20.855903
2262.588679	-3.017200	2.917100	-8.801500	29.275278	0.000223	20.822733
2263.589083	-2.989800	2.915800	-8.716900	29.332068	0.000223	20.831129
2264.589768	-2.995600	2.913800	-8.726900	29.355297	0.000221	20.859280
2265.589955	-3.003500	2.910800	-8.740600	29.381593	0.000223	20.836946
2266.590674	-3.014900	2.910500	-8.773800	29.397936	0.000222	20.843461
2267.590897	-3.026600	2.908000	-8.800200	29.367087	0.000223	20.835129
2268.593048	-2.999900	2.907600	-8.721600	29.320958	0.000221	20.862130
2269.590079	-2.996000	2.906600	-8.707100	29.300134	0.000219	20.840196
2270.590855	-3.027800	2.903600	-8.790100	29.270327	0.000222	20.838605
2271.592620	-3.039300	2.900200	-8.813600	29.291425	0.000222	20.838057
2272.591519	-2.982600	2.901700	-8.653000	29.302599	0.000223	20.845998
2273.589595	-3.008500	2.898400	-8.718900	29.307455	0.000221	20.853263
2274.590835	-2.997000	2.895500	-8.676400	29.267023	0.000223	20.825319
2275.589614	-2.974600	2.896400	-8.614900	29.274080	0.000221	20.824370
2276.594296	-3.007800	2.892200	-8.698300	29.269056	0.000222	20.833532
2277.590825	-2.968800	2.891900	-8.584400	29.281809	0.000219	20.845435
2278.592281	-2.992100	2.890100	-8.645600	29.292605	0.000220	20.843988
2279.590582	-3.012100	2.887700	-8.697300	29.303578	0.000221	20.840347
2280.588459	-2.992300	2.886000	-8.635400	29.292046	0.000221	20.813079
2281.592524	-3.023800	2.881900	-8.713600	29.316810	0.000222	20.833294
2282.589470	-3.021400	2.881800	-8.706200	29.343405	0.000223	20.811261
2283.590982	-2.982000	2.880900	-8.589000	29.322406	0.000220	20.843202
2284.591767	-3.002800	2.877400	-8.638900	29.276177	0.000221	20.823638
2285.592208	-3.012600	2.875800	-8.662900	29.222348	0.000220	20.812540
2286.592712	-3.000500	2.876400	-8.629000	29.181584	0.000220	20.799437
2287.593302	-2.998700	2.872500	-8.612800	29.203478	0.000220	20.814861
2288.592328	-3.004500	2.869100	-8.618300	29.195778	0.000221	20.824171
2289.591883	-2.993800	2.868300	-8.585100	29.197092	0.000222	20.820753
2290.592575	-2.989400	2.865300	-8.564400	29.146970	0.000223	20.805808
2291.592870	-3.006600	2.863700	-8.608900	29.162473	0.000220	20.804835
2292.594283	-2.989200	2.862000	-8.553400	29.186152	0.000220	20.832014
2293.593101	-2.983000	2.859900	-8.530100	29.188808	0.000221	20.820940
2294.595714	-3.000200	2.857200	-8.571500	29.142519	0.000220	20.811280
2295.594049	-2.981300	2.856000	-8.513400	29.094997	0.000221	20.798483
2296.592937	-2.967900	2.855400	-8.473900	29.041846	0.000222	20.812258
2297.595445	-2.970000	2.852900	-8.472200	29.048111	0.000221	20.803397
2298.595057	-2.996500	2.851000	-8.542100	29.045909	0.000222	20.824412
2299.593000	-2.971100	2.849000	-8.463900	29.063914	0.000220	20.807941
2300.593651	-2.998500	2.846400	-8.533800	29.111119	0.000219	20.824684
2301.594200	-3.022500	2.842700	-8.591400	29.107830	0.000221	20.811413
2302.592774	-3.017700	2.840100	-8.568800	29.152532	0.000221	20.807146
2303.597469	-3.007600	2.839000	-8.537200	29.201301	0.000219	20.818831
2304.598633	-3.031500	2.836200	-8.597200	29.261600	0.000219	20.804206
2305.599527	-3.064000	2.832200	-8.677300	29.283933	0.000218	20.792575
2306.594926	-2.997100	2.833400	-8.491500	29.220842	0.000219	20.810074
2307.593834	-2.976500	2.830800	-8.425000	29.249318	0.000219	20.814588
2308.599174	-3.049500	2.827000	-8.619800	29.238471	0.000221	20.802236
2309.595596	-3.003300	2.825000	-8.483800	29.267221	0.000220	20.797069
2310.595493	-2.993500	2.824200	-8.452000	29.237927	0.000218	20.788885
2311.594018	-3.004900	2.822300	-8.478400	29.198855	0.000220	20.815418
2312.594661	-2.997800	2.820400	-8.453500	29.138004	0.000219	20.774962
2313.596023	-3.002000	2.817300	-8.455700	29.148258	0.000220	20.795252
2314.595269	-3.015600	2.813800	-8.483900	29.184072	0.000220	20.776340
2315.594178	-3.012500	2.811500	-8.468500	29.188528	0.000220	20.801218
2316.598611	-3.001500	2.809300	-8.431300	29.196796	0.000220	20.802438
2317.595860	-2.998500	2.807100	-8.415600	29.165275	0.000220	20.793434
2318.596395	-3.001000	2.805500	-8.418400	29.177083	0.000220	20.815764
2319.598276	-2.996700	2.802300	-8.396400	29.176617	0.000220	20.809605
2320.596293	-2.971400	2.800200	-8.319700	29.180705	0.000219	20.788119
2321.595390	-2.982300	2.797400	-8.341700	29.193409	0.000219	20.817043
2322.601048	-3.013400	2.793900	-8.418900	29.176740	0.000220	20.797874
2323.596067	-3.024900	2.792500	-8.446200	29.209628	0.000219	20.798773
2324.594885	-3.017500	2.789800	-8.417200	29.259354	0.000221	20.803366
2325.599047	-3.033300	2.786200	-8.450900	29.321605	0.000218	20.786445
2326.596622	-2.998900	2.783800	-8.347600	29.350676	0.000220	20.803890
2327.596822	-3.024600	2.780400	-8.408200	29.352460	0.000219	20.790989
2328.597622	-3.016100	2.779800	-8.381900	29.383803	0.000218	20.781328
2329.597909	-3.033800	2.774800	-8.417000	29.394594	0.000219	20.796472
2330.602098	-2.962500	2.774400	-8.218400	29.401406	0.000218	20.787690
2331.598850	-3.019100	2.770500	-8.363200	29.371150	0.000219	20.784223
2332.600289	-3.002000	2.768800	-8.310700	29.403611	0.000218	20.798921
2333.599611	-2.992800	2.765400	-8.275300	29.430568	0.000220	20.787685
2334.600859	-3.007100	2.763400	-8.307400	29.476594	0.000219	20.775283
2335.602005	-3.021100	2.758500	-8.331800	29.535892	0.000218	20.799494
2336.601586	-3.005000	2.756400	-8.281700	29.563271	0.000220	20.811447
2337.600499	-2.994800	2.753200	-8.243900	29.553021	0.000218	20.771717
2338.606293	-2.975800	2.752300	-8.190000	29.571988	0.000218	20.781353
2339.600757	-3.008000	2.746900	-8.261500	29.540616	0.000219	20.777703
2340.600834	-2.986600	2.744000	-8.194300	29.586397	0.000217	20.792560
2341.603216	-2.996800	2.740800	-8.211800	29.589288	0.000217	20.769395
2342.600732	-2.996400	2.738600	-8.205300	29.579019	0.000218	20.787966
2343.605146	-2.987500	2.735400	-8.170900	29.557382	0.000217	20.795079
2344.602091	-3.009600	2.731600	-8.220700	29.552551	0.000217	20.773613
2345.599669	-3.026600	2.728000	-8.255300	29.571738	0.000217	20.795326
2346.607029	-2.995000	2.726000	-8.163700	29.591718	0.000217	20.797450
2347.602612	-2.995300	2.722300	-8.153000	29.586520	0.000217	20.803589
2348.606112	-2.999200	2.719000	-8.154300	29.619562	0.000217	20.805130
2349.603090	-2.981000	2.715800	-8.094000	29.617386	0.000218	20.790609
2350.603109	-2.993500	2.711800	-8.116700	29.645655	0.000217	20.779279
2351.605065	-2.988900	2.707400	-8.091200	29.641995	0.000217	20.767054
2352.606728	-2.993700	2.704300	-8.094500	29.568328	0.000216	20.775292
2353.603089	-2.995900	2.700800	-8.090100	29.505195	0.000216	20.791310
2354.603020	-3.010200	2.696900	-8.117400	29.498688	0.000214	20.789018
2355.603273	-3.020900	2.693200	-8.135400	29.500368	0.000219	20.783600
2356.602717	-3.002300	2.689500	-8.073800	29.515494	0.000217	20.777984
2357.606434	-2.985300	2.686600	-8.019300	29.551419	0.000216	20.790016
2358.603712	-2.986900	2.681300	-8.007900	29.587759	0.000215	20.774018
2359.603905	-2.983000	2.679100	-7.990600	29.604148	0.000216	20.749287
2360.603240	-2.981500	2.673900	-7.971100	29.689845	0.000217	20.783052
2361.603775	-3.016500	2.669000	-8.050100	29.718587	0.000217	20.757501
2362.608090	-3.005700	2.666500	-8.013700	29.704052	0.000216	20.758968
2363.605152	-2.990200	2.662000	-7.958500	29.684402	0.000217	20.772349
2364.606978	-3.012300	2.657800	-8.005100	29.595436	0.000217	20.775594
2365.607083	-2.989200	2.654900	-7.934800	29.596421	0.000216	20.770897
2366.608580	-2.995300	2.649100	-7.933700	29.606598	0.000217	20.766456
2367.609036	-2.975600	2.646100	-7.872200	29.600086	0.000218	20.769375
2368.611210	-3.008700	2.640500	-7.943400	29.644871	0.000215	20.769953
2369.614792	-2.980200	2.637200	-7.858400	29.693984	0.000218	20.782009
2370.608813	-3.027000	2.632000	-7.966100	29.701308	0.000218	20.770901
2371.608920	-2.992300	2.626100	-7.856200	29.679973	0.000217	20.767883
2372.610191	-3.015900	2.621900	-7.906900	29.706976	0.000218	20.764762
2373.613152	-3.000700	2.618400	-7.856400	29.767496	0.000216	20.755604
2374.610057	-3.006900	2.612200	-7.853200	29.845284	0.000217	20.784726
2375.611308	-2.980100	2.608700	-7.772800	29.882779	0.000217	20.748092
2376.610855	-3.040300	2.601500	-7.908400	29.900819	0.000217	20.771499
2377.611855	-2.986700	2.597600	-7.755500	29.893374	0.000216	20.768259
2378.613039	-2.997700	2.591700	-7.767900	29.917207	0.000214	20.760524
2379.613644	-3.028400	2.585800	-7.829100	29.925764	0.000215	20.782429
2380.611620	-2.996200	2.581500	-7.733200	29.969546	0.000216	20.775371
2381.627394	-3.018600	2.576500	-7.776000	29.978626	0.000217	20.758924
2382.611664	-3.028300	2.570200	-7.782800	30.043361	0.000217	20.782009
2383.613527	-3.003100	2.563900	-7.699300	29.988250	0.000214	20.782854
2384.613735	-2.994800	2.558300	-7.660400	29.876524	0.000215	20.769286
2385.613706	-2.981500	2.554500	-7.615200	29.867663	0.000216	20.779317
2386.614130	-2.971800	2.548600	-7.572900	29.857465	0.000216	20.752912
2387.622180	-3.006100	2.540000	-7.633600	29.797205	0.000216	20.760904
2388.614162	-2.988300	2.535200	-7.575300	29.757081	0.000218	20.752216
2389.616998	-2.996000	2.528400	-7.573900	29.764782	0.000217	20.757135
2390.614382	-2.968500	2.524800	-7.494100	29.767158	0.000215	20.750996
2391.614854	-3.010600	2.514800	-7.569900	29.771517	0.000216	20.770091
2392.615418	-3.023500	2.508500	-7.583400	29.770454	0.000215	20.750052
2393.616812	-3.015400	2.502400	-7.543400	29.817455	0.000217	20.769943
2394.617837	-3.018600	2.496400	-7.534400	29.886927	0.000216	20.751801
