LabVIEW Measurement	
Writer_Version	2
Reader_Version	2
Separator	Tab
Decimal_Separator	.
Multi_Headings	No
X_Columns	One
Time_Pref	Absolute
Operator	admin
Description	Clolumns are: time, Current, Voltage, Power, Battery Temp, and Chamber Temp
Date	2024/08/16
Time	13:06:06.104549407958984375
***End_of_Header***	
	
Channels	6						
Samples	1	1	1	1	1	1	
Date	2024/09/05	2024/09/05	2024/09/05	2024/09/05	2024/09/05	2024/09/05	
Time	19:48:06.6049599647521972656	19:48:06.610408782958984375	19:48:06.6164073944091796875	19:48:06.58917999267578125	19:48:06.58917999267578125	19:48:06.58917999267578125	
X_Dimension	Time	Time	Time	Time	Time	Time	
X0	0.0000000000000000E+0	0.0000000000000000E+0	0.0000000000000000E+0	0.0000000000000000E+0	0.0000000000000000E+0	0.0000000000000000E+0	
Delta_X	1.000000	1.000000	1.000000	1.000000	1.000000	1.000000	
***End_of_Header***							
X_Value	Untitled	Untitled 1	Untitled 2	Untitled 3	Untitled 4	Untitled 5	Comment
0.000000	0.005029	4.099000	0.020588	21.011014	0.000927	20.819002
1.008257	-2.987700	3.931000	-11.744000	21.014404	0.000925	20.818125
2.002933	-2.983800	3.922600	-11.704000	21.010481	0.000924	20.828426
3.000385	-3.015200	3.918500	-11.814000	21.003866	0.000924	20.821335
4.007921	-2.998300	3.914000	-11.734000	21.036874	0.000922	20.816891
5.002878	-2.998800	3.911200	-11.728000	21.028016	0.000923	20.816566
6.001117	-2.987100	3.908400	-11.674000	21.000043	0.000923	20.823201
7.004002	-3.004300	3.905600	-11.733000	21.013788	0.000921	20.820827
8.000241	-3.008300	3.903200	-11.742000	21.033320	0.000919	20.815234
9.001230	-3.005900	3.900100	-11.723000	21.042600	0.000921	20.832101
10.001626	-2.963500	3.900800	-11.558000	21.038408	0.000919	20.830279
11.000314	-2.984100	3.900000	-11.637000	21.040298	0.000918	20.814626
12.000891	-2.990400	3.896800	-11.652000	21.038349	0.000916	20.817893
13.000746	-2.973600	3.895900	-11.583000	21.029541	0.000916	20.826626
14.001205	-2.981100	3.893600	-11.606000	21.044958	0.000915	20.819762
15.001495	-2.964300	3.894900	-11.545000	21.053234	0.000915	20.821401
16.002542	-2.986100	3.891600	-11.620000	21.057228	0.000915	20.824447
17.001305	-2.992600	3.889500	-11.639000	21.066929	0.000915	20.809969
18.001874	-2.991600	3.888900	-11.633000	21.059019	0.000912	20.817704
19.002996	-2.996900	3.888700	-11.653000	21.056447	0.000914	20.807072
20.003240	-2.988800	3.888700	-11.622000	21.068196	0.000913	20.803176
21.005317	-3.028000	3.885000	-11.763000	21.075230	0.000912	20.816375
22.003434	-2.969800	3.886700	-11.542000	21.090870	0.000911	20.819691
23.002903	-2.993100	3.885500	-11.628000	21.093011	0.000911	20.822307
24.003704	-2.996200	3.884700	-11.638000	21.102665	0.000909	20.803989
25.006038	-2.993500	3.884000	-11.626000	21.106330	0.000908	20.802913
26.004646	-2.970800	3.883900	-11.538000	21.112790	0.000910	20.807004
27.005231	-3.007400	3.881200	-11.670000	21.114361	0.000910	20.813317
28.012818	-3.014700	3.880000	-11.696000	21.114411	0.000907	20.793452
29.005220	-2.998000	3.880200	-11.632000	21.137412	0.000909	20.810770
30.008158	-2.997900	3.880100	-11.632000	21.138208	0.000908	20.823894
31.010232	-2.989600	3.879000	-11.595000	21.132393	0.000908	20.803853
32.006091	-2.995600	3.878300	-11.617000	21.151527	0.000906	20.814458
33.008744	-3.012200	3.876900	-11.677000	21.151102	0.000904	20.819723
34.005464	-3.003200	3.878200	-11.646000	21.154269	0.000906	20.804398
35.005791	-3.001200	3.878100	-11.638000	21.148358	0.000909	20.809391
36.009436	-2.998200	3.876200	-11.620000	21.155490	0.000906	20.793766
37.005118	-2.990300	3.877400	-11.594000	21.195578	0.000904	20.817272
38.006438	-2.984900	3.875500	-11.567000	21.167836	0.000905	20.806116
39.007863	-2.995800	3.875800	-11.610000	21.165689	0.000905	20.794011
40.006295	-2.975900	3.874700	-11.529000	21.182505	0.000904	20.809410
41.007557	-2.996100	3.874000	-11.606000	21.192233	0.000904	20.797330
42.013677	-3.009900	3.874100	-11.660000	21.193428	0.000904	20.780508
43.007780	-2.986000	3.874000	-11.567000	21.202707	0.000903	20.803066
44.006659	-2.987500	3.873000	-11.569000	21.208742	0.000901	20.792982
45.010884	-3.003000	3.873100	-11.630000	21.226524	0.000904	20.795124
46.007235	-2.993800	3.872900	-11.593000	21.230666	0.000902	20.797371
47.009400	-2.992000	3.872500	-11.586000	21.234204	0.000902	20.788582
48.007592	-2.991600	3.870000	-11.576000	21.250567	0.000903	20.810167
49.016439	-3.004500	3.869700	-11.626000	21.226345	0.000902	20.817230
50.013396	-3.019500	3.870500	-11.685000	21.244879	0.000903	20.792149
51.011081	-3.004000	3.869900	-11.624000	21.259170	0.000902	20.805971
52.015550	-3.012800	3.870300	-11.659000	21.242556	0.000903	20.804524
53.012940	-2.991000	3.870000	-11.574000	21.275028	0.000902	20.802869
54.013587	-3.009200	3.868600	-11.641000	21.287053	0.000901	20.783606
55.018507	-2.990200	3.870600	-11.572000	21.268216	0.000902	20.797003
56.015814	-2.982900	3.869100	-11.540000	21.277643	0.000902	20.792683
57.017893	-3.019100	3.866600	-11.672000	21.302886	0.000904	20.783798
58.016778	-2.995000	3.868300	-11.583000	21.292481	0.000901	20.792829
59.018571	-2.997800	3.867400	-11.593000	21.297992	0.000902	20.812567
60.016935	-2.992200	3.867500	-11.570000	21.301307	0.000901	20.793598
61.018529	-3.013100	3.866700	-11.649000	21.304795	0.000899	20.807519
62.017949	-2.999700	3.865900	-11.595000	21.323127	0.000900	20.809738
63.018279	-3.013100	3.866300	-11.649000	21.318060	0.000902	20.799453
64.018743	-3.012700	3.865000	-11.643000	21.335995	0.000900	20.793215
65.017979	-2.996300	3.866500	-11.585000	21.330330	0.000902	20.789917
66.020004	-3.004500	3.865900	-11.615000	21.333419	0.000899	20.803439
67.020285	-3.000000	3.864800	-11.593000	21.338056	0.000901	20.782948
68.020175	-3.020400	3.865200	-11.673000	21.350976	0.000901	20.784969
69.021551	-2.996100	3.863600	-11.575000	21.367335	0.000900	20.820301
70.018924	-3.003600	3.863200	-11.602000	21.374716	0.000902	20.793548
71.023154	-2.983800	3.865200	-11.530000	21.384693	0.000899	20.794995
72.023325	-3.022900	3.861700	-11.672000	21.397786	0.000900	20.795767
73.021407	-2.992600	3.863700	-11.562000	21.398654	0.000899	20.790471
74.023139	-3.003000	3.863600	-11.601000	21.407234	0.000899	20.794788
75.024239	-2.999600	3.864300	-11.590000	21.404812	0.000901	20.801374
76.022049	-3.020100	3.861300	-11.660000	21.416505	0.000899	20.785572
77.024539	-3.013100	3.862100	-11.636000	21.441996	0.000900	20.801120
78.031338	-3.008300	3.861900	-11.616000	21.440222	0.000900	20.791758
79.023536	-2.992000	3.862300	-11.555000	21.434907	0.000901	20.807303
80.025224	-2.999800	3.860700	-11.580000	21.451518	0.000899	20.782198
81.024148	-3.006900	3.861500	-11.609000	21.463836	0.000901	20.796420
82.025364	-2.995600	3.861200	-11.565000	21.464233	0.000902	20.804877
83.026268	-2.996600	3.860200	-11.567000	21.473159	0.000901	20.807645
84.029417	-2.998700	3.860400	-11.575000	21.473832	0.000899	20.787929
85.029020	-3.008900	3.860400	-11.615000	21.487345	0.000901	20.782959
86.029462	-3.003400	3.859800	-11.591000	21.499490	0.000901	20.802223
87.028613	-2.990700	3.858700	-11.540000	21.518193	0.000901	20.783005
88.028511	-2.982000	3.860200	-11.510000	21.504801	0.000902	20.786201
89.033761	-3.013600	3.857200	-11.622000	21.503451	0.000901	20.808557
90.033604	-2.984600	3.858600	-11.516000	21.514499	0.000900	20.788318
91.033336	-3.007000	3.858400	-11.601000	21.538189	0.000901	20.792108
92.030322	-3.000900	3.857800	-11.576000	21.514471	0.000900	20.790187
93.033619	-3.004200	3.859000	-11.591000	21.540831	0.000903	20.771992
94.030354	-3.014700	3.857300	-11.628000	21.546589	0.000903	20.794824
95.031103	-3.009900	3.857200	-11.609000	21.569082	0.000901	20.808797
96.034995	-3.021400	3.858000	-11.656000	21.585091	0.000901	20.768866
97.031662	-3.026400	3.855800	-11.668000	21.576388	0.000903	20.783391
98.031705	-3.015000	3.856000	-11.624000	21.583917	0.000901	20.791400
99.031792	-3.018900	3.856700	-11.641000	21.579127	0.000901	20.802253
100.034861	-3.001600	3.856900	-11.575000	21.563914	0.000902	20.793669
101.031695	-3.032300	3.855400	-11.690000	21.598799	0.000900	20.777368
102.031194	-3.000900	3.855200	-11.567000	21.586454	0.000902	20.773076
103.035471	-3.004000	3.855900	-11.582000	21.584956	0.000902	20.785327
104.037750	-3.029800	3.854700	-11.678000	21.613782	0.000902	20.792362
105.033892	-3.016500	3.855200	-11.627000	21.621112	0.000903	20.790214
106.037053	-3.025700	3.854200	-11.661000	21.602631	0.000903	20.787367
107.036323	-2.988600	3.856600	-11.524000	21.627669	0.000904	20.789663
108.034715	-3.003200	3.855600	-11.577000	21.629908	0.000904	20.792379
109.036763	-2.995800	3.855800	-11.549000	21.638310	0.000904	20.790355
110.035256	-2.987900	3.854900	-11.517000	21.630702	0.000904	20.776103
111.034189	-3.003800	3.855000	-11.579000	21.631123	0.000905	20.792172
112.033402	-3.022500	3.852300	-11.641000	21.631848	0.000904	20.781043
113.035129	-2.993400	3.853500	-11.534000	21.680570	0.000903	20.783808
114.034978	-3.022000	3.852500	-11.641000	21.659326	0.000905	20.794791
115.035898	-3.018500	3.852100	-11.626000	21.682939	0.000906	20.767213
116.036563	-2.982800	3.852800	-11.491000	21.683335	0.000904	20.792740
117.037401	-2.971200	3.853700	-11.448000	21.702783	0.000906	20.782805
118.037782	-3.006600	3.851400	-11.578000	21.717294	0.000905	20.777887
119.039217	-2.988500	3.851600	-11.508000	21.734947	0.000907	20.787020
120.036392	-3.006100	3.853200	-11.582000	21.723648	0.000905	20.777134
121.036902	-3.000400	3.852400	-11.558000	21.720081	0.000904	20.808178
122.038689	-3.006700	3.850900	-11.577000	21.733741	0.000908	20.794348
123.038207	-2.998700	3.851000	-11.547000	21.757355	0.000906	20.781471
124.037953	-3.010500	3.849700	-11.589000	21.762913	0.000909	20.810742
125.038317	-3.020600	3.849900	-11.627000	21.759944	0.000907	20.787856
126.038697	-3.006800	3.852000	-11.579000	21.776724	0.000907	20.789477
127.041546	-2.997200	3.850500	-11.539000	21.775226	0.000906	20.789874
128.038189	-3.001800	3.850400	-11.557000	21.794173	0.000908	20.806467
129.039150	-3.003700	3.850600	-11.565000	21.786940	0.000907	20.791641
130.037810	-2.986900	3.850200	-11.499000	21.775595	0.000908	20.776967
131.038928	-3.004200	3.849900	-11.564000	21.814042	0.000907	20.787947
132.040975	-2.984200	3.850000	-11.489000	21.818703	0.000907	20.784077
133.041790	-2.974500	3.849800	-11.450000	21.833661	0.000907	20.811376
134.038661	-3.006000	3.848900	-11.567000	21.830893	0.000906	20.795804
135.043054	-2.983400	3.849600	-11.484000	21.837101	0.000907	20.800595
136.045818	-2.990700	3.848900	-11.510000	21.840194	0.000907	20.803691
137.038214	-2.997100	3.848700	-11.533000	21.855948	0.000908	20.799545
138.043627	-2.995500	3.848100	-11.526000	21.857694	0.000907	20.790861
139.039284	-2.993200	3.847100	-11.514000	21.863704	0.000906	20.789290
140.041414	-2.979600	3.848000	-11.465000	21.871308	0.000908	20.788366
141.039327	-3.000200	3.847800	-11.543000	21.885120	0.000908	20.808355
142.043501	-2.985900	3.848200	-11.490000	21.886593	0.000908	20.807459
143.041243	-2.985300	3.847300	-11.484000	21.895817	0.000907	20.805786
144.042758	-2.987900	3.846900	-11.493000	21.901752	0.000906	20.803666
145.047841	-2.996200	3.846800	-11.525000	21.896941	0.000908	20.812126
146.044154	-3.025400	3.846200	-11.634000	21.916838	0.000908	20.800275
147.045570	-2.989500	3.846800	-11.498000	21.918708	0.000909	20.790293
148.045473	-3.003600	3.847200	-11.555000	21.934940	0.000908	20.809860
149.048819	-2.989500	3.847200	-11.500000	21.903454	0.000908	20.824809
150.048495	-3.011300	3.845000	-11.577000	21.905549	0.000909	20.816950
151.047011	-2.991900	3.844600	-11.502000	21.924299	0.000909	20.807743
152.053264	-3.016100	3.844200	-11.594000	21.917196	0.000907	20.811539
153.050267	-3.001500	3.843800	-11.535000	21.929539	0.000910	20.812988
154.047771	-2.997800	3.845500	-11.526000	21.937768	0.000910	20.803682
155.047242	-2.989300	3.845100	-11.493000	21.954947	0.000911	20.794800
156.047248	-3.012200	3.843700	-11.577000	21.955749	0.000911	20.801292
157.047696	-3.002400	3.843500	-11.538000	21.967940	0.000910	20.812547
158.047856	-2.970900	3.844000	-11.418000	21.968417	0.000910	20.799274
159.049066	-3.005500	3.844000	-11.552000	21.984973	0.000913	20.787872
160.052423	-3.007100	3.842100	-11.551000	21.977821	0.000912	20.790670
161.052001	-3.003700	3.843800	-11.543000	21.992430	0.000913	20.791544
162.048866	-2.977400	3.843600	-11.443000	21.994578	0.000912	20.793694
163.050194	-3.014400	3.842200	-11.580000	21.995603	0.000912	20.796142
164.047613	-2.980500	3.843800	-11.455000	22.017118	0.000912	20.807248
165.049013	-2.997800	3.842500	-11.519000	22.011787	0.000914	20.798118
166.048546	-2.994000	3.843400	-11.506000	22.005629	0.000913	20.794325
167.048465	-2.990900	3.843100	-11.493000	22.016925	0.000914	20.805633
168.053658	-2.993400	3.841900	-11.499000	22.044325	0.000915	20.792759
169.050487	-3.007100	3.841700	-11.551000	22.032137	0.000916	20.809955
170.048231	-3.017500	3.840000	-11.586000	22.061629	0.000916	20.793961
171.057425	-2.987500	3.842400	-11.477000	22.065319	0.000917	20.802396
172.049051	-2.980500	3.842100	-11.451000	22.077562	0.000917	20.795686
173.048827	-2.996700	3.841400	-11.511000	22.065947	0.000921	20.803973
174.052870	-3.005400	3.840200	-11.541000	22.078886	0.000919	20.809340
175.048598	-3.003500	3.840400	-11.533000	22.076543	0.000919	20.805572
176.048366	-2.996600	3.840900	-11.509000	22.100753	0.000919	20.815110
177.048591	-2.987800	3.840700	-11.474000	22.101474	0.000921	20.813462
178.048104	-2.998300	3.839200	-11.510000	22.133880	0.000921	20.792800
179.049318	-3.011400	3.839200	-11.560000	22.138966	0.000921	20.797418
180.052436	-2.990600	3.839900	-11.480000	22.124386	0.000921	20.796571
181.053590	-3.005700	3.839200	-11.539000	22.140761	0.000922	20.810595
182.048581	-2.975200	3.840800	-11.426000	22.164617	0.000921	20.808874
183.047880	-3.002400	3.838700	-11.524000	22.162249	0.000924	20.804607
184.053427	-3.012800	3.837100	-11.559000	22.173962	0.000924	20.806377
185.053211	-2.978400	3.838600	-11.432000	22.148791	0.000925	20.802512
186.049077	-2.990100	3.837600	-11.474000	22.154047	0.000926	20.811094
187.050962	-2.994500	3.838000	-11.491000	22.161349	0.000927	20.814137
188.050652	-3.009300	3.837500	-11.547000	22.184456	0.000926	20.793649
189.052215	-2.993800	3.837300	-11.487000	22.198388	0.000928	20.791477
190.052332	-3.004700	3.836500	-11.526000	22.213344	0.000928	20.798391
191.050993	-3.017000	3.836600	-11.573000	22.210874	0.000927	20.808720
192.051098	-3.030400	3.835400	-11.621000	22.228845	0.000928	20.809169
193.051607	-2.992500	3.836200	-11.477000	22.223085	0.000929	20.804351
194.057864	-2.987900	3.835900	-11.460000	22.216254	0.000929	20.799408
195.051423	-3.018800	3.835000	-11.576000	22.245441	0.000930	20.821993
196.052515	-3.001100	3.836300	-11.512000	22.245717	0.000929	20.830329
197.053309	-2.986200	3.836900	-11.457000	22.265003	0.000930	20.804122
198.056798	-3.007800	3.835500	-11.535000	22.258797	0.000932	20.803598
199.053266	-3.001600	3.835900	-11.511000	22.283193	0.000933	20.816171
200.054586	-3.008100	3.834500	-11.534000	22.281123	0.000932	20.813150
201.052770	-2.987900	3.835600	-11.460000	22.277758	0.000932	20.820213
202.053942	-2.983300	3.834900	-11.439000	22.286781	0.000933	20.824031
203.055176	-3.003900	3.834000	-11.515000	22.270878	0.000933	20.827548
204.059935	-3.016100	3.832600	-11.557000	22.296147	0.000934	20.796900
205.053581	-2.994700	3.834200	-11.481000	22.281715	0.000934	20.810898
206.058130	-2.991700	3.834200	-11.470000	22.291384	0.000936	20.823424
207.055998	-3.032400	3.832500	-11.621000	22.295816	0.000936	20.824069
208.054924	-3.006000	3.834300	-11.526000	22.311270	0.000936	20.812990
209.058262	-2.997800	3.833100	-11.490000	22.324674	0.000936	20.817404
210.055079	-2.994300	3.833300	-11.477000	22.304885	0.000937	20.818451
211.055184	-2.995400	3.832300	-11.478000	22.294914	0.000940	20.814157
212.061095	-3.005100	3.831600	-11.513000	22.321082	0.000937	20.824712
213.055047	-2.996200	3.831800	-11.480000	22.327237	0.000937	20.837514
214.053918	-2.993400	3.832700	-11.472000	22.338820	0.000938	20.834413
215.055265	-2.985300	3.832600	-11.440000	22.340441	0.000941	20.823234
216.055730	-2.997800	3.831800	-11.486000	22.343926	0.000939	20.829095
217.056345	-3.016300	3.831200	-11.555000	22.374280	0.000940	20.847162
218.056317	-2.984300	3.832100	-11.435000	22.363687	0.000940	20.841296
219.057654	-3.013800	3.828900	-11.539000	22.372282	0.000941	20.833307
220.058624	-2.993700	3.830200	-11.465000	22.389876	0.000939	20.840968
221.056154	-3.005200	3.831500	-11.513000	22.399894	0.000942	20.853370
222.059942	-2.999300	3.829400	-11.484000	22.418260	0.000941	20.839521
223.057926	-3.004100	3.829000	-11.502000	22.406991	0.000940	20.834399
224.056271	-2.999800	3.829500	-11.487000	22.420449	0.000941	20.836497
225.057013	-3.007100	3.828300	-11.511000	22.443548	0.000943	20.859153
226.060749	-3.015600	3.829600	-11.546000	22.457179	0.000943	20.840563
227.058944	-3.002700	3.829000	-11.496000	22.464130	0.000944	20.822394
228.059256	-3.001200	3.828200	-11.487000	22.447234	0.000944	20.847198
229.062148	-2.986700	3.828300	-11.433000	22.472702	0.000944	20.853737
230.060505	-2.990400	3.827100	-11.444000	22.454809	0.000942	20.839138
231.060709	-2.990400	3.827900	-11.446000	22.467293	0.000944	20.824613
232.061169	-2.982700	3.827900	-11.417000	22.471980	0.000945	20.831204
233.058763	-3.000600	3.827300	-11.483000	22.470555	0.000946	20.835940
234.059211	-3.012400	3.825900	-11.524000	22.453287	0.000942	20.856105
235.061488	-3.002800	3.826200	-11.488000	22.458718	0.000944	20.855380
236.062176	-2.985700	3.827700	-11.428000	22.457174	0.000946	20.846722
237.060853	-3.005800	3.826600	-11.501000	22.504594	0.000946	20.846322
238.064718	-3.009900	3.825900	-11.515000	22.490041	0.000947	20.852610
239.064688	-2.996900	3.826400	-11.467000	22.515307	0.000947	20.847568
240.060498	-2.998500	3.826200	-11.471000	22.538929	0.000947	20.850837
241.064443	-2.996700	3.824800	-11.461000	22.542543	0.000949	20.851612
242.064013	-3.000500	3.825900	-11.478000	22.563974	0.000948	20.818549
243.063610	-2.997300	3.826200	-11.467000	22.563275	0.000950	20.847245
244.066317	-3.016200	3.823700	-11.532000	22.563049	0.000950	20.851761
245.063899	-2.997700	3.824800	-11.464000	22.543466	0.000952	20.843053
246.065230	-2.990400	3.823900	-11.433000	22.553085	0.000949	20.842256
247.066021	-3.013000	3.822500	-11.517000	22.565744	0.000954	20.841183
248.068373	-2.987400	3.824400	-11.424000	22.589841	0.000952	20.861524
249.066458	-2.987800	3.823500	-11.423000	22.588319	0.000954	20.848621
250.066983	-2.975900	3.824300	-11.380000	22.593455	0.000953	20.876997
251.071827	-2.967900	3.824300	-11.348000	22.593183	0.000955	20.856810
252.070631	-3.002300	3.823800	-11.480000	22.625999	0.000956	20.867393
253.070502	-3.008400	3.822900	-11.499000	22.613266	0.000955	20.850374
254.071514	-3.013600	3.823300	-11.520000	22.617800	0.000955	20.857284
255.070730	-3.038000	3.822100	-11.610000	22.611398	0.000955	20.868889
256.071025	-3.002000	3.823100	-11.476000	22.618777	0.000956	20.863004
257.072656	-3.002900	3.823200	-11.479000	22.631010	0.000956	20.857240
258.070653	-2.985900	3.821800	-11.410000	22.627375	0.000957	20.863555
259.069615	-3.013300	3.821700	-11.513000	22.649451	0.000957	20.859589
260.072811	-3.006400	3.821500	-11.488000	22.649949	0.000961	20.841596
261.070915	-2.993300	3.821500	-11.438000	22.673945	0.000959	20.854252
262.073570	-3.014300	3.820800	-11.517000	22.654537	0.000960	20.852829
263.073339	-2.997200	3.819500	-11.446000	22.657853	0.000960	20.859944
264.074963	-3.021700	3.819900	-11.542000	22.693183	0.000961	20.858348
265.073922	-3.015100	3.819500	-11.514000	22.690942	0.000962	20.870802
266.076395	-3.011900	3.819200	-11.502000	22.703630	0.000962	20.873079
267.076162	-3.000500	3.819700	-11.459000	22.700041	0.000963	20.869958
268.076231	-2.992800	3.820700	-11.433000	22.703332	0.000964	20.862350
269.074156	-3.009600	3.819200	-11.494000	22.702212	0.000965	20.868814
270.075030	-3.015200	3.819100	-11.515000	22.720849	0.000965	20.875154
271.080337	-2.997800	3.818400	-11.446000	22.737293	0.000964	20.868393
272.075291	-3.029500	3.816900	-11.562000	22.727380	0.000965	20.862731
273.077955	-3.014400	3.817700	-11.507000	22.734285	0.000967	20.887189
274.076786	-2.995100	3.818500	-11.436000	22.752842	0.000967	20.848407
275.076118	-2.982700	3.817200	-11.385000	22.779552	0.000967	20.863309
276.079021	-2.990600	3.817900	-11.417000	22.779478	0.000967	20.854701
277.079559	-3.014600	3.816300	-11.503000	22.800629	0.000967	20.854078
278.078410	-3.006800	3.817700	-11.478000	22.812388	0.000968	20.876761
279.077705	-3.023800	3.816300	-11.539000	22.807456	0.000968	20.864710
280.077398	-3.028900	3.815400	-11.555000	22.808232	0.000968	20.853634
281.076737	-2.995800	3.817300	-11.435000	22.834512	0.000970	20.869528
282.079890	-3.014500	3.815100	-11.499000	22.833965	0.000969	20.881781
283.076906	-3.000900	3.814900	-11.447000	22.812866	0.000971	20.865862
284.084179	-2.987000	3.816400	-11.398000	22.814757	0.000974	20.864437
285.076591	-2.998700	3.815300	-11.439000	22.820115	0.000972	20.884027
286.083882	-2.987200	3.815900	-11.397000	22.818992	0.000974	20.857300
287.078778	-3.000000	3.813600	-11.439000	22.811199	0.000973	20.885527
288.077678	-2.993700	3.815100	-11.420000	22.820016	0.000972	20.882506
289.082369	-3.008300	3.814400	-11.474000	22.842734	0.000974	20.879187
290.079892	-3.014500	3.814000	-11.497000	22.816801	0.000973	20.886872
291.078594	-3.014300	3.812200	-11.490000	22.825943	0.000975	20.868530
292.079215	-3.010600	3.814000	-11.480000	22.818147	0.000975	20.882531
293.078745	-3.011100	3.813300	-11.481000	22.832170	0.000976	20.896104
294.076614	-3.000800	3.815200	-11.447000	22.809204	0.000974	20.897752
295.078451	-3.001700	3.811900	-11.441000	22.806939	0.000977	20.867984
296.083277	-2.987300	3.813600	-11.391000	22.822905	0.000978	20.879237
297.081278	-3.030300	3.810300	-11.545000	22.846669	0.000976	20.877913
298.080596	-3.005900	3.811500	-11.456000	22.849732	0.000978	20.887145
299.081607	-2.990500	3.812500	-11.400000	22.865998	0.000977	20.872621
300.080686	-3.009600	3.811100	-11.468000	22.870981	0.000977	20.890414
301.082312	-3.006300	3.811100	-11.456000	22.881839	0.000980	20.874267
302.082248	-3.012700	3.811800	-11.483000	22.881740	0.000981	20.886494
303.080434	-2.983000	3.810900	-11.366000	22.900000	0.000981	20.895778
304.081751	-3.002100	3.811500	-11.441000	22.885675	0.000979	20.887592
305.082631	-2.983400	3.811500	-11.370000	22.887345	0.000983	20.894006
306.081623	-3.006400	3.810400	-11.454000	22.907493	0.000983	20.875311
307.086120	-3.023000	3.808500	-11.512000	22.923634	0.000983	20.878680
308.081949	-3.012000	3.808700	-11.471000	22.890006	0.000981	20.888611
309.088956	-3.000600	3.808300	-11.426000	22.910357	0.000985	20.890508
310.082963	-3.011100	3.809700	-11.470000	22.927841	0.000984	20.881472
311.085656	-2.985500	3.808500	-11.368000	22.927764	0.000984	20.897515
312.083198	-2.998400	3.810200	-11.424000	22.924478	0.000985	20.902758
313.089273	-3.001300	3.807900	-11.428000	22.897449	0.000985	20.913610
314.085375	-3.023200	3.807900	-11.511000	22.925868	0.000984	20.888030
315.086396	-3.002400	3.807500	-11.431000	22.964428	0.000986	20.897264
316.090436	-3.021900	3.807100	-11.503000	22.959618	0.000986	20.902402
317.087630	-3.013000	3.807100	-11.470000	22.962031	0.000990	20.913828
318.087592	-2.989900	3.807800	-11.384000	22.977896	0.000988	20.896060
319.093637	-2.992000	3.806300	-11.387000	22.989452	0.000989	20.927075
320.093166	-3.004800	3.807200	-11.439000	22.999941	0.000988	20.917196
321.089602	-2.996500	3.806200	-11.405000	22.988828	0.000989	20.924553
322.095658	-2.996500	3.807300	-11.407000	23.022202	0.000990	20.896829
323.091573	-2.992500	3.806600	-11.390000	23.030371	0.000989	20.905013
324.091398	-2.984700	3.806200	-11.358000	23.043692	0.000991	20.926419
325.094182	-2.988900	3.807400	-11.378000	23.034052	0.000991	20.923398
326.092015	-3.010700	3.805200	-11.455000	23.062445	0.000990	20.910123
327.092491	-3.005800	3.805100	-11.435000	23.070586	0.000990	20.892678
328.093143	-2.989900	3.804900	-11.375000	23.070911	0.000993	20.892055
329.096901	-2.978900	3.806000	-11.336000	23.082237	0.000992	20.917627
330.093788	-2.984600	3.803900	-11.352000	23.084950	0.000992	20.927456
331.090167	-3.002700	3.804400	-11.423000	23.060167	0.000992	20.933443
332.096752	-3.006500	3.804000	-11.436000	23.073018	0.000994	20.905071
333.095502	-3.010500	3.803700	-11.450000	23.062333	0.000995	20.926604
334.090997	-2.993700	3.803500	-11.385000	23.084224	0.000995	20.938107
335.094853	-2.982300	3.804400	-11.345000	23.100533	0.000994	20.910830
336.092201	-2.996800	3.803400	-11.397000	23.110643	0.000996	20.921908
337.094401	-3.014400	3.803100	-11.463000	23.100283	0.000994	20.921957
338.098967	-2.985300	3.803100	-11.352000	23.107155	0.000997	20.914146
339.094675	-2.989900	3.802200	-11.367000	23.116990	0.000997	20.904562
340.095992	-3.012800	3.802400	-11.454000	23.132680	0.000997	20.924549
341.102813	-3.003000	3.800900	-11.412000	23.134996	0.000996	20.924025
342.098299	-3.008000	3.800500	-11.430000	23.152925	0.000996	20.922550
343.095733	-3.007900	3.801900	-11.435000	23.127423	0.000997	20.911695
344.095703	-2.993900	3.800900	-11.378000	23.134243	0.000999	20.904306
345.095870	-3.010700	3.799900	-11.440000	23.121368	0.000998	20.916533
346.097877	-3.012700	3.800700	-11.450000	23.120443	0.000999	20.902806
347.096492	-3.017400	3.799900	-11.465000	23.101414	0.001000	20.887533
348.096838	-3.022000	3.798600	-11.478000	23.085799	0.001001	20.919772
349.098991	-2.975500	3.799300	-11.304000	23.074964	0.001003	20.907969
350.098535	-2.991100	3.799400	-11.362000	23.072720	0.001000	20.897186
351.098277	-2.992800	3.799600	-11.371000	23.087285	0.001002	20.896608
352.096642	-3.010100	3.797900	-11.431000	23.090424	0.001003	20.897856
353.095604	-3.012500	3.797300	-11.438000	23.123646	0.001003	20.895111
354.096308	-2.998800	3.798300	-11.389000	23.142023	0.001004	20.895508
355.100722	-2.993400	3.798200	-11.368000	23.138686	0.001005	20.896905
356.098529	-3.005800	3.798700	-11.417000	23.148370	0.001005	20.917039
357.098979	-2.988200	3.797200	-11.346000	23.120651	0.001004	20.893532
358.103880	-3.009800	3.795900	-11.424000	23.098535	0.001002	20.891759
359.096927	-2.997000	3.797500	-11.380000	23.102843	0.001006	20.903188
360.098058	-2.987100	3.796600	-11.339000	23.092452	0.001005	20.880924
361.098071	-2.980100	3.796900	-11.314000	23.129834	0.001004	20.889458
362.097823	-3.000200	3.795300	-11.386000	23.148137	0.001007	20.901633
363.099014	-3.002600	3.795100	-11.395000	23.147463	0.001007	20.905699
364.102767	-2.987100	3.795700	-11.336000	23.149504	0.001007	20.885461
365.100318	-2.991000	3.793900	-11.347000	23.147961	0.001007	20.882493
366.099483	-3.008400	3.793300	-11.409000	23.172734	0.001006	20.885032
367.100205	-2.977700	3.795600	-11.301000	23.170943	0.001008	20.890823
368.101623	-3.014000	3.793900	-11.432000	23.157865	0.001009	20.901899
369.100360	-3.025100	3.793700	-11.476000	23.175670	0.001010	20.897455
370.100319	-2.982600	3.795500	-11.319000	23.183216	0.001007	20.888422
371.101199	-3.004100	3.793900	-11.397000	23.209289	0.001008	20.866188
372.100228	-3.025800	3.791900	-11.473000	23.186349	0.001009	20.865960
373.100275	-2.990900	3.793300	-11.345000	23.216529	0.001010	20.901891
374.100263	-3.014400	3.792700	-11.430000	23.229874	0.001011	20.883972
375.099199	-2.999000	3.793500	-11.375000	23.247754	0.001013	20.892406
376.102024	-3.007900	3.792500	-11.407000	23.258485	0.001012	20.882773
377.103913	-3.001200	3.792400	-11.379000	23.263934	0.001010	20.879699
378.103055	-2.996200	3.791400	-11.358000	23.264630	0.001011	20.886086
379.104007	-2.973700	3.793200	-11.279000	23.252277	0.001013	20.867543
380.103564	-2.993900	3.791100	-11.350000	23.248764	0.001012	20.878721
381.107795	-3.002000	3.790500	-11.378000	23.229663	0.001014	20.890398
382.102914	-2.985200	3.792800	-11.320000	23.252448	0.001014	20.874352
383.103297	-3.007000	3.790600	-11.398000	23.240867	0.001013	20.875549
384.107810	-2.985400	3.791200	-11.317000	23.281455	0.001013	20.878292
385.111254	-2.993700	3.790800	-11.347000	23.280484	0.001015	20.885853
386.107067	-2.973900	3.790000	-11.271000	23.283372	0.001014	20.887799
387.112103	-3.001700	3.789700	-11.375000	23.299953	0.001013	20.893985
388.105203	-3.016000	3.787300	-11.421000	23.291885	0.001015	20.866461
389.107458	-3.001000	3.789900	-11.372000	23.270546	0.001014	20.884902
390.113632	-3.022300	3.787100	-11.445000	23.302566	0.001015	20.862941
391.110603	-2.998200	3.788600	-11.359000	23.277642	0.001015	20.875420
392.107270	-3.012300	3.787300	-11.406000	23.261680	0.001014	20.858475
393.107116	-2.975900	3.789100	-11.274000	23.278363	0.001014	20.878513
394.109646	-3.016800	3.787500	-11.425000	23.271839	0.001015	20.859173
395.110013	-2.994400	3.787400	-11.340000	23.272985	0.001013	20.879761
396.108995	-2.990700	3.786400	-11.323000	23.287352	0.001015	20.868556
397.111138	-3.003100	3.786700	-11.371000	23.308967	0.001015	20.848968
398.112155	-2.991600	3.786400	-11.327000	23.330680	0.001014	20.897279
399.110666	-2.999600	3.786800	-11.359000	23.340766	0.001015	20.859501
400.114002	-3.000000	3.787000	-11.360000	23.353391	0.001015	20.861722
401.112061	-2.998600	3.785600	-11.350000	23.351372	0.001016	20.872500
402.111928	-3.021900	3.785100	-11.437000	23.363848	0.001016	20.848970
403.112226	-2.966500	3.786600	-11.232000	23.347290	0.001016	20.846126
404.112466	-3.001400	3.785500	-11.361000	23.372963	0.001016	20.859054
405.112843	-2.998500	3.784200	-11.346000	23.383096	0.001018	20.878217
406.112341	-2.984100	3.784100	-11.292000	23.376921	0.001017	20.863495
407.113745	-2.987300	3.783700	-11.302000	23.359395	0.001017	20.856835
408.115363	-2.985400	3.784600	-11.298000	23.376825	0.001019	20.860079
409.114603	-3.018900	3.783200	-11.419000	23.339899	0.001019	20.846304
410.116078	-2.991900	3.783000	-11.318000	23.341720	0.001018	20.850974
411.117103	-3.015200	3.783900	-11.409000	23.370977	0.001019	20.858959
412.116930	-3.000600	3.782800	-11.349000	23.388233	0.001018	20.859660
413.117126	-2.986000	3.783500	-11.296000	23.412659	0.001019	20.861856
414.119113	-3.010900	3.782500	-11.387000	23.436337	0.001020	20.859511
415.116402	-3.006800	3.781800	-11.369000	23.444530	0.001020	20.851602
416.123336	-2.974100	3.782400	-11.248000	23.444181	0.001019	20.842243
417.120971	-3.007000	3.781400	-11.369000	23.446598	0.001020	20.871691
418.119530	-2.973000	3.781700	-11.241000	23.429444	0.001018	20.856395
419.122838	-2.980900	3.780100	-11.268000	23.401011	0.001019	20.858716
420.123641	-3.011100	3.779400	-11.378000	23.386519	0.001018	20.838028
421.121572	-2.997300	3.779600	-11.328000	23.387542	0.001021	20.856122
422.123505	-3.004000	3.778500	-11.348000	23.409878	0.001020	20.861914
423.126350	-3.009100	3.778800	-11.370000	23.388887	0.001020	20.841350
424.122415	-2.992200	3.779500	-11.307000	23.405923	0.001021	20.846570
425.124123	-3.004500	3.778700	-11.353000	23.401940	0.001023	20.844475
426.123307	-3.005900	3.778700	-11.357000	23.424347	0.001023	20.833270
427.123150	-2.986000	3.779000	-11.283000	23.425145	0.001020	20.840233
428.123290	-2.999100	3.777400	-11.327000	23.447827	0.001025	20.829303
429.120910	-3.024200	3.777200	-11.422000	23.437021	0.001023	20.845972
430.121821	-2.993400	3.777100	-11.305000	23.419570	0.001023	20.847921
431.121827	-2.993100	3.777600	-11.305000	23.443223	0.001023	20.834171
432.123773	-3.002600	3.776800	-11.339000	23.416756	0.001025	20.832773
433.123657	-3.000200	3.776600	-11.329000	23.403362	0.001025	20.843055
434.121355	-2.995200	3.776400	-11.311000	23.411652	0.001025	20.821019
435.130691	-2.978600	3.775300	-11.244000	23.407669	0.001025	20.838838
436.122377	-3.026100	3.774900	-11.421000	23.408266	0.001026	20.838962
437.123178	-2.992800	3.775600	-11.298000	23.418923	0.001025	20.829730
438.123673	-3.022400	3.774600	-11.407000	23.430846	0.001025	20.819870
439.123703	-3.004900	3.774800	-11.342000	23.438866	0.001024	20.844028
440.120650	-2.995800	3.774000	-11.306000	23.471429	0.001026	20.841107
441.125075	-2.979000	3.774400	-11.243000	23.499437	0.001026	20.843577
442.122554	-2.991800	3.774700	-11.292000	23.507006	0.001026	20.835516
443.126463	-2.983700	3.773700	-11.257000	23.536432	0.001027	20.841305
444.124310	-2.988800	3.774400	-11.280000	23.554356	0.001027	20.830350
445.123745	-3.003000	3.772800	-11.329000	23.566904	0.001026	20.839610
446.128839	-3.002400	3.772700	-11.326000	23.577110	0.001025	20.837512
447.122235	-3.027100	3.772000	-11.416000	23.585577	0.001026	20.815180
448.126477	-3.002400	3.771200	-11.322000	23.602953	0.001025	20.824539
449.127873	-3.010600	3.771800	-11.354000	23.595460	0.001028	20.848320
450.124654	-2.992000	3.772200	-11.285000	23.581221	0.001027	20.817452
451.131247	-2.992200	3.771200	-11.283000	23.561853	0.001026	20.846873
452.125130	-3.024300	3.769600	-11.400000	23.561729	0.001028	20.848646
453.124182	-3.012600	3.771300	-11.361000	23.528495	0.001029	20.804901
454.129247	-2.998200	3.771100	-11.305000	23.550877	0.001027	20.824492
455.126463	-2.999700	3.770600	-11.310000	23.537809	0.001028	20.825617
456.127766	-3.024400	3.769800	-11.400000	23.532405	0.001029	20.827786
457.126966	-2.994500	3.769600	-11.287000	23.554314	0.001029	20.827938
458.130177	-3.010800	3.768200	-11.344000	23.549986	0.001028	20.815538
459.127028	-2.976600	3.769600	-11.220000	23.544934	0.001028	20.808577
460.134468	-3.011200	3.767300	-11.343000	23.558527	0.001028	20.802763
461.128850	-2.999500	3.768700	-11.303000	23.554322	0.001029	20.823204
462.128223	-2.966300	3.768600	-11.178000	23.557432	0.001028	20.833434
463.125564	-2.981000	3.767200	-11.228000	23.588303	0.001028	20.821707
464.128221	-2.989300	3.768400	-11.264000	23.602295	0.001029	20.808707
465.128894	-3.016000	3.764900	-11.354000	23.618852	0.001029	20.808709
466.128896	-2.982300	3.767000	-11.233000	23.639014	0.001032	20.826550
467.127911	-2.988500	3.766700	-11.256000	23.648924	0.001029	20.818468
468.128346	-2.992600	3.766700	-11.271000	23.655099	0.001031	20.825607
469.131195	-2.994400	3.766000	-11.275000	23.668914	0.001028	20.818594
470.130189	-2.991700	3.765600	-11.264000	23.683028	0.001030	20.805244
471.130274	-2.979100	3.763800	-11.211000	23.703315	0.001031	20.808513
472.131265	-3.005300	3.764000	-11.311000	23.691767	0.001030	20.832496
473.129577	-3.011800	3.764700	-11.338000	23.692440	0.001029	20.804723
474.131695	-2.985700	3.765700	-11.242000	23.707203	0.001030	20.825687
475.132209	-3.013600	3.762900	-11.339000	23.691569	0.001030	20.788676
476.134670	-3.021000	3.762900	-11.367000	23.695729	0.001029	20.817028
477.133193	-3.002100	3.763800	-11.298000	23.654533	0.001030	20.810341
478.131225	-3.006200	3.763200	-11.311000	23.669395	0.001031	20.812438
479.132389	-2.992800	3.763500	-11.262000	23.660956	0.001031	20.802556
480.135264	-3.009400	3.761400	-11.317000	23.655382	0.001034	20.815460
481.133959	-2.998800	3.762300	-11.280000	23.670717	0.001031	20.819454
482.134169	-3.013800	3.760600	-11.332000	23.668776	0.001032	20.809921
483.134820	-2.992700	3.762400	-11.259000	23.683539	0.001033	20.822825
484.134769	-2.993600	3.763200	-11.264000	23.707159	0.001033	20.824220
485.139143	-2.989400	3.761800	-11.245000	23.698475	0.001033	20.791333
486.141696	-2.998700	3.760800	-11.276000	23.699273	0.001033	20.790236
487.143607	-3.019700	3.759800	-11.353000	23.725955	0.001034	20.806555
488.140439	-2.980000	3.759400	-11.202000	23.741314	0.001033	20.793979
489.140330	-3.009800	3.759500	-11.314000	23.771757	0.001035	20.808380
490.140715	-2.986300	3.760600	-11.229000	23.753615	0.001036	20.791614
491.139792	-3.001000	3.759900	-11.282000	23.774445	0.001035	20.810128
492.142145	-3.006700	3.759000	-11.301000	23.774844	0.001036	20.808631
493.144050	-2.999600	3.758200	-11.272000	23.789034	0.001036	20.803892
494.140982	-3.007000	3.759000	-11.302000	23.796823	0.001036	20.804115
495.140342	-3.008700	3.757600	-11.305000	23.783035	0.001036	20.803567
496.144383	-2.984200	3.759100	-11.217000	23.755930	0.001037	20.818591
497.140984	-2.989500	3.758600	-11.235000	23.751924	0.001035	20.793711
498.143065	-3.007200	3.756900	-11.297000	23.744481	0.001036	20.800948
499.145098	-3.012100	3.755900	-11.312000	23.768922	0.001036	20.805064
500.142347	-2.977700	3.757100	-11.187000	23.747195	0.001038	20.798927
501.143595	-2.983500	3.757400	-11.209000	23.775075	0.001035	20.792267
502.143413	-3.003000	3.756300	-11.279000	23.786026	0.001035	20.794238
503.147104	-3.006100	3.756000	-11.290000	23.816093	0.001036	20.775547
504.147094	-3.011900	3.755300	-11.309000	23.807232	0.001037	20.797482
505.143329	-2.997900	3.755000	-11.256000	23.830079	0.001035	20.802373
506.146866	-2.979000	3.755700	-11.187000	23.818331	0.001034	20.801025
507.145989	-3.013400	3.753600	-11.310000	23.781893	0.001035	20.777292
508.146528	-3.002200	3.754000	-11.269000	23.773656	0.001037	20.794638
509.150557	-3.002200	3.753400	-11.267000	23.805618	0.001036	20.784484
510.151053	-2.993800	3.753100	-11.235000	23.830931	0.001036	20.806546
511.145004	-2.995800	3.753300	-11.243000	23.817116	0.001035	20.797435
512.146952	-3.008600	3.752500	-11.288000	23.816349	0.001036	20.787183
513.146592	-3.006400	3.753000	-11.281000	23.833147	0.001035	20.801182
514.146411	-2.998100	3.753400	-11.252000	23.841040	0.001032	20.783966
515.147032	-2.992000	3.752300	-11.226000	23.852315	0.001036	20.785788
516.148561	-3.000800	3.751000	-11.255000	23.863614	0.001035	20.795222
517.146436	-2.996500	3.752200	-11.242000	23.873300	0.001035	20.789760
518.155960	-2.988700	3.751400	-11.211000	23.861827	0.001036	20.784895
519.147649	-2.987600	3.751700	-11.207000	23.883755	0.001037	20.775114
520.146743	-2.990100	3.751300	-11.216000	23.869619	0.001035	20.772318
521.148533	-2.978100	3.750300	-11.168000	23.881767	0.001036	20.795880
522.150315	-3.001700	3.750000	-11.256000	23.879054	0.001036	20.787943
523.154953	-3.000000	3.748700	-11.245000	23.867884	0.001036	20.785278
524.147871	-2.980000	3.749300	-11.172000	23.839187	0.001036	20.788746
525.156699	-2.977900	3.748800	-11.163000	23.858176	0.001036	20.789768
526.148030	-2.991100	3.748100	-11.209000	23.853796	0.001037	20.790593
527.149723	-3.010200	3.748300	-11.282000	23.898075	0.001036	20.786628
528.156341	-2.994500	3.747700	-11.222000	23.878836	0.001039	20.764492
529.151844	-2.998100	3.746900	-11.232000	23.872216	0.001037	20.764492
530.149680	-3.012100	3.746100	-11.282000	23.889165	0.001038	20.754934
531.152195	-3.017000	3.745500	-11.300000	23.900266	0.001037	20.777446
532.149048	-2.997700	3.746900	-11.231000	23.889965	0.001037	20.789401
533.149749	-2.999000	3.747200	-11.237000	23.905220	0.001037	20.767714
534.150480	-2.998300	3.746000	-11.230000	23.855597	0.001038	20.781492
535.152142	-3.007300	3.745500	-11.263000	23.845067	0.001039	20.770934
536.153115	-3.004400	3.745600	-11.252000	23.842805	0.001037	20.788580
537.152093	-2.975800	3.745700	-11.145000	23.850516	0.001038	20.764544
538.152685	-3.009500	3.744000	-11.267000	23.851388	0.001038	20.797661
539.151311	-2.995300	3.745800	-11.218000	23.878344	0.001040	20.762575
540.151771	-3.006200	3.744100	-11.255000	23.882350	0.001038	20.759954
541.152559	-2.988100	3.745100	-11.190000	23.926226	0.001039	20.780718
542.152783	-3.000500	3.743000	-11.229000	23.938443	0.001041	20.759303
543.153129	-3.008200	3.742500	-11.255000	23.965070	0.001039	20.791695
544.151109	-2.997800	3.742900	-11.218000	23.964177	0.001040	20.758556
545.156070	-3.008300	3.742900	-11.258000	23.974953	0.001040	20.765569
546.152480	-2.996200	3.741800	-11.210000	23.985352	0.001039	20.786430
547.151229	-2.994500	3.740600	-11.201000	23.965892	0.001039	20.756009
548.154175	-3.016100	3.740500	-11.280000	23.961760	0.001039	20.776048
549.155309	-2.981800	3.740800	-11.153000	23.955415	0.001039	20.774901
550.152980	-2.976400	3.741500	-11.136000	23.961535	0.001038	20.783408
551.158757	-3.009100	3.740900	-11.255000	23.978108	0.001037	20.763044
552.157666	-3.003600	3.739800	-11.232000	23.956411	0.001040	20.781589
553.153660	-2.994900	3.739900	-11.199000	23.954170	0.001039	20.768911
554.159779	-2.993700	3.740300	-11.196000	23.962604	0.001039	20.784481
555.157526	-3.002400	3.738800	-11.225000	23.975994	0.001038	20.768037
556.157936	-3.012500	3.738400	-11.261000	23.990327	0.001039	20.766763
557.158838	-3.006700	3.737800	-11.237000	23.993711	0.001038	20.790071
558.160072	-3.006100	3.739500	-11.240000	24.008121	0.001038	20.793142
559.157373	-3.021400	3.737500	-11.291000	24.013069	0.001038	20.781509
560.158493	-3.012400	3.738900	-11.263000	24.033875	0.001038	20.791469
561.164190	-3.007600	3.737400	-11.240000	24.006004	0.001038	20.771579
562.158421	-2.987700	3.738300	-11.168000	24.012572	0.001037	20.762992
563.157821	-2.988500	3.737200	-11.167000	24.038628	0.001038	20.764467
564.157587	-3.014700	3.735900	-11.261000	24.039227	0.001038	20.785457
565.158810	-3.007900	3.736500	-11.239000	24.036563	0.001037	20.765716
566.156574	-3.012800	3.736100	-11.254000	24.035392	0.001039	20.775447
567.159519	-3.015600	3.735300	-11.262000	24.040819	0.001039	20.780889
568.161559	-3.010200	3.734700	-11.241000	24.067418	0.001036	20.777220
569.160780	-2.987000	3.733600	-11.151000	24.048012	0.001039	20.777197
570.164153	-2.998800	3.734200	-11.197000	24.042138	0.001038	20.768935
571.163651	-2.999600	3.734400	-11.200000	24.021162	0.001037	20.780616
572.166395	-2.986500	3.735200	-11.154000	24.007126	0.001039	20.782187
573.161943	-2.984600	3.733300	-11.142000	24.056322	0.001038	20.773203
574.163514	-3.006100	3.732900	-11.220000	24.068889	0.001038	20.790548
575.168437	-3.003000	3.734100	-11.212000	24.077523	0.001038	20.757955
576.166022	-2.978000	3.734400	-11.120000	24.082523	0.001037	20.787152
577.162537	-2.968500	3.734500	-11.085000	24.066146	0.001037	20.774995
578.164634	-2.982700	3.732800	-11.134000	24.054005	0.001040	20.775147
579.162604	-3.028300	3.731500	-11.298000	24.041039	0.001040	20.787273
580.163247	-2.985600	3.732900	-11.144000	24.025087	0.001037	20.777914
581.165071	-2.987100	3.731600	-11.144000	24.013267	0.001039	20.796407
582.164551	-2.993900	3.731900	-11.171000	24.037278	0.001040	20.782080
583.165792	-3.011900	3.731100	-11.236000	24.030808	0.001038	20.781280
584.165039	-3.001400	3.731500	-11.199000	24.048848	0.001039	20.793209
585.167641	-3.007500	3.731200	-11.221000	24.067435	0.001037	20.795728
586.167884	-2.988900	3.730500	-11.149000	24.075945	0.001038	20.793832
587.166293	-2.996700	3.730200	-11.177000	24.064868	0.001037	20.799318
588.166449	-3.007000	3.729900	-11.215000	24.071316	0.001038	20.793931
589.168250	-3.001700	3.729600	-11.195000	24.058870	0.001038	20.771491
590.167362	-2.973200	3.730300	-11.090000	24.096096	0.001037	20.787015
591.166300	-3.022800	3.727700	-11.268000	24.110675	0.001038	20.782196
592.168267	-3.006700	3.728900	-11.211000	24.111739	0.001039	20.784686
593.167472	-3.013300	3.727500	-11.231000	24.149040	0.001039	20.789854
594.167861	-2.994000	3.728100	-11.160000	24.141253	0.001038	20.784889
595.171646	-3.004800	3.728200	-11.202000	24.145901	0.001036	20.798560
596.170634	-2.996300	3.728100	-11.170000	24.118256	0.001037	20.806869
597.169508	-2.995400	3.726900	-11.163000	24.118429	0.001036	20.794715
598.174067	-2.993800	3.726700	-11.156000	24.124921	0.001038	20.801700
599.170248	-3.003100	3.725900	-11.188000	24.146170	0.001037	20.801201
600.170755	-3.012200	3.726000	-11.222000	24.120241	0.001037	20.787523
601.171409	-3.025400	3.725300	-11.269000	24.126510	0.001036	20.799026
602.171357	-2.995200	3.725800	-11.159000	24.096600	0.001039	20.792261
603.173248	-3.021900	3.724500	-11.254000	24.085080	0.001037	20.797303
604.174556	-2.999600	3.724000	-11.169000	24.124064	0.001036	20.786142
605.177700	-2.995200	3.724400	-11.154000	24.147900	0.001037	20.806729
606.174684	-2.991100	3.725100	-11.141000	24.148620	0.001036	20.810296
607.174978	-2.994500	3.722300	-11.145000	24.181410	0.001035	20.798139
608.181531	-3.001900	3.722800	-11.175000	24.194748	0.001036	20.804879
609.180894	-3.008600	3.723200	-11.201000	24.214025	0.001036	20.823741
610.174063	-3.008200	3.722000	-11.195000	24.242910	0.001034	20.808618
611.180942	-3.025600	3.722100	-11.261000	24.255025	0.001036	20.789475
612.175795	-3.029700	3.721800	-11.275000	24.248105	0.001036	20.800078
613.177918	-2.995800	3.721900	-11.149000	24.262187	0.001036	20.785754
614.177447	-3.003300	3.722100	-11.178000	24.228127	0.001034	20.808014
615.179199	-2.993000	3.720500	-11.135000	24.248949	0.001034	20.798554
616.182116	-3.006200	3.719100	-11.179000	24.247204	0.001034	20.828571
617.176783	-2.987700	3.720900	-11.116000	24.233295	0.001035	20.800869
618.181242	-2.982600	3.721500	-11.099000	24.221227	0.001034	20.812947
619.183067	-2.978700	3.721500	-11.083000	24.187017	0.001036	20.824626
620.179623	-3.006800	3.719600	-11.182000	24.190571	0.001035	20.807329
621.180445	-3.005400	3.719500	-11.178000	24.214455	0.001035	20.824172
622.180708	-3.020600	3.719300	-11.232000	24.216767	0.001037	20.804680
623.180146	-2.991900	3.720900	-11.132000	24.217413	0.001033	20.793000
624.181937	-3.021200	3.719100	-11.236000	24.194046	0.001034	20.814607
625.180715	-3.013400	3.718500	-11.205000	24.212034	0.001034	20.822218
626.184289	-3.008100	3.719300	-11.186000	24.191108	0.001036	20.823040
627.184753	-3.008100	3.716800	-11.178000	24.201283	0.001035	20.821391
628.180727	-3.015200	3.718500	-11.211000	24.228003	0.001036	20.811682
629.182168	-3.012900	3.717400	-11.199000	24.209641	0.001034	20.819343
630.185923	-3.005900	3.716100	-11.169000	24.230039	0.001034	20.824157
631.184514	-3.005800	3.716500	-11.169000	24.257206	0.001035	20.836708
632.188654	-3.009300	3.716800	-11.184000	24.250784	0.001034	20.823154
633.183586	-3.007900	3.715300	-11.174000	24.265762	0.001037	20.829643
634.186571	-2.994200	3.715900	-11.125000	24.277079	0.001035	20.850003
635.188826	-2.997600	3.715300	-11.136000	24.263393	0.001035	20.830112
636.184650	-2.999100	3.716100	-11.144000	24.268865	0.001035	20.809048
637.187874	-3.006900	3.714600	-11.169000	24.258216	0.001034	20.820177
638.185987	-2.994600	3.713800	-11.120000	24.239006	0.001033	20.835995
639.188835	-2.990300	3.716000	-11.111000	24.230024	0.001033	20.828409
640.186941	-2.998800	3.715000	-11.139000	24.239352	0.001034	20.846773
641.189254	-3.014900	3.712700	-11.193000	24.270051	0.001034	20.830151
642.186568	-3.037800	3.712900	-11.277000	24.287015	0.001032	20.832470
643.186742	-3.007800	3.713500	-11.168000	24.295348	0.001033	20.842725
644.191493	-2.988800	3.712700	-11.095000	24.256461	0.001032	20.834538
645.190668	-2.987900	3.712400	-11.091000	24.266932	0.001032	20.844092
646.188210	-3.004300	3.712700	-11.151000	24.275839	0.001032	20.850182
647.191538	-3.010800	3.710400	-11.168000	24.263000	0.001032	20.862432
648.189684	-3.008100	3.712300	-11.166000	24.287429	0.001032	20.850427
649.191278	-3.009800	3.710300	-11.165000	24.318923	0.001031	20.840769
650.194991	-3.016600	3.710700	-11.192000	24.283046	0.001031	20.848876
651.194245	-2.996600	3.711100	-11.120000	24.286407	0.001030	20.845135
652.192210	-3.000500	3.710400	-11.132000	24.304839	0.001029	20.842288
653.196527	-2.996100	3.711800	-11.120000	24.299392	0.001029	20.850574
654.193563	-2.983500	3.709400	-11.065000	24.299788	0.001029	20.867091
655.192310	-3.004400	3.709600	-11.144000	24.306331	0.001029	20.840940
656.197394	-3.015600	3.708600	-11.182000	24.299241	0.001028	20.836673
657.195490	-3.031700	3.709200	-11.244000	24.309417	0.001029	20.861104
658.192393	-2.984000	3.709700	-11.067000	24.329069	0.001027	20.849998
659.196202	-3.004400	3.709400	-11.144000	24.346159	0.001029	20.850547
660.198041	-3.003800	3.708500	-11.138000	24.331333	0.001029	20.857959
661.191838	-3.015300	3.706600	-11.175000	24.349097	0.001028	20.851123
662.206494	-2.968800	3.708100	-11.008000	24.362084	0.001028	20.854193
663.197662	-2.993400	3.707600	-11.097000	24.406765	0.001028	20.848757
664.196353	-2.990900	3.708400	-11.091000	24.402511	0.001026	20.858714
665.198223	-3.009700	3.705700	-11.151000	24.421716	0.001025	20.844790
666.194580	-2.996700	3.706200	-11.105000	24.422911	0.001027	20.845515
667.192364	-2.994300	3.706500	-11.098000	24.436941	0.001028	20.852952
668.193072	-2.989200	3.707400	-11.081000	24.450276	0.001026	20.856847
669.195944	-3.020900	3.704500	-11.189000	24.448885	0.001026	20.851659
670.193387	-2.983500	3.706500	-11.058000	24.455279	0.001028	20.871823
671.194683	-3.013100	3.704300	-11.160000	24.427447	0.001025	20.861444
672.195496	-3.001800	3.705100	-11.121000	24.420184	0.001027	20.850840
673.193611	-3.011400	3.703600	-11.152000	24.378421	0.001028	20.845453
674.195919	-2.972200	3.705100	-11.012000	24.364068	0.001028	20.867563
675.197807	-2.988500	3.704900	-11.071000	24.356506	0.001026	20.854288
676.197515	-3.002300	3.703300	-11.118000	24.318170	0.001027	20.874151
677.196370	-2.999600	3.704000	-11.109000	24.305611	0.001026	20.853019
678.197425	-3.002100	3.702800	-11.115000	24.310887	0.001025	20.849303
679.196599	-3.011300	3.702400	-11.147000	24.305812	0.001025	20.865073
680.196970	-2.999800	3.704000	-11.110000	24.311734	0.001026	20.858212
681.196543	-2.999900	3.703100	-11.109000	24.302008	0.001027	20.874060
682.196757	-3.017600	3.701500	-11.169000	24.324149	0.001025	20.846486
683.194939	-3.000800	3.701700	-11.107000	24.322731	0.001024	20.862132
684.197946	-2.994900	3.702700	-11.089000	24.343754	0.001026	20.837703
685.198868	-3.001800	3.701100	-11.108000	24.352037	0.001025	20.869718
686.198484	-2.989500	3.700100	-11.060000	24.351817	0.001025	20.884195
687.200430	-3.002300	3.701000	-11.109000	24.360696	0.001024	20.865602
688.197298	-2.995700	3.700400	-11.084000	24.356395	0.001023	20.854176
689.203845	-3.002500	3.699600	-11.106000	24.376343	0.001024	20.860437
690.198737	-3.002100	3.699400	-11.105000	24.374677	0.001024	20.861611
691.202885	-2.976700	3.700700	-11.015000	24.352514	0.001024	20.877783
692.202810	-2.989500	3.699100	-11.056000	24.378758	0.001023	20.863808
693.201848	-3.016000	3.699000	-11.155000	24.385375	0.001024	20.883721
694.199340	-3.001200	3.697600	-11.095000	24.413214	0.001024	20.875140
695.200101	-3.007800	3.699800	-11.127000	24.450625	0.001023	20.862887
696.198948	-3.001500	3.698600	-11.099000	24.464779	0.001022	20.871870
697.199658	-3.011800	3.697400	-11.134000	24.465724	0.001022	20.868551
698.206218	-3.009000	3.698200	-11.127000	24.477613	0.001019	20.886642
699.200168	-3.015900	3.696700	-11.148000	24.468087	0.001020	20.889413
700.198171	-2.992600	3.698000	-11.064000	24.466672	0.001021	20.883252
701.202484	-3.015900	3.696200	-11.146000	24.459783	0.001020	20.877763
702.200943	-2.997000	3.696600	-11.078000	24.458986	0.001021	20.876490
703.198796	-2.988200	3.696000	-11.044000	24.460031	0.001022	20.867581
704.203739	-2.973900	3.696900	-10.993000	24.439089	0.001020	20.888770
705.200373	-3.016300	3.694200	-11.142000	24.458217	0.001020	20.897053
706.200409	-2.995400	3.694800	-11.066000	24.496624	0.001020	20.874896
707.205409	-3.009000	3.694800	-11.118000	24.500605	0.001021	20.884106
708.201093	-3.015300	3.693800	-11.138000	24.542940	0.001018	20.890545
709.201087	-3.004500	3.695500	-11.102000	24.507024	0.001019	20.885804
710.206263	-2.997400	3.694200	-11.072000	24.520905	0.001018	20.888825
711.200409	-3.002800	3.693700	-11.090000	24.503295	0.001018	20.889175
712.200266	-2.983500	3.693900	-11.019000	24.455141	0.001020	20.890175
713.202629	-3.012900	3.693500	-11.128000	24.448874	0.001017	20.900482
714.204141	-2.992100	3.692500	-11.047000	24.471859	0.001019	20.890826
715.201746	-3.008100	3.693200	-11.107000	24.468600	0.001019	20.891823
716.202315	-2.993700	3.693300	-11.055000	24.437360	0.001017	20.876605
717.203486	-2.985800	3.693400	-11.026000	24.421813	0.001019	20.887085
718.204039	-3.001700	3.691000	-11.078000	24.429699	0.001019	20.869394
719.204414	-2.995000	3.692500	-11.057000	24.435670	0.001016	20.898615
720.203438	-3.002900	3.692000	-11.085000	24.461887	0.001020	20.886037
721.205706	-3.009400	3.691500	-11.108000	24.506485	0.001020	20.869143
722.206906	-3.013100	3.689200	-11.114000	24.513153	0.001018	20.899064
723.207297	-3.008000	3.690500	-11.099000	24.479945	0.001017	20.898938
724.207828	-3.014800	3.687800	-11.117000	24.498851	0.001017	20.881398
725.205697	-3.016600	3.689900	-11.129000	24.511856	0.001017	20.886385
726.207129	-3.010900	3.690100	-11.109000	24.521259	0.001018	20.892025
727.206834	-3.014900	3.688400	-11.119000	24.553193	0.001018	20.894668
728.204386	-2.989600	3.689300	-11.028000	24.534464	0.001019	20.895316
729.208642	-3.002400	3.690100	-11.078000	24.535433	0.001016	20.910986
730.209325	-2.987900	3.687800	-11.017000	24.495137	0.001016	20.903748
731.206790	-2.997100	3.687200	-11.050000	24.514590	0.001018	20.891024
732.210157	-2.998700	3.688100	-11.058000	24.525779	0.001015	20.901775
733.209890	-3.009800	3.687900	-11.099000	24.540206	0.001017	20.905818
734.208619	-2.986900	3.688000	-11.014000	24.549581	0.001016	20.888199
735.213171	-3.026000	3.687200	-11.156000	24.533612	0.001015	20.916745
736.212742	-3.004400	3.687000	-11.076000	24.545872	0.001016	20.913873
737.212336	-2.997700	3.688200	-11.055000	24.563953	0.001016	20.895981
738.214270	-3.021700	3.684600	-11.132000	24.564275	0.001015	20.910527
739.214026	-3.021500	3.686400	-11.137000	24.579696	0.001016	20.904190
740.213819	-3.014900	3.684800	-11.107000	24.590412	0.001014	20.919207
741.214445	-2.988400	3.685200	-11.012000	24.583620	0.001014	20.910971
742.213726	-2.957400	3.687200	-10.902000	24.590610	0.001015	20.910398
743.214983	-2.984300	3.685400	-10.997000	24.596899	0.001014	20.907225
744.214188	-3.011000	3.684000	-11.091000	24.575235	0.001013	20.911093
745.214050	-3.003700	3.685000	-11.067000	24.565235	0.001015	20.920024
746.214107	-2.986400	3.684000	-11.001000	24.568565	0.001014	20.914357
747.216605	-3.004200	3.684000	-11.066000	24.582069	0.001014	20.912259
748.217694	-2.989100	3.684600	-11.013000	24.573016	0.001012	20.919296
749.220226	-3.007100	3.683300	-11.076000	24.565227	0.001014	20.937084
750.213527	-2.979600	3.684200	-10.976000	24.552243	0.001012	20.932117
751.214951	-2.987300	3.682400	-10.999000	24.536947	0.001012	20.933839
752.217201	-2.986200	3.683200	-10.997000	24.551770	0.001011	20.921687
753.215921	-3.002000	3.682200	-11.052000	24.536447	0.001011	20.929071
754.218662	-3.000400	3.681300	-11.044000	24.560447	0.001010	20.943192
755.221026	-3.010000	3.680500	-11.077000	24.591856	0.001010	20.910700
756.215331	-3.002400	3.681000	-11.050000	24.608742	0.001011	20.938072
757.219918	-2.990500	3.681600	-11.009000	24.614811	0.001011	20.928515
758.221847	-2.994600	3.680300	-11.019000	24.654076	0.001009	20.932827
759.221729	-3.004300	3.679800	-11.054000	24.650669	0.001009	20.911393
760.218266	-3.002800	3.679900	-11.048000	24.656711	0.001008	20.928359
761.220546	-2.986200	3.680600	-10.990000	24.656387	0.001009	20.926611
762.217564	-2.992300	3.679300	-11.007000	24.669565	0.001009	20.923240
763.221434	-3.009800	3.678800	-11.070000	24.692714	0.001008	20.941251
764.230875	-3.023700	3.678500	-11.122000	24.710075	0.001008	20.940655
765.218750	-2.995200	3.678000	-11.015000	24.696618	0.001009	20.913877
766.218384	-2.979700	3.680000	-10.964000	24.705494	0.001006	20.924680
767.223182	-3.001900	3.676600	-11.034000	24.706140	0.001006	20.912527
768.221755	-2.995100	3.678100	-11.014000	24.714890	0.001005	20.913247
769.221175	-2.970000	3.677800	-10.922000	24.675619	0.001007	20.914143
770.224897	-2.983900	3.678100	-10.974000	24.675916	0.001005	20.912071
771.223624	-2.988000	3.676900	-10.986000	24.698594	0.001007	20.923447
772.220036	-3.016200	3.676400	-11.088000	24.688570	0.001007	20.909596
773.220303	-3.013700	3.675200	-11.075000	24.699089	0.001005	20.901660
774.220577	-3.015200	3.675300	-11.081000	24.683170	0.001006	20.915556
775.220082	-3.024000	3.674200	-11.109000	24.691227	0.001005	20.905150
776.220896	-3.004600	3.676000	-11.044000	24.683293	0.001005	20.904775
777.224093	-3.027500	3.675300	-11.126000	24.710373	0.001003	20.922464
778.221795	-3.013700	3.674500	-11.072000	24.707459	0.001006	20.912902
779.223004	-3.028500	3.673700	-11.125000	24.707857	0.001002	20.904294
780.222816	-3.003200	3.674600	-11.033000	24.676297	0.001003	20.916246
781.221509	-3.017300	3.673400	-11.083000	24.654361	0.001002	20.916045
782.222017	-3.001100	3.673700	-11.024000	24.669630	0.001002	20.917142
783.227224	-2.997400	3.673700	-11.011000	24.658785	0.001001	20.920483
784.223060	-3.002300	3.674100	-11.030000	24.706734	0.001003	20.914072
785.223419	-2.991900	3.673500	-10.990000	24.686812	0.001003	20.893134
786.226841	-3.005800	3.672500	-11.037000	24.686735	0.001002	20.921504
787.227081	-3.000600	3.672100	-11.016000	24.687010	0.001002	20.909926
788.225511	-3.006400	3.672300	-11.039000	24.666140	0.001002	20.896572
789.228129	-3.014100	3.671000	-11.063000	24.662981	0.001001	20.915685
790.225585	-3.002000	3.671100	-11.019000	24.682327	0.001002	20.896220
791.225652	-3.025800	3.670800	-11.106000	24.680810	0.000999	20.914137
792.232670	-3.015900	3.671400	-11.072000	24.660789	0.001000	20.906375
793.230523	-3.007000	3.672100	-11.041000	24.681627	0.001000	20.907844
794.228224	-3.004600	3.671600	-11.030000	24.689534	0.000999	20.897287
795.236118	-2.985600	3.671900	-10.963000	24.707138	0.001000	20.886504
796.230567	-3.009300	3.670100	-11.044000	24.704053	0.000998	20.895736
797.227710	-3.005500	3.670000	-11.029000	24.733823	0.000999	20.896687
798.227379	-3.004600	3.670400	-11.027000	24.727577	0.000999	20.901324
799.228604	-2.995100	3.669300	-10.989000	24.751325	0.001000	20.906189
800.227053	-3.020100	3.668300	-11.077000	24.770200	0.000998	20.885777
801.227612	-3.008300	3.667400	-11.031000	24.762363	0.000997	20.893085
802.231613	-3.017500	3.667200	-11.064000	24.785962	0.000998	20.901594
803.228710	-3.011400	3.667000	-11.041000	24.777655	0.000999	20.912698
804.227928	-3.003800	3.667300	-11.015000	24.767909	0.000997	20.889168
805.228066	-3.026800	3.666500	-11.096000	24.733069	0.000996	20.915843
806.230785	-3.022700	3.666800	-11.080000	24.709941	0.000998	20.888369
807.227983	-3.009600	3.667300	-11.036000	24.725882	0.000996	20.878288
808.229039	-3.017200	3.665800	-11.059000	24.726105	0.000997	20.902218
809.229999	-3.009700	3.667200	-11.036000	24.741873	0.000998	20.888644
810.233037	-2.984900	3.667200	-10.945000	24.737220	0.000995	20.878760
811.235346	-2.993300	3.666500	-10.974000	24.766168	0.000995	20.891214
812.231796	-3.009500	3.665800	-11.031000	24.780466	0.000996	20.876166
813.233373	-2.993300	3.665100	-10.970000	24.813189	0.000995	20.891462
814.233394	-3.025600	3.664300	-11.085000	24.814706	0.000994	20.881605
815.234016	-3.014900	3.665700	-11.050000	24.808564	0.000995	20.880657
816.234203	-3.011000	3.664400	-11.033000	24.825973	0.000992	20.888644
817.234798	-3.001200	3.664400	-10.996000	24.812695	0.000994	20.863466
818.232009	-2.998900	3.664600	-10.988000	24.800309	0.000994	20.888019
819.232322	-3.020800	3.662200	-11.062000	24.816947	0.000993	20.881009
820.234608	-3.006000	3.663600	-11.012000	24.826816	0.000992	20.900396
821.232936	-2.980600	3.664700	-10.922000	24.824234	0.000993	20.878365
822.235399	-2.988100	3.664100	-10.948000	24.826322	0.000992	20.893261
823.236170	-3.008700	3.661900	-11.017000	24.816821	0.000991	20.897476
824.233734	-3.020700	3.661500	-11.060000	24.761044	0.000991	20.894607
825.234875	-3.030700	3.661300	-11.095000	24.777183	0.000990	20.879510
826.236533	-3.024600	3.660400	-11.070000	24.776661	0.000988	20.891313
827.235742	-3.005400	3.662000	-11.004000	24.762959	0.000991	20.855280
828.235416	-3.014100	3.661600	-11.035000	24.747914	0.000990	20.878112
829.238459	-3.017200	3.660700	-11.044000	24.781188	0.000988	20.855555
830.235381	-3.004300	3.662000	-11.000000	24.788871	0.000987	20.867532
831.236359	-2.991800	3.660000	-10.949000	24.825401	0.000990	20.861994
832.237438	-2.997500	3.660100	-10.970000	24.816175	0.000988	20.864114
833.240357	-2.993800	3.660500	-10.958000	24.805209	0.000989	20.878239
834.236719	-2.985900	3.660700	-10.929000	24.754682	0.000986	20.862620
835.239618	-2.996800	3.659600	-10.966000	24.757814	0.000985	20.864814
836.240664	-2.987600	3.660000	-10.934000	24.756250	0.000986	20.858978
837.239839	-3.017600	3.658000	-11.037000	24.733793	0.000987	20.862520
838.241818	-2.999300	3.657300	-10.969000	24.713355	0.000987	20.860028
839.242162	-2.989500	3.659000	-10.936000	24.702437	0.000984	20.866616
840.238815	-3.003200	3.659400	-10.988000	24.707437	0.000984	20.871633
841.240748	-3.004500	3.656800	-10.986000	24.733773	0.000984	20.874828
842.242794	-3.005800	3.657400	-10.994000	24.753420	0.000983	20.859457
843.240191	-3.010100	3.656900	-11.007000	24.783186	0.000984	20.849500
844.242907	-2.981900	3.656700	-10.903000	24.831803	0.000984	20.874108
845.241135	-2.996200	3.655400	-10.952000	24.811910	0.000983	20.875954
846.241548	-2.996100	3.655000	-10.949000	24.800821	0.000983	20.883791
847.242525	-3.020400	3.656300	-11.042000	24.799280	0.000982	20.852375
848.240596	-3.013300	3.654500	-11.010000	24.808929	0.000982	20.862058
849.239686	-3.016300	3.656600	-11.029000	24.825564	0.000982	20.862632
850.243551	-3.017700	3.654600	-11.028000	24.799779	0.000982	20.855721
851.241475	-3.024100	3.655100	-11.052000	24.822232	0.000981	20.868296
852.241774	-2.985900	3.655700	-10.915000	24.807660	0.000981	20.870267
853.242637	-3.005000	3.654300	-10.980000	24.838397	0.000980	20.863183
854.243230	-2.989500	3.654400	-10.924000	24.832680	0.000982	20.862187
855.244885	-2.988900	3.654100	-10.920000	24.828302	0.000981	20.851156
856.244093	-3.008800	3.654100	-10.993000	24.852325	0.000979	20.844920
857.242693	-3.012500	3.653300	-11.004000	24.829497	0.000979	20.873216
858.244249	-2.991900	3.653300	-10.929000	24.818583	0.000980	20.870324
859.245868	-2.989000	3.653600	-10.920000	24.814482	0.000977	20.852933
860.242753	-3.004200	3.652500	-10.971000	24.831592	0.000979	20.854931
861.244322	-3.000500	3.652900	-10.960000	24.838033	0.000979	20.838163
862.247339	-2.997400	3.651800	-10.945000	24.793671	0.000978	20.868082
863.243427	-2.994800	3.652500	-10.937000	24.812199	0.000976	20.857279
864.246731	-2.985800	3.652900	-10.906000	24.831498	0.000976	20.855311
865.246711	-2.998400	3.652600	-10.951000	24.824260	0.000976	20.849470
866.244728	-2.998200	3.651600	-10.946000	24.825009	0.000978	20.852118
867.246548	-2.986400	3.650400	-10.900000	24.851815	0.000978	20.848201
868.246573	-2.981700	3.650900	-10.885000	24.871037	0.000977	20.855638
869.246448	-3.011600	3.649800	-10.991000	24.862706	0.000978	20.844433
870.244826	-2.990600	3.651600	-10.919000	24.897446	0.000977	20.861755
871.250602	-3.006600	3.650000	-10.974000	24.868578	0.000978	20.843214
872.246177	-3.002400	3.650100	-10.958000	24.902821	0.000978	20.845339
873.246768	-3.005400	3.648600	-10.965000	24.918954	0.000976	20.840669
874.247142	-2.999700	3.648600	-10.944000	24.898490	0.000975	20.864699
875.249595	-2.997200	3.648100	-10.934000	24.904037	0.000976	20.848457
876.248340	-2.995000	3.647900	-10.925000	24.879820	0.000976	20.827471
877.254713	-2.985200	3.648200	-10.889000	24.889170	0.000974	20.837802
878.249068	-3.026000	3.648400	-11.039000	24.911670	0.000975	20.827195
879.249626	-2.985300	3.647700	-10.887000	24.887555	0.000974	20.830017
880.249420	-2.971000	3.647300	-10.835000	24.887676	0.000974	20.822553
881.248744	-3.016200	3.647200	-10.999000	24.873777	0.000974	20.850803
882.249978	-3.013000	3.646200	-10.985000	24.905084	0.000975	20.827222
883.247638	-3.000400	3.647900	-10.944000	24.904537	0.000973	20.836631
884.249915	-3.002100	3.647400	-10.949000	24.910478	0.000974	20.835955
885.251905	-3.000400	3.646900	-10.942000	24.913689	0.000973	20.831117
886.253939	-2.996700	3.645400	-10.923000	24.920750	0.000971	20.820187
887.253127	-2.994900	3.646000	-10.918000	24.898272	0.000973	20.835558
888.252678	-3.019200	3.644600	-11.003000	24.925595	0.000973	20.818412
889.255069	-2.981700	3.644200	-10.865000	24.893896	0.000971	20.838279
890.251816	-3.004100	3.645400	-10.951000	24.878482	0.000971	20.828498
891.253247	-3.022300	3.643600	-11.010000	24.890493	0.000971	20.830596
892.256907	-2.996900	3.644000	-10.920000	24.890367	0.000971	20.826202
893.256366	-2.995600	3.644000	-10.915000	24.853146	0.000970	20.816821
894.253871	-3.017400	3.642900	-10.991000	24.870401	0.000970	20.831293
895.255071	-3.010900	3.643000	-10.967000	24.892459	0.000969	20.838733
896.255467	-3.005700	3.642300	-10.946000	24.901037	0.000969	20.827902
897.254624	-2.975200	3.643200	-10.838000	24.922872	0.000968	20.811412
898.256358	-2.970200	3.644300	-10.823000	24.950841	0.000969	20.811983
899.256900	-3.002700	3.641000	-10.930000	24.956883	0.000968	20.837487
900.257179	-2.998300	3.642800	-10.922000	24.966009	0.000968	20.841431
901.256967	-2.979700	3.642300	-10.853000	24.945745	0.000967	20.815877
902.255322	-2.996800	3.640600	-10.909000	24.935081	0.000966	20.844053
903.256445	-2.981800	3.641100	-10.853000	24.977673	0.000966	20.830854
904.257964	-3.008400	3.639900	-10.949000	24.952686	0.000965	20.810989
905.257184	-3.004100	3.640700	-10.936000	24.964792	0.000965	20.809865
906.260576	-2.996000	3.640400	-10.906000	24.924341	0.000965	20.835171
907.257495	-2.987700	3.639400	-10.873000	24.928670	0.000962	20.814860
908.256963	-2.988600	3.640200	-10.878000	24.949656	0.000965	20.818854
909.259016	-3.005300	3.639000	-10.935000	24.940631	0.000963	20.817382
910.260448	-2.988500	3.639000	-10.874000	24.949532	0.000963	20.822523
911.262054	-3.020400	3.638800	-10.990000	24.951845	0.000961	20.824844
912.260778	-2.996900	3.638200	-10.902000	24.968928	0.000961	20.821128
913.259714	-2.992200	3.637300	-10.882000	24.960031	0.000962	20.824052
914.259578	-2.987500	3.638800	-10.870000	24.978378	0.000962	20.811173
915.262726	-2.996600	3.638200	-10.902000	24.959039	0.000961	20.839177
916.260298	-3.006300	3.636800	-10.933000	24.923164	0.000962	20.807911
917.266341	-3.003600	3.636600	-10.922000	24.903644	0.000960	20.814398
918.263076	-2.988200	3.638200	-10.871000	24.912647	0.000961	20.822960
919.260552	-3.005000	3.637600	-10.930000	24.913073	0.000960	20.800628
920.270998	-2.996700	3.636000	-10.895000	24.942214	0.000958	20.801427
921.261264	-3.024000	3.635000	-10.990000	24.947410	0.000959	20.812332
922.260073	-2.980700	3.635700	-10.835000	24.972348	0.000958	20.789474
923.267807	-2.988700	3.636200	-10.867000	24.985006	0.000958	20.797438
924.260711	-3.003500	3.633700	-10.913000	24.969843	0.000959	20.805451
925.261579	-2.982100	3.635600	-10.841000	24.944410	0.000958	20.798416
926.266525	-3.005800	3.633700	-10.920000	24.931232	0.000959	20.805104
927.264883	-3.009200	3.634500	-10.936000	24.945857	0.000958	20.798920
928.262967	-2.999700	3.633900	-10.900000	24.939416	0.000957	20.801939
929.267147	-2.996500	3.634100	-10.889000	24.950010	0.000957	20.802614
930.264693	-3.018200	3.632500	-10.962000	24.963610	0.000957	20.800618
931.271517	-2.981700	3.634500	-10.836000	24.976518	0.000957	20.812626
932.266218	-2.997400	3.632600	-10.887000	24.989048	0.000955	20.782054
933.267498	-3.006400	3.632900	-10.920000	24.983156	0.000954	20.801271
934.264000	-3.000800	3.633000	-10.901000	25.006328	0.000955	20.808882
935.268671	-3.007100	3.631500	-10.918000	24.976919	0.000954	20.783630
936.270367	-3.002400	3.632300	-10.903000	24.969883	0.000955	20.795534
937.265421	-2.997700	3.631500	-10.886000	24.965906	0.000954	20.795810
938.268813	-3.009300	3.630600	-10.925000	24.956858	0.000954	20.798583
939.270215	-2.988500	3.632200	-10.853000	24.927097	0.000954	20.794315
940.267391	-3.019700	3.630900	-10.963000	24.896519	0.000954	20.784013
941.268972	-3.009600	3.628800	-10.920000	24.888735	0.000953	20.775252
942.266467	-2.989700	3.628800	-10.848000	24.896694	0.000951	20.789405
943.268042	-2.996500	3.629600	-10.876000	24.931752	0.000953	20.789504
944.269310	-3.020000	3.628700	-10.958000	24.967034	0.000952	20.774182
945.267966	-3.008200	3.629400	-10.917000	24.978423	0.000951	20.781821
946.267885	-2.998000	3.630000	-10.882000	25.004105	0.000951	20.783417
947.270516	-3.007100	3.628000	-10.907000	25.030733	0.000952	20.764627
948.268078	-3.004700	3.628700	-10.903000	25.049403	0.000950	20.776729
949.267713	-2.999500	3.627700	-10.880000	25.031208	0.000952	20.771742
950.271131	-2.980100	3.628100	-10.811000	25.021061	0.000951	20.788109
951.268990	-2.990300	3.627900	-10.848000	24.990581	0.000949	20.766050
952.271384	-2.995700	3.628200	-10.868000	24.953710	0.000951	20.787836
953.271650	-3.010800	3.626700	-10.919000	24.943941	0.000950	20.772815
954.269352	-3.007400	3.625900	-10.903000	24.943441	0.000949	20.767571
955.269560	-3.009400	3.626600	-10.913000	24.964375	0.000949	20.782419
956.272374	-3.015300	3.626000	-10.932000	24.940733	0.000948	20.771017
957.268757	-3.020800	3.624700	-10.949000	24.944856	0.000950	20.783216
958.269838	-3.009700	3.626100	-10.913000	24.946572	0.000947	20.765024
959.275945	-2.980000	3.625900	-10.804000	24.944163	0.000947	20.782521
960.270514	-3.019100	3.624700	-10.943000	24.941747	0.000946	20.794794
961.271313	-3.004500	3.625900	-10.893000	24.973471	0.000948	20.771635
962.274178	-2.996000	3.625500	-10.860000	24.992345	0.000945	20.788683
963.272895	-3.001100	3.623700	-10.874000	25.003630	0.000946	20.767293
964.276040	-2.977500	3.626300	-10.795000	24.995448	0.000944	20.797488
965.273127	-3.008800	3.622600	-10.898000	24.982543	0.000944	20.768413
966.273900	-2.985300	3.623000	-10.815000	25.015113	0.000941	20.764120
967.271927	-2.991500	3.623400	-10.838000	25.000645	0.000943	20.771883
968.272542	-2.993500	3.623100	-10.845000	25.028339	0.000942	20.777397
969.272214	-2.993700	3.623100	-10.845000	25.004322	0.000942	20.760876
970.272289	-3.025500	3.620200	-10.952000	25.003828	0.000940	20.748525
971.271240	-2.984200	3.623000	-10.809000	24.993411	0.000942	20.797813
972.275639	-2.986300	3.623600	-10.819000	24.962604	0.000940	20.778745
973.272820	-3.008800	3.620500	-10.892000	24.931601	0.000939	20.761377
974.273148	-2.993900	3.621300	-10.840000	24.908752	0.000941	20.765471
975.274392	-3.017000	3.619700	-10.920000	24.916338	0.000939	20.752696
976.273664	-3.005500	3.619500	-10.877000	24.918448	0.000939	20.749123
977.271760	-2.998300	3.620300	-10.853000	24.942123	0.000939	20.767196
978.275141	-2.988100	3.620400	-10.817000	24.960321	0.000938	20.763651
979.273194	-3.001100	3.620100	-10.863000	24.979689	0.000937	20.760332
980.274003	-2.976300	3.618900	-10.770000	25.006714	0.000937	20.750474
981.273884	-2.995200	3.619100	-10.839000	24.983167	0.000937	20.743907
982.272565	-3.002600	3.616400	-10.858000	24.951917	0.000937	20.753319
983.274455	-2.992300	3.617800	-10.825000	24.978519	0.000937	20.763900
984.276127	-3.000200	3.617500	-10.852000	24.995278	0.000936	20.774557
985.281431	-2.978600	3.618800	-10.778000	25.016236	0.000938	20.759083
986.275459	-2.984700	3.616900	-10.794000	25.019540	0.000935	20.763348
987.281413	-2.994700	3.616600	-10.831000	25.004797	0.000933	20.739066
988.278903	-2.996500	3.617900	-10.840000	25.009620	0.000934	20.744856
989.278563	-2.991700	3.616000	-10.817000	25.001861	0.000935	20.740387
990.282554	-3.003000	3.615100	-10.855000	25.039401	0.000935	20.751042
991.279303	-3.001100	3.617000	-10.854000	25.032439	0.000932	20.747847
992.278186	-3.036400	3.612900	-10.968000	25.025579	0.000934	20.763247
993.285673	-3.013800	3.613800	-10.890000	25.009766	0.000934	20.762072
994.281469	-2.980500	3.616400	-10.777000	25.031519	0.000931	20.755933
995.278981	-2.997600	3.614800	-10.834000	25.039698	0.000932	20.762246
996.283066	-3.008400	3.612600	-10.866000	25.045220	0.000931	20.754987
997.282381	-2.996800	3.613300	-10.828000	25.039426	0.000933	20.733523
998.280993	-2.979900	3.613600	-10.767000	25.029432	0.000930	20.731077
999.281679	-2.990700	3.613400	-10.803000	25.021105	0.000930	20.743108
1000.279014	-3.030400	3.611000	-10.941000	24.995473	0.000929	20.734997
1001.280220	-2.991400	3.614700	-10.811000	24.968498	0.000929	20.749573
1002.284259	-3.015800	3.612900	-10.895000	24.975460	0.000930	20.751345
1003.282260	-2.997800	3.613400	-10.830000	24.972227	0.000929	20.762326
1004.280956	-3.004500	3.611100	-10.847000	25.007458	0.000927	20.774929
1005.282849	-3.001000	3.611700	-10.837000	25.015813	0.000927	20.770987
1006.282359	-2.997200	3.611800	-10.824000	25.097233	0.000927	20.760258
1007.282455	-2.997500	3.609700	-10.818000	25.078790	0.000928	20.760235
1008.284616	-2.989100	3.611400	-10.794000	25.068497	0.000927	20.766025
1009.282094	-3.006600	3.611000	-10.855000	25.061041	0.000927	20.766601
1010.281393	-2.985100	3.609700	-10.773000	25.024494	0.000926	20.755519
1011.285511	-3.006900	3.609900	-10.853000	24.992798	0.000926	20.758791
1012.281986	-2.991900	3.610400	-10.800000	24.977434	0.000926	20.727721
1013.282482	-3.000400	3.609800	-10.829000	24.991825	0.000924	20.749280
1014.287172	-3.003600	3.608300	-10.835000	25.033298	0.000925	20.743967
1015.282287	-2.983200	3.610800	-10.770000	25.050429	0.000925	20.750258
1016.283120	-3.005800	3.609100	-10.847000	25.069123	0.000924	20.748635
1017.288300	-3.004900	3.608200	-10.841000	25.100396	0.000924	20.726448
1018.281867	-3.009700	3.607400	-10.855000	25.111161	0.000927	20.772817
1019.284629	-2.982500	3.607800	-10.759000	25.138306	0.000925	20.739849
1020.288314	-2.986000	3.607500	-10.771000	25.166969	0.000924	20.764831
1021.284373	-2.993500	3.606200	-10.794000	25.153593	0.000922	20.758989
1022.284027	-2.986200	3.606400	-10.767000	25.194486	0.000923	20.748359
1023.286958	-2.988700	3.606300	-10.778000	25.195680	0.000921	20.774689
1024.282895	-2.988400	3.605300	-10.774000	25.210838	0.000924	20.759086
1025.285121	-2.992300	3.606500	-10.790000	25.216035	0.000921	20.750079
1026.294513	-2.991700	3.605200	-10.784000	25.214915	0.000921	20.750851
1027.285958	-2.991100	3.605100	-10.781000	25.229677	0.000922	20.749076
1028.284726	-3.024600	3.603800	-10.899000	25.219111	0.000920	20.765970
1029.286556	-3.008400	3.604800	-10.843000	25.228656	0.000922	20.750422
1030.289234	-3.005700	3.603700	-10.830000	25.245309	0.000919	20.756710
1031.284894	-2.999000	3.603900	-10.807000	25.249035	0.000917	20.775624
1032.290793	-2.996400	3.604600	-10.800000	25.243516	0.000919	20.747323
1033.288304	-2.966300	3.603600	-10.688000	25.238840	0.000919	20.777243
1034.285055	-3.007900	3.601800	-10.833000	25.256935	0.000919	20.753684
1035.287813	-3.018800	3.602800	-10.876000	25.250422	0.000917	20.751886
1036.287219	-2.992200	3.603300	-10.781000	25.252284	0.000916	20.776041
1037.284602	-3.001700	3.600800	-10.808000	25.267443	0.000918	20.774666
1038.294147	-3.001800	3.602500	-10.813000	25.283596	0.000915	20.770021
1039.287222	-2.986000	3.602200	-10.754000	25.286230	0.000916	20.764604
1040.290391	-2.997600	3.600700	-10.792000	25.285807	0.000916	20.760386
1041.290035	-3.004000	3.601300	-10.818000	25.249838	0.000914	20.760783
1042.286856	-2.992600	3.601100	-10.777000	25.249015	0.000916	20.781768
1043.288391	-3.003600	3.599000	-10.808000	25.206411	0.000913	20.729036
1044.292506	-3.004300	3.598200	-10.809000	25.204668	0.000913	20.756685
1045.291774	-2.999600	3.599300	-10.795000	25.196537	0.000915	20.775550
1046.298275	-2.971700	3.600800	-10.699000	25.181921	0.000912	20.751392
1047.291404	-2.995900	3.599500	-10.783000	25.185301	0.000912	20.750044
1048.297026	-2.986900	3.600300	-10.752000	25.144307	0.000911	20.780487
1049.292707	-3.005300	3.598200	-10.812000	25.116910	0.000910	20.766734
1050.293669	-2.997100	3.598000	-10.782000	25.114422	0.000911	20.768504
1051.296566	-2.984400	3.598000	-10.737000	25.110517	0.000910	20.766007
1052.292511	-2.999700	3.598000	-10.793000	25.112204	0.000909	20.771493
1053.293723	-3.025800	3.597200	-10.882000	25.147677	0.000908	20.779603
1054.297871	-3.013100	3.595700	-10.833000	25.166693	0.000909	20.759813
1055.291129	-2.993200	3.596800	-10.764000	25.183446	0.000908	20.777580
1056.296217	-2.998100	3.597000	-10.782000	25.176958	0.000908	20.792403
1057.295398	-2.990300	3.596200	-10.751000	25.139665	0.000908	20.786733
1058.294102	-3.023200	3.593900	-10.863000	25.183837	0.000908	20.792197
1059.294967	-3.002900	3.595600	-10.795000	25.202556	0.000906	20.787282
1060.293582	-3.005100	3.595200	-10.803000	25.213666	0.000907	20.777099
1061.291790	-2.995400	3.593700	-10.763000	25.219803	0.000906	20.784209
1062.296924	-3.010700	3.593200	-10.817000	25.246621	0.000904	20.795961
1063.293474	-3.018400	3.592300	-10.842000	25.254153	0.000905	20.792617
1064.291667	-2.977700	3.593800	-10.699000	25.289968	0.000904	20.782583
1065.292898	-2.991500	3.593000	-10.748000	25.277689	0.000905	20.773574
1066.293225	-2.987300	3.592000	-10.729000	25.271572	0.000901	20.780708
1067.298277	-2.968700	3.592900	-10.665000	25.283055	0.000901	20.789866
1068.293546	-3.004200	3.592000	-10.790000	25.291778	0.000902	20.791512
1069.295317	-3.012900	3.590300	-10.816000	25.316810	0.000902	20.808584
1070.294637	-2.993900	3.591800	-10.751000	25.316434	0.000900	20.797301
1071.298736	-3.000000	3.591100	-10.771000	25.329108	0.000902	20.800069
1072.295213	-2.972600	3.590000	-10.670000	25.336589	0.000900	20.797150
1073.294959	-3.003500	3.591500	-10.786000	25.319861	0.000898	20.785095
1074.294604	-2.981000	3.590200	-10.701000	25.274300	0.000896	20.798620
1075.295687	-2.995700	3.589600	-10.751000	25.230455	0.000897	20.783524
1076.296461	-3.011000	3.590200	-10.808000	25.261128	0.000896	20.765955
1077.296565	-3.004400	3.589700	-10.784000	25.252724	0.000896	20.783596
1078.297061	-2.996700	3.589800	-10.756000	25.281334	0.000896	20.790035
1079.299026	-3.007000	3.587600	-10.787000	25.320407	0.000896	20.806981
1080.298201	-3.023800	3.589100	-10.851000	25.329352	0.000893	20.805531
1081.301895	-2.991900	3.587800	-10.734000	25.333256	0.000895	20.790485
1082.302325	-2.986100	3.588800	-10.715000	25.352047	0.000892	20.790385
1083.302648	-2.984700	3.588100	-10.708000	25.365417	0.000892	20.772990
1084.303607	-3.005600	3.587300	-10.781000	25.393377	0.000892	20.790159
1085.304176	-2.996400	3.586800	-10.746000	25.334849	0.000893	20.800618
1086.304523	-2.994000	3.587500	-10.740000	25.347572	0.000893	20.783521
1087.304917	-2.970300	3.589700	-10.661000	25.340290	0.000890	20.801340
1088.305235	-3.023900	3.585600	-10.841000	25.346405	0.000891	20.770969
1089.305411	-2.992100	3.587300	-10.733000	25.376951	0.000889	20.791209
1090.311229	-3.003000	3.585300	-10.766000	25.385873	0.000891	20.789737
1091.303910	-2.979200	3.585800	-10.682000	25.372851	0.000891	20.815542
1092.304982	-3.002500	3.584700	-10.762000	25.392462	0.000889	20.801569
1093.305719	-3.030800	3.583200	-10.859000	25.384061	0.000891	20.808780
1094.305384	-3.022100	3.583500	-10.828000	25.387492	0.000889	20.798476
1095.306536	-3.012400	3.584500	-10.797000	25.387043	0.000887	20.794231
1096.306894	-3.016900	3.584200	-10.813000	25.377030	0.000886	20.787495
1097.306866	-2.984400	3.584600	-10.697000	25.402381	0.000887	20.793036
1098.306811	-2.994400	3.584000	-10.731000	25.400591	0.000885	20.807360
1099.307136	-2.991800	3.582700	-10.719000	25.400615	0.000885	20.802644
1100.307303	-2.982500	3.583400	-10.687000	25.397186	0.000885	20.803942
1101.308163	-3.001400	3.583000	-10.753000	25.380187	0.000884	20.806313
1102.308341	-2.991700	3.582800	-10.716000	25.418883	0.000883	20.800124
1103.311305	-2.994800	3.582100	-10.726000	25.418786	0.000884	20.799079
1104.308187	-2.987200	3.581700	-10.698000	25.412351	0.000881	20.816324
1105.311087	-2.983500	3.582400	-10.686000	25.434843	0.000882	20.820418
1106.310225	-3.010800	3.580100	-10.779000	25.423113	0.000882	20.811958
1107.311042	-2.993800	3.580100	-10.715000	25.421249	0.000879	20.793965
1108.312337	-2.979300	3.580300	-10.665000	25.401194	0.000881	20.823139
1109.313787	-2.987600	3.579200	-10.692000	25.438077	0.000878	20.791897
1110.310163	-3.021800	3.579000	-10.814000	25.418843	0.000879	20.812412
1111.311430	-3.001500	3.578500	-10.740000	25.467879	0.000878	20.806650
1112.312337	-2.984100	3.580600	-10.683000	25.498594	0.000879	20.809520
1113.311682	-2.982200	3.579700	-10.675000	25.490296	0.000878	20.797867
1114.310024	-2.983100	3.578200	-10.673000	25.446435	0.000877	20.802661
1115.311739	-2.990200	3.576700	-10.694000	25.435004	0.000876	20.814415
1116.315217	-2.984100	3.578700	-10.678000	25.406947	0.000875	20.801889
1117.312549	-2.994900	3.575800	-10.707000	25.395965	0.000877	20.815992
1118.312171	-2.973600	3.576500	-10.633000	25.408667	0.000877	20.814996
1119.312006	-2.966100	3.577700	-10.610000	25.384461	0.000877	20.821510
1120.314301	-3.007300	3.576200	-10.754000	25.340720	0.000875	20.821212
1121.313237	-3.013900	3.575100	-10.774000	25.334361	0.000874	20.804396
1122.314515	-3.015400	3.575400	-10.781000	25.334935	0.000874	20.822990
1123.314505	-2.989800	3.575800	-10.690000	25.330314	0.000872	20.806970
1124.315255	-3.015500	3.573400	-10.775000	25.294053	0.000873	20.799012
1125.317117	-2.997700	3.575700	-10.717000	25.306136	0.000872	20.837221
1126.314422	-3.004200	3.574400	-10.738000	25.314312	0.000873	20.829310
1127.317426	-2.977600	3.574800	-10.642000	25.314018	0.000872	20.812894
1128.318961	-3.007700	3.573600	-10.747000	25.348343	0.000870	20.823176
1129.316250	-2.995400	3.574400	-10.706000	25.390296	0.000871	20.817886
1130.316322	-3.010600	3.572800	-10.755000	25.402752	0.000871	20.803366
1131.314725	-3.003000	3.571800	-10.725000	25.425842	0.000870	20.817069
1132.317349	-2.976700	3.572200	-10.632000	25.458994	0.000871	20.814798
1133.316088	-2.986500	3.573100	-10.670000	25.467718	0.000869	20.819765
1134.318945	-3.003800	3.572100	-10.729000	25.470475	0.000868	20.824904
1135.321510	-3.005700	3.570300	-10.730000	25.460314	0.000869	20.814227
1136.321435	-2.987500	3.572100	-10.671000	25.428577	0.000869	20.816496
1137.316391	-3.000600	3.571600	-10.715000	25.402932	0.000869	20.818246
1138.317001	-2.991700	3.570900	-10.682000	25.363612	0.000865	20.799628
1139.320157	-3.012500	3.570700	-10.755000	25.347109	0.000867	20.835213
1140.321198	-3.000600	3.571200	-10.714000	25.344204	0.000864	20.819021
1141.323475	-3.003700	3.570000	-10.723000	25.373062	0.000866	20.836616
1142.319894	-2.999500	3.570300	-10.708000	25.401966	0.000864	20.839086
1143.319542	-2.980700	3.569000	-10.637000	25.392546	0.000865	20.824412
1144.320887	-3.013300	3.568000	-10.750000	25.367368	0.000863	20.833744
1145.321880	-3.005400	3.568300	-10.722000	25.349701	0.000861	20.816479
1146.321885	-3.005700	3.567400	-10.722000	25.314555	0.000862	20.825286
1147.324253	-2.990500	3.568900	-10.671000	25.362898	0.000861	20.818350
1148.322656	-3.008700	3.566400	-10.729000	25.368565	0.000861	20.841109
1149.323592	-3.004400	3.567200	-10.716000	25.423069	0.000859	20.819500
1150.327021	-3.009600	3.566600	-10.732000	25.457612	0.000862	20.842807
1151.323634	-2.997300	3.566600	-10.689000	25.480504	0.000859	20.811268
1152.323235	-3.007800	3.565200	-10.722000	25.521783	0.000858	20.823797
1153.324495	-2.981700	3.567700	-10.637000	25.512040	0.000859	20.827290
1154.326302	-3.005700	3.565700	-10.716000	25.492734	0.000857	20.817859
1155.326762	-3.014000	3.564800	-10.743000	25.469798	0.000857	20.828966
1156.324441	-3.005400	3.563800	-10.710000	25.497134	0.000856	20.838873
1157.324986	-3.004800	3.564300	-10.708000	25.488737	0.000855	20.845613
1158.324706	-2.968700	3.565800	-10.584000	25.510456	0.000855	20.838026
1159.327023	-3.014800	3.564100	-10.744000	25.517093	0.000855	20.842795
1160.325038	-2.988600	3.564800	-10.651000	25.590472	0.000853	20.835408
1161.325173	-3.006500	3.563600	-10.712000	25.565576	0.000857	20.836957
1162.324995	-3.009600	3.563400	-10.723000	25.560036	0.000854	20.844670
1163.324816	-3.000600	3.562100	-10.688000	25.560385	0.000853	20.828425
1164.324677	-3.001300	3.563700	-10.695000	25.573459	0.000852	20.835391
1165.325603	-2.991900	3.561400	-10.655000	25.588592	0.000852	20.820243
1166.328306	-3.015100	3.562500	-10.740000	25.571449	0.000852	20.835743
1167.328878	-2.995700	3.561400	-10.668000	25.605714	0.000852	20.835542
1168.327703	-2.992900	3.560100	-10.654000	25.570780	0.000852	20.830803
1169.326552	-2.991800	3.561300	-10.654000	25.622290	0.000849	20.833698
1170.325666	-3.001700	3.559200	-10.683000	25.603781	0.000851	20.840713
1171.327921	-2.978300	3.560200	-10.602000	25.597817	0.000850	20.842783
1172.326963	-2.993200	3.560300	-10.656000	25.620805	0.000849	20.839318
1173.325578	-2.991500	3.560900	-10.651000	25.612606	0.000849	20.843886
1174.329600	-3.007700	3.559300	-10.704000	25.594786	0.000847	20.856809
1175.324546	-2.990200	3.558600	-10.640000	25.601799	0.000848	20.853421
1176.327659	-3.009800	3.559300	-10.711000	25.588330	0.000846	20.833730
1177.327382	-3.008500	3.558000	-10.703000	25.605999	0.000845	20.837725
1178.328584	-3.018500	3.558200	-10.739000	25.580057	0.000846	20.848655
1179.331459	-3.015200	3.557900	-10.727000	25.572582	0.000846	20.842570
1180.328823	-3.009600	3.557400	-10.705000	25.567090	0.000843	20.838477
1181.327404	-2.993900	3.557600	-10.649000	25.563711	0.000842	20.869221
1182.329279	-3.022700	3.556000	-10.748000	25.590899	0.000846	20.863810
1183.328029	-3.009400	3.557200	-10.704000	25.580337	0.000844	20.838030
1184.334334	-3.002000	3.555600	-10.673000	25.553356	0.000843	20.842702
1185.329173	-2.991300	3.555700	-10.635000	25.515184	0.000842	20.831869
1186.328318	-2.996300	3.554500	-10.649000	25.524256	0.000843	20.839557
1187.330665	-2.992500	3.554200	-10.636000	25.515214	0.000843	20.858925
1188.330770	-3.006700	3.554200	-10.685000	25.496679	0.000842	20.846002
1189.329860	-3.003800	3.554400	-10.675000	25.500009	0.000843	20.846501
1190.330528	-3.009200	3.554200	-10.694000	25.497796	0.000840	20.829107
1191.331082	-3.002100	3.552100	-10.663000	25.522129	0.000841	20.860653
1192.330280	-2.985800	3.554000	-10.610000	25.558558	0.000841	20.828960
1193.329312	-3.000700	3.553700	-10.662000	25.576499	0.000842	20.850771
1194.337061	-3.005100	3.554500	-10.681000	25.612009	0.000838	20.846131
1195.329286	-2.989600	3.553000	-10.620000	25.611188	0.000839	20.858583
1196.332356	-2.993500	3.552500	-10.633000	25.631939	0.000838	20.847656
1197.331156	-2.969700	3.553100	-10.551000	25.625901	0.000837	20.855341
1198.329257	-3.017800	3.550100	-10.712000	25.600135	0.000838	20.843689
1199.331489	-3.018400	3.550600	-10.714000	25.583611	0.000837	20.853171
1200.330471	-3.000100	3.551500	-10.653000	25.593349	0.000836	20.856788
1201.331799	-2.997100	3.550300	-10.639000	25.560106	0.000836	20.854222
1202.332677	-3.007200	3.550500	-10.676000	25.602473	0.000837	20.857416
1203.332839	-2.974400	3.551800	-10.564000	25.617831	0.000836	20.860038
1204.333025	-2.997100	3.551200	-10.641000	25.602051	0.000834	20.867897
1205.332947	-2.977100	3.550900	-10.569000	25.613134	0.000836	20.844891
1206.333025	-3.003900	3.549100	-10.660000	25.580064	0.000833	20.842972
1207.332077	-2.995600	3.548600	-10.628000	25.552829	0.000834	20.876784
1208.333752	-2.986900	3.548900	-10.600000	25.551486	0.000834	20.876384
1209.332649	-2.981900	3.550300	-10.586000	25.523803	0.000832	20.881299
1210.333635	-2.994400	3.549600	-10.627000	25.535134	0.000831	20.869920
1211.337951	-3.008400	3.546100	-10.666000	25.520325	0.000834	20.875436
1212.336762	-3.003300	3.547500	-10.653000	25.501639	0.000830	20.879430
1213.336759	-3.030100	3.546000	-10.743000	25.523679	0.000832	20.876908
1214.339694	-2.964100	3.546900	-10.512000	25.540701	0.000829	20.872192
1215.335755	-3.002300	3.546800	-10.648000	25.525691	0.000831	20.881773
1216.336905	-2.988200	3.546300	-10.596000	25.535035	0.000828	20.849908
1217.342256	-2.990400	3.545600	-10.602000	25.576932	0.000829	20.883920
1218.340882	-3.007500	3.546100	-10.664000	25.582175	0.000829	20.885392
1219.339966	-2.999500	3.544300	-10.630000	25.598526	0.000826	20.889486
1220.342124	-2.982000	3.544000	-10.567000	25.582076	0.000826	20.872966
1221.342073	-3.003800	3.544900	-10.647000	25.577577	0.000827	20.871767
1222.341224	-2.971300	3.544100	-10.529000	25.603146	0.000826	20.864730
1223.342518	-3.012500	3.542300	-10.669000	25.624789	0.000826	20.883620
1224.341011	-3.004300	3.542400	-10.641000	25.640368	0.000827	20.875086
1225.342206	-2.975900	3.545000	-10.548000	25.648418	0.000826	20.884593
1226.341239	-3.019500	3.542200	-10.693000	25.655352	0.000826	20.876858
1227.342928	-3.027200	3.541600	-10.720000	25.694287	0.000823	20.885618
1228.345730	-2.970800	3.542000	-10.521000	25.688052	0.000824	20.893579
1229.343528	-3.015100	3.540400	-10.674000	25.681292	0.000823	20.864506
1230.345541	-3.021500	3.541500	-10.699000	25.702906	0.000822	20.891903
1231.344652	-3.004000	3.540300	-10.634000	25.709446	0.000823	20.895627
1232.343133	-3.008900	3.540700	-10.652000	25.684547	0.000820	20.878680
1233.341563	-2.998800	3.541100	-10.617000	25.688277	0.000822	20.893331
1234.343967	-3.003200	3.539700	-10.629000	25.671084	0.000820	20.883650
1235.343157	-2.990000	3.539900	-10.584000	25.648325	0.000821	20.885447
1236.340738	-2.993400	3.538900	-10.593000	25.634335	0.000819	20.908379
1237.344529	-2.995400	3.539800	-10.602000	25.609387	0.000820	20.883325
1238.344171	-2.981800	3.539900	-10.554000	25.609986	0.000819	20.907631
1239.347711	-2.967900	3.539400	-10.503000	25.620721	0.000819	20.876216
1240.344450	-2.971100	3.537800	-10.510000	25.627080	0.000818	20.892085
1241.348997	-3.002900	3.539900	-10.629000	25.625444	0.000815	20.885701
1242.343289	-2.996200	3.538000	-10.599000	25.626540	0.000816	20.901972
1243.342766	-2.972100	3.538500	-10.515000	25.644131	0.000816	20.906838
1244.345317	-2.995900	3.537200	-10.596000	25.681228	0.000815	20.909958
1245.345519	-2.989900	3.538200	-10.578000	25.693826	0.000815	20.910757
1246.345026	-2.988500	3.534500	-10.561000	25.654023	0.000816	20.886903
1247.344788	-2.976300	3.538000	-10.530000	25.650597	0.000813	20.891522
1248.343659	-2.995300	3.536100	-10.590000	25.641402	0.000813	20.918321
1249.344387	-2.975000	3.535600	-10.517000	25.602841	0.000813	20.899508
1250.350668	-3.006200	3.534400	-10.625000	25.581444	0.000811	20.895563
1251.344602	-2.998200	3.536000	-10.601000	25.566734	0.000810	20.885533
1252.343778	-3.004500	3.535100	-10.619000	25.565274	0.000809	20.894971
1253.346652	-3.001900	3.534000	-10.608000	25.526929	0.000809	20.904825
1254.346549	-2.987200	3.535600	-10.560000	25.500066	0.000810	20.889703
1255.347674	-3.019200	3.533000	-10.666000	25.491545	0.000811	20.914335
1256.348969	-3.012800	3.531100	-10.638000	25.492912	0.000809	20.912863
1257.350110	-2.979000	3.532800	-10.523000	25.509585	0.000809	20.897366
1258.346301	-2.994000	3.535600	-10.584000	25.544555	0.000809	20.893603
1259.348626	-2.996200	3.530900	-10.578000	25.565150	0.000809	20.887735
1260.347024	-3.042400	3.529300	-10.736000	25.599267	0.000808	20.911090
1261.349837	-2.991400	3.532100	-10.565000	25.644567	0.000807	20.894000
1262.351540	-2.990000	3.532800	-10.562000	25.651078	0.000806	20.897694
1263.349694	-3.002900	3.531000	-10.603000	25.657239	0.000807	20.892504
1264.346864	-3.010300	3.530400	-10.626000	25.676447	0.000806	20.889036
1265.348259	-3.016900	3.529600	-10.648000	25.671254	0.000807	20.897570
1266.350373	-2.996500	3.529400	-10.574000	25.671180	0.000806	20.898918
1267.348445	-2.986400	3.530200	-10.542000	25.725789	0.000803	20.904930
1268.349161	-2.996400	3.528400	-10.571000	25.711553	0.000803	20.906752
1269.348995	-2.979800	3.529900	-10.517000	25.728350	0.000803	20.895175
1270.350742	-3.013600	3.527400	-10.629000	25.755208	0.000803	20.886591
1271.349787	-3.009800	3.527800	-10.617000	25.773368	0.000803	20.888711
1272.352147	-3.001700	3.526800	-10.586000	25.785863	0.000801	20.896994
1273.350886	-2.976100	3.528000	-10.498000	25.798558	0.000803	20.888884
1274.354305	-3.004300	3.528300	-10.599000	25.785663	0.000798	20.882095
1275.354098	-2.973200	3.527900	-10.489000	25.765565	0.000797	20.898416
1276.351300	-2.992700	3.527500	-10.555000	25.768299	0.000798	20.888361
1277.352106	-3.002900	3.525200	-10.585000	25.767154	0.000801	20.893849
1278.352631	-3.010100	3.525900	-10.612000	25.806805	0.000798	20.889582
1279.353996	-2.974000	3.524800	-10.481000	25.764643	0.000797	20.906498
1280.355454	-2.996300	3.525700	-10.563000	25.734608	0.000795	20.900985
1281.353122	-3.012400	3.523400	-10.613000	25.690458	0.000796	20.898367
1282.353321	-2.966700	3.525100	-10.456000	25.671548	0.000795	20.893124
1283.355624	-3.014800	3.523400	-10.621000	25.688070	0.000793	20.907347
1284.358011	-3.016500	3.522500	-10.623000	25.716395	0.000795	20.885064
1285.354527	-3.008800	3.524000	-10.601000	25.704168	0.000794	20.877525
1286.355165	-3.010700	3.521500	-10.601000	25.732966	0.000793	20.902182
1287.355422	-2.979300	3.523200	-10.496000	25.717438	0.000792	20.891801
1288.354701	-2.972700	3.522600	-10.469000	25.714904	0.000793	20.865076
1289.355006	-2.969000	3.523000	-10.458000	25.704373	0.000792	20.882947
1290.355014	-3.010200	3.521800	-10.600000	25.681439	0.000792	20.881249
1291.358159	-3.010900	3.520400	-10.599000	25.665984	0.000790	20.872839
1292.356452	-3.001300	3.520200	-10.565000	25.705238	0.000792	20.888082
1293.357677	-2.983200	3.520800	-10.502000	25.716993	0.000788	20.868122
1294.357141	-2.992600	3.519900	-10.533000	25.705117	0.000786	20.873737
1295.356417	-3.011700	3.520000	-10.601000	25.736523	0.000788	20.873514
1296.358078	-2.991600	3.520000	-10.530000	25.736205	0.000786	20.884099
1297.356645	-2.991600	3.520400	-10.531000	25.721791	0.000788	20.857769
1298.358680	-3.018100	3.517100	-10.613000	25.727134	0.000788	20.879730
1299.359363	-2.993500	3.519400	-10.534000	25.720824	0.000788	20.881927
1300.359652	-2.996400	3.517200	-10.537000	25.759110	0.000786	20.870598
1301.358700	-3.011600	3.517300	-10.592000	25.755781	0.000784	20.856349
1302.357778	-2.992200	3.517500	-10.523000	25.747808	0.000784	20.854979
1303.358285	-2.980700	3.517500	-10.484000	25.750416	0.000783	20.835788
1304.358585	-3.003200	3.515600	-10.556000	25.731437	0.000782	20.875044
1305.358873	-2.994800	3.516600	-10.530000	25.727535	0.000782	20.866857
1306.358916	-2.993500	3.516800	-10.526000	25.692256	0.000781	20.847070
1307.360256	-2.996100	3.516600	-10.535000	25.686193	0.000780	20.866110
1308.360631	-2.986700	3.516300	-10.501000	25.668707	0.000779	20.855186
1309.359134	-2.980800	3.516500	-10.481000	25.636503	0.000780	20.855558
1310.359480	-3.011400	3.515000	-10.584000	25.622889	0.000781	20.871281
1311.362127	-3.013300	3.515600	-10.593000	25.622370	0.000779	20.843735
1312.359556	-3.005800	3.512500	-10.556000	25.604951	0.000780	20.867491
1313.359663	-3.000400	3.514200	-10.543000	25.626869	0.000778	20.857261
1314.358783	-3.007900	3.512100	-10.563000	25.638251	0.000777	20.852572
1315.359992	-3.000600	3.512300	-10.537000	25.656515	0.000777	20.858113
1316.360767	-3.020700	3.512700	-10.608000	25.662778	0.000777	20.864404
1317.360889	-2.988300	3.514200	-10.499000	25.677959	0.000777	20.835556
1318.361107	-2.999700	3.513100	-10.537000	25.704124	0.000777	20.858516
1319.362986	-2.995200	3.512000	-10.518000	25.680048	0.000776	20.861360
1320.362550	-2.994400	3.510800	-10.512000	25.651053	0.000776	20.837455
1321.364350	-2.979300	3.511300	-10.459000	25.634927	0.000775	20.845915
1322.364421	-2.966100	3.511900	-10.416000	25.632095	0.000774	20.859665
1323.363792	-2.987700	3.509800	-10.485000	25.624269	0.000775	20.862711
1324.363654	-2.995000	3.509900	-10.511000	25.645215	0.000775	20.846764
1325.365566	-3.011700	3.509200	-10.568000	25.642206	0.000776	20.840898
1326.366385	-3.013400	3.509800	-10.574000	25.667850	0.000771	20.835834
1327.365118	-3.006400	3.509000	-10.549000	25.701146	0.000770	20.832766
1328.366068	-3.009100	3.509200	-10.558000	25.709294	0.000772	20.829097
1329.365343	-2.993000	3.509400	-10.502000	25.687678	0.000771	20.827774
1330.367204	-2.992600	3.507700	-10.496000	25.662084	0.000770	20.847586
1331.364614	-3.009100	3.506400	-10.550000	25.633585	0.000771	20.836981
1332.366874	-3.007000	3.506700	-10.544000	25.624368	0.000769	20.845742
1333.374183	-2.999400	3.508200	-10.521000	25.649288	0.000769	20.852277
1334.370531	-2.981300	3.507000	-10.454000	25.620915	0.000771	20.853653
1335.368986	-3.015300	3.506900	-10.573000	25.655054	0.000769	20.838155
1336.371264	-2.995200	3.506400	-10.502000	25.683500	0.000769	20.828794
1337.371429	-3.007800	3.504300	-10.540000	25.707477	0.000768	20.815419
1338.372357	-2.976800	3.506300	-10.435000	25.731278	0.000769	20.816091
1339.371905	-2.995800	3.505500	-10.500000	25.725092	0.000766	20.824576
1340.373991	-3.004600	3.504500	-10.528000	25.743823	0.000766	20.836278
1341.374735	-3.013500	3.503400	-10.557000	25.730729	0.000766	20.836876
1342.375919	-3.000700	3.503000	-10.510000	25.746878	0.000766	20.824174
1343.371990	-3.022800	3.501800	-10.584000	25.769138	0.000764	20.842266
1344.373847	-3.002000	3.504600	-10.520000	25.751497	0.000766	20.826443
1345.375510	-2.980100	3.502500	-10.437000	25.714751	0.000764	20.826991
1346.373729	-2.985600	3.503200	-10.458000	25.658373	0.000764	20.827264
1347.374429	-2.977500	3.502600	-10.429000	25.625724	0.000763	20.824819
1348.375845	-2.990800	3.501100	-10.469000	25.564272	0.000763	20.820000
1349.374103	-2.995500	3.501600	-10.488000	25.555872	0.000761	20.836694
1350.376132	-2.993600	3.501400	-10.481000	25.550283	0.000762	20.822547
1351.377021	-3.004200	3.499300	-10.512000	25.576146	0.000760	20.822917
1352.377219	-3.021800	3.498800	-10.571000	25.578781	0.000759	20.834572
1353.374352	-3.006800	3.498300	-10.518000	25.566951	0.000762	20.820794
1354.376726	-3.010700	3.498700	-10.533000	25.586382	0.000762	20.836989
1355.373350	-3.001200	3.498300	-10.498000	25.558579	0.000757	20.846525
1356.376288	-2.990000	3.498900	-10.460000	25.594856	0.000759	20.812783
1357.375880	-2.993500	3.498800	-10.473000	25.598907	0.000758	20.837714
1358.372067	-3.013400	3.498100	-10.540000	25.658417	0.000758	20.842955
1359.377051	-3.012800	3.497100	-10.536000	25.678469	0.000756	20.819000
1360.374007	-2.987100	3.497200	-10.445000	25.706349	0.000756	20.844631
1361.379629	-3.008000	3.494700	-10.510000	25.715267	0.000756	20.824190
1362.376697	-3.030100	3.494200	-10.585000	25.760211	0.000756	20.823341
1363.376563	-2.977700	3.496900	-10.410000	25.765705	0.000756	20.820800
1364.374622	-2.994500	3.496200	-10.468000	25.758896	0.000755	20.812538
1365.377623	-2.982900	3.495800	-10.427000	25.765705	0.000753	20.813688
1366.376705	-2.992200	3.494900	-10.456000	25.753533	0.000755	20.813790
1367.374417	-3.002700	3.494900	-10.493000	25.781110	0.000756	20.834376
1368.378418	-3.001000	3.494400	-10.485000	25.786854	0.000752	20.826870
1369.377588	-2.998000	3.493800	-10.473000	25.801709	0.000751	20.808601
1370.377309	-2.996600	3.494800	-10.472000	25.843145	0.000752	20.819879
1371.376762	-2.994400	3.495100	-10.464000	25.802356	0.000751	20.804511
1372.377449	-3.008200	3.493600	-10.508000	25.771477	0.000749	20.797200
1373.379258	-2.999800	3.492900	-10.476000	25.802307	0.000750	20.798771
1374.382138	-3.006400	3.492100	-10.497000	25.803377	0.000751	20.822605
1375.383168	-3.003600	3.492300	-10.489000	25.795630	0.000748	20.804392
1376.381301	-2.999400	3.491400	-10.471000	25.822138	0.000749	20.812053
1377.383016	-3.008000	3.490000	-10.497000	25.802861	0.000746	20.810233
1378.383468	-3.007700	3.489000	-10.493000	25.805345	0.000749	20.816996
1379.382036	-3.009100	3.490000	-10.500000	25.761745	0.000746	20.796433
1380.383188	-3.006800	3.489100	-10.489000	25.752850	0.000747	20.807888
1381.388484	-2.994100	3.489000	-10.445000	25.736852	0.000746	20.828802
1382.383041	-2.967800	3.490500	-10.357000	25.761899	0.000746	20.787579
1383.390476	-2.990300	3.489200	-10.433000	25.793500	0.000746	20.797037
1384.388164	-2.985800	3.487200	-10.411000	25.794991	0.000745	20.814181
1385.385390	-3.000700	3.487800	-10.464000	25.810790	0.000745	20.821042
1386.387729	-3.000200	3.488900	-10.466000	25.814964	0.000745	20.802950
1387.389041	-2.998300	3.485700	-10.450000	25.830466	0.000744	20.813781
1388.384089	-2.980800	3.488700	-10.396000	25.854786	0.000745	20.796960
1389.387384	-2.981700	3.488400	-10.399000	25.838340	0.000742	20.799405
1390.388763	-3.018400	3.484600	-10.518000	25.809028	0.000744	20.805522
1391.381912	-3.017300	3.485100	-10.514000	25.773647	0.000744	20.798906
1392.388098	-3.000700	3.486100	-10.459000	25.759906	0.000744	20.804544
1393.387539	-3.014700	3.486100	-10.508000	25.724033	0.000741	20.791270
1394.386575	-2.998600	3.485300	-10.449000	25.710689	0.000742	20.802523
1395.388773	-3.005400	3.484800	-10.472000	25.687977	0.000741	20.808635
1396.386460	-3.006600	3.484200	-10.474000	25.687258	0.000739	20.809335
1397.385258	-3.010100	3.484100	-10.485000	25.727705	0.000739	20.792114
1398.386291	-3.009600	3.483600	-10.482000	25.749071	0.000740	20.796979
1399.386560	-2.999900	3.481600	-10.443000	25.714882	0.000737	20.782553
1400.382566	-3.018200	3.481800	-10.508000	25.731481	0.000739	20.794484
1401.390118	-3.004800	3.481500	-10.460000	25.731701	0.000739	20.810352
1402.385971	-3.001500	3.481400	-10.448000	25.710033	0.000737	20.797123
1403.386309	-2.994300	3.480700	-10.422000	25.697786	0.000737	20.813271
1404.386625	-3.006000	3.481900	-10.465000	25.669659	0.000737	20.799719
1405.385881	-3.001100	3.478400	-10.437000	25.700116	0.000736	20.792852
1406.386444	-3.000800	3.480500	-10.443000	25.736416	0.000736	20.811769
1407.390905	-2.984400	3.481500	-10.389000	25.755150	0.000734	20.795973
1408.388272	-2.994900	3.478100	-10.416000	25.775146	0.000734	20.770539
1409.388465	-2.974100	3.480100	-10.349000	25.798874	0.000733	20.801486
1410.398656	-2.984100	3.480600	-10.385000	25.784139	0.000733	20.810867
1411.389133	-2.994600	3.478400	-10.414000	25.759769	0.000733	20.811992
1412.394616	-3.004600	3.477200	-10.447000	25.698052	0.000734	20.780348
1413.391256	-3.008000	3.476500	-10.456000	25.685057	0.000732	20.793374
1414.387741	-3.006300	3.476900	-10.451000	25.686627	0.000732	20.806330
1415.387713	-3.015300	3.476600	-10.482000	25.688509	0.000730	20.794945
1416.389799	-3.011000	3.476800	-10.468000	25.689552	0.000729	20.791725
1417.388956	-2.997500	3.475000	-10.416000	25.675118	0.000730	20.788133
1418.394917	-2.990000	3.476100	-10.393000	25.639412	0.000730	20.795893
1419.391557	-3.009500	3.474900	-10.457000	25.654294	0.000730	20.792822
1420.390608	-3.007900	3.475200	-10.452000	25.641498	0.000729	20.778548
1421.391570	-3.020600	3.472900	-10.489000	25.668010	0.000728	20.784312
1422.392496	-2.991400	3.475300	-10.395000	25.696109	0.000728	20.784086
1423.390589	-3.023700	3.472800	-10.499000	25.713129	0.000726	20.799284
1424.390856	-3.028700	3.472800	-10.517000	25.696856	0.000727	20.788155
1425.391811	-2.987200	3.473500	-10.374000	25.727389	0.000725	20.794167
1426.392581	-3.009300	3.472300	-10.448000	25.721650	0.000724	20.789826
1427.391989	-2.996000	3.473400	-10.404000	25.735612	0.000725	20.792944
1428.391422	-2.992700	3.470900	-10.386000	25.768880	0.000725	20.791273
1429.397391	-2.986500	3.470700	-10.365000	25.797625	0.000723	20.763722
1430.392628	-2.984100	3.471700	-10.358000	25.812431	0.000725	20.793294
1431.391730	-3.003000	3.471200	-10.423000	25.847261	0.000725	20.778495
1432.400841	-3.020200	3.469400	-10.477000	25.832231	0.000724	20.757707
1433.393262	-3.006200	3.469400	-10.429000	25.832280	0.000724	20.771981
1434.393423	-3.010500	3.471200	-10.449000	25.830642	0.000722	20.773180
1435.401692	-3.010100	3.468800	-10.441000	25.841474	0.000723	20.765569
1436.398372	-2.996600	3.468600	-10.392000	25.840604	0.000720	20.787455
1437.400707	-3.017700	3.468500	-10.464000	25.798868	0.000720	20.758807
1438.401633	-2.977700	3.468500	-10.326000	25.846144	0.000722	20.769313
1439.400371	-2.993800	3.466900	-10.378000	25.829105	0.000720	20.759782
1440.404304	-2.996400	3.466400	-10.386000	25.783242	0.000721	20.788629
1441.405172	-2.994900	3.467800	-10.385000	25.823787	0.000719	20.771510
1442.399207	-3.007800	3.465100	-10.421000	25.840233	0.000722	20.770013
1443.399595	-2.988800	3.468500	-10.364000	25.844778	0.000719	20.758456
1444.400257	-3.003400	3.464700	-10.405000	25.843266	0.000718	20.775430
1445.399055	-3.008300	3.466200	-10.427000	25.843389	0.000717	20.768442
1446.397393	-3.018800	3.463300	-10.454000	25.859166	0.000717	20.778600
1447.402498	-2.999800	3.464300	-10.391000	25.867486	0.000717	20.777950
1448.401985	-2.996500	3.463700	-10.376000	25.848631	0.000716	20.763275
1449.402728	-2.984700	3.464900	-10.340000	25.849772	0.000716	20.789079
1450.401971	-2.989200	3.462300	-10.348000	25.826943	0.000715	20.770413
1451.404756	-2.992800	3.463600	-10.365000	25.831089	0.000715	20.756560
1452.410870	-3.020400	3.460500	-10.451000	25.848233	0.000715	20.769040
1453.402737	-2.980100	3.463000	-10.318000	25.835612	0.000715	20.777699
1454.400471	-3.010100	3.461300	-10.418000	25.793031	0.000714	20.754840
1455.405921	-2.996000	3.462500	-10.373000	25.784013	0.000714	20.762377
1456.405398	-3.007600	3.460500	-10.407000	25.785204	0.000714	20.769263
1457.404720	-2.978500	3.462500	-10.312000	25.761676	0.000712	20.765070
1458.406903	-3.000000	3.460000	-10.379000	25.748434	0.000712	20.765519
1459.405120	-2.968700	3.462000	-10.276000	25.729179	0.000712	20.768938
1460.406827	-2.965700	3.461200	-10.263000	25.691043	0.000713	20.771411
1461.402753	-3.000500	3.459400	-10.379000	25.721154	0.000711	20.750919
1462.407351	-3.005200	3.459500	-10.395000	25.718297	0.000712	20.766068
1463.404099	-2.999500	3.459000	-10.374000	25.686467	0.000710	20.750219
1464.403650	-3.007300	3.458300	-10.398000	25.697896	0.000710	20.768337
1465.406659	-3.012500	3.457100	-10.412000	25.670941	0.000708	20.762126
1466.409094	-2.970100	3.457700	-10.268000	25.638040	0.000708	20.765591
1467.406649	-2.989600	3.458300	-10.338000	25.649447	0.000709	20.764246
1468.408913	-2.980900	3.456400	-10.302000	25.676727	0.000708	20.779317
1469.410179	-2.998800	3.456600	-10.364000	25.712407	0.000709	20.763471
1470.408545	-2.987700	3.454800	-10.320000	25.739515	0.000707	20.769362
1471.409319	-2.993200	3.456000	-10.344000	25.769402	0.000706	20.764770
1472.405581	-2.987300	3.455200	-10.321000	25.772160	0.000706	20.768488
1473.405939	-2.997900	3.455000	-10.357000	25.784060	0.000705	20.736818
1474.407705	-3.030000	3.453300	-10.463000	25.793945	0.000706	20.754335
1475.411379	-2.987300	3.454300	-10.317000	25.772780	0.000705	20.765318
1476.405834	-3.004800	3.454500	-10.378000	25.757002	0.000703	20.750892
1477.409210	-2.992600	3.454100	-10.336000	25.761149	0.000701	20.754583
1478.411043	-3.012600	3.452600	-10.400000	25.744079	0.000704	20.754032
1479.408045	-3.006800	3.451700	-10.376000	25.747111	0.000701	20.753759
1480.409662	-3.006400	3.451400	-10.375000	25.762291	0.000702	20.761894
1481.407913	-2.998100	3.452000	-10.348000	25.760079	0.000700	20.763466
1482.409019	-2.998800	3.452300	-10.351000	25.787186	0.000700	20.763667
1483.411028	-2.997600	3.451800	-10.347000	25.786834	0.000702	20.750986
1484.411264	-2.988500	3.451000	-10.312000	25.806487	0.000700	20.762192
1485.409769	-2.983900	3.451300	-10.298000	25.783728	0.000700	20.753555
1486.411188	-3.015500	3.449100	-10.399000	25.769792	0.000698	20.758523
1487.411335	-2.990400	3.449300	-10.314000	25.774336	0.000698	20.773520
1488.410749	-3.013800	3.447500	-10.388000	25.787057	0.000697	20.740303
1489.411891	-2.996800	3.448900	-10.335000	25.780124	0.000699	20.752780
1490.413431	-3.012100	3.449200	-10.389000	25.801242	0.000698	20.761191
1491.413372	-3.012500	3.447700	-10.385000	25.818979	0.000698	20.750084
1492.414797	-2.994400	3.447600	-10.322000	25.796668	0.000697	20.751854
1493.415915	-2.996900	3.448100	-10.332000	25.830480	0.000697	20.766854
1494.415620	-2.972700	3.447400	-10.246000	25.825758	0.000697	20.783447
1495.418990	-3.018900	3.446200	-10.402000	25.784916	0.000694	20.750481
1496.418261	-3.000200	3.446400	-10.338000	25.785311	0.000696	20.752301
1497.417653	-3.011700	3.445700	-10.376000	25.734531	0.000696	20.762934
1498.416578	-3.013500	3.443900	-10.376000	25.734177	0.000696	20.762578
1499.417581	-3.013400	3.443600	-10.376000	25.749409	0.000695	20.773137
1500.419384	-2.991500	3.444600	-10.303000	25.759272	0.000694	20.754594
1501.417600	-2.989900	3.444400	-10.297000	25.785602	0.000691	20.755912
1502.420318	-3.003200	3.444700	-10.343000	25.801948	0.000690	20.768064
1503.419759	-3.018300	3.442100	-10.388000	25.812555	0.000693	20.753588
1504.418991	-2.981800	3.443200	-10.266000	25.811213	0.000691	20.756982
1505.421478	-2.998400	3.442100	-10.320000	25.790315	0.000692	20.744524
1506.420870	-2.997300	3.442800	-10.319000	25.799629	0.000692	20.756252
1507.420458	-3.017500	3.441400	-10.383000	25.771829	0.000693	20.784751
1508.423007	-2.993500	3.441900	-10.301000	25.762959	0.000690	20.768729
1509.422387	-3.023400	3.439300	-10.397000	25.801712	0.000688	20.759293
1510.420993	-2.994200	3.441300	-10.304000	25.797560	0.000689	20.765553
1511.427504	-3.023200	3.439500	-10.397000	25.831941	0.000689	20.759786
1512.423802	-3.026800	3.438400	-10.407000	25.845553	0.000688	20.765399
1513.422831	-3.016900	3.438300	-10.371000	25.884976	0.000687	20.780820
1514.424482	-3.013500	3.438800	-10.362000	25.867509	0.000686	20.761851
1515.426157	-2.993900	3.441200	-10.302000	25.856799	0.000685	20.762946
1516.424122	-2.983300	3.439900	-10.261000	25.846986	0.000685	20.781537
1517.425586	-3.002900	3.438300	-10.324000	25.849121	0.000686	20.779889
1518.423663	-2.995600	3.438200	-10.298000	25.843358	0.000684	20.751340
1519.423831	-2.989600	3.438200	-10.278000	25.829244	0.000684	20.755654
1520.428371	-2.990500	3.437900	-10.280000	25.864024	0.000684	20.787274
1521.424905	-2.982200	3.437800	-10.252000	25.862581	0.000682	20.762590
1522.426796	-3.012500	3.435500	-10.349000	25.896364	0.000681	20.758596
1523.425018	-2.986000	3.435300	-10.257000	25.915688	0.000681	20.777061
1524.425977	-3.026100	3.434400	-10.391000	25.937701	0.000681	20.779261
1525.426977	-2.988300	3.436400	-10.268000	25.932509	0.000679	20.776890
1526.429761	-2.986100	3.434600	-10.254000	25.939141	0.000680	20.774070
1527.427886	-3.000400	3.434300	-10.302000	25.946045	0.000677	20.777212
1528.429638	-2.985800	3.434700	-10.253000	25.950145	0.000678	20.769003
1529.434310	-2.991900	3.434800	-10.275000	25.979779	0.000680	20.769852
1530.432346	-2.993500	3.433000	-10.274000	25.995826	0.000679	20.786922
1531.431614	-2.992100	3.433000	-10.271000	25.985070	0.000679	20.770899
1532.436543	-2.995200	3.432300	-10.279000	25.965374	0.000675	20.763440
1533.435071	-2.978200	3.431600	-10.219000	25.980923	0.000677	20.781907
1534.429831	-2.965400	3.432500	-10.177000	25.980923	0.000676	20.761992
1535.435004	-2.998400	3.431000	-10.286000	25.948710	0.000676	20.767561
1536.434221	-2.986800	3.430200	-10.244000	25.944012	0.000676	20.788446
1537.432963	-2.992700	3.431100	-10.267000	25.979411	0.000675	20.774698
1538.437148	-3.017700	3.430100	-10.350000	26.002238	0.000674	20.781984
1539.433852	-3.016300	3.429200	-10.343000	26.011331	0.000673	20.782585
1540.430602	-3.006800	3.429600	-10.311000	25.998714	0.000675	20.775125
1541.433620	-2.988000	3.429500	-10.246000	25.966770	0.000674	20.771955
1542.434446	-2.999600	3.428100	-10.283000	25.939822	0.000675	20.794193
1543.434678	-2.979400	3.428800	-10.215000	25.960862	0.000674	20.796840
1544.438850	-2.999900	3.427100	-10.281000	25.992779	0.000671	20.780542
1545.439638	-2.991000	3.427600	-10.250000	26.002048	0.000671	20.772785
1546.435736	-3.021700	3.426400	-10.351000	26.022865	0.000671	20.778527
1547.437896	-3.000000	3.426400	-10.279000	26.046259	0.000671	20.793970
1548.438251	-3.009800	3.425500	-10.309000	26.042066	0.000668	20.784068
1549.435807	-3.026200	3.425000	-10.364000	26.076568	0.000671	20.767050
1550.437957	-3.001700	3.424200	-10.277000	26.075127	0.000670	20.796897
1551.440712	-2.997100	3.426100	-10.267000	26.041723	0.000670	20.782775
1552.436904	-2.975700	3.425200	-10.191000	26.027143	0.000670	20.789937
1553.440175	-3.014900	3.423800	-10.321000	26.017976	0.000669	20.799693
1554.438397	-3.000400	3.423200	-10.269000	25.996988	0.000669	20.780503
1555.438237	-2.988900	3.425000	-10.235000	25.967681	0.000668	20.779034
1556.441638	-2.994800	3.422800	-10.250000	25.946516	0.000668	20.781953
1557.441059	-3.015100	3.422400	-10.318000	25.971006	0.000667	20.796600
1558.440785	-3.003900	3.421700	-10.276000	25.947263	0.000668	20.777961
1559.437693	-3.012800	3.421400	-10.307000	25.948328	0.000667	20.787092
1560.438374	-2.998600	3.422300	-10.262000	25.939237	0.000667	20.781752
1561.444179	-2.996500	3.420800	-10.249000	25.964873	0.000665	20.801818
1562.439155	-2.993300	3.421600	-10.241000	25.946344	0.000666	20.789366
1563.440027	-2.982900	3.420800	-10.203000	25.926546	0.000664	20.788442
1564.438954	-3.015600	3.419000	-10.308000	25.970809	0.000665	20.774590
1565.441398	-3.007500	3.420100	-10.285000	25.924482	0.000664	20.780680
1566.439003	-2.993500	3.421000	-10.240000	25.884663	0.000663	20.791411
1567.441373	-3.024200	3.417900	-10.335000	25.851496	0.000664	20.796975
1568.438946	-3.006100	3.419700	-10.279000	25.862103	0.000663	20.789137
1569.439142	-3.002900	3.419200	-10.267000	25.844787	0.000661	20.813942
1570.440619	-2.996000	3.417800	-10.239000	25.832366	0.000662	20.795301
1571.440648	-2.971700	3.418700	-10.158000	25.843470	0.000661	20.778006
1572.442748	-3.001700	3.417200	-10.257000	25.865602	0.000661	20.790756
1573.440474	-3.018000	3.415700	-10.307000	25.886246	0.000660	20.801537
1574.440477	-2.972800	3.417100	-10.158000	25.890442	0.000662	20.787734
1575.439880	-2.999600	3.416400	-10.247000	25.911108	0.000657	20.787632
1576.440097	-2.994100	3.417100	-10.230000	25.944816	0.000660	20.804426
1577.441990	-3.001400	3.416900	-10.254000	25.907354	0.000660	20.812785
1578.443685	-3.006300	3.415700	-10.268000	25.860577	0.000657	20.802778
1579.440066	-3.001800	3.415100	-10.251000	25.881442	0.000659	20.810461
1580.439971	-2.999300	3.415900	-10.244000	25.887923	0.000656	20.814127
1581.442148	-2.992600	3.415400	-10.218000	25.906452	0.000657	20.800973
1582.441000	-3.004700	3.413800	-10.256000	25.929828	0.000656	20.809284
1583.440988	-3.014500	3.414500	-10.292000	25.962191	0.000655	20.815718
1584.440138	-3.000300	3.413300	-10.240000	25.978808	0.000655	20.795903
1585.439939	-2.994700	3.414000	-10.223000	26.003945	0.000654	20.804562
1586.439872	-2.969500	3.412900	-10.133000	25.997162	0.000651	20.804860
1587.443499	-2.994600	3.412100	-10.216000	25.972816	0.000652	20.815487
1588.441728	-3.010000	3.410900	-10.267000	25.928599	0.000652	20.807101
1589.442623	-3.008600	3.412700	-10.267000	25.909174	0.000652	20.804656
1590.445395	-2.983000	3.412000	-10.177000	25.919703	0.000651	20.826139
1591.445229	-2.994000	3.411300	-10.212000	25.931651	0.000649	20.813960
1592.444803	-2.989400	3.409500	-10.192000	25.953038	0.000648	20.808419
1593.445376	-2.994900	3.410200	-10.211000	25.986744	0.000650	20.807195
1594.445810	-2.993500	3.408900	-10.203000	26.001673	0.000649	20.805599
1595.444618	-2.992000	3.409100	-10.199000	25.998296	0.000648	20.833025
1596.445608	-3.002600	3.409500	-10.235000	26.028102	0.000647	20.812711
1597.445791	-3.016100	3.407300	-10.276000	26.009647	0.000647	20.806972
1598.444826	-2.989300	3.408900	-10.189000	25.990492	0.000649	20.830401
1599.445847	-3.000200	3.408700	-10.226000	25.947097	0.000645	20.819046
1600.446463	-3.008100	3.407000	-10.247000	25.921734	0.000643	20.827231
1601.445663	-3.000800	3.407500	-10.224000	25.927200	0.000645	20.808541
1602.448754	-2.986300	3.406700	-10.172000	25.917788	0.000643	20.802878
1603.447927	-2.985900	3.406000	-10.169000	25.951098	0.000642	20.814057
1604.446996	-3.001700	3.405000	-10.220000	25.969606	0.000644	20.835021
1605.448730	-3.013400	3.405700	-10.262000	25.995785	0.000644	20.830029
1606.451097	-2.977700	3.407100	-10.144000	25.994668	0.000641	20.841234
1607.448234	-2.983800	3.405100	-10.159000	26.016056	0.000641	20.810567
1608.449721	-2.976200	3.404800	-10.133000	26.003391	0.000641	20.822023
1609.447125	-2.989300	3.405000	-10.178000	25.987515	0.000639	20.821720
1610.446385	-2.995100	3.405600	-10.199000	26.010418	0.000639	20.833350
1611.449696	-2.991900	3.404100	-10.184000	25.973063	0.000640	20.833753
1612.448362	-2.990600	3.403700	-10.178000	25.977631	0.000637	20.807523
1613.464332	-2.988900	3.404500	-10.174000	25.976690	0.000639	20.844509
1614.448460	-3.009400	3.401200	-10.233000	25.971526	0.000638	20.837898
1615.448021	-2.999600	3.403300	-10.208000	25.983424	0.000638	20.830411
1616.449169	-3.017700	3.401100	-10.263000	26.008387	0.000637	20.845060
1617.450316	-3.003100	3.401600	-10.215000	26.038294	0.000638	20.846659
1618.450189	-2.988600	3.401600	-10.165000	26.042445	0.000638	20.841821
1619.449834	-2.992000	3.399700	-10.171000	26.057868	0.000637	20.848307
1620.451221	-2.999100	3.400600	-10.197000	26.074911	0.000638	20.830345
1621.448347	-3.005500	3.399900	-10.218000	26.061149	0.000635	20.836432
1622.448550	-3.012700	3.399100	-10.240000	26.042599	0.000636	20.835811
1623.453594	-2.994600	3.399700	-10.180000	26.037655	0.000636	20.823258
1624.452867	-3.005600	3.398600	-10.213000	26.023623	0.000636	20.828600
1625.451516	-2.996500	3.399100	-10.185000	26.047444	0.000636	20.837360
1626.451829	-3.007600	3.400200	-10.225000	26.048983	0.000634	20.846019
1627.454580	-2.980200	3.398100	-10.126000	26.072332	0.000634	20.842452
1628.452542	-3.011000	3.396300	-10.226000	26.077501	0.000633	20.836266
1629.453126	-2.999500	3.397500	-10.190000	26.076730	0.000631	20.837862
1630.454030	-2.983200	3.398000	-10.135000	26.092303	0.000632	20.836914
1631.451306	-2.994000	3.396700	-10.169000	26.107703	0.000634	20.841481
1632.454294	-3.007200	3.395100	-10.209000	26.100451	0.000633	20.851264
1633.455092	-2.984800	3.395100	-10.133000	26.082890	0.000633	20.826981
1634.452707	-2.995300	3.395200	-10.169000	26.055050	0.000632	20.840260
1635.456026	-3.007600	3.395200	-10.211000	26.026907	0.000631	20.833796
1636.455878	-3.016000	3.395300	-10.239000	25.992209	0.000630	20.825013
1637.453494	-3.018900	3.394300	-10.245000	26.026334	0.000628	20.846496
1638.458293	-2.977600	3.394100	-10.105000	26.062576	0.000631	20.834546
1639.460235	-2.976400	3.395200	-10.105000	26.096180	0.000631	20.850291
1640.455111	-3.004400	3.393200	-10.194000	26.112921	0.000630	20.851465
1641.458003	-2.981600	3.393500	-10.117000	26.090122	0.000629	20.841360
1642.459626	-2.968700	3.393300	-10.073000	26.067393	0.000628	20.851714
1643.455799	-2.981700	3.393600	-10.118000	26.035923	0.000629	20.869879
1644.457319	-2.991000	3.392800	-10.148000	26.031925	0.000628	20.846898
1645.459352	-3.000600	3.392200	-10.178000	26.020476	0.000624	20.845826
1646.455313	-3.017500	3.391600	-10.233000	25.995090	0.000626	20.858252
1647.458700	-3.006500	3.391500	-10.196000	25.961258	0.000624	20.837065
1648.458627	-2.955800	3.392400	-10.026000	26.010886	0.000624	20.844726
1649.455790	-3.010900	3.389600	-10.204000	26.014143	0.000623	20.830929
1650.456779	-3.007600	3.390500	-10.196000	26.039701	0.000623	20.861348
1651.457662	-3.017500	3.388800	-10.224000	26.078102	0.000623	20.842559
1652.460696	-3.006900	3.390200	-10.194000	26.077131	0.000622	20.856755
1653.457626	-3.001400	3.389300	-10.171000	26.099088	0.000621	20.853213
1654.456539	-3.002800	3.388500	-10.174000	26.110762	0.000619	20.841236
1655.455282	-3.010600	3.387300	-10.196000	26.100975	0.000621	20.855584
1656.462640	-3.005100	3.386400	-10.175000	26.048223	0.000621	20.862798
1657.462054	-2.994000	3.388000	-10.143000	26.040025	0.000618	20.865940
1658.459451	-3.004800	3.386800	-10.176000	26.025398	0.000620	20.875425
1659.459686	-3.006400	3.387500	-10.183000	26.063898	0.000620	20.851046
1660.462478	-3.011700	3.386400	-10.198000	26.069563	0.000619	20.850575
1661.462522	-3.005000	3.386600	-10.176000	26.058984	0.000619	20.874083
1662.464386	-2.995100	3.384600	-10.135000	26.049521	0.000618	20.855093
1663.461997	-2.999900	3.384600	-10.151000	26.061244	0.000617	20.871139
1664.459863	-2.991000	3.384600	-10.121000	26.056328	0.000616	20.844389
1665.461628	-2.985900	3.384100	-10.103000	26.075827	0.000617	20.854497
1666.462013	-2.994500	3.384500	-10.134000	26.039366	0.000616	20.865278
1667.461794	-3.006000	3.384100	-10.170000	26.006827	0.000616	20.870044
1668.464089	-2.976900	3.383500	-10.071000	26.045427	0.000616	20.856669
1669.462513	-3.035700	3.382600	-10.268000	26.082436	0.000615	20.866827
1670.461446	-3.011900	3.382100	-10.186000	26.085888	0.000613	20.853226
1671.464067	-2.999000	3.382000	-10.141000	26.090733	0.000615	20.865681
1672.462121	-3.008400	3.381700	-10.173000	26.089913	0.000613	20.866753
1673.460426	-2.991500	3.383100	-10.120000	26.101290	0.000614	20.882925
1674.463029	-2.982200	3.382600	-10.086000	26.080480	0.000614	20.862965
1675.463910	-3.031700	3.381200	-10.249000	26.057601	0.000614	20.880753
1676.466162	-3.023100	3.379400	-10.214000	26.039097	0.000613	20.862637
1677.466627	-2.993000	3.380500	-10.116000	26.043470	0.000612	20.876039
1678.465547	-3.022500	3.378600	-10.209000	26.033113	0.000610	20.880331
1679.468333	-3.015500	3.379300	-10.190000	26.033958	0.000610	20.872172
1680.466544	-3.000200	3.380600	-10.141000	25.990216	0.000611	20.863787
1681.464841	-2.981700	3.380600	-10.079000	25.996650	0.000613	20.876414
1682.467371	-3.011600	3.378100	-10.172000	26.040417	0.000609	20.899522
1683.470126	-2.981400	3.379200	-10.074000	26.042505	0.000611	20.872224
1684.467800	-2.993300	3.378700	-10.113000	26.108174	0.000609	20.884152
1685.468148	-3.016100	3.377600	-10.186000	26.121335	0.000610	20.863238
1686.470037	-3.011000	3.377200	-10.167000	26.130597	0.000608	20.881553
1687.470000	-2.996100	3.377100	-10.116000	26.111527	0.000609	20.883253
1688.474125	-3.002600	3.376200	-10.135000	26.076927	0.000606	20.869352
1689.469735	-3.003300	3.376500	-10.140000	26.062696	0.000605	20.881605
1690.469347	-2.986800	3.376600	-10.084000	25.990938	0.000607	20.878261
1691.468492	-3.018200	3.375200	-10.186000	26.024890	0.000608	20.889613
1692.469997	-3.012300	3.375000	-10.166000	26.067214	0.000606	20.879033
1693.470609	-3.002600	3.374500	-10.131000	26.092099	0.000606	20.888863
1694.470676	-3.012300	3.373500	-10.161000	26.127788	0.000605	20.896746
1695.473680	-3.009900	3.373600	-10.153000	26.132729	0.000602	20.878005
1696.469481	-2.985500	3.375400	-10.076000	26.093065	0.000605	20.889833
1697.470698	-2.971400	3.373400	-10.023000	26.108265	0.000603	20.892303
1698.469541	-2.989700	3.373600	-10.085000	26.153116	0.000602	20.888058
1699.471603	-2.977000	3.373900	-10.044000	26.157412	0.000604	20.888108
1700.469026	-3.012500	3.371200	-10.155000	26.154726	0.000601	20.888254
1701.474669	-3.003300	3.371100	-10.122000	26.154899	0.000602	20.875152
1702.468968	-2.982100	3.372600	-10.057000	26.163813	0.000602	20.887901
1703.470748	-3.004200	3.371900	-10.128000	26.190412	0.000600	20.887603
1704.471015	-3.008400	3.372500	-10.145000	26.218993	0.000599	20.898304
1705.472017	-2.998400	3.371200	-10.107000	26.189439	0.000600	20.894685
1706.473893	-3.006200	3.371300	-10.134000	26.174188	0.000598	20.911127
1707.473286	-2.979100	3.370100	-10.039000	26.185637	0.000597	20.895606
1708.473111	-3.000200	3.369700	-10.109000	26.200434	0.000597	20.884398
1709.472831	-2.994200	3.369400	-10.088000	26.201877	0.000596	20.891537
1710.473571	-2.992900	3.368400	-10.081000	26.231524	0.000596	20.898095
1711.475203	-3.007600	3.369400	-10.133000	26.229390	0.000597	20.905907
1712.472919	-3.007600	3.367900	-10.128000	26.251240	0.000595	20.898467
1713.475215	-2.969200	3.369300	-10.003000	26.286975	0.000595	20.916359
1714.479794	-2.977300	3.368900	-10.029000	26.314288	0.000596	20.902084
1715.474566	-3.011500	3.367400	-10.139000	26.297053	0.000594	20.900411
1716.476525	-2.989300	3.367300	-10.065000	26.297970	0.000593	20.912710
1717.475664	-3.016800	3.366400	-10.154000	26.328236	0.000593	20.899507
1718.479751	-3.003400	3.366700	-10.110000	26.330892	0.000594	20.887004
1719.475398	-2.996400	3.366300	-10.086000	26.330642	0.000593	20.904769
1720.475412	-3.018700	3.365500	-10.158000	26.335632	0.000593	20.900301
1721.478869	-3.012100	3.365500	-10.137000	26.320655	0.000590	20.914172
1722.476670	-3.004400	3.363800	-10.105000	26.281097	0.000591	20.893860
1723.474541	-3.012000	3.364500	-10.133000	26.233640	0.000589	20.900222
1724.483321	-2.987700	3.365500	-10.055000	26.201429	0.000589	20.921430
1725.480366	-2.998500	3.364500	-10.087000	26.202943	0.000589	20.884548
1726.478824	-3.001700	3.364800	-10.099000	26.199413	0.000589	20.890483
1727.484039	-2.988700	3.365100	-10.056000	26.221688	0.000589	20.907651
1728.479211	-3.006000	3.362700	-10.107000	26.232464	0.000589	20.916107
1729.478974	-2.989500	3.362100	-10.050000	26.264022	0.000587	20.907045
1730.478868	-2.995800	3.363100	-10.074000	26.284856	0.000586	20.900482
1731.481133	-3.023700	3.361700	-10.163000	26.316119	0.000587	20.898235
1732.477986	-3.008600	3.361600	-10.113000	26.296378	0.000587	20.875078
1733.492423	-3.008600	3.362200	-10.114000	26.265383	0.000585	20.906990
1734.479100	-2.987600	3.362400	-10.045000	26.242508	0.000584	20.899176
1735.479329	-2.999000	3.361200	-10.080000	26.249040	0.000583	20.883930
1736.478760	-3.010400	3.361300	-10.118000	26.243548	0.000583	20.917288
1737.478693	-2.992500	3.360700	-10.056000	26.253953	0.000583	20.904038
1738.479945	-3.009700	3.360000	-10.112000	26.237710	0.000585	20.893407
1739.483565	-2.993300	3.359200	-10.054000	26.205870	0.000581	20.878481
1740.479652	-2.998600	3.358300	-10.069000	26.193824	0.000581	20.887238
1741.481120	-3.014200	3.358600	-10.121000	26.173259	0.000584	20.893126
1742.481264	-2.989800	3.359900	-10.044000	26.161935	0.000581	20.895023
1743.481096	-2.994300	3.358600	-10.054000	26.143702	0.000580	20.870540
1744.482699	-3.003700	3.358000	-10.086000	26.160363	0.000580	20.874005
1745.481099	-3.020900	3.357300	-10.141000	26.144490	0.000579	20.888874
1746.481702	-2.984900	3.359200	-10.026000	26.157105	0.000580	20.902971
1747.485939	-2.980700	3.358100	-10.008000	26.175060	0.000580	20.868859
1748.482079	-2.980600	3.356800	-10.003000	26.201830	0.000578	20.885801
1749.484390	-3.008500	3.356100	-10.095000	26.225047	0.000576	20.876415
1750.480985	-3.005500	3.354700	-10.082000	26.257974	0.000579	20.887692
1751.488391	-3.022600	3.355200	-10.140000	26.258616	0.000576	20.883596
1752.484886	-2.998700	3.355900	-10.061000	26.251685	0.000577	20.877105
1753.482352	-3.003600	3.356800	-10.082000	26.214582	0.000576	20.893399
1754.485962	-3.003100	3.355100	-10.075000	26.203157	0.000576	20.886659
1755.483673	-3.013200	3.354300	-10.106000	26.198861	0.000578	20.865274
1756.484228	-2.999400	3.353800	-10.058000	26.224437	0.000575	20.885284
1757.488667	-3.016300	3.352800	-10.111000	26.215170	0.000575	20.875499
1758.485145	-2.993700	3.354500	-10.042000	26.207473	0.000575	20.889574
1759.484443	-3.010100	3.352900	-10.092000	26.218073	0.000575	20.888372
1760.485008	-3.008000	3.353600	-10.087000	26.237937	0.000576	20.875144
1761.484890	-2.995300	3.352400	-10.041000	26.235277	0.000576	20.886220
1762.484593	-2.980500	3.352400	-9.990900	26.220675	0.000572	20.883874
1763.485972	-3.003200	3.351700	-10.063000	26.201030	0.000573	20.883100
1764.485223	-2.998600	3.351900	-10.049000	26.167352	0.000573	20.878183
1765.487046	-3.001300	3.352300	-10.060000	26.171794	0.000571	20.878379
1766.487275	-2.997300	3.350700	-10.042000	26.184856	0.000570	20.882020
1767.488218	-3.013400	3.350200	-10.094000	26.244232	0.000572	20.869616
1768.488801	-3.008200	3.349300	-10.074000	26.266230	0.000571	20.871334
1769.488911	-3.005500	3.349100	-10.065000	26.303578	0.000570	20.882313
1770.487223	-2.996600	3.349400	-10.036000	26.320363	0.000571	20.885905
1771.491811	-2.999600	3.348900	-10.044000	26.328206	0.000571	20.855383
1772.488885	-2.983900	3.348800	-9.991600	26.317204	0.000567	20.885575
1773.490800	-2.992600	3.350100	-10.024000	26.342006	0.000568	20.868304
1774.488739	-3.015400	3.349100	-10.098000	26.331303	0.000566	20.878409
1775.490539	-3.016200	3.345500	-10.089000	26.349303	0.000566	20.873740
1776.491786	-3.007500	3.347200	-10.066000	26.382649	0.000564	20.883545
1777.493735	-2.981100	3.348600	-9.982100	26.347115	0.000564	20.870118
1778.490482	-2.997900	3.347300	-10.034000	26.343363	0.000563	20.868718
1779.492508	-2.986700	3.347200	-9.995700	26.316120	0.000564	20.872159
1780.491457	-2.990400	3.346900	-10.008000	26.309337	0.000564	20.877670
1781.501811	-3.021500	3.344500	-10.104000	26.316016	0.000564	20.890546
1782.493072	-2.995900	3.345800	-10.022000	26.293389	0.000561	20.877290
1783.497338	-3.006700	3.345400	-10.057000	26.321127	0.000563	20.876717
1784.500347	-3.002500	3.343900	-10.038000	26.289464	0.000563	20.870501
1785.499359	-3.005100	3.343100	-10.046000	26.309204	0.000560	20.872795
1786.494824	-2.988700	3.344700	-9.995100	26.290179	0.000559	20.871693
1787.495275	-3.004700	3.343400	-10.045000	26.300682	0.000559	20.861387
1788.496166	-3.039200	3.341500	-10.153000	26.296334	0.000557	20.852751
1789.495842	-3.015700	3.343300	-10.081000	26.349124	0.000557	20.871664
1790.494191	-3.023300	3.341300	-10.100000	26.336137	0.000556	20.866672
1791.495178	-2.989700	3.342600	-9.992500	26.357812	0.000556	20.873282
1792.496869	-2.994500	3.341500	-10.005000	26.383584	0.000556	20.859831
1793.497578	-2.990400	3.341600	-9.991700	26.380008	0.000554	20.857185
1794.501164	-2.995000	3.340800	-10.005000	26.397957	0.000555	20.856259
1795.497152	-2.997400	3.342200	-10.017000	26.401532	0.000555	20.860325
1796.499999	-2.990300	3.339900	-9.986300	26.406966	0.000556	20.864838
1797.498148	-2.983500	3.341100	-9.967100	26.414017	0.000555	20.868606
1798.497973	-2.994600	3.341800	-10.006000	26.421986	0.000553	20.877563
1799.500518	-2.996000	3.340500	-10.006000	26.410562	0.000554	20.856600
1800.500594	-3.010500	3.338500	-10.049000	26.409594	0.000552	20.848515
1801.498018	-2.984700	3.340800	-9.970700	26.420615	0.000555	20.870022
1802.501335	-2.994600	3.338500	-9.996600	26.442066	0.000552	20.856022
1803.498971	-2.981000	3.339100	-9.952400	26.480500	0.000551	20.857667
1804.498775	-3.000600	3.339000	-10.018000	26.455448	0.000551	20.859988
1805.500324	-3.001800	3.336800	-10.015000	26.410753	0.000552	20.860584
1806.499808	-2.996000	3.337400	-9.998300	26.363922	0.000551	20.881794
1807.500518	-2.995700	3.336400	-9.993700	26.311104	0.000551	20.849576
1808.499796	-3.001100	3.337100	-10.014000	26.254483	0.000549	20.859056
1809.501204	-3.003100	3.337200	-10.021000	26.246314	0.000549	20.859381
1810.501563	-3.019700	3.334500	-10.067000	26.244597	0.000548	20.843906
1811.501554	-3.011100	3.335700	-10.043000	26.244323	0.000547	20.848846
1812.506194	-2.982000	3.334600	-9.942800	26.255845	0.000548	20.873700
1813.504154	-2.990600	3.334700	-9.971900	26.207245	0.000548	20.861372
1814.502924	-2.996700	3.335500	-9.994900	26.227308	0.000545	20.860670
1815.505612	-2.966300	3.334500	-9.889800	26.253706	0.000544	20.837413
1816.502645	-3.019500	3.333100	-10.063000	26.300812	0.000546	20.851086
1817.504211	-2.995700	3.333500	-9.985000	26.309252	0.000544	20.868103
1818.510355	-2.993800	3.333300	-9.977900	26.345504	0.000542	20.857595
1819.507213	-3.015000	3.332700	-10.047000	26.377262	0.000543	20.853951
1820.507960	-3.004800	3.332800	-10.013000	26.381632	0.000542	20.829420
1821.511595	-2.987600	3.331900	-9.953800	26.392554	0.000542	20.869320
1822.505587	-3.021200	3.332200	-10.066000	26.417978	0.000539	20.848880
1823.506083	-2.995000	3.332200	-9.979300	26.380088	0.000542	20.854421
1824.509638	-3.004900	3.331400	-10.010000	26.364814	0.000541	20.853768
1825.509104	-3.046500	3.329600	-10.143000	26.352078	0.000540	20.849978
1826.507792	-2.990000	3.332200	-9.963000	26.346963	0.000538	20.833457
1827.510360	-3.007200	3.331300	-10.016000	26.368788	0.000538	20.850176
1828.506961	-3.000300	3.330200	-9.989800	26.375541	0.000536	20.844162
1829.509112	-2.999300	3.329900	-9.986100	26.408116	0.000538	20.844658
1830.513929	-2.989800	3.328400	-9.949900	26.442505	0.000538	20.831807
1831.508335	-3.005500	3.328000	-10.001000	26.435601	0.000536	20.857584
1832.509925	-2.991200	3.328900	-9.956100	26.442974	0.000538	20.830382
1833.508191	-2.984400	3.327800	-9.930400	26.473612	0.000537	20.840788
1834.509123	-3.007700	3.327300	-10.007000	26.484534	0.000536	20.841335
1835.508477	-3.009500	3.327200	-10.012000	26.489153	0.000533	20.859253
1836.510952	-3.013500	3.326900	-10.023000	26.462064	0.000535	20.842931
1837.511080	-2.988800	3.327300	-9.944000	26.471869	0.000532	20.829554
1838.509347	-3.016100	3.326600	-10.032000	26.477404	0.000532	20.852186
1839.510110	-3.007300	3.325900	-10.001000	26.518593	0.000532	20.830051
1840.512072	-3.011200	3.325400	-10.012000	26.561095	0.000533	20.847643
1841.509303	-2.994300	3.324100	-9.951800	26.562584	0.000532	20.851037
1842.511207	-2.994500	3.324500	-9.954200	26.568168	0.000533	20.836736
1843.514461	-3.008200	3.324000	-9.997400	26.540684	0.000532	20.825704
1844.515384	-2.991600	3.325400	-9.947200	26.508806	0.000531	20.835860
1845.513529	-2.998800	3.324300	-9.967600	26.486039	0.000530	20.858968
1846.514097	-3.013900	3.322900	-10.013000	26.519505	0.000528	20.847088
1847.512784	-3.015800	3.322400	-10.018000	26.496714	0.000530	20.827025
1848.513855	-2.991100	3.323400	-9.939800	26.495420	0.000527	20.840897
1849.511827	-3.010400	3.322500	-10.001000	26.454007	0.000528	20.818238
1850.512498	-2.987200	3.322800	-9.925000	26.453805	0.000526	20.837475
1851.514133	-3.003700	3.321700	-9.976400	26.479377	0.000528	20.826669
1852.512788	-2.980900	3.322900	-9.904400	26.489533	0.000526	20.847307
1853.531393	-3.010000	3.320900	-9.994800	26.498866	0.000525	20.816861
1854.514811	-3.013600	3.321700	-10.009000	26.519449	0.000525	20.814790
1855.513706	-3.028100	3.319700	-10.051000	26.523741	0.000523	20.848028
1856.518784	-3.027100	3.321400	-10.053000	26.509491	0.000522	20.839394
1857.514803	-2.990900	3.320800	-9.931300	26.495290	0.000523	20.827491
1858.519896	-3.016900	3.318500	-10.011000	26.499014	0.000526	20.863001
1859.518990	-3.008300	3.318800	-9.982200	26.473144	0.000521	20.826567
1860.516335	-2.976600	3.318400	-9.876100	26.493401	0.000521	20.826066
1861.516434	-2.997900	3.317400	-9.943900	26.511477	0.000522	20.825743
1862.518940	-3.019600	3.318100	-10.019000	26.546282	0.000521	20.806202
1863.518934	-2.993600	3.317900	-9.931300	26.538288	0.000520	20.830882
1864.516336	-3.001700	3.317500	-9.957500	26.535285	0.000518	20.839717
1865.517663	-2.994900	3.317200	-9.933500	26.491910	0.000518	20.824093
1866.515436	-2.997900	3.315700	-9.939000	26.444761	0.000516	20.816531
1867.515973	-2.994500	3.317100	-9.931700	26.388300	0.000518	20.839915
1868.516227	-2.984500	3.317300	-9.899300	26.387256	0.000517	20.821323
1869.519962	-3.008300	3.316000	-9.973800	26.371662	0.000516	20.850220
1870.516562	-3.014600	3.314300	-9.990100	26.364709	0.000516	20.834224
1871.517762	-2.982500	3.315800	-9.889100	26.386011	0.000516	20.829081
1872.519783	-2.994600	3.313900	-9.922900	26.404709	0.000516	20.823217
1873.518592	-3.002200	3.313100	-9.945800	26.409202	0.000515	20.812560
1874.517443	-3.010800	3.314500	-9.978000	26.429162	0.000513	20.828354
1875.517383	-3.020200	3.312900	-10.004000	26.435221	0.000512	20.808365
1876.519476	-2.981600	3.314200	-9.880700	26.476087	0.000512	20.839957
1877.522970	-3.005800	3.310900	-9.950900	26.483084	0.000511	20.806688
1878.521914	-3.015500	3.312300	-9.986900	26.461659	0.000512	20.828300
1879.520152	-3.025100	3.310000	-10.011000	26.488844	0.000511	20.815322
1880.519813	-3.022500	3.311900	-10.009000	26.506471	0.000510	20.819289
1881.520682	-2.999000	3.312300	-9.933000	26.503640	0.000508	20.820711
1882.520159	-2.968600	3.311800	-9.830400	26.494453	0.000507	20.814796
1883.521131	-2.985300	3.312200	-9.886000	26.500363	0.000509	20.816943
1884.522000	-3.002900	3.311000	-9.941700	26.511110	0.000508	20.825848
1885.523401	-3.007300	3.311600	-9.956600	26.520867	0.000508	20.819061
1886.524181	-2.993400	3.311200	-9.910900	26.504009	0.000505	20.799745
1887.524196	-2.991300	3.309500	-9.898400	26.520791	0.000507	20.816140
1888.526223	-2.999700	3.310000	-9.928000	26.550731	0.000505	20.821105
1889.525943	-3.010200	3.309000	-9.960200	26.546438	0.000505	20.805884
1890.525893	-3.005800	3.307800	-9.941300	26.565228	0.000506	20.806280
1891.524972	-2.984700	3.309700	-9.875600	26.572627	0.000503	20.842640
1892.527062	-3.006100	3.308600	-9.944900	26.525704	0.000505	20.824871
1893.530317	-2.999600	3.307500	-9.919900	26.533449	0.000502	20.799940
1894.527776	-3.021200	3.307500	-9.991600	26.566196	0.000502	20.809624
1895.530842	-2.989000	3.308400	-9.888000	26.566219	0.000501	20.812491
1896.531342	-3.002200	3.304400	-9.919500	26.556562	0.000502	20.814638
1897.530856	-3.002700	3.306900	-9.929000	26.565994	0.000498	20.797093
1898.530179	-3.000000	3.305700	-9.916800	26.564379	0.000500	20.795469
1899.530996	-3.016400	3.304200	-9.965900	26.569321	0.000499	20.808971
1900.533402	-3.006400	3.305200	-9.935000	26.583842	0.000498	20.810766
1901.531866	-3.020600	3.303700	-9.978000	26.570956	0.000498	20.810615
1902.531083	-2.980700	3.305300	-9.851500	26.568002	0.000497	20.802905
1903.531350	-2.982800	3.304500	-9.854900	26.595459	0.000499	20.794469
1904.531999	-2.987400	3.304100	-9.869200	26.565543	0.000496	20.796639
1905.530822	-3.002100	3.304300	-9.918600	26.545285	0.000494	20.812311
1906.532309	-2.986900	3.303400	-9.865800	26.548611	0.000495	20.801430
1907.533872	-2.993600	3.303700	-9.888800	26.586991	0.000493	20.792121
1908.533660	-3.016600	3.301900	-9.958500	26.589525	0.000495	20.786607
1909.531380	-3.004000	3.300700	-9.914300	26.599055	0.000494	20.815628
1910.534020	-3.011100	3.302100	-9.942000	26.606725	0.000495	20.800105
1911.533654	-3.010200	3.300000	-9.932700	26.619510	0.000493	20.778818
1912.534191	-2.981400	3.303200	-9.845900	26.609852	0.000493	20.803248
1913.535720	-2.986000	3.300900	-9.855800	26.572764	0.000492	20.803424
1914.535882	-2.986600	3.301600	-9.859100	26.569761	0.000492	20.797086
1915.532817	-3.015000	3.299800	-9.947700	26.575345	0.000493	20.797484
1916.539966	-2.986700	3.300900	-9.857500	26.553796	0.000491	20.779141
1917.534760	-3.020600	3.298300	-9.961100	26.535399	0.000491	20.796211
1918.533857	-3.027700	3.297800	-9.982400	26.534928	0.000489	20.790995
1919.537998	-2.994500	3.299300	-9.879500	26.544115	0.000490	20.794065
1920.539114	-2.994300	3.298600	-9.876400	26.545581	0.000489	20.787953
1921.540475	-2.998900	3.297800	-9.888800	26.561419	0.000487	20.809089
1922.541866	-3.001600	3.297700	-9.898100	26.568816	0.000487	20.790446
1923.540647	-2.998400	3.298300	-9.888200	26.564573	0.000489	20.788077
1924.536905	-3.009300	3.296100	-9.918200	26.587683	0.000490	20.790920
1925.535404	-2.995700	3.295800	-9.872100	26.592697	0.000489	20.773200
1926.537044	-2.983900	3.298100	-9.839900	26.576212	0.000488	20.792666
1927.538986	-3.008800	3.295200	-9.913900	26.544312	0.000486	20.784781
1928.538985	-2.996100	3.294300	-9.869400	26.554613	0.000485	20.790394
1929.539090	-3.031300	3.294400	-9.985000	26.518914	0.000485	20.793390
1930.541724	-2.999700	3.294600	-9.882100	26.489666	0.000485	20.781534
1931.541590	-2.996700	3.295000	-9.872600	26.455377	0.000484	20.779787
1932.540775	-2.999000	3.294900	-9.879600	26.414158	0.000483	20.765858
1933.544538	-3.007000	3.293700	-9.902300	26.392135	0.000482	20.800623
1934.542457	-3.020500	3.292600	-9.944400	26.433352	0.000480	20.792736
1935.542994	-3.011400	3.292700	-9.915000	26.436701	0.000482	20.790887
1936.544754	-3.010600	3.291800	-9.909400	26.419098	0.000480	20.788841
1937.542269	-2.984600	3.292400	-9.825000	26.454776	0.000480	20.780605
1938.542102	-2.998800	3.292200	-9.870900	26.480151	0.000479	20.800420
1939.543512	-2.992800	3.292500	-9.853100	26.503090	0.000480	20.788864
1940.542176	-2.994900	3.291600	-9.856800	26.543952	0.000479	20.800540
1941.542575	-2.992600	3.291000	-9.846800	26.580023	0.000478	20.792703
1942.543998	-2.969400	3.292100	-9.774100	26.630292	0.000477	20.788709
1943.547839	-2.989600	3.290800	-9.836900	26.659931	0.000477	20.771088
1944.544212	-3.008300	3.289500	-9.894600	26.642803	0.000476	20.784216
1945.541743	-3.002600	3.289300	-9.875200	26.609463	0.000477	20.807598
1946.544991	-3.028100	3.289100	-9.958900	26.564577	0.000475	20.774805
1947.549062	-3.013300	3.289400	-9.910500	26.541237	0.000476	20.780267
1948.542243	-2.998400	3.288700	-9.859300	26.510131	0.000476	20.799261
1949.546062	-2.994300	3.287500	-9.843100	26.452279	0.000475	20.807967
1950.543953	-2.987300	3.289400	-9.825600	26.431671	0.000472	20.781089
1951.545166	-2.972900	3.289600	-9.778200	26.379948	0.000475	20.784106
1952.546434	-2.989800	3.287600	-9.828000	26.362688	0.000472	20.787148
1953.545190	-2.975600	3.286100	-9.777200	26.316180	0.000472	20.798729
1954.545162	-3.013100	3.286000	-9.900200	26.315062	0.000472	20.808036
1955.550359	-3.034300	3.285100	-9.966600	26.283026	0.000469	20.803816
1956.547509	-2.999500	3.286000	-9.854700	26.293853	0.000468	20.791937
1957.547239	-2.998600	3.284700	-9.848700	26.307086	0.000469	20.801917
1958.545624	-3.007700	3.283600	-9.874300	26.337331	0.000467	20.797700
1959.548886	-2.993600	3.284700	-9.831900	26.383117	0.000469	20.801042
1960.547781	-2.999400	3.284400	-9.850200	26.437219	0.000467	20.798520
1961.546875	-2.985000	3.284900	-9.804000	26.499039	0.000468	20.788585
1962.553269	-3.000100	3.284700	-9.854000	26.534889	0.000464	20.803758
1963.545873	-3.010800	3.283300	-9.884600	26.566940	0.000464	20.780974
1964.546976	-2.990500	3.283100	-9.816900	26.604201	0.000464	20.789033
1965.548751	-2.983700	3.283100	-9.794900	26.614876	0.000463	20.806402
1966.548882	-2.997500	3.282200	-9.837400	26.659534	0.000462	20.792027
1967.548645	-3.005600	3.281300	-9.860800	26.639177	0.000461	20.797640
1968.552149	-2.981100	3.282700	-9.785500	26.630341	0.000459	20.805353
1969.554821	-2.989700	3.281200	-9.809500	26.652012	0.000459	20.810543
1970.555377	-3.019900	3.280200	-9.903900	26.651067	0.000460	20.807697
1971.551158	-2.976300	3.281500	-9.764600	26.654270	0.000458	20.810916
1972.551743	-3.013100	3.279300	-9.879600	26.662386	0.000458	20.802481
1973.552526	-2.991600	3.279600	-9.809700	26.688302	0.000456	20.810042
1974.552795	-2.989000	3.278500	-9.797700	26.712829	0.000454	20.781121
1975.552605	-3.000200	3.280000	-9.839800	26.722014	0.000457	20.797942
1976.561169	-2.992700	3.279100	-9.812700	26.747628	0.000455	20.794296
1977.554650	-3.002300	3.277200	-9.837900	26.755126	0.000454	20.817482
1978.555123	-2.977100	3.279300	-9.762200	26.747607	0.000453	20.793327
1979.557145	-3.003600	3.278000	-9.844400	26.737753	0.000452	20.796696
1980.555655	-2.995600	3.277600	-9.818100	26.722712	0.000450	20.795799
1981.555551	-3.015100	3.276200	-9.877600	26.740510	0.000450	20.800416
1982.557050	-3.019900	3.275300	-9.890000	26.754288	0.000452	20.814268
1983.559685	-3.005200	3.276800	-9.846900	26.774046	0.000451	20.802839
1984.557225	-3.007500	3.273300	-9.843600	26.774371	0.000450	20.787519
1985.558471	-2.991600	3.274700	-9.795200	26.751586	0.000449	20.813448
1986.557621	-2.976400	3.275100	-9.746900	26.763872	0.000447	20.820111
1987.556987	-2.982300	3.274200	-9.763400	26.791351	0.000447	20.795581
1988.558187	-3.006600	3.273500	-9.840900	26.815082	0.000447	20.802373
1989.561334	-3.023100	3.274100	-9.896700	26.840125	0.000447	20.805267
1990.558259	-3.008300	3.272700	-9.844300	26.866313	0.000447	20.818796
1991.557580	-3.018800	3.273300	-9.879300	26.895450	0.000445	20.804946
1992.562565	-2.997100	3.273300	-9.809800	26.916669	0.000443	20.817748
1993.557069	-3.010100	3.271200	-9.844600	26.949977	0.000446	20.791024
1994.559205	-2.991000	3.272200	-9.786700	26.933052	0.000442	20.785858
1995.561781	-2.986000	3.271600	-9.767700	26.972215	0.000443	20.797265
1996.560774	-3.036300	3.271500	-9.930400	27.008300	0.000442	20.800362
1997.557849	-2.996300	3.269700	-9.795700	27.020211	0.000442	20.790055
1998.563337	-3.025400	3.269900	-9.891500	27.014178	0.000441	20.800109
1999.560655	-3.003800	3.270900	-9.824100	27.002321	0.000441	20.790082
2000.558075	-2.999100	3.270600	-9.807800	26.981896	0.000441	20.825018
2001.564381	-2.991100	3.269100	-9.777400	26.939461	0.000440	20.797045
2002.560822	-2.996900	3.270000	-9.798600	26.909952	0.000440	20.805778
2003.560157	-2.994300	3.269700	-9.788800	26.903649	0.000439	20.795173
2004.560685	-2.999600	3.268900	-9.803300	26.859398	0.000438	20.799989
2005.561094	-2.992500	3.267800	-9.776400	26.834184	0.000438	20.807828
2006.560004	-3.003100	3.267300	-9.811700	26.840957	0.000438	20.801836
2007.560856	-2.993200	3.268500	-9.782700	26.882133	0.000438	20.820005
2008.561486	-3.030900	3.265200	-9.895100	26.878112	0.000437	20.813591
2009.560124	-3.002800	3.267100	-9.809900	26.876053	0.000436	20.805830
2010.561127	-3.003800	3.266300	-9.810400	26.891241	0.000434	20.806878
2011.561551	-2.984500	3.265700	-9.745100	26.859274	0.000433	20.803658
2012.564879	-3.003100	3.266000	-9.805800	26.861284	0.000433	20.809946
2013.562107	-2.992900	3.264600	-9.770000	26.865701	0.000433	20.795896
2014.562989	-2.991700	3.265200	-9.767200	26.875033	0.000434	20.797693
2015.564217	-3.006100	3.263500	-9.808600	26.890397	0.000432	20.824521
2016.562283	-3.001600	3.264300	-9.796800	26.860067	0.000431	20.804455
2017.563103	-2.986900	3.264800	-9.750300	26.850613	0.000428	20.821028
2018.562571	-2.999000	3.262000	-9.780800	26.812613	0.000430	20.816011
2019.563768	-3.008200	3.262600	-9.812400	26.816040	0.000430	20.820405
2020.561763	-3.010000	3.261200	-9.815000	26.777740	0.000432	20.815088
2021.564660	-2.982000	3.262500	-9.728200	26.801594	0.000430	20.813466
2022.564328	-2.976600	3.262800	-9.711200	26.818746	0.000426	20.808427
2023.564383	-2.988800	3.262600	-9.748900	26.842049	0.000427	20.819529
2024.566101	-3.002900	3.261900	-9.793800	26.845823	0.000427	20.834229
2025.563965	-2.987100	3.260800	-9.739300	26.854112	0.000427	20.826916
2026.568159	-3.007500	3.261700	-9.807800	26.865726	0.000426	20.820102
2027.565453	-2.989100	3.259600	-9.741200	26.906728	0.000425	20.824821
2028.562460	-3.016600	3.260000	-9.833100	26.909707	0.000426	20.822601
2029.566456	-3.000500	3.259100	-9.776900	26.910078	0.000425	20.824871
2030.566503	-3.027100	3.258300	-9.861700	26.951077	0.000424	20.830061
2031.565684	-2.979000	3.259200	-9.706800	26.986364	0.000423	20.810071
2032.567429	-3.005500	3.257500	-9.790000	27.009171	0.000423	20.834428
2033.569630	-2.986900	3.257400	-9.728400	26.986786	0.000421	20.828038
2034.572780	-3.008700	3.256400	-9.796400	26.961151	0.000421	20.829761
2035.566909	-3.021000	3.255400	-9.833700	26.971772	0.000420	20.836648
2036.569102	-3.006200	3.255900	-9.787000	27.000112	0.000420	20.819628
2037.568820	-2.993300	3.255300	-9.743500	27.012544	0.000419	20.832130
2038.568413	-2.994900	3.256000	-9.750300	27.033067	0.000417	20.815785
2039.570259	-3.014200	3.253700	-9.805300	27.071802	0.000418	20.823920
2040.569736	-3.007500	3.253700	-9.784800	27.059346	0.000417	20.832256
2041.568122	-2.985300	3.255200	-9.716300	27.047135	0.000416	20.819502
2042.570225	-3.002200	3.253500	-9.766300	27.030411	0.000414	20.845830
2043.570397	-3.006500	3.253700	-9.781100	26.977751	0.000416	20.828436
2044.570887	-2.997300	3.254000	-9.752000	26.976261	0.000414	20.825989
2045.571659	-2.987800	3.254500	-9.722700	26.969511	0.000413	20.826314
2046.570784	-3.002300	3.251900	-9.761700	26.979786	0.000411	20.820051
2047.570927	-2.987900	3.252800	-9.718000	26.980976	0.000411	20.809394
2048.572114	-2.990300	3.252600	-9.725400	27.010952	0.000411	20.839064
2049.575758	-2.999300	3.251500	-9.750800	27.033260	0.000410	20.827834
2050.572078	-3.034300	3.250700	-9.862200	27.082815	0.000411	20.841633
2051.571316	-3.020200	3.249500	-9.812200	27.112640	0.000410	20.842706
2052.575878	-3.000600	3.250000	-9.751300	27.138790	0.000407	20.826807
2053.570987	-3.021800	3.248600	-9.816300	27.144202	0.000407	20.846948
2054.572176	-2.979700	3.251400	-9.686700	27.180823	0.000406	20.842056
2055.578038	-3.012600	3.247600	-9.782700	27.212505	0.000406	20.860170
2056.571491	-2.982300	3.250200	-9.690900	27.237341	0.000405	20.846745
2057.572701	-3.017300	3.248700	-9.801300	27.265896	0.000408	20.825682
2058.573758	-2.979000	3.249500	-9.679100	27.244459	0.000405	20.839207
2059.573387	-3.024200	3.245600	-9.814800	27.209378	0.000404	20.828577
2060.575451	-2.998400	3.246300	-9.731500	27.196349	0.000401	20.851033
2061.581198	-3.006100	3.245500	-9.755900	27.179528	0.000403	20.862563
2062.579981	-3.020000	3.246300	-9.802600	27.168064	0.000402	20.844395
2063.577682	-3.012000	3.245600	-9.775100	27.167593	0.000402	20.845818
2064.581611	-2.996800	3.246900	-9.729100	27.159776	0.000402	20.859766
2065.580909	-2.977600	3.246100	-9.664600	27.141489	0.000402	20.852280
2066.578297	-3.000900	3.244000	-9.733800	27.089852	0.000399	20.859141
2067.581625	-2.993100	3.245100	-9.711700	27.116327	0.000397	20.849259
2068.581516	-3.018800	3.244200	-9.792700	27.139056	0.000395	20.849358
2069.577754	-2.999900	3.243300	-9.727800	27.176198	0.000396	20.854472
2070.580230	-3.011700	3.241700	-9.761600	27.204755	0.000397	20.857116
2071.580081	-2.994400	3.242800	-9.708800	27.214876	0.000396	20.848332
2072.580398	-2.987000	3.242800	-9.684700	27.217207	0.000394	20.854943
2073.579547	-2.979800	3.242500	-9.660700	27.200856	0.000394	20.857462
2074.584013	-3.002300	3.241200	-9.730300	27.159222	0.000393	20.860158
2075.579947	-2.988400	3.242500	-9.688000	27.164458	0.000391	20.871587
2076.581464	-2.975400	3.241800	-9.644600	27.174852	0.000393	20.835101
2077.584513	-3.031000	3.239000	-9.815600	27.186612	0.000391	20.867792
2078.580794	-3.003300	3.240800	-9.730900	27.214897	0.000389	20.863525
2079.581758	-2.985000	3.242300	-9.677000	27.241170	0.000390	20.859605
2080.580741	-3.015600	3.238100	-9.763600	27.251392	0.000387	20.847129
2081.580684	-2.988300	3.238900	-9.677800	27.221248	0.000386	20.864222
2082.581007	-3.013900	3.238100	-9.758300	27.227773	0.000388	20.865570
2083.582191	-3.016800	3.236800	-9.763900	27.257570	0.000386	20.868040
2084.582452	-3.039100	3.237300	-9.837700	27.270221	0.000385	20.864645
2085.581448	-2.995500	3.239000	-9.701400	27.275680	0.000384	20.849274
2086.580250	-3.020000	3.235200	-9.769000	27.278856	0.000384	20.868589
2087.581543	-3.010000	3.237300	-9.743300	27.263227	0.000382	20.872781
2088.581008	-3.012300	3.234200	-9.741900	27.286176	0.000381	20.852245
2089.579958	-3.010800	3.236100	-9.742000	27.253675	0.000381	20.884036
2090.587596	-2.981900	3.234400	-9.642800	27.288483	0.000380	20.875901
2091.586589	-2.991300	3.235100	-9.676600	27.282133	0.000378	20.883738
2092.582782	-3.000700	3.234000	-9.703200	27.290344	0.000375	20.871610
2093.590127	-3.022000	3.235900	-9.777900	27.261716	0.000375	20.890701
2094.585580	-3.005300	3.233700	-9.717800	27.247028	0.000374	20.863601
2095.583484	-2.978700	3.233700	-9.631300	27.214477	0.000376	20.871636
2096.583013	-3.020400	3.231200	-9.757600	27.170911	0.000375	20.879026
2097.584314	-3.005400	3.229900	-9.706000	27.143667	0.000373	20.892400
2098.584429	-2.988300	3.231500	-9.655900	27.126199	0.000375	20.871988
2099.587202	-3.011100	3.230400	-9.726600	27.147638	0.000375	20.883119
2100.589410	-3.025200	3.230900	-9.772900	27.194682	0.000373	20.869270
2101.586282	-3.001100	3.229900	-9.691200	27.265048	0.000372	20.885992
2102.585624	-3.008400	3.230600	-9.718200	27.237384	0.000373	20.870021
2103.591544	-2.989800	3.231200	-9.659600	27.202206	0.000374	20.866880
2104.587205	-2.986400	3.229300	-9.641700	27.193844	0.000371	20.885021
2105.585767	-2.983100	3.228300	-9.629600	27.217340	0.000370	20.877361
2106.592514	-3.012200	3.227500	-9.720700	27.244735	0.000370	20.874570
2107.588012	-3.019800	3.227200	-9.745000	27.262672	0.000368	20.872224
2108.587378	-2.981400	3.228200	-9.622300	27.309661	0.000367	20.898625
2109.588365	-3.018000	3.227500	-9.739800	27.309464	0.000368	20.883729
2110.588642	-3.031200	3.226900	-9.780500	27.302618	0.000366	20.897230
2111.588613	-2.994700	3.226400	-9.661200	27.284681	0.000366	20.869232
2112.589055	-3.003800	3.225400	-9.687800	27.305670	0.000365	20.868534
2113.589911	-2.999300	3.225500	-9.673100	27.283740	0.000364	20.876820
2114.591227	-2.995000	3.224400	-9.656200	27.252853	0.000366	20.885580
2115.589469	-2.998200	3.225300	-9.669400	27.194671	0.000364	20.891543
2116.591583	-2.994500	3.224700	-9.655000	27.136883	0.000364	20.896008
2117.591280	-3.020200	3.223400	-9.734400	27.105669	0.000362	20.899228
2118.591149	-2.993300	3.224600	-9.650700	27.122740	0.000362	20.883207
2119.592710	-3.006800	3.222800	-9.688900	27.162963	0.000360	20.891418
2120.593236	-3.016900	3.221200	-9.717000	27.161946	0.000360	20.888973
2121.590531	-2.988100	3.222600	-9.628800	27.168768	0.000358	20.882085
2122.591254	-2.968500	3.221600	-9.561100	27.220105	0.000358	20.879193
2123.591417	-2.987500	3.222200	-9.625600	27.239654	0.000356	20.880839
2124.591759	-3.003300	3.220200	-9.670000	27.214870	0.000358	20.912805
2125.593797	-2.984400	3.221700	-9.613600	27.254218	0.000359	20.895487
2126.592883	-2.997500	3.220300	-9.652200	27.225638	0.000358	20.899456
2127.595276	-2.991100	3.220800	-9.632900	27.245959	0.000354	20.886706
2128.592281	-3.017300	3.217600	-9.706700	27.259282	0.000354	20.890149
2129.594541	-2.995200	3.218000	-9.637300	27.319519	0.000353	20.888628
2130.592698	-3.007600	3.218800	-9.680000	27.325970	0.000351	20.898435
2131.595685	-2.996000	3.217500	-9.637200	27.333338	0.000352	20.890675
2132.593787	-3.014000	3.215500	-9.690900	27.340137	0.000350	20.902729
2133.597261	-2.996100	3.217100	-9.637700	27.358050	0.000350	20.892300
2134.595445	-3.028400	3.215200	-9.736300	27.348053	0.000348	20.909269
2135.592789	-2.977900	3.216500	-9.577400	27.351875	0.000347	20.885141
2136.593531	-3.017400	3.216200	-9.703600	27.348452	0.000346	20.891654
2137.597021	-3.022100	3.217200	-9.721800	27.386954	0.000347	20.908099
2138.594605	-3.012200	3.213600	-9.678000	27.401493	0.000345	20.921302
2139.593094	-2.996100	3.213600	-9.627400	27.443119	0.000345	20.908652
2140.594514	-2.996300	3.212500	-9.623800	27.476606	0.000345	20.906306
2141.594156	-3.000700	3.213200	-9.640100	27.461131	0.000343	20.904963
2142.594005	-2.982500	3.214600	-9.586600	27.437292	0.000344	20.922229
2143.594044	-3.005200	3.211900	-9.651600	27.385523	0.000345	20.901445
2144.594828	-2.981300	3.211200	-9.572900	27.339633	0.000343	20.904592
2145.593626	-2.995800	3.212300	-9.621700	27.345538	0.000341	20.900576
2146.594591	-2.990700	3.210000	-9.599000	27.343628	0.000342	20.911455
2147.597162	-3.005300	3.211600	-9.650700	27.377838	0.000341	20.930695
2148.593950	-2.985600	3.210200	-9.583200	27.387516	0.000341	20.910561
2149.595971	-3.000000	3.210300	-9.629800	27.423783	0.000340	20.911484
2150.594284	-3.005400	3.209500	-9.645200	27.416915	0.000339	20.908843
2151.600061	-2.998900	3.209100	-9.623400	27.431871	0.000339	20.899708
2152.597351	-3.014100	3.208000	-9.667800	27.461391	0.000339	20.895741
2153.595542	-3.012200	3.208200	-9.662400	27.458092	0.000338	20.917550
2154.604460	-2.997300	3.205700	-9.607800	27.475655	0.000338	20.904876
2155.597595	-2.993900	3.206200	-9.597900	27.518591	0.000337	20.926260
2156.599024	-3.003200	3.206800	-9.629500	27.468810	0.000336	20.912687
2157.601320	-3.003500	3.205700	-9.626600	27.485626	0.000336	20.912536
2158.599544	-2.996600	3.205200	-9.603400	27.495649	0.000335	20.917404
2159.598419	-2.997600	3.205000	-9.604900	27.476200	0.000334	20.899735
2160.599644	-3.007600	3.204300	-9.636500	27.481658	0.000336	20.921345
2161.599465	-3.006800	3.204500	-9.633900	27.465461	0.000334	20.924490
2162.599237	-2.994100	3.205200	-9.595000	27.478483	0.000334	20.934744
2163.600746	-2.975000	3.203300	-9.528900	27.476200	0.000334	20.887408
2164.600754	-2.977900	3.203200	-9.536900	27.514199	0.000332	20.916153
2165.602774	-3.003000	3.203800	-9.618300	27.541337	0.000331	20.934446
2166.600134	-3.000700	3.203100	-9.610300	27.547585	0.000331	20.932672
2167.602903	-2.966100	3.203900	-9.502500	27.535209	0.000330	20.933496
2168.606348	-3.013500	3.200700	-9.643800	27.531513	0.000329	20.927407
2169.599933	-3.034200	3.200700	-9.710700	27.524763	0.000329	20.920617
2170.603309	-3.004400	3.200700	-9.615200	27.528782	0.000328	20.921341
2171.602161	-3.004600	3.200700	-9.615500	27.560403	0.000329	20.927078
2172.601746	-2.981700	3.200200	-9.540600	27.553956	0.000327	20.915377
2173.603846	-3.029000	3.198600	-9.687600	27.601700	0.000327	20.920267
2174.603444	-3.019800	3.198300	-9.657400	27.593835	0.000327	20.918043
2175.602285	-3.012400	3.197900	-9.631800	27.576720	0.000326	20.919788
2176.605530	-3.007600	3.197400	-9.615800	27.514664	0.000326	20.899553
2177.601992	-3.010600	3.196000	-9.619700	27.516671	0.000323	20.925751
2178.602584	-2.992600	3.196000	-9.563400	27.492337	0.000323	20.909805
2179.601813	-2.987200	3.195900	-9.546200	27.471275	0.000323	20.896677
2180.602732	-3.012900	3.195100	-9.625100	27.457881	0.000322	20.918287
2181.604267	-3.004100	3.193600	-9.592100	27.468398	0.000320	20.910377
2182.601841	-3.007800	3.194900	-9.608800	27.493103	0.000319	20.917213
2183.604823	-3.010500	3.193700	-9.613000	27.512199	0.000319	20.914140
2184.604233	-2.987500	3.195500	-9.545200	27.524476	0.000320	20.918906
2185.604126	-2.998800	3.193600	-9.575600	27.526707	0.000319	20.900290
2186.603590	-3.018700	3.192100	-9.635200	27.506268	0.000318	20.896795
2187.605770	-2.985800	3.194800	-9.538200	27.473475	0.000317	20.910743
2188.603808	-2.993600	3.192500	-9.556000	27.480444	0.000318	20.916331
2189.606971	-3.006800	3.190500	-9.592200	27.516483	0.000316	20.900909
2190.606987	-3.004800	3.190400	-9.585100	27.545428	0.000316	20.905849
2191.604539	-2.998900	3.189300	-9.563900	27.545873	0.000314	20.893969
2192.605113	-3.009700	3.189500	-9.597800	27.515337	0.000314	20.914453
2193.615136	-3.001700	3.189600	-9.573300	27.555668	0.000311	20.907143
2194.602695	-2.993900	3.190000	-9.549500	27.575261	0.000313	20.904571
2195.608931	-3.027900	3.188400	-9.652800	27.574736	0.000311	20.903095
2196.608616	-2.998800	3.188400	-9.560500	27.623819	0.000311	20.908859
2197.605265	-2.990800	3.187000	-9.530100	27.641326	0.000310	20.878588
2198.606831	-3.015300	3.185400	-9.604100	27.663053	0.000309	20.901398
2199.607085	-3.001900	3.185400	-9.561300	27.678500	0.000309	20.896079
2200.607558	-3.007500	3.186100	-9.581900	27.647623	0.000305	20.881605
2201.611670	-2.979200	3.186400	-9.491700	27.597821	0.000306	20.908304
2202.608909	-2.984000	3.183500	-9.498200	27.553571	0.000306	20.895551
2203.610072	-2.975200	3.185200	-9.475200	27.482607	0.000305	20.895750
2204.611173	-3.008900	3.184700	-9.581600	27.458693	0.000303	20.910570
2205.613882	-2.992400	3.182800	-9.523300	27.429645	0.000305	20.892253
2206.611698	-3.010700	3.182700	-9.582000	27.423489	0.000304	20.910715
2207.609540	-3.013800	3.181200	-9.586200	27.464492	0.000304	20.893647
2208.613556	-2.986500	3.182900	-9.504900	27.494505	0.000302	20.912934
2209.611835	-3.014700	3.182900	-9.594600	27.522981	0.000301	20.878999
2210.611029	-2.989900	3.180300	-9.507500	27.531657	0.000301	20.885831
2211.611059	-3.008900	3.180700	-9.569000	27.547781	0.000300	20.900630
2212.612901	-2.986700	3.180700	-9.499000	27.581758	0.000299	20.898781
2213.609077	-3.014000	3.180700	-9.585700	27.606261	0.000299	20.889297
2214.613350	-3.012100	3.178600	-9.572400	27.576099	0.000297	20.912527
2215.616725	-3.017900	3.177600	-9.589100	27.553280	0.000297	20.887198
2216.610937	-3.007800	3.178300	-9.558100	27.521209	0.000296	20.882432
2217.613235	-3.025100	3.179200	-9.616900	27.539039	0.000296	20.910326
2218.612178	-3.007200	3.177100	-9.553100	27.565627	0.000294	20.892983
2219.613217	-3.024400	3.175800	-9.603300	27.595986	0.000295	20.891287
2220.616718	-2.995900	3.176000	-9.514000	27.581847	0.000293	20.878484
2221.613619	-3.002800	3.176100	-9.535800	27.568080	0.000293	20.887865
2222.614075	-2.999600	3.175700	-9.524800	27.612301	0.000293	20.894900
2223.617177	-3.014100	3.174400	-9.566900	27.617435	0.000291	20.886316
2224.616926	-2.991000	3.172900	-9.489300	27.639259	0.000291	20.893577
2225.615369	-2.986600	3.173100	-9.476100	27.676734	0.000291	20.881501
2226.618409	-2.977300	3.172900	-9.445600	27.677279	0.000289	20.856447
2227.616670	-3.006400	3.173100	-9.538500	27.688117	0.000287	20.871144
2228.615266	-3.015400	3.172100	-9.564400	27.709567	0.000287	20.887987
2229.628562	-2.997000	3.170300	-9.499900	27.717999	0.000288	20.876084
2230.617524	-3.035000	3.169700	-9.618700	27.755670	0.000286	20.895975
2231.619178	-2.997100	3.169700	-9.499200	27.722413	0.000287	20.886215
2232.618738	-3.019700	3.167900	-9.565100	27.770151	0.000285	20.858393
2233.622445	-2.989900	3.167900	-9.470700	27.759711	0.000284	20.899567
2234.620378	-2.980200	3.170000	-9.447300	27.747934	0.000284	20.892931
2235.621125	-3.002100	3.167400	-9.507900	27.727721	0.000286	20.886341
2236.623218	-3.027200	3.167000	-9.586600	27.740893	0.000285	20.868304
2237.622762	-2.986000	3.168300	-9.459400	27.748109	0.000283	20.865608
2238.620819	-3.033900	3.166100	-9.605000	27.745307	0.000281	20.874167
2239.625401	-2.987800	3.166400	-9.458800	27.715052	0.000282	20.878809
2240.621998	-2.977700	3.166100	-9.426900	27.713466	0.000280	20.877687
2241.623678	-3.018000	3.162900	-9.544300	27.710118	0.000281	20.873370
2242.625699	-2.995000	3.164400	-9.476200	27.722221	0.000280	20.869428
2243.624226	-2.983800	3.165000	-9.442400	27.660645	0.000279	20.884751
2244.624029	-2.993800	3.164000	-9.469800	27.655735	0.000277	20.871751
2245.625771	-3.020200	3.163800	-9.554500	27.703252	0.000278	20.882107
2246.624055	-3.014300	3.161700	-9.528300	27.713098	0.000277	20.882057
2247.623966	-2.998200	3.161300	-9.477400	27.761307	0.000275	20.876045
2248.624120	-3.017500	3.161000	-9.537700	27.795381	0.000273	20.864817
2249.624341	-3.006500	3.162100	-9.506200	27.798059	0.000275	20.866564
2250.623573	-3.014900	3.158500	-9.520800	27.771626	0.000275	20.868885
2251.622915	-3.023800	3.157800	-9.546800	27.775668	0.000275	20.880065
2252.623398	-2.986200	3.159900	-9.434400	27.785316	0.000273	20.866541
2253.623287	-3.019100	3.156900	-9.529500	27.815767	0.000273	20.878220
2254.624328	-2.993600	3.156900	-9.449300	27.806643	0.000274	20.857659
2255.623624	-3.015000	3.156700	-9.517000	27.747028	0.000271	20.871158
2256.623984	-3.006700	3.157100	-9.491600	27.688552	0.000269	20.869212
2257.624610	-2.985700	3.156800	-9.423800	27.649418	0.000271	20.870610
2258.625183	-3.023600	3.153000	-9.532400	27.598104	0.000271	20.852642
2259.625959	-2.991200	3.153500	-9.429900	27.595673	0.000271	20.849249
2260.624781	-3.010900	3.154200	-9.495300	27.625461	0.000270	20.879694
2261.642495	-3.020300	3.152000	-9.519100	27.623947	0.000269	20.853516
2262.626550	-3.012100	3.152500	-9.494400	27.648973	0.000267	20.856413
2263.625651	-3.020000	3.151500	-9.516100	27.693885	0.000268	20.863674
2264.628496	-3.010800	3.150700	-9.485000	27.744152	0.000269	20.861626
2265.627853	-3.004000	3.150700	-9.462800	27.741500	0.000268	20.866069
2266.627597	-2.986700	3.149000	-9.404000	27.750972	0.000265	20.880817
2267.627769	-2.984000	3.150500	-9.400800	27.747351	0.000267	20.870535
2268.629869	-2.993500	3.148700	-9.424500	27.725949	0.000266	20.866067
2269.629678	-2.971300	3.149000	-9.354800	27.711912	0.000264	20.856210
2270.634290	-2.993200	3.147300	-9.419600	27.693536	0.000266	20.864744
2271.631288	-2.989200	3.148100	-9.409800	27.684211	0.000264	20.859154
2272.631165	-2.993700	3.148500	-9.424300	27.616901	0.000263	20.848798
2273.631098	-2.994600	3.145300	-9.417800	27.620869	0.000263	20.853264
2274.636427	-2.973000	3.146600	-9.353600	27.627565	0.000261	20.837243
2275.633761	-3.020300	3.143900	-9.494700	27.636244	0.000265	20.830803
2276.632605	-2.984200	3.144600	-9.383400	27.586168	0.000261	20.851065
2277.632875	-3.007300	3.142900	-9.450900	27.556282	0.000260	20.857978
2278.636071	-3.013500	3.141700	-9.466500	27.522078	0.000259	20.852962
2279.633347	-3.004600	3.141700	-9.438400	27.507495	0.000262	20.858204
2280.633469	-3.004200	3.141100	-9.435500	27.498613	0.000260	20.837889
2281.636009	-3.014300	3.140300	-9.464400	27.543904	0.000261	20.859748
2282.632779	-3.014600	3.137500	-9.456600	27.584827	0.000259	20.843551
2283.631683	-3.009500	3.138700	-9.444500	27.622997	0.000257	20.841181
2284.632191	-3.009500	3.137200	-9.440600	27.649733	0.000256	20.843427
2285.632138	-2.993400	3.136800	-9.388200	27.629470	0.000255	20.858599
2286.632895	-2.967100	3.138400	-9.310900	27.604022	0.000257	20.838684
2287.636090	-3.003100	3.136700	-9.418500	27.626271	0.000255	20.864388
2288.632749	-2.976700	3.137900	-9.339400	27.632123	0.000257	20.865061
2289.633484	-2.994900	3.135500	-9.389100	27.668209	0.000254	20.855380
2290.632596	-2.999500	3.134000	-9.399200	27.717610	0.000252	20.838711
2291.632779	-3.004000	3.133500	-9.411900	27.751658	0.000252	20.853059
2292.632990	-2.996500	3.133200	-9.387900	27.814667	0.000253	20.838235
2293.632001	-2.997800	3.132700	-9.389200	27.797879	0.000253	20.852158
2294.634511	-3.008200	3.130200	-9.414200	27.748284	0.000252	20.848241
2295.633833	-3.014800	3.130600	-9.437100	27.673044	0.000251	20.846970
2296.636861	-2.994200	3.130500	-9.371700	27.620192	0.000251	20.839781
2297.638668	-2.985600	3.131000	-9.346900	27.592762	0.000251	20.830673
2298.640978	-2.989500	3.129400	-9.353800	27.617066	0.000251	20.815300
2299.638662	-2.993800	3.128600	-9.365000	27.608364	0.000249	20.836415
2300.638994	-2.979300	3.127100	-9.314000	27.607047	0.000249	20.837460
2301.638575	-3.004300	3.126800	-9.393000	27.652706	0.000251	20.826980
2302.638930	-3.001200	3.125200	-9.378800	27.678151	0.000249	20.836462
2303.637770	-3.000700	3.126300	-9.380100	27.733601	0.000248	20.843423
2304.638480	-3.015400	3.124600	-9.421100	27.763682	0.000249	20.856624
2305.637220	-3.004200	3.123700	-9.382400	27.796614	0.000247	20.843299
2306.641743	-2.999900	3.123300	-9.368700	27.823345	0.000247	20.864985
2307.639668	-3.013900	3.122300	-9.409800	27.868275	0.000248	20.845245
2308.637763	-2.986300	3.122000	-9.322100	27.878142	0.000245	20.860865
2309.640482	-2.984300	3.121900	-9.315000	27.875959	0.000246	20.861039
2310.640741	-3.024800	3.120100	-9.437000	27.870703	0.000245	20.836309
2311.639385	-3.009700	3.120500	-9.389500	27.909134	0.000245	20.836583
2312.639622	-3.030000	3.117600	-9.445300	27.949549	0.000246	20.841225
2313.641758	-2.976700	3.118700	-9.282100	27.950044	0.000245	20.832241
2314.639648	-2.993700	3.115800	-9.326100	27.952992	0.000246	20.860337
2315.638299	-3.002200	3.115900	-9.353900	27.926365	0.000245	20.842072
2316.642402	-2.970600	3.116100	-9.255900	27.965389	0.000243	20.833935
2317.640488	-3.016300	3.114300	-9.391400	27.923390	0.000245	20.849509
2318.640031	-3.016200	3.112500	-9.384900	27.909081	0.000243	20.827995
2319.641474	-2.985300	3.114100	-9.295000	27.916421	0.000243	20.835856
2320.641329	-2.995100	3.112400	-9.321300	27.948502	0.000244	20.817412
2321.641414	-2.997200	3.109700	-9.319000	27.939403	0.000242	20.816789
2322.641985	-2.995900	3.111700	-9.321100	27.966353	0.000242	20.831113
2323.643561	-2.991000	3.111400	-9.304200	27.938262	0.000240	20.829390
2324.642207	-3.010200	3.108900	-9.356400	27.959781	0.000241	20.810748
2325.642735	-2.981200	3.109400	-9.269100	27.984425	0.000241	20.845509
2326.643155	-3.006500	3.106800	-9.339400	27.963079	0.000241	20.831136
2327.646442	-3.038900	3.105800	-9.436000	27.935655	0.000241	20.817284
2328.645154	-2.973100	3.107900	-9.238400	27.951499	0.000240	20.820903
2329.656445	-2.994100	3.106200	-9.300100	27.962159	0.000240	20.840641
2330.645951	-2.970300	3.105600	-9.222200	27.917553	0.000241	20.825616
2331.642894	-3.012100	3.102700	-9.344200	27.919116	0.000237	20.823396
2332.644499	-2.993200	3.103800	-9.289100	27.891889	0.000239	20.813537
2333.645082	-2.993700	3.102300	-9.285900	27.880282	0.000240	20.818925
2334.646002	-2.974300	3.102100	-9.224700	27.857025	0.000237	20.849095
2335.646949	-2.971900	3.100500	-9.214100	27.866744	0.000238	20.804824
2336.648054	-2.981800	3.099400	-9.240500	27.880628	0.000237	20.823540
2337.644885	-2.993900	3.098900	-9.276800	27.918565	0.000236	20.830428
2338.645051	-2.985900	3.098000	-9.248700	27.943928	0.000237	20.819446
2339.645890	-3.009400	3.096300	-9.317000	27.988157	0.000236	20.830300
2340.652768	-2.990000	3.096700	-9.258100	28.012975	0.000235	20.841530
2341.646274	-2.993100	3.096200	-9.266200	27.972388	0.000235	20.815376
2342.646287	-3.004000	3.095000	-9.296600	27.945685	0.000234	20.828801
2343.648333	-3.003400	3.093300	-9.288700	27.967628	0.000234	20.817697
2344.646454	-2.994600	3.092600	-9.260200	27.979576	0.000234	20.836361
2345.647432	-2.997300	3.091100	-9.263700	28.000724	0.000232	20.820190
2346.652054	-3.010000	3.090600	-9.301700	28.012179	0.000232	20.793789
2347.648287	-3.019600	3.089100	-9.327200	27.960163	0.000234	20.792640
2348.646236	-2.990200	3.090000	-9.238500	27.920590	0.000232	20.807337
2349.645843	-2.981700	3.089000	-9.210400	27.873157	0.000230	20.821710
2350.646465	-3.010100	3.086200	-9.289000	27.867975	0.000231	20.824555
2351.648891	-3.018000	3.085800	-9.311500	27.857834	0.000231	20.810556
2352.648465	-2.987700	3.085800	-9.218700	27.898845	0.000230	20.821486
2353.655402	-3.000700	3.084400	-9.254700	27.935691	0.000231	20.820165
2354.649811	-3.005800	3.084200	-9.269100	27.997698	0.000230	20.798179
2355.648926	-3.000600	3.084200	-9.253800	28.039994	0.000232	20.819890
2356.650157	-3.013800	3.083100	-9.291200	28.014210	0.000227	20.825704
2357.651042	-3.026500	3.080900	-9.323400	28.003822	0.000229	20.810981
2358.648920	-2.984800	3.080700	-9.193500	27.970052	0.000228	20.806386
2359.648972	-2.976200	3.081000	-9.168500	27.996559	0.000228	20.821687
2360.651424	-2.998000	3.078900	-9.229600	28.029234	0.000229	20.817594
2361.648638	-3.001400	3.079100	-9.238800	28.033103	0.000228	20.812954
2362.649861	-2.998300	3.078200	-9.228000	28.045622	0.000227	20.801373
2363.648413	-3.017900	3.075700	-9.281200	28.064860	0.000228	20.803670
2364.648366	-3.016000	3.073200	-9.266400	28.042425	0.000226	20.821389
2365.649877	-3.021700	3.071800	-9.281400	28.021995	0.000229	20.805092
2366.651717	-3.013200	3.074300	-9.262000	28.038408	0.000227	20.797905
2367.649033	-2.990200	3.073100	-9.188300	28.083627	0.000227	20.816397
2368.649648	-2.968100	3.071700	-9.116100	28.035956	0.000228	20.802075
2369.650603	-3.017700	3.069500	-9.260800	27.998593	0.000229	20.817571
2370.651014	-2.985600	3.068700	-9.160700	27.999609	0.000226	20.800576
2371.650757	-2.995400	3.068700	-9.189600	28.001493	0.000227	20.811482
2372.651217	-2.975700	3.066900	-9.124700	28.058364	0.000227	20.788122
2373.651833	-2.983700	3.067700	-9.152700	28.082485	0.000228	20.781109
2374.652510	-2.999600	3.065100	-9.193300	28.104971	0.000227	20.783830
2375.656702	-2.992400	3.063300	-9.165000	28.165680	0.000226	20.796108
2376.654176	-2.989100	3.062900	-9.154700	28.183476	0.000228	20.795533
2377.656485	-2.986200	3.063100	-9.144800	28.223459	0.000229	20.784103
2378.657882	-2.978000	3.061300	-9.115700	28.244850	0.000226	20.793785
2379.658496	-3.023700	3.058200	-9.246800	28.258879	0.000226	20.789892
2380.656941	-3.026000	3.057400	-9.249100	28.238330	0.000225	20.816619
2381.658160	-3.017000	3.057200	-9.222200	28.260586	0.000225	20.782602
2382.657833	-3.013300	3.055500	-9.205200	28.220953	0.000224	20.790588
2383.657876	-2.991600	3.055700	-9.139900	28.215745	0.000225	20.794829
2384.658199	-3.012500	3.054300	-9.199900	28.231287	0.000226	20.791984
2385.657434	-3.016900	3.052400	-9.207100	28.232081	0.000226	20.794680
2386.661221	-3.018800	3.051600	-9.211900	28.229379	0.000225	20.792908
2387.658229	-2.968000	3.052700	-9.059200	28.207764	0.000224	20.786793
2388.660814	-3.001700	3.049800	-9.153600	28.206822	0.000222	20.781578
2389.658106	-2.990600	3.048300	-9.115400	28.219264	0.000225	20.797898
2390.661037	-2.989400	3.049900	-9.115900	28.254288	0.000223	20.800917
2391.664024	-3.013300	3.047800	-9.182400	28.245514	0.000225	20.794454
2392.659005	-3.009000	3.045100	-9.161500	28.239861	0.000224	20.793030
2393.658386	-2.986200	3.045200	-9.092300	28.236639	0.000223	20.803536
2394.660294	-2.989600	3.042800	-9.096100	28.277734	0.000225	20.804609
2395.664051	-3.021500	3.042000	-9.189800	28.279667	0.000225	20.799443
2396.658557	-2.977600	3.041100	-9.054500	28.304924	0.000226	20.785992
2397.661381	-3.025800	3.039100	-9.194500	28.314195	0.000223	20.792955
2398.659019	-3.000600	3.039100	-9.118700	28.317265	0.000224	20.791780
2399.660552	-3.024100	3.037100	-9.183500	28.322620	0.000223	20.805232
2400.665846	-3.001700	3.035900	-9.111500	28.304081	0.000221	20.796997
2401.661978	-3.025400	3.035300	-9.181500	28.254236	0.000223	20.769571
2402.659757	-2.990700	3.035200	-9.075900	28.192467	0.000221	20.792730
2403.661787	-3.006600	3.032500	-9.117100	28.155780	0.000222	20.793728
2404.661051	-3.003200	3.031400	-9.102600	28.170903	0.000221	20.778606
2405.660874	-2.980800	3.031100	-9.034500	28.183146	0.000220	20.795200
2406.660985	-2.998000	3.029800	-9.081900	28.181786	0.000222	20.802366
2407.663031	-3.007200	3.029200	-9.109000	28.218867	0.000219	20.774739
2408.661847	-2.987100	3.028600	-9.045800	28.199360	0.000220	20.788764
2409.661547	-3.005700	3.025800	-9.093600	28.249705	0.000222	20.800096
2410.662943	-2.993600	3.025000	-9.054000	28.277888	0.000219	20.795280
2411.661578	-2.981200	3.024000	-9.014000	28.305648	0.000220	20.770599
2412.664286	-2.965100	3.023500	-8.964000	28.322627	0.000221	20.800498
2413.663098	-3.020300	3.022600	-9.128800	28.361490	0.000222	20.796481
2414.661629	-2.995100	3.020400	-9.045800	28.375915	0.000220	20.786350
2415.663586	-3.003000	3.020600	-9.070000	28.329220	0.000220	20.784851
2416.666918	-2.991300	3.018900	-9.029400	28.276479	0.000220	20.801448
2417.666485	-2.976000	3.016500	-8.975300	28.264259	0.000219	20.794361
2418.669620	-2.994600	3.014800	-9.027200	28.289591	0.000222	20.795684
2419.664655	-3.022100	3.014200	-9.108300	28.325284	0.000221	20.783732
2420.669179	-3.000900	3.012400	-9.037300	28.379958	0.000220	20.790894
2421.672656	-3.003300	3.012300	-9.045200	28.370318	0.000219	20.780713
2422.666310	-2.990800	3.010700	-9.003400	28.379314	0.000219	20.800678
2423.667707	-3.005600	3.008900	-9.043000	28.413045	0.000223	20.779641
2424.665794	-2.994700	3.008000	-9.007000	28.384570	0.000220	20.786529
2425.666033	-2.978500	3.006700	-8.954100	28.338122	0.000220	20.799978
2426.670454	-2.982000	3.005600	-8.961400	28.295618	0.000221	20.783734
2427.667020	-3.010100	3.002600	-9.036800	28.255066	0.000222	20.778941
2428.667506	-2.990900	3.002600	-8.979100	28.229388	0.000222	20.768261
2429.671327	-3.005300	3.001600	-9.019900	28.213225	0.000220	20.777593
2430.672655	-3.022700	2.999300	-9.064200	28.228296	0.000221	20.789447
2431.670778	-3.014500	2.999300	-9.040600	28.181272	0.000221	20.794735
2432.670423	-3.013400	2.996500	-9.028900	28.114962	0.000220	20.792940
2433.672181	-2.984700	2.998100	-8.948200	28.047532	0.000219	20.779589
2434.669363	-2.988300	2.995600	-8.951300	28.001417	0.000220	20.788172
2435.668728	-2.998300	2.993900	-8.975200	28.006251	0.000222	20.791615
2436.668781	-2.997200	2.992200	-8.967200	28.025937	0.000220	20.797206
2437.670349	-2.984800	2.993000	-8.932000	28.055439	0.000220	20.774746
2438.669870	-2.993700	2.989900	-8.949800	28.139401	0.000220	20.789093
2439.669649	-2.993100	2.989600	-8.947100	28.164734	0.000220	20.801794
2440.672791	-2.989200	2.989300	-8.933100	28.203155	0.000220	20.775515
2441.674267	-3.010600	2.987300	-8.991700	28.225983	0.000218	20.786644
2442.670662	-2.998700	2.984100	-8.947700	28.277612	0.000221	20.783623
2443.672302	-3.004700	2.983200	-8.962900	28.283138	0.000217	20.786816
2444.668639	-2.995900	2.981800	-8.932100	28.323265	0.000218	20.805408
2445.672163	-3.021500	2.980200	-9.003700	28.289509	0.000217	20.794653
2446.671649	-2.991700	2.979400	-8.912000	28.256690	0.000219	20.793852
2447.668986	-2.989900	2.977300	-8.900700	28.244941	0.000218	20.796722
2448.671714	-2.991800	2.976800	-8.905300	28.267299	0.000218	20.807379
2449.672530	-3.007000	2.973800	-8.940800	28.288019	0.000217	20.805955
2450.672093	-2.995900	2.974300	-8.910100	28.331740	0.000217	20.783121
2451.673572	-2.977200	2.972800	-8.849600	28.343315	0.000216	20.799991
2452.676470	-2.995200	2.971300	-8.897900	28.359970	0.000217	20.795898
2453.671465	-2.984500	2.968600	-8.859100	28.407628	0.000217	20.792204
2454.672446	-2.995500	2.967700	-8.888800	28.445669	0.000216	20.816286
2455.677379	-3.018600	2.965000	-8.948900	28.472855	0.000216	20.802412
2456.674316	-2.961500	2.966000	-8.782200	28.470104	0.000215	20.806280
2457.672125	-3.013400	2.963700	-8.929600	28.458037	0.000216	20.799343
2458.675259	-2.993700	2.963600	-8.871100	28.478880	0.000216	20.814642
2459.674971	-2.998300	2.961000	-8.876600	28.468770	0.000217	20.797349
2460.674559	-2.998600	2.958400	-8.870200	28.505620	0.000216	20.823079
2461.680207	-2.972500	2.956800	-8.788500	28.557485	0.000217	20.813671
2462.676444	-3.018600	2.954900	-8.918600	28.523761	0.000217	20.824278
2463.675955	-3.001300	2.953000	-8.861800	28.564796	0.000215	20.806335
2464.678947	-2.996600	2.952400	-8.846000	28.547875	0.000217	20.802570
2465.676437	-2.989000	2.951600	-8.821700	28.576370	0.000214	20.803767
2466.677155	-3.003900	2.950500	-8.861600	28.598970	0.000214	20.797131
2467.678423	-2.977200	2.951100	-8.784800	28.593816	0.000216	20.788621
2468.680573	-2.984200	2.947300	-8.793700	28.573397	0.000215	20.802670
2469.680819	-3.007200	2.943800	-8.851800	28.576867	0.000218	20.799527
2470.681034	-2.985700	2.943300	-8.787000	28.606850	0.000215	20.808860
2471.684043	-3.001100	2.942500	-8.829600	28.609305	0.000215	20.797108
2472.681579	-2.997900	2.941500	-8.816800	28.625461	0.000216	20.821915
2473.680913	-2.991900	2.939200	-8.792300	28.636883	0.000215	20.805918
2474.680911	-3.002100	2.938600	-8.821300	28.633884	0.000214	20.808113
2475.682017	-2.999400	2.935400	-8.803600	28.591143	0.000217	20.806318
2476.679721	-2.982700	2.936000	-8.755600	28.569536	0.000214	20.823911
2477.683774	-3.006100	2.932200	-8.813200	28.555313	0.000217	20.811484
2478.684191	-3.027900	2.929600	-8.869700	28.514302	0.000214	20.819494
2479.683029	-2.985900	2.929900	-8.746500	28.502011	0.000215	20.790047
2480.682559	-3.009000	2.926300	-8.803800	28.478693	0.000213	20.824886
2481.682928	-3.019500	2.924300	-8.828100	28.432278	0.000213	20.816552
2482.686124	-3.000200	2.925300	-8.774900	28.363653	0.000213	20.814780
2483.683304	-2.989700	2.921200	-8.732200	28.322810	0.000214	20.804475
2484.686345	-2.975900	2.922000	-8.694500	28.240643	0.000212	20.801404
2485.681644	-2.961100	2.920500	-8.646000	28.255765	0.000213	20.814258
2486.683824	-2.971400	2.919000	-8.673400	28.258887	0.000213	20.842530
2487.685464	-3.059000	2.915100	-8.915700	28.311409	0.000210	20.817177
2488.688935	-2.981100	2.915200	-8.689200	28.366830	0.000215	20.805176
2489.684404	-3.015400	2.912400	-8.780600	28.375628	0.000214	20.812613
2490.688966	-2.972700	2.912200	-8.656600	28.416250	0.000213	20.801360
2491.690829	-3.000600	2.908400	-8.725600	28.449459	0.000213	20.831008
2492.685449	-3.021900	2.907900	-8.786500	28.503830	0.000213	20.827914
2493.691305	-2.988100	2.906200	-8.683000	28.534882	0.000213	20.818408
2494.688985	-3.004800	2.903500	-8.723200	28.602778	0.000212	20.810449
2495.685143	-3.009500	2.903400	-8.737100	28.647726	0.000212	20.812571
2496.687448	-2.998900	2.901300	-8.700000	28.667601	0.000212	20.827373
2497.685283	-3.000600	2.898700	-8.696300	28.686505	0.000212	20.834086
2498.686326	-3.026100	2.896700	-8.764500	28.692502	0.000215	20.807409
2499.685878	-3.007800	2.895100	-8.706400	28.642083	0.000214	20.823957
2500.694211	-2.986700	2.893700	-8.640700	28.588391	0.000211	20.828201
2501.688913	-2.988800	2.893500	-8.646600	28.524809	0.000214	20.827704
2502.687717	-3.001500	2.889800	-8.673000	28.426427	0.000212	20.825832
2503.691906	-2.990900	2.889000	-8.639600	28.396093	0.000214	20.818521
2504.692243	-2.985200	2.887400	-8.618400	28.371114	0.000214	20.829878
2505.689033	-3.007900	2.884600	-8.675200	28.382914	0.000211	20.831329
2506.693394	-3.013300	2.882500	-8.685100	28.389283	0.000212	20.835845
2507.691927	-3.001900	2.879900	-8.643900	28.392509	0.000212	20.815860
2508.691855	-3.004700	2.878500	-8.648000	28.422990	0.000212	20.818105
2509.693926	-2.988900	2.877800	-8.600700	28.431147	0.000213	20.824422
2510.694324	-2.979900	2.875500	-8.567300	28.428398	0.000212	20.828292
2511.692829	-3.002000	2.872700	-8.623300	28.457246	0.000212	20.815616
2512.692059	-3.004800	2.871200	-8.626600	28.472465	0.000213	20.809605
2513.695340	-3.005300	2.869000	-8.621300	28.504830	0.000213	20.831292
2514.692435	-3.025900	2.867000	-8.674000	28.537543	0.000212	20.812079
2515.693605	-3.029900	2.863700	-8.675900	28.593694	0.000212	20.838283
2516.693776	-2.995600	2.863100	-8.575700	28.636163	0.000213	20.813727
2517.697384	-3.003700	2.861000	-8.592100	28.603509	0.000213	20.835840
2518.696065	-2.994800	2.859600	-8.562900	28.654254	0.000214	20.820094
2519.695681	-2.981100	2.857900	-8.517100	28.681757	0.000215	20.835467
2520.696025	-3.014000	2.854500	-8.602100	28.727397	0.000215	20.834971
2521.697743	-2.993700	2.854100	-8.543400	28.762305	0.000215	20.813234
2522.696558	-3.018100	2.850300	-8.600600	28.805562	0.000214	20.836894
2523.695810	-3.009400	2.848400	-8.570600	28.807201	0.000214	20.827165
2524.698380	-2.976300	2.848200	-8.475700	28.816366	0.000214	20.831181
2525.697947	-3.010800	2.846200	-8.568600	28.803856	0.000214	20.829486
2526.696766	-2.988200	2.844400	-8.497200	28.754434	0.000214	20.834229
2527.697783	-3.005200	2.841500	-8.538100	28.704435	0.000215	20.813265
2528.697805	-3.014400	2.840300	-8.561100	28.687121	0.000212	20.844188
2529.700269	-3.010600	2.836700	-8.538200	28.718364	0.000215	20.839149
2530.700670	-3.001000	2.834400	-8.505000	28.726342	0.000214	20.845762
2531.700042	-2.986100	2.834100	-8.462000	28.717376	0.000213	20.842894
2532.700387	-2.981600	2.830400	-8.437900	28.699064	0.000213	20.852424
2533.700075	-2.990800	2.829000	-8.460400	28.708333	0.000214	20.847062
2534.701474	-2.987800	2.825900	-8.441500	28.734968	0.000213	20.830268
2535.702733	-2.978200	2.823300	-8.407400	28.755285	0.000215	20.822759
2536.705845	-3.010800	2.820100	-8.489600	28.752261	0.000214	20.841049
2537.701080	-2.990500	2.818900	-8.428500	28.721540	0.000214	20.832865
2538.703612	-2.997500	2.818700	-8.446100	28.740717	0.000214	20.837956
2539.702203	-2.997400	2.815000	-8.437400	28.787367	0.000214	20.847014
2540.704875	-2.999500	2.812800	-8.434600	28.770076	0.000215	20.831494
2541.705113	-2.995800	2.810100	-8.417600	28.809490	0.000214	20.819988
2542.703337	-3.008700	2.806500	-8.443500	28.809244	0.000215	20.855300
2543.701278	-3.003000	2.804700	-8.422000	28.815410	0.000215	20.835434
2544.702211	-3.000900	2.802900	-8.410400	28.849896	0.000215	20.838879
2545.712027	-3.000400	2.799800	-8.399300	28.869144	0.000214	20.860166
2546.702370	-3.008500	2.797400	-8.414300	28.827426	0.000214	20.854650
2547.703896	-2.985900	2.795600	-8.346100	28.827475	0.000215	20.854700
2548.703992	-2.969700	2.792100	-8.290000	28.826657	0.000215	20.847712
2549.706095	-3.003100	2.790500	-8.379300	28.820191	0.000215	20.859215
2550.706384	-2.986200	2.787000	-8.320900	28.822939	0.000215	20.856768
2551.705779	-3.018900	2.785200	-8.407300	28.787834	0.000214	20.857915
2552.710958	-2.977300	2.781000	-8.278300	28.818725	0.000214	20.862006
2553.704622	-2.967200	2.780100	-8.247200	28.802399	0.000216	20.855518
2554.705536	-3.015700	2.776400	-8.371000	28.787758	0.000215	20.850252
2555.710247	-3.026400	2.773000	-8.390200	28.712689	0.000214	20.864725
2556.705733	-3.020500	2.769000	-8.362800	28.671162	0.000215	20.844710
2557.705938	-3.031300	2.767300	-8.387500	28.661052	0.000215	20.853019
2558.709325	-3.014100	2.765100	-8.331400	28.686200	0.000215	20.846580
2559.706854	-3.012700	2.761800	-8.319700	28.723462	0.000213	20.867990
2560.706512	-2.999900	2.758300	-8.273300	28.761069	0.000215	20.875998
2561.710726	-2.996300	2.757200	-8.260000	28.806329	0.000215	20.858528
2562.707280	-2.967400	2.753500	-8.169900	28.839475	0.000213	20.862520
2563.707530	-2.992800	2.749800	-8.228200	28.910669	0.000214	20.865015
2564.708650	-3.000700	2.746400	-8.240000	28.923475	0.000213	20.858002
2565.708080	-3.012900	2.744800	-8.268100	28.882824	0.000215	20.871576
2566.709994	-3.015500	2.741300	-8.265100	28.831494	0.000214	20.871075
2567.711681	-3.035900	2.736800	-8.307800	28.810711	0.000215	20.879062
2568.708076	-3.007900	2.735700	-8.227100	28.757815	0.000216	20.864187
2569.708977	-2.994200	2.732300	-8.179300	28.777758	0.000214	20.880481
2570.709922	-3.033200	2.727800	-8.272500	28.824654	0.000218	20.877460
2571.710376	-2.996800	2.725000	-8.164600	28.848808	0.000216	20.870499
2572.714258	-3.019200	2.720800	-8.212900	28.914550	0.000215	20.877458
2573.712421	-3.034300	2.715000	-8.237100	28.946381	0.000216	20.864483
2574.715723	-3.012300	2.714100	-8.173800	28.943357	0.000214	20.882773
2575.712625	-2.993500	2.710500	-8.113000	28.973203	0.000214	20.891504
2576.712297	-3.024600	2.707200	-8.187200	28.993291	0.000216	20.882346
2577.711885	-3.000900	2.705500	-8.117300	29.046369	0.000216	20.877978
2578.717114	-3.001100	2.701500	-8.106600	29.106404	0.000214	20.897690
2579.715966	-2.973700	2.697300	-8.018900	29.077103	0.000214	20.877651
2580.715466	-2.988800	2.692500	-8.045600	29.070786	0.000215	20.885036
2581.718462	-2.924100	2.690200	-7.865100	28.983154	0.000215	20.882564
2582.716765	-3.048400	2.684600	-8.182900	28.920956	0.000215	20.891024
2583.713557	-3.024600	2.682300	-8.111900	28.942875	0.000214	20.915475
2584.718017	-2.982000	2.678600	-7.986900	28.950132	0.000216	20.887701
2585.714575	-3.007900	2.676500	-8.049600	28.988055	0.000215	20.884657
2586.714652	-3.012700	2.670700	-8.044800	29.069393	0.000215	20.901649
2587.719810	-3.011500	2.666700	-8.029500	29.111147	0.000216	20.908158
2588.716103	-2.989300	2.662300	-7.957400	29.142253	0.000215	20.890666
2589.716329	-2.989900	2.658300	-7.947200	29.169072	0.000215	20.889241
2590.721581	-3.001400	2.654700	-7.966600	29.253319	0.000214	20.885473
2591.718908	-2.995900	2.650000	-7.938000	29.266939	0.000213	20.907258
2592.717323	-2.994900	2.645900	-7.922500	29.298459	0.000213	20.904411
2593.721419	-2.995300	2.642000	-7.912100	29.330353	0.000215	20.904786
2594.718848	-2.999100	2.637200	-7.907100	29.320446	0.000213	20.894803
2595.717386	-2.991000	2.632500	-7.873500	29.297940	0.000214	20.906732
2596.721334	-2.968900	2.629400	-7.805200	29.283303	0.000213	20.908103
2597.724007	-2.990700	2.622700	-7.842800	29.316584	0.000214	20.896600
2598.718914	-3.032800	2.615800	-7.931700	29.276073	0.000213	20.911721
2599.720441	-3.017700	2.613800	-7.886900	29.274736	0.000215	20.917485
2600.717917	-2.989600	2.608700	-7.798100	29.322924	0.000213	20.902989
2601.718812	-2.989200	2.604000	-7.782900	29.325375	0.000213	20.889813
2602.718766	-2.986200	2.599200	-7.760900	29.264708	0.000215	20.900268
2603.719711	-3.019300	2.593500	-7.829100	29.222512	0.000214	20.917487
2604.720459	-3.008300	2.589400	-7.788300	29.245666	0.000214	20.907156
2605.727633	-2.983700	2.583200	-7.706200	29.215898	0.000212	20.907030
2606.723449	-2.992500	2.578600	-7.715400	29.218847	0.000212	20.933232
2607.724182	-3.031800	2.571600	-7.795700	29.262924	0.000213	20.899894
2608.723106	-3.004300	2.566300	-7.709300	29.298856	0.000215	20.923775
2609.722389	-3.007900	2.560500	-7.700200	29.341819	0.000214	20.911599
2610.727032	-3.023800	2.554200	-7.721900	29.356826	0.000214	20.923878
2611.724005	-2.988100	2.548900	-7.616000	29.353755	0.000215	20.901345
2612.726393	-3.008100	2.542300	-7.646400	29.404686	0.000216	20.906684
2613.725966	-3.015400	2.537700	-7.650700	29.381536	0.000216	20.929816
2614.740851	-2.981500	2.532300	-7.548100	29.393297	0.000214	20.935979
2615.727351	-3.026400	2.524900	-7.640600	29.402383	0.000215	20.940869
2616.723934	-3.043100	2.518300	-7.663100	29.436898	0.000216	20.924452
2617.724845	-3.007900	2.512800	-7.557600	29.454624	0.000214	20.903914
2618.725551	-2.991600	2.506600	-7.497100	29.426599	0.000214	20.909804
2619.725004	-2.988600	2.501000	-7.473800	29.434298	0.000215	20.907133
2620.727842	-3.017300	2.494400	-7.524900	29.425756	0.000217	20.935031
