LabVIEW Measurement	
Writer_Version	2
Reader_Version	2
Separator	Tab
Decimal_Separator	.
Multi_Headings	No
X_Columns	One
Time_Pref	Absolute
Operator	admin
Description	Clolumns are: time, Current, Voltage, Power, Battery Temp, and Chamber Temp
Date	2024/08/16
Time	13:06:06.104549407958984375
***End_of_Header***	
	
Channels	6						
Samples	1	1	1	1	1	1	
Date	2024/08/24	2024/08/24	2024/08/24	2024/08/24	2024/08/24	2024/08/24	
Time	01:43:19.0675816535949707031	01:43:19.0761637687683105469	01:43:19.0837087631225585938	01:43:19.05158233642578125	01:43:19.05158233642578125	01:43:19.05158233642578125	
X_Dimension	Time	Time	Time	Time	Time	Time	
X0	0.0000000000000000E+0	0.0000000000000000E+0	0.0000000000000000E+0	0.0000000000000000E+0	0.0000000000000000E+0	0.0000000000000000E+0	
Delta_X	1.000000	1.000000	1.000000	1.000000	1.000000	1.000000	
***End_of_Header***							
X_Value	Untitled	Untitled 1	Untitled 2	Untitled 3	Untitled 4	Untitled 5	Comment
0.000000	-0.005113	4.107600	-0.020962	21.025915	0.000971	20.798344
1.004171	-2.987900	3.953400	-11.811000	21.019253	0.000971	20.802586
1.999914	-2.999300	3.945600	-11.833000	21.005706	0.000971	20.801364
3.001934	-2.993300	3.942400	-11.800000	21.025766	0.000971	20.796298
4.011443	-3.021100	3.936200	-11.891000	21.057678	0.000969	20.789336
5.001371	-3.020800	3.932900	-11.879000	21.029186	0.000970	20.764157
6.004195	-2.998500	3.931100	-11.785000	21.044404	0.000967	20.775586
7.012069	-3.005500	3.927800	-11.805000	21.013892	0.000966	20.798172
8.000661	-3.013700	3.924100	-11.825000	21.039541	0.000967	20.798696
9.005507	-3.001600	3.923800	-11.777000	21.017011	0.000965	20.784697
10.001056	-2.997800	3.922400	-11.757000	21.036597	0.000963	20.787217
11.003763	-2.982200	3.920100	-11.688000	21.040341	0.000965	20.771521
12.008471	-3.013200	3.918100	-11.805000	21.036300	0.000963	20.797825
13.000890	-2.980100	3.918200	-11.675000	21.038247	0.000963	20.777487
14.005587	-2.991500	3.916100	-11.713000	21.041290	0.000963	20.781005
15.004699	-2.998800	3.915200	-11.739000	21.056809	0.000960	20.787993
16.009003	-3.008100	3.913900	-11.772000	21.067288	0.000960	20.789466
17.004758	-3.015500	3.911300	-11.793000	21.054116	0.000958	20.750685
18.006410	-2.994400	3.911200	-11.710000	21.071006	0.000958	20.797452
19.018566	-3.001600	3.910500	-11.737000	21.073177	0.000959	20.779235
20.005210	-2.989100	3.908100	-11.681000	21.072080	0.000956	20.785249
21.008665	-3.002600	3.907000	-11.730000	21.081837	0.000955	20.798802
22.009020	-2.989000	3.908800	-11.683000	21.068887	0.000957	20.786797
23.011658	-2.993500	3.905300	-11.689000	21.084906	0.000955	20.786225
24.008213	-2.990800	3.905000	-11.678000	21.087227	0.000956	20.779537
25.008265	-2.993400	3.905000	-11.688000	21.112750	0.000955	20.773772
26.006483	-3.003100	3.903900	-11.723000	21.111901	0.000954	20.784778
27.009769	-2.987100	3.904700	-11.663000	21.101273	0.000955	20.771302
28.013012	-2.998700	3.901900	-11.699000	21.093341	0.000955	20.771902
29.009570	-3.013200	3.902100	-11.757000	21.124302	0.000951	20.794337
30.011342	-3.002900	3.899900	-11.708000	21.117667	0.000952	20.767311
31.010816	-2.993900	3.901500	-11.679000	21.148229	0.000952	20.767062
32.017313	-3.012200	3.900400	-11.746000	21.122531	0.000950	20.772651
33.020488	-2.992600	3.900200	-11.670000	21.139346	0.000950	20.785203
34.020922	-2.978200	3.899100	-11.611000	21.137075	0.000950	20.782932
35.010882	-2.981800	3.897900	-11.621000	21.150274	0.000949	20.774798
36.017447	-2.998500	3.897700	-11.686000	21.143587	0.000950	20.760996
37.014323	-2.985300	3.899400	-11.639000	21.134408	0.000948	20.778367
38.014582	-2.996200	3.897100	-11.675000	21.167040	0.000949	20.772129
39.020032	-2.991500	3.897500	-11.658000	21.184828	0.000950	20.768585
40.012566	-3.018000	3.895100	-11.755000	21.177642	0.000948	20.772777
41.023295	-3.014000	3.895700	-11.741000	21.182458	0.000947	20.772379
42.012286	-3.011400	3.894900	-11.728000	21.164022	0.000948	20.778593
43.011802	-3.010900	3.893800	-11.723000	21.200745	0.000946	20.777395
44.012719	-3.005000	3.894000	-11.700000	21.186001	0.000945	20.778768
45.017707	-3.010000	3.893500	-11.718000	21.189095	0.000945	20.764319
46.018014	-3.014800	3.893900	-11.738000	21.196954	0.000945	20.763646
47.017190	-2.998800	3.893500	-11.675000	21.205511	0.000944	20.769361
48.024145	-3.022000	3.891900	-11.761000	21.194160	0.000945	20.759428
49.014105	-2.981200	3.891800	-11.601000	21.213570	0.000945	20.776475
50.028014	-2.962800	3.892000	-11.530000	21.223274	0.000945	20.769587
51.014915	-2.983000	3.890200	-11.604000	21.226791	0.000944	20.750346
52.017809	-2.996900	3.889800	-11.656000	21.241959	0.000943	20.764571
53.014673	-3.007500	3.889500	-11.697000	21.234252	0.000943	20.765870
54.024756	-2.997400	3.888900	-11.656000	21.252014	0.000944	20.751396
55.019301	-2.990800	3.889300	-11.630000	21.235874	0.000943	20.770812
56.018554	-2.989400	3.889200	-11.626000	21.251591	0.000942	20.766621
57.021505	-3.019600	3.887900	-11.739000	21.255582	0.000941	20.757811
58.032797	-3.014000	3.888400	-11.719000	21.238595	0.000942	20.756938
59.020404	-2.997600	3.888800	-11.655000	21.258352	0.000941	20.765798
60.024055	-2.998500	3.887700	-11.655000	21.264663	0.000943	20.747929
61.018101	-3.008100	3.887100	-11.691000	21.272372	0.000943	20.769867
62.018739	-3.010800	3.886400	-11.700000	21.288188	0.000943	20.747282
63.024511	-3.004200	3.886500	-11.674000	21.267008	0.000942	20.744111
64.022246	-3.035800	3.886000	-11.795000	21.287739	0.000943	20.750626
65.021885	-3.014500	3.885900	-11.713000	21.302332	0.000939	20.744362
66.023003	-3.022500	3.885000	-11.741000	21.308343	0.000941	20.748953
67.029918	-3.009400	3.885000	-11.691000	21.325481	0.000942	20.755194
68.023443	-2.990200	3.886900	-11.622000	21.318919	0.000939	20.743413
69.021277	-3.031500	3.884900	-11.775000	21.337977	0.000941	20.751574
70.019847	-3.022200	3.883000	-11.735000	21.325005	0.000940	20.756141
71.025373	-3.005400	3.884000	-11.672000	21.342567	0.000938	20.751425
72.021489	-2.997100	3.885200	-11.643000	21.344087	0.000939	20.739195
73.019848	-3.006500	3.884500	-11.678000	21.358306	0.000938	20.748205
74.021904	-2.983800	3.884400	-11.589000	21.371450	0.000939	20.733854
75.023173	-2.979400	3.884000	-11.570000	21.356659	0.000938	20.750825
76.023505	-3.001100	3.883300	-11.654000	21.359551	0.000940	20.745184
77.027392	-3.004200	3.882600	-11.663000	21.378261	0.000939	20.719804
78.020954	-3.005600	3.882300	-11.667000	21.364891	0.000938	20.751475
79.022183	-3.001500	3.883100	-11.654000	21.389010	0.000938	20.745260
80.025389	-3.006300	3.882700	-11.672000	21.380155	0.000938	20.751573
81.022917	-3.019300	3.880300	-11.714000	21.387588	0.000938	20.747630
82.030897	-2.988500	3.881300	-11.597000	21.404498	0.000938	20.730409
83.025233	-2.993100	3.881400	-11.617000	21.380355	0.000937	20.737548
84.026243	-3.008900	3.881300	-11.677000	21.398289	0.000938	20.758337
85.029248	-3.025400	3.881800	-11.744000	21.402031	0.000938	20.741217
86.036628	-2.995500	3.881300	-11.624000	21.426898	0.000939	20.749502
87.028323	-3.004900	3.880800	-11.661000	21.417370	0.000937	20.753720
88.029042	-2.997700	3.880900	-11.631000	21.427297	0.000940	20.717183
89.034925	-2.991100	3.879800	-11.603000	21.448847	0.000937	20.743963
90.031917	-2.987400	3.880200	-11.590000	21.450743	0.000935	20.721202
91.032951	-2.976200	3.880300	-11.547000	21.455157	0.000936	20.738422
92.041446	-2.989600	3.879900	-11.598000	21.472268	0.000937	20.732783
93.029403	-2.989000	3.879500	-11.594000	21.488903	0.000939	20.726194
94.031898	-3.004800	3.877700	-11.651000	21.494314	0.000939	20.726393
95.034446	-3.005800	3.879000	-11.658000	21.482169	0.000938	20.744588
96.029931	-3.009200	3.877700	-11.666000	21.508331	0.000937	20.711494
97.030111	-3.002200	3.877700	-11.641000	21.483914	0.000936	20.726892
98.034255	-3.021300	3.877800	-11.716000	21.500826	0.000938	20.719157
99.035496	-3.022600	3.878300	-11.722000	21.498531	0.000936	20.738674
100.031751	-3.010400	3.877600	-11.672000	21.508034	0.000937	20.741071
101.030811	-3.018100	3.877500	-11.701000	21.495737	0.000937	20.724972
102.036259	-3.003600	3.878000	-11.647000	21.522696	0.000936	20.723024
103.038452	-3.010900	3.876900	-11.671000	21.523994	0.000936	20.739970
104.034790	-3.011100	3.876300	-11.671000	21.522101	0.000937	20.717686
105.031210	-3.003000	3.875700	-11.637000	21.545318	0.000937	20.728591
106.035867	-3.021600	3.876300	-11.712000	21.533896	0.000938	20.731387
107.034600	-3.001000	3.874600	-11.625000	21.562899	0.000936	20.737175
108.038147	-2.990900	3.874400	-11.587000	21.559434	0.000937	20.734656
109.035436	-2.995100	3.874600	-11.604000	21.561928	0.000936	20.736203
110.041821	-3.000800	3.875300	-11.627000	21.565344	0.000939	20.737251
111.045179	-2.996400	3.873300	-11.604000	21.587939	0.000937	20.729989
112.036399	-2.996400	3.874900	-11.609000	21.573600	0.000938	20.729390
113.047893	-2.995100	3.874600	-11.603000	21.588663	0.000938	20.730239
114.035678	-2.981300	3.874600	-11.551000	21.604822	0.000938	20.738350
115.037601	-3.005100	3.875400	-11.645000	21.603800	0.000937	20.743965
116.035990	-2.991800	3.875800	-11.594000	21.621383	0.000937	20.717462
117.038038	-3.007300	3.874500	-11.650000	21.603626	0.000939	20.735730
118.042822	-3.002400	3.874100	-11.631000	21.619938	0.000938	20.723603
119.043060	-3.013900	3.874800	-11.676000	21.633604	0.000939	20.735383
120.045087	-3.001800	3.873600	-11.627000	21.645124	0.000939	20.746439
121.053975	-2.998700	3.874600	-11.617000	21.651858	0.000938	20.729943
122.036700	-3.014800	3.873200	-11.676000	21.639238	0.000939	20.731539
123.040535	-3.013600	3.872100	-11.667000	21.658391	0.000938	20.721307
124.047818	-2.987100	3.874100	-11.571000	21.680957	0.000939	20.732038
125.045353	-3.007400	3.872200	-11.644000	21.640661	0.000938	20.732963
126.052908	-2.977100	3.873100	-11.529000	21.682082	0.000938	20.741698
127.038902	-3.003900	3.872200	-11.631000	21.658989	0.000940	20.733286
128.040112	-3.019200	3.871200	-11.687000	21.689537	0.000940	20.729244
129.042623	-2.975700	3.872500	-11.523000	21.682355	0.000938	20.741972
130.043732	-3.007800	3.871900	-11.645000	21.663580	0.000940	20.738830
131.045143	-2.995200	3.871200	-11.593000	21.690161	0.000941	20.745042
132.044349	-3.007000	3.870300	-11.637000	21.714824	0.000939	20.727050
133.052353	-3.003700	3.870000	-11.623000	21.705897	0.000940	20.740401
134.054543	-3.004500	3.871900	-11.633000	21.727467	0.000941	20.735436
135.046241	-3.012000	3.869700	-11.655000	21.722154	0.000941	20.740077
136.044449	-2.996200	3.870500	-11.595000	21.725696	0.000940	20.736034
137.049216	-3.016800	3.868700	-11.670000	21.724599	0.000940	20.723556
138.053022	-3.004400	3.869100	-11.622000	21.742801	0.000941	20.714746
139.047434	-2.978900	3.871400	-11.531000	21.725795	0.000939	20.734237
140.049191	-3.003200	3.869700	-11.620000	21.747464	0.000940	20.738854
141.044963	-3.002800	3.870100	-11.620000	21.746567	0.000940	20.749810
142.047923	-3.011600	3.869300	-11.651000	21.740782	0.000942	20.731218
143.044263	-2.983100	3.868700	-11.539000	21.754894	0.000941	20.724478
144.046246	-2.997300	3.868900	-11.594000	21.763397	0.000942	20.731566
145.050645	-2.996300	3.868700	-11.592000	21.767038	0.000941	20.723830
146.047520	-2.995700	3.868200	-11.587000	21.760007	0.000940	20.734812
147.056148	-3.003200	3.867500	-11.614000	21.779804	0.000941	20.748937
148.055281	-3.014300	3.866800	-11.653000	21.775191	0.000942	20.707807
149.052401	-3.005300	3.866900	-11.620000	21.781101	0.000942	20.746441
150.050093	-3.009000	3.868200	-11.638000	21.792395	0.000942	20.737356
151.051348	-2.991500	3.867200	-11.569000	21.792495	0.000942	20.741249
152.054061	-3.017600	3.866000	-11.666000	21.774444	0.000943	20.740252
153.054749	-2.985100	3.867500	-11.543000	21.784717	0.000942	20.735361
154.057415	-2.974600	3.867500	-11.503000	21.800773	0.000944	20.736732
155.055193	-2.998000	3.866800	-11.592000	21.806259	0.000946	20.738904
156.054511	-2.990600	3.865100	-11.557000	21.787658	0.000943	20.741624
157.049826	-2.980900	3.866900	-11.526000	21.820047	0.000944	20.730419
158.062943	-2.995600	3.866600	-11.582000	21.810745	0.000943	20.734859
159.067328	-3.002900	3.865400	-11.605000	21.802617	0.000947	20.749010
160.055918	-2.992100	3.866400	-11.567000	21.818824	0.000944	20.749109
161.052496	-3.020700	3.865800	-11.676000	21.807729	0.000947	20.740849
162.058452	-3.018300	3.864900	-11.664000	21.828398	0.000945	20.728819
163.060946	-3.028200	3.864500	-11.702000	21.833385	0.000947	20.731915
164.064216	-2.991000	3.865400	-11.561000	21.824459	0.000946	20.719186
165.055678	-3.031400	3.864800	-11.715000	21.825954	0.000947	20.733012
166.053319	-2.980100	3.865900	-11.519000	21.843458	0.000948	20.735833
167.062362	-3.007300	3.865000	-11.622000	21.846025	0.000945	20.736980
168.058201	-2.996900	3.864000	-11.577000	21.857345	0.000947	20.750207
169.059627	-2.989000	3.864400	-11.549000	21.889807	0.000947	20.757096
170.059663	-2.973800	3.865400	-11.493000	21.872253	0.000950	20.736680
171.062626	-3.003100	3.863400	-11.602000	21.857742	0.000947	20.739225
172.058218	-2.982200	3.864700	-11.525000	21.914663	0.000947	20.750207
173.059339	-3.003700	3.863900	-11.605000	21.898332	0.000948	20.747137
174.069247	-3.005000	3.863100	-11.608000	21.926630	0.000949	20.730890
175.054973	-2.971500	3.863600	-11.479000	21.917828	0.000948	20.730141
176.065834	-3.009800	3.861600	-11.622000	21.905562	0.000949	20.748209
177.062999	-3.001900	3.861900	-11.592000	21.926080	0.000947	20.756420
178.064261	-3.006100	3.861500	-11.608000	21.927925	0.000950	20.741196
179.071946	-2.997500	3.861600	-11.574000	21.948019	0.000951	20.757043
180.064507	-2.996900	3.861600	-11.572000	21.951883	0.000950	20.745738
181.062976	-3.004800	3.861300	-11.602000	21.945352	0.000952	20.751055
182.066217	-2.994800	3.861700	-11.565000	21.960958	0.000951	20.759091
183.064573	-3.006900	3.860700	-11.607000	21.972350	0.000953	20.762907
184.059609	-3.012400	3.861000	-11.630000	21.987208	0.000952	20.755021
185.061211	-2.993500	3.861700	-11.559000	21.981025	0.000953	20.764005
186.067142	-2.995200	3.862100	-11.566000	21.988180	0.000951	20.742717
187.069293	-3.006500	3.859100	-11.601000	21.983967	0.000953	20.750354
188.065074	-2.999200	3.860700	-11.577000	21.994139	0.000955	20.756743
189.064286	-2.981200	3.859800	-11.506000	22.027044	0.000954	20.754596
190.065279	-3.006000	3.860000	-11.602000	22.046888	0.000954	20.755021
191.061577	-3.000800	3.859800	-11.582000	22.046065	0.000953	20.743291
192.072043	-3.015200	3.858800	-11.634000	22.060673	0.000954	20.750329
193.060388	-3.000800	3.859600	-11.580000	22.060423	0.000955	20.755294
194.067369	-3.005000	3.858100	-11.592000	22.045740	0.000955	20.754346
195.083734	-2.991500	3.860100	-11.546000	22.063240	0.000957	20.769495
196.066697	-3.007100	3.857700	-11.600000	22.097290	0.000957	20.768021
197.075557	-2.971300	3.859900	-11.469000	22.084129	0.000956	20.742991
198.066583	-3.001800	3.859600	-11.584000	22.096018	0.000956	20.766748
199.063087	-2.989200	3.858100	-11.532000	22.100380	0.000959	20.769218
200.065041	-2.974900	3.858800	-11.479000	22.062590	0.000958	20.771214
201.074999	-2.994600	3.858400	-11.553000	22.059973	0.000957	20.761956
202.071052	-3.016000	3.859100	-11.638000	22.082282	0.000959	20.768643
203.070309	-3.017900	3.857300	-11.640000	22.073359	0.000959	20.768719
204.063569	-3.009000	3.856800	-11.604000	22.081036	0.000961	20.776405
205.070699	-3.006400	3.856900	-11.593000	22.094149	0.000961	20.770566
206.071050	-3.009700	3.855900	-11.605000	22.093998	0.000961	20.786063
207.065941	-3.010700	3.856300	-11.609000	22.108231	0.000962	20.757638
208.067545	-2.988500	3.857100	-11.525000	22.103320	0.000962	20.768368
209.065718	-3.010500	3.855300	-11.606000	22.112617	0.000962	20.761554
210.066791	-2.975500	3.857000	-11.475000	22.129443	0.000965	20.777926
211.070748	-2.990900	3.854800	-11.528000	22.122387	0.000962	20.774655
212.074218	-2.999900	3.857200	-11.570000	22.114286	0.000963	20.773657
213.079189	-3.000000	3.854900	-11.564000	22.115058	0.000964	20.768266
214.070277	-2.997700	3.856600	-11.559000	22.118971	0.000962	20.775977
215.073346	-2.999300	3.855500	-11.562000	22.128144	0.000965	20.794643
216.072991	-3.010600	3.855800	-11.607000	22.130088	0.000966	20.789477
217.079465	-3.005300	3.856100	-11.588000	22.135695	0.000966	20.777073
218.068671	-2.988400	3.855400	-11.521000	22.136295	0.000965	20.779096
219.065560	-3.000700	3.854100	-11.564000	22.138413	0.000966	20.780742
220.069830	-3.005500	3.854900	-11.585000	22.155386	0.000968	20.788253
221.069944	-3.023200	3.852800	-11.648000	22.176123	0.000964	20.795264
222.069789	-2.982400	3.854800	-11.497000	22.196214	0.000968	20.774127
223.074081	-2.997200	3.854500	-11.552000	22.201024	0.000966	20.793168
224.070772	-3.006600	3.853800	-11.585000	22.220241	0.000967	20.774950
225.074177	-3.002000	3.853000	-11.565000	22.204813	0.000967	20.778470
226.080177	-3.012700	3.854000	-11.610000	22.217149	0.000969	20.787976
227.071002	-3.008700	3.853600	-11.593000	22.222084	0.000971	20.784856
228.071008	-2.972800	3.854800	-11.457000	22.211142	0.000968	20.803299
229.075094	-2.996700	3.853400	-11.546000	22.235617	0.000969	20.792242
230.079165	-2.988800	3.852800	-11.514000	22.215378	0.000968	20.775297
231.067773	-2.996600	3.851200	-11.540000	22.253885	0.000970	20.783507
232.093298	-2.987100	3.852400	-11.505000	22.235094	0.000969	20.790296
233.067324	-2.981500	3.852500	-11.485000	22.249176	0.000971	20.794439
234.066630	-2.997800	3.850700	-11.543000	22.279157	0.000972	20.801699
235.071543	-2.983900	3.851800	-11.492000	22.275245	0.000971	20.786876
236.069278	-3.004200	3.850300	-11.565000	22.266097	0.000973	20.800476
237.074965	-2.984300	3.852300	-11.495000	22.275094	0.000974	20.806166
238.077170	-3.016300	3.849300	-11.609000	22.296852	0.000971	20.798080
239.078444	-2.990700	3.850500	-11.514000	22.310734	0.000974	20.803445
240.071333	-2.993100	3.849600	-11.521000	22.314073	0.000975	20.769331
241.081655	-2.994800	3.849900	-11.529000	22.325486	0.000974	20.798303
242.074558	-3.016200	3.849100	-11.609000	22.311655	0.000977	20.797729
243.079233	-3.010300	3.850700	-11.590000	22.311582	0.000976	20.803820
244.073851	-2.987100	3.851500	-11.504000	22.285037	0.000977	20.812802
245.076371	-2.999000	3.850500	-11.546000	22.324415	0.000975	20.806239
246.070680	-2.996300	3.850200	-11.535000	22.334957	0.000979	20.812527
247.079915	-3.003000	3.848300	-11.556000	22.323043	0.000977	20.787796
248.079830	-2.991600	3.848900	-11.514000	22.337623	0.000976	20.821361
249.081302	-2.998300	3.848200	-11.536000	22.325859	0.000979	20.809582
250.079861	-3.021000	3.847700	-11.623000	22.343827	0.000980	20.808133
251.077019	-3.001600	3.850000	-11.554000	22.343229	0.000981	20.800422
252.091543	-2.988700	3.849600	-11.503000	22.351802	0.000981	20.822283
253.081178	-2.985500	3.847200	-11.485000	22.357458	0.000979	20.812300
254.074386	-3.005100	3.847700	-11.560000	22.364411	0.000981	20.824952
255.086383	-2.978000	3.848100	-11.459000	22.369620	0.000982	20.825426
256.084678	-2.982200	3.847400	-11.473000	22.363067	0.000981	20.824080
257.076837	-3.008300	3.845800	-11.568000	22.399102	0.000983	20.811802
258.082059	-2.996200	3.847900	-11.528000	22.412783	0.000982	20.812225
259.082184	-2.998300	3.845100	-11.528000	22.419411	0.000983	20.826449
260.076862	-3.000500	3.845900	-11.538000	22.430551	0.000984	20.807734
261.084245	-2.997100	3.846300	-11.527000	22.449815	0.000982	20.798101
262.082839	-2.991700	3.846300	-11.506000	22.460430	0.000985	20.824853
263.081417	-2.994300	3.845400	-11.513000	22.467931	0.000985	20.794907
264.083527	-3.004900	3.844400	-11.550000	22.447447	0.000985	20.832240
265.078013	-3.024600	3.844800	-11.628000	22.472067	0.000985	20.837929
266.083040	-2.994600	3.845500	-11.515000	22.488988	0.000986	20.805089
267.084258	-2.994200	3.844300	-11.510000	22.499179	0.000986	20.823830
268.087633	-3.008900	3.842800	-11.561000	22.542984	0.000989	20.822182
269.082245	-2.970900	3.845100	-11.423000	22.503440	0.000987	20.817666
270.093163	-2.989300	3.845300	-11.493000	22.509995	0.000988	20.819489
271.088459	-2.984100	3.844700	-11.472000	22.535360	0.000988	20.831142
272.081639	-2.987300	3.842700	-11.478000	22.533440	0.000989	20.816892
273.085079	-3.006600	3.843000	-11.553000	22.530800	0.000988	20.837480
274.077941	-2.980300	3.844400	-11.454000	22.566406	0.000990	20.825252
275.083113	-3.005000	3.844700	-11.552000	22.537054	0.000990	20.841847
276.088975	-3.003500	3.844000	-11.544000	22.554771	0.000991	20.829246
277.085185	-2.980300	3.843600	-11.454000	22.593017	0.000991	20.814920
278.082138	-2.992600	3.844900	-11.505000	22.592893	0.000991	20.811477
279.082709	-2.996200	3.843000	-11.513000	22.594712	0.000992	20.835109
280.083611	-2.990300	3.844000	-11.493000	22.586240	0.000993	20.830418
281.083665	-3.010000	3.842200	-11.564000	22.592570	0.000993	20.828697
282.092821	-3.001900	3.841400	-11.530000	22.582504	0.000994	20.837581
283.089319	-2.994900	3.841900	-11.505000	22.597678	0.000995	20.824330
284.089367	-2.992600	3.841300	-11.495000	22.557562	0.000995	20.827299
285.083279	-3.008200	3.841100	-11.554000	22.598699	0.000995	20.838155
286.087809	-3.002800	3.840500	-11.531000	22.600967	0.000996	20.850383
287.090095	-2.990100	3.842800	-11.488000	22.604903	0.000994	20.820187
288.084100	-3.013800	3.840300	-11.573000	22.620302	0.000995	20.835136
289.096397	-3.006400	3.840500	-11.544000	22.625433	0.000997	20.840275
290.098140	-3.001500	3.840700	-11.526000	22.631189	0.000996	20.835609
291.104470	-2.979000	3.840900	-11.441000	22.632660	0.000999	20.830918
292.103305	-3.014900	3.838600	-11.572000	22.643098	0.000997	20.832364
293.084001	-3.013800	3.839800	-11.572000	22.660216	0.000998	20.843345
294.092957	-3.000300	3.840000	-11.520000	22.661611	0.000999	20.850432
295.084606	-3.004100	3.839200	-11.533000	22.640059	0.001001	20.840225
296.100205	-2.973700	3.840000	-11.418000	22.647209	0.001000	20.837905
297.096180	-2.989800	3.839100	-11.475000	22.655184	0.001000	20.848262
298.092557	-3.010100	3.838500	-11.553000	22.659842	0.001001	20.833962
299.090173	-3.006600	3.838000	-11.538000	22.657599	0.001003	20.854474
300.095662	-2.991700	3.837900	-11.480000	22.677183	0.001002	20.838055
301.091430	-2.988700	3.838200	-11.471000	22.668911	0.001004	20.845890
302.090837	-2.978800	3.838700	-11.433000	22.677780	0.001002	20.844343
303.089052	-2.983000	3.838300	-11.448000	22.689940	0.001005	20.846566
304.094813	-3.005800	3.837900	-11.535000	22.703269	0.001003	20.854227
305.091015	-3.014000	3.836100	-11.561000	22.690812	0.001005	20.862612
306.087173	-3.000800	3.836300	-11.510000	22.693900	0.001006	20.852428
307.092131	-3.014800	3.837000	-11.566000	22.689591	0.001006	20.867078
308.092001	-2.985000	3.836900	-11.452000	22.678254	0.001007	20.857619
309.092941	-3.016500	3.836300	-11.572000	22.687173	0.001007	20.842372
310.092879	-2.979600	3.836800	-11.430000	22.687075	0.001007	20.861713
311.098418	-2.979300	3.837100	-11.430000	22.694499	0.001006	20.861089
312.100032	-3.008800	3.836200	-11.541000	22.690138	0.001006	20.856721
313.092243	-3.012200	3.836000	-11.553000	22.720708	0.001008	20.863159
314.088799	-3.003200	3.836300	-11.521000	22.709969	0.001009	20.839128
315.092333	-3.015500	3.835700	-11.566000	22.730024	0.001008	20.848785
316.091332	-3.006800	3.834100	-11.527000	22.739840	0.001009	20.869048
317.092177	-3.017200	3.834600	-11.568000	22.744574	0.001011	20.852453
318.095755	-3.012600	3.833700	-11.548000	22.755211	0.001011	20.859789
319.093059	-2.992400	3.833700	-11.471000	22.751972	0.001013	20.876932
320.094353	-2.982200	3.833000	-11.429000	22.783212	0.001010	20.858916
321.098932	-2.987600	3.832000	-11.448000	22.761265	0.001011	20.878655
322.096722	-3.002600	3.831900	-11.504000	22.799256	0.001012	20.871667
323.094479	-3.033100	3.832500	-11.623000	22.799081	0.001012	20.889508
324.097702	-3.003900	3.833400	-11.514000	22.798682	0.001012	20.855446
325.097077	-2.988000	3.833000	-11.452000	22.795544	0.001013	20.874587
326.102114	-2.965200	3.834600	-11.369000	22.804065	0.001015	20.859890
327.104826	-2.994600	3.832200	-11.475000	22.832587	0.001014	20.886090
328.109423	-3.000600	3.831800	-11.496000	22.813904	0.001014	20.892030
329.101126	-2.994000	3.832100	-11.473000	22.828252	0.001014	20.867051
330.104740	-3.009100	3.832800	-11.532000	22.827854	0.001015	20.859065
331.101158	-3.015700	3.831400	-11.553000	22.822573	0.001016	20.859939
332.098125	-2.981400	3.831300	-11.422000	22.828676	0.001018	20.871742
333.101477	-3.014400	3.829900	-11.543000	22.814700	0.001017	20.871492
334.101593	-3.004700	3.829600	-11.506000	22.813007	0.001017	20.893028
335.103709	-2.989900	3.831300	-11.452000	22.823969	0.001017	20.879354
336.104764	-3.005600	3.828700	-11.506000	22.860238	0.001019	20.877282
337.108466	-2.995800	3.831200	-11.477000	22.853862	0.001020	20.883696
338.106386	-3.013700	3.830800	-11.543000	22.872294	0.001018	20.888885
339.108841	-3.001800	3.829800	-11.495000	22.873964	0.001020	20.880127
340.099480	-3.018600	3.829000	-11.558000	22.871596	0.001022	20.896720
341.103197	-2.992900	3.830600	-11.464000	22.856326	0.001021	20.879527
342.104907	-3.008800	3.827700	-11.515000	22.882707	0.001021	20.875135
343.114262	-3.004600	3.827800	-11.500000	22.893940	0.001021	20.872165
344.105074	-2.981400	3.828600	-11.413000	22.881610	0.001022	20.902484
345.105902	-3.009000	3.827200	-11.514000	22.875832	0.001023	20.881050
346.104273	-2.997100	3.827400	-11.470000	22.879344	0.001021	20.883620
347.104930	-2.979200	3.829400	-11.408000	22.874536	0.001023	20.883545
348.106361	-2.993800	3.828600	-11.461000	22.887314	0.001023	20.902983
349.104302	-3.001100	3.827500	-11.486000	22.888760	0.001022	20.902535
350.105350	-2.996400	3.827900	-11.467000	22.882930	0.001024	20.887687
351.116145	-3.018600	3.827900	-11.554000	22.897703	0.001025	20.886365
352.104646	-3.010300	3.825900	-11.516000	22.905948	0.001027	20.875187
353.109458	-3.011400	3.824700	-11.515000	22.908787	0.001025	20.886564
354.115344	-2.992700	3.826100	-11.449000	22.927892	0.001027	20.889583
355.107515	-2.991800	3.824500	-11.441000	22.922288	0.001028	20.895348
356.107386	-2.996100	3.825400	-11.461000	22.930608	0.001029	20.911269
357.115890	-3.000300	3.826300	-11.479000	22.912699	0.001029	20.888112
358.107795	-2.983100	3.826300	-11.413000	22.935937	0.001028	20.905229
359.109711	-3.000100	3.826500	-11.478000	22.928415	0.001028	20.903856
360.122797	-3.019000	3.825100	-11.546000	22.930882	0.001030	20.884518
361.115320	-3.005500	3.825900	-11.496000	22.948493	0.001029	20.890783
362.124372	-2.994500	3.824100	-11.450000	22.927918	0.001029	20.873015
363.122420	-2.998900	3.824800	-11.469000	22.926025	0.001030	20.875860
364.121357	-3.010300	3.823300	-11.507000	22.947920	0.001030	20.874563
365.118877	-3.011600	3.825200	-11.519000	22.918801	0.001031	20.864356
366.118742	-2.996500	3.823800	-11.456000	22.933747	0.001033	20.874588
367.112058	-3.005700	3.822800	-11.488000	22.889384	0.001032	20.880876
368.127906	-2.992700	3.822900	-11.440000	22.901639	0.001032	20.868025
369.125921	-3.007300	3.822900	-11.496000	22.890454	0.001032	20.882423
370.124240	-3.005700	3.821700	-11.486000	22.898699	0.001034	20.869821
371.113212	-3.021200	3.822300	-11.547000	22.924980	0.001034	20.875761
372.109893	-2.992300	3.822400	-11.436000	22.924955	0.001035	20.871944
373.114144	-3.015400	3.820900	-11.520000	22.949066	0.001035	20.857694
374.124482	-2.974300	3.823500	-11.371000	22.955891	0.001035	20.870695
375.121885	-2.983200	3.823100	-11.403000	22.964709	0.001036	20.879055
376.112820	-2.988600	3.820800	-11.418000	22.966502	0.001037	20.877058
377.114332	-3.000700	3.820600	-11.464000	22.969117	0.001038	20.876834
378.113292	-2.998100	3.820100	-11.452000	22.994922	0.001037	20.861912
379.115022	-3.013800	3.819900	-11.512000	22.979379	0.001038	20.866727
380.114417	-3.005400	3.819400	-11.478000	22.989591	0.001037	20.863683
381.120087	-2.997900	3.819500	-11.450000	22.999978	0.001039	20.869348
382.112658	-3.010300	3.820000	-11.499000	23.008446	0.001039	20.866927
383.110664	-2.991100	3.819300	-11.422000	23.028646	0.001041	20.851606
384.111279	-2.993900	3.819500	-11.433000	23.032457	0.001040	20.853053
385.119019	-3.005600	3.818700	-11.477000	23.032531	0.001040	20.851705
386.113674	-3.039400	3.818100	-11.603000	23.047899	0.001041	20.847189
387.115505	-3.017300	3.817200	-11.516000	23.056417	0.001043	20.865206
388.116487	-3.025700	3.817500	-11.549000	23.053975	0.001041	20.873191
389.113642	-3.004500	3.816500	-11.465000	23.061796	0.001043	20.858743
390.115735	-3.008600	3.817900	-11.484000	23.055894	0.001043	20.861838
391.123692	-2.988400	3.819000	-11.412000	23.036168	0.001043	20.866254
392.123929	-3.010800	3.817600	-11.493000	23.047351	0.001042	20.849960
393.122589	-3.004300	3.818300	-11.469000	23.033527	0.001043	20.865581
394.118601	-3.002900	3.816500	-11.458000	23.052782	0.001044	20.849711
395.113831	-3.000900	3.817900	-11.456000	23.055621	0.001045	20.851607
396.117867	-2.998500	3.816400	-11.442000	23.060876	0.001044	20.873467
397.119746	-3.004900	3.815200	-11.462000	23.059856	0.001046	20.864859
398.120364	-2.976100	3.817600	-11.361000	23.069144	0.001044	20.857096
399.118910	-3.019700	3.814100	-11.516000	23.098758	0.001044	20.838882
400.117660	-3.003800	3.815900	-11.461000	23.092706	0.001045	20.841826
401.120976	-3.003200	3.814300	-11.453000	23.110464	0.001048	20.840654
402.122530	-2.999300	3.814500	-11.440000	23.126752	0.001047	20.846070
403.123033	-3.012300	3.814300	-11.488000	23.110714	0.001046	20.827628
404.123955	-3.008900	3.814800	-11.477000	23.085136	0.001047	20.840879
405.133500	-3.022300	3.812800	-11.522000	23.104737	0.001048	20.862415
406.126914	-3.024100	3.813300	-11.531000	23.103069	0.001049	20.847942
407.127207	-3.008800	3.813900	-11.472000	23.105933	0.001048	20.858872
408.119287	-2.989500	3.813300	-11.398000	23.112659	0.001048	20.834318
409.124065	-2.981200	3.814800	-11.371000	23.131338	0.001048	20.857302
410.124976	-3.000300	3.811700	-11.435000	23.111065	0.001050	20.836989
411.134640	-3.007300	3.811000	-11.460000	23.110941	0.001051	20.837339
412.130048	-3.014900	3.812200	-11.493000	23.104190	0.001050	20.834367
413.130365	-2.987000	3.811700	-11.384000	23.104990	0.001051	20.828530
414.130748	-3.012100	3.811700	-11.480000	23.136817	0.001051	20.835767
415.128242	-3.013600	3.810900	-11.483000	23.145159	0.001052	20.836066
416.131855	-2.979400	3.811200	-11.354000	23.149719	0.001052	20.833048
417.126730	-3.027200	3.809400	-11.532000	23.140404	0.001052	20.843154
418.127491	-3.019300	3.810100	-11.503000	23.108153	0.001052	20.820795
419.130159	-2.991700	3.810300	-11.398000	23.119012	0.001053	20.844003
420.138631	-2.968500	3.811300	-11.311000	23.112910	0.001053	20.832673
421.134030	-3.013700	3.810100	-11.481000	23.127281	0.001054	20.841383
422.138669	-2.997700	3.810000	-11.420000	23.163690	0.001054	20.835195
423.139113	-3.009500	3.810200	-11.465000	23.147304	0.001055	20.818301
424.141292	-2.995100	3.810000	-11.411000	23.174299	0.001055	20.805048
425.137384	-3.010500	3.809400	-11.467000	23.194021	0.001055	20.838088
426.127277	-2.998200	3.810000	-11.423000	23.181720	0.001054	20.823391
427.141120	-3.028600	3.806500	-11.527000	23.168197	0.001057	20.804624
428.136777	-3.005000	3.808100	-11.442000	23.171759	0.001056	20.828107
429.129192	-2.997300	3.807700	-11.412000	23.142945	0.001055	20.814407
430.140708	-3.008500	3.807600	-11.453000	23.146183	0.001054	20.829505
431.141512	-3.022600	3.805800	-11.501000	23.142945	0.001056	20.837640
432.133870	-3.006900	3.807400	-11.447000	23.162096	0.001056	20.811312
433.137795	-2.976900	3.808100	-11.335000	23.169691	0.001057	20.815130
434.134539	-2.996400	3.806200	-11.404000	23.197755	0.001057	20.825235
435.134905	-3.000700	3.805200	-11.417000	23.193773	0.001057	20.821244
436.134753	-2.994900	3.807600	-11.403000	23.213097	0.001057	20.832549
437.131708	-3.006600	3.807100	-11.445000	23.223207	0.001059	20.819447
438.133409	-3.013900	3.806300	-11.471000	23.252393	0.001057	20.797013
439.135362	-3.009400	3.804100	-11.447000	23.223257	0.001057	20.846523
440.140959	-3.004100	3.806200	-11.434000	23.223980	0.001059	20.813583
441.140322	-2.983200	3.804800	-11.350000	23.207967	0.001059	20.804649
442.140047	-3.004600	3.804300	-11.429000	23.227442	0.001060	20.824165
443.139066	-3.010100	3.805300	-11.453000	23.211827	0.001061	20.803301
444.141424	-3.021400	3.803200	-11.490000	23.232945	0.001063	20.824938
445.148488	-3.006800	3.804800	-11.439000	23.209985	0.001061	20.815206
446.139514	-2.966700	3.804200	-11.285000	23.245670	0.001062	20.825362
447.133701	-3.009900	3.803200	-11.446000	23.232322	0.001062	20.833323
448.138937	-2.979200	3.804700	-11.333000	23.263275	0.001062	20.809815
449.139497	-2.986600	3.802700	-11.356000	23.265366	0.001062	20.810488
450.137555	-2.993800	3.801700	-11.380000	23.292508	0.001062	20.826309
451.136197	-2.994300	3.802800	-11.387000	23.300601	0.001063	20.811662
452.135516	-3.026000	3.800900	-11.500000	23.291513	0.001062	20.814881
453.139953	-2.987500	3.800600	-11.352000	23.312803	0.001064	20.811088
454.146299	-3.005000	3.801800	-11.423000	23.319948	0.001062	20.822516
455.140320	-2.982800	3.801100	-11.336000	23.322140	0.001064	20.806695
456.144746	-3.003500	3.799900	-11.412000	23.289993	0.001064	20.809565
457.140061	-2.996600	3.799700	-11.386000	23.283990	0.001066	20.809238
458.139575	-2.979300	3.801400	-11.324000	23.305556	0.001067	20.812834
459.141468	-3.010300	3.799000	-11.435000	23.302417	0.001068	20.799256
460.142057	-3.021400	3.798600	-11.477000	23.298309	0.001067	20.805571
461.146592	-3.047200	3.798000	-11.571000	23.300375	0.001067	20.808590
462.147517	-3.009700	3.798200	-11.431000	23.274903	0.001069	20.804873
463.151108	-3.012900	3.797500	-11.441000	23.313349	0.001068	20.810687
464.141026	-3.021900	3.797400	-11.474000	23.314545	0.001066	20.796239
465.138083	-3.004000	3.798000	-11.409000	23.303015	0.001067	20.826883
466.143950	-2.997400	3.798500	-11.384000	23.323060	0.001066	20.803350
467.149065	-3.013700	3.798400	-11.445000	23.320744	0.001069	20.813831
468.143214	-3.017600	3.797500	-11.459000	23.338797	0.001068	20.809639
469.143991	-3.003300	3.797100	-11.402000	23.344524	0.001070	20.800206
470.141112	-2.988000	3.797500	-11.346000	23.359165	0.001070	20.776947
471.144476	-3.010600	3.797800	-11.433000	23.373008	0.001068	20.789874
472.153086	-2.993400	3.796200	-11.362000	23.372984	0.001069	20.795539
473.150625	-2.988100	3.796400	-11.343000	23.374352	0.001070	20.807342
474.149157	-3.001300	3.796100	-11.393000	23.394122	0.001069	20.778319
475.148925	-2.993300	3.795600	-11.361000	23.392054	0.001070	20.795213
476.146260	-2.992500	3.794700	-11.355000	23.412597	0.001069	20.793044
477.154110	-3.004700	3.794700	-11.401000	23.421559	0.001070	20.804872
478.144320	-3.016100	3.793600	-11.441000	23.406671	0.001071	20.799432
479.145074	-3.005800	3.794200	-11.404000	23.416480	0.001070	20.796935
480.150979	-3.014800	3.793900	-11.437000	23.422779	0.001070	20.814154
481.146770	-2.991200	3.793700	-11.347000	23.443319	0.001068	20.791120
482.153562	-3.002000	3.793500	-11.387000	23.440282	0.001071	20.821266
483.153250	-2.994900	3.793200	-11.359000	23.440007	0.001071	20.797284
484.147799	-2.993500	3.792300	-11.351000	23.432165	0.001071	20.792269
485.157526	-3.004200	3.792900	-11.393000	23.409457	0.001071	20.792741
486.148314	-3.005700	3.792300	-11.397000	23.435925	0.001072	20.810736
487.149447	-2.996500	3.792100	-11.362000	23.441626	0.001071	20.796062
488.155258	-2.983300	3.792200	-11.312000	23.435674	0.001072	20.803846
489.161340	-2.999600	3.791400	-11.372000	23.455542	0.001071	20.801949
490.157281	-2.993700	3.791100	-11.348000	23.466448	0.001072	20.794389
491.153662	-2.986000	3.791700	-11.320000	23.445858	0.001073	20.782285
492.149919	-3.004500	3.789900	-11.387000	23.459477	0.001072	20.789298
493.155646	-3.004500	3.790700	-11.388000	23.437044	0.001073	20.792891
494.154018	-2.996800	3.792100	-11.362000	23.445907	0.001073	20.803672
495.152376	-2.990400	3.790600	-11.334000	23.458281	0.001073	20.792841
496.153389	-2.996100	3.790100	-11.354000	23.456986	0.001073	20.798181
497.153671	-3.001300	3.790300	-11.375000	23.447674	0.001073	20.792166
498.151574	-3.006800	3.789600	-11.394000	23.463858	0.001075	20.776620
499.152702	-3.002000	3.788600	-11.373000	23.475534	0.001072	20.787849
500.161379	-2.979200	3.788900	-11.287000	23.466546	0.001072	20.796384
501.155442	-2.986700	3.788700	-11.314000	23.493684	0.001074	20.778542
502.154913	-3.003900	3.788000	-11.377000	23.486116	0.001074	20.789921
503.154977	-2.982000	3.788600	-11.297000	23.473691	0.001075	20.778890
504.154974	-3.016100	3.786900	-11.420000	23.453949	0.001075	20.778542
505.157200	-3.000000	3.787600	-11.362000	23.454346	0.001076	20.772776
506.161813	-2.995100	3.786700	-11.340000	23.453450	0.001075	20.771403
507.158820	-2.993300	3.787500	-11.336000	23.441101	0.001077	20.770405
508.160688	-3.026300	3.785700	-11.456000	23.440504	0.001075	20.783557
509.158539	-2.978200	3.786800	-11.277000	23.437392	0.001074	20.788499
510.158733	-3.002900	3.785500	-11.367000	23.454596	0.001076	20.785828
511.159078	-2.996200	3.785800	-11.342000	23.437217	0.001076	20.797332
512.161072	-3.017200	3.784800	-11.418000	23.440107	0.001075	20.769408
513.158484	-2.995200	3.786600	-11.341000	23.468638	0.001075	20.770980
514.160659	-3.009900	3.785600	-11.392000	23.453276	0.001077	20.782609
515.167024	-2.996100	3.784400	-11.338000	23.452182	0.001077	20.756856
516.159839	-2.988000	3.785200	-11.310000	23.438663	0.001077	20.772228
517.157972	-2.982100	3.783500	-11.281000	23.434706	0.001079	20.758779
518.165193	-2.995800	3.784100	-11.335000	23.448871	0.001078	20.772029
519.170281	-2.972400	3.784500	-11.248000	23.419393	0.001078	20.783260
520.156422	-3.002000	3.781300	-11.351000	23.436672	0.001076	20.787777
521.158132	-2.996800	3.782600	-11.335000	23.413319	0.001078	20.765317
522.166379	-3.019000	3.781100	-11.415000	23.422781	0.001078	20.759629
523.159341	-3.010800	3.782300	-11.386000	23.406821	0.001077	20.754537
524.162733	-3.036100	3.779700	-11.475000	23.430076	0.001079	20.759354
525.161235	-2.984600	3.781900	-11.287000	23.425096	0.001077	20.770958
526.161101	-2.998700	3.781600	-11.339000	23.405278	0.001079	20.747300
527.161590	-3.004800	3.779900	-11.356000	23.387601	0.001079	20.789327
528.163378	-2.982300	3.781500	-11.276000	23.374803	0.001079	20.750420
529.159258	-2.996200	3.781100	-11.328000	23.382546	0.001078	20.757707
530.162333	-2.987500	3.780700	-11.294000	23.372113	0.001079	20.761001
531.165877	-2.982200	3.780400	-11.273000	23.400473	0.001078	20.748174
532.166251	-2.992700	3.780200	-11.312000	23.407370	0.001079	20.760303
533.170549	-3.002100	3.779200	-11.344000	23.414765	0.001079	20.768190
534.172033	-3.023900	3.778800	-11.426000	23.412773	0.001078	20.753390
535.160213	-2.987900	3.779200	-11.291000	23.429455	0.001079	20.752093
536.167560	-3.005100	3.778000	-11.353000	23.414541	0.001080	20.773180
537.176916	-2.988600	3.778500	-11.292000	23.455771	0.001078	20.765194
538.165964	-2.984800	3.777700	-11.275000	23.472726	0.001079	20.767016
539.170443	-3.005800	3.777800	-11.354000	23.461300	0.001079	20.753192
540.171287	-3.016200	3.776400	-11.390000	23.497623	0.001078	20.754988
541.168130	-2.993400	3.777100	-11.305000	23.463042	0.001080	20.757309
542.171772	-2.995600	3.776900	-11.313000	23.468268	0.001080	20.761126
543.171564	-2.997400	3.777600	-11.322000	23.471854	0.001079	20.767091
544.166158	-3.027400	3.774700	-11.427000	23.435802	0.001081	20.761300
545.176435	-2.981400	3.776700	-11.258000	23.430998	0.001080	20.781142
546.191391	-3.001400	3.774300	-11.327000	23.447803	0.001082	20.754837
547.167490	-2.999700	3.775200	-11.323000	23.462693	0.001080	20.741786
548.170500	-2.999900	3.774700	-11.323000	23.502227	0.001080	20.744904
549.182273	-3.012300	3.775600	-11.370000	23.527273	0.001081	20.752941
550.165733	-2.996200	3.773600	-11.305000	23.543853	0.001081	20.743956
551.176142	-2.989000	3.774400	-11.281000	23.536958	0.001081	20.741311
552.174887	-2.984700	3.773600	-11.262000	23.568646	0.001079	20.744154
553.167899	-2.998400	3.773200	-11.313000	23.584231	0.001082	20.749346
554.174792	-3.001600	3.773400	-11.326000	23.603773	0.001082	20.743331
555.171790	-3.028000	3.770500	-11.416000	23.600313	0.001081	20.753614
556.167658	-3.014200	3.771500	-11.366000	23.633719	0.001083	20.752490
557.177304	-3.007500	3.770700	-11.339000	23.645718	0.001080	20.749346
558.174278	-3.002500	3.772200	-11.325000	23.661923	0.001081	20.769386
559.167112	-2.988900	3.770500	-11.268000	23.655103	0.001081	20.763023
560.172205	-2.988800	3.771200	-11.270000	23.696349	0.001082	20.753639
561.176738	-2.957800	3.772100	-11.156000	23.697145	0.001082	20.749220
562.169594	-3.016100	3.770400	-11.371000	23.694705	0.001080	20.753888
563.174651	-2.995800	3.770800	-11.295000	23.696920	0.001082	20.740460
564.175674	-3.007000	3.771000	-11.338000	23.684825	0.001083	20.736868
565.172185	-2.998200	3.768900	-11.299000	23.698812	0.001080	20.743305
566.174415	-2.990600	3.769500	-11.271000	23.698563	0.001082	20.733573
567.173910	-3.014100	3.768200	-11.357000	23.702870	0.001081	20.747848
568.176898	-2.995000	3.768800	-11.285000	23.680043	0.001083	20.719271
569.172443	-2.991800	3.767800	-11.272000	23.667597	0.001082	20.728606
570.180365	-2.999100	3.769200	-11.303000	23.654878	0.001082	20.744779
571.175787	-2.996300	3.768400	-11.290000	23.627222	0.001081	20.730802
572.181939	-2.987900	3.767800	-11.257000	23.649102	0.001084	20.742781
573.179257	-3.015900	3.767800	-11.361000	23.625530	0.001081	20.750444
574.177607	-2.989400	3.768400	-11.264000	23.648854	0.001080	20.737791
575.183091	-2.996100	3.766800	-11.284000	23.660903	0.001081	20.737067
576.178229	-2.998600	3.765600	-11.289000	23.675390	0.001083	20.737367
577.186131	-2.989800	3.767300	-11.262000	23.694282	0.001084	20.725487
578.180878	-3.003300	3.765300	-11.307000	23.698117	0.001082	20.739289
579.177455	-2.992900	3.766000	-11.269000	23.701527	0.001082	20.733698
580.178577	-2.992800	3.765500	-11.269000	23.685994	0.001082	20.729031
581.181767	-2.989100	3.764200	-11.250000	23.679348	0.001082	20.737067
582.176117	-2.988100	3.766100	-11.253000	23.687636	0.001081	20.724039
583.179574	-3.004500	3.762600	-11.302000	23.678851	0.001083	20.741786
584.180037	-2.999500	3.764700	-11.292000	23.688808	0.001083	20.736595
585.180484	-2.998000	3.763700	-11.283000	23.682759	0.001084	20.754713
586.171544	-2.997800	3.763500	-11.280000	23.691471	0.001081	20.726935
587.175819	-2.988300	3.762400	-11.242000	23.708695	0.001082	20.721444
588.175333	-2.990100	3.763400	-11.252000	23.724128	0.001082	20.725538
589.178773	-3.002600	3.761400	-11.293000	23.753947	0.001081	20.737891
590.182941	-3.028200	3.761700	-11.391000	23.721067	0.001084	20.730530
591.177552	-3.007000	3.761900	-11.311000	23.725770	0.001082	20.748522
592.180596	-2.991800	3.761600	-11.253000	23.730276	0.001083	20.738341
593.178166	-3.000200	3.760400	-11.280000	23.732941	0.001083	20.714459
594.180424	-2.971800	3.760700	-11.175000	23.722537	0.001082	20.746229
595.183929	-2.979800	3.760000	-11.203000	23.721938	0.001084	20.736619
596.179952	-2.988800	3.760700	-11.239000	23.744116	0.001083	20.719499
597.189655	-3.005900	3.759400	-11.299000	23.734208	0.001083	20.721894
598.179942	-3.021800	3.757200	-11.352000	23.794817	0.001084	20.737618
599.181980	-3.009200	3.759300	-11.312000	23.787249	0.001085	20.730978
600.180970	-2.997200	3.759700	-11.267000	23.778414	0.001081	20.728283
601.177917	-2.998800	3.758100	-11.269000	23.786603	0.001083	20.726536
602.181894	-3.004100	3.759200	-11.291000	23.789987	0.001082	20.723766
603.184827	-2.989600	3.757300	-11.231000	23.771097	0.001081	20.721895
604.183427	-2.985400	3.758300	-11.218000	23.750412	0.001085	20.727234
605.187919	-3.004200	3.757400	-11.287000	23.725646	0.001081	20.722792
606.182410	-2.994300	3.757100	-11.248000	23.722360	0.001083	20.723766
607.184499	-2.993700	3.756900	-11.246000	23.728110	0.001082	20.756558
608.184275	-2.984300	3.756200	-11.209000	23.734084	0.001082	20.708966
609.187250	-3.002900	3.755700	-11.277000	23.713226	0.001081	20.711287
610.181262	-2.999700	3.755700	-11.265000	23.742000	0.001083	20.736344
611.183501	-2.986700	3.756800	-11.220000	23.743543	0.001083	20.752117
612.186282	-3.021900	3.755800	-11.347000	23.729157	0.001083	20.704025
613.184029	-3.017600	3.755700	-11.333000	23.727662	0.001083	20.730029
614.191065	-3.002600	3.754200	-11.271000	23.744887	0.001083	20.749197
615.194505	-2.992200	3.755800	-11.238000	23.722360	0.001084	20.715230
616.183602	-2.982900	3.755500	-11.201000	23.740283	0.001082	20.726562
617.182521	-3.008900	3.754500	-11.295000	23.756586	0.001083	20.735321
618.187726	-2.994200	3.752400	-11.235000	23.730997	0.001082	20.743331
619.187953	-2.999900	3.754400	-11.261000	23.716660	0.001083	20.745553
620.184990	-3.010700	3.752200	-11.295000	23.738066	0.001081	20.724339
621.190625	-3.003300	3.753000	-11.271000	23.747401	0.001083	20.743182
622.182681	-3.009000	3.752900	-11.291000	23.758476	0.001084	20.715404
623.186502	-3.020200	3.751300	-11.328000	23.758378	0.001081	20.742809
624.192609	-3.013600	3.751600	-11.304000	23.795340	0.001083	20.747151
625.187492	-3.019000	3.751300	-11.325000	23.803503	0.001083	20.743956
626.185146	-2.997900	3.751800	-11.247000	23.797330	0.001083	20.738241
627.189776	-3.011600	3.750700	-11.295000	23.800865	0.001084	20.747002
628.189481	-3.020300	3.749800	-11.324000	23.812811	0.001083	20.731951
629.188024	-2.992400	3.749900	-11.220000	23.834241	0.001084	20.717402
630.194808	-3.014900	3.749500	-11.303000	23.821099	0.001082	20.721769
631.189003	-3.008300	3.748000	-11.274000	23.849074	0.001082	20.723741
632.190344	-3.000900	3.749800	-11.253000	23.850816	0.001081	20.731178
633.189836	-3.003900	3.747800	-11.257000	23.880458	0.001081	20.722494
634.187051	-3.012900	3.749500	-11.294000	23.908183	0.001082	20.740338
635.193330	-2.995000	3.749500	-11.230000	23.913955	0.001082	20.730005
636.195484	-3.005000	3.747400	-11.259000	23.912090	0.001084	20.723392
637.190060	-3.002400	3.747000	-11.249000	23.881801	0.001083	20.744230
638.195798	-3.008800	3.747200	-11.273000	23.881703	0.001080	20.749348
639.191060	-2.988700	3.747100	-11.197000	23.886405	0.001079	20.750744
640.197382	-2.986600	3.748000	-11.193000	23.879711	0.001081	20.725538
641.202017	-2.978300	3.746900	-11.159000	23.863734	0.001081	20.735122
642.193150	-3.005900	3.747100	-11.261000	23.862190	0.001079	20.736893
643.190912	-3.001700	3.746200	-11.244000	23.851165	0.001080	20.719673
644.201931	-2.968300	3.746800	-11.121000	23.867019	0.001079	20.755013
645.193923	-3.010700	3.745000	-11.274000	23.853429	0.001080	20.734272
646.191643	-3.003300	3.745500	-11.248000	23.856393	0.001079	20.736296
647.189736	-3.000000	3.743900	-11.231000	23.832774	0.001081	20.732527
648.199712	-2.974300	3.745700	-11.139000	23.872695	0.001080	20.736047
649.190659	-2.988900	3.745700	-11.195000	23.871873	0.001081	20.739965
650.195634	-2.998400	3.743700	-11.225000	23.892031	0.001081	20.748325
651.194632	-2.990200	3.744200	-11.196000	23.897657	0.001078	20.733577
652.197942	-3.016100	3.743500	-11.290000	23.923590	0.001079	20.750098
653.196278	-3.009600	3.743600	-11.266000	23.909603	0.001081	20.739865
654.197195	-2.997300	3.741700	-11.214000	23.911171	0.001079	20.740490
655.195495	-2.981100	3.741900	-11.154000	23.909455	0.001079	20.752520
656.200242	-3.015700	3.741200	-11.281000	23.916970	0.001078	20.743460
657.203238	-2.997000	3.741800	-11.213000	23.912567	0.001078	20.750424
658.207726	-3.003000	3.741300	-11.234000	23.889471	0.001080	20.739119
659.200644	-3.012200	3.739900	-11.265000	23.875136	0.001079	20.741340
660.201694	-2.987600	3.741300	-11.176000	23.866600	0.001081	20.756963
661.206675	-3.017800	3.739500	-11.283000	23.885888	0.001079	20.756864
662.206660	-3.014500	3.739700	-11.273000	23.879070	0.001080	20.765674
663.204634	-3.015300	3.739800	-11.276000	23.865656	0.001078	20.758861
664.200203	-3.004200	3.739100	-11.232000	23.881285	0.001079	20.745609
665.208026	-3.001200	3.739800	-11.223000	23.896714	0.001078	20.734053
666.201817	-2.998100	3.739100	-11.210000	23.912867	0.001079	20.757364
667.209304	-3.002000	3.738400	-11.222000	23.948355	0.001079	20.744112
668.203396	-2.984300	3.738800	-11.156000	23.963087	0.001078	20.757938
669.209115	-3.001900	3.739200	-11.223000	23.969334	0.001080	20.753771
670.205520	-3.006400	3.738700	-11.239000	23.980755	0.001079	20.740568
671.203449	-2.991500	3.739800	-11.186000	24.013728	0.001079	20.759410
672.206035	-2.997500	3.737500	-11.202000	24.021318	0.001078	20.761332
673.206995	-3.006700	3.738200	-11.239000	24.037940	0.001079	20.761880
674.210655	-3.040100	3.735500	-11.355000	24.036373	0.001077	20.765999
675.205894	-3.015500	3.736600	-11.266000	24.028211	0.001076	20.753072
676.209035	-3.011200	3.736300	-11.250000	24.017760	0.001076	20.745909
677.208975	-3.012000	3.736700	-11.254000	24.019750	0.001077	20.767821
678.208215	-3.001000	3.737200	-11.214000	24.011116	0.001078	20.771015
679.207236	-2.990300	3.735300	-11.169000	24.025748	0.001077	20.760085
680.204032	-2.979700	3.736300	-11.131000	24.024727	0.001076	20.765224
681.205552	-3.001700	3.734500	-11.209000	24.056081	0.001076	20.761582
682.206609	-2.993300	3.735600	-11.180000	24.069866	0.001077	20.741267
683.210925	-2.994900	3.735500	-11.185000	24.083826	0.001075	20.768071
684.207201	-2.986700	3.734600	-11.153000	24.114356	0.001076	20.762655
685.210949	-3.021700	3.733500	-11.279000	24.087930	0.001077	20.766970
686.215242	-2.992700	3.734400	-11.175000	24.093505	0.001079	20.752173
687.210257	-3.003500	3.733900	-11.214000	24.085518	0.001077	20.777828
688.214246	-2.986900	3.733000	-11.149000	24.079694	0.001076	20.764401
689.211165	-2.978600	3.731700	-11.115000	24.093628	0.001077	20.780272
690.208342	-3.004900	3.733200	-11.216000	24.114006	0.001075	20.770838
691.208047	-2.984800	3.732100	-11.139000	24.113535	0.001075	20.760408
692.211058	-2.994400	3.732300	-11.175000	24.125503	0.001075	20.773360
693.210930	-3.011000	3.730900	-11.232000	24.084771	0.001075	20.759060
694.213327	-2.997200	3.732200	-11.185000	24.080316	0.001074	20.765972
695.221315	-3.022800	3.729700	-11.274000	24.088004	0.001076	20.756139
696.214458	-3.011700	3.729700	-11.232000	24.100970	0.001075	20.765824
697.214480	-3.013600	3.729500	-11.239000	24.104105	0.001073	20.776080
698.212741	-3.017000	3.729200	-11.250000	24.087358	0.001075	20.770664
699.214794	-3.007400	3.729500	-11.216000	24.052496	0.001072	20.772685
700.211544	-3.005100	3.729500	-11.206000	24.078076	0.001072	20.786960
701.213258	-2.992700	3.729800	-11.161000	24.041349	0.001072	20.774308
702.211331	-2.976300	3.729100	-11.097000	24.048267	0.001072	20.781246
703.214683	-2.993500	3.728000	-11.159000	24.100770	0.001073	20.774633
704.213477	-2.990300	3.728400	-11.148000	24.085443	0.001072	20.781546
705.213201	-2.999300	3.729100	-11.183000	24.089300	0.001074	20.778776
706.221707	-3.013200	3.728800	-11.233000	24.108832	0.001075	20.792202
707.212173	-3.015600	3.727600	-11.240000	24.140931	0.001071	20.772239
708.217434	-3.029200	3.726900	-11.289000	24.130480	0.001073	20.776929
709.224391	-3.007600	3.727000	-11.207000	24.137548	0.001073	20.775957
710.218006	-2.986800	3.726500	-11.129000	24.134611	0.001072	20.794823
711.213769	-2.995300	3.726300	-11.160000	24.107215	0.001070	20.778726
712.226481	-3.007600	3.725200	-11.202000	24.105673	0.001072	20.781921
713.219373	-3.003200	3.725500	-11.186000	24.071633	0.001072	20.779550
714.214312	-2.970100	3.728100	-11.071000	24.085618	0.001072	20.795947
715.220112	-3.012000	3.724500	-11.218000	24.092113	0.001068	20.783494
716.218261	-3.011500	3.725500	-11.218000	24.065961	0.001072	20.794725
717.216814	-3.020000	3.725000	-11.248000	24.032468	0.001072	20.758289
718.219073	-3.008000	3.723800	-11.201000	24.021593	0.001071	20.786739
719.217573	-2.989800	3.724400	-11.133000	24.009225	0.001069	20.782869
720.218734	-2.986000	3.724300	-11.119000	23.999868	0.001072	20.770167
721.223502	-2.979000	3.723600	-11.092000	24.014601	0.001070	20.792054
722.223168	-2.991600	3.723500	-11.138000	24.024678	0.001070	20.780349
723.220850	-2.991200	3.723400	-11.137000	24.019999	0.001070	20.787510
724.223898	-3.010600	3.721800	-11.204000	23.997107	0.001069	20.781622
725.218829	-2.984600	3.722600	-11.110000	24.003252	0.001069	20.805329
726.219738	-2.981600	3.722000	-11.096000	24.015071	0.001070	20.808647
727.223601	-2.995500	3.723300	-11.152000	24.006935	0.001069	20.791953
728.222738	-3.006600	3.721900	-11.190000	24.021615	0.001068	20.782493
729.221048	-3.012200	3.721100	-11.208000	24.053691	0.001069	20.790005
730.224759	-2.995700	3.721600	-11.148000	24.083027	0.001069	20.801409
731.222529	-3.021400	3.721300	-11.242000	24.110324	0.001068	20.777102
732.221749	-3.018700	3.718500	-11.224000	24.114752	0.001067	20.788656
733.224222	-2.992200	3.720100	-11.130000	24.126000	0.001068	20.800886
734.223534	-2.975600	3.720100	-11.069000	24.125750	0.001066	20.807273
735.226387	-2.987900	3.721100	-11.116000	24.122738	0.001068	20.791924
736.229797	-2.992100	3.720100	-11.130000	24.103107	0.001070	20.781244
737.228113	-2.983800	3.719600	-11.097000	24.101513	0.001068	20.792922
738.226717	-3.012700	3.719100	-11.202000	24.110721	0.001067	20.800260
739.228789	-3.003700	3.719100	-11.171000	24.114652	0.001067	20.787607
740.228251	-2.993900	3.718600	-11.133000	24.113159	0.001067	20.802231
741.224164	-3.025300	3.717400	-11.245000	24.118458	0.001067	20.798537
742.242529	-2.990800	3.719600	-11.122000	24.107584	0.001067	20.795217
743.224457	-2.981900	3.717500	-11.085000	24.116069	0.001068	20.794718
744.224758	-2.998400	3.717900	-11.147000	24.153639	0.001066	20.798735
745.228966	-2.991800	3.716800	-11.119000	24.169838	0.001065	20.781791
746.227537	-3.002900	3.717200	-11.161000	24.160109	0.001065	20.799534
747.224677	-2.993900	3.717200	-11.127000	24.195291	0.001065	20.802105
748.226066	-2.988200	3.716700	-11.105000	24.186559	0.001066	20.806623
749.230070	-3.002700	3.716400	-11.158000	24.197205	0.001065	20.807345
750.230292	-2.975900	3.717900	-11.063000	24.241842	0.001065	20.795692
751.231935	-3.015700	3.713700	-11.198000	24.256172	0.001066	20.800583
752.228274	-2.975200	3.715500	-11.053000	24.252266	0.001063	20.820373
753.227970	-2.987100	3.716400	-11.100000	24.252091	0.001064	20.797438
754.235899	-2.990100	3.715200	-11.108000	24.222684	0.001064	20.816779
755.230133	-2.987000	3.715700	-11.098000	24.188002	0.001063	20.827036
756.229438	-2.992800	3.714800	-11.116000	24.151078	0.001063	20.820348
757.237445	-2.983500	3.713700	-11.079000	24.146749	0.001062	20.815058
758.233038	-2.990200	3.713200	-11.102000	24.099024	0.001062	20.811288
759.229254	-3.009600	3.712700	-11.173000	24.161950	0.001063	20.815131
760.233808	-2.981100	3.713800	-11.069000	24.208777	0.001062	20.810890
761.230582	-3.002100	3.713000	-11.146000	24.198375	0.001063	20.817527
762.232498	-2.987700	3.712300	-11.090000	24.208254	0.001062	20.800883
763.232899	-2.990600	3.712600	-11.101000	24.190041	0.001062	20.821496
764.234993	-2.998300	3.712100	-11.129000	24.169491	0.001061	20.833599
765.233513	-2.996800	3.711500	-11.122000	24.187778	0.001063	20.812114
766.234585	-2.994900	3.711000	-11.113000	24.191636	0.001061	20.802707
767.236544	-2.992800	3.711200	-11.106000	24.204324	0.001061	20.817329
768.232498	-3.002600	3.710700	-11.140000	24.240972	0.001060	20.835597
769.232487	-2.991400	3.710400	-11.099000	24.251570	0.001060	20.813985
770.232330	-3.007300	3.710700	-11.157000	24.247367	0.001059	20.831105
771.239048	-2.999900	3.710800	-11.131000	24.261074	0.001060	20.805026
772.235782	-2.978100	3.710800	-11.050000	24.248560	0.001057	20.835622
773.233182	-2.976000	3.709500	-11.038000	24.252516	0.001058	20.838166
774.231469	-2.962300	3.710300	-10.990000	24.238933	0.001059	20.832603
775.233213	-2.992700	3.709300	-11.100000	24.260454	0.001059	20.829060
776.233176	-3.005200	3.709300	-11.146000	24.267171	0.001058	20.831530
777.233774	-2.977300	3.709900	-11.044000	24.260852	0.001060	20.830882
778.239895	-3.000400	3.710100	-11.131000	24.219404	0.001059	20.842411
779.235538	-2.996600	3.709400	-11.115000	24.168872	0.001058	20.813539
780.241500	-3.003100	3.706800	-11.130000	24.164567	0.001058	20.832929
781.238405	-3.011600	3.707400	-11.164000	24.154590	0.001059	20.821500
782.237442	-3.020600	3.706500	-11.195000	24.183750	0.001058	20.819926
783.235598	-3.004400	3.708400	-11.140000	24.208779	0.001056	20.827488
784.234852	-3.000100	3.706400	-11.118000	24.233238	0.001058	20.830684
785.246303	-3.010000	3.708000	-11.160000	24.244956	0.001056	20.831533
786.234298	-2.994100	3.706300	-11.096000	24.276675	0.001057	20.845331
787.236217	-3.005900	3.705200	-11.136000	24.282174	0.001056	20.835674
788.242059	-3.013900	3.705900	-11.169000	24.283144	0.001058	20.820052
789.238150	-3.011000	3.706000	-11.158000	24.289539	0.001056	20.843535
790.238104	-2.997700	3.706400	-11.109000	24.239160	0.001057	20.822399
791.245086	-2.995800	3.704100	-11.096000	24.212265	0.001054	20.851372
792.237257	-3.003000	3.704800	-11.125000	24.225053	0.001056	20.851871
793.243783	-3.014200	3.703400	-11.162000	24.180343	0.001056	20.850173
794.245236	-3.001600	3.703100	-11.114000	24.146482	0.001054	20.815738
795.243724	-2.995800	3.703300	-11.094000	24.159717	0.001054	20.839918
796.241985	-2.984400	3.703800	-11.053000	24.157355	0.001053	20.836126
797.239486	-3.002300	3.703700	-11.119000	24.179924	0.001054	20.835055
798.241159	-2.978200	3.704600	-11.031000	24.192561	0.001055	20.862901
799.240090	-3.014100	3.703300	-11.161000	24.206469	0.001054	20.852197
800.241401	-3.003700	3.701700	-11.118000	24.249985	0.001053	20.852697
801.240918	-3.021600	3.701700	-11.183000	24.270685	0.001052	20.853072
802.240010	-3.014800	3.700800	-11.156000	24.269341	0.001053	20.857888
803.243321	-2.978400	3.701200	-11.022000	24.300515	0.001051	20.866398
804.244169	-2.998500	3.700400	-11.094000	24.297132	0.001053	20.849729
805.245951	-2.993900	3.700900	-11.079000	24.313053	0.001051	20.852423
806.249113	-3.002400	3.700200	-11.107000	24.309869	0.001051	20.851127
807.244733	-3.001700	3.701400	-11.108000	24.348853	0.001053	20.854671
808.242155	-2.988000	3.701400	-11.058000	24.377014	0.001053	20.848782
809.250195	-3.021400	3.700700	-11.180000	24.358555	0.001051	20.838327
810.243477	-3.036700	3.698900	-11.231000	24.385696	0.001050	20.851803
811.244672	-3.010900	3.698900	-11.137000	24.359253	0.001050	20.847560
812.245245	-2.993100	3.699800	-11.072000	24.359428	0.001049	20.877132
813.244294	-2.995300	3.699700	-11.080000	24.361393	0.001050	20.853500
814.247157	-3.006600	3.697400	-11.116000	24.363409	0.001049	20.846988
815.245811	-2.990700	3.699400	-11.061000	24.345000	0.001047	20.849858
816.246083	-2.992900	3.699800	-11.071000	24.370821	0.001049	20.845415
817.246279	-3.010900	3.698000	-11.134000	24.347735	0.001048	20.864929
818.247951	-2.980400	3.698100	-11.020000	24.326690	0.001048	20.829594
819.245046	-2.979800	3.697900	-11.018000	24.328084	0.001047	20.846166
820.251343	-2.983700	3.697700	-11.031000	24.321964	0.001048	20.851880
821.247230	-3.000200	3.696600	-11.090000	24.332613	0.001047	20.863035
822.245913	-3.000600	3.696900	-11.092000	24.338184	0.001049	20.868624
823.247069	-3.005400	3.695300	-11.104000	24.337862	0.001046	20.866404
824.247081	-2.995700	3.695800	-11.071000	24.322911	0.001046	20.886967
825.246987	-3.006100	3.695000	-11.107000	24.286640	0.001045	20.883774
826.246861	-3.019600	3.695100	-11.156000	24.276762	0.001047	20.865331
827.247374	-2.999700	3.696400	-11.087000	24.291243	0.001047	20.857572
828.247118	-2.991600	3.695200	-11.054000	24.319280	0.001044	20.851084
829.253331	-2.994900	3.694400	-11.063000	24.301667	0.001047	20.860916
830.245813	-2.991600	3.695700	-11.055000	24.326296	0.001046	20.873293
831.244845	-2.995800	3.693700	-11.065000	24.310298	0.001047	20.863884
832.253414	-2.989700	3.694400	-11.044000	24.322539	0.001045	20.862887
833.253530	-3.025900	3.692100	-11.170000	24.294975	0.001046	20.879332
834.249685	-3.002700	3.694000	-11.091000	24.336496	0.001043	20.879258
835.249089	-3.013600	3.692000	-11.124000	24.335227	0.001044	20.867554
836.249190	-2.997600	3.692300	-11.067000	24.356224	0.001045	20.874866
837.252446	-3.002000	3.691400	-11.080000	24.359732	0.001042	20.885023
838.256872	-2.979200	3.693200	-11.002000	24.366771	0.001044	20.893506
839.249337	-3.002500	3.691400	-11.082000	24.341074	0.001043	20.892384
840.250051	-2.974400	3.692500	-10.982000	24.347491	0.001041	20.887916
841.252819	-3.006900	3.691700	-11.099000	24.335575	0.001041	20.876438
842.252807	-2.988200	3.692400	-11.032000	24.361995	0.001040	20.881129
843.256034	-3.002500	3.691900	-11.084000	24.386548	0.001039	20.884423
844.255735	-2.998700	3.690500	-11.065000	24.382443	0.001042	20.881728
845.256818	-2.974900	3.691400	-10.981000	24.424160	0.001041	20.871897
846.252378	-2.998500	3.690600	-11.064000	24.423265	0.001039	20.880955
847.256226	-2.994100	3.689900	-11.047000	24.447791	0.001039	20.869052
848.250941	-3.004600	3.690400	-11.088000	24.478187	0.001040	20.890063
849.258279	-2.996900	3.690100	-11.057000	24.476570	0.001040	20.886544
850.255586	-2.998000	3.688600	-11.058000	24.505150	0.001039	20.898622
851.257260	-2.994400	3.688300	-11.043000	24.499454	0.001039	20.886270
852.259023	-2.995500	3.689000	-11.049000	24.513211	0.001038	20.882528
853.258175	-2.981800	3.689600	-11.001000	24.493335	0.001038	20.885821
854.258635	-3.000900	3.687900	-11.066000	24.514952	0.001039	20.861992
855.257500	-3.006100	3.688700	-11.088000	24.491694	0.001037	20.896027
856.254630	-2.985500	3.688200	-11.010000	24.483039	0.001036	20.884973
857.252542	-2.996900	3.687800	-11.050000	24.506968	0.001036	20.900919
858.253464	-3.016900	3.687100	-11.123000	24.523234	0.001036	20.873619
859.255142	-2.982300	3.688400	-10.998000	24.503759	0.001036	20.887269
860.260950	-3.009100	3.684800	-11.088000	24.493461	0.001038	20.883102
861.255276	-3.006500	3.686300	-11.082000	24.480801	0.001036	20.881306
862.255646	-2.992200	3.687600	-11.033000	24.476873	0.001035	20.885900
863.254479	-2.990100	3.686200	-11.021000	24.470380	0.001036	20.890291
864.263639	-2.995100	3.685500	-11.037000	24.473490	0.001035	20.881558
865.260095	-2.990800	3.685700	-11.021000	24.471152	0.001033	20.882531
866.257592	-3.017900	3.685300	-11.121000	24.487718	0.001035	20.904839
867.260173	-2.999000	3.683900	-11.047000	24.494782	0.001032	20.902444
868.256916	-3.002400	3.684100	-11.059000	24.521869	0.001033	20.877465
869.261383	-3.004300	3.684600	-11.069000	24.547862	0.001032	20.890268
870.258608	-2.985800	3.683800	-10.998000	24.531720	0.001032	20.870754
871.258942	-2.988400	3.684300	-11.008000	24.547763	0.001031	20.879737
872.261323	-2.983000	3.684500	-10.990000	24.528215	0.001032	20.870082
873.256855	-3.019500	3.682400	-11.119000	24.511574	0.001031	20.877093
874.257114	-3.005400	3.682200	-11.065000	24.496798	0.001031	20.869381
875.258761	-2.990900	3.684200	-11.019000	24.499982	0.001030	20.873050
876.261847	-2.999100	3.682300	-11.043000	24.523514	0.001029	20.866788
877.261861	-3.022400	3.682300	-11.128000	24.521947	0.001030	20.880863
878.258953	-3.015100	3.681800	-11.100000	24.542815	0.001031	20.879989
879.257676	-3.014000	3.680600	-11.093000	24.535902	0.001030	20.882061
880.261737	-2.992900	3.682700	-11.021000	24.563907	0.001031	20.860376
881.264490	-3.014900	3.679600	-11.093000	24.569927	0.001029	20.856458
882.262228	-2.981600	3.681700	-10.977000	24.558711	0.001030	20.866541
883.263258	-2.983700	3.681400	-10.982000	24.557814	0.001028	20.860900
884.263864	-2.991000	3.680900	-11.008000	24.561744	0.001028	20.862947
885.264654	-3.013600	3.679400	-11.086000	24.570052	0.001027	20.855162
886.260818	-2.998100	3.680200	-11.033000	24.579677	0.001028	20.867189
887.272595	-2.986300	3.682100	-10.994000	24.602013	0.001027	20.855462
888.262471	-3.000000	3.680100	-11.039000	24.580325	0.001027	20.859779
889.272920	-2.979700	3.678800	-10.961000	24.578857	0.001027	20.871108
890.267513	-2.998600	3.678700	-11.030000	24.549261	0.001026	20.828612
891.267129	-2.978300	3.679400	-10.957000	24.515036	0.001026	20.862550
892.266914	-3.012400	3.678100	-11.078000	24.466383	0.001025	20.847877
893.269679	-2.993800	3.677400	-11.008000	24.478347	0.001025	20.861776
894.267168	-3.014000	3.677700	-11.083000	24.423352	0.001026	20.854966
895.266068	-3.007600	3.679100	-11.065000	24.405863	0.001026	20.839792
896.264189	-2.994700	3.679000	-11.016000	24.453051	0.001025	20.879544
897.265154	-3.004500	3.678100	-11.049000	24.474718	0.001024	20.823998
898.265103	-2.995300	3.677700	-11.014000	24.471559	0.001026	20.840268
899.267741	-2.977500	3.677200	-10.948000	24.468250	0.001025	20.867293
900.266098	-2.987400	3.677100	-10.984000	24.499368	0.001025	20.852520
901.270117	-2.996300	3.676000	-11.014000	24.503572	0.001023	20.850100
902.269299	-3.016200	3.675800	-11.086000	24.501284	0.001024	20.839745
903.267881	-3.023500	3.674600	-11.109000	24.493672	0.001022	20.844909
904.268679	-3.015700	3.675000	-11.082000	24.531332	0.001022	20.854244
905.269630	-2.991100	3.675300	-10.992000	24.535187	0.001022	20.826345
906.268778	-3.002300	3.674800	-11.031000	24.505091	0.001022	20.849254
907.269025	-2.997500	3.672700	-11.006000	24.483129	0.001021	20.840496
908.269462	-2.972000	3.675000	-10.921000	24.448851	0.001019	20.834082
909.269554	-3.007100	3.673500	-11.045000	24.426764	0.001019	20.827095
910.272089	-3.006000	3.673400	-11.041000	24.439624	0.001021	20.823402
911.274469	-2.987300	3.672700	-10.970000	24.462334	0.001021	20.838599
912.271034	-2.983800	3.673100	-10.959000	24.496537	0.001020	20.838775
913.273121	-2.995000	3.673000	-11.000000	24.504695	0.001018	20.828468
914.279638	-2.991200	3.673300	-10.986000	24.517481	0.001020	20.830391
915.270661	-2.990700	3.672700	-10.983000	24.502257	0.001019	20.845937
916.271642	-2.998100	3.672100	-11.009000	24.522407	0.001019	20.846712
917.274933	-3.020400	3.670900	-11.087000	24.534768	0.001022	20.844890
918.278648	-3.006700	3.672600	-11.041000	24.559195	0.001018	20.844742
919.270099	-2.998000	3.672400	-11.009000	24.587076	0.001018	20.832889
920.277514	-3.006400	3.671200	-11.036000	24.596676	0.001018	20.823081
921.274745	-2.965000	3.672700	-10.887000	24.600407	0.001017	20.825876
922.278007	-2.980200	3.670800	-10.939000	24.625726	0.001018	20.827100
923.276985	-3.003300	3.670100	-11.022000	24.637141	0.001018	20.831916
924.272233	-2.998000	3.669900	-11.001000	24.647885	0.001017	20.832266
925.279034	-3.001100	3.670100	-11.014000	24.615183	0.001018	20.821262
926.276700	-3.005000	3.669200	-11.025000	24.616377	0.001017	20.812978
927.276283	-2.976800	3.670200	-10.925000	24.625702	0.001017	20.828973
928.281149	-3.010500	3.669400	-11.045000	24.635178	0.001016	20.831369
929.279905	-3.015000	3.668900	-11.060000	24.635627	0.001015	20.831345
930.276649	-3.026000	3.667400	-11.096000	24.618915	0.001017	20.835912
931.281178	-2.972900	3.670200	-10.909000	24.623440	0.001016	20.808212
932.282864	-3.008100	3.668500	-11.034000	24.609363	0.001015	20.832967
933.277758	-3.000100	3.667100	-11.000000	24.608145	0.001015	20.828900
934.279410	-3.005800	3.668500	-11.025000	24.572952	0.001016	20.833890
935.283322	-2.988800	3.666900	-10.957000	24.588250	0.001014	20.832171
936.279193	-2.989700	3.667100	-10.962000	24.568874	0.001015	20.851609
937.284823	-2.998500	3.666600	-10.994000	24.577256	0.001013	20.837260
938.282570	-3.004500	3.666100	-11.015000	24.620184	0.001015	20.808737
939.278619	-2.993400	3.666300	-10.973000	24.633838	0.001012	20.813903
940.281854	-2.987600	3.667100	-10.955000	24.650799	0.001014	20.825707
941.281795	-2.989100	3.666500	-10.958000	24.663782	0.001013	20.827829
942.277726	-3.013600	3.665100	-11.045000	24.663708	0.001012	20.818745
943.285696	-3.028300	3.664500	-11.096000	24.674725	0.001012	20.796610
944.286386	-2.992800	3.666500	-10.973000	24.640281	0.001012	20.810885
945.283699	-2.977800	3.665600	-10.914000	24.628293	0.001012	20.819718
946.279412	-2.990000	3.665500	-10.959000	24.626801	0.001009	20.793566
947.282285	-2.959400	3.665900	-10.847000	24.596011	0.001011	20.809138
948.283418	-2.995700	3.663600	-10.973000	24.575915	0.001009	20.825484
949.280037	-2.997600	3.664100	-10.983000	24.569499	0.001008	20.810986
950.282760	-2.997000	3.663500	-10.978000	24.569673	0.001007	20.815902
951.283196	-2.975500	3.663600	-10.900000	24.569000	0.001007	20.820917
952.277883	-2.992900	3.663200	-10.962000	24.604244	0.001008	20.811709
953.283661	-3.009500	3.662300	-11.020000	24.606357	0.001007	20.815726
954.282218	-2.994900	3.663300	-10.970000	24.619764	0.001008	20.832497
955.282306	-2.988700	3.663200	-10.945000	24.640108	0.001007	20.818772
956.283556	-2.978400	3.661100	-10.903000	24.644907	0.001006	20.800354
957.286009	-2.995100	3.661000	-10.964000	24.671916	0.001005	20.788575
958.282907	-2.993500	3.662500	-10.963000	24.675871	0.001006	20.822416
959.285355	-3.006200	3.659600	-10.999000	24.700913	0.001005	20.798233
960.282061	-3.013400	3.660200	-11.029000	24.703549	0.001005	20.803723
961.282739	-3.010300	3.661900	-11.022000	24.707455	0.001004	20.828031
962.288538	-2.989700	3.660100	-10.942000	24.676168	0.001004	20.805171
963.289157	-2.996400	3.661700	-10.971000	24.651524	0.001006	20.816003
964.287086	-2.994900	3.658900	-10.956000	24.606979	0.001004	20.837212
965.284606	-2.994400	3.661100	-10.962000	24.565818	0.001003	20.799232
966.287402	-2.995400	3.659600	-10.960000	24.522764	0.001003	20.811036
967.287793	-2.998700	3.659300	-10.972000	24.513535	0.001003	20.813631
968.286236	-2.990300	3.659200	-10.941000	24.482916	0.001003	20.808989
969.282306	-3.008900	3.657300	-11.003000	24.499880	0.001003	20.798982
970.288792	-2.997100	3.658900	-10.965000	24.502691	0.001003	20.812707
971.283831	-3.004300	3.658400	-10.990000	24.548505	0.001001	20.818371
972.284152	-3.000400	3.656800	-10.970000	24.584197	0.001002	20.805819
973.283423	-3.013500	3.657100	-11.019000	24.579222	0.001001	20.798456
974.285237	-3.001700	3.656700	-10.975000	24.617599	0.001002	20.808040
975.292744	-2.991800	3.657300	-10.940000	24.607701	0.001000	20.796212
976.286114	-3.025200	3.656100	-11.059000	24.662439	0.001003	20.808463
977.285157	-3.022900	3.656700	-11.052000	24.653661	0.001001	20.800603
978.283798	-3.000400	3.657300	-10.971000	24.665176	0.000999	20.794141
979.289073	-2.983600	3.657100	-10.911000	24.683157	0.001000	20.821192
980.287816	-3.017600	3.655600	-11.028000	24.702979	0.000999	20.812160
981.291257	-2.984700	3.655900	-10.911000	24.723543	0.000998	20.807192
982.290413	-2.975100	3.655200	-10.873000	24.741847	0.001000	20.809438
983.286652	-3.002300	3.654500	-10.971000	24.745205	0.000997	20.783411
984.293744	-3.004300	3.654200	-10.978000	24.759877	0.000997	20.801928
985.298840	-2.999300	3.654500	-10.960000	24.727374	0.000997	20.802501
986.286636	-3.013100	3.653000	-11.006000	24.685049	0.000997	20.797486
987.285046	-3.016900	3.653200	-11.019000	24.707157	0.000996	20.795016
988.287849	-3.032000	3.652100	-11.071000	24.693729	0.000997	20.810938
989.284669	-3.014300	3.653900	-11.012000	24.703303	0.000995	20.803002
990.290840	-2.972100	3.654800	-10.862000	24.701390	0.000995	20.790650
991.289780	-2.976600	3.653300	-10.873000	24.687437	0.000993	20.790400
992.288860	-2.986700	3.651700	-10.906000	24.716834	0.000994	20.799510
993.289905	-2.994500	3.651600	-10.933000	24.713774	0.000994	20.797862
994.291219	-3.001100	3.652300	-10.960000	24.724344	0.000994	20.787607
995.287276	-3.012100	3.652500	-10.999000	24.744686	0.000992	20.764872
996.295194	-3.017900	3.650700	-11.016000	24.769130	0.000993	20.783238
997.293461	-2.992200	3.651900	-10.927000	24.756125	0.000991	20.798636
998.290771	-3.003800	3.650500	-10.964000	24.741653	0.000992	20.796916
999.291279	-2.985000	3.652000	-10.900000	24.763983	0.000993	20.786608
1000.302594	-3.008400	3.650700	-10.982000	24.755033	0.000991	20.778100
1001.290967	-3.003100	3.650500	-10.961000	24.782062	0.000990	20.779146
1002.291669	-2.996300	3.652100	-10.941000	24.789821	0.000991	20.793572
1003.291227	-2.998400	3.650800	-10.945000	24.801011	0.000989	20.779198
1004.292429	-3.002200	3.650700	-10.960000	24.793776	0.000988	20.773833
1005.297624	-3.021700	3.648500	-11.023000	24.762866	0.000989	20.794022
1006.296443	-3.010700	3.647500	-10.980000	24.777936	0.000986	20.789231
1007.295428	-3.006300	3.647000	-10.963000	24.788654	0.000990	20.782918
1008.295087	-2.985500	3.647700	-10.889000	24.805886	0.000989	20.774607
1009.294729	-2.985000	3.647100	-10.885000	24.777117	0.000988	20.784141
1010.293645	-2.979100	3.648500	-10.867000	24.811632	0.000986	20.786063
1011.300357	-2.991300	3.646200	-10.905000	24.788930	0.000986	20.788884
1012.293613	-2.981100	3.648900	-10.876000	24.759238	0.000988	20.769044
1013.299938	-2.996100	3.646900	-10.926000	24.705225	0.000986	20.778852
1014.297044	-3.001600	3.646900	-10.946000	24.680108	0.000986	20.777829
1015.293112	-3.010600	3.646100	-10.976000	24.651484	0.000985	20.758589
1016.298715	-2.982500	3.645800	-10.872000	24.631588	0.000986	20.763281
1017.303268	-2.995700	3.645800	-10.921000	24.631787	0.000985	20.772491
1018.296365	-3.001600	3.645400	-10.941000	24.638228	0.000983	20.788911
1019.293970	-3.008600	3.645200	-10.965000	24.681925	0.000984	20.777756
1020.294932	-2.998900	3.646400	-10.935000	24.665139	0.000984	20.793629
1021.294106	-3.008100	3.644700	-10.963000	24.694559	0.000983	20.778106
1022.305728	-2.987300	3.644500	-10.886000	24.753623	0.000983	20.779530
1023.303249	-3.008300	3.645200	-10.964000	24.742979	0.000984	20.778806
1024.294938	-3.011100	3.644300	-10.971000	24.719281	0.000983	20.769249
1025.296627	-3.001900	3.642500	-10.933000	24.716173	0.000982	20.769924
1026.297805	-2.993200	3.643700	-10.905000	24.712715	0.000982	20.770247
1027.294278	-2.977800	3.645500	-10.854000	24.714034	0.000981	20.755923
1028.294465	-2.987200	3.642900	-10.882000	24.698393	0.000980	20.756823
1029.301425	-3.018800	3.641400	-10.992000	24.704387	0.000982	20.765683
1030.295157	-3.005800	3.642500	-10.947000	24.738184	0.000980	20.763562
1031.294740	-3.022700	3.641600	-11.006000	24.754174	0.000978	20.768704
1032.300530	-3.013700	3.641500	-10.974000	24.763178	0.000980	20.761143
1033.296914	-3.019600	3.640100	-10.989000	24.751316	0.000980	20.774844
1034.299223	-3.000700	3.640600	-10.924000	24.753105	0.000979	20.764312
1035.299865	-3.008900	3.640100	-10.951000	24.745126	0.000976	20.770529
1036.299636	-3.003700	3.639700	-10.931000	24.733312	0.000977	20.753457
1037.299067	-3.002500	3.641300	-10.931000	24.732517	0.000976	20.745547
1038.301611	-2.992000	3.640000	-10.890000	24.732195	0.000978	20.756129
1039.300976	-2.995900	3.640500	-10.905000	24.733711	0.000977	20.763816
1040.304635	-3.012200	3.639000	-10.960000	24.733538	0.000978	20.751313
1041.307333	-2.990200	3.639900	-10.883000	24.758755	0.000976	20.765240
1042.301613	-3.006700	3.639000	-10.940000	24.790037	0.000975	20.745424
1043.304222	-2.995500	3.641200	-10.906000	24.813512	0.000975	20.746697
1044.306071	-2.993000	3.639800	-10.891000	24.793270	0.000973	20.754359
1045.300409	-2.997100	3.637900	-10.903000	24.824826	0.000975	20.758053
1046.300650	-3.003900	3.637500	-10.926000	24.790014	0.000973	20.756307
1047.304586	-3.011100	3.639300	-10.958000	24.797374	0.000973	20.756106
1048.307773	-3.001400	3.638700	-10.920000	24.773552	0.000972	20.746424
1049.306249	-3.030200	3.636500	-11.019000	24.757438	0.000972	20.752064
1050.305133	-2.992200	3.637700	-10.884000	24.728715	0.000974	20.758802
1051.307457	-3.002900	3.637000	-10.921000	24.707106	0.000972	20.746599
1052.307400	-3.013500	3.637200	-10.960000	24.715361	0.000971	20.723114
1053.306299	-2.991000	3.637400	-10.878000	24.700515	0.000971	20.764643
1054.302746	-2.995800	3.636000	-10.892000	24.687234	0.000971	20.763643
1055.302569	-2.993500	3.637200	-10.887000	24.700715	0.000969	20.741135
1056.303324	-3.003300	3.635800	-10.918000	24.704471	0.000970	20.766715
1057.301031	-3.014700	3.634500	-10.956000	24.726255	0.000970	20.742108
1058.304329	-3.006100	3.636000	-10.929000	24.757911	0.000970	20.754435
1059.306696	-2.978800	3.635500	-10.828000	24.741225	0.000968	20.740535
1060.311711	-2.983200	3.634800	-10.842000	24.769698	0.000968	20.747297
1061.306336	-3.001400	3.634100	-10.905000	24.775916	0.000969	20.744529
1062.307087	-3.009400	3.634400	-10.936000	24.751444	0.000967	20.754110
1063.308316	-2.987900	3.634200	-10.857000	24.735704	0.000969	20.731200
1064.305210	-2.996800	3.633400	-10.888000	24.774299	0.000967	20.712558
1065.313766	-3.020600	3.631600	-10.968000	24.788296	0.000967	20.759798
1066.313292	-2.999400	3.632800	-10.896000	24.771337	0.000967	20.746097
1067.310874	-3.004500	3.632700	-10.913000	24.786880	0.000964	20.712856
1068.310877	-2.967900	3.633900	-10.783000	24.780912	0.000964	20.747172
1069.306160	-2.989100	3.632000	-10.855000	24.792028	0.000967	20.719919
1070.312938	-2.961900	3.633200	-10.761000	24.782825	0.000964	20.749566
1071.312033	-3.010300	3.632000	-10.933000	24.773849	0.000965	20.742929
1072.314671	-2.988200	3.631600	-10.850000	24.793518	0.000964	20.737537
1073.310341	-3.008300	3.629800	-10.919000	24.786083	0.000964	20.727704
1074.313575	-2.997400	3.629600	-10.879000	24.743186	0.000963	20.732545
1075.310865	-3.014000	3.629300	-10.938000	24.738114	0.000964	20.746896
1076.314239	-2.994000	3.629400	-10.865000	24.736720	0.000963	20.742178
1077.318368	-2.991000	3.628700	-10.853000	24.741645	0.000961	20.746646
1078.317974	-2.985000	3.629900	-10.834000	24.774195	0.000961	20.746121
1079.311340	-3.023600	3.627800	-10.968000	24.811346	0.000961	20.732670
1080.313325	-2.981000	3.629100	-10.817000	24.810673	0.000961	20.747167
1081.313643	-3.025000	3.628700	-10.975000	24.822013	0.000963	20.740530
1082.309681	-2.991100	3.628200	-10.850000	24.843622	0.000960	20.727129
1083.313660	-2.999200	3.628100	-10.881000	24.872813	0.000959	20.737459
1084.314256	-3.013500	3.627000	-10.929000	24.866648	0.000960	20.748816
1085.315299	-3.008600	3.627700	-10.914000	24.872291	0.000960	20.752109
1086.315259	-3.007800	3.626400	-10.906000	24.891759	0.000957	20.720439
1087.313749	-3.027000	3.625400	-10.972000	24.898573	0.000957	20.720639
1088.313449	-3.010400	3.626400	-10.917000	24.910732	0.000958	20.734740
1089.314237	-2.997500	3.626600	-10.870000	24.901954	0.000958	20.726878
1090.318238	-3.012900	3.625600	-10.922000	24.893949	0.000957	20.728327
1091.314678	-2.982600	3.626800	-10.816000	24.873858	0.000956	20.734241
1092.314965	-2.969300	3.626600	-10.767000	24.855012	0.000956	20.708687
1093.322933	-2.996700	3.625300	-10.863000	24.841782	0.000957	20.751836
1094.315612	-3.003800	3.625100	-10.888000	24.836983	0.000955	20.730897
1095.321811	-2.999600	3.624600	-10.871000	24.817389	0.000954	20.721664
1096.321887	-2.996000	3.623200	-10.854000	24.803290	0.000954	20.743077
1097.316587	-3.000900	3.625100	-10.875000	24.800554	0.000954	20.737486
1098.313330	-2.984700	3.624800	-10.818000	24.810476	0.000954	20.717570
1099.316056	-3.008300	3.622000	-10.895000	24.825497	0.000953	20.740233
1100.317334	-2.981900	3.623400	-10.804000	24.857149	0.000954	20.728377
1101.316346	-3.020000	3.623100	-10.940000	24.840316	0.000952	20.732820
1102.317262	-2.974300	3.624400	-10.780000	24.847302	0.000950	20.719442
1103.317191	-3.004200	3.621600	-10.878000	24.881070	0.000951	20.733419
1104.314707	-3.008900	3.621100	-10.895000	24.879430	0.000953	20.736040
1105.316306	-3.004600	3.622700	-10.883000	24.918837	0.000951	20.734341
1106.316450	-2.986100	3.621700	-10.813000	24.938008	0.000952	20.728926
1107.313321	-2.990200	3.622900	-10.832000	24.934305	0.000950	20.750340
1108.318401	-2.996900	3.621100	-10.851000	24.927641	0.000948	20.734168
1109.317256	-3.000100	3.620600	-10.861000	24.951336	0.000950	20.733769
1110.317433	-2.986900	3.621500	-10.816000	24.937189	0.000948	20.735690
1111.323832	-2.997700	3.621400	-10.854000	24.940148	0.000946	20.727755
1112.316567	-3.000200	3.620300	-10.860000	24.956806	0.000948	20.734992
1113.318054	-3.025400	3.618800	-10.946000	24.981967	0.000945	20.740333
1114.320768	-3.000200	3.620200	-10.861000	24.986020	0.000947	20.744875
1115.321614	-2.991200	3.620800	-10.829000	24.987710	0.000949	20.747046
1116.316352	-2.992900	3.619700	-10.832000	24.985622	0.000944	20.729302
1117.321639	-3.017400	3.618700	-10.918000	24.987809	0.000945	20.740032
1118.324448	-2.986900	3.619200	-10.809000	24.975753	0.000946	20.727457
1119.325698	-3.012300	3.617500	-10.895000	25.002603	0.000945	20.730700
1120.321880	-2.962000	3.618400	-10.716000	24.975555	0.000943	20.721093
1121.317258	-2.987600	3.618600	-10.810000	24.964044	0.000945	20.729454
1122.322226	-3.007800	3.615800	-10.874000	24.950021	0.000944	20.739087
1123.319868	-2.992500	3.617700	-10.825000	24.937988	0.000944	20.737441
1124.320392	-3.000900	3.616000	-10.850000	24.932022	0.000943	20.735720
1125.317671	-3.017800	3.617000	-10.914000	24.914194	0.000943	20.738689
1126.315953	-2.989600	3.618500	-10.817000	24.903279	0.000942	20.726785
1127.318434	-3.000700	3.617300	-10.853000	24.868144	0.000943	20.721393
1128.321128	-2.993700	3.615900	-10.824000	24.886098	0.000940	20.738465
1129.319545	-3.015200	3.615000	-10.899000	24.896790	0.000940	20.734972
1130.320771	-3.014900	3.614500	-10.897000	24.907283	0.000941	20.729856
1131.319466	-3.003300	3.614100	-10.854000	24.913176	0.000938	20.729607
1132.319407	-2.991900	3.614100	-10.811000	24.901589	0.000940	20.737418
1133.321829	-2.997500	3.614100	-10.832000	24.861507	0.000937	20.737018
1134.320487	-2.997000	3.614400	-10.832000	24.847086	0.000938	20.741037
1135.319787	-3.005700	3.612700	-10.857000	24.845716	0.000939	20.720221
1136.328628	-2.999800	3.612400	-10.835000	24.864391	0.000936	20.756983
1137.322591	-2.985400	3.612800	-10.784000	24.888163	0.000937	20.731528
1138.327630	-2.987900	3.611500	-10.790000	24.898207	0.000938	20.744456
1139.322773	-3.002900	3.611400	-10.842000	24.928244	0.000937	20.741886
1140.324661	-3.008000	3.611000	-10.860000	24.968396	0.000937	20.751842
1141.324081	-3.008100	3.611000	-10.861000	24.958577	0.000935	20.746727
1142.324684	-2.996100	3.612000	-10.821000	24.971952	0.000934	20.742609
1143.327190	-2.994400	3.611500	-10.812000	24.942862	0.000937	20.742808
1144.324833	-2.998300	3.612200	-10.829000	24.906338	0.000936	20.756409
1145.331027	-3.012700	3.609600	-10.873000	24.870010	0.000934	20.752666
1146.325621	-2.979700	3.611500	-10.759000	24.846861	0.000933	20.741760
1147.327446	-3.009000	3.610100	-10.861000	24.860712	0.000931	20.734324
1148.327990	-3.004900	3.610200	-10.846000	24.893283	0.000931	20.753738
1149.327518	-3.015600	3.608600	-10.881000	24.900743	0.000930	20.743207
1150.327367	-2.979800	3.610300	-10.758000	24.928019	0.000931	20.750670
1151.328001	-3.009700	3.607300	-10.856000	24.907730	0.000929	20.751643
1152.328232	-2.999000	3.607700	-10.818000	24.920211	0.000931	20.764170
1153.329157	-3.020500	3.607800	-10.897000	24.878813	0.000929	20.757707
1154.328113	-2.986400	3.606700	-10.770000	24.898554	0.000930	20.744804
1155.330188	-2.999200	3.606400	-10.815000	24.865932	0.000930	20.748572
1156.333265	-2.988600	3.606700	-10.777000	24.871900	0.000929	20.753140
1157.330336	-3.010000	3.605900	-10.853000	24.883637	0.000927	20.727460
1158.328144	-3.013900	3.606100	-10.867000	24.915289	0.000927	20.753065
1159.334861	-2.970900	3.607400	-10.716000	24.926726	0.000927	20.757432
1160.332690	-2.989700	3.606800	-10.782000	24.950098	0.000925	20.762399
1161.328536	-3.008100	3.604300	-10.841000	24.988836	0.000925	20.757659
1162.331165	-3.007100	3.604300	-10.837000	24.997387	0.000925	20.760078
1163.328271	-3.002500	3.604900	-10.823000	25.018122	0.000926	20.755761
1164.328436	-3.004400	3.604600	-10.828000	25.039778	0.000924	20.767542
1165.331400	-3.007100	3.605000	-10.840000	25.051238	0.000923	20.753442
1166.332501	-3.013200	3.603600	-10.857000	25.072618	0.000923	20.755937
1167.330485	-3.000500	3.602300	-10.806000	25.087958	0.000923	20.755688
1168.332937	-3.004700	3.601500	-10.820000	25.065138	0.000922	20.771188
1169.332714	-3.004700	3.601900	-10.821000	25.075156	0.000920	20.743786
1170.333182	-3.012500	3.602700	-10.852000	25.064988	0.000922	20.757286
1171.331506	-2.991100	3.603100	-10.776000	25.058973	0.000923	20.758835
1172.330797	-3.021000	3.602100	-10.881000	25.024542	0.000922	20.766473
1173.332423	-3.003200	3.601500	-10.815000	25.004725	0.000920	20.744210
1174.336887	-3.024600	3.601000	-10.891000	25.034958	0.000920	20.771239
1175.333715	-3.018800	3.600400	-10.868000	25.012433	0.000920	20.777553
1176.335576	-2.977400	3.601200	-10.721000	24.999481	0.000920	20.750326
1177.333318	-3.012500	3.599200	-10.840000	24.992420	0.000920	20.766473
1178.353055	-2.992300	3.600900	-10.774000	24.961517	0.000918	20.767696
1179.338336	-3.011200	3.598900	-10.834000	24.949061	0.000918	20.762780
1180.343164	-2.979300	3.600100	-10.725000	24.941702	0.000917	20.763455
1181.336142	-2.986300	3.600400	-10.751000	24.978972	0.000917	20.761983
1182.337317	-2.992600	3.598500	-10.768000	24.993641	0.000916	20.773388
1183.334782	-2.985300	3.599400	-10.744000	25.026558	0.000915	20.758539
1184.342396	-3.020600	3.598600	-10.868000	25.007290	0.000915	20.773812
1185.336020	-2.988200	3.597900	-10.749000	24.974945	0.000915	20.744664
1186.344024	-3.006300	3.597600	-10.815000	24.977307	0.000915	20.753199
1187.355156	-3.008800	3.596900	-10.822000	24.948914	0.000915	20.744614
1188.339650	-2.990700	3.598200	-10.760000	24.917512	0.000913	20.754348
1189.340127	-3.004700	3.597400	-10.808000	24.898539	0.000917	20.761384
1190.336246	-3.014400	3.596400	-10.841000	24.914803	0.000913	20.765380
1191.345638	-3.000400	3.598300	-10.796000	24.903314	0.000913	20.774238
1192.342989	-2.981400	3.596500	-10.722000	24.907568	0.000913	20.748635
1193.339841	-3.004700	3.595100	-10.802000	24.916418	0.000912	20.785494
1194.339710	-2.974700	3.596300	-10.697000	24.951525	0.000912	20.769996
1195.345373	-2.983200	3.595800	-10.726000	24.966445	0.000911	20.769324
1196.348286	-2.991200	3.595600	-10.753000	24.978105	0.000911	20.768699
1197.339742	-3.004100	3.595600	-10.800000	24.962093	0.000908	20.753575
1198.341738	-3.006900	3.594100	-10.806000	24.970348	0.000912	20.762336
1199.339350	-3.018000	3.593900	-10.845000	24.954957	0.000909	20.771544
1200.340981	-3.005100	3.593400	-10.797000	24.950382	0.000909	20.780228
1201.344101	-3.005600	3.592700	-10.796000	24.964329	0.000908	20.791857
1202.340647	-3.007000	3.592900	-10.802000	24.943273	0.000906	20.773567
1203.347750	-2.992400	3.592100	-10.748000	24.926165	0.000906	20.787690
1204.346274	-2.982500	3.592400	-10.714000	24.962664	0.000905	20.766477
1205.350409	-2.983300	3.592900	-10.717000	24.974499	0.000907	20.783098
1206.345968	-2.997500	3.592700	-10.768000	24.968407	0.000905	20.785519
1207.350845	-2.991000	3.592400	-10.743000	24.996452	0.000904	20.781425
1208.365505	-2.998800	3.591200	-10.768000	24.975320	0.000905	20.785344
1209.353045	-3.004600	3.591200	-10.790000	24.983375	0.000903	20.784895
1210.360610	-3.020700	3.590800	-10.844000	24.974624	0.000903	20.776112
1211.348469	-3.017200	3.589400	-10.829000	24.975668	0.000905	20.764831
1212.350863	-3.011600	3.590000	-10.810000	25.007615	0.000904	20.791683
1213.351403	-3.004300	3.589800	-10.783000	25.029744	0.000904	20.784023
1214.351325	-2.991700	3.587900	-10.733000	24.997571	0.000902	20.779230
1215.350772	-2.975700	3.589000	-10.679000	24.984792	0.000901	20.765454
1216.353162	-2.998700	3.590200	-10.765000	24.966891	0.000901	20.776884
1217.351106	-3.007900	3.586100	-10.785000	24.970621	0.000901	20.780628
1218.351762	-2.990700	3.589900	-10.735000	24.984693	0.000899	20.782899
1219.355598	-3.023600	3.587100	-10.844000	25.004508	0.000900	20.796151
1220.356157	-2.977700	3.587100	-10.680000	25.016988	0.000900	20.775012
1221.357089	-3.019700	3.587600	-10.833000	24.999535	0.000898	20.768873
1222.360537	-3.006800	3.588000	-10.787000	25.011842	0.000898	20.785968
1223.358171	-2.993900	3.588000	-10.741000	25.013209	0.000898	20.795875
1224.360606	-3.014900	3.585700	-10.809000	25.040831	0.000896	20.763858
1225.361698	-2.981000	3.586300	-10.689000	25.063851	0.000898	20.793604
1226.361201	-2.979800	3.585800	-10.684000	25.074666	0.000895	20.794503
1227.358727	-3.011900	3.585200	-10.797000	25.090352	0.000896	20.790335
1228.360413	-2.973200	3.586500	-10.662000	25.125504	0.000895	20.794329
1229.360745	-3.004400	3.584900	-10.769000	25.126224	0.000896	20.788887
1230.360246	-3.002800	3.584400	-10.762000	25.125281	0.000894	20.788415
1231.364257	-3.014200	3.584900	-10.805000	25.133757	0.000893	20.787914
1232.362487	-3.008300	3.584500	-10.783000	25.174476	0.000891	20.795602
1233.360494	-3.008400	3.582500	-10.777000	25.169677	0.000892	20.808328
1234.364552	-3.012100	3.583600	-10.793000	25.202715	0.000893	20.785071
1235.360892	-3.007200	3.583000	-10.773000	25.207288	0.000892	20.787291
1236.360710	-2.989100	3.582400	-10.707000	25.195929	0.000890	20.802440
1237.360973	-3.014800	3.582300	-10.798000	25.188175	0.000892	20.801767
1238.359231	-2.993200	3.581700	-10.719000	25.182234	0.000891	20.789640
1239.358923	-2.974300	3.583100	-10.656000	25.165182	0.000890	20.801444
1240.361293	-2.993800	3.582600	-10.725000	25.202915	0.000890	20.801393
1241.361484	-2.991000	3.579800	-10.706000	25.206992	0.000889	20.784623
1242.361918	-3.010100	3.580600	-10.777000	25.205476	0.000889	20.804438
1243.363612	-2.998600	3.580800	-10.736000	25.186508	0.000889	20.813371
1244.362280	-3.020100	3.580100	-10.811000	25.197274	0.000887	20.822282
1245.363651	-3.001300	3.579500	-10.742000	25.187653	0.000887	20.801243
1246.363503	-2.990000	3.580800	-10.704000	25.182109	0.000888	20.806109
1247.364022	-2.998100	3.579100	-10.729000	25.222303	0.000888	20.802840
1248.361981	-3.008800	3.578300	-10.765000	25.223969	0.000888	20.803564
1249.365106	-3.022200	3.577000	-10.809000	25.223993	0.000884	20.813071
1250.363358	-2.970300	3.579400	-10.631000	25.227498	0.000886	20.790986
1251.364273	-2.971900	3.578700	-10.634000	25.218424	0.000885	20.817438
1252.364682	-3.003900	3.577100	-10.744000	25.170054	0.000885	20.818188
1253.361650	-2.989100	3.577800	-10.693000	25.168635	0.000883	20.824351
1254.364018	-2.996100	3.578300	-10.720000	25.200900	0.000881	20.826871
1255.372251	-3.018200	3.576200	-10.793000	25.181462	0.000884	20.820158
1256.363596	-3.002400	3.577600	-10.741000	25.175794	0.000882	20.811623
1257.363749	-2.993500	3.577300	-10.708000	25.156182	0.000882	20.803788
1258.369051	-3.017700	3.575300	-10.788000	25.129184	0.000882	20.792807
1259.364560	-2.988400	3.577400	-10.689000	25.128016	0.000881	20.813920
1260.365361	-3.002300	3.575400	-10.734000	25.159262	0.000881	20.817786
1261.367234	-2.986400	3.575500	-10.676000	25.141613	0.000880	20.801965
1262.368422	-2.994100	3.576000	-10.706000	25.175419	0.000880	20.812670
1263.365729	-2.994000	3.574300	-10.700000	25.194212	0.000879	20.820156
1264.366489	-2.983700	3.575200	-10.666000	25.228266	0.000879	20.833956
1265.363634	-3.019500	3.572800	-10.786000	25.229881	0.000878	20.826095
1266.367425	-3.014000	3.571600	-10.763000	25.247653	0.000876	20.821652
1267.367564	-3.006800	3.572600	-10.741000	25.239129	0.000877	20.820680
1268.366487	-2.998600	3.573700	-10.714000	25.239698	0.000877	20.831209
1269.366770	-3.017900	3.572300	-10.780000	25.181533	0.000876	20.817859
1270.367547	-3.002300	3.572300	-10.723000	25.187574	0.000874	20.822975
1271.369451	-3.025400	3.570300	-10.801000	25.170744	0.000875	20.824097
1272.367224	-2.991800	3.572500	-10.688000	25.156998	0.000874	20.827366
1273.374640	-2.991000	3.570800	-10.679000	25.182676	0.000875	20.830385
1274.367645	-2.995300	3.571300	-10.697000	25.210415	0.000874	20.820777
1275.368529	-2.994400	3.570700	-10.692000	25.173677	0.000872	20.804757
1276.372667	-3.007600	3.569000	-10.733000	25.143796	0.000871	20.838769
1277.370381	-3.012300	3.569500	-10.751000	25.163163	0.000871	20.825969
1278.371817	-2.995600	3.571500	-10.697000	25.181681	0.000871	20.807577
1279.373815	-3.000400	3.569900	-10.710000	25.173677	0.000870	20.834628
1280.371902	-3.002100	3.569800	-10.716000	25.198461	0.000870	20.825845
1281.372190	-2.975400	3.569000	-10.618000	25.210916	0.000870	20.844037
1282.378456	-2.988300	3.568800	-10.662000	25.218000	0.000869	20.824598
1283.374686	-3.025500	3.567400	-10.792000	25.231197	0.000871	20.835477
1284.375310	-3.010200	3.568300	-10.740000	25.229409	0.000868	20.818983
1285.380054	-2.991100	3.567600	-10.669000	25.238481	0.000868	20.830936
1286.377171	-3.011100	3.566700	-10.738000	25.238978	0.000869	20.847081
1287.376992	-2.993200	3.568300	-10.680000	25.254040	0.000866	20.841340
1288.378138	-2.988100	3.566400	-10.656000	25.216459	0.000866	20.832534
1289.378162	-3.015100	3.566300	-10.751000	25.190234	0.000868	20.843189
1290.377570	-3.001700	3.565400	-10.701000	25.152897	0.000866	20.838422
1291.381373	-2.996200	3.565400	-10.681000	25.195977	0.000863	20.838524
1292.382369	-2.987100	3.565500	-10.649000	25.222525	0.000864	20.855692
1293.379014	-2.998200	3.566200	-10.690000	25.238458	0.000864	20.844662
1294.383149	-2.995000	3.564700	-10.675000	25.261872	0.000864	20.860582
1295.384034	-3.019200	3.565000	-10.762000	25.247828	0.000863	20.838422
1296.379807	-3.024800	3.563400	-10.777000	25.284838	0.000861	20.847131
1297.383637	-3.032300	3.562100	-10.800000	25.268533	0.000865	20.837874
1298.384007	-3.019300	3.563800	-10.759000	25.250088	0.000863	20.841166
1299.381168	-3.006200	3.562200	-10.708000	25.214369	0.000862	20.845133
1300.384637	-2.999900	3.562200	-10.685000	25.194409	0.000861	20.825569
1301.381665	-3.029600	3.560600	-10.787000	25.167090	0.000861	20.846980
1302.381756	-3.008300	3.561100	-10.712000	25.134401	0.000861	20.849251
1303.383473	-2.982500	3.563500	-10.627000	25.181234	0.000859	20.846955
1304.383041	-2.990000	3.561900	-10.649000	25.184142	0.000860	20.849875
1305.384751	-3.002600	3.560500	-10.690000	25.211112	0.000858	20.848502
1306.382663	-2.982200	3.562300	-10.621000	25.210964	0.000858	20.852620
1307.382398	-3.005200	3.561200	-10.701000	25.221253	0.000859	20.864846
1308.382057	-3.009800	3.560600	-10.716000	25.223293	0.000857	20.848403
1309.384708	-2.999500	3.560100	-10.678000	25.243800	0.000857	20.860456
1310.382632	-2.997100	3.560500	-10.670000	25.262840	0.000857	20.862502
1311.384434	-3.012100	3.559200	-10.719000	25.281854	0.000856	20.848403
1312.385153	-3.030300	3.559200	-10.785000	25.269549	0.000855	20.873505
1313.381967	-2.990600	3.559400	-10.643000	25.287620	0.000854	20.861304
1314.381558	-2.999300	3.558900	-10.672000	25.280761	0.000853	20.860107
1315.383490	-2.995900	3.560500	-10.665000	25.259882	0.000853	20.883713
1316.391238	-2.980700	3.558300	-10.605000	25.205098	0.000852	20.871386
1317.383029	-2.999500	3.558500	-10.672000	25.168832	0.000853	20.854419
1318.387129	-3.010900	3.556300	-10.705000	25.144544	0.000849	20.854218
1319.383473	-2.995600	3.557100	-10.654000	25.134277	0.000853	20.866196
1320.383793	-3.019400	3.556500	-10.737000	25.188966	0.000852	20.858036
1321.383274	-3.011100	3.555700	-10.706000	25.202862	0.000851	20.870564
1322.384537	-3.015200	3.556300	-10.721000	25.210916	0.000848	20.874382
1323.384485	-2.994700	3.554600	-10.644000	25.201123	0.000848	20.861232
1324.386246	-2.995100	3.556500	-10.652000	25.198488	0.000849	20.871388
1325.387218	-2.971000	3.555700	-10.562000	25.204031	0.000850	20.871263
1326.386973	-3.007600	3.554400	-10.690000	25.220039	0.000847	20.891601
1327.390400	-3.001100	3.554800	-10.667000	25.193119	0.000847	20.878325
1328.385579	-3.003900	3.555300	-10.679000	25.210073	0.000846	20.877803
1329.383591	-3.001300	3.553100	-10.662000	25.230058	0.000847	20.892650
1330.387531	-3.010000	3.551800	-10.689000	25.247260	0.000846	20.889058
1331.386106	-2.993300	3.553300	-10.635000	25.275146	0.000845	20.870590
1332.385679	-3.007400	3.552600	-10.683000	25.279324	0.000845	20.875733
1333.388557	-2.993300	3.554400	-10.638000	25.251584	0.000843	20.871116
1334.391557	-3.009500	3.553100	-10.692000	25.216910	0.000844	20.885140
1335.407566	-2.986300	3.553200	-10.609000	25.212114	0.000845	20.874637
1336.388979	-2.994600	3.553200	-10.640000	25.232670	0.000842	20.879153
1337.390853	-2.980400	3.552000	-10.585000	25.240899	0.000843	20.896895
1338.393655	-3.014100	3.551500	-10.701000	25.265805	0.000841	20.885866
1339.392980	-2.982800	3.552400	-10.595000	25.267993	0.000842	20.892330
1340.392958	-3.009000	3.550700	-10.682000	25.282210	0.000842	20.884794
1341.394480	-3.022300	3.549700	-10.727000	25.306470	0.000840	20.890659
1342.395455	-3.015900	3.550200	-10.706000	25.332195	0.000839	20.888514
1343.392671	-3.014200	3.548600	-10.695000	25.329709	0.000840	20.875113
1344.393479	-2.990700	3.551900	-10.622000	25.329337	0.000839	20.890385
1345.395602	-3.003800	3.549600	-10.660000	25.337738	0.000837	20.871795
1346.393631	-3.002700	3.548900	-10.655000	25.336621	0.000838	20.896749
1347.396329	-3.008000	3.548800	-10.674000	25.324815	0.000839	20.889638
1348.395574	-2.995400	3.547200	-10.624000	25.327178	0.000837	20.874468
1349.394701	-3.035100	3.547600	-10.766000	25.312388	0.000837	20.882377
1350.392866	-3.019200	3.547100	-10.708000	25.324940	0.000837	20.886445
1351.395745	-2.988300	3.547700	-10.600000	25.317186	0.000837	20.867281
1352.396526	-2.981600	3.548900	-10.580000	25.356107	0.000837	20.873644
1353.399364	-2.997200	3.547200	-10.630000	25.378528	0.000835	20.875293
1354.395860	-3.007900	3.546200	-10.666000	25.354692	0.000834	20.863215
1355.406273	-2.995100	3.546600	-10.622000	25.373954	0.000835	20.892036
1356.400471	-2.991100	3.546900	-10.609000	25.377956	0.000834	20.854332
1357.398352	-2.971400	3.547500	-10.539000	25.393092	0.000834	20.879011
1358.402438	-2.993100	3.547100	-10.616000	25.397814	0.000833	20.860521
1359.401996	-3.013700	3.545200	-10.682000	25.359416	0.000834	20.859423
1360.399857	-3.009800	3.543700	-10.665000	25.367842	0.000832	20.847969
1361.404905	-2.979900	3.544800	-10.562000	25.386829	0.000833	20.853284
1362.401265	-2.999900	3.544300	-10.631000	25.386308	0.000832	20.878363
1363.400998	-2.975900	3.546200	-10.551000	25.421401	0.000834	20.846274
1364.402103	-2.984100	3.544800	-10.577000	25.424582	0.000830	20.870804
1365.404423	-2.990400	3.543000	-10.594000	25.435965	0.000831	20.849044
1366.401660	-2.994600	3.543200	-10.609000	25.455920	0.000828	20.846797
1367.403530	-3.012500	3.542400	-10.670000	25.450429	0.000830	20.877791
1368.404367	-3.013600	3.542700	-10.675000	25.469019	0.000828	20.849994
1369.407025	-2.984500	3.542300	-10.571000	25.409870	0.000827	20.851290
1370.409330	-3.018900	3.541400	-10.690000	25.403434	0.000827	20.859526
1371.403969	-2.994700	3.542400	-10.607000	25.395382	0.000827	20.839588
1372.403516	-3.016000	3.540200	-10.675000	25.365956	0.000827	20.855559
1373.414612	-2.991800	3.541200	-10.593000	25.345652	0.000824	20.851767
1374.410249	-3.008600	3.540500	-10.651000	25.336280	0.000826	20.827185
1375.402659	-3.017000	3.539200	-10.677000	25.328378	0.000826	20.864294
1376.404662	-2.994100	3.540200	-10.598000	25.319978	0.000825	20.855386
1377.408687	-3.005900	3.538500	-10.635000	25.312569	0.000825	20.847474
1378.404140	-3.010800	3.539100	-10.654000	25.339513	0.000823	20.838966
1379.407143	-2.978000	3.539700	-10.540000	25.360889	0.000822	20.837669
1380.408417	-3.000200	3.539500	-10.618000	25.368991	0.000821	20.840115
1381.405624	-3.012200	3.536800	-10.651000	25.359623	0.000823	20.849200
1382.407300	-3.000900	3.539300	-10.621000	25.335339	0.000820	20.854214
1383.407821	-2.990300	3.538400	-10.580000	25.338843	0.000822	20.843508
1384.406943	-2.989100	3.536900	-10.571000	25.332356	0.000821	20.823245
1385.407857	-3.017500	3.535600	-10.668000	25.323160	0.000818	20.855262
1386.407062	-2.984900	3.537000	-10.557000	25.334220	0.000818	20.843134
1387.410491	-3.012100	3.535100	-10.646000	25.351094	0.000819	20.837318
1388.410251	-2.986100	3.536900	-10.560000	25.328701	0.000817	20.866041
1389.407261	-2.996800	3.536700	-10.597000	25.362180	0.000817	20.836121
1390.409627	-3.018100	3.534200	-10.665000	25.391134	0.000816	20.846227
1391.409422	-2.987600	3.534700	-10.559000	25.425332	0.000815	20.834574
1392.408554	-2.998700	3.534700	-10.597000	25.441758	0.000815	20.830680
1393.407420	-2.982200	3.534900	-10.541000	25.428885	0.000815	20.822021
1394.409205	-2.983900	3.534800	-10.546000	25.430201	0.000814	20.845153
1395.413502	-2.987500	3.534000	-10.556000	25.444218	0.000815	20.851641
1396.412117	-3.001300	3.533900	-10.605000	25.391084	0.000814	20.829583
1397.412618	-3.008900	3.533200	-10.630000	25.339784	0.000811	20.845401
1398.410446	-2.988700	3.533000	-10.557000	25.311996	0.000814	20.840735
1399.410188	-2.999400	3.532400	-10.594000	25.266138	0.000810	20.816030
1400.411625	-2.983700	3.532400	-10.539000	25.267704	0.000811	20.817127
1401.410034	-2.996800	3.530900	-10.580000	25.249409	0.000811	20.828157
1402.409601	-2.981800	3.532100	-10.531000	25.265939	0.000810	20.843329
1403.413503	-2.991700	3.533000	-10.567000	25.270958	0.000810	20.829404
1404.410620	-3.024000	3.530600	-10.675000	25.273120	0.000811	20.832048
1405.410250	-3.011000	3.530400	-10.629000	25.239515	0.000807	20.831499
1406.409981	-2.980200	3.530100	-10.518000	25.240061	0.000809	20.821143
1407.414803	-2.995900	3.530600	-10.577000	25.233027	0.000808	20.824511
1408.412329	-3.002000	3.529800	-10.596000	25.226862	0.000808	20.818797
1409.414863	-2.991300	3.529900	-10.558000	25.262134	0.000807	20.820070
1410.415257	-2.993800	3.528600	-10.563000	25.275184	0.000805	20.800456
1411.412270	-3.012800	3.527600	-10.627000	25.298945	0.000806	20.814829
1412.414969	-3.028700	3.527600	-10.683000	25.329641	0.000804	20.828580
1413.417378	-2.985200	3.528800	-10.533000	25.334885	0.000805	20.797810
1414.416001	-3.001800	3.528200	-10.590000	25.352108	0.000804	20.823638
1415.418527	-2.986600	3.526600	-10.531000	25.355391	0.000804	20.786631
1416.414510	-2.981500	3.527000	-10.515000	25.353353	0.000802	20.828207
1417.415986	-3.008700	3.526000	-10.608000	25.361878	0.000803	20.810214
1418.417393	-2.987100	3.526800	-10.533000	25.339086	0.000802	20.808191
1419.419322	-3.001800	3.526200	-10.584000	25.325789	0.000802	20.812384
1420.418435	-2.999500	3.525900	-10.574000	25.338813	0.000802	20.824987
1421.417479	-2.991000	3.526500	-10.547000	25.342542	0.000802	20.821618
1422.421222	-3.006700	3.526300	-10.602000	25.321838	0.000799	20.788502
1423.416333	-2.996300	3.524000	-10.558000	25.301158	0.000799	20.807094
1424.420170	-2.996600	3.525000	-10.562000	25.320247	0.000799	20.812036
1425.425751	-2.995500	3.525100	-10.558000	25.313563	0.000798	20.818601
1426.420937	-3.015400	3.523500	-10.624000	25.290795	0.000800	20.810439
1427.422797	-3.009000	3.523300	-10.601000	25.279933	0.000799	20.807595
1428.418482	-3.018400	3.523400	-10.634000	25.266512	0.000797	20.810715
1429.425239	-2.992100	3.521800	-10.536000	25.228107	0.000797	20.811986
1430.421265	-2.989500	3.523000	-10.531000	25.228680	0.000796	20.797863
1431.422412	-3.022800	3.520900	-10.642000	25.195397	0.000795	20.797639
1432.421581	-2.993400	3.521400	-10.540000	25.203798	0.000795	20.811762
1433.424388	-2.993900	3.521900	-10.543000	25.216426	0.000798	20.800258
1434.425095	-3.021700	3.521800	-10.640000	25.203897	0.000793	20.786732
1435.423838	-2.999500	3.519500	-10.556000	25.252368	0.000793	20.795092
1436.424381	-3.003700	3.519700	-10.571000	25.254631	0.000794	20.799260
1437.425026	-2.968700	3.522600	-10.457000	25.281551	0.000792	20.801159
1438.425525	-2.985300	3.520000	-10.507000	25.321917	0.000792	20.803755
1439.425828	-3.013000	3.519700	-10.604000	25.332630	0.000793	20.796968
1440.429744	-3.002100	3.519800	-10.565000	25.342644	0.000793	20.813186
1441.424460	-3.025300	3.519200	-10.646000	25.368170	0.000793	20.787135
1442.433085	-3.027600	3.516400	-10.645000	25.371103	0.000792	20.797191
1443.424779	-3.027100	3.518000	-10.648000	25.386537	0.000791	20.801784
1444.426418	-2.991000	3.517900	-10.521000	25.398440	0.000790	20.773906
1445.427398	-2.992600	3.517100	-10.523000	25.369116	0.000791	20.805154
1446.425198	-2.991200	3.516100	-10.516000	25.350502	0.000790	20.792627
1447.425057	-3.006900	3.516400	-10.573000	25.360268	0.000789	20.801959
1448.429523	-2.999000	3.517500	-10.548000	25.370508	0.000788	20.791853
1449.428223	-3.021600	3.515800	-10.621000	25.401303	0.000789	20.773936
1450.425678	-2.982000	3.517300	-10.488000	25.417333	0.000789	20.801886
1451.433934	-3.008200	3.515600	-10.575000	25.403338	0.000788	20.791628
1452.429014	-2.984600	3.516500	-10.494000	25.423196	0.000785	20.785014
1453.429288	-2.997100	3.515600	-10.535000	25.388277	0.000786	20.788832
1454.431520	-2.985400	3.514800	-10.491000	25.385669	0.000785	20.799963
1455.429607	-2.993500	3.514300	-10.518000	25.367401	0.000784	20.786362
1456.429790	-2.986800	3.515300	-10.499000	25.348860	0.000782	20.784815
1457.430357	-3.023400	3.512900	-10.619000	25.338744	0.000785	20.787934
1458.434085	-2.983600	3.513800	-10.483000	25.348586	0.000781	20.776479
1459.429720	-3.013000	3.512100	-10.581000	25.353061	0.000783	20.797094
1460.432806	-3.014600	3.512200	-10.586000	25.332283	0.000783	20.778601
1461.435413	-2.978000	3.511800	-10.457000	25.315730	0.000781	20.791853
1462.431618	-2.994200	3.510500	-10.510000	25.311230	0.000782	20.799189
1463.432053	-2.989900	3.511100	-10.497000	25.305887	0.000780	20.762530
1464.435921	-2.981300	3.511500	-10.467000	25.331437	0.000780	20.793874
1465.436962	-3.000500	3.510900	-10.534000	25.328307	0.000781	20.780299
1466.434810	-2.990500	3.510700	-10.497000	25.325672	0.000781	20.778601
1467.440261	-3.010700	3.509100	-10.563000	25.316004	0.000777	20.777429
1468.433102	-3.022000	3.510200	-10.607000	25.317967	0.000779	20.765650
1469.435440	-2.968100	3.510900	-10.420000	25.322191	0.000779	20.777003
1470.438313	-2.977200	3.510000	-10.448000	25.345902	0.000777	20.763826
1471.437352	-3.006500	3.509200	-10.548000	25.356614	0.000776	20.779798
1472.435937	-2.992200	3.508000	-10.495000	25.350923	0.000776	20.779299
1473.436781	-2.993100	3.507700	-10.498000	25.349729	0.000779	20.787584
1474.436505	-3.004800	3.508300	-10.541000	25.374459	0.000776	20.793450
1475.438809	-3.002000	3.508600	-10.532000	25.373862	0.000776	20.784789
1476.436931	-2.998700	3.507200	-10.516000	25.400107	0.000771	20.780796
1477.435482	-2.998200	3.506700	-10.512000	25.406246	0.000774	20.766097
1478.437827	-2.992000	3.507100	-10.492000	25.354502	0.000774	20.780997
1479.440476	-2.985200	3.507100	-10.468000	25.376396	0.000772	20.780221
1480.438223	-3.000500	3.505400	-10.517000	25.359845	0.000776	20.787785
1481.439917	-2.984900	3.506400	-10.465000	25.374930	0.000774	20.778275
1482.440509	-3.006800	3.504700	-10.536000	25.381094	0.000773	20.771187
1483.439535	-2.999300	3.505700	-10.514000	25.398342	0.000771	20.756738
1484.441559	-2.988700	3.506500	-10.479000	25.399784	0.000772	20.766721
1485.438355	-2.987700	3.504100	-10.468000	25.416558	0.000771	20.783091
1486.440181	-2.993900	3.504000	-10.490000	25.410917	0.000770	20.785013
1487.441046	-3.004200	3.502700	-10.522000	25.408457	0.000769	20.768317
1488.443637	-2.991800	3.505100	-10.485000	25.417579	0.000770	20.760882
1489.450604	-2.987400	3.503300	-10.465000	25.418571	0.000769	20.777051
1490.440402	-2.992000	3.502300	-10.476000	25.426600	0.000771	20.775630
1491.443185	-2.997000	3.501800	-10.494000	25.444195	0.000769	20.767694
1492.444845	-3.016300	3.500700	-10.558000	25.438529	0.000769	20.780022
1493.445153	-3.029700	3.500100	-10.603000	25.453936	0.000769	20.766570
1494.445886	-3.009900	3.500200	-10.534000	25.410966	0.000768	20.762777
1495.447015	-2.998200	3.500800	-10.496000	25.425083	0.000768	20.761304
1496.447762	-3.003300	3.500300	-10.510000	25.412903	0.000766	20.780369
1497.444910	-2.988400	3.500400	-10.458000	25.425454	0.000768	20.755987
1498.444743	-2.982800	3.499700	-10.438000	25.423169	0.000764	20.758909
1499.444482	-3.012900	3.498700	-10.540000	25.433009	0.000765	20.771635
1500.445649	-2.993200	3.499600	-10.474000	25.438401	0.000766	20.766618
1501.448413	-3.033200	3.498100	-10.609000	25.389418	0.000763	20.772434
1502.444911	-2.997700	3.496800	-10.482000	25.343289	0.000764	20.756462
1503.445071	-2.990300	3.499200	-10.463000	25.326337	0.000762	20.737069
1504.448917	-2.992900	3.497500	-10.467000	25.307672	0.000762	20.772857
1505.443937	-2.977600	3.498100	-10.415000	25.285897	0.000761	20.775650
1506.449407	-3.003900	3.498200	-10.506000	25.296064	0.000761	20.746502
1507.451142	-3.004800	3.496400	-10.503000	25.309087	0.000760	20.748673
1508.447810	-3.005900	3.495400	-10.506000	25.351712	0.000761	20.773454
1509.451708	-3.009500	3.494500	-10.515000	25.377560	0.000758	20.775700
1510.447798	-2.998300	3.495400	-10.479000	25.403679	0.000759	20.754036
1511.443929	-2.997600	3.494600	-10.475000	25.430719	0.000759	20.757481
1512.452121	-2.995100	3.494100	-10.463000	25.447891	0.000760	20.750069
1513.448390	-3.010900	3.495100	-10.522000	25.437627	0.000760	20.747348
1514.446549	-2.974800	3.493900	-10.392000	25.481789	0.000758	20.740011
1515.449530	-2.992100	3.493800	-10.453000	25.472493	0.000756	20.753910
1516.447297	-2.998200	3.493500	-10.473000	25.507084	0.000756	20.738387
1517.448249	-2.993400	3.493700	-10.457000	25.525299	0.000756	20.760946
1518.451831	-3.000700	3.492300	-10.479000	25.493192	0.000754	20.761895
1519.451618	-3.006600	3.492500	-10.499000	25.470975	0.000755	20.772301
1520.451306	-3.001600	3.492400	-10.482000	25.453705	0.000753	20.739310
1521.451179	-2.992900	3.493100	-10.452000	25.457779	0.000753	20.760472
1522.450466	-2.993800	3.492700	-10.455000	25.488992	0.000753	20.742029
1523.449250	-3.005500	3.491000	-10.491000	25.474106	0.000754	20.752685
1524.450897	-2.986700	3.491100	-10.425000	25.447938	0.000753	20.758650
1525.452438	-3.021800	3.488400	-10.541000	25.437176	0.000751	20.756379
1526.451559	-2.983100	3.490200	-10.411000	25.424228	0.000751	20.757127
1527.454880	-3.003200	3.488800	-10.476000	25.416973	0.000751	20.756954
1528.451047	-3.018700	3.487800	-10.528000	25.411529	0.000752	20.757652
1529.452836	-3.004600	3.487600	-10.477000	25.386924	0.000751	20.750488
1530.452008	-3.021800	3.488500	-10.541000	25.381681	0.000749	20.760872
1531.452251	-2.994000	3.488200	-10.442000	25.449678	0.000748	20.750440
1532.451421	-2.981900	3.488600	-10.402000	25.449927	0.000749	20.729827
1533.453149	-2.983400	3.488200	-10.405000	25.449703	0.000748	20.750465
1534.452022	-3.009900	3.487900	-10.497000	25.458426	0.000748	20.739310
1535.452848	-2.968100	3.488900	-10.354000	25.462550	0.000747	20.754832
1536.452750	-2.979400	3.487700	-10.390000	25.485462	0.000746	20.746545
1537.463243	-2.997400	3.487100	-10.452000	25.485935	0.000747	20.747968
1538.454727	-2.993200	3.487600	-10.438000	25.494359	0.000747	20.765438
1539.452769	-2.987500	3.486100	-10.414000	25.497167	0.000745	20.762568
1540.454262	-2.997200	3.485900	-10.447000	25.471845	0.000743	20.741880
1541.453674	-3.016300	3.484400	-10.509000	25.440208	0.000745	20.758949
1542.454182	-2.997200	3.484300	-10.441000	25.377854	0.000744	20.730949
1543.455735	-3.011000	3.483300	-10.487000	25.348601	0.000744	20.743777
1544.454568	-3.016500	3.482800	-10.505000	25.326778	0.000743	20.752685
1545.456059	-3.018400	3.483700	-10.514000	25.370745	0.000741	20.741354
1546.455807	-3.016400	3.481600	-10.501000	25.385632	0.000741	20.732121
1547.467230	-2.984100	3.483200	-10.393000	25.422017	0.000741	20.745423
1548.454104	-3.014100	3.482800	-10.497000	25.431883	0.000740	20.752012
1549.454015	-3.029400	3.480400	-10.542000	25.450150	0.000739	20.756604
1550.453106	-3.006600	3.480700	-10.464000	25.442100	0.000740	20.738562
1551.455498	-3.007100	3.480400	-10.464000	25.409791	0.000740	20.749268
1552.456920	-2.987900	3.482000	-10.403000	25.389759	0.000740	20.741006
1553.455778	-2.999800	3.480200	-10.439000	25.398707	0.000738	20.738612
1554.459470	-2.996600	3.478800	-10.424000	25.402485	0.000739	20.731025
1555.459865	-2.991100	3.479000	-10.405000	25.424777	0.000738	20.755782
1556.458957	-3.011200	3.480400	-10.479000	25.462801	0.000739	20.732798
1557.456239	-2.996800	3.478400	-10.422000	25.461758	0.000738	20.746449
1558.464395	-3.013400	3.478900	-10.482000	25.437254	0.000736	20.737490
1559.457225	-2.992200	3.479400	-10.410000	25.394358	0.000735	20.742780
1560.458873	-2.996300	3.478000	-10.420000	25.418490	0.000735	20.750417
1561.457767	-3.009600	3.476500	-10.462000	25.386181	0.000735	20.727930
1562.458946	-3.012600	3.477900	-10.476000	25.379769	0.000735	20.751365
1563.458122	-2.994600	3.476700	-10.411000	25.390084	0.000732	20.733746
1564.455243	-3.016600	3.476400	-10.484000	25.411232	0.000734	20.742180
1565.458482	-3.000600	3.476200	-10.429000	25.445430	0.000733	20.729578
1566.460718	-2.985400	3.475700	-10.374000	25.449158	0.000732	20.731425
1567.460217	-3.014500	3.475800	-10.476000	25.425996	0.000732	20.724761
1568.459364	-2.984500	3.475900	-10.372000	25.392569	0.000734	20.728180
1569.456041	-2.980200	3.475300	-10.356000	25.343856	0.000731	20.721941
1570.471066	-3.024700	3.474300	-10.508000	25.356159	0.000732	20.741882
1571.459841	-3.019800	3.472100	-10.484000	25.318330	0.000732	20.742780
1572.459840	-2.989600	3.473500	-10.383000	25.322331	0.000731	20.734943
1573.463915	-2.991200	3.471600	-10.384000	25.331231	0.000729	20.747673
1574.462554	-2.982100	3.473300	-10.357000	25.363689	0.000729	20.766039
1575.463557	-2.987400	3.472500	-10.372000	25.339954	0.000729	20.745526
1576.461192	-3.014600	3.473100	-10.468000	25.360783	0.000730	20.730403
1577.472253	-3.006400	3.472800	-10.440000	25.394410	0.000730	20.733348
1578.467899	-2.987600	3.472000	-10.372000	25.450997	0.000727	20.748920
1579.462644	-2.969900	3.472000	-10.309000	25.463624	0.000728	20.730304
1580.464718	-2.982300	3.470900	-10.351000	25.462679	0.000728	20.741684
1581.463977	-2.996900	3.471100	-10.401000	25.426668	0.000727	20.735394
1582.466354	-2.994200	3.470000	-10.389000	25.410415	0.000727	20.737092
1583.465193	-2.991700	3.468900	-10.377000	25.384967	0.000726	20.752317
1584.470049	-3.015700	3.469000	-10.460000	25.392100	0.000727	20.731977
1585.464386	-2.987200	3.469900	-10.364000	25.356360	0.000724	20.742558
1586.466350	-2.994300	3.469300	-10.387000	25.328200	0.000727	20.722817
1587.470222	-3.000800	3.467300	-10.403000	25.321988	0.000726	20.731753
1588.464990	-3.011900	3.468200	-10.445000	25.341747	0.000724	20.724566
1589.467760	-3.001600	3.467400	-10.407000	25.356063	0.000723	20.724715
1590.476034	-3.008800	3.466000	-10.427000	25.394537	0.000724	20.749124
1591.473164	-3.013700	3.465900	-10.445000	25.417153	0.000724	20.722994
1592.467666	-3.013300	3.467200	-10.446000	25.443995	0.000723	20.739043
1593.470444	-3.017600	3.465500	-10.457000	25.423889	0.000721	20.738768
1594.468301	-3.009200	3.465000	-10.426000	25.440043	0.000721	20.728910
1595.469029	-3.010700	3.464100	-10.427000	25.445560	0.000719	20.739192
1596.470558	-2.981100	3.465400	-10.330000	25.440143	0.000720	20.732206
1597.472384	-2.979000	3.465900	-10.324000	25.429184	0.000720	20.755465
1598.469506	-2.988900	3.463700	-10.351000	25.370010	0.000719	20.725917
1599.472109	-2.992300	3.463000	-10.362000	25.341156	0.000720	20.764751
1600.476730	-3.019600	3.462700	-10.455000	25.309440	0.000717	20.742863
1601.470420	-3.016200	3.463500	-10.445000	25.340682	0.000718	20.730609
1602.473625	-3.021100	3.462000	-10.458000	25.358505	0.000719	20.711045
1603.478956	-3.004100	3.463200	-10.402000	25.339938	0.000717	20.745035
1604.475453	-3.008700	3.462800	-10.417000	25.325944	0.000717	20.755641
1605.476267	-2.986600	3.462500	-10.340000	25.312971	0.000717	20.736450
1606.477898	-3.016200	3.460000	-10.435000	25.305317	0.000716	20.746784
1607.473260	-2.996600	3.461200	-10.370000	25.315631	0.000716	20.740069
1608.477873	-3.009100	3.460600	-10.413000	25.345309	0.000717	20.729565
1609.482275	-3.002000	3.460200	-10.386000	25.362656	0.000714	20.734655
1610.474594	-3.002600	3.459700	-10.387000	25.380550	0.000715	20.722750
1611.476558	-3.019500	3.458400	-10.440000	25.383210	0.000714	20.729215
1612.478385	-2.981400	3.458700	-10.311000	25.419993	0.000714	20.735803
1613.480541	-2.988300	3.459500	-10.336000	25.405429	0.000715	20.748207
1614.480924	-3.005000	3.459200	-10.392000	25.410598	0.000712	20.749130
1615.477837	-3.012300	3.457300	-10.413000	25.413108	0.000712	20.735528
1616.480216	-2.996600	3.458100	-10.361000	25.427894	0.000711	20.723823
1617.477561	-3.003700	3.458100	-10.386000	25.433090	0.000711	20.741369
1618.480713	-2.977600	3.458100	-10.295000	25.444546	0.000711	20.739597
1619.481389	-2.988800	3.457100	-10.331000	25.473150	0.000710	20.751251
1620.480242	-3.008900	3.458600	-10.405000	25.490719	0.000711	20.740444
1621.481506	-2.999100	3.457200	-10.367000	25.500139	0.000711	20.739473
1622.481190	-3.013700	3.456400	-10.416000	25.492310	0.000710	20.754371
1623.478487	-2.997900	3.453900	-10.354000	25.486222	0.000710	20.734979
1624.479063	-3.009900	3.456000	-10.402000	25.495168	0.000709	20.761034
1625.479469	-3.004500	3.455300	-10.381000	25.462937	0.000708	20.764703
1626.479661	-3.008300	3.453700	-10.388000	25.460128	0.000707	20.741968
1627.487649	-3.010700	3.453700	-10.397000	25.438855	0.000706	20.752375
1628.478221	-3.001500	3.455000	-10.369000	25.467436	0.000707	20.750728
1629.481417	-2.993400	3.454100	-10.339000	25.444497	0.000706	20.768472
1630.482591	-3.007200	3.452600	-10.381000	25.439777	0.000705	20.767525
1631.485250	-2.984800	3.452900	-10.306000	25.454837	0.000705	20.748983
1632.487422	-2.987200	3.452900	-10.313000	25.492883	0.000705	20.740721
1633.486094	-2.996500	3.453200	-10.346000	25.518553	0.000706	20.749904
1634.482798	-3.013900	3.450500	-10.398000	25.506749	0.000704	20.761284
1635.485730	-3.005200	3.451500	-10.371000	25.537068	0.000705	20.754273
1636.493751	-3.013000	3.451000	-10.397000	25.556027	0.000705	20.771418
1637.482790	-3.005700	3.449700	-10.368000	25.551780	0.000704	20.769049
1638.490783	-2.996700	3.449000	-10.335000	25.576057	0.000703	20.747436
1639.488713	-2.988000	3.450600	-10.308000	25.540049	0.000703	20.740197
1640.487779	-3.014800	3.449400	-10.397000	25.546510	0.000701	20.770869
1641.488307	-2.994800	3.449700	-10.330000	25.519946	0.000700	20.764106
1642.488518	-3.020800	3.447100	-10.411000	25.487194	0.000700	20.773416
1643.488406	-3.003800	3.449200	-10.360000	25.458565	0.000700	20.769796
1644.485214	-3.022400	3.447500	-10.418000	25.442238	0.000701	20.779480
1645.496642	-3.007300	3.448300	-10.369000	25.405607	0.000700	20.751231
1646.490129	-3.015400	3.446300	-10.390000	25.396237	0.000699	20.775014
1647.490444	-2.997600	3.446900	-10.331000	25.376106	0.000699	20.744367
1648.495198	-3.000800	3.446800	-10.342000	25.410552	0.000698	20.762360
1649.495574	-3.006600	3.446100	-10.360000	25.450168	0.000696	20.765632
1650.491935	-3.008400	3.446200	-10.366000	25.478596	0.000699	20.758143
1651.494047	-3.008300	3.445700	-10.365000	25.466892	0.000696	20.762986
1652.494450	-3.005600	3.446500	-10.357000	25.487344	0.000698	20.755074
1653.494451	-2.966200	3.446800	-10.223000	25.476210	0.000697	20.763334
1654.487824	-2.980200	3.446300	-10.269000	25.503076	0.000696	20.766131
1655.491776	-3.002400	3.443000	-10.336000	25.522733	0.000695	20.775440
1656.492149	-3.007500	3.443900	-10.356000	25.541295	0.000693	20.768951
1657.493144	-3.004600	3.444500	-10.348000	25.545967	0.000694	20.750408
1658.496349	-2.999600	3.443400	-10.327000	25.576829	0.000694	20.768601
1659.494753	-3.001100	3.443100	-10.331000	25.577551	0.000694	20.761739
1660.499108	-2.981000	3.442400	-10.259000	25.580758	0.000693	20.765434
1661.494952	-3.005100	3.443500	-10.347000	25.618202	0.000692	20.763211
1662.498276	-2.983500	3.442800	-10.270000	25.592411	0.000692	20.764809
1663.491660	-2.994600	3.441500	-10.305000	25.608214	0.000691	20.781155
1664.495565	-2.993000	3.440800	-10.298000	25.590844	0.000691	20.758494
1665.496404	-2.991800	3.440400	-10.292000	25.594994	0.000691	20.772620
1666.494074	-2.992800	3.441400	-10.299000	25.544850	0.000691	20.768727
1667.495269	-2.980600	3.440200	-10.253000	25.546888	0.000690	20.758446
1668.498062	-2.984400	3.439500	-10.264000	25.536128	0.000690	20.751907
1669.501063	-3.015900	3.438000	-10.368000	25.530188	0.000690	20.769650
1670.499289	-3.005500	3.438700	-10.334000	25.540600	0.000688	20.779633
1671.499475	-2.994300	3.439900	-10.299000	25.557424	0.000690	20.770450
1672.498183	-3.019200	3.437100	-10.376000	25.573501	0.000688	20.782803
1673.498410	-2.997200	3.437500	-10.302000	25.545967	0.000688	20.772694
1674.502689	-3.010700	3.436800	-10.347000	25.585055	0.000686	20.777811
1675.505250	-2.992100	3.437300	-10.284000	25.590919	0.000687	20.778010
1676.498497	-3.021800	3.436200	-10.382000	25.588086	0.000687	20.784648
1677.503510	-3.014600	3.434500	-10.352000	25.583167	0.000684	20.789665
1678.500148	-2.972600	3.436900	-10.215000	25.620262	0.000685	20.772867
1679.500461	-2.980500	3.436500	-10.241000	25.653161	0.000684	20.769873
1680.500823	-2.997900	3.436900	-10.302000	25.641708	0.000685	20.767379
1681.499254	-2.987600	3.436200	-10.266000	25.645383	0.000684	20.800941
1682.503722	-3.028500	3.433200	-10.396000	25.679375	0.000684	20.762536
1683.499047	-2.987300	3.435000	-10.260000	25.653161	0.000683	20.784572
1684.506472	-3.033400	3.433100	-10.413000	25.633234	0.000682	20.807706
1685.501626	-3.009600	3.433600	-10.333000	25.613204	0.000685	20.773364
1686.506546	-3.018400	3.432700	-10.360000	25.567113	0.000682	20.783499
1687.508302	-2.987200	3.432700	-10.254000	25.551481	0.000681	20.791508
1688.505166	-2.979300	3.434800	-10.231000	25.526408	0.000681	20.781975
1689.502960	-3.006800	3.431900	-10.318000	25.513907	0.000682	20.791707
1690.509559	-2.985500	3.432700	-10.247000	25.537616	0.000681	20.791334
1691.502278	-3.014300	3.432500	-10.345000	25.494326	0.000680	20.791483
1692.502014	-2.998600	3.433000	-10.292000	25.487467	0.000678	20.782224
1693.503564	-3.004000	3.430300	-10.304000	25.486151	0.000677	20.801765
1694.514025	-3.005100	3.431000	-10.309000	25.437814	0.000678	20.784046
1695.508470	-3.010200	3.431100	-10.327000	25.430980	0.000679	20.787141
1696.512476	-2.998100	3.430400	-10.283000	25.469600	0.000678	20.794154
1697.515202	-2.986600	3.429300	-10.240000	25.456973	0.000678	20.801389
1698.510542	-2.998400	3.429300	-10.281000	25.508316	0.000677	20.777557
1699.509930	-3.014700	3.430200	-10.340000	25.520740	0.000676	20.773913
1700.524978	-3.011700	3.428000	-10.323000	25.535428	0.000675	20.792456
1701.511509	-3.010000	3.427700	-10.316000	25.525388	0.000676	20.776683
1702.513999	-3.003700	3.427200	-10.293000	25.493877	0.000675	20.818533
1703.516594	-3.012600	3.428600	-10.328000	25.452798	0.000674	20.800041
1704.517519	-3.012600	3.426500	-10.322000	25.424591	0.000676	20.787838
1705.509190	-3.011500	3.427200	-10.319000	25.465547	0.000673	20.806205
1706.512854	-3.039600	3.425100	-10.409000	25.488881	0.000673	20.800240
1707.512893	-3.015200	3.425800	-10.328000	25.490149	0.000674	20.810048
1708.510453	-2.980400	3.427500	-10.214000	25.497182	0.000671	20.802412
1709.515740	-3.005900	3.425200	-10.295000	25.534307	0.000672	20.794650
1710.515471	-2.992100	3.425900	-10.250000	25.546905	0.000669	20.808249
1711.515537	-2.993700	3.425600	-10.254000	25.554809	0.000670	20.810497
1712.520013	-3.011800	3.424100	-10.311000	25.597523	0.000671	20.785117
1713.515925	-3.013300	3.425400	-10.321000	25.609648	0.000669	20.792553
1714.514606	-2.970300	3.424500	-10.171000	25.599412	0.000671	20.816411
1715.511633	-3.005100	3.422500	-10.285000	25.589298	0.000669	20.823323
1716.522123	-2.993900	3.423400	-10.249000	25.595835	0.000667	20.793378
1717.512682	-3.029500	3.422100	-10.366000	25.594814	0.000670	20.799940
1718.512740	-3.006100	3.422100	-10.287000	25.628656	0.000668	20.794099
1719.515930	-3.000600	3.422500	-10.269000	25.649604	0.000667	20.806603
1720.516800	-3.012600	3.421600	-10.307000	25.660612	0.000670	20.827142
1721.514225	-2.978200	3.422100	-10.191000	25.659318	0.000667	20.812566
1722.517536	-3.005600	3.419600	-10.277000	25.660113	0.000665	20.812417
1723.515862	-3.001200	3.419100	-10.260000	25.674177	0.000667	20.818956
1724.518183	-2.992100	3.419600	-10.230000	25.634818	0.000665	20.825418
1725.517393	-2.991400	3.421600	-10.235000	25.667667	0.000666	20.827116
1726.518213	-3.008100	3.420700	-10.289000	25.669456	0.000667	20.798567
1727.516806	-2.989900	3.418500	-10.220000	25.667343	0.000663	20.821575
1728.521773	-2.997200	3.418000	-10.244000	25.686004	0.000662	20.828938
1729.515657	-2.998900	3.418400	-10.250000	25.695695	0.000665	20.817809
1730.520467	-3.008700	3.417500	-10.281000	25.687519	0.000662	20.818606
1731.519364	-3.000700	3.418600	-10.257000	25.718129	0.000662	20.834652
1732.516365	-3.001500	3.417500	-10.257000	25.704664	0.000663	20.821128
1733.522677	-3.002500	3.418000	-10.262000	25.679718	0.000662	20.826418
1734.523613	-3.012500	3.416600	-10.291000	25.681980	0.000663	20.816835
1735.522525	-3.016300	3.416300	-10.303000	25.691370	0.000661	20.822000
1736.526666	-3.003700	3.416100	-10.261000	25.672860	0.000661	20.821900
1737.521721	-3.006000	3.416700	-10.270000	25.671520	0.000658	20.838097
1738.533393	-2.985600	3.415800	-10.198000	25.654100	0.000658	20.819180
1739.520822	-2.990100	3.415100	-10.210000	25.621104	0.000661	20.819231
1740.521556	-2.986000	3.414600	-10.195000	25.626695	0.000659	20.839070
1741.518346	-3.001700	3.415400	-10.250000	25.609749	0.000660	20.821577
1742.521718	-3.002700	3.414800	-10.251000	25.608357	0.000660	20.835352
1743.527493	-3.006800	3.413600	-10.262000	25.627689	0.000659	20.835801
1744.525227	-2.997100	3.414000	-10.231000	25.601921	0.000655	20.831733
1745.523486	-2.997500	3.412900	-10.228000	25.628831	0.000659	20.820827
1746.525430	-3.015000	3.412800	-10.289000	25.628932	0.000657	20.857911
1747.522927	-3.014100	3.411500	-10.282000	25.610345	0.000655	20.828813
1748.525639	-3.011400	3.412000	-10.274000	25.598816	0.000655	20.824821
1749.525738	-2.984600	3.413400	-10.186000	25.621826	0.000655	20.825171
1750.524257	-3.001700	3.412000	-10.240000	25.600878	0.000655	20.831633
1751.527222	-2.985900	3.411800	-10.186000	25.635839	0.000655	20.827391
1752.521622	-2.978200	3.412500	-10.161000	25.662352	0.000654	20.832209
1753.525465	-3.027400	3.410300	-10.322000	25.703050	0.000654	20.849851
1754.524566	-2.998400	3.411600	-10.228000	25.724291	0.000653	20.834203
1755.525200	-3.010400	3.410600	-10.266000	25.765858	0.000653	20.833281
1756.525072	-3.018400	3.409500	-10.288000	25.779100	0.000652	20.850375
1757.524590	-2.973200	3.410200	-10.138000	25.801038	0.000652	20.847281
1758.520123	-3.006800	3.408200	-10.247000	25.790280	0.000651	20.842165
1759.522489	-3.014500	3.407300	-10.270000	25.808218	0.000649	20.829364
1760.520780	-3.006400	3.408100	-10.245000	25.774380	0.000651	20.846582
1761.521252	-3.034900	3.406700	-10.337000	25.757163	0.000648	20.861056
1762.524419	-2.996700	3.408300	-10.213000	25.768144	0.000650	20.852646
1763.525826	-3.000600	3.406500	-10.220000	25.748516	0.000650	20.843362
1764.527229	-3.021900	3.406300	-10.293000	25.765858	0.000648	20.824747
1765.522709	-3.025300	3.405400	-10.301000	25.800020	0.000648	20.824922
1766.522024	-3.023300	3.405300	-10.294000	25.782654	0.000648	20.854892
1767.530375	-2.989300	3.406100	-10.181000	25.791099	0.000649	20.860056
1768.529001	-2.990800	3.405500	-10.184000	25.767324	0.000645	20.864624
1769.526824	-3.012000	3.405700	-10.257000	25.784888	0.000647	20.838646
1770.529682	-2.987200	3.405800	-10.173000	25.793608	0.000646	20.870162
1771.528414	-3.007100	3.404900	-10.238000	25.785162	0.000646	20.859783
1772.529761	-2.974100	3.405600	-10.127000	25.765510	0.000646	20.843837
1773.531433	-3.016600	3.404100	-10.268000	25.715994	0.000645	20.869015
1774.526766	-2.988300	3.406200	-10.177000	25.713609	0.000644	20.856189
1775.530747	-3.009300	3.404800	-10.245000	25.717534	0.000643	20.879096
1776.526431	-2.998800	3.403000	-10.203000	25.742328	0.000644	20.863699
1777.528316	-3.013700	3.401700	-10.251000	25.750378	0.000644	20.839543
1778.530174	-3.019300	3.402200	-10.271000	25.775395	0.000643	20.873204
1779.530577	-3.005400	3.402300	-10.225000	25.765904	0.000645	20.879792
1780.531569	-3.011100	3.401100	-10.240000	25.737134	0.000643	20.865593
1781.533699	-3.008100	3.400200	-10.228000	25.701257	0.000643	20.864645
1782.533421	-2.987600	3.401600	-10.162000	25.702150	0.000642	20.869809
1783.538584	-3.005300	3.400100	-10.218000	25.745133	0.000643	20.866515
1784.537380	-3.006600	3.401200	-10.225000	25.768139	0.000639	20.870184
1785.531903	-3.021900	3.399300	-10.270000	25.773282	0.000640	20.855436
1786.538171	-3.003400	3.399000	-10.207000	25.796859	0.000639	20.868687
1787.544810	-2.995700	3.399800	-10.183000	25.800510	0.000640	20.878992
1788.531634	-3.016800	3.398600	-10.252000	25.814745	0.000639	20.880014
1789.539590	-3.014900	3.399100	-10.247000	25.827564	0.000639	20.878193
1790.536396	-3.014100	3.397900	-10.239000	25.864331	0.000638	20.881936
1791.536523	-2.971600	3.398800	-10.099000	25.877945	0.000638	20.879491
1792.541945	-3.006100	3.397700	-10.213000	25.868653	0.000636	20.860675
1793.542603	-2.990700	3.398900	-10.164000	25.888079	0.000637	20.881137
1794.538835	-2.987500	3.397000	-10.147000	25.885797	0.000636	20.885956
1795.540892	-2.995800	3.398000	-10.179000	25.859982	0.000637	20.866189
1796.535629	-2.997600	3.397100	-10.183000	25.851313	0.000633	20.874549
1797.534286	-2.999200	3.397300	-10.188000	25.807711	0.000637	20.885750
1798.540606	-3.022800	3.395600	-10.263000	25.782025	0.000633	20.883656
1799.534498	-2.986200	3.396800	-10.143000	25.769253	0.000635	20.892164
1800.538357	-3.021900	3.393800	-10.254000	25.760930	0.000634	20.886649
1801.542155	-3.013100	3.395000	-10.229000	25.796506	0.000634	20.886823
1802.541019	-2.991700	3.394900	-10.155000	25.812581	0.000631	20.895858
1803.540282	-3.008800	3.393300	-10.209000	25.818069	0.000632	20.888568
1804.538386	-3.015100	3.393500	-10.231000	25.821797	0.000632	20.885202
1805.540479	-3.007900	3.393800	-10.207000	25.841546	0.000630	20.882281
1806.541746	-2.992000	3.393500	-10.153000	25.875553	0.000629	20.889890
1807.542310	-2.994800	3.394300	-10.163000	25.868300	0.000631	20.886397
1808.541088	-3.004700	3.392400	-10.192000	25.855406	0.000629	20.895254
1809.544272	-3.022800	3.391800	-10.252000	25.831457	0.000630	20.893956
1810.542330	-2.992600	3.391400	-10.148000	25.766789	0.000629	20.886844
1811.543848	-2.986300	3.391600	-10.128000	25.726788	0.000627	20.898822
1812.544444	-3.001100	3.393100	-10.181000	25.721248	0.000628	20.899420
1813.543178	-2.984700	3.392200	-10.123000	25.697496	0.000629	20.894056
1814.540798	-3.018800	3.390900	-10.235000	25.720054	0.000627	20.877835
1815.543884	-2.988400	3.390200	-10.130000	25.755582	0.000628	20.899294
1816.541924	-2.976700	3.389600	-10.089000	25.718116	0.000626	20.891060
1817.543273	-2.980500	3.391100	-10.106000	25.725171	0.000626	20.881077
1818.548665	-2.977400	3.391600	-10.097000	25.696500	0.000626	20.894952
1819.539988	-3.005200	3.389000	-10.183000	25.691481	0.000626	20.889911
1820.544583	-3.010700	3.389600	-10.205000	25.710438	0.000625	20.895675
1821.542562	-3.001100	3.389900	-10.172000	25.726115	0.000625	20.906205
1822.545113	-3.011300	3.389500	-10.205000	25.738238	0.000624	20.895150
1823.544458	-2.997800	3.389500	-10.159000	25.700226	0.000623	20.893953
1824.552031	-2.996200	3.389300	-10.154000	25.696074	0.000623	20.881250
1825.545187	-3.010100	3.387100	-10.194000	25.706561	0.000624	20.915961
1826.542576	-3.008100	3.388700	-10.192000	25.725716	0.000622	20.871194
1827.543373	-3.016600	3.386800	-10.215000	25.731927	0.000620	20.884544
1828.544232	-3.014900	3.386300	-10.207000	25.722362	0.000621	20.878256
1829.542740	-2.982200	3.387300	-10.100000	25.737020	0.000620	20.874962
1830.545684	-2.988700	3.386900	-10.121000	25.762363	0.000621	20.880502
1831.544466	-3.020900	3.385400	-10.226000	25.782783	0.000620	20.882521
1832.545135	-3.014600	3.384300	-10.201000	25.799079	0.000618	20.877555
1833.545056	-3.004500	3.385500	-10.170000	25.810335	0.000619	20.872740
1834.546808	-3.000100	3.385000	-10.155000	25.821141	0.000618	20.869370
1835.546634	-3.001900	3.384000	-10.157000	25.829738	0.000618	20.865678
1836.546594	-2.997700	3.384100	-10.144000	25.830706	0.000618	20.878978
1837.542434	-3.025900	3.382800	-10.235000	25.828148	0.000618	20.886840
1838.545403	-3.005700	3.382400	-10.166000	25.809492	0.000618	20.886117
1839.548800	-2.994000	3.384100	-10.131000	25.839996	0.000617	20.877879
1840.545142	-3.003600	3.381600	-10.156000	25.862257	0.000617	20.872266
1841.544228	-3.007900	3.382600	-10.174000	25.862034	0.000615	20.879628
1842.548338	-2.985700	3.382200	-10.097000	25.874977	0.000615	20.877458
1843.547997	-2.997400	3.381300	-10.134000	25.887621	0.000616	20.891107
1844.546294	-3.010200	3.381400	-10.177000	25.897557	0.000615	20.864107
1845.550253	-2.991200	3.381200	-10.113000	25.907221	0.000614	20.860539
1846.553550	-3.002000	3.379400	-10.144000	25.872989	0.000613	20.860289
1847.551025	-2.991700	3.381000	-10.114000	25.819033	0.000612	20.864882
1848.554698	-3.009000	3.379800	-10.169000	25.810634	0.000613	20.855498
1849.547352	-3.016300	3.380800	-10.196000	25.816349	0.000612	20.848437
1850.552961	-3.005900	3.379600	-10.157000	25.818932	0.000610	20.859566
1851.551286	-3.007800	3.379500	-10.163000	25.801792	0.000609	20.864634
1852.559412	-3.008000	3.378600	-10.161000	25.771160	0.000609	20.864209
1853.550655	-2.975600	3.378900	-10.052000	25.771234	0.000610	20.854801
1854.553949	-3.005200	3.377800	-10.150000	25.779382	0.000608	20.857296
1855.553228	-2.993400	3.376900	-10.108000	25.814166	0.000607	20.859519
1856.555139	-3.013000	3.377700	-10.177000	25.827706	0.000606	20.864586
1857.552875	-3.018800	3.378200	-10.197000	25.826290	0.000607	20.840405
1858.553977	-3.018000	3.377000	-10.190000	25.829272	0.000607	20.842452
1859.556969	-3.003500	3.376300	-10.140000	25.820403	0.000606	20.871948
1860.558779	-2.989800	3.377300	-10.097000	25.765276	0.000606	20.859247
1861.552640	-2.998500	3.375100	-10.119000	25.742020	0.000606	20.850113
1862.556558	-3.014900	3.375300	-10.175000	25.707338	0.000605	20.833296
1863.553961	-3.006600	3.374700	-10.146000	25.678142	0.000604	20.873196
1864.555415	-2.999800	3.374200	-10.121000	25.706567	0.000603	20.865237
1865.559932	-2.988100	3.375100	-10.084000	25.715860	0.000603	20.845174
1866.557414	-3.010600	3.374300	-10.158000	25.732384	0.000603	20.839012
1867.558469	-3.000400	3.374000	-10.122000	25.716136	0.000602	20.848296
1868.557524	-2.983200	3.374700	-10.067000	25.712782	0.000600	20.855358
1869.561885	-3.008300	3.373100	-10.147000	25.720932	0.000602	20.824191
1870.560058	-3.000200	3.373100	-10.119000	25.718673	0.000601	20.844206
1871.559161	-3.010500	3.372000	-10.150000	25.720039	0.000601	20.837993
1872.557510	-3.010300	3.374300	-10.156000	25.745654	0.000602	20.855186
1873.561014	-2.966900	3.374400	-10.010000	25.736611	0.000599	20.857008
1874.560158	-2.991000	3.372500	-10.086000	25.755443	0.000600	20.832777
1875.562724	-2.989100	3.372400	-10.079000	25.746029	0.000598	20.853666
1876.561929	-3.003300	3.372200	-10.127000	25.719468	0.000597	20.838367
1877.559986	-2.981300	3.370700	-10.047000	25.746303	0.000596	20.859156
1878.564766	-3.002600	3.369700	-10.117000	25.752812	0.000596	20.844359
1879.562058	-3.005700	3.369400	-10.126000	25.776912	0.000596	20.835849
1880.562691	-3.000000	3.370300	-10.110000	25.803174	0.000596	20.835203
1881.570366	-2.969400	3.370800	-10.009000	25.779300	0.000596	20.847257
1882.564253	-3.014600	3.369600	-10.158000	25.829805	0.000596	20.838246
1883.559196	-2.993600	3.369500	-10.086000	25.830500	0.000596	20.823772
1884.566908	-3.023600	3.369300	-10.186000	25.837606	0.000594	20.838971
1885.561754	-3.008600	3.369700	-10.138000	25.861331	0.000595	20.844311
1886.562518	-2.997200	3.368700	-10.095000	25.849136	0.000594	20.851026
1887.567541	-2.978200	3.368800	-10.032000	25.875070	0.000594	20.822552
1888.562055	-3.000900	3.368600	-10.108000	25.870327	0.000593	20.834856
1889.560254	-3.015500	3.367300	-10.152000	25.862103	0.000591	20.829440
1890.563787	-3.006000	3.367800	-10.123000	25.876585	0.000593	20.827867
1891.560196	-2.998600	3.367000	-10.095000	25.877979	0.000591	20.837328
1892.560595	-2.993900	3.366800	-10.078000	25.878153	0.000593	20.831812
1893.560282	-3.000900	3.366500	-10.101000	25.875568	0.000591	20.815466
1894.560309	-2.983500	3.367500	-10.046000	25.882201	0.000590	20.827344
1895.560653	-3.016900	3.366300	-10.155000	25.889654	0.000590	20.834831
1896.559161	-2.987200	3.367000	-10.057000	25.917799	0.000589	20.828968
1897.560490	-2.993800	3.365100	-10.072000	25.951707	0.000590	20.825100
1898.560490	-3.000900	3.366100	-10.101000	25.922645	0.000588	20.835731
1899.559998	-2.997500	3.365300	-10.085000	25.933974	0.000589	20.812500
1900.566577	-2.998100	3.364600	-10.086000	25.938467	0.000587	20.838825
1901.564862	-2.998100	3.363600	-10.084000	25.965445	0.000586	20.837953
1902.565375	-2.981300	3.364900	-10.031000	25.991302	0.000586	20.824576
1903.569251	-3.017000	3.362900	-10.145000	25.957273	0.000586	20.843493
1904.568285	-3.006900	3.362300	-10.110000	25.978437	0.000587	20.824927
1905.564210	-3.003300	3.363100	-10.098000	25.962489	0.000586	20.827872
1906.568763	-3.018200	3.362200	-10.147000	25.978810	0.000586	20.816768
1907.570923	-2.990600	3.363300	-10.057000	25.957597	0.000587	20.801145
1908.566321	-2.989500	3.363200	-10.053000	25.928434	0.000584	20.831116
1909.570621	-3.009100	3.361400	-10.114000	25.929751	0.000584	20.819637
1910.573496	-3.002700	3.362500	-10.096000	25.926696	0.000586	20.815146
1911.571228	-2.998700	3.361800	-10.080000	25.942220	0.000586	20.805612
1912.570084	-2.996500	3.360100	-10.067000	25.917578	0.000582	20.829694
1913.570692	-3.004700	3.360300	-10.096000	25.937972	0.000584	20.799448
1914.567327	-3.025200	3.359200	-10.161000	25.968600	0.000583	20.806036
1915.571872	-2.950300	3.360100	-9.912300	25.984049	0.000581	20.813497
1916.577693	-2.982300	3.359600	-10.018000	25.957720	0.000581	20.818813
1917.568996	-3.011000	3.359300	-10.114000	25.933104	0.000579	20.825377
1918.580268	-3.001800	3.358400	-10.081000	25.921404	0.000579	20.834959
1919.572814	-3.004200	3.357900	-10.086000	25.905008	0.000579	20.816592
1920.569403	-2.990800	3.357800	-10.041000	25.898750	0.000579	20.811254
1921.573121	-2.991700	3.358200	-10.046000	25.880042	0.000579	20.827073
1922.581729	-2.994900	3.357800	-10.055000	25.865163	0.000579	20.820186
1923.570581	-3.000100	3.357700	-10.072000	25.842459	0.000576	20.813026
1924.574263	-2.975200	3.357600	-9.989000	25.844073	0.000578	20.814647
1925.575019	-3.010200	3.355100	-10.099000	25.847228	0.000577	20.785100
1926.576544	-3.029800	3.356000	-10.167000	25.853090	0.000576	20.810430
1927.576422	-2.997500	3.356900	-10.062000	25.879498	0.000573	20.794758
1928.575500	-2.989000	3.356500	-10.031000	25.850631	0.000572	20.811753
1929.576956	-3.006000	3.355800	-10.087000	25.833167	0.000573	20.796580
1930.571710	-3.012500	3.354900	-10.105000	25.821094	0.000574	20.810057
1931.572936	-3.000100	3.355200	-10.064000	25.841092	0.000574	20.801222
1932.574637	-2.980200	3.355600	-9.999500	25.848595	0.000573	20.810181
1933.575533	-2.987300	3.354000	-10.018000	25.859652	0.000572	20.810857
1934.576241	-2.968400	3.355600	-9.959400	25.886779	0.000571	20.805391
1935.580482	-2.980100	3.353600	-9.992700	25.911720	0.000570	20.809584
1936.577304	-3.002200	3.352700	-10.064000	25.912091	0.000571	20.809009
1937.578973	-3.010500	3.352500	-10.091000	25.947044	0.000572	20.795285
1938.579871	-2.997400	3.353800	-10.052000	25.925506	0.000572	20.816796
1939.577459	-2.995700	3.352600	-10.043000	25.899102	0.000571	20.798331
1940.579501	-3.021900	3.351900	-10.128000	25.847180	0.000570	20.798803
1941.579536	-3.007700	3.351700	-10.079000	25.799881	0.000571	20.803447
1942.583426	-3.004900	3.352000	-10.071000	25.733595	0.000569	20.790918
1943.581393	-2.996200	3.350100	-10.037000	25.714416	0.000570	20.796784
1944.577945	-2.975600	3.352000	-9.972700	25.711309	0.000571	20.803621
1945.581497	-2.976000	3.352100	-9.974600	25.711210	0.000568	20.801625
1946.583543	-3.005400	3.350500	-10.069000	25.736032	0.000569	20.799055
1947.585795	-3.011200	3.349400	-10.085000	25.743012	0.000566	20.793264
1948.581452	-2.977100	3.350300	-9.972900	25.758964	0.000568	20.806443
1949.585297	-3.002300	3.348600	-10.053000	25.780528	0.000568	20.790170
1950.589806	-3.010700	3.348100	-10.080000	25.764132	0.000565	20.777494
1951.588104	-2.985300	3.348800	-9.996800	25.784679	0.000565	20.800030
1952.581945	-3.005000	3.348900	-10.063000	25.775710	0.000565	20.788650
1953.590464	-3.000900	3.348600	-10.047000	25.759586	0.000563	20.799007
1954.595266	-3.000800	3.346900	-10.043000	25.768257	0.000565	20.786853
1955.591937	-3.004500	3.347400	-10.056000	25.758222	0.000564	20.788153
1956.583141	-2.981100	3.349500	-9.984600	25.735812	0.000563	20.781765
1957.581758	-2.993300	3.348400	-10.022000	25.756061	0.000561	20.778870
1958.582049	-3.007900	3.346000	-10.064000	25.729278	0.000560	20.794642
1959.579946	-3.001700	3.347700	-10.048000	25.758174	0.000559	20.808493
1960.582364	-3.000900	3.346000	-10.040000	25.802570	0.000560	20.790501
1961.593303	-2.967000	3.346700	-9.928200	25.814744	0.000558	20.813160
1962.582247	-3.020900	3.344900	-10.104000	25.829427	0.000559	20.798039
1963.593128	-3.027200	3.344200	-10.123000	25.877894	0.000558	20.792198
1964.594489	-2.996300	3.345400	-10.023000	25.853999	0.000558	20.776728
1965.587401	-2.970800	3.344000	-9.932500	25.844086	0.000557	20.793798
1966.600819	-2.999900	3.343200	-10.028000	25.881625	0.000558	20.772239
1967.584137	-2.978200	3.345500	-9.961600	25.914092	0.000555	20.791578
1968.589540	-2.965800	3.345700	-9.921400	25.911210	0.000554	20.784416
1969.590558	-3.018800	3.341500	-10.085000	25.967253	0.000556	20.788561
1970.592369	-3.013900	3.342100	-10.072000	25.968767	0.000555	20.779652
1971.600048	-3.005100	3.342500	-10.044000	25.980045	0.000554	20.773438
1972.595036	-2.987600	3.342500	-9.985300	25.942762	0.000553	20.775336
1973.591834	-3.017400	3.340900	-10.080000	25.958361	0.000553	20.784844
1974.591547	-3.008600	3.341500	-10.052000	25.935062	0.000552	20.780877
1975.588028	-3.012800	3.340900	-10.064000	25.965393	0.000551	20.791908
1976.590180	-3.007900	3.341900	-10.051000	25.981118	0.000552	20.791111
1977.590730	-3.029500	3.339300	-10.115000	26.005558	0.000550	20.786268
1978.590515	-2.989700	3.341100	-9.988100	25.996344	0.000552	20.795503
1979.587082	-3.005800	3.340000	-10.039000	26.007796	0.000551	20.770973
1980.597406	-3.017200	3.340100	-10.077000	25.970238	0.000550	20.770697
1981.590730	-2.981400	3.340600	-9.959100	25.986558	0.000548	20.757222
1982.591498	-3.002500	3.338800	-10.024000	25.965495	0.000549	20.766881
1983.604178	-3.034400	3.337200	-10.124000	25.982187	0.000550	20.773219
1984.587184	-3.013900	3.337400	-10.058000	26.013040	0.000547	20.772448
1985.596264	-3.006900	3.338400	-10.037000	26.029605	0.000548	20.776764
1986.589002	-2.995400	3.339300	-10.001000	26.064379	0.000547	20.773295
1987.588032	-2.991400	3.338100	-9.985000	26.075358	0.000546	20.774370
1988.587870	-3.013100	3.337000	-10.054000	26.071832	0.000545	20.771301
1989.589207	-2.987300	3.338700	-9.972000	26.019997	0.000544	20.778490
1990.592917	-3.017400	3.334700	-10.062000	25.995854	0.000544	20.765139
1991.589471	-3.002600	3.336100	-10.016000	25.968928	0.000545	20.765588
1992.595236	-2.997400	3.336600	-10.000000	25.957428	0.000544	20.770630
1993.593106	-2.991600	3.335800	-9.978900	25.960831	0.000542	20.766936
1994.609084	-2.990000	3.336700	-9.976100	25.953852	0.000542	20.766563
1995.595736	-3.003900	3.335300	-10.018000	25.983461	0.000542	20.768335
1996.601321	-2.989200	3.335900	-9.970300	25.979686	0.000542	20.764068
1997.596317	-3.003000	3.335800	-10.016000	25.971737	0.000541	20.751340
1998.596030	-2.988700	3.335300	-9.967100	25.933782	0.000540	20.748770
1999.597282	-3.011800	3.334400	-10.041000	25.924045	0.000541	20.749420
2000.595792	-3.012500	3.333200	-10.040000	25.928864	0.000539	20.780815
2001.595892	-2.971400	3.334500	-9.907900	25.931424	0.000540	20.759204
2002.605161	-2.988400	3.332700	-9.957500	25.963989	0.000539	20.759678
2003.598063	-3.002300	3.332700	-10.005000	25.954973	0.000539	20.760576
2004.595146	-3.018700	3.330500	-10.053000	25.993450	0.000538	20.760827
2005.599450	-2.995900	3.332600	-9.983000	25.950352	0.000536	20.773478
2006.599910	-3.002000	3.331700	-10.001000	25.986769	0.000535	20.765494
2007.599712	-2.991600	3.331700	-9.965800	26.005424	0.000535	20.770486
2008.603492	-3.026800	3.330100	-10.079000	26.018489	0.000536	20.774130
2009.602074	-3.001000	3.330300	-9.993300	26.033018	0.000535	20.757433
2010.600021	-2.968100	3.331600	-9.888000	26.071442	0.000535	20.759529
2011.602630	-3.008400	3.328500	-10.013000	26.106861	0.000534	20.762400
2012.600452	-2.984200	3.330600	-9.938300	26.117838	0.000533	20.757309
2013.596839	-2.993900	3.329200	-9.966100	26.152510	0.000533	20.760379
2014.609250	-3.020000	3.328700	-10.052000	26.136814	0.000533	20.753617
2015.597302	-2.992400	3.329900	-9.964000	26.125017	0.000534	20.756462
2016.598292	-3.000800	3.328500	-9.987600	26.085701	0.000532	20.752519
2017.608692	-3.008800	3.328300	-10.014000	26.067322	0.000530	20.733577
2018.598402	-3.031300	3.328200	-10.087000	25.978349	0.000531	20.768889
2019.604085	-3.018200	3.326300	-10.039000	25.951349	0.000529	20.762626
2020.599359	-3.001800	3.328500	-9.990300	25.938981	0.000530	20.762054
2021.604571	-3.030200	3.328300	-10.083000	25.921988	0.000531	20.753991
2022.605801	-3.050400	3.324600	-10.140000	25.926087	0.000528	20.767119
2023.603318	-3.012200	3.325600	-10.016000	25.976338	0.000529	20.745531
2024.605577	-3.011600	3.327000	-10.019000	25.951375	0.000526	20.756962
2025.602627	-2.997300	3.325700	-9.967800	25.979792	0.000526	20.737147
2026.603059	-3.023400	3.324000	-10.048000	26.023435	0.000530	20.751123
2027.602490	-3.007900	3.325300	-10.001000	26.029296	0.000526	20.751322
2028.602335	-3.012200	3.324500	-10.013000	26.032824	0.000525	20.760557
2029.603336	-3.008900	3.324600	-10.003000	26.075122	0.000524	20.734302
2030.600881	-2.994800	3.324500	-9.955900	26.068142	0.000526	20.740091
2031.608499	-3.006100	3.324500	-9.993100	26.081331	0.000525	20.752395
2032.604586	-3.002600	3.323500	-9.978300	26.067396	0.000524	20.764473
2033.604671	-3.006400	3.323800	-9.991900	26.080261	0.000523	20.753691
2034.613524	-2.997100	3.322100	-9.954700	26.100679	0.000524	20.762827
2035.605027	-3.006800	3.322900	-9.989900	26.137956	0.000521	20.729633
2036.605599	-3.001700	3.324000	-9.976300	26.167562	0.000521	20.751322
2037.605570	-3.014200	3.321900	-10.012000	26.164059	0.000521	20.754915
2038.606276	-3.000900	3.323700	-9.972500	26.197114	0.000518	20.735973
2039.613482	-3.001700	3.321200	-9.967600	26.219341	0.000519	20.754041
2040.615454	-3.020300	3.321900	-10.031000	26.208513	0.000518	20.755488
2041.608799	-3.009300	3.321300	-9.993900	26.215541	0.000518	20.742162
2042.606861	-2.994000	3.321100	-9.942400	26.178413	0.000517	20.753217
2043.610459	-2.984600	3.319900	-9.908000	26.179134	0.000517	20.745881
2044.607116	-3.007000	3.319300	-9.980100	26.202801	0.000517	20.727462
2045.608450	-2.991500	3.320100	-9.930500	26.196643	0.000516	20.758259
2046.612165	-2.997900	3.319700	-9.951400	26.194456	0.000517	20.741837
2047.613352	-3.003100	3.319300	-9.967800	26.210749	0.000517	20.761528
2048.611621	-2.987600	3.319000	-9.914800	26.231708	0.000517	20.749873
2049.612381	-3.002900	3.317300	-9.961200	26.232777	0.000515	20.742412
2050.611646	-3.001300	3.317500	-9.955100	26.225848	0.000516	20.766270
2051.610908	-2.988100	3.318600	-9.915200	26.218745	0.000514	20.747753
2052.609463	-3.009500	3.316200	-9.979100	26.253142	0.000512	20.741540
2053.615134	-3.018300	3.315900	-10.007000	26.248646	0.000513	20.759783
2054.619093	-3.005500	3.317200	-9.968800	26.199078	0.000513	20.756439
2055.611061	-3.004100	3.317000	-9.964300	26.149631	0.000512	20.757012
2056.617179	-2.976200	3.316600	-9.870100	26.122511	0.000512	20.758685
2057.614952	-3.005800	3.315100	-9.963600	26.124671	0.000509	20.757536
2058.614205	-2.959000	3.315800	-9.809900	26.093452	0.000510	20.758410
2059.616162	-2.989000	3.315300	-9.908200	26.087020	0.000508	20.760957
2060.611854	-2.987200	3.315200	-9.902000	26.087639	0.000508	20.751146
2061.611426	-2.988400	3.314500	-9.904500	26.085231	0.000509	20.767694
2062.615273	-3.007300	3.313500	-9.963700	26.103015	0.000509	20.744785
2063.622877	-2.997400	3.314700	-9.933800	26.150999	0.000508	20.740842
2064.614882	-3.020800	3.313500	-10.008000	26.186214	0.000509	20.752995
2065.614099	-3.022000	3.313700	-10.012000	26.203871	0.000506	20.735650
2066.614892	-2.995000	3.311000	-9.915800	26.254481	0.000509	20.753792
2067.616099	-3.007600	3.312900	-9.963900	26.277403	0.000507	20.749800
2068.616403	-3.004900	3.312200	-9.951800	26.286715	0.000506	20.742563
2069.618635	-3.010100	3.311700	-9.967200	26.231188	0.000507	20.772111
2070.621348	-3.003400	3.311900	-9.945900	26.239830	0.000505	20.763725
2071.615849	-2.999100	3.311600	-9.931300	26.259696	0.000505	20.762827
2072.618410	-2.970500	3.311400	-9.834200	26.287185	0.000506	20.775753
2073.617748	-2.994100	3.309500	-9.908100	26.272336	0.000505	20.757511
2074.618610	-2.986800	3.310200	-9.885900	26.223538	0.000502	20.763949
2075.627213	-3.005900	3.310500	-9.950100	26.187902	0.000503	20.763226
2076.619054	-3.017500	3.310600	-9.988000	26.213827	0.000502	20.760829
2077.620314	-3.010500	3.309300	-9.960600	26.209232	0.000501	20.775178
2078.618515	-2.979600	3.309900	-9.861100	26.235233	0.000503	20.773805
2079.618031	-3.000500	3.309700	-9.930200	26.254107	0.000501	20.779969
2080.620466	-3.015100	3.307400	-9.970800	26.279286	0.000501	20.768289
2081.615379	-3.011800	3.308500	-9.963000	26.249710	0.000499	20.778870
2082.621119	-3.022500	3.307600	-9.995900	26.188222	0.000498	20.754064
2083.623618	-2.963300	3.309500	-9.805700	26.139221	0.000497	20.747975
2084.634295	-2.992000	3.307600	-9.895000	26.125114	0.000499	20.766043
2085.622556	-2.994200	3.308500	-9.905000	26.075613	0.000497	20.780790
2086.616214	-3.014300	3.305400	-9.962000	26.083338	0.000498	20.755835
2087.616773	-2.995800	3.305400	-9.899200	26.068112	0.000496	20.753812
2088.618893	-2.982700	3.306700	-9.861900	26.088179	0.000497	20.773501
2089.624214	-3.007400	3.304700	-9.937700	26.122403	0.000497	20.761896
2090.622715	-2.997500	3.306600	-9.910600	26.104892	0.000493	20.761844
2091.622126	-3.001700	3.305800	-9.922300	26.106905	0.000495	20.760548
2092.633298	-2.992500	3.305000	-9.888100	26.082762	0.000495	20.766162
2093.619186	-2.985200	3.305600	-9.866100	26.046027	0.000493	20.768133
2094.625357	-3.031800	3.303000	-10.013000	26.050994	0.000492	20.780710
2095.620401	-2.983800	3.303700	-9.856300	26.078190	0.000491	20.758722
2096.619183	-3.002200	3.301800	-9.912200	26.114079	0.000492	20.782455
2097.623487	-2.990000	3.304400	-9.879500	26.146515	0.000489	20.788021
2098.620830	-2.977500	3.302300	-9.831000	26.158213	0.000491	20.781758
2099.625811	-3.017000	3.301000	-9.958500	26.184784	0.000489	20.760568
2100.625087	-3.010000	3.301100	-9.935000	26.205919	0.000490	20.774693
2101.625988	-3.000400	3.302100	-9.906100	26.206861	0.000489	20.792235
2102.625436	-2.984500	3.301600	-9.852400	26.193774	0.000489	20.775766
2103.625360	-2.998000	3.300900	-9.894900	26.215329	0.000486	20.779408
2104.622665	-3.003500	3.300900	-9.913100	26.216570	0.000487	20.785871
2105.625798	-3.007100	3.300200	-9.923500	26.255534	0.000487	20.783301
2106.621914	-2.999800	3.301100	-9.902200	26.250344	0.000486	20.794206
2107.621647	-3.010900	3.299600	-9.933000	26.299712	0.000485	20.780756
2108.625748	-2.981700	3.299900	-9.838400	26.288933	0.000485	20.762336
2109.624686	-2.965400	3.299800	-9.783800	26.333458	0.000483	20.776737
2110.625821	-2.996600	3.297500	-9.879900	26.320993	0.000483	20.779857
2111.628873	-2.999900	3.297200	-9.890100	26.342570	0.000484	20.768351
2112.626842	-3.008900	3.297700	-9.921700	26.313617	0.000482	20.780980
2113.626554	-3.017900	3.296400	-9.946800	26.292807	0.000482	20.777135
2114.626485	-2.984600	3.297900	-9.841800	26.268224	0.000482	20.789889
2115.626308	-3.024300	3.295400	-9.964600	26.272495	0.000481	20.797026
2116.645214	-3.011000	3.297800	-9.927500	26.239964	0.000480	20.795629
2117.629492	-3.001000	3.294900	-9.886300	26.245651	0.000478	20.788541
2118.629961	-3.005100	3.293900	-9.897900	26.232116	0.000479	20.787742
2119.632753	-3.002800	3.296300	-9.896300	26.271850	0.000479	20.789740
2120.626117	-3.018000	3.296400	-9.947200	26.299910	0.000477	20.783800
2121.629744	-3.000700	3.295900	-9.889000	26.312500	0.000478	20.776538
2122.633508	-2.968600	3.295200	-9.780500	26.323750	0.000476	20.791163
2123.633315	-3.006500	3.293300	-9.900500	26.282902	0.000478	20.782354
2124.628777	-3.007800	3.292300	-9.900300	26.296784	0.000476	20.802944
2125.630839	-3.005500	3.294300	-9.900300	26.280792	0.000474	20.779760
2126.628775	-3.000600	3.293700	-9.882200	26.295888	0.000476	20.787819
2127.627989	-2.994900	3.292800	-9.860600	26.264377	0.000474	20.796929
2128.628804	-3.008500	3.293600	-9.907800	26.246969	0.000472	20.808832
2129.627852	-3.020000	3.292300	-9.942200	26.242450	0.000471	20.807136
2130.631352	-3.015300	3.291300	-9.922900	26.258791	0.000473	20.814075
2131.628876	-3.022100	3.290800	-9.943300	26.311311	0.000473	20.789568
2132.630353	-2.991500	3.291800	-9.846700	26.355610	0.000471	20.792363
2133.631338	-3.007400	3.290800	-9.895800	26.357722	0.000470	20.802546
2134.633194	-3.004300	3.289500	-9.881700	26.379797	0.000472	20.790593
2135.632941	-2.995400	3.290900	-9.854700	26.371181	0.000468	20.793787
2136.633162	-2.974900	3.291600	-9.791600	26.370559	0.000468	20.797430
2137.631018	-3.003200	3.288500	-9.875000	26.407134	0.000467	20.811430
2138.638598	-3.007400	3.289300	-9.890900	26.415727	0.000468	20.814851
2139.636550	-3.003000	3.288400	-9.874400	26.391914	0.000467	20.789021
2140.636373	-3.002000	3.288400	-9.870800	26.387817	0.000466	20.811455
2141.639499	-2.997800	3.288700	-9.857100	26.362963	0.000466	20.800227
2142.637190	-3.002100	3.288200	-9.871200	26.344091	0.000466	20.792166
2143.634614	-3.000500	3.287700	-9.863500	26.372796	0.000466	20.796359
2144.642016	-2.989000	3.288600	-9.828200	26.414163	0.000464	20.802848
2145.638474	-3.016500	3.286900	-9.914100	26.436560	0.000465	20.816824
2146.635574	-2.983200	3.285900	-9.801600	26.443613	0.000465	20.826283
2147.636383	-3.001800	3.284500	-9.858200	26.420247	0.000462	20.818919
2148.641577	-3.000800	3.285300	-9.857700	26.412303	0.000463	20.809512
2149.639781	-2.997100	3.284600	-9.842500	26.425065	0.000461	20.801951
2150.639871	-3.018800	3.283600	-9.912100	26.450861	0.000461	20.806067
2151.641939	-2.989500	3.283600	-9.815700	26.460197	0.000461	20.803597
2152.636467	-3.013500	3.283100	-9.893000	26.488676	0.000458	20.795238
2153.641504	-3.019900	3.283900	-9.915200	26.469631	0.000460	20.807390
2154.641916	-2.994600	3.282800	-9.829300	26.458087	0.000459	20.819968
2155.643490	-2.990000	3.283100	-9.815300	26.486737	0.000458	20.815101
2156.637805	-2.986100	3.284000	-9.804300	26.456000	0.000458	20.814552
2157.647149	-2.997200	3.281100	-9.833300	26.443438	0.000456	20.827530
2158.644884	-3.012000	3.280900	-9.881400	26.481822	0.000455	20.814428
2159.643507	-3.009100	3.282100	-9.875100	26.508910	0.000455	20.803723
2160.647404	-3.004100	3.280400	-9.852900	26.524477	0.000456	20.795663
2161.655046	-3.016300	3.280200	-9.893600	26.508014	0.000454	20.795711
2162.655013	-2.983000	3.281200	-9.787000	26.497389	0.000455	20.809212
2163.645897	-3.002800	3.281100	-9.852000	26.511120	0.000455	20.786504
2164.645227	-2.992600	3.278500	-9.810200	26.474375	0.000451	20.815003
2165.657485	-2.970200	3.280800	-9.743600	26.427697	0.000451	20.802226
2166.659447	-3.005400	3.278800	-9.853800	26.412107	0.000452	20.826859
2167.646225	-3.002700	3.279600	-9.846400	26.380222	0.000450	20.826582
2168.648297	-3.003900	3.277400	-9.842200	26.399293	0.000451	20.829627
2169.647391	-2.988500	3.278700	-9.797300	26.429385	0.000450	20.802025
2170.645903	-3.007800	3.279000	-9.861700	26.447585	0.000449	20.824586
2171.647213	-2.997400	3.277900	-9.823900	26.500170	0.000450	20.818171
2172.642791	-3.026000	3.277100	-9.916100	26.515986	0.000448	20.822689
2173.651817	-2.995500	3.277000	-9.814800	26.548558	0.000448	20.835042
2174.645191	-2.995800	3.275500	-9.812100	26.570207	0.000448	20.821242
2175.648861	-3.045800	3.274300	-9.971600	26.589869	0.000448	20.826782
2176.655838	-2.992400	3.275300	-9.800200	26.622786	0.000449	20.833793
2177.649282	-3.025300	3.273400	-9.902000	26.613748	0.000444	20.837984
2178.651850	-3.014100	3.274000	-9.866400	26.610125	0.000446	20.831971
2179.652415	-2.985200	3.275400	-9.776600	26.633805	0.000444	20.828750
2180.652981	-2.991900	3.275300	-9.797900	26.605878	0.000444	20.830073
2181.648219	-2.991600	3.274900	-9.796500	26.636337	0.000443	20.846467
2182.651710	-3.018900	3.273700	-9.881900	26.638769	0.000441	20.836111
2183.650766	-3.005800	3.271700	-9.832700	26.644503	0.000440	20.833340
2184.651189	-3.011900	3.272100	-9.854200	26.605429	0.000441	20.824880
2185.652681	-2.997100	3.272600	-9.807300	26.592074	0.000440	20.832792
2186.653860	-2.985400	3.273000	-9.769800	26.580655	0.000440	20.849287
2187.652148	-3.002500	3.271600	-9.821700	26.586709	0.000439	20.835933
2188.654140	-2.990100	3.272100	-9.783400	26.589938	0.000439	20.834438
2189.654573	-3.015000	3.270400	-9.860000	26.577673	0.000437	20.848660
2190.651725	-2.988400	3.270000	-9.771500	26.552896	0.000438	20.846039
2191.653548	-2.979800	3.271600	-9.747600	26.585790	0.000437	20.832165
2192.652069	-2.982400	3.270600	-9.753100	26.591150	0.000438	20.850354
2193.652916	-2.996000	3.269000	-9.793000	26.610812	0.000437	20.835033
2194.651026	-3.019300	3.269200	-9.868600	26.654081	0.000436	20.856244
2195.654322	-3.005400	3.268800	-9.823600	26.674187	0.000434	20.823827
2196.654995	-2.995700	3.268500	-9.789600	26.706483	0.000434	20.867673
2197.654478	-3.002500	3.267600	-9.810300	26.733737	0.000435	20.846710
2198.656051	-3.003100	3.267000	-9.810700	26.670462	0.000435	20.862280
2199.652617	-2.989500	3.267300	-9.766200	26.662047	0.000431	20.855717
2200.656570	-3.021200	3.266200	-9.866800	26.617834	0.000430	20.849678
2201.655196	-3.025500	3.265200	-9.877800	26.632878	0.000431	20.856266
2202.652865	-3.011600	3.265400	-9.832400	26.611604	0.000429	20.837725
2203.656887	-2.973800	3.266800	-9.712800	26.635879	0.000429	20.850274
2204.656111	-3.017800	3.265400	-9.853000	26.652038	0.000429	20.857983
2205.655409	-2.984300	3.264600	-9.740500	26.672045	0.000428	20.866716
2206.659102	-3.014700	3.265300	-9.842700	26.674156	0.000428	20.854140
2207.657004	-2.999800	3.265600	-9.795100	26.695404	0.000428	20.862225
2208.654710	-3.010200	3.264000	-9.824500	26.696420	0.000427	20.860876
2209.659809	-3.012100	3.262100	-9.824600	26.680731	0.000425	20.857431
2210.657201	-2.982200	3.263800	-9.732300	26.612068	0.000426	20.854313
2211.659863	-2.994300	3.262600	-9.768600	26.557055	0.000423	20.843107
2212.660232	-2.974600	3.262900	-9.704300	26.524133	0.000423	20.874024
2213.662037	-3.000600	3.263000	-9.790600	26.490764	0.000424	20.848545
2214.658136	-2.995500	3.263600	-9.775400	26.546575	0.000424	20.874297
2215.657721	-2.992900	3.261200	-9.758600	26.575571	0.000421	20.860771
2216.657883	-2.989500	3.261400	-9.748800	26.601165	0.000420	20.854258
2217.658549	-2.988900	3.259900	-9.742000	26.605932	0.000419	20.871376
2218.658118	-2.999800	3.259300	-9.775900	26.663847	0.000420	20.881233
2219.661227	-2.993300	3.260100	-9.757100	26.701704	0.000419	20.868084
2220.658973	-2.982700	3.259700	-9.721500	26.732356	0.000418	20.872347
2221.657931	-3.013400	3.258800	-9.818800	26.765370	0.000419	20.872823
2222.663480	-2.988200	3.258400	-9.736000	26.787686	0.000417	20.885301
2223.659835	-2.965200	3.260000	-9.665000	26.801037	0.000418	20.875966
2224.656884	-3.017000	3.258500	-9.829200	26.813446	0.000416	20.860469
2225.663290	-2.998700	3.257400	-9.767600	26.805430	0.000415	20.881805
2226.659077	-3.008400	3.257300	-9.798300	26.788975	0.000417	20.879012
2227.661290	-3.000800	3.258200	-9.774800	26.764923	0.000415	20.879486
2228.661287	-3.010700	3.256700	-9.803600	26.752858	0.000416	20.883950
2229.658052	-3.015700	3.256200	-9.817800	26.778028	0.000414	20.880807
2230.661501	-3.000700	3.254400	-9.764400	26.806373	0.000412	20.903140
2231.659818	-2.988900	3.254700	-9.727300	26.818014	0.000411	20.875492
2232.663889	-2.994200	3.255900	-9.748300	26.844595	0.000412	20.891312
2233.661654	-3.004100	3.254800	-9.776900	26.861024	0.000410	20.878909
2234.659269	-3.033800	3.254500	-9.871300	26.830722	0.000411	20.880209
2235.661599	-2.995300	3.253800	-9.744100	26.835040	0.000410	20.880757
2236.662048	-3.017100	3.253000	-9.813500	26.796072	0.000408	20.891362
2237.659588	-3.015900	3.251400	-9.804000	26.740297	0.000409	20.885547
2238.663472	-3.000800	3.252700	-9.759900	26.732827	0.000408	20.894631
2239.661447	-3.000900	3.252800	-9.760300	26.768174	0.000409	20.878486
2240.659461	-2.999900	3.252300	-9.756200	26.779988	0.000406	20.895579
2241.660897	-3.010300	3.251000	-9.785500	26.791927	0.000407	20.902840
2242.666402	-3.019800	3.250000	-9.813600	26.813892	0.000405	20.890313
2243.664409	-3.012600	3.250000	-9.789800	26.838712	0.000405	20.891087
2244.665694	-3.028000	3.249300	-9.837900	26.854945	0.000404	20.891761
2245.666975	-2.998600	3.249000	-9.741600	26.860060	0.000404	20.899748
2246.662791	-2.989400	3.249700	-9.713800	26.852884	0.000405	20.887793
2247.664920	-2.992300	3.250500	-9.724300	26.871102	0.000403	20.887145
2248.669379	-2.996400	3.248100	-9.731800	26.865319	0.000402	20.881805
2249.662004	-2.987900	3.249200	-9.707900	26.883786	0.000401	20.897527
2250.660695	-2.989800	3.247200	-9.707800	26.896641	0.000400	20.900022
2251.667409	-3.011600	3.249400	-9.784500	26.915727	0.000400	20.899773
2252.664239	-2.983600	3.248300	-9.690500	26.909820	0.000399	20.907109
2253.665678	-2.997500	3.247500	-9.733600	26.899098	0.000400	20.908181
2254.675536	-3.023800	3.246200	-9.814100	26.918357	0.000398	20.909055
2255.666853	-2.987900	3.244700	-9.692900	26.938285	0.000398	20.899223
2256.665778	-3.021100	3.244500	-9.800400	26.941337	0.000397	20.896602
2257.666847	-3.017900	3.244200	-9.789800	26.910812	0.000395	20.910003
2258.666985	-2.991300	3.245000	-9.705600	26.887806	0.000396	20.898724
2259.667490	-3.005200	3.243300	-9.746100	26.889395	0.000395	20.912175
2260.669228	-3.023200	3.242400	-9.801500	26.834222	0.000396	20.890366
2261.669290	-2.999000	3.243500	-9.726400	26.816475	0.000392	20.909504
2262.670145	-2.980800	3.243700	-9.667000	26.785375	0.000394	20.892461
2263.669417	-2.996400	3.241700	-9.712200	26.849957	0.000393	20.899548
2264.672665	-2.984900	3.242500	-9.677100	26.852640	0.000394	20.918839
2265.672903	-3.009700	3.242000	-9.756800	26.898330	0.000390	20.915943
2266.680335	-2.998500	3.242000	-9.720400	26.924291	0.000391	20.899376
2267.670288	-3.002500	3.242300	-9.734100	26.942481	0.000391	20.900597
2268.671510	-2.986700	3.241200	-9.679600	26.979805	0.000390	20.905413
2269.674162	-2.982700	3.241100	-9.665300	26.995488	0.000388	20.909804
2270.670920	-2.998500	3.239400	-9.712600	27.008394	0.000388	20.909980
2271.679833	-2.994100	3.240100	-9.699900	27.031396	0.000387	20.902767
2272.676403	-2.981600	3.238700	-9.656300	27.037105	0.000385	20.884328
2273.674413	-2.985300	3.239400	-9.669700	27.024599	0.000388	20.879338
2274.680762	-3.002000	3.238000	-9.718600	26.985364	0.000386	20.884927
2275.676737	-3.022700	3.238200	-9.785100	26.987450	0.000387	20.887498
2276.672361	-3.003300	3.237800	-9.723300	26.989832	0.000384	20.877566
2277.674149	-3.008900	3.237700	-9.740800	27.010281	0.000382	20.892440
2278.675409	-3.023300	3.236100	-9.782800	27.029837	0.000382	20.893613
2279.678033	-2.980700	3.236800	-9.645300	27.005344	0.000381	20.892216
2280.679630	-2.996400	3.235100	-9.692800	27.010108	0.000384	20.892740
2281.677474	-2.994900	3.235800	-9.690000	26.969138	0.000379	20.874301
2282.676591	-2.996600	3.235800	-9.694800	26.895357	0.000381	20.881189
2283.681028	-2.980700	3.234700	-9.640000	26.875478	0.000381	20.881588
2284.675883	-3.007800	3.234400	-9.726400	26.858850	0.000380	20.871507
2285.672660	-3.003900	3.233200	-9.710300	26.876347	0.000379	20.898582
2286.680683	-3.001700	3.232500	-9.702400	26.884762	0.000378	20.866743
2287.678612	-3.001100	3.232900	-9.701500	26.870020	0.000379	20.874679
2288.679219	-3.005800	3.232200	-9.714500	26.806010	0.000377	20.877174
2289.683997	-2.978500	3.231600	-9.624500	26.783920	0.000377	20.866817
2290.680328	-2.975600	3.232200	-9.616400	26.741675	0.000378	20.881242
2291.679459	-2.976100	3.231500	-9.616000	26.733558	0.000376	20.889676
2292.676102	-3.013300	3.230700	-9.734400	26.700644	0.000375	20.867966
2293.684340	-2.979400	3.232500	-9.629700	26.710352	0.000374	20.868717
2294.684019	-3.001000	3.228800	-9.689000	26.748751	0.000373	20.873658
2295.681071	-3.007300	3.228200	-9.706500	26.786454	0.000372	20.885960
2296.685516	-2.973900	3.230100	-9.606100	26.803186	0.000373	20.883342
2297.681709	-2.989900	3.228400	-9.651800	26.821378	0.000372	20.870340
2298.681742	-2.985400	3.227500	-9.633900	26.886405	0.000370	20.864601
2299.683256	-3.002700	3.227000	-9.687500	26.909288	0.000370	20.871015
2300.683560	-2.992000	3.228300	-9.659100	26.966095	0.000370	20.880723
2301.678502	-2.997500	3.226900	-9.671400	26.975923	0.000370	20.865951
2302.681956	-3.003300	3.227400	-9.692200	26.979944	0.000368	20.863830
2303.685469	-3.000700	3.225900	-9.678800	26.956021	0.000368	20.858739
2304.678897	-2.986800	3.226100	-9.634700	26.888344	0.000369	20.859913
2305.687876	-3.002200	3.224000	-9.678300	26.893780	0.000368	20.868698
2306.686118	-3.002100	3.224400	-9.679100	26.862931	0.000365	20.863758
2307.686070	-3.006700	3.223700	-9.691800	26.823667	0.000364	20.856521
2308.688264	-3.012700	3.223000	-9.709100	26.820218	0.000364	20.859217
2309.686410	-2.996700	3.223400	-9.658000	26.842903	0.000362	20.840776
2310.682569	-3.001300	3.224700	-9.677900	26.871742	0.000365	20.845117
2311.682392	-3.035200	3.221900	-9.778400	26.883607	0.000365	20.879805
2312.686287	-2.995500	3.222000	-9.650800	26.909219	0.000362	20.849136
2313.684535	-3.006200	3.221900	-9.685000	26.929495	0.000361	20.864308
2314.684759	-3.002600	3.221400	-9.671600	26.909493	0.000360	20.839454
2315.685937	-3.003900	3.219900	-9.671300	26.896664	0.000360	20.858796
2316.682955	-2.992600	3.220600	-9.636900	26.875840	0.000360	20.840229
2317.682954	-2.976800	3.220000	-9.584100	26.856530	0.000358	20.827452
2318.693610	-2.996400	3.220600	-9.649000	26.865640	0.000359	20.858421
2319.682630	-3.009500	3.217500	-9.681400	26.897904	0.000358	20.846767
2320.683053	-3.006500	3.218900	-9.675800	26.902398	0.000358	20.856502
2321.686007	-3.007900	3.217200	-9.676300	26.950940	0.000357	20.840829
2322.686987	-3.003000	3.218000	-9.662400	26.946200	0.000356	20.831321
2323.686156	-2.990700	3.218000	-9.622900	27.003578	0.000357	20.860096
2324.681737	-3.020400	3.215300	-9.709900	27.025190	0.000357	20.830623
2325.686407	-2.974800	3.217700	-9.571000	27.039286	0.000356	20.844324
2326.686968	-2.999300	3.217600	-9.649400	26.999806	0.000356	20.830700
2327.687821	-2.990400	3.215300	-9.613500	26.958562	0.000354	20.824312
2328.687349	-3.005000	3.215000	-9.660100	26.944540	0.000354	20.826807
2329.707805	-3.006200	3.214600	-9.662500	26.924637	0.000354	20.840932
2330.682625	-3.000500	3.214000	-9.642000	26.919151	0.000352	20.840158
2331.689318	-3.010700	3.213900	-9.674200	26.895996	0.000353	20.853384
2332.693769	-2.999900	3.215700	-9.645600	26.896593	0.000351	20.856354
2333.690691	-3.014500	3.210800	-9.678500	26.864429	0.000351	20.850565
2334.691680	-2.976200	3.214000	-9.564600	26.869392	0.000349	20.832797
2335.688478	-3.001900	3.212100	-9.641600	26.859563	0.000347	20.851837
2336.689565	-2.974200	3.211600	-9.551000	26.882968	0.000347	20.835068
2337.685679	-2.987600	3.211700	-9.594500	26.919526	0.000347	20.857603
2338.702089	-2.989300	3.210400	-9.595900	26.938956	0.000347	20.836839
2339.689376	-2.994100	3.210100	-9.609900	26.930966	0.000347	20.816477
2340.691847	-2.961000	3.211900	-9.509500	26.896445	0.000345	20.842930
2341.691806	-2.993600	3.210400	-9.610100	26.927316	0.000346	20.828453
2342.693514	-3.007800	3.208400	-9.648300	26.972833	0.000347	20.830602
2343.690233	-3.016400	3.208000	-9.675100	26.964121	0.000345	20.843652
2344.691633	-2.981900	3.208900	-9.567800	26.946701	0.000345	20.827558
2345.691562	-2.986000	3.207900	-9.577600	26.945384	0.000345	20.832397
2346.687193	-2.991400	3.206200	-9.590200	26.970076	0.000344	20.804123
2347.692114	-3.005000	3.204800	-9.629500	26.993526	0.000344	20.847618
2348.691657	-2.973600	3.207500	-9.535500	26.976206	0.000343	20.843951
2349.690461	-2.982100	3.205100	-9.557300	26.998442	0.000344	20.823165
2350.692071	-3.022000	3.204400	-9.682000	27.026681	0.000342	20.826432
2351.691204	-2.989500	3.204400	-9.578700	27.044945	0.000342	20.817299
2352.693243	-3.032300	3.202000	-9.707900	27.042240	0.000340	20.824062
2353.689925	-2.977700	3.204300	-9.539600	27.021916	0.000342	20.824960
2354.693005	-3.015000	3.203100	-9.653400	27.013380	0.000342	20.830126
2355.687749	-3.014200	3.202300	-9.651300	26.991121	0.000340	20.819596
2356.691735	-2.992900	3.203600	-9.587400	27.004420	0.000338	20.818271
2357.695745	-3.001400	3.201000	-9.606100	27.032612	0.000340	20.817699
2358.690954	-2.999800	3.200700	-9.600000	27.013281	0.000337	20.836190
2359.696227	-3.016100	3.199300	-9.647700	27.036805	0.000338	20.830923
2360.699933	-2.984200	3.200500	-9.549900	27.053705	0.000337	20.822316
2361.697102	-2.982300	3.199000	-9.539800	27.042462	0.000338	20.819070
2362.689620	-2.982900	3.201100	-9.547000	27.030774	0.000337	20.833394
2363.707424	-3.002100	3.198000	-9.599400	27.092934	0.000337	20.836164
2364.697926	-3.013500	3.198000	-9.636300	27.101497	0.000336	20.818697
2365.692317	-3.007700	3.199600	-9.622300	27.089115	0.000336	20.816676
2366.697126	-2.989600	3.197700	-9.558100	27.108070	0.000333	20.829101
2367.694852	-2.997200	3.197100	-9.580600	27.088942	0.000334	20.818399
2368.693760	-3.016600	3.197100	-9.643600	27.116013	0.000334	20.811011
2369.693849	-3.001400	3.195700	-9.591000	27.147128	0.000333	20.832822
2370.693159	-3.000900	3.196000	-9.589500	27.154521	0.000332	20.829826
2371.696764	-3.007500	3.194400	-9.606300	27.173676	0.000332	20.826807
2372.703571	-3.010500	3.194400	-9.615700	27.163181	0.000334	20.823838
2373.693441	-2.974200	3.194100	-9.498700	27.152660	0.000329	20.823687
2374.695354	-3.008100	3.193300	-9.604900	27.120851	0.000331	20.819196
2375.699917	-2.998900	3.193700	-9.577400	27.076336	0.000330	20.813782
2376.697503	-2.979900	3.192300	-9.511800	27.050975	0.000328	20.828579
2377.696557	-3.003100	3.192700	-9.585800	27.046757	0.000330	20.817699
2378.699190	-2.969900	3.193100	-9.482200	27.048367	0.000327	20.822638
2379.692190	-2.991300	3.190700	-9.543200	27.079910	0.000328	20.821169
2380.692602	-3.011300	3.190300	-9.605900	27.073880	0.000328	20.805147
2381.698681	-2.985900	3.192900	-9.533200	27.068197	0.000327	20.814131
2382.692394	-2.985000	3.190100	-9.521000	27.060852	0.000326	20.816227
2383.700047	-3.031600	3.187100	-9.661000	27.075492	0.000328	20.813881
2384.697164	-3.002600	3.190100	-9.576900	27.100455	0.000327	20.808166
2385.692145	-3.016700	3.188000	-9.616300	27.126162	0.000327	20.809365
2386.694873	-2.995400	3.187600	-9.547100	27.140826	0.000326	20.818898
2387.695578	-2.990600	3.188600	-9.534200	27.135490	0.000327	20.796462
2388.697594	-2.996500	3.186800	-9.547400	27.165837	0.000326	20.826035
2389.697572	-3.015900	3.185700	-9.606600	27.198762	0.000325	20.817426
2390.703268	-3.001100	3.185500	-9.558800	27.213750	0.000323	20.795043
2391.693374	-3.006500	3.186100	-9.577000	27.268156	0.000322	20.814206
2392.714578	-3.004900	3.184000	-9.566200	27.295819	0.000323	20.817850
2393.700742	-3.011100	3.182400	-9.582000	27.326534	0.000321	20.816030
2394.697636	-2.998000	3.182400	-9.539900	27.333378	0.000321	20.802526
2395.699434	-3.000100	3.182700	-9.547000	27.332758	0.000321	20.810438
2396.699883	-2.990600	3.182500	-9.516800	27.364711	0.000323	20.813183
2397.698931	-2.993200	3.182700	-9.525700	27.391777	0.000320	20.811961
2398.698358	-2.994000	3.181900	-9.525500	27.388551	0.000321	20.821519
2399.697830	-3.015100	3.180200	-9.587800	27.314202	0.000320	20.804100
2400.708678	-3.007500	3.179200	-9.560400	27.258109	0.000319	20.787030
2401.700467	-3.002000	3.181400	-9.549300	27.229924	0.000319	20.798035
2402.701082	-3.008100	3.178300	-9.559800	27.212184	0.000317	20.777820
2403.703195	-3.014400	3.176600	-9.575300	27.140602	0.000317	20.804922
2404.704886	-2.975200	3.177900	-9.454400	27.097303	0.000317	20.798358
2405.705874	-2.984100	3.176800	-9.477900	27.045740	0.000318	20.818099
2406.705922	-2.984800	3.178400	-9.486300	27.061076	0.000315	20.780417
2407.708711	-2.991600	3.176700	-9.502000	27.087800	0.000314	20.796387
2408.701621	-2.997400	3.175800	-9.518200	27.067675	0.000315	20.796536
2409.704723	-2.991200	3.177200	-9.502100	27.023133	0.000311	20.802477
2410.710749	-3.007200	3.175200	-9.547100	27.027550	0.000313	20.818297
2411.708626	-2.990200	3.173700	-9.489100	27.064745	0.000313	20.792168
2412.706262	-2.994600	3.174300	-9.504200	27.091968	0.000312	20.801528
2413.707265	-3.006300	3.173600	-9.539300	27.093482	0.000314	20.791196
2414.706970	-2.990300	3.172000	-9.483600	27.119858	0.000312	20.812508
2415.705935	-2.960700	3.172200	-9.391200	27.134101	0.000311	20.784633
2416.707572	-3.019900	3.170800	-9.574400	27.129487	0.000311	20.806545
2417.704625	-3.009900	3.171500	-9.544900	27.081049	0.000311	20.798133
2418.711777	-3.000700	3.172300	-9.517900	27.051745	0.000311	20.789999
2419.708248	-2.997500	3.169800	-9.500800	27.046287	0.000312	20.763173
2420.710364	-3.006200	3.170700	-9.530500	27.069215	0.000311	20.811835
2421.712409	-2.986900	3.168800	-9.463300	27.120902	0.000311	20.766142
2422.711003	-3.019300	3.167900	-9.563500	27.162761	0.000308	20.792122
2423.711463	-2.987100	3.168700	-9.463900	27.189510	0.000310	20.778723
2424.708074	-3.027600	3.167200	-9.587900	27.176138	0.000308	20.805101
2425.712764	-2.997700	3.167400	-9.494100	27.160257	0.000309	20.771111
2426.715819	-3.002300	3.165500	-9.502300	27.128299	0.000308	20.776426
2427.713929	-3.006400	3.166400	-9.518200	27.104306	0.000307	20.790228
2428.711390	-3.010700	3.165100	-9.528000	27.110062	0.000307	20.788431
2429.714395	-2.987500	3.163900	-9.450900	27.108944	0.000308	20.777350
2430.712525	-3.011900	3.162900	-9.525200	27.168371	0.000307	20.774056
2431.715789	-3.040400	3.160700	-9.609200	27.209410	0.000306	20.771237
2432.718768	-2.980000	3.163400	-9.424900	27.235163	0.000306	20.781019
2433.722567	-2.989000	3.160300	-9.445800	27.244294	0.000307	20.769341
2434.709497	-3.011900	3.161500	-9.521500	27.268285	0.000305	20.758859
2435.710808	-2.989700	3.160100	-9.446100	27.310336	0.000302	20.774132
2436.715154	-2.997800	3.160900	-9.474900	27.309838	0.000304	20.778373
2437.710944	-2.992600	3.158300	-9.450800	27.325319	0.000301	20.792523
2438.713967	-3.007600	3.157900	-9.495700	27.341495	0.000302	20.775604
2439.719051	-2.951300	3.160100	-9.325100	27.288083	0.000302	20.781619
2440.717785	-3.002100	3.157000	-9.476600	27.266276	0.000301	20.787185
2441.713463	-2.982300	3.158000	-9.417400	27.210252	0.000301	20.771610
2442.714740	-3.005100	3.155200	-9.479900	27.157155	0.000300	20.775103
2443.714762	-3.014100	3.154900	-9.507900	27.162639	0.000300	20.776352
2444.714189	-2.982400	3.153900	-9.405300	27.174873	0.000299	20.771113
2445.711550	-3.019400	3.152900	-9.517600	27.174501	0.000299	20.770264
2446.711799	-2.976600	3.154700	-9.389300	27.165519	0.000296	20.784464
2447.718179	-3.005300	3.152400	-9.473400	27.181795	0.000297	20.751521
2448.715067	-3.020200	3.151500	-9.517300	27.197427	0.000297	20.747330
2449.719712	-2.994200	3.150600	-9.432100	27.250200	0.000297	20.760582
2450.715418	-3.019300	3.149400	-9.507900	27.296172	0.000295	20.767945
2451.715079	-3.004800	3.149300	-9.462500	27.312322	0.000297	20.765698
2452.714995	-2.989500	3.149700	-9.415500	27.324779	0.000295	20.775384
2453.717816	-3.018000	3.148600	-9.501300	27.330977	0.000295	20.765498
2454.718303	-3.014700	3.147900	-9.487500	27.335595	0.000295	20.757815
2455.714990	-3.008500	3.147900	-9.470000	27.372111	0.000294	20.749504
2456.718050	-2.996800	3.147500	-9.431800	27.339838	0.000294	20.749754
2457.717164	-3.028700	3.144800	-9.523800	27.309448	0.000295	20.755695
2458.715727	-3.004300	3.146600	-9.452700	27.328253	0.000294	20.771292
2459.719564	-3.010500	3.144800	-9.466300	27.359712	0.000294	20.752677
2460.715272	-3.012600	3.145400	-9.473300	27.338229	0.000293	20.758094
2461.712454	-3.009900	3.143400	-9.459700	27.346316	0.000294	20.759591
2462.713754	-3.010300	3.142400	-9.459100	27.363336	0.000292	20.743046
2463.716332	-2.998100	3.141700	-9.416900	27.408707	0.000294	20.762612
2464.715611	-3.001500	3.142000	-9.429700	27.440561	0.000290	20.739180
2465.718489	-3.025500	3.139700	-9.497700	27.465365	0.000290	20.751807
2466.714235	-2.989800	3.140600	-9.388700	27.458816	0.000292	20.758495
2467.719059	-3.004100	3.137700	-9.424900	27.458594	0.000292	20.740253
2468.716265	-2.998600	3.139300	-9.412400	27.426819	0.000290	20.752383
2469.721465	-3.005700	3.136500	-9.426600	27.356496	0.000292	20.740432
2470.719725	-2.993100	3.138300	-9.392300	27.280755	0.000289	20.748168
2471.715040	-3.011400	3.134300	-9.436800	27.262919	0.000290	20.757254
2472.720030	-3.011000	3.136000	-9.441600	27.249570	0.000290	20.746671
2473.718449	-2.996400	3.135100	-9.393600	27.216127	0.000291	20.739585
2474.719140	-3.017300	3.133200	-9.452700	27.199430	0.000287	20.739861
2475.718856	-3.003600	3.131900	-9.405500	27.221786	0.000288	20.731526
2476.719749	-3.039600	3.131800	-9.518700	27.253567	0.000289	20.750218
2477.717378	-3.016600	3.131800	-9.446000	27.312166	0.000289	20.722865
2478.720647	-3.031700	3.129300	-9.485800	27.332611	0.000289	20.744855
2479.720119	-3.003400	3.130500	-9.400900	27.354665	0.000285	20.739539
2480.723131	-3.017000	3.129700	-9.439600	27.385699	0.000287	20.746103
2481.719635	-3.021200	3.128300	-9.450000	27.417377	0.000287	20.765169
2482.724335	-2.969300	3.129600	-9.290900	27.449376	0.000286	20.750895
2483.721866	-2.993600	3.127500	-9.361300	27.463120	0.000286	20.723943
2484.721874	-2.996100	3.126700	-9.367100	27.417926	0.000285	20.732056
2485.725497	-2.982700	3.126300	-9.323200	27.412591	0.000284	20.736646
2486.718588	-2.986900	3.124000	-9.329500	27.420357	0.000284	20.737346
2487.718746	-2.978800	3.126300	-9.311600	27.459152	0.000284	20.737021
2488.730074	-3.008400	3.123300	-9.395400	27.461955	0.000286	20.742212
2489.723343	-3.020100	3.121800	-9.427500	27.481304	0.000285	20.749352
2490.726988	-3.001200	3.120700	-9.365000	27.531558	0.000283	20.723572
2491.725491	-2.999800	3.120500	-9.360000	27.519058	0.000284	20.736600
2492.730630	-3.002200	3.119300	-9.363700	27.561669	0.000281	20.741067
2493.724710	-2.992100	3.120000	-9.335200	27.583472	0.000281	20.731710
2494.726535	-3.010100	3.119300	-9.388800	27.587763	0.000284	20.728914
2495.724730	-2.999200	3.116700	-9.346800	27.565365	0.000281	20.727241
2496.729319	-2.996700	3.118500	-9.343400	27.578313	0.000281	20.723673
2497.725428	-2.980800	3.116900	-9.289600	27.589227	0.000282	20.744139
2498.731379	-3.005100	3.115200	-9.360100	27.556214	0.000283	20.749329
2499.723994	-3.029900	3.113500	-9.432500	27.568318	0.000284	20.726893
2500.726646	-3.014100	3.112200	-9.379700	27.564573	0.000280	20.724547
2501.732574	-3.000200	3.111400	-9.334200	27.603538	0.000284	20.741468
2502.727990	-3.005100	3.111300	-9.349200	27.618740	0.000281	20.729264
2503.724127	-3.002300	3.111000	-9.338400	27.633350	0.000281	20.730688
2504.727396	-2.989400	3.111500	-9.299700	27.607904	0.000282	20.745862
2505.731848	-2.974300	3.110300	-9.249200	27.627447	0.000281	20.739922
2506.727377	-2.997400	3.107500	-9.312500	27.662364	0.000280	20.738073
2507.723441	-2.985200	3.107400	-9.275800	27.671592	0.000281	20.719857
2508.725968	-2.994900	3.106500	-9.302500	27.681263	0.000280	20.737176
2509.728745	-3.003100	3.104800	-9.322400	27.687588	0.000281	20.730264
2510.727448	-2.978300	3.105600	-9.248500	27.728086	0.000278	20.725497
2511.727420	-3.009300	3.102900	-9.336200	27.727415	0.000281	20.717710
2512.729108	-2.985500	3.102700	-9.262400	27.716852	0.000279	20.741694
2513.725049	-3.020500	3.100600	-9.364100	27.741526	0.000280	20.730014
2514.730649	-2.996900	3.102500	-9.297000	27.742246	0.000280	20.727419
2515.729901	-2.985700	3.101800	-9.258600	27.716456	0.000277	20.730864
2516.726314	-2.991900	3.098300	-9.268200	27.675016	0.000276	20.732786
2517.733695	-3.009300	3.098000	-9.322200	27.668518	0.000280	20.755646
2518.731416	-2.998800	3.098000	-9.289200	27.637171	0.000278	20.737853
2519.731160	-2.973700	3.097500	-9.209100	27.658078	0.000277	20.731862
2520.732171	-3.005700	3.095300	-9.302500	27.690965	0.000276	20.720384
2521.734987	-3.000100	3.094600	-9.282600	27.653365	0.000275	20.735656
2522.729327	-2.996900	3.095400	-9.275600	27.632980	0.000275	20.745015
2523.732265	-2.981900	3.092600	-9.219700	27.638017	0.000277	20.744394
2524.730497	-2.996200	3.093000	-9.266300	27.622837	0.000276	20.742396
2525.733495	-2.990500	3.091500	-9.244200	27.637870	0.000276	20.729073
2526.733409	-3.010300	3.089700	-9.300500	27.662149	0.000275	20.712725
2527.736971	-2.982800	3.088900	-9.212200	27.683553	0.000275	20.728574
2528.735015	-3.010200	3.088900	-9.297200	27.684841	0.000274	20.736983
2529.729841	-2.998600	3.086600	-9.254300	27.673534	0.000277	20.726078
2530.732704	-3.015800	3.085700	-9.304700	27.663836	0.000275	20.727226
2531.738329	-2.983700	3.084500	-9.202100	27.664631	0.000274	20.735612
2532.733993	-3.002800	3.084200	-9.260100	27.660318	0.000274	20.712304
2533.735049	-3.009500	3.083000	-9.276400	27.589807	0.000274	20.735713
2534.735939	-2.989800	3.082900	-9.215500	27.553597	0.000276	20.727728
2535.736103	-2.992900	3.081500	-9.221400	27.539410	0.000276	20.745698
2536.739002	-3.015200	3.078800	-9.282800	27.531695	0.000275	20.727503
2537.734570	-2.991100	3.080500	-9.213700	27.589066	0.000274	20.719319
2538.739058	-2.975600	3.077800	-9.155900	27.589537	0.000274	20.720742
2539.739173	-2.996500	3.077200	-9.220000	27.589662	0.000274	20.728929
2540.738089	-2.988000	3.077800	-9.195500	27.532766	0.000275	20.720994
2541.739191	-3.001000	3.075200	-9.228600	27.519248	0.000275	20.741533
2542.736567	-3.005200	3.074500	-9.238700	27.476833	0.000273	20.728730
2543.737751	-3.004500	3.074000	-9.233700	27.468798	0.000275	20.712111
2544.740610	-3.002100	3.073200	-9.224400	27.492683	0.000274	20.736143
2545.737140	-3.022500	3.071200	-9.282100	27.546754	0.000275	20.759726
2546.738662	-3.012500	3.070200	-9.247700	27.587483	0.000275	20.732426
2547.743594	-3.003800	3.069600	-9.219700	27.657125	0.000274	20.756984
2548.740059	-2.986700	3.069200	-9.165200	27.677809	0.000274	20.719474
2549.736941	-3.002300	3.068700	-9.212200	27.693507	0.000273	20.747600
2550.740919	-3.011200	3.067200	-9.234600	27.682447	0.000273	20.722719
2551.738456	-2.985700	3.067100	-9.156400	27.702114	0.000275	20.736346
2552.741741	-2.995800	3.065300	-9.181100	27.713249	0.000275	20.742336
2553.743766	-3.022900	3.062400	-9.255700	27.705290	0.000275	20.737646
2554.743145	-2.996800	3.063100	-9.177800	27.710895	0.000274	20.726690
2555.738567	-2.992400	3.061200	-9.159700	27.715605	0.000272	20.753242
2556.747056	-3.014400	3.061100	-9.225700	27.763840	0.000273	20.740141
2557.744470	-3.006100	3.058500	-9.192700	27.783531	0.000273	20.740044
2558.739820	-3.034600	3.055800	-9.271700	27.773339	0.000273	20.757762
2559.747052	-3.001000	3.057400	-9.173100	27.750451	0.000275	20.753221
2560.747572	-3.041000	3.055100	-9.288800	27.769545	0.000273	20.760108
2561.747988	-3.001000	3.056000	-9.169400	27.769298	0.000272	20.741841
2562.763327	-2.995400	3.054700	-9.149400	27.775647	0.000271	20.721677
2563.749291	-3.008700	3.052400	-9.182300	27.785938	0.000274	20.751950
2564.745230	-3.017000	3.051200	-9.204400	27.809148	0.000271	20.728365
2565.752072	-2.984900	3.052300	-9.109800	27.809025	0.000271	20.723973
2566.750185	-2.987400	3.050200	-9.111200	27.762255	0.000273	20.738547
2567.749719	-3.011400	3.047500	-9.175500	27.736985	0.000271	20.742040
2568.745834	-2.991200	3.046800	-9.112700	27.720769	0.000271	20.737575
2569.748847	-2.982400	3.047000	-9.086200	27.738425	0.000272	20.755344
2570.753715	-3.042700	3.044900	-9.263300	27.778350	0.000270	20.730562
2571.752715	-3.017700	3.042700	-9.180400	27.846444	0.000272	20.753099
2572.753181	-3.000700	3.043000	-9.130600	27.809520	0.000270	20.743914
2573.747495	-3.002800	3.042700	-9.136000	27.814331	0.000272	20.736426
2574.751485	-3.017000	3.039700	-9.168800	27.796254	0.000271	20.728191
2575.754598	-3.006000	3.039800	-9.136700	27.728880	0.000269	20.730090
2576.755022	-3.011700	3.038800	-9.149200	27.682827	0.000269	20.728792
2577.756006	-2.994000	3.037000	-9.091900	27.708667	0.000271	20.751476
2578.750930	-2.985900	3.035900	-9.063900	27.724166	0.000269	20.746684
2579.758232	-3.010200	3.034400	-9.133000	27.727293	0.000268	20.733235
2580.752049	-3.002200	3.033500	-9.105600	27.757445	0.000270	20.746508
2581.752806	-3.013500	3.032200	-9.136300	27.769796	0.000269	20.743290
2582.753785	-2.978100	3.033100	-9.031800	27.821597	0.000269	20.746585
2583.752590	-3.003700	3.029700	-9.099100	27.816787	0.000270	20.742692
2584.752151	-2.993100	3.029200	-9.065600	27.810662	0.000270	20.755495
2585.754606	-2.996600	3.029000	-9.075200	27.852743	0.000271	20.737627
2586.754498	-2.988300	3.026900	-9.044200	27.876673	0.000268	20.757919
2587.751488	-3.022300	3.024600	-9.139700	27.836330	0.000271	20.750506
2588.755085	-3.006600	3.024100	-9.091400	27.798787	0.000269	20.736904
2589.754674	-2.984300	3.022900	-9.019900	27.775330	0.000268	20.731316
2590.754855	-2.996100	3.022200	-9.053200	27.770818	0.000270	20.765183
2591.752457	-2.993100	3.020300	-9.039000	27.785520	0.000267	20.762909
2592.753860	-3.004600	3.018500	-9.068700	27.808162	0.000267	20.759143
2593.754982	-3.005300	3.018000	-9.068200	27.840025	0.000268	20.753277
2594.754965	-3.017900	3.017700	-9.105900	27.858153	0.000268	20.747814
2595.753720	-2.984300	3.017000	-9.002200	27.854037	0.000269	20.761689
2596.752099	-3.010700	3.015700	-9.077500	27.848830	0.000266	20.742224
2597.759297	-2.983600	3.014700	-8.994000	27.825174	0.000269	20.770100
2598.757333	-2.994300	3.012400	-9.018700	27.857485	0.000269	20.774169
2599.753789	-3.016400	3.008800	-9.074400	27.889969	0.000271	20.748067
2600.756385	-2.978100	3.011600	-8.967700	27.913053	0.000269	20.760395
2601.756644	-2.989500	3.009200	-8.995200	27.927385	0.000268	20.739258
2602.761108	-2.981500	3.008400	-8.968700	27.949378	0.000269	20.778465
2603.756828	-2.992000	3.006700	-8.994200	27.954809	0.000267	20.755007
2604.757946	-2.992000	3.004500	-8.988400	27.973429	0.000267	20.758103
2605.763220	-2.998200	3.003700	-9.004200	27.960089	0.000266	20.755107
2606.758006	-2.996800	3.001900	-8.995300	27.953126	0.000265	20.748097
2607.758905	-3.025000	3.001600	-9.078600	27.925926	0.000268	20.770508
2608.765759	-3.038200	2.998800	-9.108900	27.941077	0.000267	20.782912
2609.762316	-3.015500	2.999700	-9.044100	27.942986	0.000268	20.761126
2610.761313	-2.973200	2.998000	-8.911400	27.986201	0.000267	20.752466
2611.764843	-2.991400	2.997500	-8.965200	28.011392	0.000267	20.761227
2612.767459	-3.020200	2.995600	-9.046400	28.052671	0.000269	20.755363
2613.761622	-2.994400	2.994300	-8.964600	28.076271	0.000267	20.741662
2614.761930	-2.992600	2.991800	-8.952300	28.100147	0.000267	20.769965
2615.763476	-3.013200	2.991200	-9.011700	28.115690	0.000269	20.745308
2616.764958	-2.969600	2.989800	-8.877100	28.123920	0.000267	20.774930
2617.763446	-3.025300	2.987700	-9.037400	28.116311	0.000267	20.771064
2618.769489	-2.975700	2.986600	-8.885900	28.134308	0.000268	20.754094
2619.763229	-2.980200	2.986000	-8.898500	28.098216	0.000267	20.775607
2620.767074	-2.981900	2.984000	-8.897500	28.056617	0.000269	20.762181
2621.766893	-2.989300	2.983300	-8.917300	27.986259	0.000268	20.750627
2622.763793	-3.009100	2.981300	-8.970600	27.937664	0.000268	20.769994
2623.762015	-2.986800	2.980500	-8.901400	27.929483	0.000269	20.769820
2624.762798	-3.025000	2.978500	-9.008400	27.924498	0.000266	20.762432
2625.765143	-2.992700	2.978200	-8.912000	27.903969	0.000268	20.783496
2626.762591	-3.001600	2.976100	-8.932400	27.871663	0.000266	20.768998
2627.769780	-3.006400	2.976200	-8.946900	27.871687	0.000267	20.779928
2628.764533	-3.001100	2.974200	-8.924100	27.880143	0.000266	20.796025
2629.763035	-2.976900	2.972700	-8.848900	27.913862	0.000268	20.771168
2630.762678	-2.991400	2.969700	-8.881700	27.915722	0.000268	20.781574
2631.769386	-2.971600	2.970000	-8.824700	27.903523	0.000268	20.780676
2632.765515	-2.986400	2.968600	-8.864900	27.934961	0.000268	20.768695
2633.762510	-2.995600	2.966700	-8.885600	27.970069	0.000266	20.770843
2634.773729	-2.988600	2.966000	-8.863200	27.955020	0.000268	20.760436
2635.770433	-3.008300	2.963900	-8.915100	27.924525	0.000267	20.780951
2636.766722	-3.000700	2.961500	-8.885700	27.901737	0.000267	20.766076
2637.763164	-3.021300	2.961800	-8.947300	27.885621	0.000267	20.790159
2638.768430	-2.995800	2.959300	-8.864300	27.933002	0.000267	20.768147
2639.769228	-2.990100	2.958300	-8.845200	27.938878	0.000265	20.780224
2640.767823	-2.999500	2.957500	-8.870600	27.949614	0.000267	20.789608
2641.768814	-2.990500	2.956900	-8.841000	27.970094	0.000267	20.763755
2642.764204	-3.000400	2.953500	-8.860600	27.933720	0.000267	20.770766
2643.768162	-3.000000	2.951900	-8.854500	27.963201	0.000265	20.774361
2644.767201	-3.008100	2.950600	-8.874300	27.966177	0.000267	20.799642
2645.770649	-3.014200	2.949000	-8.888500	27.956756	0.000267	20.802487
2646.769590	-3.001900	2.947400	-8.846700	27.967292	0.000266	20.780376
2647.773441	-3.000400	2.945500	-8.836200	28.002844	0.000266	20.797669
2648.770439	-3.017800	2.945000	-8.885800	28.022283	0.000267	20.785941
2649.774809	-3.000800	2.941900	-8.827400	28.046627	0.000266	20.780574
2650.770802	-3.001100	2.941400	-8.825500	28.010083	0.000266	20.783144
2651.772844	-2.983000	2.940300	-8.769800	27.993796	0.000265	20.798044
2652.779887	-3.021200	2.938200	-8.875900	28.018986	0.000267	20.793054
2653.769842	-3.011200	2.936600	-8.840800	28.028629	0.000267	20.799441
2654.773521	-3.005600	2.934200	-8.818000	28.039687	0.000268	20.784494
2655.774606	-2.987300	2.933800	-8.762800	28.052405	0.000266	20.796348
2656.773905	-3.019000	2.933000	-8.853700	28.062967	0.000266	20.797971
2657.772654	-3.013000	2.929900	-8.826700	28.061478	0.000267	20.804058
2658.774207	-2.990600	2.930900	-8.764000	28.064975	0.000266	20.796199
2659.771852	-2.999900	2.928700	-8.784400	28.080469	0.000266	20.793304
2660.779786	-3.022500	2.925400	-8.840000	28.101367	0.000269	20.803909
2661.779095	-3.003300	2.923600	-8.779000	28.072361	0.000266	20.808850
2662.775034	-3.006000	2.924000	-8.789300	28.071717	0.000266	20.793977
2663.776042	-2.992700	2.921500	-8.741400	28.093458	0.000267	20.804483
2664.776165	-3.001600	2.921400	-8.768100	28.075882	0.000265	20.789161
2665.777106	-3.003700	2.918300	-8.765100	28.058279	0.000266	20.811744
2666.777955	-3.017900	2.916100	-8.799200	28.011794	0.000265	20.805729
2667.783463	-2.988800	2.915000	-8.710600	27.990720	0.000266	20.820078
2668.788279	-2.989800	2.912100	-8.705200	28.035546	0.000264	20.785067
2669.774384	-2.998300	2.910300	-8.725600	28.100696	0.000265	20.808924
2670.782157	-3.023900	2.907300	-8.790400	28.116959	0.000264	20.808701
2671.778577	-2.981100	2.908600	-8.670000	28.180839	0.000268	20.812318
2672.778671	-2.996200	2.905300	-8.703800	28.169213	0.000264	20.828588
2673.777588	-2.999900	2.904700	-8.712800	28.202354	0.000265	20.803632
2674.780437	-3.018800	2.901900	-8.759200	28.202876	0.000265	20.804158
2675.776995	-3.021800	2.901400	-8.766500	28.212915	0.000264	20.824221
2676.779588	-3.007000	2.899100	-8.716500	28.176650	0.000266	20.786289
2677.779922	-3.024700	2.896600	-8.760700	28.171716	0.000263	20.805030
2678.779369	-3.001700	2.896100	-8.691200	28.144623	0.000265	20.815687
2679.779518	-3.018400	2.892800	-8.731000	28.164999	0.000265	20.812018
2680.781291	-3.003100	2.891300	-8.681500	28.173923	0.000266	20.822424
2681.782234	-3.004400	2.892300	-8.688100	28.184235	0.000265	20.837073
2682.781807	-3.017400	2.888700	-8.715200	28.199156	0.000268	20.809421
2683.781620	-2.993700	2.886000	-8.638800	28.230439	0.000264	20.815312
2684.778225	-2.991800	2.887200	-8.636800	28.234776	0.000264	20.835325
2685.781396	-2.982100	2.882900	-8.596300	28.263825	0.000264	20.820950
2686.783033	-3.033400	2.881100	-8.738400	28.279094	0.000266	20.806926
2687.781614	-2.927700	2.882900	-8.439100	28.282267	0.000265	20.827190
2688.779843	-2.979600	2.878900	-8.576700	28.259389	0.000265	20.816010
2689.787501	-3.002800	2.876800	-8.636700	28.224142	0.000264	20.794273
2690.784773	-2.993100	2.874000	-8.600900	28.235294	0.000267	20.803605
2691.783665	-2.991000	2.874300	-8.596100	28.234673	0.000265	20.811515
2692.793090	-2.988600	2.870400	-8.577400	28.245236	0.000265	20.818830
2693.781407	-3.016300	2.868200	-8.648100	28.276639	0.000265	20.824368
2694.786264	-2.985100	2.867800	-8.559900	28.305141	0.000262	20.820824
2695.787519	-3.009000	2.865400	-8.620900	28.298970	0.000265	20.821248
2696.787036	-2.995000	2.864200	-8.576200	28.291733	0.000265	20.803531
2697.785854	-3.033100	2.860300	-8.674500	28.286329	0.000266	20.827486
2698.787591	-2.994900	2.859600	-8.562800	28.292350	0.000266	20.830230
2699.791497	-3.007600	2.856700	-8.590600	28.224685	0.000266	20.809044
2700.792252	-3.034300	2.854300	-8.659800	28.186411	0.000266	20.849220
2701.783738	-3.012700	2.852700	-8.592300	28.191468	0.000267	20.837717
2702.789476	-3.020700	2.849400	-8.606700	28.231796	0.000265	20.819523
2703.793857	-3.001200	2.849100	-8.549900	28.258095	0.000265	20.848371
2704.783569	-2.999200	2.846400	-8.536200	28.270860	0.000265	20.829456
2705.786171	-2.983800	2.845800	-8.488700	28.280178	0.000263	20.826509
2706.784109	-3.001300	2.842500	-8.530100	28.271677	0.000266	20.827433
2707.784445	-2.984100	2.841100	-8.477200	28.321521	0.000266	20.837789
2708.787365	-2.970300	2.839700	-8.433400	28.347966	0.000264	20.822217
2709.784813	-2.993700	2.837300	-8.493100	28.398302	0.000265	20.857728
2710.784221	-2.982900	2.834200	-8.452200	28.408585	0.000263	20.833944
2711.787922	-2.989200	2.830900	-8.460800	28.417482	0.000264	20.832947
2712.789106	-2.982500	2.829400	-8.438000	28.369477	0.000267	20.835342
2713.788710	-2.978100	2.828500	-8.422300	28.307589	0.000264	20.837512
2714.792947	-2.994900	2.826400	-8.464000	28.267387	0.000265	20.848717
2715.788450	-2.986500	2.823100	-8.430300	28.202593	0.000264	20.839907
2716.790351	-3.020400	2.820300	-8.517500	28.192456	0.000265	20.847719
2717.791822	-3.003000	2.817600	-8.460200	28.257298	0.000265	20.827180
2718.790386	-2.992400	2.816600	-8.427300	28.302063	0.000265	20.847595
2719.791804	-2.997000	2.813100	-8.430400	28.337233	0.000264	20.843653
2720.798987	-3.001300	2.811800	-8.438500	28.365091	0.000265	20.874546
2721.790391	-2.999400	2.808500	-8.423200	28.410195	0.000266	20.843626
2722.789228	-2.991400	2.806500	-8.394300	28.422364	0.000266	20.835965
2723.790725	-3.015700	2.803500	-8.453200	28.444669	0.000265	20.864589
2724.792786	-3.025200	2.800000	-8.469700	28.429799	0.000265	20.850090
2725.795964	-3.024100	2.798500	-8.461700	28.443554	0.000266	20.846398
2726.791271	-3.026200	2.795500	-8.458800	28.447393	0.000264	20.843626
2727.790478	-3.030800	2.792200	-8.462000	28.500107	0.000263	20.854984
2728.790138	-3.011400	2.791000	-8.402800	28.484097	0.000263	20.866361
2729.787769	-3.019300	2.788900	-8.419200	28.518963	0.000266	20.861171
2730.791381	-3.003700	2.785700	-8.366100	28.492301	0.000265	20.861347
2731.792278	-2.963600	2.784000	-8.249400	28.456319	0.000263	20.861622
2732.793241	-2.990300	2.781500	-8.316500	28.443283	0.000265	20.851340
2733.794867	-2.985700	2.778100	-8.293100	28.388565	0.000264	20.877320
2734.792913	-2.998900	2.774600	-8.319400	28.301497	0.000263	20.873577
2735.789717	-2.980200	2.772300	-8.260700	28.293097	0.000265	20.852792
2736.789095	-3.019400	2.769600	-8.360800	28.306081	0.000265	20.859227
2737.793562	-2.996400	2.768900	-8.295500	28.346283	0.000265	20.857506
2738.793853	-3.008000	2.764200	-8.313900	28.403436	0.000264	20.868587
2739.792154	-3.016900	2.760300	-8.326600	28.427722	0.000264	20.877394
2740.797709	-3.007800	2.758500	-8.296100	28.450872	0.000265	20.872258
2741.795767	-3.031400	2.753400	-8.345300	28.500632	0.000264	20.882537
2742.795855	-3.045600	2.750300	-8.375400	28.498896	0.000265	20.868463
2743.798853	-3.012200	2.749400	-8.280800	28.509008	0.000265	20.879119
2744.811055	-3.007800	2.744500	-8.253900	28.460807	0.000264	20.876572
2745.795366	-2.988300	2.743800	-8.198500	28.461798	0.000266	20.874251
2746.799213	-2.981400	2.739200	-8.164900	28.479814	0.000266	20.875798
2747.797341	-2.986900	2.736700	-8.171900	28.473816	0.000265	20.882560
2748.801291	-2.991700	2.733900	-8.178100	28.429829	0.000264	20.869086
2749.800910	-3.021900	2.731100	-8.251500	28.417959	0.000266	20.868986
2750.795919	-3.011900	2.726100	-8.208600	28.410846	0.000265	20.866566
2751.797305	-2.993500	2.723500	-8.151800	28.452679	0.000264	20.860328
2752.801342	-3.011200	2.719900	-8.189400	28.479691	0.000267	20.873303
2753.799014	-2.995800	2.716700	-8.137300	28.529597	0.000266	20.876146
2754.799049	-2.979900	2.713700	-8.085600	28.526353	0.000263	20.875249
2755.799253	-2.994400	2.709700	-8.113300	28.561442	0.000265	20.859380
2756.800293	-2.978800	2.707300	-8.063600	28.553064	0.000267	20.867537
2757.801325	-2.972200	2.703900	-8.035100	28.553734	0.000268	20.863945
2758.800588	-3.006400	2.698700	-8.112300	28.522561	0.000265	20.890870
2759.804668	-2.989500	2.697100	-8.062100	28.545185	0.000266	20.862448
2760.804335	-2.987000	2.692300	-8.041100	28.516440	0.000266	20.870957
2761.804294	-2.996700	2.688200	-8.055200	28.585847	0.000265	20.848872
2762.805252	-3.015400	2.684800	-8.095100	28.636965	0.000268	20.871906
2763.802592	-2.981700	2.681700	-7.993800	28.641102	0.000266	20.886976
2764.808123	-2.950200	2.677700	-7.898100	28.673833	0.000263	20.866839
2765.814390	-2.986800	2.673900	-7.985900	28.682233	0.000264	20.870084
2766.806382	-3.006700	2.667300	-8.019100	28.720018	0.000266	20.859305
2767.806598	-3.002000	2.665000	-7.999400	28.752819	0.000264	20.852516
2768.808687	-2.997300	2.659700	-7.971100	28.710182	0.000264	20.851769
2769.811713	-2.986700	2.658400	-7.938500	28.670244	0.000266	20.877448
2770.808936	-2.967000	2.653900	-7.873500	28.615657	0.000264	20.857558
2771.809245	-2.998700	2.647600	-7.937700	28.560303	0.000265	20.848276
2772.808633	-3.002500	2.643700	-7.936800	28.526058	0.000266	20.843661
2773.807477	-2.983000	2.639900	-7.873900	28.523850	0.000267	20.857558
2774.810180	-3.001000	2.634100	-7.904100	28.591573	0.000265	20.848475
2775.810906	-3.017700	2.630400	-7.937200	28.579383	0.000266	20.849000
2776.811471	-3.001900	2.625500	-7.879400	28.616675	0.000266	20.865694
2777.811069	-2.985800	2.621500	-7.826400	28.673761	0.000266	20.844483
2778.809528	-2.982800	2.616500	-7.802800	28.730573	0.000264	20.844808
2779.814891	-2.992500	2.611200	-7.811800	28.776679	0.000265	20.847628
2780.816942	-2.982000	2.607100	-7.773200	28.820555	0.000267	20.822349
2781.811199	-3.001400	2.600400	-7.804200	28.850357	0.000266	20.865895
2782.814479	-2.998000	2.597200	-7.785400	28.912186	0.000266	20.842363
2783.810390	-3.027800	2.590200	-7.841500	28.934903	0.000267	20.845808
2784.811728	-3.037900	2.584800	-7.851100	28.918901	0.000264	20.847704
2785.810863	-3.043100	2.579600	-7.849000	28.953630	0.000266	20.837648
2786.811125	-3.016000	2.573600	-7.760500	28.963017	0.000265	20.835727
2787.813089	-3.015100	2.569200	-7.746000	28.932921	0.000266	20.840493
2788.821234	-2.985400	2.564900	-7.656000	28.977038	0.000266	20.838472
2789.815793	-3.003300	2.558800	-7.683700	28.959080	0.000265	20.838398
2790.813843	-3.010100	2.553000	-7.683600	28.971045	0.000267	20.847133
2791.816599	-3.009500	2.546900	-7.664200	28.999481	0.000266	20.833110
2792.815246	-2.999600	2.541700	-7.623000	28.985237	0.000265	20.838199
2793.818019	-3.025000	2.534500	-7.665500	28.948107	0.000266	20.848679
2794.819725	-2.989400	2.529600	-7.560900	28.904857	0.000266	20.842091
2795.821998	-3.006000	2.524300	-7.586900	28.861258	0.000264	20.825670
2796.819936	-2.998800	2.516700	-7.546500	28.813622	0.000266	20.816090
2797.818168	-2.992400	2.511400	-7.514100	28.830022	0.000266	20.820757
2798.822472	-3.019900	2.504100	-7.560500	28.867973	0.000265	20.838598
2799.818352	-3.000500	2.498800	-7.496500	28.891979	0.000265	20.827221
