LabVIEW Measurement	
Writer_Version	2
Reader_Version	2
Separator	Tab
Decimal_Separator	.
Multi_Headings	No
X_Columns	One
Time_Pref	Absolute
Operator	admin
Description	Clolumns are: time, Current, Voltage, Power, Battery Temp, and Chamber Temp
Date	2024/08/16
Time	13:06:06.104549407958984375
***End_of_Header***	
	
Channels	6						
Samples	1	1	1	1	1	1	
Date	2024/09/01	2024/09/01	2024/09/01	2024/09/01	2024/09/01	2024/09/01	
Time	08:02:51.4900527000427246094	08:02:51.4970545768737792969	08:02:51.5059885978698730469	08:02:51.4732494354248046875	08:02:51.4732494354248046875	08:02:51.4732494354248046875	
X_Dimension	Time	Time	Time	Time	Time	Time	
X0	0.0000000000000000E+0	0.0000000000000000E+0	0.0000000000000000E+0	0.0000000000000000E+0	0.0000000000000000E+0	0.0000000000000000E+0	
Delta_X	1.000000	1.000000	1.000000	1.000000	1.000000	1.000000	
***End_of_Header***							
X_Value	Untitled	Untitled 1	Untitled 2	Untitled 3	Untitled 4	Untitled 5	Comment
0.000000	0.007931	4.099700	0.032450	21.042736	0.000936	20.855944
0.999231	-2.987200	3.936400	-11.758000	21.039045	0.000937	20.856045
1.999968	-2.999800	3.926700	-11.779000	21.021752	0.000935	20.845862
2.999646	-2.996100	3.923300	-11.754000	21.036673	0.000935	20.858414
4.000126	-2.983400	3.920700	-11.696000	21.027416	0.000933	20.851052
5.001079	-2.995500	3.917100	-11.733000	21.035750	0.000934	20.856543
6.001155	-3.003200	3.913600	-11.752000	21.027516	0.000934	20.847833
7.000478	-3.005100	3.911900	-11.754000	21.037969	0.000931	20.854495
8.004038	-3.023400	3.908900	-11.817000	21.035224	0.000930	20.853647
9.000244	-2.997800	3.906800	-11.711000	21.049396	0.000932	20.875880
10.000705	-2.997600	3.906000	-11.708000	21.052115	0.000929	20.863902
11.003747	-3.013600	3.903100	-11.761000	21.053337	0.000929	20.847107
12.002473	-3.008500	3.902800	-11.741000	21.057154	0.000931	20.839072
13.001730	-2.979700	3.899900	-11.619000	21.039888	0.000929	20.842191
14.012974	-3.015700	3.898000	-11.754000	21.064464	0.000926	20.860607
15.001954	-2.992900	3.899500	-11.670000	21.069054	0.000928	20.833431
16.002610	-2.986500	3.897700	-11.639000	21.054559	0.000925	20.854019
17.003854	-2.997500	3.896300	-11.678000	21.064938	0.000927	20.846383
18.002163	-3.005300	3.894700	-11.703000	21.083000	0.000927	20.861130
19.002625	-2.986500	3.893600	-11.628000	21.069403	0.000924	20.845159
20.004445	-2.983300	3.894400	-11.617000	21.056305	0.000925	20.837748
21.006840	-3.006900	3.891600	-11.700000	21.081853	0.000922	20.862827
22.003510	-3.006600	3.891500	-11.699000	21.081080	0.000923	20.827442
23.002922	-2.994900	3.891500	-11.654000	21.070775	0.000922	20.825195
24.006488	-2.995900	3.891000	-11.657000	21.097972	0.000922	20.811148
25.003499	-3.004400	3.888900	-11.683000	21.091957	0.000920	20.845907
26.004332	-3.012300	3.889300	-11.715000	21.095849	0.000921	20.814714
27.005764	-3.010800	3.886900	-11.700000	21.097171	0.000920	20.837847
28.004896	-2.991300	3.886900	-11.626000	21.115531	0.000918	20.823022
29.005679	-2.989100	3.886900	-11.617000	21.108746	0.000919	20.824296
30.007719	-2.981700	3.886600	-11.587000	21.119624	0.000919	20.858409
31.005031	-2.989900	3.886100	-11.617000	21.113762	0.000919	20.848752
32.004775	-2.981600	3.886300	-11.586000	21.128979	0.000917	20.850697
33.006760	-2.994700	3.885300	-11.635000	21.141876	0.000919	20.850796
34.011074	-2.995500	3.883300	-11.631000	21.150358	0.000918	20.828462
35.005138	-2.975200	3.885400	-11.559000	21.151555	0.000919	20.848150
36.007807	-3.015300	3.880700	-11.700000	21.146965	0.000918	20.829335
37.006763	-3.021200	3.881300	-11.724000	21.159463	0.000917	20.835198
38.004415	-3.013400	3.879700	-11.691000	21.142049	0.000916	20.842434
39.009643	-3.005300	3.881900	-11.665000	21.164003	0.000915	20.855860
40.005969	-3.000900	3.880500	-11.644000	21.156817	0.000914	20.825913
41.007917	-2.996400	3.881700	-11.629000	21.171012	0.000916	20.822095
42.009082	-2.982200	3.880900	-11.572000	21.184632	0.000915	20.834297
43.008015	-2.990400	3.880000	-11.601000	21.193738	0.000915	20.830604
44.008022	-2.986200	3.879900	-11.584000	21.183259	0.000914	20.823915
45.008132	-2.999500	3.880000	-11.636000	21.199624	0.000911	20.835069
46.008502	-3.011300	3.878800	-11.680000	21.191168	0.000916	20.829456
47.009122	-3.040700	3.875600	-11.783000	21.216862	0.000915	20.841882
48.008944	-2.988200	3.879000	-11.589000	21.208780	0.000914	20.809141
49.009671	-3.001200	3.877300	-11.634000	21.234373	0.000912	20.813407
50.010820	-3.001600	3.876100	-11.634000	21.238364	0.000914	20.841106
51.010406	-3.008700	3.874900	-11.657000	21.238888	0.000913	20.822665
52.012496	-2.995900	3.876300	-11.612000	21.242604	0.000915	20.848667
53.009598	-2.983000	3.875300	-11.560000	21.247893	0.000912	20.831673
54.010775	-2.987700	3.875900	-11.579000	21.262086	0.000912	20.816948
55.013086	-2.997800	3.875300	-11.617000	21.266426	0.000914	20.835515
56.009536	-2.998900	3.875100	-11.620000	21.264505	0.000911	20.821740
57.010624	-3.006500	3.872600	-11.642000	21.280645	0.000912	20.817972
58.013095	-3.003000	3.873700	-11.632000	21.292543	0.000912	20.829400
59.011269	-3.008900	3.874000	-11.656000	21.277401	0.000911	20.820890
60.011419	-3.014700	3.873300	-11.675000	21.291994	0.000911	20.821739
61.013638	-3.007000	3.873200	-11.644000	21.303942	0.000911	20.820416
62.012656	-2.981200	3.872700	-11.544000	21.301646	0.000911	20.800102
63.012914	-2.992600	3.872500	-11.587000	21.326642	0.000910	20.804719
64.014415	-2.982100	3.873200	-11.550000	21.319209	0.000911	20.835689
65.012344	-3.003600	3.872200	-11.629000	21.324496	0.000913	20.822012
66.014491	-2.996000	3.871000	-11.596000	21.333973	0.000911	20.833865
67.014565	-2.994500	3.872300	-11.595000	21.364156	0.000910	20.807638
68.014454	-2.998000	3.871700	-11.605000	21.369245	0.000911	20.807514
69.014185	-2.991100	3.872200	-11.581000	21.351433	0.000911	20.821462
70.016345	-3.008300	3.869900	-11.640000	21.377973	0.000913	20.818617
71.011569	-2.993100	3.870300	-11.583000	21.368621	0.000912	20.814476
72.013125	-3.002700	3.869600	-11.618000	21.383112	0.000909	20.810483
73.016294	-3.004500	3.869300	-11.623000	21.374507	0.000909	20.808985
74.013984	-3.004900	3.868700	-11.624000	21.383610	0.000913	20.825205
75.012484	-2.997700	3.869300	-11.597000	21.393487	0.000912	20.814224
76.016252	-2.967300	3.869700	-11.482000	21.399174	0.000912	20.815173
77.015051	-2.998700	3.867900	-11.597000	21.395856	0.000913	20.799052
78.014529	-2.990900	3.869000	-11.570000	21.419975	0.000910	20.812278
79.018950	-3.027500	3.869100	-11.711000	21.428406	0.000914	20.823557
80.016596	-2.997700	3.867400	-11.592000	21.427409	0.000911	20.806439
81.016802	-2.985500	3.868400	-11.548000	21.427882	0.000912	20.793636
82.017722	-3.003400	3.868800	-11.618000	21.431100	0.000911	20.811555
83.021103	-3.006800	3.867400	-11.627000	21.433496	0.000910	20.823909
84.017162	-3.009800	3.868100	-11.641000	21.445942	0.000910	20.797482
85.020640	-2.997600	3.866100	-11.588000	21.447838	0.000910	20.811232
86.019352	-2.996000	3.867700	-11.587000	21.462278	0.000913	20.804344
87.018294	-3.010600	3.867300	-11.642000	21.468639	0.000910	20.808337
88.023011	-2.999800	3.867400	-11.600000	21.480711	0.000910	20.797183
89.019687	-2.981200	3.866300	-11.524000	21.461083	0.000912	20.802200
90.017681	-3.001600	3.865500	-11.602000	21.455346	0.000911	20.800727
91.021030	-2.987100	3.866100	-11.548000	21.490265	0.000913	20.800104
92.020126	-2.982600	3.865400	-11.528000	21.486846	0.000912	20.798106
93.020141	-3.004100	3.865200	-11.611000	21.510339	0.000912	20.806915
94.022815	-3.007400	3.865500	-11.624000	21.504205	0.000912	20.792717
95.021408	-2.997400	3.863500	-11.579000	21.533736	0.000912	20.812308
96.022442	-3.005500	3.864300	-11.613000	21.502061	0.000909	20.811434
97.022988	-2.991500	3.863800	-11.558000	21.497872	0.000910	20.809612
98.022043	-3.008200	3.864100	-11.623000	21.497673	0.000912	20.774326
99.019739	-3.012500	3.863300	-11.637000	21.504032	0.000911	20.804397
100.025398	-3.022500	3.862500	-11.674000	21.518223	0.000911	20.810061
101.021626	-3.000200	3.863200	-11.588000	21.494705	0.000911	20.797909
102.019359	-2.981200	3.863100	-11.516000	21.534058	0.000912	20.801251
103.022414	-2.992700	3.862700	-11.559000	21.524458	0.000910	20.793541
104.021367	-2.988300	3.861600	-11.538000	21.535431	0.000913	20.796461
105.020117	-2.983600	3.864200	-11.527000	21.560045	0.000910	20.785529
106.020266	-3.033000	3.861900	-11.712000	21.553486	0.000911	20.811209
107.022095	-2.994100	3.863100	-11.566000	21.567501	0.000911	20.779714
108.021354	-3.001300	3.862100	-11.590000	21.571865	0.000911	20.786451
109.022744	-3.011600	3.861700	-11.628000	21.580742	0.000912	20.801499
110.024189	-2.990900	3.862100	-11.549000	21.580642	0.000910	20.774846
111.025126	-2.996900	3.861400	-11.570000	21.579294	0.000912	20.778713
112.023304	-2.984100	3.860700	-11.520000	21.595903	0.000913	20.788695
113.024088	-3.007500	3.859900	-11.607000	21.597101	0.000915	20.777092
114.024518	-3.001600	3.859500	-11.584000	21.604905	0.000914	20.804815
115.025029	-2.993400	3.858800	-11.549000	21.599319	0.000914	20.761293
116.024882	-3.016500	3.859600	-11.641000	21.621288	0.000913	20.797503
117.025855	-3.002300	3.859600	-11.586000	21.622061	0.000915	20.780258
118.026314	-2.991300	3.858700	-11.541000	21.619517	0.000914	20.786247
119.025910	-2.990300	3.859600	-11.539000	21.652310	0.000916	20.781605
120.026237	-2.997200	3.859400	-11.567000	21.653204	0.000914	20.799096
121.026817	-3.013400	3.858100	-11.625000	21.676646	0.000914	20.786519
122.027084	-2.990900	3.858900	-11.541000	21.664352	0.000913	20.777061
123.026509	-2.988000	3.857300	-11.525000	21.674402	0.000916	20.781429
124.028722	-3.010500	3.857200	-11.611000	21.698512	0.000915	20.796549
125.027341	-2.979700	3.858800	-11.497000	21.696492	0.000912	20.780777
126.027122	-2.996200	3.857700	-11.556000	21.676768	0.000915	20.780952
127.029618	-2.983800	3.857200	-11.508000	21.702027	0.000914	20.791058
128.035551	-2.988500	3.857800	-11.528000	21.688288	0.000916	20.767350
129.027054	-2.996200	3.858200	-11.559000	21.689633	0.000916	20.766799
130.028749	-2.989800	3.855300	-11.525000	21.680631	0.000917	20.778653
131.028454	-2.981800	3.857900	-11.502000	21.698584	0.000916	20.773862
132.031418	-2.981700	3.858100	-11.503000	21.710254	0.000916	20.783170
133.029572	-2.999200	3.855900	-11.564000	21.717834	0.000919	20.769419
134.030155	-2.999300	3.857000	-11.567000	21.717084	0.000917	20.775781
135.033079	-3.000200	3.856400	-11.569000	21.733467	0.000917	20.782694
136.032328	-3.026800	3.854500	-11.665000	21.749773	0.000917	20.772460
137.032506	-3.004900	3.856200	-11.585000	21.741146	0.000918	20.768094
138.032048	-3.018300	3.855300	-11.635000	21.756105	0.000917	20.766470
139.033380	-2.994400	3.856800	-11.548000	21.779044	0.000918	20.774730
140.032447	-2.996800	3.854900	-11.552000	21.774683	0.000919	20.760407
141.033111	-3.004200	3.854400	-11.578000	21.769344	0.000919	20.750322
142.033114	-3.000600	3.855000	-11.566000	21.787869	0.000919	20.754638
143.034188	-3.023200	3.854000	-11.651000	21.785127	0.000922	20.763747
144.033186	-3.000200	3.853800	-11.560000	21.794077	0.000917	20.757532
145.036103	-3.007100	3.852600	-11.583000	21.829258	0.000920	20.742483
146.035074	-3.000900	3.854100	-11.565000	21.817514	0.000919	20.763920
147.033779	-3.004700	3.853800	-11.579000	21.851821	0.000919	20.752739
148.036164	-3.002300	3.853300	-11.567000	21.856083	0.000922	20.747996
149.035923	-3.005400	3.852300	-11.577000	21.866130	0.000923	20.750465
150.036788	-3.014900	3.852500	-11.614000	21.852018	0.000922	20.763842
151.037015	-3.000400	3.850900	-11.554000	21.893130	0.000921	20.748093
152.035302	-2.989000	3.853300	-11.517000	21.879867	0.000921	20.741930
153.037644	-2.985000	3.853800	-11.501000	21.874158	0.000924	20.750440
154.042289	-2.980000	3.853600	-11.483000	21.919929	0.000923	20.746943
155.038674	-2.981600	3.851300	-11.482000	21.915342	0.000924	20.754680
156.038206	-2.985200	3.853100	-11.502000	21.895272	0.000924	20.765885
157.041998	-2.984500	3.852100	-11.496000	21.899686	0.000924	20.766511
158.040001	-2.973300	3.850400	-11.447000	21.922721	0.000924	20.759696
159.043648	-2.993100	3.850300	-11.524000	21.921325	0.000925	20.767308
160.039293	-3.004800	3.851700	-11.574000	21.959045	0.000924	20.751011
161.043562	-2.994100	3.850700	-11.528000	21.939100	0.000928	20.736735
162.040507	-2.997600	3.850400	-11.541000	21.949171	0.000924	20.751559
163.038770	-2.989200	3.851000	-11.510000	21.949994	0.000923	20.746692
164.042566	-3.001700	3.849500	-11.554000	21.954032	0.000925	20.750260
165.039477	-2.990900	3.850100	-11.515000	21.946602	0.000926	20.749935
166.039919	-2.980300	3.850000	-11.473000	21.957646	0.000922	20.745817
167.041943	-3.024400	3.847600	-11.636000	21.962782	0.000927	20.739104
168.039451	-2.981800	3.850000	-11.478000	21.989804	0.000929	20.747663
169.040593	-3.010200	3.848300	-11.583000	21.996834	0.000925	20.745217
170.041415	-3.011300	3.848600	-11.587000	21.998305	0.000929	20.743370
171.040150	-3.001300	3.848600	-11.550000	21.995240	0.000929	20.759742
172.040679	-2.982500	3.849300	-11.480000	22.008176	0.000929	20.745190
173.046694	-2.994100	3.847700	-11.517000	22.008152	0.000932	20.732364
174.040327	-2.999700	3.846900	-11.538000	22.021113	0.000932	20.748184
175.040917	-3.014800	3.847000	-11.596000	22.037492	0.000930	20.742295
176.042516	-3.011500	3.847800	-11.586000	22.041655	0.000930	20.740773
177.042545	-2.994800	3.847100	-11.520000	22.016899	0.000931	20.740172
178.042057	-3.006300	3.845900	-11.559000	22.017173	0.000931	20.740446
179.045737	-3.006400	3.846500	-11.563000	22.024726	0.000935	20.738524
180.042792	-3.003900	3.845100	-11.549000	22.046739	0.000935	20.736379
181.042905	-3.010700	3.846700	-11.581000	22.033078	0.000931	20.731238
182.045853	-3.011700	3.844700	-11.578000	22.023977	0.000932	20.740620
183.043295	-3.018500	3.843800	-11.601000	22.030335	0.000935	20.733707
184.043568	-2.999300	3.845900	-11.535000	22.045193	0.000934	20.750479
185.048223	-3.002300	3.844500	-11.541000	22.068300	0.000932	20.732359
186.044495	-2.988400	3.844600	-11.488000	22.065208	0.000931	20.746334
187.045242	-2.991000	3.845200	-11.500000	22.061344	0.000934	20.740569
188.046520	-2.986900	3.845200	-11.483000	22.081410	0.000934	20.752597
189.047419	-3.014500	3.844400	-11.587000	22.098237	0.000936	20.723448
190.049299	-3.004000	3.843000	-11.544000	22.113567	0.000934	20.738797
191.049512	-2.982800	3.845300	-11.468000	22.108033	0.000935	20.731359
192.048663	-2.981500	3.844600	-11.461000	22.117805	0.000936	20.720753
193.051037	-2.980200	3.844700	-11.457000	22.130741	0.000936	20.721850
194.050429	-2.982600	3.844700	-11.467000	22.142207	0.000938	20.723847
195.048501	-2.974400	3.844900	-11.436000	22.134231	0.000936	20.726767
196.050570	-2.998200	3.843400	-11.522000	22.143877	0.000937	20.728364
197.049365	-3.001600	3.843100	-11.535000	22.149760	0.000940	20.745634
198.047995	-2.988100	3.843800	-11.485000	22.159432	0.000938	20.725445
199.047781	-3.042100	3.841700	-11.686000	22.140363	0.000939	20.718681
200.051417	-3.005000	3.841800	-11.543000	22.161450	0.000940	20.741217
201.048941	-3.007000	3.841300	-11.550000	22.147018	0.000940	20.743838
202.049677	-3.008100	3.841600	-11.555000	22.149436	0.000940	20.731085
203.052111	-3.002700	3.841900	-11.536000	22.157836	0.000941	20.721951
204.050274	-3.007000	3.840300	-11.547000	22.145672	0.000941	20.747706
205.051677	-2.995600	3.840400	-11.503000	22.151156	0.000941	20.729962
206.052935	-3.003000	3.840700	-11.534000	22.159855	0.000942	20.730137
207.049226	-2.999000	3.841100	-11.517000	22.154471	0.000944	20.730436
208.050966	-2.983000	3.841400	-11.459000	22.184133	0.000942	20.725994
209.053220	-2.996200	3.841900	-11.509000	22.180743	0.000943	20.717384
210.050463	-3.014100	3.839800	-11.572000	22.184033	0.000946	20.716410
211.050438	-3.008500	3.839900	-11.551000	22.190613	0.000945	20.737699
212.054420	-3.004400	3.838100	-11.529000	22.162672	0.000944	20.752398
213.050686	-3.002800	3.839800	-11.528000	22.184507	0.000945	20.740594
214.048786	-3.007100	3.839300	-11.544000	22.198340	0.000947	20.731210
215.055845	-2.991300	3.840400	-11.487000	22.201755	0.000945	20.735578
216.050661	-2.990000	3.838400	-11.476000	22.196072	0.000948	20.754071
217.049815	-3.005100	3.837600	-11.531000	22.190887	0.000945	20.746034
218.052233	-2.995800	3.839100	-11.500000	22.218903	0.000947	20.739944
219.050404	-3.010300	3.837100	-11.550000	22.219276	0.000947	20.743163
220.050487	-2.985000	3.838500	-11.457000	22.224410	0.000949	20.743088
221.052609	-3.002800	3.836800	-11.520000	22.236175	0.000949	20.722149
222.050371	-2.993700	3.837300	-11.487000	22.227924	0.000950	20.743287
223.052020	-2.989500	3.837600	-11.472000	22.199859	0.000947	20.739369
224.052954	-2.999700	3.836800	-11.509000	22.188765	0.000949	20.725416
225.051437	-2.999600	3.836900	-11.508000	22.215235	0.000953	20.735324
226.053726	-3.006300	3.836500	-11.533000	22.224630	0.000951	20.724816
227.055034	-3.016600	3.834800	-11.565000	22.220666	0.000951	20.734123
228.054704	-3.013200	3.836300	-11.558000	22.245864	0.000952	20.718101
229.053222	-3.001700	3.835400	-11.512000	22.270538	0.000955	20.722891
230.059118	-2.989200	3.837000	-11.468000	22.274001	0.000955	20.735843
231.054744	-3.009800	3.836200	-11.545000	22.290799	0.000955	20.739386
232.054623	-3.002600	3.834500	-11.512000	22.295659	0.000954	20.738563
233.057882	-3.004800	3.834400	-11.519000	22.304755	0.000954	20.748620
234.054600	-3.017400	3.832600	-11.564000	22.306224	0.000956	20.733495
235.055320	-3.015100	3.834600	-11.561000	22.316841	0.000955	20.737013
236.058145	-2.988300	3.835000	-11.459000	22.339395	0.000958	20.738261
237.056234	-3.013300	3.832400	-11.545000	22.329550	0.000958	20.744050
238.056055	-3.033300	3.832600	-11.624000	22.339992	0.000956	20.740281
239.058568	-2.990600	3.835200	-11.468000	22.346795	0.000959	20.750887
240.056732	-3.009200	3.832200	-11.530000	22.359604	0.000958	20.741901
241.057927	-2.984100	3.833700	-11.440000	22.356912	0.000959	20.731145
242.058385	-2.996900	3.832700	-11.485000	22.371216	0.000959	20.731719
243.058025	-2.993400	3.833000	-11.473000	22.378592	0.000962	20.735786
244.058270	-3.003600	3.831900	-11.508000	22.395440	0.000962	20.737484
245.065395	-2.989900	3.833200	-11.459000	22.408670	0.000960	20.756423
246.058242	-2.980000	3.833600	-11.423000	22.408570	0.000963	20.741150
247.058180	-3.010900	3.832200	-11.537000	22.425717	0.000964	20.743622
248.061748	-3.003900	3.832400	-11.511000	22.457888	0.000963	20.733165
249.058823	-2.999900	3.830400	-11.489000	22.468554	0.000963	20.753330
250.058314	-3.018000	3.831000	-11.561000	22.453203	0.000964	20.714722
251.061999	-2.987200	3.831500	-11.444000	22.479443	0.000964	20.749063
252.060533	-3.007500	3.829900	-11.518000	22.457588	0.000965	20.722433
253.058131	-3.011400	3.830500	-11.534000	22.461527	0.000966	20.741077
254.062800	-2.999300	3.830900	-11.490000	22.460405	0.000966	20.731892
255.061139	-2.986600	3.829500	-11.436000	22.453029	0.000965	20.735886
256.061712	-3.002000	3.829400	-11.494000	22.437380	0.000966	20.758621
257.063983	-2.991300	3.830600	-11.458000	22.422877	0.000968	20.764961
258.062422	-3.008600	3.829900	-11.521000	22.454053	0.000966	20.765361
259.063198	-2.978800	3.829700	-11.407000	22.454551	0.000965	20.749738
260.065617	-2.997800	3.829800	-11.480000	22.482510	0.000970	20.763514
261.063179	-2.998500	3.830600	-11.484000	22.483931	0.000968	20.760195
262.063591	-3.013500	3.829300	-11.538000	22.510219	0.000969	20.746219
263.064351	-2.978000	3.827900	-11.399000	22.486995	0.000971	20.715846
264.068148	-3.023700	3.827200	-11.571000	22.512986	0.000969	20.754206
265.065156	-2.996100	3.826800	-11.465000	22.526616	0.000970	20.739407
266.067319	-2.993200	3.827700	-11.455000	22.525544	0.000970	20.751610
267.066980	-3.014500	3.827300	-11.536000	22.522430	0.000971	20.759397
268.067325	-2.986900	3.826000	-11.426000	22.532646	0.000972	20.740704
269.070791	-2.976800	3.827400	-11.391000	22.556392	0.000973	20.729399
270.070384	-3.012100	3.826500	-11.525000	22.573386	0.000972	20.771551
271.069907	-2.995500	3.827500	-11.464000	22.551709	0.000970	20.735140
272.068120	-2.997200	3.826700	-11.468000	22.566210	0.000974	20.753458
273.072642	-2.981500	3.826400	-11.407000	22.586194	0.000974	20.767309
274.070963	-2.982100	3.826600	-11.410000	22.594092	0.000976	20.755305
275.074651	-3.009100	3.825500	-11.510000	22.607497	0.000976	20.762093
276.071832	-3.001500	3.825600	-11.482000	22.609142	0.000975	20.758051
277.070977	-2.983900	3.826300	-11.415000	22.595015	0.000974	20.762393
278.072139	-3.010200	3.824100	-11.510000	22.599674	0.000977	20.761370
279.078637	-2.977300	3.825100	-11.386000	22.621825	0.000976	20.746098
280.072031	-2.997700	3.825900	-11.466000	22.586643	0.000978	20.757328
281.074368	-2.984300	3.825900	-11.416000	22.571768	0.000976	20.760447
282.078025	-2.992600	3.823300	-11.440000	22.614974	0.000978	20.766263
283.073531	-2.981600	3.825700	-11.405000	22.607598	0.000979	20.760772
284.077861	-2.993800	3.822100	-11.441000	22.618411	0.000979	20.772551
285.076755	-2.996900	3.822000	-11.454000	22.613902	0.000980	20.793639
286.073565	-3.008600	3.822300	-11.498000	22.621899	0.000980	20.781260
287.076264	-2.994500	3.823700	-11.449000	22.638767	0.000980	20.758326
288.078171	-3.007600	3.822500	-11.496000	22.663185	0.000979	20.781361
289.073832	-2.979900	3.822400	-11.389000	22.681821	0.000981	20.745025
290.077147	-3.009600	3.822600	-11.503000	22.700258	0.000984	20.770131
291.077840	-3.009300	3.821100	-11.498000	22.663011	0.000981	20.785455
292.077786	-2.984800	3.821200	-11.404000	22.688748	0.000984	20.778517
293.079007	-2.994900	3.821900	-11.445000	22.682370	0.000982	20.783982
294.079464	-3.002100	3.821200	-11.471000	22.687926	0.000985	20.779117
295.075826	-3.001300	3.821400	-11.468000	22.700460	0.000982	20.779343
296.079770	-3.008900	3.821000	-11.496000	22.718447	0.000982	20.767013
297.083622	-2.999600	3.819800	-11.458000	22.744181	0.000983	20.763394
298.078973	-3.003400	3.820300	-11.473000	22.730082	0.000983	20.791945
299.083373	-3.001500	3.819700	-11.464000	22.722059	0.000986	20.772528
300.084144	-3.009500	3.819300	-11.493000	22.720938	0.000985	20.786579
301.079995	-2.997700	3.819300	-11.447000	22.746972	0.000987	20.810761
302.084787	-2.999200	3.818800	-11.452000	22.735787	0.000986	20.780590
303.081414	-3.001200	3.819000	-11.460000	22.728138	0.000986	20.771032
304.080105	-2.992800	3.818300	-11.426000	22.763689	0.000987	20.766340
305.082370	-2.998900	3.817500	-11.447000	22.764561	0.000989	20.773378
306.082489	-2.992900	3.818300	-11.426000	22.756714	0.000988	20.784009
307.079945	-2.998400	3.818500	-11.448000	22.779459	0.000992	20.784509
308.082095	-2.993100	3.818600	-11.428000	22.791267	0.000987	20.778320
309.087421	-3.000900	3.817500	-11.455000	22.743286	0.000990	20.777670
310.080130	-3.008100	3.816700	-11.480000	22.770117	0.000991	20.799333
311.080307	-2.998200	3.817100	-11.442000	22.764014	0.000990	20.767140
312.081435	-2.990400	3.816600	-11.412000	22.763441	0.000992	20.792170
313.079105	-3.029800	3.816000	-11.560000	22.785887	0.000992	20.791896
314.080530	-3.010300	3.816300	-11.487000	22.797795	0.000992	20.797187
315.082810	-3.013500	3.816100	-11.497000	22.814361	0.000994	20.802403
316.079752	-2.994500	3.816100	-11.427000	22.797346	0.000992	20.773029
317.081284	-3.016200	3.815400	-11.507000	22.802180	0.000995	20.794941
318.081899	-3.017100	3.815700	-11.510000	22.791792	0.000994	20.786906
319.079679	-2.980300	3.816400	-11.373000	22.806315	0.000995	20.791971
320.083951	-2.970600	3.817100	-11.339000	22.789177	0.000995	20.796614
321.082004	-3.012800	3.813600	-11.489000	22.806316	0.000994	20.773006
322.079650	-2.987100	3.814500	-11.392000	22.806690	0.000998	20.805623
323.082236	-2.993300	3.815200	-11.420000	22.818573	0.000998	20.777698
324.082257	-3.008000	3.813600	-11.470000	22.821786	0.000998	20.796564
325.080799	-2.996800	3.813600	-11.428000	22.829410	0.000999	20.782865
326.082802	-3.022800	3.813300	-11.526000	22.821861	0.000998	20.782414
327.081067	-2.990400	3.813700	-11.402000	22.809306	0.000995	20.795916
328.082479	-2.995300	3.813700	-11.422000	22.805819	0.000999	20.786259
329.085770	-2.995700	3.813300	-11.422000	22.826969	0.000999	20.809342
330.083510	-2.987400	3.812300	-11.387000	22.870015	0.000999	20.812163
331.083500	-2.981600	3.814100	-11.371000	22.871610	0.001002	20.800485
332.082273	-2.994200	3.811200	-11.411000	22.871709	0.000999	20.796316
333.082303	-2.963900	3.813000	-11.300000	22.879557	0.001000	20.814610
334.083920	-3.017100	3.811100	-11.497000	22.895148	0.001001	20.799410
335.083924	-3.021100	3.810100	-11.510000	22.923646	0.001001	20.813736
336.083920	-3.019100	3.809400	-11.500000	22.915974	0.001002	20.796092
337.082923	-3.012600	3.809900	-11.476000	22.916622	0.001006	20.811914
338.083920	-2.995100	3.810100	-11.411000	22.923721	0.001000	20.805750
339.083924	-2.989600	3.809600	-11.388000	22.911739	0.001003	20.788531
340.083922	-3.003100	3.810600	-11.443000	22.921180	0.001004	20.810791
341.089920	-3.019200	3.809800	-11.501000	22.910868	0.001003	20.792399
342.083926	-3.002400	3.808700	-11.434000	22.928677	0.001005	20.806923
343.084920	-2.990100	3.810300	-11.392000	22.948056	0.001004	20.810217
344.085919	-3.016300	3.807600	-11.483000	22.935153	0.001006	20.790651
345.084920	-2.995700	3.808500	-11.407000	22.936549	0.001005	20.808171
346.084922	-3.012300	3.807400	-11.468000	22.941929	0.001007	20.814983
347.084920	-2.985700	3.808400	-11.370000	22.948131	0.001004	20.815507
348.085920	-2.989400	3.806700	-11.379000	22.946811	0.001008	20.816082
349.086920	-2.998000	3.808000	-11.415000	22.966638	0.001009	20.807023
350.085919	-3.002500	3.807800	-11.431000	22.958294	0.001007	20.809569
351.087919	-2.986300	3.808100	-11.371000	22.951793	0.001008	20.801633
352.087923	-3.001000	3.806000	-11.421000	22.960860	0.001010	20.846752
353.086920	-2.980300	3.807700	-11.346000	22.968806	0.001010	20.827686
354.086918	-2.998900	3.806600	-11.415000	22.995084	0.001010	20.811816
355.089919	-2.991700	3.807000	-11.387000	23.001759	0.001013	20.825142
356.102921	-3.014300	3.805600	-11.470000	23.013390	0.001012	20.833476
357.088929	-3.003100	3.805900	-11.428000	23.011548	0.001010	20.829734
358.089921	-2.993800	3.805900	-11.393000	22.992793	0.001013	20.829908
359.088436	-2.987900	3.805500	-11.370000	22.982829	0.001012	20.825616
360.088434	-2.990600	3.806100	-11.382000	22.980988	0.001014	20.808124
361.088435	-3.023000	3.804100	-11.498000	23.002159	0.001013	20.823171
362.088434	-3.008800	3.803900	-11.444000	23.008908	0.001013	20.814760
363.088435	-2.994200	3.803700	-11.388000	23.021736	0.001013	20.816708
364.089437	-2.981100	3.805300	-11.343000	23.016979	0.001015	20.810519
365.096435	-2.998500	3.803800	-11.405000	23.018672	0.001015	20.834501
366.090434	-2.991200	3.803500	-11.377000	23.017827	0.001016	20.826067
367.089434	-2.994800	3.805100	-11.395000	23.028361	0.001015	20.843734
368.090435	-3.003400	3.802900	-11.420000	23.051997	0.001015	20.831856
369.097435	-3.001900	3.802800	-11.415000	23.047763	0.001015	20.821924
370.090435	-3.004400	3.802200	-11.422000	23.053318	0.001016	20.854041
371.094434	-3.000900	3.802500	-11.409000	23.062085	0.001017	20.845282
372.092958	-2.981900	3.802300	-11.336000	23.089879	0.001017	20.813389
373.093960	-2.996400	3.801100	-11.388000	23.087066	0.001017	20.833804
374.095959	-2.999000	3.800300	-11.396000	23.097974	0.001018	20.827665
375.093959	-3.002500	3.800700	-11.410000	23.111349	0.001018	20.843911
376.092958	-2.992800	3.801300	-11.376000	23.103428	0.001019	20.853043
377.095957	-2.999000	3.800900	-11.397000	23.137599	0.001019	20.847929
378.092957	-2.984300	3.802500	-11.346000	23.127985	0.001021	20.831184
379.094974	-3.002300	3.799800	-11.407000	23.129679	0.001021	20.833830
380.096959	-3.012400	3.800500	-11.447000	23.144224	0.001022	20.836551
381.093958	-3.013300	3.798800	-11.446000	23.124551	0.001021	20.833906
382.093963	-3.008300	3.798300	-11.425000	23.134239	0.001021	20.838873
383.093242	-3.009100	3.798400	-11.429000	23.156677	0.001022	20.856615
384.093255	-3.026200	3.797500	-11.491000	23.136605	0.001021	20.845037
385.093118	-3.000500	3.799700	-11.399000	23.121040	0.001023	20.839871
386.096997	-2.998900	3.797900	-11.388000	23.111526	0.001021	20.843140
387.094368	-2.978100	3.798900	-11.313000	23.106895	0.001024	20.846560
388.096306	-2.993600	3.799400	-11.373000	23.129658	0.001024	20.843766
389.099712	-2.994700	3.798400	-11.373000	23.151598	0.001021	20.852000
390.096379	-3.012400	3.797200	-11.438000	23.149880	0.001024	20.856916
391.097061	-2.981400	3.797300	-11.320000	23.147464	0.001021	20.834582
392.098518	-2.984800	3.796800	-11.331000	23.174486	0.001024	20.845064
393.096751	-2.985700	3.796500	-11.334000	23.156406	0.001025	20.863929
394.096941	-3.005200	3.796500	-11.407000	23.153292	0.001024	20.841370
395.097950	-2.995900	3.796600	-11.372000	23.172570	0.001025	20.860213
396.096743	-3.002000	3.797400	-11.398000	23.167938	0.001025	20.860787
397.097322	-2.990500	3.797500	-11.355000	23.173691	0.001027	20.858965
398.100371	-2.995000	3.796300	-11.369000	23.174837	0.001027	20.850631
399.097785	-3.010900	3.794700	-11.425000	23.133647	0.001026	20.845866
400.097999	-3.030100	3.793100	-11.491000	23.147393	0.001028	20.842571
401.103401	-3.005800	3.794800	-11.405000	23.163059	0.001028	20.871070
402.098010	-2.995900	3.793000	-11.362000	23.141891	0.001028	20.879255
403.098339	-3.009200	3.793300	-11.413000	23.131506	0.001028	20.853678
404.101283	-3.004300	3.792800	-11.393000	23.142664	0.001028	20.853479
405.098766	-3.016400	3.793400	-11.442000	23.162437	0.001029	20.871870
406.098109	-2.973600	3.794200	-11.281000	23.177008	0.001030	20.875091
407.101686	-3.007000	3.792700	-11.403000	23.178601	0.001030	20.879058
408.096307	-2.981900	3.792400	-11.308000	23.163984	0.001028	20.856825
409.098172	-2.995900	3.793300	-11.363000	23.164707	0.001031	20.882204
410.105205	-2.998900	3.791300	-11.369000	23.166675	0.001029	20.896977
411.100761	-3.033500	3.789900	-11.495000	23.177359	0.001031	20.865486
412.097867	-2.994900	3.790200	-11.350000	23.217304	0.001032	20.868531
413.101803	-3.000100	3.791100	-11.372000	23.201740	0.001031	20.866210
414.098557	-2.997800	3.791400	-11.364000	23.224004	0.001033	20.884727
415.100344	-2.976400	3.790100	-11.280000	23.243005	0.001032	20.884328
416.101565	-2.995800	3.790400	-11.354000	23.263897	0.001031	20.875869
417.100243	-2.989200	3.789900	-11.328000	23.256676	0.001032	20.896131
418.101315	-3.028100	3.789100	-11.472000	23.280309	0.001035	20.866239
419.100421	-3.009200	3.788900	-11.401000	23.287978	0.001033	20.881510
420.101261	-2.995500	3.789800	-11.351000	23.325529	0.001033	20.873152
421.100620	-3.004500	3.788600	-11.382000	23.305011	0.001033	20.900002
422.101749	-2.987100	3.789600	-11.319000	23.336882	0.001034	20.869832
423.101167	-2.981100	3.788200	-11.292000	23.363800	0.001034	20.885904
424.103713	-2.994200	3.789600	-11.346000	23.359344	0.001036	20.890920
425.101400	-2.971400	3.788700	-11.256000	23.361959	0.001035	20.893541
426.102256	-2.996700	3.789000	-11.353000	23.334620	0.001036	20.899804
427.105720	-2.975600	3.788800	-11.272000	23.365867	0.001036	20.887501
428.102094	-3.006900	3.785900	-11.383000	23.363778	0.001037	20.880192
429.102782	-3.005300	3.787400	-11.381000	23.388253	0.001035	20.880067
430.102862	-2.996400	3.787800	-11.349000	23.382527	0.001036	20.888078
431.104618	-2.989900	3.786100	-11.319000	23.349536	0.001037	20.898634
432.104071	-3.005300	3.786600	-11.379000	23.386612	0.001036	20.891223
433.106160	-3.016300	3.784100	-11.412000	23.412332	0.001038	20.899458
434.108512	-3.000400	3.783600	-11.351000	23.426948	0.001038	20.880919
435.106692	-3.001900	3.784100	-11.359000	23.403818	0.001037	20.889029
436.109123	-2.986600	3.784800	-11.301000	23.399712	0.001037	20.892499
437.107327	-3.013200	3.783500	-11.399000	23.422867	0.001038	20.887733
438.109199	-3.013400	3.783100	-11.399000	23.421100	0.001038	20.910141
439.109093	-3.001900	3.783800	-11.358000	23.427998	0.001039	20.924167
440.113101	-2.975700	3.783700	-11.258000	23.413558	0.001037	20.885989
441.111594	-2.986500	3.784200	-11.300000	23.406512	0.001040	20.896944
442.110688	-2.989400	3.783400	-11.308000	23.420681	0.001039	20.903558
443.113278	-2.992500	3.782500	-11.318000	23.440450	0.001039	20.915312
444.109707	-2.999600	3.782300	-11.344000	23.382612	0.001039	20.902860
445.110427	-3.014700	3.782000	-11.400000	23.384406	0.001040	20.907977
446.112166	-3.012100	3.781100	-11.387000	23.382961	0.001042	20.914115
447.111143	-2.992200	3.780900	-11.313000	23.396708	0.001038	20.916039
448.111450	-3.007100	3.780200	-11.367000	23.400541	0.001040	20.914666
449.114614	-2.992600	3.781700	-11.316000	23.419565	0.001043	20.904337
450.119230	-2.994300	3.779800	-11.317000	23.406594	0.001042	20.912672
451.112220	-2.972800	3.780500	-11.238000	23.420511	0.001042	20.911922
452.116078	-2.987000	3.779500	-11.289000	23.442073	0.001042	20.906508
453.111851	-3.001900	3.779400	-11.344000	23.448050	0.001043	20.933358
454.110998	-3.009900	3.779300	-11.374000	23.465627	0.001041	20.921581
455.115498	-2.996200	3.779000	-11.322000	23.448274	0.001043	20.917938
456.113608	-3.011500	3.778800	-11.380000	23.454624	0.001044	20.924776
457.112494	-2.987100	3.779200	-11.287000	23.455297	0.001042	20.923554
458.116755	-3.002900	3.777700	-11.343000	23.467447	0.001044	20.941421
459.113211	-2.994800	3.778400	-11.314000	23.463140	0.001044	20.924777
460.112826	-2.997100	3.777100	-11.319000	23.456990	0.001043	20.928096
461.118196	-3.003500	3.777000	-11.343000	23.493191	0.001043	20.939725
462.113026	-3.004300	3.776900	-11.345000	23.487066	0.001043	20.919364
463.114730	-2.988300	3.775800	-11.282000	23.463788	0.001043	20.930642
464.118270	-2.998100	3.776000	-11.320000	23.497995	0.001043	20.913723
465.116759	-2.988500	3.775500	-11.281000	23.486044	0.001045	20.904590
466.116180	-3.006000	3.774600	-11.345000	23.497945	0.001045	20.910828
467.117929	-2.996700	3.776200	-11.315000	23.477056	0.001044	20.919287
468.116751	-3.002400	3.774900	-11.333000	23.487040	0.001043	20.919337
469.114910	-2.998000	3.775800	-11.319000	23.521819	0.001044	20.890191
470.124349	-3.021600	3.774600	-11.404000	23.506308	0.001045	20.906884
471.117076	-3.003700	3.774000	-11.335000	23.533045	0.001043	20.903814
472.116757	-3.024900	3.773900	-11.415000	23.510166	0.001042	20.902216
473.120210	-3.010600	3.773200	-11.359000	23.545617	0.001045	20.904088
474.117330	-3.015200	3.773400	-11.377000	23.546489	0.001043	20.908281
475.115958	-3.012400	3.772900	-11.365000	23.519052	0.001045	20.878883
476.120407	-2.993200	3.772300	-11.289000	23.524703	0.001042	20.917735
477.116446	-3.003500	3.772900	-11.331000	23.526595	0.001044	20.901142
478.116696	-3.004400	3.772300	-11.331000	23.550992	0.001042	20.891459
479.120542	-3.022800	3.771600	-11.400000	23.552237	0.001047	20.886070
480.117445	-3.000300	3.772100	-11.316000	23.573123	0.001046	20.901790
481.119819	-3.001900	3.771600	-11.321000	23.587411	0.001045	20.881501
482.119162	-3.000600	3.771600	-11.314000	23.594431	0.001046	20.887116
483.117720	-2.997600	3.770500	-11.300000	23.581784	0.001045	20.895299
484.117856	-2.992700	3.771600	-11.285000	23.576631	0.001048	20.891082
485.121091	-2.990000	3.770200	-11.272000	23.575062	0.001043	20.892355
486.118544	-2.986400	3.770700	-11.260000	23.572371	0.001046	20.899614
487.119358	-2.996400	3.770300	-11.296000	23.546332	0.001046	20.884418
488.121350	-2.990100	3.769500	-11.270000	23.544837	0.001048	20.874859
489.119420	-3.000800	3.768600	-11.306000	23.546828	0.001047	20.899612
490.120787	-2.979600	3.769800	-11.230000	23.550264	0.001046	20.883143
491.122020	-2.998000	3.768900	-11.298000	23.535849	0.001046	20.873910
492.120467	-2.988400	3.768700	-11.261000	23.560618	0.001048	20.876928
493.120569	-2.978400	3.769400	-11.225000	23.538834	0.001048	20.889703
494.125394	-2.977800	3.768400	-11.219000	23.543937	0.001046	20.889603
495.121863	-3.014200	3.767700	-11.355000	23.539953	0.001046	20.880869
496.123103	-3.021300	3.765800	-11.376000	23.539082	0.001045	20.886159
497.122415	-3.001500	3.767200	-11.306000	23.550731	0.001047	20.862751
498.123844	-2.991900	3.767600	-11.271000	23.543587	0.001047	20.875977
499.123094	-3.001300	3.765300	-11.300000	23.589144	0.001048	20.872333
500.125152	-3.014700	3.764700	-11.349000	23.608161	0.001048	20.880018
501.125652	-2.980700	3.765700	-11.224000	23.611970	0.001047	20.862026
502.125223	-2.988900	3.766400	-11.257000	23.611671	0.001047	20.878794
503.127338	-2.986100	3.766100	-11.245000	23.612518	0.001048	20.860205
504.127020	-3.005500	3.765000	-11.315000	23.601888	0.001047	20.865195
505.125181	-3.002100	3.764700	-11.302000	23.574729	0.001051	20.854565
506.128174	-3.007000	3.763400	-11.316000	23.573459	0.001050	20.867516
507.130097	-2.999100	3.764700	-11.289000	23.605372	0.001049	20.860628
508.126703	-2.997300	3.763300	-11.279000	23.621330	0.001049	20.855288
509.126759	-2.990600	3.764700	-11.258000	23.623718	0.001050	20.846778
510.126258	-3.004100	3.762100	-11.301000	23.646995	0.001049	20.849724
511.126626	-2.999700	3.762500	-11.285000	23.639724	0.001048	20.847177
512.127900	-3.009600	3.761800	-11.321000	23.655881	0.001052	20.869063
513.127800	-2.986100	3.762100	-11.232000	23.633701	0.001050	20.866267
514.129083	-2.973500	3.761700	-11.184000	23.633577	0.001048	20.861876
515.128495	-2.994700	3.763100	-11.267000	23.613238	0.001049	20.869935
516.127922	-2.992000	3.761700	-11.254000	23.645225	0.001048	20.861225
517.128361	-3.016900	3.759400	-11.340000	23.674748	0.001050	20.873279
518.127119	-2.999200	3.759500	-11.275000	23.665313	0.001048	20.847225
519.128726	-2.999300	3.759800	-11.276000	23.663994	0.001050	20.870558
520.129084	-3.008500	3.759300	-11.309000	23.670465	0.001047	20.839115
521.127333	-2.992500	3.759400	-11.249000	23.692394	0.001052	20.848772
522.130792	-2.987600	3.758900	-11.229000	23.702624	0.001049	20.850019
523.128648	-2.990800	3.758800	-11.240000	23.734609	0.001050	20.858852
524.129747	-2.995200	3.757800	-11.253000	23.720395	0.001048	20.870679
525.128042	-3.016500	3.758700	-11.337000	23.681216	0.001051	20.850367
526.128697	-2.993400	3.758000	-11.248000	23.684576	0.001051	20.860847
527.128682	-2.987900	3.757300	-11.226000	23.684826	0.001052	20.850667
528.130186	-2.994900	3.757600	-11.252000	23.724402	0.001052	20.858101
529.129177	-3.019200	3.755600	-11.338000	23.729082	0.001049	20.851415
530.127985	-2.979800	3.758500	-11.198000	23.731620	0.001048	20.828356
531.133598	-2.983700	3.756500	-11.208000	23.733064	0.001050	20.830752
532.128451	-3.003900	3.755500	-11.280000	23.738664	0.001050	20.865763
533.129482	-2.993400	3.756300	-11.243000	23.723406	0.001050	20.850939
534.129826	-2.973400	3.756600	-11.167000	23.748994	0.001051	20.842929
535.130452	-3.017000	3.754000	-11.325000	23.740531	0.001052	20.844402
536.129875	-2.980000	3.756100	-11.192000	23.740381	0.001052	20.822915
537.130398	-2.983800	3.753700	-11.199000	23.755764	0.001052	20.837390
538.130242	-3.007000	3.752500	-11.282000	23.780554	0.001053	20.830002
539.135588	-2.988500	3.753100	-11.216000	23.779309	0.001050	20.850564
540.130647	-3.003400	3.754900	-11.276000	23.754370	0.001051	20.828880
541.131106	-2.992000	3.753500	-11.230000	23.734357	0.001052	20.837737
542.131662	-2.989500	3.753200	-11.219000	23.750686	0.001050	20.837514
543.131519	-3.004300	3.752100	-11.272000	23.752777	0.001051	20.845300
544.132518	-2.978200	3.754200	-11.180000	23.786926	0.001052	20.839710
545.132942	-3.014000	3.752300	-11.309000	23.810097	0.001056	20.846347
546.133055	-2.993400	3.751900	-11.230000	23.821198	0.001053	20.829029
547.135686	-3.005600	3.751300	-11.273000	23.810994	0.001052	20.811212
548.133907	-3.008000	3.751700	-11.284000	23.818113	0.001051	20.834944
549.134575	-3.027600	3.749800	-11.351000	23.799270	0.001052	20.838811
550.135651	-3.005900	3.750100	-11.272000	23.776424	0.001053	20.817801
551.135127	-3.008200	3.750500	-11.281000	23.772241	0.001050	20.833047
552.136370	-2.994000	3.749500	-11.225000	23.796436	0.001051	20.832176
553.141422	-2.975300	3.750400	-11.157000	23.774009	0.001052	20.821544
554.136856	-3.004100	3.750200	-11.264000	23.805396	0.001052	20.830728
555.135504	-2.991200	3.749500	-11.215000	23.810672	0.001053	20.839338
556.138190	-3.006100	3.748800	-11.268000	23.789642	0.001054	20.823467
557.135522	-3.005200	3.748200	-11.263000	23.791309	0.001051	20.827035
558.136279	-3.003500	3.746700	-11.253000	23.789195	0.001053	20.821123
559.138108	-2.980400	3.748700	-11.171000	23.799176	0.001053	20.832552
560.139454	-3.014000	3.748000	-11.295000	23.810575	0.001054	20.834499
561.137764	-2.982700	3.748000	-11.177000	23.809480	0.001053	20.830556
562.138231	-3.003600	3.745900	-11.250000	23.821528	0.001052	20.841687
563.146286	-3.015600	3.747300	-11.300000	23.822349	0.001053	20.825916
564.140234	-3.010300	3.746500	-11.277000	23.813762	0.001051	20.823944
565.140237	-3.012000	3.745600	-11.281000	23.826007	0.001053	20.838592
566.143151	-3.013200	3.746300	-11.287000	23.848707	0.001053	20.835749
567.141279	-3.013300	3.745600	-11.286000	23.863118	0.001050	20.837871
568.141699	-2.980500	3.745200	-11.162000	23.866626	0.001052	20.827164
569.143825	-2.977800	3.745700	-11.153000	23.834322	0.001053	20.834128
570.141779	-3.010100	3.744200	-11.269000	23.824616	0.001053	20.835301
571.140211	-2.981800	3.743600	-11.161000	23.796814	0.001052	20.806477
572.143258	-2.976000	3.743500	-11.140000	23.798632	0.001052	20.822998
573.151349	-2.981500	3.745700	-11.167000	23.797363	0.001052	20.824097
574.142294	-2.986200	3.744700	-11.181000	23.770259	0.001052	20.807827
575.142639	-3.006900	3.742800	-11.254000	23.792188	0.001050	20.825546
576.142315	-3.024100	3.743200	-11.319000	23.819068	0.001053	20.808875
577.143021	-2.977100	3.743900	-11.145000	23.811501	0.001052	20.826419
578.143714	-3.000500	3.742200	-11.226000	23.807097	0.001051	20.842865
579.143515	-3.016500	3.741800	-11.285000	23.807247	0.001049	20.820256
580.143135	-3.018300	3.741200	-11.291000	23.798834	0.001052	20.845486
581.142031	-3.011200	3.741600	-11.266000	23.790446	0.001049	20.833282
582.145341	-2.984400	3.741100	-11.163000	23.782656	0.001052	20.816937
583.146457	-2.994800	3.741800	-11.204000	23.821582	0.001050	20.820405
584.147168	-3.005200	3.738700	-11.234000	23.822231	0.001052	20.816789
585.146565	-3.011900	3.740700	-11.265000	23.834649	0.001051	20.828292
586.146914	-3.001100	3.740700	-11.226000	23.874469	0.001052	20.795200
587.150431	-2.988400	3.739100	-11.173000	23.881089	0.001052	20.845934
588.145638	-2.988600	3.739700	-11.175000	23.886415	0.001049	20.820455
589.148804	-2.998500	3.739400	-11.211000	23.913170	0.001051	20.825946
590.147487	-3.009700	3.737900	-11.249000	23.925960	0.001051	20.814590
591.148046	-2.976100	3.739600	-11.128000	23.933949	0.001053	20.807428
592.148456	-3.013500	3.737800	-11.263000	23.956197	0.001050	20.800341
593.149749	-3.004900	3.736500	-11.226000	23.928401	0.001051	20.817512
594.150290	-2.986500	3.736800	-11.158000	23.924840	0.001050	20.792130
595.153063	-2.971500	3.737500	-11.105000	23.932630	0.001050	20.806106
596.149462	-2.987600	3.736400	-11.162000	23.947163	0.001052	20.819257
597.149500	-3.012500	3.736000	-11.254000	23.951693	0.001050	20.811946
598.149717	-3.010400	3.734400	-11.241000	23.931336	0.001050	20.795325
599.148187	-3.012200	3.735600	-11.251000	23.884797	0.001051	20.815988
600.150375	-2.999800	3.735500	-11.204000	23.876983	0.001050	20.812894
601.150445	-3.015700	3.735100	-11.262000	23.884674	0.001050	20.821080
602.152899	-3.002200	3.734900	-11.211000	23.879024	0.001052	20.816837
603.151637	-2.994200	3.735000	-11.182000	23.887436	0.001050	20.788762
604.150694	-3.011700	3.734000	-11.245000	23.918246	0.001051	20.807329
605.152102	-3.023900	3.732500	-11.285000	23.939799	0.001049	20.805234
606.151112	-2.995100	3.732700	-11.178000	23.943557	0.001049	20.808054
607.154135	-3.001600	3.733200	-11.205000	23.959658	0.001049	20.807130
608.152184	-2.992900	3.734800	-11.177000	23.983324	0.001051	20.819009
609.150280	-3.007700	3.732900	-11.225000	23.992657	0.001050	20.820782
610.151577	-2.988800	3.732300	-11.155000	23.966254	0.001050	20.790511
611.154704	-2.982100	3.733000	-11.130000	23.966428	0.001048	20.799696
612.152759	-2.992700	3.732100	-11.167000	23.972825	0.001049	20.816541
613.153208	-2.994200	3.732400	-11.173000	23.991887	0.001050	20.811950
614.154972	-2.992400	3.731000	-11.164000	23.988702	0.001050	20.813497
615.152936	-3.022700	3.730400	-11.275000	23.997736	0.001049	20.801694
616.154156	-2.988200	3.731600	-11.150000	24.025409	0.001048	20.803842
617.155588	-2.994800	3.730700	-11.172000	24.011923	0.001051	20.796007
618.152857	-3.030800	3.728800	-11.300000	24.007593	0.001049	20.795457
619.153353	-3.003000	3.729200	-11.198000	24.033820	0.001049	20.803742
620.155705	-3.005600	3.730200	-11.210000	24.022150	0.001048	20.813375
621.158432	-2.999500	3.729100	-11.184000	24.051638	0.001050	20.819240
622.153858	-3.003900	3.728700	-11.199000	24.018219	0.001047	20.805640
623.154061	-2.996800	3.730900	-11.179000	23.996944	0.001048	20.792839
624.156027	-3.020300	3.727700	-11.257000	23.993558	0.001050	20.799401
625.156568	-2.995300	3.729000	-11.168000	23.992689	0.001050	20.795210
626.157373	-2.983800	3.729600	-11.128000	24.010780	0.001049	20.812404
627.159818	-2.975300	3.730000	-11.097000	23.996123	0.001047	20.810982
628.156643	-3.016300	3.727700	-11.243000	23.999036	0.001049	20.784032
629.158638	-2.990000	3.727800	-11.145000	24.007670	0.001050	20.790319
630.157351	-2.988700	3.728000	-11.141000	24.029594	0.001047	20.792391
631.157732	-3.000800	3.726500	-11.182000	23.991496	0.001049	20.801600
632.159015	-2.994500	3.726200	-11.156000	23.992666	0.001049	20.782860
633.157960	-3.000900	3.726300	-11.181000	23.996399	0.001047	20.807465
634.158408	-2.996400	3.725300	-11.162000	23.977288	0.001047	20.804896
635.159372	-2.998000	3.726000	-11.169000	23.983859	0.001045	20.790148
636.158924	-2.994300	3.725000	-11.153000	24.004415	0.001048	20.795115
637.158686	-2.995500	3.725300	-11.157000	24.043011	0.001047	20.810114
638.157817	-2.981300	3.724400	-11.102000	24.044952	0.001048	20.779344
639.162944	-2.989000	3.725700	-11.135000	24.035273	0.001047	20.794768
640.158766	-3.002200	3.725700	-11.184000	24.070882	0.001046	20.795866
641.157051	-3.000400	3.723500	-11.171000	24.045475	0.001047	20.782239
642.160133	-3.016900	3.722600	-11.229000	24.057046	0.001046	20.774878
643.160557	-2.999800	3.722400	-11.165000	24.062298	0.001046	20.772559
644.160203	-3.001900	3.722200	-11.172000	24.089620	0.001045	20.798063
645.160158	-3.007100	3.722800	-11.194000	24.106343	0.001047	20.799188
646.160967	-2.976000	3.723000	-11.079000	24.142048	0.001043	20.782367
647.159915	-2.990600	3.722100	-11.130000	24.092856	0.001044	20.789929
648.159350	-2.993800	3.721200	-11.139000	24.096115	0.001044	20.762852
649.161434	-2.988000	3.721600	-11.119000	24.110921	0.001046	20.793348
650.159647	-2.996200	3.722000	-11.151000	24.118012	0.001045	20.800460
651.161448	-3.000500	3.720400	-11.163000	24.137818	0.001044	20.791876
652.164070	-2.990800	3.720400	-11.126000	24.115474	0.001044	20.775629
653.161312	-3.013500	3.719300	-11.207000	24.128686	0.001044	20.769440
654.162017	-3.007400	3.719900	-11.186000	24.122539	0.001044	20.785086
655.160741	-3.010800	3.719400	-11.198000	24.135925	0.001045	20.771011
656.166321	-2.993100	3.719200	-11.131000	24.110071	0.001046	20.772107
657.162855	-2.984400	3.719800	-11.100000	24.093549	0.001043	20.798685
658.161310	-2.994800	3.718300	-11.135000	24.110220	0.001043	20.779844
659.161559	-2.981000	3.719200	-11.086000	24.116937	0.001044	20.781365
660.165854	-3.021400	3.717300	-11.230000	24.104196	0.001045	20.775224
661.163086	-2.999000	3.718000	-11.148000	24.115741	0.001042	20.768785
662.163225	-3.012800	3.717400	-11.198000	24.134029	0.001042	20.774325
663.166501	-3.017400	3.716400	-11.211000	24.138259	0.001043	20.770980
664.166304	-3.011700	3.717600	-11.194000	24.159109	0.001043	20.773875
665.171675	-3.018700	3.715900	-11.216000	24.174758	0.001043	20.782933
666.169120	-2.998300	3.715400	-11.138000	24.171200	0.001043	20.752336
667.168769	-3.006000	3.715500	-11.167000	24.162342	0.001042	20.758626
668.167578	-2.987500	3.716800	-11.103000	24.169830	0.001042	20.774197
669.170983	-2.978800	3.716100	-11.068000	24.141540	0.001041	20.755779
670.170837	-2.990400	3.715300	-11.108000	24.147436	0.001042	20.760745
671.169968	-3.014100	3.715900	-11.200000	24.148332	0.001041	20.777291
672.172922	-2.995100	3.716100	-11.128000	24.161146	0.001042	20.763590
673.171540	-2.993000	3.714000	-11.115000	24.162265	0.001043	20.735313
674.170400	-2.999100	3.714200	-11.138000	24.145096	0.001042	20.774993
675.174813	-2.988700	3.714600	-11.100000	24.137284	0.001040	20.759097
676.174949	-2.979100	3.714800	-11.066000	24.166195	0.001041	20.761542
677.172323	-2.995400	3.715000	-11.127000	24.154078	0.001042	20.766933
678.177942	-2.994700	3.713400	-11.120000	24.135916	0.001043	20.760570
679.173796	-3.008100	3.712500	-11.166000	24.160697	0.001041	20.762191
680.172748	-2.983200	3.713200	-11.077000	24.151440	0.001039	20.771399
681.178375	-2.997000	3.712500	-11.125000	24.168086	0.001040	20.748265
682.175048	-2.994200	3.712300	-11.114000	24.213343	0.001038	20.764736
683.174115	-2.995700	3.711800	-11.119000	24.220509	0.001039	20.761017
684.175496	-3.006100	3.711100	-11.154000	24.241657	0.001041	20.763739
685.173982	-3.010100	3.711000	-11.169000	24.247430	0.001040	20.756252
686.175061	-2.980100	3.710700	-11.057000	24.231457	0.001039	20.760620
687.177767	-2.983900	3.711500	-11.073000	24.219340	0.001038	20.770277
688.174644	-2.999100	3.709200	-11.123000	24.206477	0.001039	20.755478
689.175396	-2.999100	3.709900	-11.126000	24.235562	0.001039	20.767582
690.180450	-2.993300	3.711500	-11.108000	24.249768	0.001039	20.751959
691.176263	-2.984000	3.710300	-11.071000	24.247528	0.001037	20.763937
692.176201	-3.010400	3.708000	-11.162000	24.260316	0.001037	20.747367
693.179979	-3.024500	3.708600	-11.215000	24.198416	0.001036	20.732218
694.178148	-2.985300	3.708900	-11.071000	24.222749	0.001038	20.739556
695.178353	-2.994200	3.708100	-11.102000	24.173361	0.001036	20.754030
696.183229	-2.995900	3.708600	-11.110000	24.163858	0.001038	20.772474
697.180242	-3.013000	3.707900	-11.171000	24.137434	0.001037	20.757825
698.182529	-2.990100	3.708200	-11.086000	24.119842	0.001036	20.754880
699.184137	-2.990800	3.706900	-11.086000	24.119246	0.001035	20.747169
700.181383	-2.997100	3.705600	-11.106000	24.078215	0.001038	20.754856
701.181836	-3.016400	3.706800	-11.180000	24.074433	0.001037	20.743002
702.184964	-2.991900	3.707100	-11.090000	24.050718	0.001035	20.750513
703.181477	-3.015000	3.705800	-11.172000	24.049225	0.001037	20.754706
704.180169	-3.006500	3.706400	-11.143000	24.064058	0.001035	20.769582
705.184048	-3.011800	3.706600	-11.163000	24.086800	0.001035	20.750664
706.182352	-2.997900	3.705900	-11.109000	24.087971	0.001036	20.758951
707.185079	-2.988000	3.704800	-11.070000	24.119770	0.001036	20.758601
708.187281	-3.014600	3.703700	-11.164000	24.116710	0.001035	20.752213
709.184583	-2.985100	3.705500	-11.061000	24.124822	0.001036	20.735217
710.184799	-2.978000	3.704300	-11.030000	24.104941	0.001036	20.775971
711.187129	-3.016400	3.702500	-11.167000	24.114023	0.001034	20.758053
712.184000	-3.008900	3.703400	-11.142000	24.133657	0.001033	20.767788
713.185910	-2.985300	3.704300	-11.057000	24.137240	0.001036	20.762846
714.190605	-3.013100	3.702900	-11.157000	24.194540	0.001032	20.745875
715.186725	-3.020800	3.701400	-11.181000	24.192202	0.001032	20.757755
716.185547	-2.990200	3.702300	-11.069000	24.219222	0.001033	20.745976
717.185380	-2.993500	3.703000	-11.084000	24.234646	0.001035	20.756705
718.187248	-2.985000	3.704000	-11.055000	24.247758	0.001033	20.757530
719.184845	-3.004600	3.701400	-11.121000	24.275970	0.001036	20.762121
720.189258	-2.995000	3.700700	-11.082000	24.285600	0.001034	20.754711
721.184936	-3.000100	3.702000	-11.106000	24.300899	0.001033	20.755834
722.184475	-3.001000	3.701300	-11.107000	24.267861	0.001031	20.772479
723.186793	-3.024000	3.699100	-11.185000	24.248754	0.001031	20.768012
724.184846	-3.018100	3.700400	-11.167000	24.266045	0.001033	20.758330
725.185393	-2.982100	3.701300	-11.036000	24.257187	0.001030	20.761298
726.191307	-2.990100	3.700300	-11.063000	24.271095	0.001031	20.744903
727.184809	-3.009000	3.698700	-11.129000	24.272911	0.001031	20.768536
728.186131	-3.016900	3.697900	-11.155000	24.262362	0.001032	20.767912
729.188991	-2.982600	3.700200	-11.035000	24.246939	0.001031	20.762398
730.185233	-3.010300	3.698600	-11.133000	24.216834	0.001030	20.749744
731.184863	-3.015700	3.697500	-11.148000	24.236240	0.001032	20.765891
732.190206	-3.026100	3.696300	-11.184000	24.218701	0.001032	20.762523
733.189205	-2.995700	3.698500	-11.078000	24.168143	0.001030	20.767763
734.185649	-3.014200	3.697000	-11.143000	24.163217	0.001031	20.766141
735.191226	-2.986000	3.697400	-11.040000	24.183022	0.001030	20.743331
736.194019	-2.992600	3.697200	-11.063000	24.179538	0.001029	20.746949
737.186922	-3.009500	3.695400	-11.120000	24.163788	0.001030	20.759128
738.188118	-3.000900	3.696700	-11.091000	24.189640	0.001029	20.775575
739.188613	-2.997000	3.696300	-11.076000	24.217629	0.001028	20.749594
740.189528	-3.019000	3.695200	-11.154000	24.239001	0.001029	20.748746
741.187280	-3.027700	3.693300	-11.181000	24.269976	0.001027	20.761799
742.188964	-3.012700	3.694800	-11.130000	24.295400	0.001027	20.761223
743.189173	-2.981400	3.694400	-11.014000	24.318289	0.001028	20.764743
744.189573	-2.992800	3.695600	-11.059000	24.315304	0.001029	20.775500
745.189098	-2.999800	3.695000	-11.084000	24.311771	0.001027	20.773378
746.190638	-3.018000	3.693700	-11.146000	24.334484	0.001027	20.756807
747.191511	-3.018800	3.692300	-11.146000	24.330254	0.001027	20.766314
748.192365	-3.010500	3.693600	-11.118000	24.322518	0.001027	20.761398
749.190307	-3.024400	3.692500	-11.167000	24.325081	0.001026	20.785781
750.192544	-3.031400	3.692100	-11.190000	24.320030	0.001025	20.760325
751.192494	-3.020300	3.693300	-11.154000	24.333639	0.001029	20.765916
752.191806	-3.003000	3.692200	-11.087000	24.341376	0.001026	20.770833
753.192439	-3.007500	3.691400	-11.101000	24.356774	0.001025	20.771581
754.193525	-3.010500	3.691600	-11.113000	24.329684	0.001026	20.771432
755.191360	-3.015000	3.691800	-11.130000	24.329809	0.001023	20.770609
756.192330	-3.028000	3.690000	-11.173000	24.324262	0.001026	20.770734
757.191213	-2.993700	3.690400	-11.047000	24.323167	0.001026	20.780542
758.193151	-3.005300	3.690000	-11.088000	24.338690	0.001024	20.779044
759.192149	-3.007700	3.690300	-11.098000	24.337944	0.001024	20.758381
760.192426	-3.025000	3.689600	-11.159000	24.359588	0.001024	20.767766
761.193313	-2.968100	3.690600	-10.953000	24.317644	0.001023	20.762674
762.194515	-2.980100	3.690000	-10.996000	24.312396	0.001024	20.753142
763.192698	-2.982800	3.689700	-11.005000	24.269407	0.001022	20.790625
764.194281	-2.989400	3.690200	-11.030000	24.261968	0.001022	20.777948
765.192408	-3.000000	3.687700	-11.061000	24.262265	0.001022	20.773978
766.194514	-2.985500	3.687600	-11.008000	24.272691	0.001020	20.792497
767.193271	-2.983700	3.688800	-11.006000	24.262713	0.001020	20.770160
768.194013	-3.002200	3.688100	-11.072000	24.278561	0.001020	20.785109
769.197409	-2.978200	3.689000	-10.985000	24.297094	0.001021	20.786631
770.197432	-2.989400	3.687300	-11.022000	24.286148	0.001022	20.772331
771.197855	-2.999000	3.688100	-11.060000	24.289681	0.001023	20.795316
772.196104	-3.029500	3.685200	-11.164000	24.284605	0.001020	20.788327
773.197865	-3.000200	3.687100	-11.060000	24.288113	0.001020	20.795640
774.194314	-2.992700	3.686700	-11.032000	24.319783	0.001019	20.786156
775.195326	-2.993100	3.685900	-11.031000	24.344733	0.001020	20.772304
776.197370	-2.997800	3.686400	-11.050000	24.347719	0.001020	20.815602
777.195207	-3.015600	3.685100	-11.112000	24.342022	0.001019	20.781438
778.198222	-2.985400	3.687900	-11.009000	24.371650	0.001020	20.791246
779.197253	-3.005000	3.684500	-11.071000	24.370058	0.001018	20.792494
780.195765	-2.999400	3.684500	-11.050000	24.338464	0.001021	20.801103
781.196744	-3.031500	3.683100	-11.164000	24.366326	0.001017	20.788750
782.197383	-3.012000	3.684000	-11.094000	24.374908	0.001020	20.787876
783.195934	-2.995800	3.684800	-11.038000	24.412049	0.001018	20.787203
784.197549	-3.018900	3.682200	-11.115000	24.380605	0.001018	20.773677
785.196052	-3.012700	3.682900	-11.095000	24.409363	0.001018	20.789724
786.196114	-3.002900	3.683200	-11.059000	24.425805	0.001017	20.788202
787.196043	-3.003600	3.683500	-11.063000	24.426501	0.001016	20.796960
788.197698	-2.995600	3.682600	-11.031000	24.453067	0.001018	20.785207
789.196885	-2.987400	3.681300	-10.996000	24.443615	0.001016	20.806069
790.197465	-3.015600	3.680900	-11.098000	24.445954	0.001016	20.777597
791.196952	-2.988400	3.681200	-10.999000	24.455903	0.001018	20.803699
792.197643	-3.002900	3.682300	-11.056000	24.484710	0.001016	20.800832
793.198024	-2.986500	3.680900	-10.991000	24.496151	0.001016	20.797611
794.197754	-2.996900	3.680700	-11.028000	24.471252	0.001015	20.797761
795.197033	-3.005300	3.679800	-11.058000	24.469113	0.001012	20.793244
796.199904	-3.005600	3.679300	-11.057000	24.489411	0.001015	20.814083
797.198238	-2.993200	3.679400	-11.013000	24.497296	0.001014	20.794018
798.198842	-2.992500	3.682000	-11.017000	24.504634	0.001014	20.798536
799.199721	-2.986800	3.681100	-10.993000	24.460830	0.001014	20.795366
800.199730	-2.974700	3.680800	-10.948000	24.420334	0.001013	20.809266
801.200652	-2.994300	3.679000	-11.015000	24.436354	0.001012	20.791672
802.202602	-3.017100	3.678500	-11.098000	24.434415	0.001015	20.800159
803.200154	-2.999900	3.678300	-11.033000	24.452324	0.001013	20.805798
804.199865	-2.994700	3.677700	-11.012000	24.481849	0.001013	20.802229
805.202374	-3.010700	3.678600	-11.074000	24.495980	0.001013	20.807397
806.199892	-3.001600	3.676800	-11.035000	24.528240	0.001012	20.805625
807.200390	-3.001600	3.677300	-11.037000	24.498541	0.001012	20.805226
808.200390	-2.995800	3.677500	-11.017000	24.465834	0.001011	20.801808
809.201229	-2.983700	3.678100	-10.973000	24.463469	0.001011	20.816031
810.204347	-2.989600	3.678200	-10.996000	24.456482	0.001012	20.807125
811.201897	-2.993600	3.677400	-11.008000	24.452975	0.001011	20.804554
812.201143	-2.996800	3.675700	-11.015000	24.441482	0.001011	20.819577
813.201120	-2.999100	3.675700	-11.023000	24.474517	0.001010	20.811467
814.202900	-2.986500	3.677300	-10.981000	24.507349	0.001011	20.830657
815.200843	-2.996300	3.676200	-11.014000	24.501082	0.001011	20.808723
816.201146	-2.994300	3.675600	-11.004000	24.500834	0.001009	20.815112
817.201989	-2.995300	3.673800	-11.003000	24.479169	0.001009	20.803333
818.201754	-3.001200	3.673000	-11.023000	24.498870	0.001008	20.829262
819.201387	-2.991500	3.672500	-10.984000	24.495662	0.001008	20.829363
820.202398	-2.994900	3.674200	-11.002000	24.516082	0.001009	20.803857
821.202236	-2.975300	3.675400	-10.934000	24.528320	0.001009	20.822301
822.203549	-2.993900	3.674300	-10.999000	24.556552	0.001008	20.821229
823.202351	-2.978200	3.673400	-10.938000	24.552422	0.001008	20.832732
824.205579	-2.991600	3.672400	-10.985000	24.556552	0.001008	20.812694
825.202299	-3.000700	3.672600	-11.019000	24.545707	0.001008	20.823150
826.202440	-3.012500	3.671300	-11.059000	24.549440	0.001008	20.809825
827.203078	-2.986300	3.670700	-10.960000	24.545037	0.001008	20.819158
828.202040	-2.986000	3.673200	-10.966000	24.563370	0.001008	20.834234
829.201809	-3.004100	3.671200	-11.027000	24.567748	0.001007	20.822505
830.209489	-2.974300	3.671900	-10.920000	24.543025	0.001006	20.824726
831.202472	-2.985200	3.671600	-10.959000	24.510318	0.001006	20.842644
832.202581	-2.995100	3.670800	-10.993000	24.492061	0.001006	20.814371
833.202124	-2.994400	3.670500	-10.990000	24.502186	0.001006	20.838753
834.201619	-2.984000	3.670100	-10.951000	24.476765	0.001006	20.832689
835.202720	-2.981200	3.670000	-10.939000	24.512509	0.001006	20.820662
836.207868	-2.995600	3.669700	-10.991000	24.473608	0.001007	20.827625
837.203870	-3.008000	3.668800	-11.034000	24.448634	0.001006	20.827700
838.204183	-2.998600	3.669500	-11.003000	24.432142	0.001004	20.831543
839.204080	-2.997700	3.669800	-10.999000	24.428959	0.001005	20.833565
840.203091	-3.020500	3.667700	-11.077000	24.444657	0.001005	20.833667
841.203354	-2.992500	3.668000	-10.975000	24.472343	0.001005	20.835839
842.208375	-2.998200	3.669100	-11.000000	24.478660	0.001004	20.829848
843.205487	-3.005400	3.667700	-11.023000	24.479207	0.001004	20.831820
844.205354	-2.978300	3.668600	-10.925000	24.491248	0.001004	20.831573
845.213445	-3.011000	3.666600	-11.038000	24.519679	0.001004	20.840656
846.206125	-2.973600	3.667600	-10.905000	24.543158	0.001001	20.840980
847.206010	-2.989400	3.666800	-10.960000	24.552137	0.001002	20.843351
848.206316	-2.990100	3.667400	-10.964000	24.522990	0.001003	20.843978
849.209163	-2.988900	3.667100	-10.959000	24.525353	0.001002	20.817901
850.205186	-3.016100	3.664600	-11.052000	24.518164	0.001000	20.837715
851.205290	-3.015700	3.664800	-11.051000	24.540750	0.001002	20.842357
852.208078	-3.004600	3.666200	-11.013000	24.552764	0.001001	20.852514
853.207862	-2.994900	3.665700	-10.976000	24.577785	0.000999	20.841584
854.208793	-2.995200	3.664600	-10.975000	24.587785	0.000999	20.870109
855.207575	-2.990000	3.664500	-10.955000	24.604822	0.001001	20.868711
856.209208	-3.017400	3.665000	-11.057000	24.606640	0.000999	20.846355
857.209463	-2.996900	3.664600	-10.982000	24.597935	0.000999	20.854689
858.208673	-2.990300	3.664200	-10.956000	24.564035	0.001000	20.830634
859.209085	-2.995000	3.663400	-10.970000	24.591221	0.001001	20.862651
860.208664	-3.016100	3.661700	-11.042000	24.615544	0.001000	20.851495
861.207881	-2.999500	3.662900	-10.986000	24.567419	0.000997	20.861529
862.209683	-3.004600	3.662800	-11.004000	24.583287	0.000997	20.841889
863.212650	-2.998100	3.661400	-10.977000	24.594332	0.000997	20.862928
864.210967	-2.977700	3.663400	-10.907000	24.607489	0.000998	20.866646
865.210192	-2.996300	3.662800	-10.974000	24.587294	0.000996	20.845909
866.213786	-3.015700	3.661300	-11.040000	24.627760	0.000998	20.855218
867.210976	-3.001400	3.661700	-10.990000	24.617986	0.000996	20.871963
868.208160	-2.997800	3.661700	-10.976000	24.608859	0.000996	20.844314
869.210711	-2.987800	3.661400	-10.938000	24.587843	0.000997	20.847882
870.213143	-2.991200	3.660900	-10.950000	24.560758	0.000995	20.856268
871.210030	-3.007000	3.660400	-11.006000	24.553521	0.000995	20.872240
872.210320	-3.001100	3.659900	-10.983000	24.553696	0.000995	20.875260
873.211555	-2.996800	3.660100	-10.968000	24.532979	0.000994	20.872491
874.212255	-3.017600	3.659400	-11.042000	24.516189	0.000995	20.866077
875.216104	-3.018300	3.658400	-11.041000	24.521264	0.000997	20.872592
876.213437	-3.001600	3.658300	-10.979000	24.548002	0.000995	20.860064
877.215468	-2.992600	3.659800	-10.951000	24.571607	0.000996	20.865730
878.215546	-3.000900	3.657000	-10.973000	24.579665	0.000993	20.865755
879.214476	-2.996500	3.657700	-10.959000	24.607797	0.000992	20.870274
880.216113	-3.015100	3.656900	-11.025000	24.582153	0.000993	20.864458
881.216106	-2.999300	3.657800	-10.970000	24.587279	0.000991	20.878610
882.218294	-3.027000	3.656600	-11.068000	24.612945	0.000990	20.895352
883.217558	-3.017000	3.656800	-11.032000	24.600386	0.000990	20.887493
884.217974	-3.011200	3.656800	-11.010000	24.623120	0.000992	20.887544
885.219549	-2.983400	3.657500	-10.910000	24.618295	0.000990	20.881281
886.219700	-3.017500	3.656500	-11.033000	24.634388	0.000990	20.867558
887.220710	-3.015600	3.655900	-11.024000	24.643490	0.000990	20.861519
888.219207	-3.023600	3.655700	-11.052000	24.681915	0.000989	20.873523
889.220770	-3.030700	3.655200	-11.075000	24.700443	0.000988	20.901122
890.220315	-3.021100	3.654300	-11.039000	24.715067	0.000989	20.884030
891.223093	-2.988900	3.656200	-10.927000	24.712057	0.000988	20.888596
892.222659	-2.961500	3.656400	-10.826000	24.711412	0.000987	20.893637
893.222948	-2.997600	3.653600	-10.951000	24.724741	0.000989	20.859127
894.223032	-2.991100	3.654900	-10.930000	24.717680	0.000986	20.884282
895.222508	-3.010900	3.654100	-11.000000	24.754112	0.000987	20.873427
896.225443	-2.987600	3.654300	-10.917000	24.761946	0.000986	20.888874
897.224424	-2.981900	3.654100	-10.896000	24.757198	0.000986	20.886480
898.223305	-2.991500	3.653000	-10.927000	24.710844	0.000985	20.894964
899.225099	-3.009400	3.653000	-10.992000	24.694804	0.000986	20.888352
900.224794	-2.999300	3.653300	-10.956000	24.685355	0.000986	20.887405
901.227302	-3.006800	3.652300	-10.980000	24.707663	0.000987	20.894617
902.226497	-3.003100	3.652100	-10.966000	24.680009	0.000983	20.918548
903.226810	-3.020400	3.651600	-11.029000	24.637432	0.000986	20.900482
904.227027	-2.988700	3.653400	-10.918000	24.637582	0.000986	20.876926
905.231458	-2.980600	3.651500	-10.882000	24.599657	0.000983	20.895769
906.227685	-2.981300	3.652100	-10.887000	24.591746	0.000983	20.908693
907.229143	-3.003900	3.651700	-10.968000	24.615923	0.000984	20.881272
908.228004	-2.996700	3.650400	-10.938000	24.608637	0.000985	20.896719
909.229850	-2.991800	3.651300	-10.923000	24.585182	0.000983	20.894522
910.228213	-3.007000	3.649900	-10.974000	24.583094	0.000985	20.917554
911.231643	-2.988600	3.650600	-10.909000	24.609084	0.000983	20.891004
912.229928	-3.010000	3.649300	-10.983000	24.601251	0.000984	20.923918
913.229472	-3.019900	3.649700	-11.019000	24.607493	0.000982	20.912166
914.230706	-3.014400	3.648400	-10.997000	24.653529	0.000983	20.915685
915.229266	-3.007600	3.647800	-10.969000	24.656414	0.000982	20.924743
916.229443	-3.023600	3.647200	-11.025000	24.677928	0.000982	20.914089
917.233082	-3.019300	3.647500	-11.011000	24.707844	0.000981	20.887687
918.230933	-2.982300	3.648300	-10.880000	24.746268	0.000979	20.908226
919.232996	-2.984800	3.647300	-10.885000	24.727518	0.000980	20.910747
920.232502	-2.975500	3.647500	-10.852000	24.711476	0.000980	20.916933
921.231011	-3.002200	3.646300	-10.944000	24.703841	0.000980	20.910695
922.233174	-2.991900	3.647200	-10.911000	24.739626	0.000979	20.912940
923.231013	-2.977400	3.647800	-10.860000	24.778172	0.000977	20.916060
924.232401	-3.026700	3.644600	-11.030000	24.777451	0.000980	20.900166
925.233352	-3.009100	3.645400	-10.969000	24.780586	0.000978	20.906156
926.234125	-3.012400	3.645900	-10.981000	24.785285	0.000977	20.910398
927.234339	-2.999900	3.645300	-10.934000	24.765343	0.000977	20.927841
928.233683	-2.999400	3.645300	-10.933000	24.742439	0.000977	20.936623
929.236426	-2.996400	3.645400	-10.921000	24.752463	0.000977	20.929140
930.235705	-2.992000	3.645600	-10.906000	24.756193	0.000975	20.903488
931.235856	-3.004500	3.642700	-10.943000	24.753208	0.000975	20.905234
932.234952	-2.970500	3.645300	-10.826000	24.773277	0.000976	20.922053
933.236374	-3.001200	3.644000	-10.935000	24.779990	0.000976	20.925470
934.236850	-3.005800	3.643900	-10.952000	24.788870	0.000974	20.902142
935.241099	-2.969800	3.644500	-10.821000	24.766987	0.000974	20.914319
936.238161	-2.993200	3.643200	-10.903000	24.742594	0.000976	20.928245
937.237747	-2.979800	3.643300	-10.856000	24.743116	0.000977	20.924976
938.237929	-2.996700	3.642500	-10.914000	24.769276	0.000975	20.931787
939.238198	-2.986500	3.642000	-10.876000	24.739212	0.000974	20.912998
940.242546	-3.012600	3.641200	-10.968000	24.730757	0.000973	20.932013
941.240811	-3.001200	3.640800	-10.926000	24.750851	0.000974	20.918514
942.240823	-3.008400	3.642200	-10.956000	24.760725	0.000973	20.920362
943.240539	-2.995400	3.638900	-10.898000	24.783726	0.000973	20.927797
944.241964	-3.015400	3.641400	-10.978000	24.820454	0.000974	20.930043
945.242551	-3.021300	3.639800	-10.996000	24.848826	0.000971	20.929120
946.243186	-2.998000	3.639500	-10.910000	24.829755	0.000970	20.946962
947.245763	-2.978200	3.641000	-10.842000	24.821973	0.000971	20.944367
948.247455	-2.998800	3.640700	-10.916000	24.810236	0.000968	20.934487
949.244269	-3.003100	3.638800	-10.926000	24.826499	0.000969	20.922360
950.248352	-3.010100	3.638600	-10.952000	24.793227	0.000970	20.924531
951.252244	-3.010100	3.639000	-10.953000	24.830600	0.000969	20.914623
952.245670	-3.001300	3.638200	-10.919000	24.824906	0.000969	20.909383
953.250487	-2.982600	3.639100	-10.853000	24.836269	0.000970	20.917467
954.248177	-3.006300	3.637200	-10.934000	24.875134	0.000971	20.918541
955.245592	-2.998900	3.637800	-10.908000	24.879039	0.000968	20.907762
956.247005	-3.008700	3.637800	-10.944000	24.896171	0.000967	20.915472
957.251095	-2.997300	3.638000	-10.903000	24.917305	0.000966	20.928148
958.245710	-2.995300	3.636500	-10.891000	24.911661	0.000968	20.900675
959.248692	-3.019700	3.637100	-10.981000	24.895301	0.000968	20.914599
960.250180	-2.975000	3.638100	-10.823000	24.873146	0.000968	20.918442
961.245263	-3.008500	3.634000	-10.932000	24.871160	0.000966	20.926879
962.249170	-3.008800	3.635800	-10.939000	24.847337	0.000963	20.902024
963.249625	-2.985000	3.637500	-10.857000	24.831548	0.000963	20.914152
964.246072	-3.018100	3.635800	-10.971000	24.855793	0.000965	20.925681
965.249462	-3.009300	3.635800	-10.940000	24.874961	0.000964	20.902722
966.250350	-3.001500	3.635500	-10.910000	24.896821	0.000965	20.913281
967.247445	-3.000600	3.633800	-10.902000	24.915418	0.000964	20.922936
968.249339	-3.012700	3.633100	-10.944000	24.940731	0.000964	20.900929
969.252235	-2.994900	3.632300	-10.877000	24.922082	0.000963	20.884583
970.248822	-3.005700	3.633000	-10.919000	24.960946	0.000962	20.914579
971.252944	-3.005800	3.632500	-10.918000	24.983546	0.000963	20.893643
972.254778	-3.012700	3.632100	-10.942000	24.981906	0.000960	20.895316
973.249662	-3.006500	3.632600	-10.921000	25.016738	0.000962	20.898986
974.251886	-2.975000	3.633100	-10.807000	25.020616	0.000961	20.903351
975.252055	-3.017300	3.631900	-10.958000	25.021637	0.000960	20.893471
976.253104	-3.021600	3.631400	-10.972000	25.004307	0.000957	20.876552
977.253016	-3.001600	3.631500	-10.899000	24.960352	0.000958	20.901182
978.251808	-2.998400	3.630900	-10.886000	24.938297	0.000960	20.907020
979.252715	-3.005300	3.630100	-10.908000	24.890137	0.000959	20.892824
980.253731	-3.015400	3.631300	-10.949000	24.911969	0.000957	20.885812
981.251937	-3.012400	3.629700	-10.933000	24.897324	0.000958	20.879649
982.254296	-3.019500	3.629400	-10.957000	24.899263	0.000959	20.874483
983.251335	-3.029700	3.629600	-10.995000	24.931710	0.000958	20.897565
984.253194	-3.020500	3.628800	-10.959000	24.938796	0.000958	20.902306
985.253160	-2.994200	3.628800	-10.865000	24.961273	0.000955	20.867971
986.252773	-3.013100	3.628400	-10.931000	24.959682	0.000956	20.897665
987.256844	-2.989100	3.629100	-10.846000	24.969652	0.000955	20.901508
988.251831	-3.000800	3.628100	-10.886000	24.941181	0.000956	20.907545
989.255057	-3.006900	3.629100	-10.911000	24.921937	0.000953	20.889179
990.255066	-3.013000	3.627000	-10.926000	24.930416	0.000954	20.885836
991.253363	-2.988700	3.626700	-10.839000	24.936010	0.000954	20.878649
992.251632	-3.023900	3.626400	-10.965000	24.960352	0.000954	20.875106
993.256223	-3.016700	3.627800	-10.943000	24.969698	0.000953	20.884012
994.251818	-3.006600	3.625300	-10.898000	24.984542	0.000953	20.882316
995.253183	-3.020100	3.625300	-10.948000	24.996004	0.000952	20.886235
996.256183	-3.016900	3.624800	-10.933000	25.001947	0.000950	20.881295
997.253700	-2.984600	3.627300	-10.825000	25.036428	0.000952	20.865647
998.252755	-2.971800	3.625900	-10.774000	25.043341	0.000951	20.870215
999.256750	-3.000600	3.624800	-10.875000	25.048166	0.000950	20.883118
1000.254028	-2.960400	3.627400	-10.736000	25.023031	0.000948	20.873535
1001.253335	-2.981000	3.625100	-10.804000	24.994761	0.000951	20.880720
1002.256533	-3.017300	3.625100	-10.936000	24.953166	0.000949	20.863627
1003.255109	-2.968100	3.625300	-10.758000	24.935862	0.000948	20.886560
1004.256133	-3.012400	3.624300	-10.916000	24.954485	0.000947	20.870166
1005.259710	-3.004100	3.624000	-10.885000	24.966543	0.000948	20.875630
1006.255378	-2.978600	3.624100	-10.795000	24.975171	0.000947	20.892824
1007.256949	-3.007800	3.623900	-10.899000	24.998070	0.000948	20.878351
1008.258463	-3.012000	3.623300	-10.912000	24.995806	0.000948	20.865175
1009.255813	-2.971900	3.623600	-10.767000	24.985986	0.000947	20.863378
1010.256054	-2.992600	3.622700	-10.840000	24.963413	0.000946	20.887186
1011.258558	-3.000000	3.621500	-10.862000	24.945560	0.000945	20.865949
1012.256194	-2.994600	3.622100	-10.846000	24.969702	0.000946	20.869318
1013.257235	-3.000600	3.622400	-10.867000	24.973158	0.000945	20.882270
1014.259465	-2.986300	3.620900	-10.812000	25.005902	0.000943	20.860136
1015.259469	-3.002000	3.620700	-10.868000	25.004833	0.000945	20.882295
1016.257431	-3.003300	3.621300	-10.875000	24.999389	0.000946	20.858340
1017.260911	-3.009300	3.620400	-10.894000	25.017139	0.000944	20.876630
1018.259337	-3.023200	3.619900	-10.943000	25.038868	0.000945	20.858139
1019.258478	-3.010400	3.620200	-10.897000	25.026836	0.000942	20.847959
1020.262869	-2.971300	3.619500	-10.754000	25.038895	0.000942	20.859589
1021.259674	-2.998400	3.617700	-10.846000	25.043344	0.000944	20.844141
1022.258768	-3.006300	3.617200	-10.873000	25.072780	0.000945	20.849507
1023.261506	-3.011500	3.616500	-10.890000	25.094657	0.000942	20.862932
1024.259463	-2.987800	3.617800	-10.808000	25.089638	0.000941	20.852205
1025.260626	-2.971700	3.618200	-10.752000	25.045185	0.000940	20.876333
1026.265053	-3.016500	3.616900	-10.910000	25.031440	0.000940	20.866804
1027.265174	-3.009400	3.616500	-10.882000	25.010333	0.000941	20.862687
1028.261890	-3.000500	3.617100	-10.852000	24.988727	0.000941	20.854750
1029.265088	-3.021200	3.616000	-10.924000	24.976372	0.000938	20.857996
1030.264406	-2.993600	3.617600	-10.828000	24.968043	0.000941	20.870499
1031.261603	-3.019600	3.614300	-10.913000	24.946538	0.000940	20.864560
1032.264253	-3.031500	3.615200	-10.958000	24.912227	0.000938	20.866632
1033.263317	-2.994800	3.615700	-10.828000	24.872668	0.000938	20.866757
1034.260999	-3.007000	3.615600	-10.871000	24.863916	0.000939	20.853233
1035.266205	-3.000600	3.615500	-10.848000	24.856332	0.000938	20.847518
1036.264338	-3.013500	3.613500	-10.888000	24.866504	0.000937	20.843029
1037.264462	-2.984100	3.616000	-10.789000	24.894178	0.000938	20.843777
1038.266915	-3.021800	3.614300	-10.920000	24.877247	0.000936	20.866612
1039.265235	-3.017400	3.614500	-10.905000	24.862777	0.000936	20.833598
1040.265415	-2.992900	3.612700	-10.810000	24.891495	0.000936	20.870006
1041.266092	-3.006700	3.612200	-10.859000	24.900225	0.000935	20.874026
1042.266763	-3.005100	3.613400	-10.857000	24.911166	0.000934	20.842809
1043.264431	-3.004700	3.613900	-10.857000	24.911615	0.000934	20.861751
1044.266868	-3.001100	3.613300	-10.843000	24.907338	0.000935	20.851769
1045.266579	-2.970500	3.611900	-10.728000	24.917061	0.000933	20.860105
1046.273291	-2.976900	3.613100	-10.754000	24.899184	0.000932	20.853068
1047.269682	-3.000800	3.612600	-10.840000	24.878547	0.000931	20.848003
1048.266622	-2.993000	3.612300	-10.810000	24.869772	0.000933	20.851050
1049.266093	-3.014000	3.612300	-10.886000	24.887477	0.000932	20.826146
1050.267831	-2.996400	3.612200	-10.823000	24.899911	0.000932	20.852376
1051.267826	-3.006900	3.610700	-10.856000	24.926341	0.000930	20.853299
1052.266773	-3.006800	3.611100	-10.857000	24.958515	0.000932	20.863306
1053.269903	-2.995800	3.609600	-10.813000	24.983106	0.000931	20.847212
1054.271335	-2.991800	3.609900	-10.798000	25.010926	0.000929	20.865179
1055.269172	-2.998700	3.608700	-10.819000	25.039368	0.000930	20.843469
1056.273280	-2.979700	3.608600	-10.751000	25.046505	0.000927	20.841150
1057.270239	-3.002600	3.607700	-10.832000	25.061423	0.000928	20.838107
1058.268935	-2.994500	3.608600	-10.805000	25.052423	0.000930	20.848513
1059.271958	-2.997100	3.608100	-10.813000	25.035867	0.000927	20.840903
1060.270985	-3.005900	3.607600	-10.843000	25.073631	0.000927	20.850835
1061.270191	-2.998800	3.607700	-10.818000	25.056751	0.000926	20.843848
1062.271462	-3.005600	3.607400	-10.841000	25.069381	0.000928	20.872647
1063.272081	-3.001300	3.605600	-10.820000	25.111022	0.000926	20.841903
1064.272690	-3.012500	3.606800	-10.864000	25.124372	0.000923	20.848667
1065.271125	-2.997400	3.606700	-10.808000	25.092799	0.000925	20.840680
1066.273299	-2.994500	3.605000	-10.793000	25.090911	0.000924	20.835466
1067.272958	-2.975900	3.605300	-10.728000	25.114749	0.000924	20.812455
1068.272568	-2.986000	3.605900	-10.766000	25.103787	0.000924	20.849339
1069.271980	-3.006100	3.605200	-10.837000	25.120094	0.000923	20.841528
1070.270536	-2.998700	3.604600	-10.808000	25.127106	0.000921	20.849515
1071.272521	-3.010000	3.603600	-10.846000	25.150697	0.000923	20.837636
1072.272109	-2.987500	3.603300	-10.763000	25.149405	0.000922	20.859572
1073.273089	-3.009000	3.602400	-10.838000	25.160664	0.000920	20.850960
1074.271508	-2.992000	3.604300	-10.782000	25.136775	0.000922	20.845471
1075.272305	-3.021500	3.602400	-10.883000	25.088546	0.000920	20.853954
1076.271729	-3.005600	3.600900	-10.821000	25.094066	0.000919	20.855227
1077.272257	-2.999100	3.601800	-10.800000	25.096451	0.000920	20.838182
1078.271726	-3.005800	3.600300	-10.820000	25.090312	0.000918	20.849563
1079.273066	-3.014100	3.600400	-10.850000	25.085315	0.000918	20.847391
1080.273955	-2.968300	3.601400	-10.689000	25.097248	0.000920	20.835663
1081.275989	-3.004600	3.601400	-10.819000	25.058018	0.000917	20.829000
1082.273997	-2.996100	3.600300	-10.785000	25.048323	0.000916	20.828277
1083.274263	-2.986200	3.601800	-10.754000	25.002402	0.000917	20.832916
1084.274179	-3.008300	3.598700	-10.825000	24.968417	0.000917	20.848116
1085.275823	-3.008200	3.599900	-10.828000	24.960386	0.000914	20.837210
1086.275726	-2.997300	3.599700	-10.788000	24.947755	0.000915	20.851558
1087.275102	-3.019700	3.598200	-10.864000	24.953721	0.000914	20.846641
1088.274971	-3.002300	3.599900	-10.806000	24.983161	0.000913	20.826880
1089.276511	-3.025000	3.598000	-10.884000	25.011627	0.000913	20.851184
1090.277850	-2.997800	3.599400	-10.788000	24.982165	0.000913	20.832992
1091.279508	-2.999900	3.597900	-10.792000	24.929878	0.000912	20.828875
1092.278326	-3.001500	3.596500	-10.793000	24.940023	0.000911	20.822936
1093.281492	-3.004800	3.597000	-10.807000	24.926871	0.000913	20.841503
1094.277590	-2.999000	3.595800	-10.783000	24.904567	0.000911	20.836187
1095.279225	-2.981000	3.596800	-10.722000	24.904072	0.000912	20.820043
1096.279375	-3.005800	3.596800	-10.810000	24.913445	0.000911	20.823287
1097.281200	-3.005700	3.597000	-10.811000	24.899298	0.000908	20.836588
1098.282219	-3.008100	3.594000	-10.809000	24.905637	0.000910	20.833942
1099.279906	-2.998900	3.595700	-10.782000	24.884405	0.000908	20.825434
1100.281669	-2.996200	3.595900	-10.773000	24.910834	0.000909	20.829674
1101.280187	-2.984700	3.595400	-10.731000	24.915759	0.000907	20.835092
1102.281902	-2.953200	3.597400	-10.622000	24.961383	0.000908	20.829676
1103.284891	-2.992000	3.595500	-10.757000	24.973143	0.000907	20.835790
1104.282045	-2.989400	3.593600	-10.741000	25.011354	0.000907	20.822462
1105.281837	-2.983000	3.594600	-10.721000	25.023910	0.000905	20.816574
1106.284506	-3.018000	3.593200	-10.843000	25.035620	0.000906	20.829275
1107.282215	-3.013900	3.592400	-10.826000	25.012946	0.000904	20.806042
1108.283982	-3.013800	3.592100	-10.825000	25.034377	0.000904	20.819968
1109.284035	-3.011000	3.593900	-10.820000	25.067763	0.000904	20.822186
1110.288589	-2.982400	3.594000	-10.717000	25.047578	0.000905	20.831322
1111.285024	-2.996600	3.591600	-10.761000	25.061524	0.000902	20.814976
1112.283256	-3.022400	3.591600	-10.854000	25.081511	0.000903	20.811805
1113.284578	-3.026300	3.591000	-10.866000	25.115619	0.000904	20.808112
1114.284271	-3.010400	3.590800	-10.809000	25.108334	0.000901	20.807912
1115.284195	-3.018200	3.589800	-10.834000	25.099460	0.000901	20.803745
1116.285951	-3.008300	3.590100	-10.799000	25.120018	0.000899	20.819640
1117.284856	-3.012400	3.591200	-10.817000	25.080292	0.000900	20.814849
1118.283783	-2.988800	3.589800	-10.728000	25.063535	0.000897	20.827425
1119.287908	-2.969100	3.591300	-10.662000	25.053838	0.000900	20.816270
1120.285695	-3.014300	3.589100	-10.818000	25.085234	0.000897	20.825500
1121.284019	-3.016100	3.589800	-10.825000	25.093737	0.000898	20.809379
1122.289981	-3.003400	3.589800	-10.781000	25.076682	0.000897	20.820234
1123.284254	-3.006300	3.588500	-10.786000	25.111288	0.000898	20.816092
1124.285266	-3.018100	3.587400	-10.825000	25.106115	0.000896	20.801891
1125.284799	-3.002100	3.587700	-10.769000	25.117077	0.000896	20.804360
1126.285837	-3.004400	3.587900	-10.778000	25.132762	0.000896	20.797821
1127.285526	-2.992400	3.587800	-10.735000	25.144220	0.000894	20.810272
1128.287646	-3.000600	3.587300	-10.762000	25.160774	0.000895	20.804131
1129.287745	-2.982300	3.585500	-10.692000	25.166118	0.000894	20.807599
1130.287908	-2.984800	3.587100	-10.705000	25.170119	0.000893	20.813038
1131.288165	-2.989800	3.587200	-10.723000	25.153439	0.000895	20.798189
1132.286816	-2.994300	3.585100	-10.734000	25.124353	0.000894	20.796966
1133.287923	-3.001600	3.586200	-10.762000	25.146525	0.000892	20.796939
1134.288360	-2.980100	3.586000	-10.686000	25.165715	0.000892	20.795341
1135.288604	-3.007300	3.585400	-10.781000	25.180827	0.000891	20.789649
1136.289690	-3.006400	3.583500	-10.772000	25.183064	0.000890	20.798533
1137.288601	-2.975100	3.586200	-10.668000	25.140132	0.000891	20.793840
1138.288016	-2.997700	3.584600	-10.744000	25.151863	0.000891	20.805143
1139.287685	-2.991400	3.583700	-10.719000	25.117559	0.000890	20.783507
1140.290721	-3.004800	3.580600	-10.757000	25.088445	0.000891	20.802171
1141.289279	-2.996900	3.581500	-10.732000	25.074200	0.000889	20.794984
1142.291924	-3.009400	3.581300	-10.776000	25.054734	0.000888	20.807211
1143.289208	-2.977300	3.583500	-10.668000	25.052395	0.000888	20.789217
1144.290309	-2.994000	3.583100	-10.727000	25.074571	0.000888	20.788718
1145.292276	-2.976200	3.581100	-10.657000	25.087647	0.000886	20.796628
1146.291147	-2.995500	3.580300	-10.724000	25.072409	0.000886	20.783228
1147.294961	-3.018800	3.581400	-10.809000	25.062436	0.000886	20.790761
1148.291340	-3.002700	3.580100	-10.748000	25.081280	0.000886	20.778857
1149.292246	-3.022900	3.580200	-10.822000	25.042075	0.000885	20.772693
1150.294352	-3.009700	3.580000	-10.774000	25.086947	0.000884	20.778381
1151.291865	-2.999000	3.580800	-10.737000	25.085107	0.000883	20.795501
1152.291028	-3.011800	3.579000	-10.778000	25.115139	0.000884	20.794828
1153.295370	-2.997700	3.580700	-10.733000	25.137759	0.000882	20.772491
1154.291125	-3.008300	3.579600	-10.767000	25.163486	0.000884	20.795948
1155.292206	-3.037400	3.577700	-10.866000	25.206588	0.000882	20.782796
1156.295215	-3.001000	3.577900	-10.736000	25.239301	0.000881	20.779602
1157.291494	-3.000200	3.578500	-10.735000	25.224136	0.000881	20.777653
1158.293382	-2.988300	3.578300	-10.693000	25.210242	0.000880	20.786938
1159.296382	-3.028600	3.576500	-10.831000	25.181457	0.000879	20.784118
1160.294490	-2.994800	3.576500	-10.710000	25.158710	0.000879	20.777403
1161.293193	-3.001300	3.576400	-10.733000	25.130868	0.000880	20.776005
1162.298378	-3.014400	3.576400	-10.779000	25.092736	0.000877	20.762856
1163.293493	-2.997000	3.575000	-10.712000	25.135294	0.000879	20.771913
1164.294575	-2.988800	3.575600	-10.686000	25.157940	0.000877	20.783268
1165.297931	-2.997000	3.577400	-10.721000	25.167710	0.000876	20.788809
1166.294773	-2.990600	3.574300	-10.687000	25.191226	0.000877	20.762630
1167.296690	-3.001600	3.574200	-10.728000	25.182377	0.000879	20.770342
1168.298631	-3.001500	3.574300	-10.727000	25.158539	0.000876	20.777705
1169.295692	-2.999300	3.574800	-10.720000	25.118939	0.000878	20.774935
1170.296923	-2.988500	3.575000	-10.682000	25.064372	0.000875	20.760936
1171.300453	-3.043700	3.572700	-10.874000	25.044956	0.000874	20.777007
1172.298888	-2.990400	3.573900	-10.687000	25.050699	0.000875	20.764754
1173.300729	-2.987700	3.572900	-10.673000	25.062607	0.000874	20.772441
1174.300272	-2.986300	3.574700	-10.674000	25.058880	0.000875	20.769173
1175.299595	-2.989400	3.573300	-10.681000	25.081703	0.000873	20.792558
1176.301278	-2.978900	3.572700	-10.642000	25.066787	0.000874	20.775688
1177.302935	-2.975000	3.572900	-10.627000	25.068204	0.000872	20.766205
1178.300821	-2.981000	3.572600	-10.648000	25.111609	0.000873	20.761887
1179.299826	-2.992200	3.570200	-10.681000	25.132916	0.000871	20.761465
1180.301528	-2.990000	3.570800	-10.676000	25.166822	0.000871	20.758046
1181.300385	-2.986400	3.571300	-10.664000	25.154719	0.000869	20.773870
1182.302235	-3.000100	3.570400	-10.711000	25.164712	0.000870	20.763988
1183.301206	-2.979900	3.570500	-10.639000	25.161481	0.000870	20.749364
1184.302260	-3.014300	3.569800	-10.759000	25.162229	0.000869	20.782832
1185.302154	-3.002900	3.568900	-10.716000	25.156809	0.000869	20.763641
1186.303426	-2.982900	3.569700	-10.646000	25.129590	0.000868	20.760971
1187.303174	-2.996200	3.568400	-10.689000	25.114427	0.000870	20.757129
1188.303067	-3.000300	3.567800	-10.704000	25.102521	0.000866	20.777894
1189.303001	-2.974300	3.568100	-10.611000	25.100533	0.000864	20.752191
1190.303141	-3.004300	3.567600	-10.718000	25.142023	0.000867	20.767289
1191.302714	-3.014300	3.565800	-10.747000	25.169420	0.000867	20.780095
1192.306789	-3.001900	3.566700	-10.706000	25.197111	0.000866	20.761901
1193.305207	-3.000400	3.565900	-10.699000	25.258060	0.000866	20.765245
1194.305770	-2.995400	3.567300	-10.684000	25.284831	0.000864	20.770787
1195.317737	-3.020700	3.565400	-10.768000	25.302479	0.000864	20.753892
1196.308257	-3.038400	3.564100	-10.827000	25.337922	0.000866	20.781893
1197.306130	-2.989700	3.565500	-10.659000	25.342871	0.000865	20.763628
1198.307843	-3.006400	3.566500	-10.721000	25.311528	0.000862	20.759659
1199.309376	-2.992400	3.565100	-10.666000	25.308968	0.000860	20.768468
1200.306656	-3.003600	3.564100	-10.704000	25.313146	0.000863	20.770293
1201.313457	-3.000400	3.563100	-10.689000	25.296445	0.000862	20.763481
1202.309250	-2.994500	3.564700	-10.672000	25.308673	0.000862	20.759163
1203.307568	-2.993100	3.564500	-10.667000	25.292966	0.000861	20.764730
1204.312063	-2.997300	3.563300	-10.680000	25.264358	0.000860	20.766353
1205.308714	-2.964500	3.563700	-10.562000	25.237439	0.000859	20.766827
1206.309640	-3.007700	3.563000	-10.715000	25.230604	0.000858	20.771819
1207.311137	-2.988700	3.563600	-10.648000	25.247382	0.000859	20.764481
1208.308670	-2.998300	3.561400	-10.677000	25.256804	0.000857	20.775838
1209.309065	-2.993500	3.562100	-10.662000	25.308280	0.000858	20.789114
1210.309278	-2.990500	3.562300	-10.652000	25.325779	0.000856	20.778709
1211.311239	-3.009200	3.561300	-10.716000	25.319068	0.000858	20.771971
1212.311181	-2.989800	3.561500	-10.647000	25.307362	0.000856	20.774916
1213.320020	-3.011700	3.560600	-10.722000	25.283304	0.000858	20.764037
1214.310705	-2.984300	3.559900	-10.623000	25.252257	0.000857	20.767006
1215.310563	-2.974100	3.559800	-10.586000	25.230012	0.000855	20.785924
1216.313149	-2.996900	3.559800	-10.666000	25.253054	0.000856	20.770650
1217.312971	-3.005600	3.558800	-10.696000	25.269287	0.000853	20.767508
1218.312008	-2.992300	3.559800	-10.650000	25.256636	0.000853	20.786101
1219.312510	-2.983000	3.559900	-10.618000	25.257035	0.000855	20.771329
1220.313550	-2.990700	3.557700	-10.639000	25.258277	0.000853	20.773524
1221.313617	-2.987300	3.559300	-10.632000	25.250399	0.000854	20.772252
1222.314242	-3.000700	3.558200	-10.676000	25.228776	0.000852	20.759077
1223.315557	-3.013100	3.556800	-10.716000	25.233424	0.000850	20.771330
1224.314359	-2.992700	3.557700	-10.647000	25.227608	0.000849	20.774027
1225.315165	-2.987200	3.557900	-10.627000	25.182121	0.000849	20.774352
1226.313898	-2.998100	3.555900	-10.659000	25.174466	0.000851	20.791798
1227.316565	-3.017300	3.554000	-10.723000	25.155224	0.000847	20.779119
1228.316049	-3.010700	3.555600	-10.703000	25.163180	0.000851	20.776201
1229.316915	-3.025500	3.554100	-10.752000	25.147024	0.000849	20.774206
1230.319582	-3.014300	3.553800	-10.712000	25.146083	0.000848	20.774209
1231.318404	-2.987100	3.553500	-10.613000	25.180984	0.000845	20.760883
1232.319140	-3.027400	3.552800	-10.754000	25.154982	0.000848	20.794523
1233.319363	-2.999700	3.553500	-10.658000	25.130698	0.000848	20.774412
1234.317845	-3.003100	3.553200	-10.670000	25.122096	0.000845	20.770992
1235.318084	-3.007800	3.554100	-10.688000	25.126748	0.000846	20.795577
1236.317752	-2.999200	3.552600	-10.654000	25.158666	0.000846	20.774514
1237.318744	-2.995100	3.551800	-10.637000	25.156951	0.000846	20.794130
1238.318079	-3.008300	3.552400	-10.686000	25.179524	0.000845	20.784548
1239.321362	-2.992100	3.552000	-10.628000	25.156308	0.000846	20.783526
1240.318983	-3.000000	3.552300	-10.656000	25.132245	0.000843	20.790664
1241.318810	-3.013400	3.550700	-10.698000	25.126481	0.000842	20.777291
1242.320343	-3.012800	3.552000	-10.701000	25.133664	0.000842	20.796830
1243.321769	-3.027200	3.550300	-10.746000	25.137817	0.000842	20.775394
1244.318914	-3.007400	3.551700	-10.680000	25.176523	0.000842	20.800501
1245.319174	-3.006700	3.550000	-10.672000	25.198723	0.000841	20.801926
1246.319497	-3.002300	3.549300	-10.655000	25.221243	0.000840	20.783283
1247.320654	-3.002000	3.549300	-10.654000	25.263945	0.000838	20.770679
1248.321643	-2.997000	3.548800	-10.634000	25.257759	0.000838	20.780116
1249.323975	-2.998500	3.549300	-10.642000	25.289648	0.000839	20.785581
1250.326509	-3.008300	3.550400	-10.679000	25.285152	0.000836	20.796714
1251.321562	-2.986800	3.548200	-10.597000	25.283114	0.000837	20.778545
1252.323877	-2.995300	3.548600	-10.628000	25.316993	0.000837	20.795966
1253.325087	-2.991100	3.549300	-10.614000	25.340804	0.000837	20.797115
1254.322227	-2.979200	3.547300	-10.567000	25.337548	0.000837	20.784837
1255.323317	-2.996000	3.547100	-10.625000	25.364467	0.000835	20.799537
1256.326396	-2.994900	3.547700	-10.623000	25.421232	0.000835	20.788732
1257.322595	-2.994600	3.546800	-10.621000	25.432067	0.000836	20.802457
1258.324372	-3.002500	3.545900	-10.645000	25.406223	0.000835	20.797369
1259.322765	-3.007900	3.546100	-10.665000	25.346897	0.000833	20.785688
1260.320932	-2.991200	3.545900	-10.606000	25.296419	0.000836	20.789060
1261.322661	-3.009700	3.544600	-10.667000	25.259808	0.000834	20.807777
1262.323420	-3.006500	3.543300	-10.652000	25.232639	0.000833	20.801362
1263.324929	-3.013100	3.545000	-10.681000	25.265277	0.000833	20.794776
1264.326390	-2.993100	3.545100	-10.609000	25.282653	0.000832	20.813170
1265.323806	-3.003700	3.544500	-10.646000	25.252825	0.000833	20.797448
1266.322251	-2.989000	3.544600	-10.593000	25.239304	0.000829	20.804735
1267.328559	-2.969900	3.545600	-10.529000	25.250690	0.000831	20.808106
1268.324123	-3.001800	3.543100	-10.634000	25.298016	0.000829	20.807733
1269.324496	-3.002900	3.542600	-10.637000	25.302591	0.000827	20.798101
1270.327507	-3.010400	3.542500	-10.664000	25.294440	0.000828	20.797978
1271.325499	-2.989600	3.542800	-10.591000	25.318152	0.000830	20.791440
1272.325724	-2.989900	3.542200	-10.588000	25.338510	0.000827	20.800027
1273.326850	-3.007500	3.541800	-10.651000	25.337170	0.000825	20.825233
1274.325655	-2.984500	3.541400	-10.568000	25.332472	0.000824	20.808189
1275.325331	-3.003100	3.540300	-10.630000	25.292111	0.000825	20.819347
1276.326931	-2.983100	3.541000	-10.562000	25.292485	0.000825	20.808343
1277.324415	-2.997300	3.541200	-10.614000	25.315848	0.000826	20.809041
1278.325412	-2.997600	3.540800	-10.613000	25.300466	0.000824	20.807821
1279.324983	-2.988600	3.540900	-10.581000	25.333200	0.000824	20.816980
1280.325167	-3.003600	3.539200	-10.629000	25.355946	0.000823	20.794774
1281.324837	-2.998100	3.540100	-10.612000	25.368398	0.000824	20.823873
1282.325737	-3.009800	3.537000	-10.645000	25.364870	0.000822	20.806580
1283.324500	-3.002100	3.538200	-10.620000	25.373074	0.000822	20.821456
1284.325212	-3.003200	3.537100	-10.622000	25.364897	0.000819	20.825099
1285.325532	-3.006800	3.537000	-10.634000	25.338005	0.000820	20.840296
1286.324730	-3.012300	3.536700	-10.653000	25.350135	0.000819	20.829717
1287.324518	-2.979900	3.537800	-10.542000	25.367285	0.000819	20.806634
1288.325026	-3.016600	3.537000	-10.668000	25.427952	0.000820	20.807808
1289.326537	-3.000500	3.536500	-10.610000	25.424049	0.000818	20.829967
1290.327215	-3.018100	3.534000	-10.665000	25.429170	0.000820	20.820885
1291.326434	-2.998200	3.535700	-10.600000	25.357021	0.000819	20.814820
1292.326316	-3.012000	3.533400	-10.641000	25.328689	0.000817	20.825727
1293.327547	-3.003000	3.533300	-10.610000	25.340220	0.000815	20.838253
1294.327845	-2.993300	3.534400	-10.579000	25.341067	0.000817	20.831991
1295.327629	-2.967600	3.534600	-10.487000	25.348573	0.000815	20.811553
1296.327859	-2.976100	3.535400	-10.520000	25.328318	0.000813	20.815398
1297.328097	-2.988000	3.533200	-10.556000	25.314349	0.000814	20.827450
1298.332058	-3.004300	3.533700	-10.614000	25.312161	0.000816	20.830468
1299.334731	-3.001000	3.532900	-10.601000	25.279153	0.000814	20.846165
1300.328801	-3.002100	3.532900	-10.605000	25.258249	0.000814	20.819488
1301.333067	-3.004600	3.531700	-10.610000	25.265955	0.000811	20.846664
1302.330231	-2.985600	3.533000	-10.547000	25.281837	0.000813	20.828946
1303.329276	-3.037200	3.531100	-10.722000	25.320039	0.000812	20.823680
1304.336285	-3.005900	3.532400	-10.617000	25.345566	0.000808	20.845992
1305.329066	-2.995200	3.531400	-10.575000	25.349866	0.000809	20.827550
1306.329233	-2.987900	3.530700	-10.548000	25.396418	0.000811	20.834938
1307.332691	-2.992700	3.528900	-10.560000	25.419853	0.000808	20.828599
1308.328892	-3.005500	3.531600	-10.613000	25.431831	0.000810	20.833040
1309.330042	-2.996700	3.530900	-10.580000	25.461083	0.000808	20.833491
1310.334296	-2.994700	3.529000	-10.568000	25.456611	0.000809	20.849862
1311.330979	-2.984000	3.529200	-10.530000	25.448807	0.000808	20.845818
1312.333739	-2.995700	3.529500	-10.571000	25.441453	0.000806	20.819469
1313.334299	-2.991800	3.527600	-10.553000	25.409715	0.000807	20.846867
1314.333267	-2.995900	3.529000	-10.572000	25.404545	0.000806	20.838357
1315.333264	-3.004300	3.527500	-10.596000	25.391796	0.000806	20.839306
1316.336751	-3.023900	3.526300	-10.662000	25.421869	0.000805	20.835364
1317.333381	-3.014400	3.527000	-10.630000	25.452811	0.000805	20.846046
1318.334443	-3.005000	3.527700	-10.599000	25.481786	0.000802	20.826780
1319.339216	-2.999700	3.526100	-10.575000	25.453630	0.000802	20.817472
1320.335753	-2.960900	3.527400	-10.443000	25.486362	0.000803	20.847495
1321.336613	-2.994100	3.526200	-10.557000	25.479377	0.000802	20.849490
1322.336485	-2.982400	3.525700	-10.514000	25.499732	0.000802	20.846697
1323.341702	-2.976500	3.525900	-10.494000	25.475252	0.000803	20.841555
1324.336634	-2.997800	3.524200	-10.565000	25.489644	0.000801	20.848420
1325.340827	-3.025900	3.523900	-10.662000	25.525805	0.000800	20.845379
1326.335463	-2.988900	3.523200	-10.530000	25.549358	0.000800	20.846273
1327.337832	-3.015400	3.523700	-10.624000	25.540389	0.000801	20.845801
1328.339899	-2.973500	3.525100	-10.480000	25.509826	0.000800	20.852566
1329.338371	-3.020800	3.522000	-10.637000	25.476078	0.000799	20.847599
1330.336761	-3.011800	3.522300	-10.607000	25.444145	0.000801	20.844456
1331.339773	-2.986800	3.522800	-10.521000	25.408256	0.000799	20.834971
1332.341421	-2.985100	3.524000	-10.517000	25.385095	0.000799	20.853913
1333.337332	-3.036900	3.519700	-10.687000	25.384452	0.000797	20.842363
1334.340842	-2.994200	3.523000	-10.547000	25.353683	0.000796	20.869313
1335.337552	-3.002900	3.519900	-10.568000	25.389297	0.000797	20.837745
1336.337737	-2.998500	3.520600	-10.555000	25.412859	0.000794	20.835326
1337.337832	-3.033700	3.520600	-10.680000	25.407093	0.000796	20.840441
1338.338544	-3.011900	3.520100	-10.600000	25.430505	0.000796	20.853519
1339.337739	-3.007400	3.519300	-10.582000	25.391015	0.000794	20.854642
1340.339919	-2.980100	3.518600	-10.485000	25.405479	0.000795	20.862053
1341.338674	-2.963600	3.520800	-10.433000	25.409878	0.000793	20.856514
1342.338576	-2.976100	3.519700	-10.474000	25.370042	0.000793	20.854920
1343.340775	-2.992100	3.518800	-10.527000	25.386842	0.000792	20.848556
1344.339481	-3.006900	3.516800	-10.573000	25.409433	0.000791	20.857489
1345.338988	-2.999100	3.517400	-10.548000	25.407099	0.000793	20.885489
1346.340354	-3.021900	3.515700	-10.623000	25.395294	0.000791	20.876007
1347.340509	-2.993600	3.518000	-10.530000	25.414606	0.000789	20.853675
1348.342395	-3.006900	3.516100	-10.571000	25.400193	0.000790	20.877133
1349.343394	-2.985000	3.517300	-10.498000	25.403521	0.000789	20.874785
1350.341346	-3.031500	3.513800	-10.650000	25.416969	0.000787	20.860789
1351.341939	-3.017900	3.515800	-10.609000	25.421144	0.000788	20.870196
1352.343016	-2.999200	3.514700	-10.540000	25.438840	0.000789	20.845767
1353.341334	-2.984100	3.515200	-10.488000	25.454124	0.000789	20.860641
1354.341699	-3.003500	3.514100	-10.553000	25.463098	0.000786	20.864910
1355.342170	-3.008500	3.514200	-10.571000	25.430692	0.000786	20.865559
1356.345611	-2.988400	3.513400	-10.498000	25.452238	0.000785	20.875341
1357.341401	-2.964900	3.513800	-10.417000	25.438967	0.000784	20.881928
1358.345254	-2.989000	3.514900	-10.505000	25.474607	0.000783	20.875518
1359.343760	-2.996400	3.513600	-10.527000	25.478332	0.000785	20.874992
1360.342063	-2.984300	3.512800	-10.483000	25.504303	0.000782	20.865985
1361.344692	-2.978700	3.513200	-10.464000	25.490661	0.000783	20.879785
1362.342897	-2.978200	3.511500	-10.457000	25.501520	0.000783	20.864613
1363.342112	-2.988900	3.512200	-10.497000	25.539565	0.000783	20.888593
1364.345986	-3.000000	3.513300	-10.539000	25.507785	0.000781	20.874223
1365.344141	-3.008300	3.510400	-10.559000	25.521700	0.000782	20.881558
1366.343477	-3.002200	3.511300	-10.539000	25.513923	0.000782	20.882283
1367.348495	-2.997100	3.511200	-10.522000	25.546204	0.000781	20.855908
1368.346069	-2.999300	3.510400	-10.528000	25.518123	0.000781	20.875595
1369.346739	-3.007800	3.509000	-10.554000	25.495436	0.000781	20.889796
1370.349952	-3.006400	3.509700	-10.551000	25.468525	0.000780	20.876523
1371.344472	-3.009900	3.508200	-10.558000	25.448966	0.000779	20.869684
1372.347164	-2.987000	3.509600	-10.482000	25.430030	0.000777	20.880541
1373.352001	-3.008900	3.508300	-10.556000	25.412534	0.000777	20.885731
1374.350070	-3.010400	3.507300	-10.557000	25.437935	0.000776	20.892745
1375.347770	-3.003000	3.506700	-10.530000	25.488406	0.000776	20.881314
1376.350616	-3.028100	3.507100	-10.619000	25.524119	0.000775	20.909115
1377.349008	-3.001700	3.507300	-10.527000	25.524988	0.000774	20.871585
1378.346798	-3.005600	3.506300	-10.538000	25.514649	0.000775	20.887279
1379.351907	-3.000000	3.506900	-10.520000	25.531399	0.000774	20.867117
1380.349327	-3.005400	3.505000	-10.533000	25.532343	0.000775	20.896039
1381.348329	-3.013800	3.505600	-10.564000	25.573147	0.000775	20.880593
1382.352148	-3.004900	3.506100	-10.535000	25.590441	0.000772	20.895590
1383.350604	-3.012400	3.504400	-10.555000	25.553240	0.000773	20.903748
1384.349012	-2.987700	3.505100	-10.472000	25.542183	0.000773	20.903075
1385.356603	-2.962600	3.506400	-10.386000	25.538951	0.000773	20.893666
1386.353182	-2.994200	3.505300	-10.493000	25.510822	0.000770	20.898133
1387.350108	-2.998600	3.504400	-10.507000	25.488853	0.000771	20.881289
1388.357382	-3.014100	3.501700	-10.554000	25.481546	0.000770	20.895761
1389.354531	-3.013000	3.503300	-10.554000	25.484404	0.000770	20.900053
1390.350389	-2.964700	3.503400	-10.386000	25.521282	0.000769	20.896310
1391.356740	-3.015400	3.500900	-10.556000	25.493373	0.000770	20.899577
1392.354198	-2.998200	3.503200	-10.501000	25.506271	0.000770	20.917743
1393.350804	-2.993700	3.503100	-10.486000	25.484526	0.000768	20.896383
1394.359184	-2.983200	3.502600	-10.448000	25.495359	0.000768	20.892563
1395.352539	-3.012900	3.500700	-10.547000	25.443272	0.000767	20.900475
1396.351607	-3.010000	3.499400	-10.532000	25.433951	0.000766	20.917666
1397.352966	-3.013800	3.500700	-10.548000	25.420008	0.000768	20.919312
1398.354431	-3.001400	3.499600	-10.503000	25.406265	0.000765	20.909780
1399.351901	-3.018800	3.499100	-10.562000	25.369160	0.000764	20.917566
1400.358622	-2.981000	3.499800	-10.431000	25.349476	0.000764	20.906338
1401.354396	-3.021500	3.498400	-10.569000	25.334140	0.000765	20.907534
1402.353164	-3.013800	3.497500	-10.540000	25.317339	0.000762	20.905364
1403.357357	-2.999200	3.496500	-10.485000	25.308044	0.000763	20.911204
1404.356738	-3.000200	3.498000	-10.494000	25.320670	0.000762	20.897329
1405.354496	-2.989800	3.497100	-10.454000	25.322212	0.000763	20.911678
1406.356623	-2.991000	3.497600	-10.460000	25.352981	0.000764	20.912227
1407.356252	-3.007200	3.496400	-10.513000	25.385267	0.000763	20.911929
1408.352471	-3.010700	3.495300	-10.522000	25.411288	0.000763	20.902497
1409.357053	-3.014500	3.494800	-10.533000	25.406566	0.000764	20.916246
1410.355936	-3.007500	3.495000	-10.509000	25.436289	0.000761	20.903894
1411.352011	-2.999300	3.495800	-10.484000	25.457638	0.000761	20.912528
1412.357040	-3.001100	3.495400	-10.489000	25.489573	0.000758	20.900976
1413.355526	-3.007700	3.494800	-10.511000	25.510073	0.000760	20.942896
1414.356589	-3.008100	3.493500	-10.507000	25.512411	0.000761	20.924383
1415.355613	-2.987000	3.494300	-10.436000	25.530848	0.000759	20.922035
1416.357112	-2.996500	3.494100	-10.469000	25.574309	0.000757	20.885554
1417.353795	-2.998200	3.493000	-10.471000	25.579677	0.000758	20.939777
1418.355971	-2.999600	3.492100	-10.474000	25.598612	0.000756	20.915174
1419.355253	-2.999600	3.491300	-10.471000	25.647986	0.000756	20.930147
1420.356359	-2.994200	3.492600	-10.455000	25.671318	0.000756	20.933192
1421.360956	-3.024000	3.490000	-10.551000	25.637128	0.000755	20.937259
1422.358428	-2.982600	3.491800	-10.414000	25.642196	0.000753	20.927651
1423.356727	-2.996100	3.490800	-10.458000	25.607982	0.000755	20.915101
1424.365986	-3.020400	3.488800	-10.537000	25.652409	0.000756	20.935538
1425.361241	-2.988600	3.489600	-10.427000	25.664384	0.000752	20.928125
1426.358212	-3.009500	3.488000	-10.497000	25.690823	0.000753	20.935239
1427.359534	-2.997000	3.490700	-10.460000	25.673726	0.000753	20.908587
1428.360962	-3.021300	3.487300	-10.534000	25.720139	0.000753	20.933391
1429.358582	-3.000300	3.487900	-10.464000	25.738079	0.000752	20.946193
1430.358670	-2.985700	3.488100	-10.414000	25.741159	0.000750	20.929374
1431.357854	-3.006700	3.487300	-10.484000	25.744041	0.000752	20.945544
1432.365929	-2.989800	3.488100	-10.427000	25.756315	0.000747	20.936062
1433.357786	-3.028400	3.484600	-10.551000	25.738651	0.000749	20.930648
1434.358305	-3.017100	3.485300	-10.513000	25.730626	0.000748	20.931597
1435.361090	-3.007600	3.486900	-10.486000	25.720018	0.000750	20.928528
1436.360624	-2.997000	3.485900	-10.446000	25.691545	0.000748	20.924111
1437.359903	-2.988300	3.485200	-10.414000	25.667990	0.000748	20.926532
1438.359864	-2.969900	3.485900	-10.351000	25.649429	0.000747	20.910736
1439.359615	-2.976000	3.485900	-10.373000	25.629900	0.000748	20.933320
1440.360471	-3.014200	3.483000	-10.497000	25.621180	0.000747	20.942578
1441.360550	-2.988500	3.482800	-10.407000	25.631171	0.000747	20.934596
1442.361622	-2.999000	3.483100	-10.444000	25.640214	0.000748	20.923290
1443.361058	-3.006800	3.482900	-10.470000	25.604209	0.000745	20.946870
1444.361992	-3.005700	3.483200	-10.468000	25.568652	0.000744	20.933921
1445.362073	-2.998700	3.482700	-10.442000	25.557870	0.000743	20.940162
1446.361396	-2.987800	3.482700	-10.404000	25.526087	0.000742	20.931952
1447.367328	-3.015900	3.480800	-10.496000	25.551458	0.000742	20.947471
1448.363276	-3.015800	3.480500	-10.496000	25.541892	0.000742	20.925540
1449.363445	-2.990200	3.480900	-10.406000	25.582568	0.000743	20.951688
1450.363342	-2.987200	3.480100	-10.395000	25.616463	0.000743	20.919825
1451.363185	-3.007900	3.478700	-10.463000	25.636144	0.000743	20.926315
1452.367299	-3.010800	3.479400	-10.474000	25.659077	0.000740	20.925640
1453.365709	-3.016400	3.478300	-10.490000	25.688419	0.000742	20.933773
1454.365735	-3.002700	3.478700	-10.444000	25.703602	0.000740	20.933850
1455.366244	-2.991000	3.478300	-10.402000	25.664022	0.000739	20.929184
1456.369503	-2.996500	3.478100	-10.421000	25.655997	0.000738	20.912591
1457.371381	-3.012900	3.477000	-10.475000	25.631050	0.000739	20.907925
1458.368988	-3.009000	3.476800	-10.460000	25.592462	0.000738	20.925118
1459.368838	-2.999400	3.477600	-10.429000	25.571664	0.000736	20.924145
1460.370270	-3.014800	3.476300	-10.479000	25.589954	0.000736	20.929711
1461.367840	-2.981400	3.478400	-10.369000	25.641611	0.000735	20.910471
1462.371144	-2.977100	3.475800	-10.346000	25.662157	0.000734	20.914036
1463.371018	-2.985000	3.475900	-10.374000	25.660071	0.000734	20.915260
1464.371922	-2.989300	3.475700	-10.388000	25.668519	0.000734	20.911891
1465.371475	-2.993900	3.475000	-10.402000	25.681710	0.000735	20.894322
1466.372416	-2.981100	3.475800	-10.361000	25.703723	0.000732	20.904577
1467.374262	-2.994800	3.474500	-10.404000	25.704270	0.000730	20.911289
1468.373907	-3.013300	3.473500	-10.466000	25.725063	0.000730	20.918898
1469.373923	-3.016300	3.473200	-10.475000	25.726033	0.000732	20.923664
1470.374128	-3.013500	3.473200	-10.465000	25.740662	0.000729	20.909437
1471.374216	-3.005200	3.472400	-10.435000	25.745878	0.000730	20.899978
1472.373209	-2.985600	3.473100	-10.369000	25.750498	0.000731	20.891818
1473.375081	-2.983100	3.474100	-10.362000	25.773329	0.000731	20.893887
1474.374195	-3.009100	3.470500	-10.442000	25.768657	0.000731	20.906262
1475.375289	-2.999000	3.471800	-10.411000	25.733873	0.000727	20.911626
1476.375189	-2.986700	3.472300	-10.369000	25.728181	0.000729	20.885997
1477.376137	-3.019600	3.469400	-10.475000	25.685967	0.000729	20.891960
1478.378417	-3.007900	3.471300	-10.441000	25.692799	0.000727	20.910199
1479.378927	-3.027000	3.469600	-10.501000	25.667454	0.000728	20.893280
1480.377479	-2.983900	3.470100	-10.354000	25.679206	0.000729	20.899867
1481.375446	-2.993600	3.469900	-10.386000	25.674831	0.000726	20.893576
1482.382907	-3.006200	3.469400	-10.428000	25.684520	0.000725	20.867274
1483.376755	-3.009000	3.468400	-10.435000	25.711601	0.000724	20.892102
1484.377760	-2.991000	3.469600	-10.377000	25.684965	0.000723	20.871514
1485.379572	-2.990100	3.467700	-10.367000	25.657759	0.000724	20.877853
1486.377951	-2.997700	3.467100	-10.392000	25.698281	0.000724	20.867820
1487.376276	-3.007800	3.464700	-10.420000	25.658626	0.000722	20.877302
1488.379758	-3.011100	3.465100	-10.433000	25.614521	0.000723	20.888480
1489.380125	-2.991400	3.465200	-10.365000	25.583434	0.000722	20.882864
1490.380352	-2.994000	3.466900	-10.379000	25.540345	0.000723	20.865670
1491.382380	-3.013400	3.464800	-10.440000	25.552569	0.000722	20.852343
1492.382774	-2.997400	3.464500	-10.384000	25.564795	0.000721	20.872206
1493.381429	-3.001900	3.463900	-10.397000	25.580772	0.000721	20.868338
1494.382238	-3.018300	3.463100	-10.452000	25.611235	0.000719	20.874750
1495.381514	-2.994200	3.463700	-10.370000	25.636752	0.000721	20.888048
1496.380418	-2.999300	3.464700	-10.391000	25.666619	0.000721	20.874424
1497.382606	-3.016600	3.461500	-10.441000	25.676482	0.000718	20.872003
1498.382286	-2.990800	3.463000	-10.357000	25.688158	0.000718	20.887522
1499.380148	-2.972300	3.464700	-10.297000	25.694519	0.000716	20.889170
1500.385314	-2.982700	3.463300	-10.330000	25.677223	0.000717	20.857575
1501.382871	-3.010700	3.461700	-10.419000	25.707511	0.000718	20.878986
1502.385286	-2.983700	3.461200	-10.326000	25.682863	0.000717	20.860395
1503.383891	-2.992900	3.460700	-10.356000	25.720777	0.000718	20.888042
1504.386634	-2.994100	3.461100	-10.361000	25.664400	0.000716	20.863188
1505.384933	-2.996100	3.461200	-10.368000	25.678987	0.000715	20.864562
1506.384496	-2.990500	3.460100	-10.347000	25.670362	0.000715	20.859693
1507.383805	-2.963700	3.459900	-10.252000	25.669048	0.000715	20.861692
1508.382422	-2.997900	3.458600	-10.367000	25.697371	0.000714	20.876388
1509.385916	-2.995900	3.459000	-10.360000	25.718142	0.000714	20.874491
1510.383097	-2.991900	3.456600	-10.341000	25.707482	0.000714	20.859518
1511.383988	-2.981000	3.457500	-10.306000	25.673120	0.000711	20.864834
1512.385465	-3.027900	3.456400	-10.464000	25.658808	0.000711	20.857571
1513.384126	-3.001300	3.456800	-10.372000	25.658906	0.000713	20.845342
1514.389045	-2.999100	3.457600	-10.368000	25.684795	0.000712	20.860439
1515.387381	-3.004700	3.455900	-10.382000	25.673640	0.000711	20.859192
1516.384853	-3.003900	3.455200	-10.377000	25.641983	0.000713	20.835458
1517.383893	-2.983200	3.456000	-10.309000	25.666234	0.000711	20.855548
1518.386170	-3.033100	3.454700	-10.478000	25.632691	0.000710	20.846988
1519.386271	-2.990600	3.454500	-10.330000	25.638156	0.000708	20.849158
1520.385186	-3.018500	3.453600	-10.422000	25.624438	0.000710	20.865252
1521.389910	-3.026600	3.452500	-10.448000	25.664442	0.000709	20.845213
1522.385983	-3.000100	3.453400	-10.359000	25.688292	0.000708	20.848304
1523.386686	-3.014700	3.451900	-10.406000	25.667745	0.000707	20.858961
1524.388004	-2.990700	3.455500	-10.333000	25.644015	0.000705	20.858835
1525.386757	-3.015000	3.452000	-10.407000	25.574663	0.000705	20.841341
1526.388778	-2.949500	3.453500	-10.185000	25.625452	0.000706	20.850149
1527.392562	-2.991600	3.451100	-10.324000	25.646969	0.000703	20.840940
1528.387425	-3.001000	3.451300	-10.355000	25.649325	0.000705	20.828134
1529.391151	-2.988900	3.450700	-10.312000	25.682669	0.000704	20.863519
1530.390891	-2.972800	3.451800	-10.261000	25.725401	0.000702	20.846223
1531.390038	-2.982100	3.451800	-10.293000	25.743637	0.000706	20.847944
1532.389874	-2.998700	3.449700	-10.343000	25.767757	0.000703	20.833766
1533.393802	-2.977400	3.451100	-10.274000	25.767360	0.000703	20.820565
1534.389781	-2.975000	3.451100	-10.266000	25.729864	0.000701	20.845965
1535.389324	-2.996200	3.449900	-10.335000	25.690011	0.000702	20.850505
1536.392114	-2.989300	3.451100	-10.314000	25.688393	0.000702	20.856941
1537.389334	-2.997700	3.448100	-10.335000	25.683771	0.000701	20.849453
1538.390042	-2.991100	3.448100	-10.312000	25.724018	0.000700	20.839618
1539.393116	-2.981000	3.448900	-10.280000	25.737356	0.000702	20.845429
1540.390513	-2.987800	3.447900	-10.301000	25.733900	0.000700	20.832475
1541.391292	-3.027100	3.446500	-10.432000	25.738546	0.000699	20.837615
1542.393875	-3.021900	3.446000	-10.411000	25.727240	0.000700	20.832423
1543.391509	-3.007200	3.446200	-10.362000	25.706839	0.000700	20.829002
1544.391541	-3.000300	3.445300	-10.336000	25.697718	0.000698	20.853505
1545.394111	-2.974600	3.447600	-10.254000	25.706586	0.000698	20.836808
1546.391415	-2.994800	3.446600	-10.320000	25.721568	0.000698	20.842847
1547.390490	-2.991000	3.444900	-10.303000	25.728200	0.000698	20.849508
1548.393585	-2.997400	3.444700	-10.325000	25.709862	0.000697	20.832512
1549.392567	-3.004900	3.444600	-10.349000	25.722358	0.000697	20.846960
1550.391369	-2.992300	3.444200	-10.306000	25.726830	0.000694	20.846709
1551.392038	-2.992600	3.442300	-10.300000	25.697809	0.000695	20.820406
1552.390879	-3.004500	3.442100	-10.340000	25.708415	0.000697	20.842439
1553.393725	-2.988600	3.442300	-10.287000	25.717158	0.000695	20.823246
1554.392972	-2.994800	3.443600	-10.311000	25.648185	0.000695	20.817032
1555.390561	-2.989500	3.442000	-10.289000	25.621325	0.000694	20.826091
1556.391874	-2.993100	3.442200	-10.301000	25.608277	0.000693	20.839064
1557.392859	-3.004300	3.441800	-10.340000	25.631807	0.000693	20.831877
1558.391666	-3.034700	3.439100	-10.435000	25.645251	0.000694	20.824516
1559.392473	-2.988300	3.441600	-10.284000	25.669001	0.000690	20.821344
1560.394400	-3.007100	3.439200	-10.342000	25.694096	0.000693	20.819048
1561.392851	-3.008700	3.439300	-10.347000	25.698541	0.000691	20.832995
1562.391028	-3.011800	3.437600	-10.352000	25.722121	0.000692	20.828705
1563.397205	-3.016200	3.438200	-10.369000	25.728406	0.000691	20.833594
1564.392603	-3.000200	3.438100	-10.313000	25.762990	0.000693	20.815702
1565.390839	-2.998500	3.437200	-10.305000	25.760283	0.000689	20.816302
1566.394427	-2.994100	3.438200	-10.293000	25.795385	0.000689	20.817896
1567.394215	-2.984100	3.437800	-10.258000	25.764082	0.000688	20.807790
1568.393949	-3.015100	3.436700	-10.361000	25.760577	0.000688	20.825132
1569.397565	-2.990500	3.438600	-10.282000	25.770490	0.000689	20.819442
1570.395497	-3.013700	3.435500	-10.352000	25.785942	0.000689	20.817894
1571.395047	-3.011100	3.435300	-10.343000	25.786911	0.000687	20.812704
1572.398128	-3.009000	3.435700	-10.336000	25.806165	0.000686	20.824457
1573.395184	-3.017300	3.435500	-10.364000	25.806088	0.000684	20.813001
1574.396530	-3.011100	3.435400	-10.343000	25.818088	0.000687	20.802770
1575.396935	-3.026800	3.433200	-10.390000	25.798212	0.000686	20.817891
1576.396258	-3.006900	3.433700	-10.324000	25.793493	0.000686	20.820737
1577.396994	-3.021900	3.432100	-10.370000	25.765766	0.000683	20.800946
1578.398212	-2.981300	3.432900	-10.233000	25.728474	0.000682	20.815171
1579.395845	-2.983500	3.433500	-10.243000	25.729790	0.000684	20.799898
1580.395811	-2.981700	3.431700	-10.231000	25.724747	0.000686	20.794358
1581.402134	-2.987400	3.434000	-10.257000	25.728449	0.000683	20.814672
1582.395737	-2.967000	3.432700	-10.183000	25.761964	0.000684	20.794757
1583.396536	-3.003300	3.432500	-10.307000	25.781541	0.000681	20.780282
1584.400208	-3.009200	3.429800	-10.320000	25.772649	0.000683	20.807386
1585.399594	-3.020100	3.430600	-10.359000	25.769243	0.000681	20.797327
1586.397172	-2.993600	3.431000	-10.270000	25.798808	0.000681	20.797153
1587.397098	-3.001900	3.430900	-10.298000	25.767706	0.000681	20.820438
1588.399029	-3.004300	3.429200	-10.301000	25.794065	0.000679	20.803294
1589.398455	-3.011400	3.429800	-10.326000	25.821043	0.000678	20.813799
1590.399043	-3.011000	3.428400	-10.322000	25.823355	0.000680	20.826078
1591.398211	-2.988800	3.428100	-10.245000	25.833740	0.000679	20.804741
1592.397128	-3.017800	3.428400	-10.344000	25.807061	0.000678	20.819667
1593.399295	-2.992200	3.428200	-10.257000	25.766366	0.000679	20.803446
1594.397274	-2.989500	3.428300	-10.248000	25.755406	0.000676	20.802394
1595.398165	-2.983400	3.426800	-10.222000	25.739509	0.000677	20.787375
1596.400021	-2.992600	3.426400	-10.253000	25.739010	0.000675	20.808211
1597.397757	-2.995200	3.426800	-10.262000	25.720055	0.000676	20.808612
1598.401451	-3.008900	3.427100	-10.311000	25.730715	0.000674	20.812206
1599.401710	-2.976800	3.426300	-10.199000	25.698341	0.000674	20.814777
1600.398959	-3.001000	3.425800	-10.280000	25.717351	0.000675	20.801628
1601.398895	-2.972900	3.426400	-10.185000	25.746642	0.000675	20.796910
1602.399113	-2.988400	3.425800	-10.235000	25.752580	0.000674	20.800504
1603.398969	-3.011600	3.423400	-10.307000	25.735585	0.000673	20.800977
1604.399357	-3.005900	3.424200	-10.291000	25.719387	0.000672	20.804622
1605.403153	-3.015000	3.423500	-10.320000	25.721500	0.000673	20.789200
1606.398651	-3.016800	3.423300	-10.326000	25.734642	0.000671	20.779642
1607.399614	-3.020700	3.422300	-10.335000	25.743761	0.000674	20.788327
1608.401865	-3.003300	3.422300	-10.277000	25.746246	0.000673	20.794142
1609.399187	-3.003400	3.422300	-10.277000	25.703066	0.000670	20.797237
1610.399765	-3.005900	3.421800	-10.284000	25.717924	0.000670	20.781341
1611.404011	-3.001600	3.422000	-10.270000	25.724904	0.000669	20.773179
1612.401132	-2.980400	3.421600	-10.196000	25.756309	0.000667	20.798085
1613.401314	-3.003000	3.420100	-10.268000	25.762620	0.000668	20.782139
1614.405266	-2.984700	3.420300	-10.207000	25.726274	0.000669	20.798737
1615.402142	-3.021900	3.418300	-10.329000	25.726968	0.000669	20.788529
1616.404541	-2.986400	3.420100	-10.213000	25.716385	0.000667	20.788330
1617.408687	-2.985700	3.420100	-10.209000	25.732385	0.000669	20.770736
1618.403658	-2.995300	3.420200	-10.242000	25.735740	0.000665	20.788330
1619.403355	-3.000500	3.419200	-10.258000	25.758648	0.000667	20.770089
1620.406333	-3.001400	3.417300	-10.256000	25.791443	0.000666	20.797341
1621.402419	-3.011800	3.417600	-10.293000	25.790898	0.000665	20.801535
1622.403689	-3.002200	3.417700	-10.259000	25.799817	0.000664	20.779200
1623.407792	-2.996000	3.417700	-10.237000	25.813480	0.000666	20.786287
1624.405035	-2.997400	3.418100	-10.244000	25.790526	0.000664	20.782195
1625.405973	-2.976400	3.416300	-10.167000	25.774898	0.000663	20.792102
1626.407320	-2.979000	3.416400	-10.177000	25.768913	0.000662	20.796996
1627.406024	-2.974800	3.417600	-10.166000	25.737733	0.000663	20.763305
1628.405932	-2.992000	3.415700	-10.218000	25.765361	0.000662	20.786790
1629.407990	-2.994300	3.415300	-10.224000	25.747771	0.000662	20.776233
1630.406055	-3.004200	3.415500	-10.259000	25.711820	0.000661	20.775210
1631.406698	-3.000700	3.413600	-10.242000	25.714306	0.000661	20.791458
1632.407453	-3.010800	3.414400	-10.278000	25.738978	0.000661	20.784471
1633.407106	-2.998800	3.412200	-10.232000	25.767944	0.000661	20.774685
1634.408076	-2.986100	3.414100	-10.194000	25.769464	0.000659	20.779531
1635.415325	-3.025700	3.412100	-10.323000	25.787426	0.000658	20.789513
1636.405832	-3.007800	3.412500	-10.263000	25.829312	0.000660	20.768525
1637.407426	-3.007500	3.412800	-10.263000	25.842703	0.000660	20.770597
1638.409589	-3.008200	3.411900	-10.262000	25.857882	0.000658	20.775414
1639.408027	-2.989300	3.412700	-10.201000	25.853338	0.000657	20.771798
1640.408954	-2.978600	3.411400	-10.159000	25.872566	0.000656	20.789216
1641.408308	-2.981200	3.410800	-10.167000	25.860520	0.000658	20.780435
1642.407375	-2.988000	3.412700	-10.195000	25.864321	0.000655	20.783305
1643.409774	-3.002200	3.410400	-10.237000	25.880395	0.000655	20.780961
1644.409767	-2.989600	3.408600	-10.190000	25.901263	0.000657	20.790544
1645.409299	-3.004600	3.410200	-10.246000	25.878979	0.000654	20.780961
1646.407995	-2.998100	3.407900	-10.216000	25.865318	0.000655	20.767237
1647.411507	-2.986100	3.409700	-10.181000	25.829024	0.000652	20.778193
1648.410690	-2.993300	3.408500	-10.202000	25.803387	0.000657	20.787053
1649.411552	-2.984000	3.407300	-10.166000	25.803289	0.000654	20.785058
1650.418372	-2.972200	3.408200	-10.129000	25.800629	0.000653	20.774326
1651.409650	-3.018500	3.407000	-10.283000	25.810469	0.000653	20.768089
1652.410067	-3.020700	3.407400	-10.291000	25.809352	0.000650	20.772183
1653.412491	-3.004300	3.406300	-10.232000	25.842221	0.000652	20.787656
1654.411401	-2.999200	3.405800	-10.213000	25.826993	0.000652	20.760506
1655.411273	-3.033600	3.404300	-10.325000	25.783841	0.000650	20.775006
1656.415374	-2.980900	3.406500	-10.153000	25.788040	0.000651	20.762628
1657.411723	-2.980300	3.405400	-10.148000	25.789532	0.000651	20.757489
1658.412711	-3.001500	3.405300	-10.220000	25.825531	0.000651	20.770891
1659.413401	-2.995400	3.404600	-10.198000	25.830551	0.000651	20.769769
1660.414084	-3.011100	3.403900	-10.248000	25.813435	0.000649	20.774862
1661.413085	-2.994200	3.404200	-10.192000	25.824591	0.000649	20.772792
1662.415414	-2.998400	3.405100	-10.209000	25.806529	0.000647	20.773140
1663.414401	-2.980300	3.403500	-10.142000	25.856194	0.000647	20.750010
1664.415215	-2.982400	3.403600	-10.150000	25.852071	0.000646	20.765783
1665.418358	-2.998500	3.403100	-10.203000	25.887695	0.000649	20.776440
1666.415097	-3.008300	3.402000	-10.233000	25.891001	0.000646	20.759372
1667.416141	-2.991500	3.401500	-10.175000	25.879898	0.000646	20.778090
1668.416324	-3.006700	3.401200	-10.225000	25.846286	0.000647	20.778464
1669.415833	-2.973000	3.403800	-10.118000	25.820452	0.000643	20.767211
1670.417601	-3.012100	3.400700	-10.242000	25.796206	0.000643	20.788375
1671.418717	-2.967600	3.401100	-10.091000	25.758370	0.000644	20.773603
1672.418583	-2.982000	3.400700	-10.139000	25.740432	0.000644	20.747049
1673.420032	-3.003800	3.399500	-10.210000	25.755614	0.000642	20.768464
1674.420502	-3.012700	3.400100	-10.243000	25.755739	0.000640	20.759580
1675.420012	-3.000200	3.398200	-10.195000	25.760062	0.000641	20.772932
1676.422245	-2.977000	3.399500	-10.120000	25.765852	0.000639	20.767842
1677.421786	-3.001800	3.398600	-10.201000	25.754895	0.000640	20.753042
1678.421599	-3.006100	3.397300	-10.212000	25.741877	0.000639	20.747078
1679.419981	-2.992600	3.399100	-10.172000	25.726796	0.000640	20.756587
1680.421124	-2.986500	3.397100	-10.144000	25.762572	0.000637	20.756961
1681.419955	-2.997100	3.397300	-10.180000	25.784683	0.000639	20.760205
1682.420616	-2.988100	3.396300	-10.147000	25.753379	0.000640	20.757684
1683.421117	-2.995200	3.397400	-10.175000	25.769181	0.000637	20.768341
1684.425547	-3.009500	3.395500	-10.219000	25.793378	0.000635	20.751394
1685.422478	-2.994100	3.397500	-10.172000	25.778150	0.000637	20.782566
1686.424909	-3.011200	3.394200	-10.220000	25.778349	0.000635	20.774705
1687.421732	-2.987200	3.395000	-10.141000	25.804583	0.000636	20.773082
1688.422298	-3.024000	3.393500	-10.261000	25.789104	0.000634	20.764646
1689.423435	-3.001700	3.395500	-10.191000	25.765155	0.000636	20.747701
1690.422861	-3.017200	3.394000	-10.239000	25.784136	0.000636	20.762975
1691.423394	-3.004600	3.392400	-10.192000	25.799514	0.000634	20.767042
1692.421918	-3.015700	3.392200	-10.229000	25.793253	0.000631	20.759804
1693.424499	-3.012900	3.391800	-10.219000	25.802321	0.000632	20.765120
1694.425210	-2.990700	3.394100	-10.150000	25.771140	0.000633	20.765567
1695.423982	-2.998100	3.391400	-10.166000	25.737028	0.000631	20.760226
1696.424634	-3.003800	3.392200	-10.188000	25.725750	0.000632	20.779719
1697.424003	-2.966000	3.392300	-10.060000	25.680554	0.000629	20.774152
1698.423331	-2.980400	3.391700	-10.107000	25.708879	0.000631	20.759453
1699.422896	-2.989500	3.391300	-10.137000	25.726193	0.000630	20.754559
1700.423254	-2.982600	3.390900	-10.112000	25.715860	0.000629	20.745602
1701.425123	-3.001000	3.389800	-10.172000	25.699512	0.000629	20.759528
1702.424222	-3.003300	3.389900	-10.180000	25.716977	0.000628	20.779915
1703.424302	-3.005700	3.389000	-10.185000	25.703711	0.000627	20.756159
1704.427660	-2.981100	3.389300	-10.103000	25.722891	0.000629	20.746026
1705.425751	-3.015600	3.388300	-10.216000	25.759191	0.000628	20.749297
1706.426023	-2.994400	3.388900	-10.147000	25.754544	0.000624	20.763121
1707.430839	-3.011100	3.388200	-10.200000	25.781028	0.000625	20.764120
1708.426262	-3.015000	3.387900	-10.214000	25.807736	0.000624	20.741161
1709.426340	-3.021500	3.387000	-10.233000	25.843734	0.000625	20.773055
1710.426970	-2.997400	3.387000	-10.151000	25.843135	0.000625	20.774825
1711.426536	-3.008500	3.386800	-10.188000	25.831435	0.000622	20.770184
1712.427079	-2.990300	3.385200	-10.121000	25.865694	0.000623	20.757657
1713.430828	-3.016200	3.385500	-10.211000	25.869171	0.000621	20.763520
1714.426113	-2.987700	3.384700	-10.112000	25.888474	0.000621	20.761101
1715.428093	-3.004500	3.384200	-10.166000	25.878238	0.000620	20.775474
1716.428680	-3.025100	3.385800	-10.241000	25.865941	0.000622	20.756483
1717.429270	-2.971600	3.386400	-10.061000	25.828551	0.000621	20.756381
1718.428840	-3.005400	3.383800	-10.169000	25.810614	0.000618	20.778666
1719.432161	-2.986900	3.385500	-10.109000	25.755137	0.000619	20.766562
1720.429676	-2.984100	3.383500	-10.095000	25.734466	0.000619	20.770929
1721.427042	-3.018500	3.381700	-10.206000	25.736178	0.000618	20.780235
1722.439412	-2.961500	3.383600	-10.020000	25.734115	0.000616	20.762516
1723.428407	-3.002400	3.382300	-10.154000	25.703826	0.000616	20.780931
1724.428434	-2.991600	3.382800	-10.118000	25.696371	0.000617	20.761115
1725.433010	-2.980300	3.383200	-10.081000	25.722753	0.000617	20.780027
1726.430420	-3.019500	3.381200	-10.209000	25.761262	0.000616	20.775559
1727.429301	-2.990300	3.382200	-10.113000	25.794502	0.000615	20.780974
1728.433424	-2.990200	3.381300	-10.109000	25.853677	0.000617	20.762655
1729.429430	-2.987000	3.381600	-10.100000	25.869451	0.000615	20.748628
1730.429245	-3.006600	3.379800	-10.160000	25.881546	0.000612	20.775953
1731.435326	-3.012900	3.380700	-10.184000	25.869125	0.000613	20.754939
1732.429693	-3.004000	3.380700	-10.155000	25.857323	0.000613	20.747351
1733.429255	-3.005800	3.379800	-10.159000	25.830938	0.000616	20.754986
1734.433439	-3.013000	3.380900	-10.186000	25.819658	0.000615	20.774000
1735.431095	-3.006000	3.378500	-10.154000	25.809943	0.000613	20.753336
1736.429982	-3.000100	3.379900	-10.138000	25.739584	0.000611	20.776071
1737.435709	-3.008600	3.378100	-10.162000	25.728453	0.000611	20.772476
1738.430905	-2.994100	3.379200	-10.115000	25.704575	0.000612	20.760820
1739.432889	-2.971100	3.379800	-10.040000	25.704700	0.000612	20.785128
1740.435615	-2.981100	3.378800	-10.070000	25.706412	0.000610	20.769303
1741.432403	-3.011700	3.376600	-10.168000	25.713268	0.000609	20.760543
1742.432127	-3.003100	3.376400	-10.138000	25.755853	0.000609	20.780084
1743.432340	-2.981700	3.377000	-10.069000	25.778385	0.000608	20.788492
1744.433602	-3.015600	3.376300	-10.181000	25.825764	0.000606	20.782505
1745.433590	-2.976000	3.377100	-10.049000	25.845489	0.000609	20.767231
1746.437953	-2.984300	3.376200	-10.074000	25.850383	0.000608	20.769778
1747.432922	-3.010800	3.375300	-10.162000	25.847154	0.000607	20.758947
1748.432539	-3.017000	3.374100	-10.179000	25.871176	0.000607	20.790191
1749.437682	-3.000400	3.375000	-10.126000	25.863799	0.000607	20.773771
1750.437845	-2.987700	3.373400	-10.078000	25.886180	0.000606	20.788669
1751.437897	-2.999200	3.373300	-10.116000	25.848545	0.000606	20.762715
1752.439279	-3.029000	3.372100	-10.213000	25.836994	0.000604	20.776716
1753.436968	-3.003700	3.371300	-10.125000	25.814460	0.000605	20.754080
1754.436427	-2.972500	3.374200	-10.029000	25.798411	0.000604	20.769727
1755.438407	-2.994600	3.371900	-10.097000	25.810064	0.000601	20.779536
1756.436537	-2.999400	3.372100	-10.114000	25.795754	0.000603	20.757100
1757.439283	-2.988900	3.372200	-10.079000	25.823354	0.000603	20.779136
1758.439218	-2.995700	3.371800	-10.100000	25.837689	0.000600	20.779311
1759.438561	-2.989900	3.371700	-10.080000	25.806858	0.000601	20.778212
1760.438720	-2.985300	3.372400	-10.067000	25.816124	0.000601	20.788943
1761.441467	-3.018700	3.369900	-10.171000	25.789963	0.000603	20.765508
1762.442017	-2.998600	3.369100	-10.101000	25.795082	0.000599	20.783927
1763.437400	-3.017300	3.369400	-10.165000	25.771206	0.000599	20.789342
1764.442907	-3.001000	3.370500	-10.114000	25.791801	0.000598	20.768303
1765.446578	-2.985500	3.370500	-10.062000	25.834011	0.000598	20.766607
1766.443616	-2.988500	3.369500	-10.068000	25.857287	0.000599	20.767230
1767.443182	-2.979600	3.368400	-10.036000	25.863747	0.000595	20.772771
1768.442474	-2.990300	3.368500	-10.071000	25.891221	0.000597	20.789939
1769.442229	-2.987400	3.368900	-10.063000	25.923862	0.000596	20.803291
1770.447437	-2.980700	3.368700	-10.040000	25.930718	0.000596	20.772719
1771.444087	-2.984900	3.367300	-10.050000	25.944257	0.000594	20.789640
1772.443959	-3.001400	3.366600	-10.103000	25.963109	0.000597	20.791510
1773.444345	-3.008600	3.367500	-10.130000	25.964350	0.000594	20.800344
1774.444476	-2.996200	3.367300	-10.088000	26.003792	0.000592	20.765054
1775.444888	-2.974700	3.367000	-10.014000	25.980369	0.000592	20.795575
1776.446476	-3.002400	3.366200	-10.104000	25.982430	0.000594	20.800490
1777.444879	-2.992400	3.365800	-10.071000	25.958408	0.000594	20.786788
1778.446623	-2.973200	3.365700	-10.006000	25.991769	0.000592	20.782372
1779.447457	-3.001900	3.365600	-10.101000	26.020978	0.000593	20.782794
1780.448440	-2.990700	3.364700	-10.062000	26.052871	0.000593	20.772164
1781.446997	-2.991400	3.364100	-10.062000	26.037046	0.000591	20.774283
1782.454536	-3.016900	3.363800	-10.147000	26.025845	0.000590	20.789107
1783.449891	-3.005000	3.363700	-10.107000	26.014939	0.000588	20.789055
1784.449672	-2.981300	3.363900	-10.028000	25.980512	0.000586	20.777700
1785.451208	-2.995700	3.362800	-10.073000	25.951797	0.000590	20.795319
1786.450943	-3.021400	3.360700	-10.153000	25.906039	0.000587	20.792972
1787.451008	-3.017100	3.360600	-10.139000	25.888002	0.000588	20.808043
1788.450410	-2.991700	3.361400	-10.054000	25.876648	0.000586	20.803274
1789.449625	-2.998200	3.362400	-10.079000	25.895080	0.000587	20.797609
1790.449629	-3.027000	3.360600	-10.171000	25.920790	0.000586	20.793566
1791.457293	-3.012000	3.360400	-10.121000	25.933854	0.000586	20.788672
1792.450331	-2.983600	3.361100	-10.027000	25.977100	0.000586	20.806989
1793.451450	-2.991600	3.360900	-10.054000	25.981894	0.000586	20.798055
1794.457056	-2.999000	3.359100	-10.073000	25.958218	0.000586	20.801770
1795.450597	-3.006500	3.358500	-10.097000	25.947265	0.000584	20.795981
1796.452190	-2.977700	3.360700	-10.005000	25.908835	0.000585	20.787720
1797.454775	-2.981100	3.358400	-10.011000	25.931040	0.000584	20.826622
1798.456458	-3.000800	3.357000	-10.073000	25.961518	0.000582	20.794180
1799.450600	-2.994400	3.357500	-10.052000	26.004488	0.000582	20.790884
1800.457263	-2.990000	3.358200	-10.040000	26.023316	0.000584	20.784670
1801.450996	-2.981500	3.357400	-10.009000	26.046588	0.000582	20.790508
1802.452587	-3.022000	3.356600	-10.142000	26.084167	0.000580	20.795548
1803.456571	-3.028300	3.355100	-10.159000	26.117497	0.000582	20.792054
1804.452447	-2.999400	3.356100	-10.064000	26.144569	0.000579	20.802187
1805.453123	-3.010600	3.356200	-10.103000	26.180901	0.000578	20.804081
1806.457576	-3.019400	3.355200	-10.130000	26.158226	0.000580	20.821600
1807.457168	-3.030300	3.355800	-10.168000	26.171961	0.000579	20.806003
1808.456569	-3.004100	3.355000	-10.077000	26.179907	0.000579	20.814937
1809.454854	-2.994500	3.355600	-10.048000	26.173424	0.000579	20.804629
1810.457014	-2.986900	3.356000	-10.023000	26.199179	0.000577	20.810120
1811.453974	-3.013800	3.353400	-10.104000	26.169874	0.000578	20.804854
1812.460275	-2.991900	3.354400	-10.035000	26.138356	0.000577	20.813962
1813.456774	-2.995300	3.353700	-10.045000	26.138778	0.000576	20.813437
1814.456078	-3.002700	3.353900	-10.070000	26.081978	0.000575	20.811841
1815.462821	-2.989900	3.354400	-10.029000	26.033768	0.000574	20.813663
1816.457156	-3.003100	3.352500	-10.067000	26.031036	0.000575	20.815185
1817.455361	-3.000900	3.352700	-10.061000	26.058383	0.000573	20.829859
1818.462759	-3.020100	3.350400	-10.116000	26.074973	0.000572	20.811441
1819.458579	-2.993000	3.353000	-10.035000	26.096557	0.000573	20.829809
1820.456485	-2.982900	3.351900	-9.997800	26.083120	0.000572	20.811092
1821.465378	-3.005200	3.350600	-10.068000	26.117643	0.000571	20.825865
1822.458568	-3.002800	3.351600	-10.062000	26.097204	0.000572	20.824768
1823.456898	-2.994300	3.351800	-10.036000	26.089949	0.000571	20.805626
1824.460818	-3.019700	3.350300	-10.117000	26.097923	0.000572	20.817431
1825.459498	-2.998800	3.349400	-10.044000	26.113147	0.000571	20.824667
1826.457561	-3.016400	3.348900	-10.100000	26.126262	0.000570	20.834999
1827.457452	-3.008200	3.350900	-10.079000	26.149309	0.000573	20.807898
1828.457275	-3.004300	3.349600	-10.063000	26.149756	0.000569	20.797916
1829.456573	-2.982100	3.350400	-9.990700	26.150502	0.000568	20.822373
1830.457772	-3.005100	3.348700	-10.063000	26.159740	0.000568	20.812689
1831.458190	-3.006800	3.347200	-10.063000	26.143597	0.000566	20.820650
1832.458638	-2.991100	3.347300	-10.011000	26.132247	0.000566	20.831530
1833.459953	-3.004100	3.347300	-10.055000	26.142555	0.000566	20.836672
1834.457783	-2.998500	3.347600	-10.037000	26.132594	0.000566	20.832827
1835.460367	-2.989300	3.347700	-10.006000	26.099314	0.000565	20.819777
1836.460907	-2.999600	3.346600	-10.038000	26.073112	0.000565	20.836597
1837.462708	-3.022000	3.346000	-10.110000	26.039456	0.000565	20.809895
1838.461658	-2.977800	3.346800	-9.965000	26.027360	0.000562	20.828562
1839.460654	-3.002800	3.346400	-10.047000	26.044599	0.000564	20.828812
1840.460986	-2.992600	3.344900	-10.008000	26.055553	0.000562	20.836024
1841.462528	-2.998000	3.344600	-10.025000	26.077209	0.000562	20.838817
1842.463969	-3.007200	3.344700	-10.056000	26.077681	0.000561	20.826016
1843.462787	-2.987300	3.344700	-9.990800	26.123605	0.000562	20.839442
1844.463263	-2.989600	3.345000	-9.999400	26.149756	0.000560	20.839166
1845.463840	-2.991000	3.343100	-9.998000	26.150254	0.000560	20.851046
1846.464756	-2.981600	3.343400	-9.967800	26.208988	0.000558	20.847477
1847.463736	-2.957000	3.345500	-9.891500	26.154126	0.000558	20.850195
1848.468234	-2.995800	3.341800	-10.010000	26.128644	0.000555	20.826962
1849.464934	-3.021600	3.340600	-10.094000	26.153257	0.000560	20.833201
1850.466423	-3.001000	3.342000	-10.027000	26.192991	0.000557	20.826187
1851.466598	-3.015900	3.341000	-10.074000	26.205730	0.000556	20.850841
1852.469777	-2.991400	3.340400	-9.991800	26.209554	0.000556	20.845201
1853.465517	-3.022300	3.341300	-10.097000	26.206349	0.000555	20.863791
1854.465993	-2.988300	3.340800	-9.982500	26.151934	0.000556	20.847518
1855.466756	-3.002900	3.339500	-10.027000	26.122031	0.000554	20.844972
1856.466729	-2.988900	3.340200	-9.982000	26.068382	0.000556	20.843224
1857.466858	-3.017700	3.338300	-10.073000	25.994811	0.000551	20.845171
1858.466987	-3.004900	3.339300	-10.032000	25.986984	0.000552	20.850109
1859.468159	-3.000800	3.338800	-10.017000	25.969348	0.000551	20.837607
1860.468870	-2.980100	3.338100	-9.946400	25.941623	0.000552	20.845789
1861.468065	-2.973100	3.339100	-9.925800	25.972424	0.000549	20.836904
1862.468675	-2.973100	3.338600	-9.925000	25.941622	0.000551	20.846735
1863.468988	-3.011800	3.336000	-10.045000	25.966310	0.000551	20.841667
1864.471673	-2.970500	3.338300	-9.915600	26.019565	0.000549	20.834005
1865.470611	-3.000200	3.337300	-10.012000	26.052772	0.000549	20.863575
1866.470278	-3.008300	3.337400	-10.039000	26.070281	0.000548	20.840391
1867.471658	-3.004300	3.337000	-10.025000	26.062284	0.000550	20.860804
1868.471114	-3.009700	3.335600	-10.038000	26.103687	0.000547	20.859730
1869.470770	-2.998400	3.336200	-10.002000	26.113271	0.000548	20.861300
1870.470278	-2.976700	3.337700	-9.934600	26.123229	0.000547	20.836693
1871.470836	-3.015700	3.335600	-10.058000	26.147592	0.000548	20.860699
1872.471755	-2.993200	3.334900	-9.980800	26.165100	0.000550	20.842730
1873.471900	-2.993900	3.335400	-9.984800	26.176300	0.000546	20.855406
1874.472616	-2.986400	3.333700	-9.954600	26.170461	0.000546	20.841480
1875.473235	-3.011000	3.333800	-10.037000	26.206397	0.000544	20.851986
1876.476384	-2.999500	3.333100	-9.997100	26.232498	0.000547	20.858774
1877.472715	-2.994500	3.333300	-9.980500	26.245235	0.000545	20.854503
1878.472761	-2.999900	3.332900	-9.997100	26.274639	0.000545	20.877887
1879.475186	-2.997000	3.332200	-9.984800	26.285762	0.000543	20.851134
1880.480546	-3.003700	3.331000	-10.004000	26.277543	0.000544	20.863737
1881.475355	-3.001100	3.332900	-10.001000	26.290804	0.000541	20.872796
1882.475495	-3.004800	3.331200	-10.009000	26.294876	0.000543	20.863138
1883.476717	-3.003800	3.330400	-10.003000	26.274561	0.000543	20.862163
1884.476227	-2.988800	3.331400	-9.955400	26.214341	0.000542	20.859968
1885.477816	-2.981000	3.331100	-9.928900	26.197279	0.000540	20.882650
1886.478274	-2.992500	3.330100	-9.964700	26.162981	0.000540	20.870946
1887.476453	-2.957900	3.330200	-9.848900	26.150713	0.000540	20.878058
1888.477208	-3.013900	3.329600	-10.034000	26.166284	0.000540	20.860041
1889.478691	-2.997200	3.328400	-9.974700	26.199984	0.000539	20.860240
1890.477834	-3.010700	3.328300	-10.018000	26.239719	0.000540	20.870297
1891.476559	-3.021300	3.328300	-10.054000	26.253920	0.000538	20.862757
1892.477983	-3.006700	3.327600	-10.004000	26.283720	0.000537	20.856195
1893.477948	-3.019000	3.326800	-10.043000	26.267454	0.000535	20.878253
1894.482119	-3.010700	3.327400	-10.017000	26.288039	0.000537	20.883293
1895.479328	-2.984800	3.328200	-9.933100	26.322555	0.000536	20.869143
1896.481713	-2.985700	3.327500	-9.934200	26.344952	0.000535	20.877901
1897.480154	-3.016400	3.325700	-10.030000	26.339661	0.000536	20.869265
1898.481050	-2.998000	3.325200	-9.967900	26.355427	0.000535	20.876101
1899.493339	-2.977400	3.326700	-9.903700	26.374498	0.000532	20.883414
1900.482094	-2.993400	3.325800	-9.953600	26.407645	0.000532	20.871210
1901.482820	-3.008500	3.324300	-9.999900	26.408834	0.000533	20.891844
1902.481776	-2.998700	3.324100	-9.967000	26.417299	0.000532	20.874275
1903.481586	-3.016200	3.322100	-10.019000	26.412208	0.000531	20.872952
1904.481884	-2.993800	3.325900	-9.956400	26.424025	0.000531	20.881983
1905.481176	-2.998700	3.325100	-9.969400	26.394602	0.000530	20.876593
1906.480946	-3.006300	3.323000	-9.988700	26.363214	0.000528	20.873022
1907.483191	-2.991700	3.324000	-9.943700	26.313327	0.000529	20.877413
1908.482591	-3.007800	3.324900	-9.999200	26.286755	0.000528	20.876313
1909.484538	-3.000500	3.323400	-9.971200	26.295269	0.000529	20.928961
1910.483240	-3.026800	3.322800	-10.057000	26.321069	0.000529	20.898942
1911.484704	-3.006300	3.322600	-9.986700	26.334152	0.000528	20.886013
1912.484886	-2.988200	3.322200	-9.925600	26.302167	0.000526	20.902231
1913.486771	-2.986100	3.321600	-9.917300	26.285528	0.000526	20.894044
1914.485005	-2.993400	3.321600	-9.941600	26.295235	0.000526	20.881990
1915.484171	-2.998200	3.320800	-9.955300	26.322251	0.000526	20.873105
1916.486764	-3.014200	3.321500	-10.009000	26.330321	0.000527	20.870310
1917.486105	-3.009300	3.318300	-9.984600	26.362126	0.000525	20.889945
1918.486928	-3.005900	3.320300	-9.979400	26.376377	0.000525	20.891940
1919.487821	-2.980800	3.320100	-9.896200	26.387004	0.000524	20.895982
1920.487267	-3.004200	3.317800	-9.965900	26.384024	0.000524	20.894409
1921.487980	-2.997500	3.317100	-9.942000	26.429288	0.000522	20.880635
1922.491076	-2.994600	3.317800	-9.934500	26.398797	0.000523	20.888394
1923.487633	-3.010500	3.317000	-9.983600	26.407759	0.000523	20.915417
1924.488337	-3.004300	3.316500	-9.962200	26.399814	0.000523	20.881356
1925.489950	-3.009000	3.317500	-9.980800	26.416051	0.000520	20.893408
1926.487621	-3.017400	3.316400	-10.005000	26.425535	0.000523	20.874018
1927.489549	-3.022600	3.315600	-10.021000	26.435790	0.000520	20.895703
1928.487115	-3.028600	3.316100	-10.041000	26.453220	0.000520	20.893308
1929.487700	-3.011500	3.315200	-9.982700	26.438049	0.000518	20.875690
1930.488090	-2.988400	3.317200	-9.911200	26.410563	0.000520	20.882203
1931.487688	-3.022200	3.314000	-10.015000	26.422530	0.000519	20.906082
1932.488057	-3.015600	3.315300	-9.997200	26.428787	0.000519	20.909526
1933.488578	-3.018300	3.314700	-10.004000	26.460791	0.000516	20.890013
1934.487674	-2.995800	3.314400	-9.928000	26.467196	0.000514	20.915414
1935.489799	-3.003500	3.313400	-9.950900	26.503494	0.000515	20.890261
1936.493721	-3.020800	3.312500	-10.005000	26.456644	0.000514	20.899119
1937.489065	-3.001800	3.313700	-9.946100	26.459027	0.000515	20.894403
1938.487478	-3.017100	3.312000	-9.991900	26.436036	0.000516	20.901166
1939.491016	-3.029800	3.312300	-10.034000	26.396706	0.000513	20.878233
1940.488642	-3.005300	3.311200	-9.950100	26.363708	0.000513	20.895802
1941.491811	-2.980700	3.311600	-9.869600	26.380963	0.000514	20.888963
1942.493315	-3.003200	3.312000	-9.944900	26.354469	0.000509	20.903111
1943.493112	-3.000700	3.311400	-9.935300	26.335476	0.000511	20.881654
1944.492205	-3.021900	3.310300	-10.001000	26.339473	0.000511	20.897997
1945.496265	-3.012800	3.310300	-9.972000	26.337064	0.000510	20.883724
1946.491767	-2.989100	3.310500	-9.895000	26.362242	0.000512	20.897173
1947.493329	-2.991500	3.310800	-9.902900	26.377960	0.000509	20.882151
1948.494901	-2.990000	3.309700	-9.895400	26.408179	0.000511	20.879807
1949.492270	-3.004800	3.309400	-9.943600	26.425136	0.000507	20.891160
1950.492177	-2.987500	3.310000	-9.888200	26.402791	0.000506	20.877711
1951.515079	-2.997800	3.310000	-9.921700	26.384266	0.000507	20.885170
1952.494236	-3.002600	3.306800	-9.927700	26.400530	0.000506	20.874016
1953.495327	-3.010800	3.308100	-9.959600	26.416545	0.000505	20.877784
1954.498133	-3.003200	3.307400	-9.932200	26.438594	0.000508	20.868178
1955.495303	-2.993500	3.308200	-9.902400	26.451057	0.000507	20.880704
1956.497379	-3.057200	3.305000	-10.103000	26.484526	0.000504	20.868352
1957.504080	-2.995800	3.307900	-9.908700	26.511861	0.000502	20.864060
1958.500364	-2.984800	3.306700	-9.869100	26.530133	0.000503	20.855400
1959.497377	-2.992100	3.307200	-9.893600	26.536614	0.000504	20.869974
1960.504478	-2.994200	3.306100	-9.898300	26.569211	0.000503	20.881878
1961.499438	-3.002200	3.304900	-9.921500	26.581325	0.000502	20.862762
1962.500608	-3.004400	3.305200	-9.928300	26.603645	0.000500	20.866707
1963.503390	-3.006500	3.304200	-9.932400	26.610049	0.000499	20.880256
1964.500923	-2.990200	3.304400	-9.880200	26.621469	0.000502	20.855702
1965.502382	-3.015200	3.304600	-9.961600	26.670571	0.000499	20.879932
1966.504470	-3.003600	3.304500	-9.925000	26.683355	0.000499	20.868604
1967.502255	-2.989800	3.304200	-9.877400	26.674419	0.000500	20.854879
1968.501417	-2.994500	3.304100	-9.893700	26.673055	0.000499	20.858724
1969.505857	-3.009200	3.301900	-9.934300	26.676928	0.000499	20.866410
1970.501443	-3.003100	3.301800	-9.914100	26.649051	0.000498	20.863041
1971.503455	-3.003200	3.301400	-9.913100	26.653792	0.000496	20.867333
1972.508805	-3.008600	3.302700	-9.934900	26.622837	0.000494	20.858500
1973.501864	-2.989600	3.301400	-9.868800	26.621771	0.000495	20.852687
1974.507491	-2.989300	3.301400	-9.868000	26.613480	0.000496	20.879438
1975.504214	-3.012000	3.300100	-9.939400	26.632745	0.000491	20.866563
1976.502776	-2.984100	3.300200	-9.847400	26.653174	0.000494	20.868134
1977.502750	-2.986600	3.300800	-9.857200	26.642401	0.000492	20.867261
1978.507236	-2.983700	3.300900	-9.846900	26.615170	0.000490	20.849371
1979.503012	-2.999500	3.300800	-9.900100	26.614498	0.000490	20.863393
1980.503805	-3.007500	3.299600	-9.921700	26.605262	0.000489	20.862643
1981.507797	-2.991300	3.298600	-9.865800	26.606628	0.000488	20.838412
1982.507200	-3.007800	3.298200	-9.919000	26.616533	0.000488	20.864016
1983.505960	-3.007400	3.296900	-9.914100	26.635226	0.000490	20.847721
1984.512591	-3.013100	3.297000	-9.933200	26.613057	0.000487	20.846772
1985.505955	-3.000400	3.296200	-9.889200	26.611120	0.000488	20.857627
1986.507275	-2.990600	3.295600	-9.854700	26.626461	0.000487	20.837962
1987.513803	-2.996800	3.296600	-9.876800	26.622538	0.000487	20.863889
1988.507610	-2.970700	3.297200	-9.794900	26.613552	0.000486	20.839209
1989.509453	-2.972100	3.295700	-9.793900	26.633138	0.000487	20.843725
1990.515857	-3.006200	3.294900	-9.904300	26.588030	0.000487	20.852907
1991.511906	-2.994500	3.294500	-9.864300	26.578322	0.000486	20.854529
1992.510284	-3.014300	3.294300	-9.929300	26.595650	0.000484	20.856300
1993.522545	-3.028500	3.292600	-9.970400	26.586266	0.000483	20.839755
1994.520042	-3.018900	3.293400	-9.941700	26.626407	0.000482	20.836011
1995.509951	-3.016100	3.293300	-9.932200	26.596766	0.000481	20.849362
1996.521025	-3.014700	3.293400	-9.928500	26.595946	0.000483	20.838106
1997.515035	-3.014500	3.293000	-9.925100	26.576456	0.000481	20.854075
1998.516227	-3.009500	3.292500	-9.907700	26.530950	0.000479	20.832515
1999.515211	-2.999900	3.292300	-9.876300	26.527697	0.000480	20.848210
2000.516264	-3.009000	3.292400	-9.905200	26.463890	0.000479	20.845714
2001.514773	-3.005700	3.292700	-9.896100	26.463541	0.000479	20.841097
2002.518490	-3.019700	3.290400	-9.934400	26.451299	0.000477	20.841120
2003.515017	-3.010000	3.291100	-9.904400	26.480397	0.000477	20.823901
2004.519210	-2.974500	3.291500	-9.789300	26.513988	0.000476	20.843439
2005.512959	-2.996100	3.289000	-9.853400	26.568556	0.000475	20.835703
2006.512525	-3.007600	3.291000	-9.896500	26.560039	0.000476	20.865547
2007.515728	-2.996700	3.289500	-9.856400	26.569397	0.000473	20.833229
2008.518357	-2.998200	3.290000	-9.862700	26.611599	0.000474	20.829660
2009.517664	-3.018600	3.288100	-9.924400	26.579474	0.000473	20.858531
2010.512537	-2.998400	3.289200	-9.861800	26.542506	0.000474	20.849346
2011.519677	-3.005600	3.287900	-9.881300	26.495755	0.000475	20.851191
2012.512607	-2.997600	3.288900	-9.858400	26.444758	0.000474	20.841184
2013.515549	-2.997300	3.287600	-9.853200	26.409226	0.000470	20.822541
2014.518064	-2.983100	3.287600	-9.805900	26.410070	0.000470	20.840932
2015.517313	-3.027000	3.285600	-9.942800	26.434747	0.000470	20.825907
2016.518567	-3.019100	3.285200	-9.918000	26.459848	0.000469	20.840230
2017.518863	-2.989600	3.287000	-9.825400	26.517497	0.000470	20.826105
2018.519264	-2.999500	3.285700	-9.854500	26.551211	0.000468	20.833440
2019.516886	-3.015000	3.285100	-9.904300	26.568662	0.000468	20.816844
2020.518520	-2.982900	3.285400	-9.799700	26.561064	0.000469	20.822957
2021.517406	-2.999600	3.285800	-9.854300	26.600981	0.000468	20.805711
2022.514596	-3.010500	3.284300	-9.886100	26.624540	0.000465	20.809005
2023.519893	-2.999000	3.284400	-9.849000	26.650057	0.000466	20.828018
2024.520278	-3.001300	3.284200	-9.855400	26.639407	0.000463	20.827743
2025.518395	-3.001000	3.285000	-9.855700	26.622425	0.000463	20.815888
2026.516837	-2.986500	3.283000	-9.803500	26.653330	0.000462	20.814239
2027.514857	-2.993700	3.282300	-9.824500	26.634983	0.000463	20.799589
2028.519746	-2.994400	3.282800	-9.829300	26.652332	0.000462	20.813236
2029.520359	-2.975600	3.283600	-9.769400	26.687754	0.000463	20.794793
2030.520882	-2.979800	3.281900	-9.777500	26.711235	0.000462	20.825985
2031.518954	-2.996000	3.282600	-9.832900	26.696886	0.000461	20.810137
2032.518815	-2.999900	3.280900	-9.841700	26.708003	0.000459	20.823210
2033.514388	-2.979100	3.280300	-9.770500	26.697576	0.000460	20.814150
2034.516135	-2.996300	3.281500	-9.831900	26.682532	0.000457	20.827001
2035.519492	-3.025200	3.281000	-9.924000	26.639958	0.000459	20.811228
2036.520756	-2.973900	3.281300	-9.756600	26.624168	0.000457	20.833760
2037.516050	-3.016900	3.278900	-9.891000	26.605571	0.000458	20.800367
2038.520688	-3.004000	3.278900	-9.849200	26.652489	0.000454	20.835204
2039.516690	-2.980200	3.279300	-9.772300	26.650078	0.000458	20.819504
2040.518896	-2.999200	3.278800	-9.833100	26.645832	0.000455	20.809546
2041.520523	-3.002200	3.279000	-9.842800	26.688376	0.000455	20.801108
2042.519437	-3.006100	3.278400	-9.853600	26.696045	0.000454	20.819723
2043.518635	-3.005800	3.278600	-9.853500	26.709870	0.000453	20.782887
2044.524680	-3.006500	3.277600	-9.853300	26.756036	0.000453	20.811284
2045.519895	-3.031900	3.276500	-9.932700	26.749978	0.000451	20.793814
2046.527334	-3.011400	3.275400	-9.861800	26.741710	0.000452	20.806838
2047.524305	-3.003600	3.276700	-9.839900	26.706709	0.000450	20.809107
2048.519608	-2.996100	3.275800	-9.813300	26.754514	0.000451	20.795056
2049.528094	-2.997700	3.276400	-9.820400	26.751261	0.000448	20.808379
2050.526039	-3.022000	3.274600	-9.894400	26.778637	0.000450	20.788489
2051.521287	-2.994100	3.275000	-9.804400	26.755899	0.000449	20.797395
2052.519111	-3.000900	3.273800	-9.823700	26.753415	0.000447	20.808175
2053.521861	-3.001200	3.273700	-9.824100	26.737477	0.000447	20.802108
2054.523383	-3.022700	3.272800	-9.891500	26.682568	0.000450	20.803330
2055.519411	-3.003300	3.272500	-9.827600	26.664619	0.000448	20.797613
2056.522783	-2.996800	3.273200	-9.808600	26.650468	0.000446	20.786706
2057.520829	-3.007500	3.272300	-9.840800	26.659651	0.000444	20.808740
2058.519874	-3.023500	3.270600	-9.887800	26.654982	0.000444	20.788873
2059.522758	-2.995200	3.273100	-9.802600	26.637430	0.000442	20.809161
2060.520688	-3.020000	3.271200	-9.877700	26.655847	0.000444	20.788795
2061.521613	-3.009300	3.269900	-9.839700	26.691119	0.000445	20.813348
2062.524639	-2.990700	3.270500	-9.779200	26.700202	0.000443	20.785971
2063.520850	-2.986200	3.271000	-9.766900	26.732147	0.000439	20.784422
2064.528351	-3.003500	3.269700	-9.819800	26.735224	0.000442	20.778506
2065.523983	-3.007200	3.268700	-9.828200	26.719584	0.000442	20.797395
2066.525959	-3.001700	3.268900	-9.810200	26.718417	0.000439	20.779626
2067.524190	-2.989500	3.268900	-9.771500	26.727598	0.000439	20.763727
2068.526618	-3.003600	3.268000	-9.814400	26.732139	0.000436	20.796267
2069.526389	-3.004800	3.267800	-9.818000	26.721068	0.000437	20.793197
2070.524673	-3.000100	3.266400	-9.798800	26.704484	0.000436	20.780318
2071.525908	-3.015500	3.267000	-9.850500	26.673231	0.000434	20.791572
2072.524984	-3.001900	3.267200	-9.806500	26.668960	0.000436	20.807193
2073.527116	-3.007100	3.266200	-9.819700	26.669107	0.000435	20.782211
2074.526750	-3.038500	3.264300	-9.917700	26.698296	0.000432	20.778365
2075.525331	-3.002100	3.266100	-9.803700	26.713313	0.000433	20.779711
2076.529618	-3.001500	3.266100	-9.801700	26.722074	0.000432	20.782355
2077.530015	-3.001200	3.265100	-9.797800	26.726069	0.000431	20.759344
2078.531552	-2.954900	3.265000	-9.646400	26.744287	0.000430	20.782402
2079.531940	-2.977500	3.265400	-9.721300	26.791049	0.000430	20.768725
2080.528439	-3.015200	3.262300	-9.835400	26.775013	0.000429	20.762559
2081.528059	-2.996600	3.262400	-9.774800	26.818521	0.000426	20.772639
2082.528301	-3.011400	3.262000	-9.821700	26.815591	0.000426	20.765426
2083.529667	-3.008800	3.262300	-9.814700	26.824847	0.000426	20.779474
2084.533246	-2.995500	3.262300	-9.770500	26.811667	0.000425	20.797990
2085.528937	-2.978000	3.262200	-9.713000	26.834523	0.000427	20.776401
2086.531189	-3.021100	3.261500	-9.852300	26.876815	0.000423	20.790002
2087.530707	-3.005900	3.261800	-9.803500	26.876367	0.000424	20.757782
2088.529903	-3.002300	3.261400	-9.789900	26.887583	0.000422	20.787552
2089.536808	-3.002000	3.260700	-9.787000	26.883660	0.000423	20.763219
2090.530336	-2.974200	3.260500	-9.695700	26.864299	0.000422	20.766985
2091.530559	-3.000600	3.259200	-9.778400	26.888522	0.000419	20.766211
2092.536178	-2.998000	3.258800	-9.768400	26.910508	0.000419	20.750387
2093.530381	-2.994800	3.258700	-9.758400	26.883009	0.000419	20.775367
2094.531474	-2.972100	3.260600	-9.689800	26.866379	0.000419	20.752955
2095.532248	-3.016300	3.257500	-9.824300	26.778415	0.000417	20.765980
2096.531946	-3.012300	3.257500	-9.811700	26.742349	0.000418	20.747737
2097.534019	-2.970000	3.257700	-9.674100	26.756150	0.000418	20.743119
2098.534574	-2.984500	3.257800	-9.722100	26.717053	0.000415	20.757866
2099.534010	-2.987700	3.257500	-9.731200	26.761855	0.000415	20.730363
2100.535699	-2.996500	3.256200	-9.755900	26.758330	0.000415	20.746733
2101.537858	-3.009600	3.255900	-9.796800	26.768878	0.000415	20.754968
2102.534693	-2.996500	3.256600	-9.757200	26.762274	0.000414	20.752595
2103.537616	-2.997000	3.254600	-9.753100	26.754603	0.000413	20.756263
2104.538970	-3.019600	3.253900	-9.824500	26.798659	0.000412	20.746030
2105.538982	-3.002800	3.254200	-9.771000	26.794960	0.000411	20.735672
2106.538804	-2.975400	3.256300	-9.687900	26.813723	0.000412	20.748374
2107.542150	-3.006600	3.253900	-9.782500	26.830277	0.000412	20.764544
2108.543054	-2.985600	3.253100	-9.711200	26.798555	0.000409	20.733123
2109.540686	-2.999200	3.252400	-9.753800	26.831789	0.000410	20.746624
2110.541930	-2.995200	3.253200	-9.742100	26.823796	0.000410	20.740957
2111.538343	-2.990500	3.252800	-9.726700	26.822529	0.000410	20.738735
2112.540004	-2.983500	3.252500	-9.704300	26.830818	0.000409	20.719094
2113.540936	-3.027900	3.250800	-9.841000	26.785198	0.000410	20.756678
2114.539784	-2.989000	3.250600	-9.715100	26.782044	0.000408	20.727427
2115.542391	-3.005800	3.249400	-9.766600	26.795918	0.000407	20.736161
2116.541866	-3.013200	3.250300	-9.792500	26.781025	0.000404	20.731145
2117.542109	-3.007400	3.248600	-9.768300	26.819719	0.000403	20.739229
2118.542061	-2.979700	3.249900	-9.681700	26.848311	0.000404	20.749012
2119.541973	-2.995300	3.248700	-9.730200	26.870002	0.000403	20.739527
2120.541630	-2.982300	3.248100	-9.685700	26.899237	0.000401	20.751855
2121.542946	-2.998100	3.247800	-9.736400	26.890972	0.000401	20.738802
2122.541966	-2.988500	3.248300	-9.707100	26.835550	0.000399	20.739974
2123.545574	-3.004200	3.247100	-9.753700	26.777718	0.000402	20.741571
2124.543509	-3.029200	3.245600	-9.830700	26.753218	0.000396	20.718833
2125.542950	-3.007100	3.245900	-9.758800	26.764238	0.000398	20.729439
2126.543116	-3.020200	3.245800	-9.801500	26.789182	0.000398	20.726069
2127.544603	-3.005300	3.246500	-9.755800	26.773346	0.000398	20.727217
2128.543551	-3.037000	3.244800	-9.853600	26.781412	0.000398	20.729637
2129.545891	-2.995200	3.245800	-9.720200	26.822042	0.000397	20.727814
2130.546709	-3.001900	3.243600	-9.735100	26.839291	0.000395	20.737097
2131.544944	-2.957800	3.246300	-9.599600	26.888035	0.000393	20.711665
2132.545283	-2.982300	3.246000	-9.679700	26.889250	0.000394	20.736122
2133.545570	-2.993800	3.244200	-9.712000	26.880042	0.000392	20.722121
2134.545321	-2.984600	3.244500	-9.682500	26.847676	0.000389	20.726087
2135.563527	-3.005000	3.242400	-9.741900	26.805705	0.000392	20.717551
2136.547615	-3.001900	3.242900	-9.733200	26.828539	0.000392	20.735769
2137.547144	-3.017100	3.242500	-9.781600	26.834942	0.000390	20.708540
2138.547899	-2.991700	3.241200	-9.695200	26.830423	0.000389	20.743828
2139.548416	-2.993700	3.242300	-9.704300	26.835685	0.000387	20.714978
2140.550940	-2.998400	3.240100	-9.714100	26.826848	0.000387	20.712731
2141.549349	-2.971600	3.240300	-9.627600	26.864051	0.000386	20.714102
2142.549119	-3.000800	3.239900	-9.720700	26.933393	0.000388	20.714601
2143.550527	-2.996100	3.240000	-9.706900	26.929793	0.000386	20.718094
2144.553943	-2.979300	3.240000	-9.651300	26.924606	0.000386	20.717619
2145.548455	-3.011800	3.239500	-9.754200	26.938751	0.000386	20.699599
2146.553938	-2.984100	3.239200	-9.665100	26.960093	0.000384	20.717268
2147.554723	-2.980200	3.236900	-9.646200	26.979275	0.000384	20.717592
2148.550175	-2.981500	3.237100	-9.649200	27.019997	0.000382	20.707808
2149.552758	-2.979100	3.237600	-9.644400	27.037690	0.000382	20.711850
2150.553335	-2.986600	3.238100	-9.668900	26.989299	0.000382	20.695428
2151.550052	-3.015400	3.234500	-9.752800	26.966244	0.000382	20.690735
2152.552748	-3.005400	3.234800	-9.720500	26.982201	0.000380	20.717689
2153.557842	-2.984900	3.235400	-9.655500	26.995551	0.000379	20.706457
2154.549623	-2.996100	3.233600	-9.686500	26.990884	0.000377	20.690384
2155.551318	-2.987500	3.234000	-9.660600	27.038505	0.000378	20.700815
2156.552055	-2.981300	3.235500	-9.644400	27.048257	0.000377	20.694027
2157.554623	-3.006700	3.232700	-9.718700	27.046743	0.000378	20.692504
2158.552384	-2.985500	3.233400	-9.652000	27.029619	0.000376	20.697569
2159.554591	-2.971200	3.233700	-9.606500	27.027584	0.000374	20.698842
2160.552845	-3.003300	3.232600	-9.707900	27.018600	0.000375	20.713990
2161.553926	-2.997600	3.233200	-9.690300	26.976711	0.000373	20.700787
2162.553051	-2.992500	3.232700	-9.672600	26.940379	0.000372	20.692701
2163.551518	-3.011700	3.230700	-9.728800	26.882925	0.000371	20.708898
2164.551642	-3.024800	3.229100	-9.766000	26.842494	0.000368	20.701435
2165.555264	-2.991200	3.230300	-9.661500	26.871482	0.000370	20.699288
2166.552885	-3.002600	3.229400	-9.695700	26.917545	0.000369	20.689654
2167.553973	-3.003100	3.229400	-9.697400	26.982837	0.000367	20.700784
2168.562298	-3.000500	3.231500	-9.694300	27.019639	0.000368	20.690377
2169.553072	-2.991400	3.227100	-9.652000	27.018472	0.000368	20.710542
2170.557386	-2.974200	3.228700	-9.601300	27.074752	0.000369	20.698861
2171.556311	-3.005500	3.228200	-9.700500	27.079689	0.000366	20.700982
2172.555342	-2.979000	3.228500	-9.616900	27.106264	0.000370	20.673179
2173.554839	-3.006100	3.226600	-9.698200	27.131399	0.000364	20.688503
2174.556664	-3.001300	3.225800	-9.680300	27.097132	0.000366	20.705723
2175.554526	-2.996000	3.225900	-9.663300	27.070233	0.000364	20.681988
2176.559140	-2.995900	3.226200	-9.663200	27.072069	0.000363	20.699957
2177.562851	-3.017900	3.223800	-9.727600	27.091027	0.000363	20.686779
2178.555953	-3.004600	3.224600	-9.687400	27.124822	0.000361	20.686629
2179.559464	-2.974200	3.224300	-9.588200	27.146186	0.000361	20.687253
2180.561455	-2.996900	3.223200	-9.658100	27.210968	0.000361	20.698359
2181.559515	-3.003600	3.223600	-9.681700	27.213697	0.000360	20.703000
2182.561319	-3.012300	3.223300	-9.707900	27.211390	0.000360	20.688824
2183.561533	-3.012000	3.223100	-9.706800	27.191590	0.000357	20.686927
2184.559486	-3.001300	3.221600	-9.667200	27.132016	0.000358	20.698607
2185.561631	-2.990700	3.222300	-9.636500	27.136185	0.000359	20.691893
2186.563966	-2.996200	3.220900	-9.649500	27.134944	0.000357	20.679264
2187.562517	-3.015800	3.220700	-9.710700	27.105962	0.000357	20.677143
2188.563527	-2.977200	3.221000	-9.588500	27.119683	0.000355	20.663915
2189.565670	-3.002200	3.220100	-9.666600	27.102388	0.000354	20.692990
2190.562272	-2.978500	3.219700	-9.589100	27.070949	0.000354	20.693140
2191.563272	-2.984100	3.218100	-9.601800	27.064224	0.000355	20.700128
2192.566495	-3.013800	3.217700	-9.696400	27.051445	0.000354	20.685378
2193.565158	-2.981900	3.218500	-9.595700	27.044546	0.000353	20.673223
2194.563085	-3.007300	3.217100	-9.673600	27.026679	0.000352	20.674696
2195.565013	-3.002900	3.216300	-9.656500	27.003576	0.000353	20.666634
2196.563040	-3.037600	3.215200	-9.765300	26.975137	0.000352	20.679288
2197.563435	-3.003100	3.215600	-9.656500	26.977147	0.000351	20.685103
2198.564756	-3.009100	3.215800	-9.675900	26.949550	0.000350	20.699079
2199.562925	-3.009400	3.215500	-9.675800	26.940492	0.000348	20.689495
2200.564329	-2.984400	3.215500	-9.595000	26.914012	0.000347	20.676617
2201.565900	-3.004700	3.215400	-9.659200	26.933196	0.000348	20.712032
2202.563214	-2.967700	3.214600	-9.539100	26.941038	0.000347	20.679138
2203.565001	-2.998400	3.214400	-9.637000	26.974640	0.000347	20.666933
2204.565655	-2.983600	3.213500	-9.587000	27.005734	0.000347	20.687773
2205.564227	-3.006800	3.212000	-9.657200	27.010425	0.000346	20.677316
2206.565588	-2.988500	3.213000	-9.601400	27.035860	0.000345	20.678714
2207.565917	-2.989800	3.212300	-9.602800	27.074298	0.000343	20.672324
2208.563203	-2.983800	3.213600	-9.587700	27.110625	0.000344	20.682308
2209.563734	-3.008800	3.211800	-9.662700	27.152708	0.000343	20.695236
2210.564270	-3.016400	3.210400	-9.682900	27.187320	0.000342	20.673148
2211.563950	-2.993600	3.211200	-9.610900	27.182879	0.000342	20.709936
2212.564099	-2.996300	3.212000	-9.623400	27.169084	0.000337	20.678040
2213.564255	-3.028100	3.208700	-9.714700	27.167918	0.000340	20.674496
2214.565157	-2.990600	3.208700	-9.595100	27.215854	0.000339	20.691892
2215.564121	-3.010600	3.208200	-9.657600	27.233593	0.000338	20.699305
2216.565268	-2.985500	3.207700	-9.576200	27.236472	0.000336	20.688922
2217.567384	-2.997800	3.206600	-9.612400	27.260116	0.000339	20.671452
2218.566850	-3.010600	3.207500	-9.655400	27.266368	0.000336	20.695761
2219.566971	-2.988300	3.207000	-9.581900	27.278996	0.000337	20.699455
2220.565707	-3.001800	3.205000	-9.619100	27.313158	0.000337	20.689248
2221.568182	-2.976600	3.206100	-9.541800	27.295991	0.000335	20.673874
2222.566738	-2.999400	3.203900	-9.607900	27.299092	0.000337	20.704971
2223.567949	-3.002000	3.205900	-9.623500	27.332460	0.000335	20.681162
2224.569326	-3.016300	3.202900	-9.660600	27.305493	0.000333	20.705720
2225.567645	-3.014100	3.204200	-9.656700	27.311224	0.000331	20.676870
2226.568047	-3.014100	3.203400	-9.654500	27.311175	0.000330	20.703849
2227.569447	-3.012000	3.202200	-9.643800	27.311622	0.000330	20.684857
2228.575027	-3.013900	3.202500	-9.651500	27.288699	0.000328	20.683135
2229.571532	-3.004800	3.202300	-9.621600	27.303187	0.000331	20.719523
2230.569563	-2.989900	3.201900	-9.571600	27.312615	0.000329	20.692020
2231.570599	-2.998400	3.202900	-9.601900	27.314154	0.000330	20.695465
2232.571315	-2.979900	3.203100	-9.544100	27.322043	0.000329	20.707669
2233.573481	-2.968300	3.200400	-9.498800	27.354591	0.000327	20.686356
2234.574450	-2.996800	3.199800	-9.588300	27.395225	0.000328	20.697362
2235.570468	-3.005500	3.199400	-9.613600	27.411896	0.000327	20.717928
2236.572895	-2.995000	3.198600	-9.578700	27.457613	0.000325	20.690425
2237.575834	-2.965700	3.198900	-9.486000	27.447145	0.000326	20.699809
2238.570765	-3.000700	3.196600	-9.591400	27.410805	0.000324	20.691224
2239.573480	-2.985800	3.197300	-9.545100	27.365384	0.000324	20.717130
2240.576405	-2.983900	3.196600	-9.537600	27.350153	0.000324	20.686159
2241.570138	-3.002100	3.194900	-9.590100	27.323807	0.000323	20.684312
2242.575488	-2.985200	3.194600	-9.535100	27.268136	0.000324	20.706075
2243.578315	-2.994300	3.193600	-9.561200	27.243996	0.000320	20.709769
2244.572319	-2.966500	3.194700	-9.475200	27.190976	0.000324	20.701009
2245.573586	-2.996400	3.193700	-9.567800	27.141973	0.000321	20.711467
2246.572303	-2.999000	3.194200	-9.578300	27.121701	0.000323	20.704829
2247.571478	-3.011100	3.194700	-9.617300	27.073018	0.000320	20.715137
2248.575979	-3.003700	3.192500	-9.588000	27.041156	0.000322	20.705379
2249.573493	-3.026500	3.191700	-9.658400	27.045450	0.000319	20.700213
2250.573167	-3.022800	3.191200	-9.645400	27.100562	0.000320	20.688783
2251.576793	-2.979200	3.193400	-9.512800	27.123366	0.000319	20.701287
2252.573984	-2.994800	3.191000	-9.555400	27.142522	0.000315	20.676454
2253.574369	-2.981000	3.190500	-9.509800	27.205842	0.000318	20.714066
2254.576757	-2.976900	3.190700	-9.497000	27.216486	0.000316	20.694899
2255.575328	-3.005200	3.192100	-9.591800	27.273450	0.000316	20.710472
2256.575686	-3.025200	3.188400	-9.644200	27.271739	0.000315	20.714915
2257.578578	-2.993500	3.187100	-9.540400	27.319868	0.000314	20.706904
2258.575712	-3.000500	3.188800	-9.567200	27.328105	0.000314	20.725149
2259.578273	-2.992200	3.188100	-9.538500	27.354203	0.000315	20.702088
2260.578722	-3.026000	3.188100	-9.646100	27.364300	0.000314	20.710349
2261.577684	-3.021600	3.185300	-9.623400	27.374174	0.000313	20.716489
2262.578620	-3.018100	3.184800	-9.611000	27.388339	0.000312	20.714143
2263.580692	-3.000400	3.185900	-9.557200	27.364648	0.000312	20.730615
2264.581861	-2.983800	3.185000	-9.501700	27.374273	0.000308	20.702364
2265.578950	-2.992700	3.185000	-9.529600	27.367303	0.000310	20.722380
2266.581586	-3.013900	3.185000	-9.598300	27.351575	0.000309	20.724102
2267.578763	-3.009100	3.182900	-9.576600	27.328678	0.000310	20.728570
2268.579744	-2.997800	3.182200	-9.537700	27.288860	0.000309	20.722655
2269.586382	-3.026200	3.181300	-9.626100	27.241871	0.000309	20.710950
2270.581996	-2.993500	3.181400	-9.522200	27.226911	0.000306	20.718663
2271.583445	-2.979800	3.182100	-9.481400	27.244154	0.000308	20.737904
2272.581907	-2.969900	3.182100	-9.449500	27.287273	0.000306	20.725801
2273.581321	-3.008900	3.179500	-9.566400	27.297122	0.000307	20.693980
2274.581352	-3.024300	3.178800	-9.612000	27.307517	0.000305	20.713447
2275.582234	-2.995200	3.179200	-9.521300	27.358895	0.000305	20.724354
2276.582479	-2.972400	3.180700	-9.452900	27.400124	0.000304	20.725526
2277.586123	-3.012900	3.177300	-9.572200	27.442096	0.000304	20.722706
2278.583274	-3.003800	3.176100	-9.539500	27.473995	0.000304	20.737256
2279.584674	-3.026300	3.176100	-9.610100	27.495452	0.000304	20.729445
2280.582925	-2.991500	3.176800	-9.501800	27.512045	0.000303	20.721009
2281.583239	-2.996500	3.176100	-9.515700	27.537841	0.000304	20.720884
2282.584184	-2.999500	3.175900	-9.525100	27.530871	0.000302	20.730942
2283.583753	-2.987200	3.177000	-9.489000	27.565868	0.000303	20.743870
2284.585646	-3.016700	3.175800	-9.579400	27.603369	0.000299	20.736083
2285.583106	-2.988400	3.175400	-9.488500	27.636107	0.000299	20.719711
2286.584370	-3.001200	3.173200	-9.522200	27.651707	0.000296	20.727822
2287.584070	-2.994800	3.172900	-9.501000	27.679707	0.000297	20.727548
2288.583067	-3.008700	3.173700	-9.546200	27.636876	0.000296	20.751781
2289.584296	-3.013000	3.171700	-9.555200	27.596574	0.000298	20.745367
2290.584647	-2.995900	3.172900	-9.503900	27.575145	0.000296	20.737556
2291.585327	-2.989800	3.170100	-9.476600	27.596375	0.000294	20.746590
2292.584048	-2.967900	3.170500	-9.408500	27.605155	0.000297	20.723655
2293.585710	-2.976500	3.169500	-9.433400	27.637819	0.000293	20.752256
2294.588198	-2.989500	3.169300	-9.473400	27.636727	0.000295	20.752580
2295.589399	-2.999000	3.168400	-9.501000	27.619541	0.000295	20.742398
2296.584783	-3.007900	3.169000	-9.530700	27.642482	0.000294	20.731342
2297.587757	-3.006200	3.168600	-9.524600	27.657114	0.000295	20.745118
2298.588470	-3.013200	3.165900	-9.538600	27.608082	0.000295	20.739403
2299.584884	-3.028700	3.163800	-9.582000	27.567556	0.000294	20.756474
2300.587159	-2.996900	3.167300	-9.490800	27.546077	0.000292	20.752880
2301.590747	-2.983100	3.165700	-9.442500	27.524498	0.000292	20.725951
2302.586055	-2.980700	3.165800	-9.435100	27.540198	0.000290	20.751233
2303.588908	-2.973800	3.167800	-9.419800	27.499247	0.000291	20.742273
2304.586755	-2.981400	3.164000	-9.432400	27.458593	0.000288	20.745942
2305.586281	-3.009600	3.163500	-9.520500	27.445000	0.000287	20.752656
2306.589099	-2.996400	3.163300	-9.476900	27.428876	0.000289	20.746392
2307.589317	-2.994300	3.162500	-9.468600	27.371325	0.000287	20.750610
2308.591823	-3.009700	3.159500	-9.507700	27.385788	0.000287	20.758995
2309.591233	-2.999600	3.159400	-9.476500	27.421931	0.000287	20.761691
2310.591412	-3.007300	3.159300	-9.500400	27.475833	0.000288	20.757598
2311.588219	-2.985800	3.160200	-9.434100	27.477248	0.000283	20.765659
2312.596277	-3.011400	3.161600	-9.519200	27.502375	0.000283	20.740204
2313.592451	-3.021900	3.157700	-9.540400	27.496521	0.000286	20.768455
2314.591577	-3.024500	3.156600	-9.545700	27.468170	0.000284	20.774544
2315.593266	-2.993900	3.156300	-9.448700	27.466334	0.000282	20.766534
2316.590814	-3.014500	3.156600	-9.513800	27.465814	0.000280	20.756052
2317.592376	-3.002600	3.155700	-9.473800	27.499250	0.000282	20.766933
2318.594341	-2.970600	3.154900	-9.370300	27.541368	0.000283	20.755728
2319.592851	-2.982400	3.154700	-9.407100	27.572496	0.000277	20.772824
2320.591149	-3.004300	3.153600	-9.473100	27.630284	0.000281	20.752734
2321.594376	-2.994600	3.153300	-9.442000	27.644966	0.000278	20.760870
2322.592560	-3.018100	3.151400	-9.510500	27.676190	0.000279	20.749615
2323.596690	-3.011700	3.151300	-9.488400	27.699477	0.000279	20.757876
2324.596643	-2.992000	3.152300	-9.430200	27.723682	0.000279	20.768482
2325.595415	-2.988400	3.150700	-9.414300	27.714506	0.000278	20.779638
2326.596535	-2.988000	3.150000	-9.411600	27.693030	0.000278	20.773199
2327.599085	-2.997100	3.148900	-9.436400	27.698907	0.000279	20.766312
2328.594119	-3.003400	3.149400	-9.457600	27.692659	0.000277	20.771877
2329.593063	-2.983400	3.149400	-9.395100	27.695957	0.000276	20.777567
2330.593742	-3.006200	3.147000	-9.458300	27.680283	0.000275	20.769381
2331.592856	-2.994600	3.148400	-9.427600	27.661312	0.000275	20.773051
2332.597079	-2.997700	3.146800	-9.431900	27.595216	0.000277	20.766761
2333.593624	-2.991700	3.146200	-9.411900	27.569546	0.000275	20.778391
2334.594576	-3.010500	3.145700	-9.469300	27.596134	0.000274	20.779539
2335.595373	-2.995800	3.144600	-9.418300	27.607245	0.000275	20.795934
2336.595111	-3.009300	3.143400	-9.458000	27.648142	0.000274	20.774972
2337.596246	-3.005700	3.143200	-9.445900	27.626267	0.000276	20.780462
2338.598576	-2.988300	3.143400	-9.392400	27.625374	0.000274	20.788572
2339.597321	-2.999700	3.143300	-9.426300	27.635195	0.000274	20.801773
2340.597710	-2.992100	3.142500	-9.401600	27.656127	0.000274	20.783006
2341.598322	-2.978600	3.141600	-9.355700	27.676066	0.000273	20.792165
2342.600734	-2.998900	3.139200	-9.412800	27.687548	0.000270	20.780011
2343.600264	-2.992800	3.137800	-9.390000	27.690599	0.000272	20.782607
2344.600278	-3.001900	3.138600	-9.421000	27.690871	0.000270	20.781933
2345.599893	-3.026800	3.137000	-9.494100	27.670113	0.000271	20.788545
2346.599229	-3.005400	3.136900	-9.426800	27.636136	0.000271	20.780909
2347.600679	-2.985800	3.135900	-9.361000	27.620536	0.000271	20.807886
2348.602739	-2.989800	3.136000	-9.374400	27.658208	0.000271	20.791739
2349.602602	-2.999900	3.134900	-9.403400	27.645833	0.000271	20.795407
2350.602117	-3.003400	3.134700	-9.413900	27.623561	0.000271	20.805240
2351.603298	-2.986700	3.135800	-9.364100	27.599876	0.000269	20.810331
2352.602686	-3.013400	3.133100	-9.440100	27.549155	0.000269	20.796281
2353.602839	-2.988000	3.132600	-9.359100	27.514777	0.000267	20.788719
2354.603205	-3.023900	3.131700	-9.468900	27.540870	0.000267	20.815446
2355.602800	-2.998000	3.130700	-9.385100	27.567360	0.000268	20.783304
2356.601918	-2.988000	3.131700	-9.355700	27.621775	0.000267	20.815771
2357.602242	-2.997800	3.129100	-9.378800	27.652578	0.000268	20.806462
2358.606022	-3.023600	3.127400	-9.454600	27.649006	0.000268	20.812351
2359.603700	-2.997100	3.126700	-9.369500	27.664060	0.000265	20.818016
2360.601807	-2.998500	3.126000	-9.371900	27.703988	0.000266	20.825952
2361.608549	-3.000400	3.124700	-9.374300	27.719933	0.000265	20.802169
2362.602628	-3.016900	3.124900	-9.426100	27.760975	0.000266	20.820236
2363.604226	-2.999400	3.125200	-9.372200	27.778086	0.000262	20.807584
2364.607850	-2.976400	3.123900	-9.296600	27.757255	0.000264	20.805114
2365.603346	-3.009500	3.123200	-9.398900	27.754478	0.000263	20.810380
2366.603945	-2.993000	3.122900	-9.346100	27.793113	0.000261	20.794258
2367.606630	-2.980100	3.122300	-9.303900	27.796609	0.000263	20.802044
2368.604370	-3.000500	3.120000	-9.361100	27.801568	0.000261	20.814621
2369.603390	-2.998800	3.120500	-9.356900	27.828101	0.000260	20.809555
2370.608115	-3.009900	3.118500	-9.385000	27.827208	0.000263	20.827623
2371.604623	-3.025000	3.119700	-9.435500	27.823736	0.000262	20.815594
2372.607118	-3.025600	3.116500	-9.428300	27.798592	0.000260	20.836756
2373.613714	-3.002900	3.117000	-9.359600	27.758247	0.000262	20.814646
2374.608259	-2.993100	3.115100	-9.323500	27.657735	0.000261	20.834884
2375.606761	-2.981100	3.115800	-9.286500	27.647517	0.000259	20.839301
2376.611149	-2.998000	3.114900	-9.337500	27.612374	0.000260	20.821484
2377.610326	-3.005500	3.113300	-9.356000	27.599998	0.000263	20.813299
2378.606110	-2.982200	3.113800	-9.284900	27.606794	0.000259	20.833887
2379.611722	-2.994100	3.111700	-9.315400	27.616715	0.000257	20.830593
2380.607303	-2.992700	3.111100	-9.309600	27.625247	0.000257	20.850083
2381.607845	-3.000600	3.110000	-9.331400	27.630058	0.000255	20.839751
2382.613528	-2.997800	3.109600	-9.320700	27.629340	0.000256	20.828597
2383.608946	-2.982000	3.111000	-9.274200	27.601661	0.000258	20.842472
2384.608441	-2.997100	3.107600	-9.312700	27.598884	0.000257	20.841574
2385.612893	-3.003400	3.106400	-9.329000	27.577083	0.000257	20.835286
2386.610328	-2.969000	3.106700	-9.223100	27.586086	0.000256	20.850508
2387.608010	-3.009800	3.104600	-9.342700	27.603027	0.000254	20.853803
2388.611903	-3.012200	3.104600	-9.351100	27.630780	0.000258	20.826254
2389.607929	-2.981400	3.105200	-9.256500	27.644670	0.000256	20.825057
2390.607784	-2.999500	3.102900	-9.306400	27.642536	0.000255	20.851359
2391.615418	-3.000900	3.101400	-9.306500	27.654293	0.000254	20.846593
2392.609491	-3.000100	3.100700	-9.300900	27.682070	0.000255	20.858422
2393.610514	-3.002300	3.100200	-9.306400	27.730429	0.000254	20.843076
2394.615299	-3.014100	3.099700	-9.342200	27.756592	0.000254	20.862291
2395.609783	-3.020500	3.099300	-9.359800	27.782481	0.000255	20.842353
2396.609024	-3.017400	3.096700	-9.343800	27.812015	0.000254	20.830824
2397.613294	-2.981700	3.097200	-9.234300	27.808940	0.000253	20.831523
2398.611392	-2.996100	3.096200	-9.275100	27.771249	0.000253	20.856653
2399.611235	-3.002000	3.094800	-9.289200	27.762991	0.000252	20.834593
2400.615526	-2.983200	3.094700	-9.230700	27.801379	0.000252	20.862793
2401.611953	-3.012000	3.094200	-9.319300	27.831309	0.000251	20.850241
2402.613698	-2.997400	3.093000	-9.270000	27.860122	0.000253	20.845575
2403.616080	-2.993400	3.091900	-9.253900	27.930342	0.000251	20.856031
2404.614185	-2.987800	3.090600	-9.232700	27.965698	0.000251	20.860798
2405.613267	-3.001700	3.090100	-9.274400	27.992525	0.000253	20.847024
2406.624131	-3.022900	3.088100	-9.334200	28.023566	0.000250	20.866888
2407.614403	-3.018400	3.087600	-9.318200	28.052845	0.000251	20.852265
2408.613881	-3.017200	3.086400	-9.311200	28.038615	0.000248	20.869708
2409.619051	-3.015800	3.085900	-9.305700	28.038318	0.000249	20.853764
2410.616615	-3.000200	3.085500	-9.254900	28.052028	0.000248	20.836271
2411.616672	-3.016700	3.084100	-9.302900	28.055698	0.000252	20.846128
2412.619420	-2.995400	3.084700	-9.238400	28.085323	0.000249	20.855562
2413.618448	-2.989000	3.081600	-9.209500	28.067177	0.000250	20.861003
2414.617642	-3.010900	3.080500	-9.274000	28.060683	0.000249	20.844982
2415.623347	-2.996500	3.080100	-9.228200	27.974183	0.000249	20.861278
2416.618347	-2.984000	3.080700	-9.191900	27.936523	0.000247	20.860830
2417.617874	-2.998600	3.079100	-9.232200	27.932234	0.000244	20.842289
2418.622058	-2.977200	3.078700	-9.165400	27.851825	0.000247	20.861405
2419.618668	-2.976400	3.077700	-9.159800	27.803845	0.000247	20.814541
2420.619994	-3.019000	3.075600	-9.284500	27.824253	0.000247	20.845511
2421.622929	-3.010500	3.074600	-9.254700	27.797150	0.000247	20.847158
2422.622016	-2.986800	3.075400	-9.184100	27.833230	0.000246	20.854071
2423.621872	-2.986900	3.075000	-9.182200	27.883889	0.000249	20.838201
2424.624715	-2.990500	3.073200	-9.189500	27.914983	0.000248	20.848633
2425.621576	-3.018200	3.069700	-9.263700	27.972406	0.000246	20.832937
2426.621658	-2.997900	3.070400	-9.202900	27.979200	0.000246	20.829819
2427.623872	-3.014400	3.068000	-9.246200	28.010291	0.000243	20.815596
2428.623649	-3.014000	3.067400	-9.244300	28.037761	0.000245	20.834237
2429.624053	-2.997400	3.065600	-9.186900	28.023655	0.000245	20.824780
2430.626819	-2.979300	3.067100	-9.137100	27.991551	0.000245	20.821388
2431.623963	-2.987300	3.064900	-9.153700	27.931005	0.000243	20.853854
2432.622703	-3.007900	3.062700	-9.209300	27.925453	0.000243	20.834516
2433.625526	-3.003400	3.063500	-9.200300	27.943901	0.000245	20.812307
2434.624091	-3.006100	3.061000	-9.201200	27.960091	0.000243	20.811533
2435.626628	-3.023800	3.060200	-9.252500	27.950671	0.000243	20.812958
2436.628918	-2.975100	3.059600	-9.100700	27.959895	0.000246	20.834095
2437.626963	-2.988400	3.059000	-9.140800	27.956301	0.000242	20.830952
2438.627320	-2.997900	3.057700	-9.165900	27.978393	0.000244	20.822842
2439.628898	-3.009900	3.056400	-9.197600	28.024334	0.000244	20.808394
2440.629161	-2.994000	3.055000	-9.146100	28.028153	0.000245	20.810816
2441.627871	-3.009100	3.054500	-9.190800	28.025253	0.000244	20.798414
2442.628103	-2.985700	3.054600	-9.118100	28.070028	0.000243	20.815984
2443.626760	-3.002900	3.051800	-9.163300	28.093778	0.000244	20.808124
2444.627590	-3.001000	3.052000	-9.157600	28.104340	0.000243	20.818282
2445.628451	-3.007200	3.050700	-9.172900	28.060214	0.000245	20.800890
2446.628421	-3.006000	3.049000	-9.164300	28.089865	0.000241	20.811297
2447.627885	-2.992900	3.048600	-9.123400	28.080371	0.000244	20.805533
2448.628324	-3.007000	3.047200	-9.161300	28.118599	0.000242	20.789488
2449.626448	-2.995900	3.045600	-9.123300	28.120731	0.000242	20.790212
2450.626666	-3.004300	3.044600	-9.145800	28.131392	0.000240	20.790987
2451.632367	-2.952200	3.046100	-8.990700	28.141904	0.000242	20.786871
2452.627795	-3.006700	3.042400	-9.146100	28.161289	0.000242	20.793584
2453.628951	-3.003900	3.040600	-9.132300	28.152069	0.000243	20.793785
2454.632089	-3.008000	3.039200	-9.140500	28.129884	0.000244	20.783305
2455.629209	-3.002200	3.039300	-9.124000	28.085610	0.000244	20.794686
2456.629894	-2.981400	3.039000	-9.059900	28.084445	0.000242	20.781659
2457.633829	-3.022500	3.036300	-9.176200	28.071556	0.000243	20.795237
2458.629891	-3.002800	3.035700	-9.114500	28.067491	0.000241	20.792093
2459.634507	-3.010700	3.035100	-9.136400	28.017188	0.000241	20.795986
2460.633420	-3.010000	3.033100	-9.128300	28.008562	0.000240	20.784458
2461.631514	-3.007600	3.031000	-9.115100	28.028744	0.000242	20.795764
2462.632168	-2.992800	3.030900	-9.070200	28.000580	0.000238	20.789225
2463.635277	-3.000700	3.029700	-9.090200	27.992746	0.000241	20.762373
2464.631457	-2.982300	3.028700	-9.031400	27.934804	0.000241	20.761899
2465.631555	-3.022800	3.026100	-9.146600	27.862453	0.000242	20.802877
2466.635212	-2.974700	3.027800	-9.003900	27.821663	0.000242	20.758980
2467.633958	-2.989500	3.024100	-9.039300	27.780401	0.000243	20.773404
2468.639135	-2.978600	3.023300	-9.004100	27.785881	0.000241	20.795989
2469.636215	-2.987300	3.022700	-9.028600	27.837186	0.000242	20.777922
2470.634707	-3.058500	3.020600	-9.236600	27.874479	0.000241	20.765194
2471.633623	-2.998400	3.020500	-9.055800	27.926350	0.000241	20.782788
2472.636375	-3.017300	3.018000	-9.105500	27.994606	0.000242	20.788902
2473.634556	-2.994300	3.018200	-9.035900	28.015804	0.000239	20.789377
2474.635971	-3.025600	3.015700	-9.123800	28.053909	0.000241	20.773680
2475.636506	-3.021000	3.014000	-9.104200	28.095557	0.000240	20.778621
2476.640075	-3.033800	3.012700	-9.138000	28.094764	0.000240	20.812435
2477.636199	-2.997900	3.012000	-9.028900	28.095508	0.000240	20.770036
2478.638070	-3.000800	3.011100	-9.035100	28.111621	0.000239	20.779619
2479.640650	-2.996600	3.010700	-9.021200	28.089063	0.000238	20.769712
2480.635876	-2.987300	3.010500	-8.992700	28.069255	0.000238	20.790076
2481.640722	-2.971100	3.009000	-8.938800	28.103466	0.000239	20.784211
2482.637552	-3.004700	3.007000	-9.034400	28.119481	0.000240	20.772358
2483.638027	-2.994000	3.005500	-8.997300	28.134924	0.000240	20.777473
2484.639747	-3.007400	3.004000	-9.032400	28.177164	0.000240	20.782540
2485.639448	-3.001200	3.002700	-9.010600	28.145435	0.000238	20.776201
2486.638411	-2.997900	3.000900	-8.995500	28.103565	0.000239	20.753965
2487.641035	-2.979300	2.999900	-8.936500	28.091095	0.000238	20.763223
2488.640812	-3.008500	2.997900	-9.018300	28.032117	0.000240	20.791098
2489.639537	-2.984200	2.997600	-8.944700	27.976508	0.000240	20.762624
2490.645388	-2.981500	2.997300	-8.933900	27.907159	0.000237	20.769637
2491.642161	-3.024700	2.994300	-9.055400	27.886876	0.000240	20.747325
2492.641788	-3.011700	2.994100	-9.016500	27.911200	0.000240	20.785083
2493.644904	-2.992200	2.993200	-8.954800	27.970531	0.000240	20.771307
2494.643435	-2.973500	2.992500	-8.897000	27.986126	0.000240	20.764245
2495.643089	-3.016300	2.990300	-9.018400	28.031942	0.000240	20.780491
2496.644784	-2.988000	2.988400	-8.928500	28.063922	0.000239	20.752464
2497.645148	-3.022100	2.986800	-9.025900	28.104901	0.000240	20.771431
2498.646141	-3.018300	2.986100	-9.012100	28.074036	0.000240	20.748421
2499.645957	-2.991600	2.984700	-8.927800	28.101181	0.000240	20.759626
2500.646515	-3.008400	2.981800	-8.969500	28.148505	0.000240	20.773128
2501.644203	-3.014700	2.981100	-8.985800	28.177458	0.000240	20.788051
2502.647330	-3.011000	2.979700	-8.970900	28.225100	0.000241	20.772478
2503.647159	-3.000800	2.978200	-8.935400	28.236105	0.000240	20.759850
2504.645799	-2.990300	2.978000	-8.903700	28.222818	0.000237	20.763069
2505.644794	-3.002100	2.975900	-8.933500	28.215259	0.000240	20.755458
2506.648254	-3.004000	2.974600	-8.935000	28.194858	0.000239	20.772852
2507.646801	-2.993900	2.973000	-8.900500	28.188289	0.000237	20.765764
2508.650803	-2.991100	2.972700	-8.890400	28.235137	0.000241	20.769308
2509.648777	-3.009700	2.970900	-8.940400	28.295666	0.000239	20.782834
2510.649789	-3.006500	2.969300	-8.926100	28.315915	0.000238	20.763393
2511.649403	-2.992600	2.968900	-8.883900	28.328083	0.000237	20.765688
2512.651811	-3.025600	2.965700	-8.971700	28.356858	0.000240	20.761944
2513.646987	-3.013500	2.964800	-8.933200	28.349200	0.000237	20.776519
2514.649237	-3.021900	2.962800	-8.952300	28.347985	0.000240	20.759648
2515.648657	-2.985100	2.962400	-8.842000	28.340153	0.000237	20.766461
2516.646727	-2.999300	2.961500	-8.881700	28.356585	0.000238	20.764040
2517.650209	-2.986100	2.959700	-8.836500	28.361021	0.000240	20.769455
2518.651158	-3.019700	2.957200	-8.929000	28.292044	0.000238	20.773498
2519.647809	-2.959400	2.958200	-8.754100	28.265772	0.000237	20.771228
2520.651999	-3.000300	2.955400	-8.865300	28.222939	0.000238	20.748492
2521.651243	-3.005800	2.952400	-8.874000	28.186205	0.000238	20.753708
2522.649529	-2.983300	2.952400	-8.806600	28.126736	0.000237	20.737935
2523.649962	-2.972900	2.952600	-8.776700	28.100930	0.000239	20.764588
2524.652069	-2.995500	2.948100	-8.830400	28.132437	0.000239	20.753159
2525.649783	-3.008900	2.945800	-8.862400	28.156582	0.000238	20.779836
2526.652094	-3.016000	2.944700	-8.880000	28.194384	0.000239	20.769529
2527.652790	-2.998900	2.942900	-8.824400	28.206208	0.000238	20.763889
2528.650858	-2.994400	2.943300	-8.812500	28.231589	0.000237	20.756726
2529.651226	-2.995000	2.941700	-8.809400	28.278386	0.000236	20.763539
2530.655554	-3.016100	2.938400	-8.859900	28.253724	0.000236	20.750562
2531.653049	-2.987400	2.938700	-8.777200	28.256351	0.000237	20.761742
2532.652802	-3.015500	2.935700	-8.851100	28.289291	0.000238	20.761242
2533.653450	-3.011100	2.933000	-8.830400	28.315043	0.000237	20.740229
2534.652544	-3.017200	2.932600	-8.847700	28.333606	0.000237	20.765559
2535.652516	-3.011000	2.930200	-8.822000	28.288472	0.000238	20.774169
2536.654247	-3.024200	2.928900	-8.856000	28.255382	0.000237	20.765034
2537.652054	-2.996300	2.928700	-8.774600	28.255903	0.000237	20.751333
2538.653181	-3.005700	2.926700	-8.796200	28.189200	0.000239	20.756724
2539.651463	-3.006800	2.925100	-8.793700	28.133177	0.000239	20.736833
2540.653330	-3.001200	2.923300	-8.772700	28.115726	0.000237	20.752930
2541.651950	-2.957900	2.923200	-8.646000	28.112105	0.000237	20.737431
2542.653753	-3.013400	2.920100	-8.798000	28.169516	0.000238	20.741174
2543.654210	-2.995100	2.919000	-8.741100	28.189297	0.000238	20.768676
2544.654135	-3.017600	2.916000	-8.797200	28.187735	0.000237	20.745765
2545.654766	-2.998200	2.915100	-8.738700	28.166292	0.000236	20.763059
2546.656093	-3.012900	2.911300	-8.769200	28.178562	0.000238	20.757394
2547.656534	-3.001700	2.911500	-8.738900	28.163862	0.000240	20.753974
2548.656458	-2.978100	2.910700	-8.667600	28.223823	0.000238	20.747010
2549.656072	-2.987000	2.908600	-8.687500	28.231507	0.000239	20.756169
2550.655499	-2.991700	2.908400	-8.699100	28.247593	0.000236	20.761460
2551.657927	-2.975900	2.906000	-8.646800	28.248658	0.000237	20.763480
2552.659217	-3.032500	2.901700	-8.797500	28.209023	0.000239	20.741118
2553.658318	-3.005200	2.901600	-8.718300	28.172286	0.000237	20.762455
2554.661287	-3.022800	2.897900	-8.757800	28.176104	0.000236	20.746384
2555.659223	-2.988200	2.897900	-8.658700	28.218219	0.000234	20.775034
2556.659794	-2.947700	2.897100	-8.538700	28.227117	0.000234	20.744636
2557.660078	-2.985600	2.894900	-8.642000	28.272848	0.000234	20.748954
2558.661459	-3.004200	2.891900	-8.686900	28.344576	0.000237	20.746732
2559.659523	-2.946600	2.893500	-8.524100	28.392384	0.000233	20.744136
2560.661202	-2.986200	2.889600	-8.628000	28.425221	0.000237	20.768194
2561.661534	-3.012600	2.886800	-8.694900	28.448269	0.000233	20.739719
2562.661572	-3.025200	2.883900	-8.721700	28.385990	0.000235	20.753820
2563.663287	-3.019400	2.883200	-8.704500	28.319197	0.000237	20.733031
2564.661539	-3.012200	2.880400	-8.675300	28.281226	0.000237	20.738896
2565.661284	-3.010600	2.879100	-8.666500	28.282416	0.000237	20.766648
2566.664330	-3.020200	2.877000	-8.688300	28.305020	0.000236	20.753846
2567.661417	-3.018700	2.875100	-8.678600	28.327129	0.000236	20.733432
2568.660867	-2.997100	2.873900	-8.612700	28.333475	0.000234	20.752624
2569.661994	-3.007000	2.871400	-8.633600	28.306831	0.000235	20.750927
2570.663046	-2.994000	2.869800	-8.590500	28.314391	0.000235	20.739098
2571.663741	-3.023900	2.868000	-8.671900	28.307303	0.000235	20.738600
2572.666691	-3.001900	2.866200	-8.603000	28.295307	0.000237	20.746436
2573.664864	-3.020400	2.865000	-8.652700	28.296546	0.000237	20.737726
2574.665617	-2.986300	2.862800	-8.548200	28.240579	0.000234	20.735431
2575.666323	-3.019600	2.860400	-8.636600	28.219461	0.000232	20.749731
2576.665324	-3.028100	2.857900	-8.652600	28.213091	0.000235	20.740947
2577.664983	-3.022600	2.856300	-8.631800	28.276522	0.000234	20.737953
2578.666462	-3.032100	2.853400	-8.650700	28.294615	0.000234	20.753801
2579.665675	-3.012600	2.851600	-8.589400	28.318980	0.000233	20.747987
2580.667539	-2.994100	2.849800	-8.531600	28.333084	0.000234	20.748911
2581.669683	-2.975200	2.847500	-8.471100	28.318337	0.000231	20.756348
2582.667502	-2.990000	2.847000	-8.511500	28.319478	0.000236	20.727624
2583.666742	-2.974400	2.845500	-8.461900	28.356309	0.000235	20.731044
2584.669991	-2.979600	2.842700	-8.469100	28.376509	0.000235	20.721987
2585.667135	-2.992700	2.839800	-8.497700	28.370611	0.000236	20.743075
2586.667285	-2.976200	2.838400	-8.445900	28.311031	0.000235	20.733819
2587.671610	-2.998000	2.835300	-8.498700	28.295243	0.000235	20.752536
2588.668369	-2.999500	2.832900	-8.496300	28.321863	0.000233	20.761322
2589.667997	-2.982100	2.830700	-8.439700	28.350094	0.000234	20.747547
2590.672166	-2.983800	2.829200	-8.440400	28.361273	0.000234	20.722766
2591.673134	-2.964100	2.828400	-8.382600	28.357333	0.000233	20.739188
2592.669141	-3.003100	2.824900	-8.482200	28.335250	0.000236	20.726435
2593.670547	-3.031400	2.820600	-8.549500	28.269893	0.000232	20.717528
2594.668408	-2.991500	2.819200	-8.432900	28.233408	0.000233	20.725839
2595.667367	-3.004300	2.816900	-8.460400	28.208845	0.000235	20.717704
2596.676927	-2.993200	2.815300	-8.424900	28.258247	0.000235	20.737098
2597.667823	-3.013000	2.812100	-8.472100	28.282612	0.000234	20.744560
2598.668130	-2.989900	2.811600	-8.405600	28.331911	0.000236	20.715486
2599.670549	-3.018500	2.807600	-8.473600	28.307698	0.000233	20.717659
2600.669467	-3.003500	2.804500	-8.422100	28.277436	0.000234	20.702836
2601.668909	-2.989300	2.803300	-8.378500	28.312755	0.000233	20.726071
2602.669207	-3.000600	2.800700	-8.403000	28.352339	0.000236	20.705708
2603.674660	-3.015900	2.797400	-8.434500	28.380072	0.000233	20.719410
2604.668215	-3.007700	2.795500	-8.407500	28.391945	0.000234	20.708605
2605.670627	-3.001900	2.792600	-8.381300	28.355836	0.000234	20.708756
2606.672026	-3.039700	2.788000	-8.473400	28.364387	0.000233	20.697925
2607.672049	-2.989600	2.789400	-8.337900	28.311895	0.000235	20.706237
2608.672726	-2.986400	2.785200	-8.316500	28.291225	0.000233	20.710081
2609.672151	-3.016000	2.781600	-8.388100	28.258187	0.000234	20.711431
2610.671443	-3.017400	2.779900	-8.386600	28.233203	0.000231	20.702872
2611.674132	-3.020800	2.776200	-8.385300	28.247878	0.000232	20.707689
2612.676083	-2.987700	2.774300	-8.287700	28.273830	0.000232	20.714853
2613.674053	-2.979000	2.771300	-8.255000	28.362338	0.000234	20.701552
2614.676758	-3.009600	2.769000	-8.332500	28.381720	0.000233	20.697834
2615.675162	-2.991300	2.766200	-8.273600	28.432328	0.000235	20.682886
2616.674785	-2.983700	2.763700	-8.244900	28.485487	0.000232	20.695641
2617.682535	-3.012000	2.759100	-8.307600	28.503008	0.000233	20.694319
2618.676600	-3.004100	2.757100	-8.281700	28.544937	0.000231	20.701933
2619.673904	-2.999600	2.753800	-8.258000	28.583817	0.000232	20.707899
2620.674314	-2.993500	2.751700	-8.236200	28.619698	0.000233	20.704207
2621.673928	-2.991800	2.748300	-8.220700	28.664076	0.000233	20.684416
2622.674839	-2.985100	2.746700	-8.196600	28.686178	0.000234	20.708576
2623.676995	-2.967900	2.743500	-8.141500	28.663136	0.000236	20.706706
2624.674978	-3.013400	2.738600	-8.251500	28.670051	0.000232	20.706084
2625.675283	-3.012300	2.736200	-8.240800	28.649388	0.000233	20.688590
2626.683349	-2.989600	2.732000	-8.166400	28.673895	0.000236	20.695730
2627.676755	-2.981100	2.729000	-8.134500	28.702414	0.000234	20.698851
2628.677954	-3.004500	2.724400	-8.183800	28.732691	0.000232	20.687147
2629.681599	-3.015900	2.721000	-8.205200	28.717406	0.000236	20.701624
2630.678727	-3.016200	2.717600	-8.195800	28.743198	0.000234	20.709112
2631.680950	-3.028700	2.714400	-8.220200	28.753159	0.000233	20.714878
2632.681113	-3.021200	2.710800	-8.188300	28.736760	0.000235	20.693142
2633.680391	-3.029800	2.707900	-8.203700	28.784055	0.000234	20.696213
2634.680947	-2.989100	2.704400	-8.082800	28.825627	0.000233	20.696839
2635.682575	-3.002900	2.699900	-8.107400	28.855628	0.000234	20.697664
2636.682881	-2.995900	2.699300	-8.086300	28.890508	0.000232	20.688231
2637.680719	-3.016500	2.693200	-8.123300	28.896356	0.000234	20.679896
2638.685606	-3.013200	2.689300	-8.102700	28.880156	0.000233	20.702933
2639.682640	-3.008800	2.685100	-8.078600	28.916299	0.000235	20.680073
2640.682304	-2.975300	2.682200	-7.979300	28.944514	0.000235	20.661081
2641.685240	-3.011500	2.677400	-8.062200	28.942956	0.000234	20.668521
2642.684170	-2.997300	2.673900	-8.013000	28.905825	0.000234	20.694652
2643.683662	-3.006900	2.670800	-8.029100	28.850339	0.000232	20.683799
2644.685426	-2.983400	2.666900	-7.955300	28.862775	0.000232	20.690164
2645.683699	-3.009600	2.662700	-8.012500	28.875906	0.000233	20.689167
2646.687210	-3.007900	2.657100	-7.991500	28.874569	0.000232	20.689717
2647.686662	-3.003000	2.653900	-7.968600	28.824059	0.000233	20.707588
2648.683897	-2.988000	2.649600	-7.916100	28.760394	0.000233	20.672851
2649.684186	-3.005400	2.645700	-7.950500	28.726800	0.000235	20.682161
2650.687938	-2.984400	2.642000	-7.884600	28.746919	0.000235	20.689625
2651.684944	-2.996400	2.637400	-7.901600	28.820475	0.000235	20.687855
2652.684140	-2.997300	2.631900	-7.886800	28.857412	0.000233	20.681441
2653.689427	-2.967200	2.629200	-7.800700	28.900048	0.000233	20.676977
2654.684190	-3.013800	2.621900	-7.901200	28.956304	0.000234	20.692403
2655.684377	-2.992500	2.619100	-7.837200	28.986672	0.000232	20.678427
2656.689971	-3.013100	2.612600	-7.870400	28.965645	0.000236	20.690908
2657.683602	-3.008800	2.608300	-7.846500	28.991357	0.000235	20.685993
2658.684927	-2.999000	2.603100	-7.805500	29.052611	0.000234	20.678482
2659.688133	-3.012600	2.597400	-7.824300	29.058235	0.000233	20.679881
2660.686294	-3.016700	2.592200	-7.819100	29.023561	0.000234	20.672445
2661.684540	-3.025600	2.587800	-7.827700	28.969814	0.000234	20.660966
2662.691031	-3.004700	2.581200	-7.754400	28.962533	0.000236	20.691566
2663.685442	-3.004800	2.576900	-7.742000	28.953247	0.000235	20.686003
2664.686837	-3.000200	2.570800	-7.711700	28.933804	0.000234	20.677794
2665.691299	-2.996900	2.564700	-7.685000	28.975766	0.000235	20.682138
2666.695360	-2.965800	2.560000	-7.591300	29.040935	0.000234	20.666715
2667.688167	-2.996800	2.555300	-7.655800	29.070361	0.000235	20.679296
2668.695415	-2.998400	2.549200	-7.642500	29.076654	0.000236	20.689431
2669.692065	-2.997800	2.542600	-7.621200	29.109075	0.000235	20.666147
2670.690701	-3.013300	2.536400	-7.642600	29.105360	0.000236	20.666671
2671.695639	-2.999400	2.530600	-7.589500	29.053945	0.000236	20.681248
2672.689539	-3.011700	2.525200	-7.603800	28.970724	0.000236	20.673738
2673.690176	-3.019700	2.520000	-7.607800	28.937136	0.000233	20.674513
2674.695331	-3.006800	2.513100	-7.555700	28.945659	0.000234	20.685470
2675.693605	-2.992100	2.506400	-7.498700	28.931096	0.000236	20.672695
2676.691761	-2.979200	2.500900	-7.449700	28.915392	0.000235	20.698127
2677.694393	-3.012800	2.493200	-7.510000	28.860051	0.000236	20.672245
