LabVIEW Measurement	
Writer_Version	2
Reader_Version	2
Separator	Tab
Decimal_Separator	.
Multi_Headings	No
X_Columns	One
Time_Pref	Absolute
Operator	admin
Description	Clolumns are: time, Current, Voltage, Power, Battery Temp, and Chamber Temp
Date	2024/08/16
Time	13:06:06.104549407958984375
***End_of_Header***	
	
Channels	6						
Samples	1	1	1	1	1	1	
Date	2024/09/12	2024/09/12	2024/09/12	2024/09/12	2024/09/12	2024/09/12	
Time	07:56:52.9534559249877929688	07:56:52.9590983390808105469	07:56:52.9654169082641601563	07:56:52.9355998039245605469	07:56:52.9355998039245605469	07:56:52.9355998039245605469	
X_Dimension	Time	Time	Time	Time	Time	Time	
X0	0.0000000000000000E+0	0.0000000000000000E+0	0.0000000000000000E+0	0.0000000000000000E+0	0.0000000000000000E+0	0.0000000000000000E+0	
Delta_X	1.000000	1.000000	1.000000	1.000000	1.000000	1.000000	
***End_of_Header***							
X_Value	Untitled	Untitled 1	Untitled 2	Untitled 3	Untitled 4	Untitled 5	Comment
0.000000	0.030412	4.096300	0.124610	21.012546	0.000909	20.802042
1.003454	-2.996800	3.918300	-11.741000	21.020180	0.000910	20.789763
2.001770	-3.027800	3.910400	-11.839000	21.029808	0.000911	20.802712
2.999739	-2.998800	3.905700	-11.712000	20.999532	0.000909	20.799931
3.999906	-2.988100	3.901400	-11.657000	21.038087	0.000905	20.783017
4.998270	-2.990300	3.899900	-11.661000	21.023098	0.000907	20.803113
5.998898	-3.007900	3.894100	-11.712000	21.019623	0.000906	20.794422
6.998214	-2.999400	3.894000	-11.679000	21.029955	0.000905	20.805229
8.000278	-2.981400	3.891700	-11.601000	21.017693	0.000902	20.804345
9.000667	-3.022200	3.888500	-11.751000	21.014677	0.000902	20.808441
9.999753	-3.008300	3.885900	-11.689000	21.023342	0.000902	20.812840
11.000372	-3.011000	3.884500	-11.696000	21.047030	0.000902	20.800497
12.001256	-3.029200	3.882700	-11.760000	21.044758	0.000900	20.796802
12.999464	-2.986600	3.882700	-11.593000	21.045427	0.000899	20.795575
14.000462	-2.977000	3.882600	-11.558000	21.061193	0.000899	20.811344
15.004796	-2.996900	3.879700	-11.626000	21.040369	0.000896	20.804740
16.001384	-3.007000	3.878400	-11.661000	21.058823	0.000895	20.787163
17.015608	-3.020700	3.877200	-11.711000	21.069310	0.000898	20.795282
18.000559	-3.005500	3.875900	-11.648000	21.065567	0.000897	20.823779
19.006485	-3.012400	3.875600	-11.673000	21.076338	0.000896	20.811320
20.008702	-3.007200	3.874600	-11.651000	21.086532	0.000896	20.803499
21.011021	-2.991000	3.874600	-11.587000	21.076666	0.000895	20.793155
22.005614	-2.992800	3.872700	-11.590000	21.086825	0.000894	20.787671
23.007158	-3.008000	3.873800	-11.652000	21.067243	0.000894	20.820240
24.006711	-3.005300	3.872100	-11.636000	21.069320	0.000895	20.795765
25.009923	-3.005100	3.870600	-11.631000	21.110331	0.000893	20.792691
26.007637	-2.984500	3.871600	-11.553000	21.100763	0.000892	20.800189
27.011950	-3.006600	3.867300	-11.627000	21.093193	0.000893	20.789773
28.013675	-3.011700	3.868700	-11.650000	21.107864	0.000893	20.778368
29.007198	-2.989600	3.869300	-11.567000	21.127528	0.000894	20.807996
30.011242	-2.999900	3.867700	-11.601000	21.126883	0.000891	20.803557
31.009830	-2.991700	3.867600	-11.570000	21.131002	0.000890	20.783496
32.008523	-3.000900	3.866700	-11.603000	21.137736	0.000894	20.779800
33.008864	-3.002100	3.865200	-11.602000	21.152079	0.000890	20.767120
34.012019	-3.020200	3.864700	-11.671000	21.136993	0.000891	20.785695
35.011930	-3.009600	3.864100	-11.629000	21.148409	0.000891	20.779097
36.010982	-3.028400	3.862400	-11.696000	21.170150	0.000891	20.796577
37.010133	-2.977300	3.864000	-11.503000	21.157097	0.000890	20.762183
38.008617	-2.970100	3.864300	-11.476000	21.192149	0.000891	20.767848
39.014776	-3.010500	3.861900	-11.625000	21.199987	0.000891	20.778060
40.010683	-2.999400	3.861300	-11.581000	21.200133	0.000889	20.749757
41.012958	-3.026200	3.860400	-11.681000	21.204253	0.000890	20.772370
42.018882	-3.005300	3.861100	-11.603000	21.210400	0.000888	20.780890
43.011326	-3.032300	3.859500	-11.701000	21.214109	0.000889	20.774169
44.017480	-2.998800	3.859700	-11.572000	21.208357	0.000886	20.763673
45.009775	-3.015600	3.859600	-11.638000	21.216063	0.000888	20.759054
46.011337	-3.004100	3.860300	-11.596000	21.231524	0.000887	20.788746
47.015841	-2.990400	3.858100	-11.537000	21.248841	0.000887	20.765766
48.013090	-2.993400	3.857900	-11.547000	21.257069	0.000888	20.781584
49.016648	-3.005200	3.859000	-11.596000	21.269851	0.000888	20.785363
50.017427	-2.985900	3.859400	-11.523000	21.268444	0.000886	20.761195
51.012847	-3.011600	3.856300	-11.612000	21.258608	0.000889	20.763209
52.015685	-2.987700	3.857700	-11.525000	21.274127	0.000887	20.759767
53.021496	-2.986800	3.856400	-11.518000	21.280532	0.000887	20.763805
54.014910	-3.002600	3.855000	-11.575000	21.262449	0.000888	20.781750
55.018728	-3.009600	3.855200	-11.602000	21.299026	0.000887	20.777092
56.020957	-2.995100	3.854500	-11.543000	21.283230	0.000887	20.752753
57.015676	-3.018300	3.854100	-11.631000	21.304108	0.000887	20.751829
58.036160	-3.010200	3.853500	-11.598000	21.314461	0.000888	20.755549
59.026597	-2.992900	3.855000	-11.537000	21.331435	0.000887	20.763996
60.015280	-2.990900	3.853400	-11.524000	21.324399	0.000887	20.763595
61.017667	-3.006100	3.853800	-11.584000	21.345081	0.000887	20.768165
62.022069	-3.006000	3.853700	-11.582000	21.334738	0.000887	20.745014
63.021001	-2.995900	3.853600	-11.544000	21.371826	0.000886	20.767896
64.023700	-3.010800	3.851000	-11.594000	21.370053	0.000886	20.755690
65.018546	-3.013700	3.851400	-11.606000	21.357134	0.000885	20.762206
66.018091	-3.017800	3.850600	-11.619000	21.366549	0.000888	20.772100
67.017416	-3.012200	3.852100	-11.602000	21.380219	0.000888	20.765863
68.017264	-2.993500	3.851800	-11.529000	21.385032	0.000887	20.746969
69.019882	-2.989000	3.850300	-11.508000	21.397290	0.000888	20.748802
70.017822	-2.987500	3.851600	-11.506000	21.403172	0.000887	20.758481
71.018626	-2.984000	3.852000	-11.494000	21.408297	0.000887	20.743220
72.023782	-2.979300	3.852600	-11.477000	21.414204	0.000888	20.735853
73.019032	-2.996900	3.849300	-11.535000	21.443170	0.000887	20.739231
74.026321	-3.009900	3.849400	-11.585000	21.428430	0.000886	20.740604
75.024032	-3.004700	3.850700	-11.568000	21.433472	0.000888	20.773151
76.018776	-3.011700	3.847800	-11.587000	21.442173	0.000887	20.752459
77.022421	-2.988900	3.850200	-11.506000	21.452198	0.000889	20.760119
78.022852	-3.002700	3.847700	-11.552000	21.471481	0.000887	20.752859
79.021288	-2.995100	3.849300	-11.528000	21.428528	0.000888	20.722683
80.025694	-2.984700	3.848000	-11.484000	21.451675	0.000889	20.751535
81.027166	-2.995700	3.848600	-11.527000	21.472780	0.000889	20.746573
82.022250	-3.012400	3.846700	-11.586000	21.487461	0.000888	20.733286
83.022917	-3.006200	3.847400	-11.565000	21.496572	0.000888	20.753783
84.025494	-3.010500	3.847300	-11.582000	21.494447	0.000886	20.739803
85.028529	-3.000300	3.846800	-11.541000	21.487920	0.000887	20.742281
86.025954	-3.020000	3.846000	-11.614000	21.521393	0.000890	20.748274
87.027517	-3.010700	3.845900	-11.579000	21.513606	0.000888	20.744749
88.024302	-3.011800	3.846000	-11.582000	21.502570	0.000890	20.747932
89.029864	-2.989500	3.845300	-11.494000	21.514441	0.000890	20.745585
90.024309	-2.975000	3.845900	-11.440000	21.552203	0.000888	20.757767
91.027696	-3.010200	3.843200	-11.568000	21.565886	0.000888	20.736371
92.026118	-3.005700	3.844500	-11.554000	21.556482	0.000889	20.739763
93.024487	-2.990100	3.845600	-11.498000	21.561147	0.000889	20.733526
94.025199	-3.011200	3.844100	-11.574000	21.570903	0.000889	20.737598
95.028336	-2.981300	3.843600	-11.458000	21.600060	0.000889	20.724575
96.029274	-3.001500	3.844200	-11.537000	21.591341	0.000890	20.725807
97.030819	-3.008700	3.843300	-11.562000	21.619633	0.000890	20.741792
98.028146	-3.026800	3.842600	-11.629000	21.622002	0.000889	20.742266
99.026119	-3.013700	3.842600	-11.579000	21.600412	0.000889	20.756696
100.030591	-2.986700	3.842500	-11.476000	21.634224	0.000890	20.741694
101.037155	-2.978400	3.843100	-11.446000	21.633506	0.000890	20.731492
102.032100	-3.000900	3.844300	-11.534000	21.651921	0.000889	20.755137
103.035225	-2.986700	3.843300	-11.477000	21.654983	0.000892	20.724535
104.030822	-2.978200	3.843800	-11.446000	21.666623	0.000892	20.745668
105.030005	-2.964000	3.842200	-11.387000	21.655989	0.000891	20.729336
106.034513	-2.982700	3.843300	-11.462000	21.670277	0.000892	20.734625
107.037053	-2.995000	3.841800	-11.504000	21.656693	0.000891	20.729091
108.034284	-3.007400	3.841100	-11.550000	21.687221	0.000891	20.719339
109.032760	-2.997200	3.842000	-11.513000	21.667942	0.000893	20.716640
110.031833	-2.988100	3.841000	-11.476000	21.671864	0.000893	20.746171
111.040721	-2.982600	3.841400	-11.456000	21.702333	0.000892	20.735412
112.034506	-2.978400	3.843400	-11.445000	21.676553	0.000893	20.718620
113.034340	-3.013600	3.839100	-11.568000	21.694508	0.000894	20.708613
114.036206	-3.005200	3.838400	-11.534000	21.688505	0.000894	20.712563
115.034590	-2.978800	3.840700	-11.439000	21.723115	0.000894	20.718752
116.037750	-3.006400	3.839300	-11.541000	21.735941	0.000892	20.711673
117.038168	-3.015900	3.837700	-11.573000	21.698889	0.000895	20.733862
118.038000	-3.002100	3.838800	-11.523000	21.729015	0.000894	20.707112
119.039903	-2.998600	3.839100	-11.511000	21.726099	0.000896	20.708461
120.040439	-2.982700	3.838200	-11.447000	21.726280	0.000897	20.721919
121.037623	-2.999600	3.837700	-11.509000	21.737309	0.000897	20.714464
122.043724	-3.008200	3.836800	-11.540000	21.721137	0.000896	20.740955
123.039255	-2.995800	3.837500	-11.495000	21.747243	0.000896	20.720140
124.042611	-3.019900	3.835800	-11.583000	21.746891	0.000897	20.719788
125.042519	-3.018600	3.836200	-11.579000	21.753656	0.000897	20.722291
126.051120	-3.014600	3.836100	-11.562000	21.780694	0.000898	20.734654
127.045493	-3.015700	3.835800	-11.567000	21.786125	0.000896	20.716855
128.041969	-3.004700	3.835600	-11.524000	21.815897	0.000898	20.706349
129.042311	-3.011500	3.836000	-11.550000	21.830241	0.000898	20.713120
130.042413	-3.010400	3.834400	-11.542000	21.827169	0.000898	20.727116
131.041113	-3.009900	3.835500	-11.543000	21.844111	0.000899	20.706613
132.042811	-2.999800	3.835100	-11.503000	21.846333	0.000901	20.700302
133.041827	-3.005900	3.834900	-11.526000	21.866214	0.000901	20.729212
134.041051	-3.013100	3.833800	-11.550000	21.870869	0.000901	20.716801
135.056587	-2.979200	3.834500	-11.423000	21.873989	0.000900	20.730356
136.042050	-2.994000	3.834400	-11.478000	21.889573	0.000900	20.719875
137.042002	-2.977300	3.834900	-11.416000	21.893323	0.000902	20.722681
138.044094	-2.986900	3.836400	-11.458000	21.888562	0.000904	20.702741
139.049676	-2.983200	3.834500	-11.438000	21.882623	0.000904	20.727145
140.045671	-3.001000	3.833200	-11.502000	21.923190	0.000902	20.722232
141.045725	-3.010800	3.833100	-11.540000	21.909732	0.000903	20.690739
142.045833	-2.992100	3.832700	-11.467000	21.909903	0.000903	20.718888
143.041795	-2.998000	3.833500	-11.492000	21.923093	0.000904	20.703166
144.052985	-2.997400	3.832700	-11.487000	21.910762	0.000901	20.703626
145.045925	-3.008600	3.832500	-11.530000	21.923576	0.000906	20.706495
146.049559	-3.002400	3.832900	-11.506000	21.905297	0.000906	20.704794
147.060326	-2.989100	3.831700	-11.453000	21.921403	0.000907	20.718071
148.050894	-3.020500	3.830100	-11.568000	21.923054	0.000906	20.709292
149.056261	-3.012500	3.830900	-11.539000	21.916871	0.000907	20.706896
150.050894	-3.002100	3.831200	-11.501000	21.937518	0.000906	20.722349
151.052975	-2.974000	3.831700	-11.395000	21.936913	0.000908	20.698507
152.064788	-3.014300	3.829600	-11.542000	21.958702	0.000908	20.690920
153.057552	-3.002400	3.829100	-11.496000	21.960875	0.000909	20.717279
154.055625	-2.995600	3.830200	-11.473000	21.985008	0.000909	20.703029
155.053305	-3.007000	3.830600	-11.517000	21.977307	0.000908	20.710020
156.061562	-3.000000	3.830300	-11.489000	22.007963	0.000908	20.702775
157.052562	-3.003500	3.829600	-11.500000	22.000492	0.000910	20.698141
158.059844	-2.979000	3.831000	-11.411000	22.000351	0.000911	20.709380
159.056259	-2.994100	3.830300	-11.467000	22.023227	0.000910	20.725169
160.053988	-3.005100	3.828400	-11.504000	22.010527	0.000910	20.707713
161.058672	-2.994700	3.828900	-11.465000	22.030347	0.000911	20.686301
162.061219	-2.993600	3.828600	-11.461000	22.066148	0.000910	20.697012
163.058142	-3.015900	3.827500	-11.542000	22.060792	0.000911	20.714410
164.063906	-2.994400	3.828500	-11.463000	22.055147	0.000910	20.701172
165.055253	-3.015300	3.828400	-11.542000	22.093872	0.000913	20.680195
166.065479	-2.992000	3.828400	-11.454000	22.103369	0.000913	20.720051
167.062102	-2.997500	3.828100	-11.474000	22.110971	0.000911	20.689253
168.053559	-3.000600	3.826600	-11.480000	22.106977	0.000912	20.702325
169.065718	-2.999900	3.827600	-11.481000	22.107583	0.000914	20.697241
170.056939	-2.988500	3.827900	-11.438000	22.115634	0.000914	20.703880
171.065272	-3.035900	3.826000	-11.615000	22.131409	0.000914	20.695965
172.055542	-2.999300	3.825800	-11.474000	22.126576	0.000912	20.678796
173.058351	-2.973900	3.826500	-11.379000	22.148459	0.000915	20.687904
174.061491	-3.000500	3.826500	-11.480000	22.154323	0.000915	20.696146
175.064444	-2.995700	3.826600	-11.462000	22.140369	0.000915	20.698297
176.056231	-3.006300	3.825400	-11.499000	22.136131	0.000916	20.688838
177.060947	-3.005000	3.825400	-11.494000	22.137625	0.000916	20.707405
178.056273	-2.994000	3.826200	-11.455000	22.139158	0.000916	20.692343
179.056901	-3.004300	3.824900	-11.490000	22.163004	0.000917	20.695354
180.057706	-2.976300	3.826200	-11.387000	22.151711	0.000917	20.700169
181.063841	-2.989400	3.825300	-11.434000	22.178696	0.000919	20.695418
182.062634	-2.997100	3.824300	-11.460000	22.195198	0.000918	20.684438
183.066782	-2.989400	3.825100	-11.432000	22.185130	0.000920	20.669615
184.065039	-3.009900	3.824400	-11.510000	22.188943	0.000918	20.688608
185.056681	-2.973200	3.824100	-11.368000	22.205226	0.000920	20.694479
186.062346	-2.992500	3.824300	-11.443000	22.211504	0.000921	20.687014
187.061463	-2.989700	3.822100	-11.426000	22.202262	0.000922	20.680131
188.057405	-3.011500	3.821700	-11.508000	22.209986	0.000922	20.652774
189.058669	-2.995300	3.822800	-11.448000	22.228831	0.000922	20.675912
190.064373	-3.004000	3.822200	-11.481000	22.211904	0.000922	20.671766
191.058260	-3.006400	3.821600	-11.489000	22.243633	0.000921	20.662757
192.061604	-3.010900	3.821500	-11.505000	22.236408	0.000922	20.685870
193.061157	-3.014100	3.821400	-11.517000	22.243951	0.000922	20.671610
194.060013	-2.991600	3.822700	-11.435000	22.233640	0.000925	20.685469
195.060821	-3.015800	3.821500	-11.523000	22.242247	0.000924	20.686027
196.059679	-3.001000	3.822300	-11.470000	22.251342	0.000925	20.689444
197.061464	-3.001000	3.821300	-11.465000	22.261091	0.000924	20.676445
198.061894	-3.025000	3.819200	-11.552000	22.240099	0.000925	20.668227
199.059015	-2.999100	3.821400	-11.459000	22.240982	0.000925	20.669112
200.064959	-3.009200	3.820500	-11.496000	22.236017	0.000927	20.680263
201.061539	-2.990000	3.820900	-11.422000	22.236915	0.000925	20.687327
202.063159	-2.982200	3.820800	-11.393000	22.244517	0.000928	20.677867
203.062386	-2.985000	3.821400	-11.406000	22.258299	0.000930	20.688349
204.061736	-2.997900	3.819700	-11.450000	22.276123	0.000928	20.693868
205.062347	-2.994400	3.819700	-11.435000	22.287844	0.000931	20.662928
206.060654	-3.016900	3.818400	-11.518000	22.316642	0.000926	20.654304
207.060883	-3.008600	3.818900	-11.488000	22.303734	0.000930	20.667934
208.061828	-2.998200	3.818500	-11.447000	22.313254	0.000931	20.674147
209.063869	-3.013100	3.817500	-11.502000	22.310739	0.000929	20.653610
210.066712	-2.976100	3.817800	-11.361000	22.343344	0.000930	20.675355
211.065434	-3.006700	3.816700	-11.475000	22.351086	0.000933	20.670305
212.064107	-2.974800	3.818300	-11.357000	22.371716	0.000932	20.668203
213.063537	-3.007800	3.815100	-11.473000	22.384998	0.000933	20.683401
214.070344	-2.993700	3.817200	-11.426000	22.363837	0.000935	20.667425
215.064477	-2.976900	3.817800	-11.363000	22.362343	0.000935	20.676836
216.063872	-2.972700	3.816100	-11.344000	22.376900	0.000934	20.670075
217.065503	-3.008200	3.814600	-11.473000	22.388000	0.000935	20.679295
218.072937	-3.008300	3.815100	-11.477000	22.385364	0.000936	20.679975
219.066154	-3.021500	3.814700	-11.524000	22.401136	0.000934	20.650246
220.065346	-3.003900	3.815000	-11.459000	22.430224	0.000935	20.681749
221.062750	-3.007300	3.814500	-11.470000	22.432444	0.000936	20.653150
222.067767	-3.009000	3.815000	-11.478000	22.441685	0.000938	20.669043
223.064065	-3.008400	3.813200	-11.470000	22.423414	0.000937	20.676826
224.067304	-2.991000	3.815100	-11.410000	22.437448	0.000939	20.667645
225.068443	-2.998600	3.813700	-11.435000	22.429896	0.000939	20.674309
226.067191	-2.985000	3.815000	-11.387000	22.428076	0.000939	20.642136
227.068799	-2.961400	3.815600	-11.297000	22.447186	0.000940	20.664121
228.068901	-3.005600	3.812600	-11.457000	22.458705	0.000940	20.677555
229.068021	-2.996000	3.813200	-11.423000	22.448704	0.000940	20.674651
230.075153	-3.019000	3.812600	-11.509000	22.446263	0.000939	20.658929
231.073176	-2.996600	3.812400	-11.423000	22.447830	0.000942	20.653385
232.074876	-3.027100	3.810200	-11.532000	22.472182	0.000942	20.666868
233.074864	-3.004300	3.810500	-11.447000	22.463152	0.000941	20.668256
234.071214	-3.014000	3.811000	-11.486000	22.485756	0.000942	20.656753
235.070605	-2.989100	3.811600	-11.392000	22.490637	0.000943	20.674920
236.077206	-2.984100	3.812100	-11.375000	22.495528	0.000947	20.656582
237.069278	-2.986200	3.811800	-11.382000	22.503127	0.000944	20.671307
238.070189	-2.972700	3.813200	-11.335000	22.507642	0.000947	20.667293
239.070570	-2.982400	3.810500	-11.363000	22.517028	0.000944	20.651087
240.077006	-2.985900	3.812200	-11.382000	22.509453	0.000947	20.659149
241.074507	-2.984800	3.810900	-11.374000	22.533696	0.000946	20.654979
242.077784	-2.979700	3.811900	-11.357000	22.532471	0.000947	20.664658
243.074231	-2.986500	3.810400	-11.379000	22.528986	0.000946	20.646941
244.074530	-2.992200	3.809600	-11.398000	22.536536	0.000948	20.654979
245.074560	-2.992100	3.809200	-11.397000	22.552379	0.000949	20.671322
246.078150	-3.001600	3.808600	-11.431000	22.543594	0.000948	20.673903
247.077352	-3.014300	3.807600	-11.477000	22.575118	0.000949	20.656636
248.075971	-3.004300	3.807700	-11.437000	22.580023	0.000948	20.660127
249.072923	-2.997400	3.809100	-11.416000	22.592415	0.000951	20.658313
250.074963	-2.998700	3.807700	-11.417000	22.591034	0.000953	20.672578
251.076291	-3.015300	3.806500	-11.476000	22.621527	0.000952	20.669454
252.075928	-2.982700	3.806800	-11.353000	22.619102	0.000951	20.660386
253.083875	-2.982300	3.807500	-11.354000	22.619062	0.000952	20.657027
254.077835	-2.991300	3.808100	-11.390000	22.625861	0.000952	20.665734
255.076860	-3.018300	3.806500	-11.487000	22.658500	0.000953	20.668555
256.076594	-3.029200	3.805400	-11.526000	22.662858	0.000954	20.671972
257.077380	-2.986800	3.806900	-11.369000	22.676659	0.000953	20.647387
258.078033	-2.986900	3.805800	-11.367000	22.666562	0.000954	20.672838
259.078958	-2.975800	3.806100	-11.325000	22.669500	0.000956	20.673410
260.078616	-2.975500	3.805800	-11.322000	22.675654	0.000956	20.659658
261.078676	-3.006300	3.805600	-11.440000	22.677924	0.000954	20.657663
262.083940	-3.012200	3.804000	-11.456000	22.668412	0.000956	20.678010
263.080560	-2.985600	3.805900	-11.362000	22.704652	0.000957	20.666893
264.088212	-2.992100	3.804800	-11.384000	22.694784	0.000959	20.679296
265.081206	-3.000900	3.805100	-11.418000	22.714836	0.000958	20.662395
266.082059	-3.005700	3.803400	-11.431000	22.700977	0.000958	20.677438
267.085391	-2.983100	3.804200	-11.348000	22.701836	0.000958	20.678298
268.086469	-3.023400	3.802700	-11.497000	22.697346	0.000958	20.656255
269.083202	-3.005800	3.804200	-11.434000	22.691193	0.000960	20.676172
270.083400	-2.994500	3.803400	-11.389000	22.699884	0.000959	20.666385
271.082804	-3.023600	3.802500	-11.496000	22.719585	0.000962	20.685172
272.082164	-2.994900	3.802700	-11.386000	22.702227	0.000961	20.659721
273.085840	-2.996500	3.802900	-11.394000	22.704847	0.000961	20.675624
274.083799	-2.998400	3.801600	-11.397000	22.725314	0.000961	20.672892
275.089770	-3.012500	3.802000	-11.452000	22.740861	0.000961	20.680405
276.085117	-3.010800	3.800100	-11.440000	22.741188	0.000964	20.666507
277.086367	-3.012800	3.801900	-11.452000	22.753944	0.000965	20.687347
278.093302	-2.979900	3.801800	-11.328000	22.773800	0.000964	20.675942
279.087276	-2.999200	3.800400	-11.397000	22.800199	0.000965	20.666825
280.090156	-3.012600	3.799400	-11.445000	22.783096	0.000966	20.653957
281.086385	-3.000400	3.801000	-11.403000	22.789932	0.000965	20.687362
282.086370	-3.009200	3.799700	-11.433000	22.783886	0.000966	20.673243
283.094147	-2.998100	3.799900	-11.390000	22.801307	0.000964	20.668883
284.091956	-2.993200	3.800300	-11.374000	22.800345	0.000966	20.681197
285.090032	-3.013500	3.798800	-11.446000	22.813198	0.000967	20.675106
286.102875	-3.001500	3.799100	-11.401000	22.813574	0.000969	20.676905
287.088302	-2.996200	3.799100	-11.381000	22.783369	0.000970	20.695487
288.087727	-3.000900	3.798900	-11.400000	22.806708	0.000966	20.681882
289.091225	-2.984100	3.798200	-11.333000	22.812037	0.000970	20.675365
290.089106	-2.987800	3.798100	-11.346000	22.801785	0.000971	20.673630
291.089080	-2.985300	3.799100	-11.339000	22.804708	0.000971	20.674662
292.088694	-3.019400	3.796200	-11.461000	22.789347	0.000970	20.677292
293.086646	-2.987700	3.797500	-11.345000	22.807221	0.000972	20.686189
294.089274	-3.017300	3.797200	-11.456000	22.804088	0.000972	20.692534
295.091467	-3.002600	3.796400	-11.398000	22.826388	0.000975	20.678362
296.088435	-3.024700	3.796100	-11.481000	22.844071	0.000972	20.716943
297.093511	-3.002800	3.795100	-11.396000	22.862023	0.000972	20.679922
298.090506	-3.024500	3.794500	-11.475000	22.883370	0.000975	20.681394
299.090192	-2.976900	3.795400	-11.297000	22.916694	0.000974	20.682063
300.091863	-2.999200	3.794900	-11.380000	22.922398	0.000974	20.686356
301.090183	-3.011900	3.794400	-11.427000	22.940602	0.000978	20.665237
302.090017	-2.974600	3.794400	-11.286000	22.933176	0.000976	20.680084
303.088655	-2.984200	3.795400	-11.325000	22.920910	0.000976	20.687236
304.087630	-2.985700	3.793400	-11.325000	22.925160	0.000976	20.697659
305.092093	-3.008000	3.793300	-11.409000	22.941895	0.000977	20.699252
306.090111	-3.003400	3.793700	-11.392000	22.925985	0.000976	20.693269
307.090164	-3.001800	3.793500	-11.386000	22.931278	0.000980	20.694305
308.089500	-2.990400	3.791800	-11.338000	22.949360	0.000977	20.690609
309.090176	-2.973600	3.793500	-11.280000	22.961045	0.000980	20.694256
310.090221	-3.002100	3.792800	-11.385000	22.962250	0.000980	20.671754
311.093119	-2.991300	3.793000	-11.344000	22.985259	0.000980	20.703344
312.092746	-2.991300	3.792500	-11.343000	22.992431	0.000980	20.687295
313.090217	-3.037300	3.790300	-11.511000	23.005877	0.000983	20.682749
314.091429	-2.997100	3.790700	-11.361000	23.013815	0.000980	20.699238
315.091931	-3.003100	3.791700	-11.385000	23.050448	0.000981	20.700856
316.092960	-2.985500	3.791000	-11.316000	23.040974	0.000982	20.678560
317.093723	-2.987200	3.791200	-11.324000	23.045111	0.000982	20.696931
318.095731	-2.983700	3.791000	-11.310000	23.039145	0.000985	20.691427
319.093305	-3.005100	3.789900	-11.388000	23.035628	0.000984	20.699757
320.092596	-2.979000	3.791200	-11.293000	23.018021	0.000983	20.697762
321.093987	-3.012400	3.789100	-11.412000	23.029686	0.000986	20.689535
322.093253	-2.993600	3.790400	-11.346000	23.064050	0.000987	20.688406
323.091003	-3.002500	3.791100	-11.382000	23.094106	0.000985	20.698134
324.092455	-3.004900	3.789700	-11.386000	23.101292	0.000985	20.697274
325.092646	-3.003800	3.789000	-11.380000	23.108268	0.000985	20.708058
326.094421	-3.027600	3.788100	-11.468000	23.101429	0.000987	20.710689
327.093525	-3.006300	3.787300	-11.385000	23.100205	0.000988	20.705194
328.093101	-3.009700	3.789000	-11.403000	23.116806	0.000988	20.698595
329.094311	-3.004300	3.789300	-11.383000	23.123211	0.000989	20.699323
330.094286	-3.008100	3.788200	-11.393000	23.134475	0.000988	20.685953
331.094838	-3.015700	3.787400	-11.420000	23.145831	0.000989	20.716776
332.102102	-3.005300	3.787100	-11.379000	23.175372	0.000990	20.711765
333.096574	-2.994300	3.786800	-11.338000	23.166046	0.000988	20.719963
334.102081	-2.993400	3.786300	-11.333000	23.194548	0.000989	20.702531
335.097028	-3.008300	3.785600	-11.387000	23.168378	0.000990	20.707126
336.098907	-3.025000	3.784500	-11.447000	23.129324	0.000990	20.731055
337.101088	-2.995600	3.785500	-11.339000	23.133207	0.000991	20.699383
338.105618	-2.994400	3.784100	-11.328000	23.144056	0.000991	20.723532
339.101087	-3.007400	3.784700	-11.381000	23.141364	0.000990	20.708979
340.100562	-3.013600	3.785900	-11.408000	23.124149	0.000991	20.712592
341.100616	-3.000000	3.783700	-11.349000	23.102928	0.000990	20.705078
342.099681	-3.002400	3.783400	-11.359000	23.100358	0.000991	20.714357
343.103153	-2.994300	3.782700	-11.325000	23.116144	0.000993	20.692715
344.101753	-3.002900	3.783200	-11.359000	23.097182	0.000993	20.717813
345.109231	-3.012900	3.782100	-11.394000	23.098211	0.000993	20.718845
346.099972	-3.012300	3.782000	-11.392000	23.102021	0.000994	20.705592
347.102098	-3.003600	3.782700	-11.360000	23.105788	0.000995	20.725963
348.105978	-2.992300	3.782700	-11.318000	23.121183	0.000994	20.744236
349.104196	-2.984800	3.781900	-11.287000	23.128681	0.000993	20.741792
350.103288	-3.003200	3.781200	-11.355000	23.166706	0.000996	20.734850
351.103484	-3.018100	3.780700	-11.410000	23.169472	0.000996	20.733828
352.106149	-2.993600	3.783400	-11.325000	23.167594	0.000994	20.717247
353.102058	-3.017300	3.779700	-11.403000	23.167799	0.000997	20.734523
354.109861	-3.020900	3.779800	-11.417000	23.174945	0.000998	20.726036
355.102367	-3.013000	3.780900	-11.391000	23.178886	0.000997	20.729038
356.103277	-3.003400	3.779500	-11.351000	23.178730	0.000999	20.716553
357.102434	-3.002900	3.778900	-11.346000	23.186545	0.000996	20.717271
358.102080	-3.003800	3.778600	-11.348000	23.182930	0.000998	20.718391
359.108647	-2.992000	3.780200	-11.308000	23.211622	0.001000	20.717271
360.103784	-3.006200	3.779600	-11.359000	23.213017	0.000998	20.742853
361.107000	-3.011900	3.778800	-11.380000	23.236152	0.000999	20.731898
362.102072	-2.991000	3.779500	-11.302000	23.254971	0.001000	20.741274
363.104379	-3.009300	3.778300	-11.369000	23.246601	0.001002	20.732411
364.112059	-3.013000	3.776700	-11.378000	23.261960	0.001000	20.743063
365.115541	-3.000900	3.778200	-11.336000	23.284573	0.001001	20.727792
366.103999	-3.015300	3.777600	-11.389000	23.288904	0.001001	20.716010
367.102147	-3.023600	3.776900	-11.419000	23.313545	0.001001	20.744975
368.104010	-3.012600	3.776200	-11.375000	23.324597	0.001003	20.744198
369.103690	-3.005200	3.777200	-11.350000	23.324255	0.001002	20.745278
370.107591	-3.011100	3.775900	-11.367000	23.337941	0.001002	20.751408
371.104961	-3.017700	3.775000	-11.391000	23.326163	0.001003	20.740551
372.110035	-3.032100	3.774800	-11.445000	23.311048	0.001003	20.743421
373.105501	-3.007400	3.776400	-11.356000	23.304635	0.001001	20.735570
374.107252	-3.013200	3.773400	-11.369000	23.294260	0.001003	20.725172
375.106631	-3.022200	3.773400	-11.403000	23.290270	0.001003	20.751047
376.108114	-2.999400	3.775000	-11.322000	23.295465	0.001002	20.747718
377.107915	-3.004100	3.774200	-11.335000	23.296967	0.001005	20.721247
378.108734	-3.005400	3.772000	-11.336000	23.311453	0.001003	20.748569
379.109572	-3.004500	3.773900	-11.337000	23.329217	0.001004	20.750725
380.111404	-3.008100	3.773700	-11.351000	23.320301	0.001005	20.739892
381.112768	-2.984900	3.772000	-11.257000	23.338874	0.001006	20.727686
382.113683	-2.987600	3.773900	-11.274000	23.342503	0.001005	20.757877
383.110979	-3.015500	3.771400	-11.372000	23.374517	0.001007	20.734486
384.111608	-2.967100	3.773800	-11.195000	23.368040	0.001009	20.760712
385.111114	-3.000600	3.771300	-11.315000	23.379711	0.001009	20.757711
386.112249	-2.982700	3.771300	-11.248000	23.386929	0.001007	20.752143
387.112059	-2.984000	3.772600	-11.256000	23.390812	0.001007	20.755086
388.111696	-2.995100	3.770900	-11.294000	23.388315	0.001009	20.751635
389.112387	-2.988000	3.771800	-11.270000	23.403288	0.001008	20.756685
390.112713	-2.990500	3.771200	-11.276000	23.426843	0.001008	20.737621
391.117552	-2.992500	3.771800	-11.285000	23.398182	0.001009	20.729755
392.116809	-2.988100	3.770200	-11.264000	23.388442	0.001010	20.740383
393.117122	-3.007200	3.768400	-11.331000	23.388433	0.001008	20.747486
394.115350	-2.996000	3.769000	-11.289000	23.359322	0.001010	20.757664
395.114104	-2.987400	3.769000	-11.257000	23.383595	0.001010	20.743111
396.118795	-3.012600	3.767500	-11.349000	23.374899	0.001010	20.749095
397.116065	-3.023400	3.766400	-11.386000	23.405503	0.001010	20.754164
398.114754	-3.012400	3.767300	-11.347000	23.409629	0.001010	20.734591
399.114729	-2.990600	3.768000	-11.268000	23.386244	0.001012	20.741024
400.115332	-2.969100	3.768600	-11.188000	23.403762	0.001011	20.758584
401.115385	-2.987000	3.766900	-11.251000	23.399856	0.001013	20.739969
402.118088	-3.010400	3.766200	-11.337000	23.408649	0.001014	20.755895
403.116115	-2.998800	3.766400	-11.293000	23.387181	0.001013	20.763775
404.117953	-3.002700	3.767000	-11.310000	23.403485	0.001013	20.762099
405.119627	-3.011100	3.765000	-11.335000	23.453244	0.001013	20.748910
406.118895	-3.015500	3.765200	-11.352000	23.459491	0.001012	20.767975
407.125242	-3.002800	3.764800	-11.304000	23.463178	0.001013	20.769774
408.118257	-3.021400	3.764200	-11.372000	23.484708	0.001013	20.752948
409.120480	-2.998700	3.766300	-11.293000	23.481519	0.001013	20.773460
410.118859	-2.993800	3.764500	-11.270000	23.488810	0.001016	20.767965
411.120148	-2.997100	3.762900	-11.276000	23.497471	0.001013	20.781863
412.122124	-3.001400	3.763700	-11.295000	23.525925	0.001015	20.766763
413.122660	-2.975000	3.764600	-11.199000	23.521854	0.001016	20.760311
414.125154	-2.978200	3.764400	-11.211000	23.530929	0.001016	20.758028
415.124033	-2.985900	3.763900	-11.237000	23.548357	0.001016	20.751317
416.124091	-3.011000	3.764100	-11.333000	23.557051	0.001017	20.784215
417.125970	-3.011700	3.762600	-11.330000	23.561845	0.001015	20.756777
418.128978	-3.000600	3.762800	-11.289000	23.597744	0.001016	20.765737
419.129198	-2.982400	3.762200	-11.219000	23.597988	0.001016	20.767879
420.124930	-3.014600	3.760200	-11.334000	23.620160	0.001018	20.771140
421.124222	-3.011200	3.761600	-11.326000	23.628591	0.001017	20.778643
422.124181	-3.004400	3.760800	-11.298000	23.632316	0.001017	20.791861
423.124712	-2.999100	3.761400	-11.279000	23.622652	0.001018	20.784544
424.128139	-2.989700	3.759800	-11.239000	23.635120	0.001018	20.791828
425.126681	-2.992400	3.760200	-11.251000	23.615514	0.001018	20.770750
426.126461	-3.009800	3.759300	-11.314000	23.618606	0.001018	20.792815
427.124315	-2.984100	3.758800	-11.216000	23.620113	0.001020	20.796223
428.128172	-3.001000	3.758500	-11.278000	23.612170	0.001018	20.775932
429.131975	-3.005400	3.757100	-11.290000	23.634293	0.001021	20.772506
430.127201	-3.004400	3.757200	-11.287000	23.646531	0.001019	20.777189
431.131031	-2.984700	3.758500	-11.217000	23.663207	0.001018	20.802442
432.126317	-3.002600	3.756200	-11.277000	23.667985	0.001021	20.790163
433.126360	-2.998700	3.757200	-11.264000	23.678259	0.001019	20.788134
434.132174	-3.011000	3.757500	-11.313000	23.678298	0.001021	20.777268
435.130058	-3.009500	3.755800	-11.302000	23.677231	0.001019	20.784732
436.131898	-3.004200	3.755500	-11.281000	23.664451	0.001021	20.778085
437.131562	-3.007200	3.756200	-11.294000	23.685725	0.001020	20.791826
438.133386	-3.013300	3.756200	-11.318000	23.684111	0.001020	20.800639
439.131982	-3.002700	3.756800	-11.279000	23.704447	0.001018	20.795424
440.135530	-2.998600	3.754200	-11.257000	23.703916	0.001021	20.810538
441.133035	-2.984600	3.755600	-11.207000	23.707993	0.001018	20.797081
442.130339	-2.999500	3.754400	-11.260000	23.708987	0.001020	20.788595
443.129768	-3.015600	3.753900	-11.319000	23.734663	0.001019	20.786836
444.130480	-2.997400	3.754300	-11.252000	23.734043	0.001021	20.817509
445.133609	-3.008500	3.752500	-11.288000	23.742562	0.001022	20.811351
446.129615	-3.021000	3.751900	-11.332000	23.726238	0.001021	20.798304
447.133219	-3.002500	3.752300	-11.265000	23.731962	0.001021	20.786974
448.131757	-3.006900	3.752200	-11.282000	23.756700	0.001024	20.807509
449.133022	-3.018600	3.752100	-11.325000	23.728243	0.001023	20.818332
450.139178	-3.004900	3.752000	-11.274000	23.728755	0.001022	20.814578
451.135424	-2.996700	3.751800	-11.242000	23.730232	0.001023	20.813214
452.138579	-3.011100	3.751700	-11.295000	23.741997	0.001023	20.791819
453.133679	-3.019000	3.750900	-11.322000	23.744752	0.001022	20.817814
454.132936	-3.014900	3.751800	-11.311000	23.773093	0.001022	20.802134
455.137769	-2.994700	3.750600	-11.231000	23.767565	0.001024	20.828359
456.138873	-2.983900	3.752300	-11.196000	23.762085	0.001022	20.812433
457.138125	-2.990300	3.749600	-11.212000	23.799337	0.001022	20.812800
458.135932	-3.006500	3.749500	-11.272000	23.791795	0.001024	20.802394
459.136942	-2.991600	3.750300	-11.218000	23.759229	0.001024	20.805303
460.135201	-2.977800	3.749500	-11.164000	23.804783	0.001024	20.819683
461.140844	-2.978400	3.748800	-11.164000	23.777404	0.001023	20.812620
462.138327	-2.999100	3.747800	-11.239000	23.781758	0.001025	20.805605
463.136203	-3.008600	3.747500	-11.273000	23.807636	0.001025	20.817327
464.136442	-2.994900	3.747200	-11.222000	23.814110	0.001025	20.799163
465.133871	-2.978900	3.747900	-11.163000	23.840689	0.001027	20.809692
466.140172	-2.994900	3.749000	-11.227000	23.842376	0.001025	20.830824
467.141341	-3.001000	3.747200	-11.244000	23.824953	0.001024	20.813354
468.138073	-3.017000	3.746000	-11.301000	23.798861	0.001024	20.814693
469.137143	-3.003700	3.745700	-11.250000	23.769108	0.001025	20.817104
470.137107	-2.994700	3.746900	-11.219000	23.766124	0.001025	20.805103
471.137843	-3.020800	3.745100	-11.312000	23.742103	0.001025	20.816581
472.143155	-2.994000	3.747100	-11.218000	23.743970	0.001025	20.828410
473.136627	-2.997400	3.745500	-11.225000	23.780497	0.001024	20.817618
474.139905	-3.022400	3.745100	-11.319000	23.793543	0.001024	20.837810
475.138535	-3.023700	3.745800	-11.325000	23.816388	0.001026	20.821836
476.143288	-3.008600	3.743700	-11.263000	23.834880	0.001027	20.827100
477.141960	-2.981200	3.742800	-11.157000	23.847892	0.001024	20.832087
478.143403	-2.979600	3.744500	-11.157000	23.836094	0.001025	20.815516
479.141231	-2.986900	3.742800	-11.178000	23.867450	0.001026	20.831784
480.142251	-3.003700	3.743000	-11.242000	23.838751	0.001027	20.832405
481.140274	-3.004300	3.742000	-11.240000	23.855595	0.001025	20.833172
482.142449	-3.018700	3.742000	-11.294000	23.841140	0.001027	20.827214
483.145576	-2.988600	3.741600	-11.181000	23.836036	0.001026	20.833001
484.139512	-3.016100	3.742900	-11.288000	23.826203	0.001024	20.831676
485.139492	-3.003600	3.741600	-11.237000	23.857291	0.001026	20.833451
486.143184	-3.008200	3.738900	-11.246000	23.867587	0.001025	20.830025
487.139816	-2.990300	3.740700	-11.185000	23.851778	0.001028	20.816069
488.143555	-2.975200	3.741400	-11.130000	23.864146	0.001027	20.831315
489.142318	-3.010000	3.739600	-11.255000	23.839922	0.001027	20.825519
490.143137	-2.995800	3.738900	-11.201000	23.851183	0.001026	20.821637
491.140966	-2.995600	3.740000	-11.203000	23.843739	0.001027	20.813225
492.144316	-3.005700	3.738500	-11.236000	23.879931	0.001027	20.836711
493.143192	-2.970900	3.739300	-11.107000	23.888662	0.001028	20.807061
494.157675	-2.980000	3.739500	-11.143000	23.901322	0.001025	20.818807
495.142113	-3.000600	3.739000	-11.218000	23.930803	0.001027	20.824662
496.141495	-3.013400	3.738500	-11.265000	23.924672	0.001027	20.790539
497.142130	-2.977600	3.738200	-11.129000	23.955455	0.001029	20.822356
498.145106	-2.999400	3.737400	-11.209000	23.951599	0.001025	20.811377
499.146737	-3.025000	3.736200	-11.301000	23.976064	0.001025	20.808410
500.144081	-3.008000	3.737600	-11.241000	23.973700	0.001029	20.816470
501.147480	-3.007500	3.735900	-11.235000	23.976152	0.001026	20.806602
502.142914	-3.005200	3.735900	-11.226000	23.993027	0.001024	20.801713
503.144456	-3.001900	3.735000	-11.212000	24.007880	0.001026	20.816608
504.148083	-2.993400	3.735000	-11.180000	24.015975	0.001027	20.809554
505.147879	-3.000700	3.735600	-11.207000	24.033771	0.001026	20.804641
506.144331	-2.979700	3.735300	-11.129000	24.034561	0.001026	20.801640
507.144791	-2.988500	3.735300	-11.163000	24.033191	0.001026	20.804060
508.146304	-3.004800	3.732500	-11.215000	24.061266	0.001028	20.821310
509.145000	-3.020400	3.734100	-11.278000	24.047131	0.001026	20.818514
510.149765	-3.010200	3.732700	-11.234000	24.051362	0.001027	20.793833
511.146464	-3.000400	3.732900	-11.199000	24.048671	0.001026	20.798722
512.146984	-3.001500	3.732500	-11.202000	24.020899	0.001027	20.819707
513.147233	-3.001600	3.732100	-11.201000	24.005003	0.001026	20.780532
514.148217	-2.997600	3.731700	-11.185000	24.026255	0.001027	20.786198
515.153356	-2.977900	3.731300	-11.110000	24.013562	0.001028	20.794806
516.148998	-2.963800	3.733400	-11.064000	23.997911	0.001026	20.799973
517.149656	-2.983200	3.732300	-11.133000	23.993451	0.001026	20.801664
518.148353	-2.992900	3.731500	-11.167000	24.024217	0.001028	20.822561
519.149122	-2.998100	3.730400	-11.183000	24.022595	0.001028	20.784898
520.153409	-3.004800	3.730500	-11.207000	24.019178	0.001028	20.796645
521.156423	-2.996100	3.730000	-11.175000	24.063050	0.001029	20.800340
522.152382	-3.012400	3.730000	-11.236000	24.075776	0.001028	20.782756
523.149131	-2.982100	3.730200	-11.122000	24.089053	0.001028	20.793702
524.151383	-3.029100	3.729800	-11.296000	24.092543	0.001030	20.787718
525.148585	-3.001500	3.728400	-11.190000	24.086143	0.001028	20.785093
526.154477	-3.011000	3.729200	-11.228000	24.068699	0.001030	20.781823
527.147680	-2.986400	3.728800	-11.134000	24.059521	0.001027	20.780205
528.148178	-3.020900	3.727800	-11.259000	24.074153	0.001029	20.764533
529.159799	-3.015300	3.726800	-11.237000	24.068187	0.001030	20.780835
530.152394	-2.971400	3.728500	-11.078000	24.040561	0.001029	20.786320
531.159131	-3.002600	3.726800	-11.188000	24.037992	0.001028	20.794650
532.155136	-2.992900	3.728100	-11.156000	24.045011	0.001029	20.782723
533.160102	-3.000700	3.725900	-11.178000	24.062504	0.001030	20.765653
534.157066	-2.998300	3.727100	-11.175000	24.064795	0.001029	20.781701
535.157229	-2.999500	3.725800	-11.175000	24.072433	0.001030	20.786042
536.160589	-2.978800	3.726300	-11.097000	24.074299	0.001029	20.767051
537.159252	-2.992500	3.725900	-11.148000	24.055086	0.001029	20.792353
538.154889	-3.011600	3.723900	-11.214000	24.090023	0.001029	20.774760
539.154963	-3.011600	3.724300	-11.215000	24.071634	0.001031	20.790930
540.158585	-2.989400	3.724400	-11.132000	24.063816	0.001029	20.796840
541.157821	-3.003900	3.723200	-11.183000	24.060857	0.001028	20.767794
542.157912	-2.980900	3.725200	-11.102000	24.070337	0.001029	20.792475
543.157226	-2.998000	3.722700	-11.160000	24.101476	0.001026	20.772970
544.160168	-3.010200	3.721900	-11.203000	24.102632	0.001026	20.780768
545.158642	-2.975200	3.723900	-11.078000	24.111575	0.001028	20.762710
546.158034	-2.973200	3.723400	-11.069000	24.121576	0.001027	20.759938
547.156857	-3.000200	3.722800	-11.169000	24.128244	0.001028	20.768996
548.159931	-3.008200	3.722400	-11.197000	24.118609	0.001027	20.776403
549.156424	-2.984400	3.723100	-11.110000	24.143332	0.001028	20.766586
550.157753	-2.993800	3.721000	-11.139000	24.145043	0.001029	20.775889
551.160931	-3.029600	3.720600	-11.271000	24.146355	0.001029	20.792851
552.162234	-3.008400	3.721200	-11.193000	24.144049	0.001027	20.755451
553.159451	-3.007700	3.720000	-11.188000	24.125758	0.001028	20.803962
554.165439	-2.976200	3.722500	-11.077000	24.115235	0.001028	20.773968
555.162103	-3.037300	3.719200	-11.295000	24.110663	0.001024	20.772227
556.158826	-3.031000	3.718300	-11.268000	24.089730	0.001026	20.762612
557.157642	-3.004300	3.718200	-11.169000	24.077496	0.001027	20.760774
558.162799	-2.979000	3.721000	-11.083000	24.101608	0.001029	20.747971
559.161868	-3.016200	3.718600	-11.215000	24.113729	0.001027	20.764870
560.160212	-2.990100	3.718900	-11.118000	24.115186	0.001027	20.749262
561.160650	-2.975500	3.717700	-11.061000	24.117062	0.001029	20.770584
562.163287	-3.002500	3.718400	-11.164000	24.102529	0.001026	20.770707
563.164915	-2.986200	3.718200	-11.103000	24.113753	0.001029	20.776748
564.164021	-2.993100	3.717100	-11.125000	24.133161	0.001027	20.750694
565.167359	-2.973200	3.718300	-11.054000	24.142893	0.001028	20.740540
566.166270	-2.980700	3.715800	-11.074000	24.136723	0.001027	20.755689
567.163129	-3.011900	3.716600	-11.191000	24.173319	0.001026	20.751143
568.163488	-3.005700	3.715800	-11.167000	24.188871	0.001028	20.773380
569.161782	-2.996100	3.716100	-11.133000	24.187346	0.001027	20.751462
570.160306	-2.988500	3.715000	-11.102000	24.193949	0.001027	20.759507
571.162791	-2.999200	3.714800	-11.140000	24.197975	0.001028	20.742682
572.161275	-3.003100	3.714800	-11.155000	24.168592	0.001027	20.753514
573.162447	-3.018900	3.714200	-11.212000	24.147431	0.001029	20.749834
574.166192	-3.000100	3.714000	-11.140000	24.157621	0.001029	20.735398
575.164140	-2.997900	3.715000	-11.135000	24.133975	0.001028	20.736811
576.163850	-3.002700	3.713600	-11.150000	24.123175	0.001028	20.721236
577.166753	-2.985100	3.713600	-11.084000	24.119441	0.001029	20.749736
578.168909	-2.991200	3.713500	-11.107000	24.146169	0.001027	20.748568
579.174323	-2.985800	3.711500	-11.082000	24.167915	0.001027	20.747619
580.167933	-3.006000	3.712400	-11.158000	24.181771	0.001027	20.748714
581.169110	-3.001800	3.712200	-11.142000	24.180050	0.001027	20.752205
582.169406	-3.007200	3.710700	-11.157000	24.154825	0.001027	20.715996
583.169927	-3.010000	3.711200	-11.170000	24.181551	0.001028	20.739959
584.175495	-3.007600	3.709000	-11.153000	24.195251	0.001027	20.747062
585.184092	-3.008200	3.708800	-11.156000	24.221202	0.001026	20.731840
586.170158	-2.988400	3.711100	-11.089000	24.239116	0.001028	20.737007
587.171238	-2.986700	3.710500	-11.082000	24.244984	0.001026	20.751428
588.169120	-2.992600	3.710000	-11.102000	24.264773	0.001026	20.742829
589.171398	-2.994200	3.709700	-11.106000	24.286362	0.001027	20.725128
590.177881	-3.004500	3.709200	-11.144000	24.252922	0.001026	20.716715
591.168646	-2.998300	3.708600	-11.118000	24.256377	0.001026	20.743416
592.174262	-3.007900	3.708500	-11.154000	24.221830	0.001024	20.738634
593.185738	-3.019200	3.707500	-11.192000	24.238293	0.001027	20.746613
594.171805	-2.992500	3.709200	-11.099000	24.241153	0.001028	20.739524
595.179462	-3.003200	3.707100	-11.132000	24.247250	0.001025	20.744691
596.176200	-3.003600	3.706400	-11.132000	24.244731	0.001025	20.732681
597.182317	-2.984700	3.706300	-11.062000	24.249083	0.001025	20.754591
598.174643	-3.006900	3.706500	-11.144000	24.246719	0.001026	20.726140
599.174768	-3.010300	3.707400	-11.158000	24.290695	0.001025	20.741803
600.182597	-3.011100	3.705100	-11.156000	24.283303	0.001023	20.732017
601.176587	-3.003000	3.705400	-11.126000	24.281641	0.001025	20.738411
602.174098	-2.990500	3.705200	-11.080000	24.266514	0.001024	20.732246
603.173827	-3.008900	3.704700	-11.146000	24.248878	0.001023	20.740161
604.176127	-3.002600	3.704900	-11.124000	24.231135	0.001025	20.729949
605.176085	-3.020000	3.703400	-11.184000	24.208493	0.001025	20.747068
606.179715	-2.994500	3.705300	-11.094000	24.222202	0.001024	20.730472
607.173747	-3.015300	3.703400	-11.166000	24.194687	0.001026	20.736064
608.174869	-3.000600	3.703200	-11.111000	24.206227	0.001023	20.737208
609.188293	-3.001300	3.704300	-11.116000	24.226880	0.001024	20.719043
610.177863	-3.006500	3.703100	-11.132000	24.273834	0.001023	20.743382
611.179949	-3.005200	3.701700	-11.123000	24.268137	0.001024	20.742883
612.175387	-3.028200	3.701800	-11.208000	24.273059	0.001023	20.730276
613.178934	-3.009700	3.701900	-11.140000	24.256792	0.001024	20.705897
614.185773	-2.995900	3.702400	-11.091000	24.251641	0.001024	20.705472
615.178350	-3.000500	3.702400	-11.107000	24.242733	0.001024	20.712184
616.179672	-3.026200	3.699500	-11.193000	24.255243	0.001024	20.708136
617.178026	-3.033400	3.700000	-11.222000	24.267664	0.001023	20.727710
618.182840	-3.009100	3.699600	-11.131000	24.230598	0.001022	20.713763
619.178107	-2.999300	3.701000	-11.099000	24.220973	0.001022	20.718807
620.180712	-3.043400	3.697800	-11.252000	24.208054	0.001025	20.716755
621.183921	-2.978600	3.700600	-11.020000	24.205691	0.001021	20.716755
622.184705	-2.993400	3.699400	-11.073000	24.220305	0.001022	20.757968
623.180168	-3.001100	3.700100	-11.104000	24.234843	0.001022	20.731298
624.181639	-3.014000	3.697900	-11.144000	24.242065	0.001022	20.716256
625.184137	-3.004700	3.697100	-11.108000	24.226466	0.001020	20.731430
626.186769	-2.998200	3.697900	-11.086000	24.293891	0.001019	20.734103
627.189428	-2.989000	3.697500	-11.050000	24.302936	0.001022	20.743177
628.184361	-2.982600	3.698300	-11.029000	24.286572	0.001019	20.729132
629.185897	-3.004500	3.698300	-11.111000	24.327695	0.001021	20.714433
630.184338	-2.970300	3.696900	-10.979000	24.334181	0.001021	20.712878
631.182923	-2.984400	3.696600	-11.031000	24.354564	0.001020	20.703927
632.183342	-3.010000	3.696900	-11.127000	24.362477	0.001018	20.714237
633.184289	-3.000300	3.695000	-11.085000	24.389564	0.001018	20.714858
634.182001	-2.968600	3.695600	-10.969000	24.392327	0.001019	20.714784
635.181028	-2.992600	3.694800	-11.056000	24.395440	0.001017	20.686137
636.187531	-3.007400	3.695500	-11.112000	24.409040	0.001018	20.713533
637.185140	-2.994500	3.695100	-11.063000	24.380233	0.001017	20.709764
638.189845	-2.984100	3.694700	-11.023000	24.362818	0.001019	20.707466
639.185729	-3.009200	3.693800	-11.114000	24.361897	0.001016	20.716975
640.189938	-2.995900	3.693200	-11.064000	24.351996	0.001015	20.708464
641.186952	-3.017900	3.691800	-11.140000	24.379035	0.001017	20.707613
642.185222	-3.045400	3.693200	-11.247000	24.406146	0.001016	20.708733
643.186074	-3.013200	3.693000	-11.125000	24.380126	0.001017	20.701596
644.185059	-3.017900	3.691800	-11.141000	24.379931	0.001018	20.720367
645.183232	-3.026200	3.690400	-11.167000	24.388756	0.001017	20.687966
646.185329	-3.014400	3.690300	-11.124000	24.380565	0.001017	20.694449
647.194960	-3.003400	3.691200	-11.085000	24.403179	0.001017	20.712395
648.187145	-3.004900	3.690800	-11.089000	24.399413	0.001016	20.731377
649.189403	-3.007200	3.691100	-11.099000	24.387124	0.001016	20.702926
650.186306	-3.027200	3.689700	-11.169000	24.379211	0.001015	20.698307
651.190250	-3.008700	3.690600	-11.103000	24.398785	0.001015	20.702296
652.189870	-3.002000	3.689900	-11.076000	24.435943	0.001014	20.705435
653.188944	-2.983100	3.690500	-11.008000	24.415611	0.001016	20.718229
654.187919	-3.015400	3.689500	-11.125000	24.422544	0.001015	20.691992
655.187654	-3.005700	3.689700	-11.089000	24.420376	0.001014	20.697878
656.191323	-2.989700	3.690000	-11.031000	24.404371	0.001014	20.679449
657.193919	-3.014500	3.688100	-11.117000	24.355737	0.001016	20.703207
658.192086	-2.997300	3.688900	-11.056000	24.343643	0.001014	20.687755
659.192084	-2.985300	3.688700	-11.011000	24.353618	0.001016	20.670732
660.194475	-2.993300	3.686900	-11.035000	24.332884	0.001016	20.674590
661.192683	-3.002300	3.686900	-11.069000	24.329347	0.001015	20.690484
662.194571	-2.983000	3.688500	-11.002000	24.380321	0.001013	20.670968
663.192149	-3.004300	3.687200	-11.077000	24.387133	0.001014	20.697719
664.192061	-3.004600	3.686400	-11.074000	24.387157	0.001015	20.686363
665.194853	-2.991800	3.686900	-11.030000	24.436897	0.001013	20.709711
666.189857	-2.998800	3.686100	-11.052000	24.459012	0.001012	20.693965
667.192861	-2.971700	3.687700	-10.959000	24.481142	0.001014	20.692934
668.189045	-3.002100	3.685400	-11.063000	24.507242	0.001012	20.704422
669.189526	-2.991400	3.685400	-11.024000	24.547174	0.001011	20.704657
670.188688	-3.005600	3.684600	-11.072000	24.537527	0.001012	20.698771
671.188936	-2.995200	3.685000	-11.036000	24.532018	0.001014	20.691820
672.190036	-3.022900	3.682900	-11.132000	24.531896	0.001011	20.699285
673.189375	-3.010600	3.683700	-11.088000	24.510352	0.001013	20.700429
674.190473	-3.018000	3.683000	-11.114000	24.507736	0.001013	20.696856
675.189384	-3.017000	3.683600	-11.112000	24.541280	0.001014	20.690682
676.191059	-3.009000	3.682600	-11.080000	24.535210	0.001013	20.687436
677.190247	-2.991100	3.683800	-11.017000	24.541174	0.001010	20.683462
678.189117	-2.995000	3.682100	-11.027000	24.576372	0.001009	20.683692
679.189363	-2.986100	3.683300	-10.998000	24.585790	0.001011	20.669432
680.190572	-2.979700	3.682700	-10.972000	24.563814	0.001009	20.685790
681.194106	-3.002500	3.680800	-11.051000	24.589138	0.001011	20.687966
682.192458	-3.011500	3.679800	-11.080000	24.609204	0.001010	20.697195
683.191457	-2.971500	3.681800	-10.939000	24.566397	0.001009	20.695495
684.191458	-2.994200	3.681000	-11.021000	24.552814	0.001010	20.678546
685.192030	-3.004600	3.680100	-11.055000	24.533902	0.001009	20.698927
686.194341	-3.003900	3.680100	-11.054000	24.507763	0.001010	20.676493
687.196652	-2.998000	3.679800	-11.032000	24.504928	0.001008	20.703996
688.193364	-2.968500	3.681600	-10.928000	24.500558	0.001010	20.698664
689.192362	-3.001800	3.679300	-11.042000	24.461561	0.001008	20.680400
690.194631	-3.012700	3.680100	-11.084000	24.449541	0.001008	20.681143
691.192903	-2.997200	3.678400	-11.024000	24.425666	0.001009	20.679950
692.195064	-3.003000	3.678500	-11.044000	24.465659	0.001008	20.677873
693.192466	-3.015700	3.678500	-11.090000	24.498595	0.001006	20.684365
694.194453	-2.993000	3.678400	-11.008000	24.520203	0.001006	20.690872
695.193451	-3.016500	3.676600	-11.090000	24.488466	0.001006	20.669934
696.193453	-2.986200	3.677400	-10.980000	24.521368	0.001008	20.688247
697.194098	-2.996700	3.677100	-11.017000	24.551817	0.001004	20.699358
698.196100	-2.957600	3.679400	-10.881000	24.549299	0.001005	20.688770
699.193099	-2.985600	3.677000	-10.977000	24.552680	0.001003	20.693111
700.193099	-2.977700	3.677300	-10.949000	24.601525	0.001006	20.685695
701.193099	-2.984400	3.676900	-10.973000	24.603293	0.001006	20.708809
702.194098	-2.989200	3.675800	-10.987000	24.579592	0.001007	20.687396
703.195098	-2.979300	3.675700	-10.950000	24.572528	0.001003	20.702595
704.193098	-3.004000	3.674300	-11.037000	24.553201	0.001004	20.684625
705.193099	-2.991100	3.675300	-10.992000	24.508754	0.001003	20.707836
706.194097	-2.972900	3.676700	-10.929000	24.472373	0.001005	20.690774
707.194097	-2.998000	3.673600	-11.013000	24.474303	0.001005	20.672320
708.197098	-2.991200	3.674400	-10.989000	24.459408	0.001003	20.711908
709.198097	-2.981300	3.675500	-10.956000	24.473977	0.001003	20.701393
710.196099	-3.007000	3.673400	-11.045000	24.489524	0.001002	20.687118
711.196098	-3.002800	3.672600	-11.027000	24.499580	0.001002	20.674920
712.196098	-2.990100	3.672900	-10.981000	24.527438	0.001001	20.696235
713.200101	-2.999800	3.672200	-11.015000	24.566939	0.001003	20.690349
714.199098	-2.994800	3.672400	-10.997000	24.584994	0.001001	20.709414
715.199099	-2.995000	3.672500	-10.998000	24.621283	0.001004	20.689400
716.199099	-3.008200	3.672400	-11.046000	24.647843	0.001002	20.699931
717.200098	-3.011700	3.670500	-11.053000	24.653791	0.001002	20.690725
718.199219	-2.988000	3.671200	-10.969000	24.651028	0.000999	20.687953
719.202221	-2.994800	3.671300	-10.994000	24.678737	0.001001	20.711492
720.199223	-3.005800	3.671000	-11.034000	24.679877	0.000999	20.704100
721.200221	-3.017500	3.668800	-11.070000	24.658043	0.001002	20.682189
722.200221	-2.989300	3.670800	-10.972000	24.667372	0.001002	20.669264
723.201223	-3.002900	3.669600	-11.018000	24.704496	0.001002	20.691346
724.203221	-3.010700	3.667600	-11.041000	24.700652	0.000998	20.690333
725.202221	-3.004800	3.668800	-11.023000	24.726484	0.000999	20.705352
726.205221	-3.001700	3.667600	-11.008000	24.684587	0.001000	20.705033
727.203222	-3.001100	3.666300	-11.002000	24.702704	0.000998	20.691918
728.204221	-3.005300	3.667900	-11.022000	24.697857	0.000999	20.699383
729.204218	-2.998300	3.667500	-10.996000	24.720814	0.000999	20.711042
730.207222	-3.012400	3.665900	-11.042000	24.751975	0.000999	20.705801
731.205206	-3.015100	3.665800	-11.051000	24.734191	0.000998	20.712611
732.205205	-3.006000	3.665900	-11.018000	24.703429	0.000997	20.694543
733.205211	-2.994000	3.666900	-10.976000	24.701335	0.000997	20.701925
734.205211	-3.011900	3.664300	-11.035000	24.671655	0.000997	20.681623
735.207210	-3.011500	3.664900	-11.036000	24.714931	0.000995	20.689489
736.206210	-3.002000	3.665000	-11.001000	24.702670	0.000996	20.708481
737.210213	-3.016300	3.664300	-11.051000	24.727070	0.000996	20.710681
738.206506	-2.987700	3.664600	-10.948000	24.728984	0.000997	20.707860
739.208509	-3.020100	3.663300	-11.062000	24.722915	0.000994	20.694182
740.208973	-3.006800	3.664900	-11.018000	24.746759	0.000995	20.692506
741.208166	-2.991900	3.664200	-10.962000	24.761299	0.000995	20.689079
742.207832	-3.027900	3.663100	-11.090000	24.757364	0.000996	20.705994
743.207149	-2.982100	3.664400	-10.926000	24.767359	0.000993	20.695635
744.210152	-3.011100	3.662800	-11.028000	24.752386	0.000994	20.713801
745.210287	-3.012200	3.662800	-11.032000	24.751295	0.000993	20.698955
746.219784	-3.001000	3.661700	-10.989000	24.743165	0.000995	20.702650
747.213374	-3.015400	3.662300	-11.043000	24.735596	0.000995	20.706435
748.216291	-3.000400	3.661300	-10.985000	24.749216	0.000993	20.687384
749.213329	-3.002800	3.662300	-10.995000	24.733721	0.000991	20.709769
750.213450	-2.995300	3.661600	-10.966000	24.762567	0.000993	20.716432
751.216951	-3.018200	3.660800	-11.047000	24.784048	0.000993	20.700530
752.213478	-3.001700	3.659000	-10.982000	24.764146	0.000993	20.707585
753.213606	-3.001700	3.660800	-10.988000	24.767259	0.000992	20.714502
754.212407	-3.008900	3.659900	-11.011000	24.773099	0.000993	20.704241
755.217448	-2.988300	3.660100	-10.936000	24.767006	0.000991	20.715196
756.213686	-3.006600	3.659400	-11.002000	24.778263	0.000991	20.690456
757.219473	-2.995500	3.659200	-10.960000	24.811262	0.000990	20.718834
758.216290	-2.985200	3.661000	-10.928000	24.820093	0.000990	20.711100
759.218441	-2.988300	3.658900	-10.932000	24.821428	0.000991	20.730459
760.216799	-3.011600	3.657600	-11.014000	24.836123	0.000991	20.722447
761.216462	-3.006500	3.656800	-10.993000	24.820157	0.000990	20.717803
762.223766	-3.001500	3.657700	-10.977000	24.816499	0.000991	20.706071
763.216583	-3.011700	3.657000	-11.012000	24.806782	0.000990	20.700111
764.217986	-3.009000	3.656500	-11.001000	24.814682	0.000990	20.719421
765.215028	-3.018300	3.657800	-11.039000	24.827838	0.000989	20.728357
766.217562	-3.014100	3.655900	-11.019000	24.839942	0.000990	20.717745
767.216357	-3.005700	3.656600	-10.990000	24.863793	0.000987	20.703749
768.218061	-3.030400	3.655700	-11.077000	24.872004	0.000987	20.692549
769.216853	-3.004000	3.655500	-10.981000	24.884604	0.000988	20.711360
770.217943	-3.017300	3.655500	-11.029000	24.925632	0.000988	20.713658
771.218901	-2.988600	3.656200	-10.926000	24.920703	0.000986	20.712030
772.217638	-3.012700	3.655100	-11.011000	24.892864	0.000984	20.710167
773.216093	-2.992900	3.654600	-10.936000	24.920664	0.000987	20.707249
774.216681	-2.993300	3.654400	-10.937000	24.889475	0.000985	20.710085
775.217379	-3.000500	3.654400	-10.963000	24.859696	0.000986	20.711492
776.215901	-3.000800	3.653500	-10.962000	24.862668	0.000986	20.716846
777.216281	-2.990200	3.654700	-10.928000	24.858855	0.000984	20.745737
778.220661	-2.995500	3.653700	-10.943000	24.857218	0.000984	20.716117
779.224506	-2.994800	3.653900	-10.942000	24.889368	0.000986	20.715194
780.223239	-2.992600	3.652500	-10.929000	24.893050	0.000984	20.706560
781.223114	-3.004400	3.652500	-10.973000	24.917159	0.000984	20.713688
782.219831	-2.986600	3.653600	-10.911000	24.897945	0.000983	20.710525
783.221323	-3.002900	3.653300	-10.969000	24.894059	0.000983	20.724644
784.221648	-2.995500	3.652600	-10.940000	24.888618	0.000985	20.718709
785.223150	-3.001100	3.651900	-10.959000	24.883358	0.000984	20.720541
786.221389	-2.991500	3.651300	-10.922000	24.861120	0.000982	20.726672
787.223677	-3.002800	3.651000	-10.963000	24.877762	0.000983	20.697853
788.219910	-2.999300	3.652000	-10.953000	24.857968	0.000982	20.717818
789.225138	-2.974100	3.652200	-10.861000	24.840357	0.000982	20.730964
790.223312	-3.017600	3.649300	-11.011000	24.813012	0.000983	20.722013
791.228047	-3.001100	3.649800	-10.952000	24.835788	0.000981	20.724481
792.224417	-2.999000	3.650600	-10.947000	24.817191	0.000983	20.715775
793.225106	-2.994300	3.648700	-10.924000	24.800036	0.000980	20.722266
794.226310	-2.993000	3.650700	-10.925000	24.788127	0.000982	20.734497
795.221413	-3.014500	3.647800	-10.996000	24.813168	0.000982	20.716478
796.224833	-2.999700	3.647600	-10.940000	24.825110	0.000981	20.726094
797.225129	-2.996400	3.647500	-10.928000	24.857636	0.000981	20.717485
798.222167	-3.006300	3.647600	-10.965000	24.865984	0.000979	20.719700
799.223542	-2.997200	3.646800	-10.928000	24.905814	0.000978	20.738814
800.228313	-3.031700	3.645700	-11.051000	24.889469	0.000980	20.746590
801.227338	-3.012500	3.646100	-10.983000	24.890398	0.000978	20.715279
802.227328	-3.005400	3.646600	-10.958000	24.894446	0.000978	20.723609
803.226290	-2.988200	3.646300	-10.895000	24.893623	0.000979	20.723732
804.224387	-3.014100	3.645400	-10.986000	24.895415	0.000977	20.732169
805.232475	-2.995400	3.644800	-10.917000	24.867493	0.000979	20.726904
806.224604	-2.971700	3.647100	-10.837000	24.862125	0.000979	20.713456
807.230029	-2.998200	3.644500	-10.926000	24.845809	0.000976	20.730272
808.227284	-3.010100	3.645300	-10.971000	24.856252	0.000977	20.753556
809.223391	-3.015600	3.642500	-10.982000	24.837004	0.000977	20.717641
810.232525	-3.010600	3.643100	-10.968000	24.821437	0.000976	20.739003
811.232172	-3.014400	3.643000	-10.980000	24.844237	0.000976	20.735807
812.231488	-2.972200	3.643800	-10.829000	24.836522	0.000974	20.747979
813.228067	-2.999900	3.643900	-10.929000	24.842892	0.000976	20.726396
814.227688	-3.023300	3.641900	-11.009000	24.882056	0.000974	20.724451
815.229083	-2.988000	3.643000	-10.884000	24.902867	0.000975	20.731114
816.231228	-2.973500	3.642800	-10.830000	24.925991	0.000975	20.730141
817.226168	-3.003300	3.642700	-10.938000	24.932971	0.000974	20.730982
818.228496	-3.013600	3.641300	-10.971000	24.960851	0.000976	20.719137
819.227847	-3.001300	3.641200	-10.928000	24.972262	0.000974	20.744816
820.228187	-2.985500	3.642400	-10.873000	24.981384	0.000973	20.722202
821.232673	-2.992200	3.641100	-10.894000	24.991996	0.000973	20.711516
822.229411	-3.000900	3.641100	-10.926000	25.015614	0.000972	20.743761
823.233030	-3.003900	3.641000	-10.936000	25.009425	0.000972	20.723322
824.230987	-2.969900	3.641900	-10.816000	25.029468	0.000972	20.745813
825.232839	-3.001400	3.638900	-10.920000	25.029883	0.000971	20.761877
826.228292	-3.004800	3.638500	-10.932000	25.032099	0.000971	20.751298
827.237998	-3.014500	3.638200	-10.966000	25.062451	0.000972	20.742886
828.232930	-3.015600	3.637900	-10.969000	25.042783	0.000970	20.747799
829.230423	-3.017100	3.639100	-10.979000	25.055585	0.000969	20.729355
830.229598	-2.999700	3.638400	-10.913000	25.041863	0.000969	20.747823
831.229595	-3.024200	3.637700	-10.999000	25.046367	0.000971	20.743810
832.235276	-3.010700	3.638000	-10.951000	25.046464	0.000970	20.728734
833.232129	-3.013100	3.636700	-10.957000	25.050015	0.000969	20.760274
834.231390	-3.020200	3.636900	-10.983000	25.057524	0.000968	20.726559
835.232224	-3.009900	3.637800	-10.948000	25.065432	0.000969	20.751093
836.235387	-3.025900	3.635800	-11.001000	25.078755	0.000969	20.759726
837.238078	-2.961400	3.637500	-10.771000	25.088568	0.000968	20.765309
838.239119	-2.992200	3.637000	-10.880000	25.033930	0.000969	20.737489
839.233811	-2.976200	3.636900	-10.823000	25.033662	0.000967	20.749549
840.234035	-3.005700	3.636600	-10.929000	25.049942	0.000969	20.732224
841.238303	-3.001000	3.635400	-10.909000	25.029402	0.000967	20.751910
842.239974	-3.010900	3.635000	-10.943000	25.072508	0.000966	20.744920
843.240894	-2.999900	3.635200	-10.905000	25.061376	0.000967	20.745599
844.236642	-3.011000	3.634600	-10.942000	25.063713	0.000967	20.749368
845.238426	-2.988100	3.634200	-10.859000	25.064396	0.000964	20.744363
846.243346	-3.018800	3.634800	-10.972000	25.064649	0.000966	20.753627
847.234844	-3.026200	3.634100	-10.996000	25.089585	0.000966	20.744993
848.246106	-3.029500	3.632500	-11.003000	25.083323	0.000964	20.741078
849.238927	-3.012300	3.633700	-10.945000	25.079861	0.000964	20.736654
850.239218	-3.015600	3.631700	-10.952000	25.025671	0.000965	20.752433
851.241403	-3.018400	3.631100	-10.960000	25.008861	0.000964	20.748362
852.237367	-3.017000	3.631600	-10.955000	25.023090	0.000963	20.766912
853.239335	-2.991400	3.631400	-10.862000	25.036911	0.000962	20.746645
854.245138	-3.005400	3.632300	-10.915000	25.034052	0.000962	20.756104
855.242574	-2.985700	3.632100	-10.844000	25.065846	0.000961	20.756725
856.243340	-2.987400	3.632000	-10.849000	25.080148	0.000960	20.759228
857.243009	-2.972600	3.631700	-10.795000	25.102908	0.000962	20.766903
858.245862	-2.994100	3.630600	-10.869000	25.105532	0.000961	20.774279
859.242056	-2.990300	3.629700	-10.852000	25.119059	0.000961	20.763676
860.243637	-2.999800	3.629100	-10.885000	25.149068	0.000961	20.769145
861.245818	-3.010000	3.629800	-10.925000	25.125126	0.000959	20.768344
862.240805	-3.020000	3.628200	-10.956000	25.126290	0.000961	20.741062
863.242327	-2.986800	3.629700	-10.841000	25.122146	0.000960	20.772939
864.242202	-2.988700	3.629000	-10.845000	25.119516	0.000960	20.766505
865.241630	-3.012700	3.628300	-10.931000	25.127945	0.000958	20.756000
866.242184	-2.995200	3.628200	-10.865000	25.147709	0.000960	20.760669
867.242156	-3.004100	3.627400	-10.896000	25.141121	0.000959	20.752158
868.241971	-2.973700	3.628100	-10.787000	25.154467	0.000958	20.742797
869.253635	-2.994100	3.626400	-10.857000	25.180868	0.000958	20.758870
870.244315	-2.979400	3.628400	-10.808000	25.170307	0.000956	20.746844
871.245654	-3.008100	3.626200	-10.906000	25.173792	0.000957	20.770259
872.244157	-2.991200	3.626500	-10.847000	25.180331	0.000956	20.765918
873.241809	-2.992600	3.625700	-10.848000	25.167896	0.000956	20.764340
874.246140	-3.002900	3.625100	-10.886000	25.186676	0.000955	20.766597
875.251791	-2.988300	3.625900	-10.834000	25.216747	0.000956	20.757432
876.250486	-2.991000	3.624900	-10.841000	25.208995	0.000954	20.768142
877.251213	-3.002900	3.624900	-10.884000	25.242795	0.000955	20.766515
878.246748	-3.013200	3.623900	-10.917000	25.244986	0.000954	20.781991
879.243777	-2.998400	3.624400	-10.866000	25.263520	0.000953	20.767882
880.244727	-3.004600	3.623800	-10.887000	25.243121	0.000953	20.780593
881.246845	-2.986800	3.624900	-10.825000	25.234858	0.000952	20.776090
882.243474	-2.986500	3.624500	-10.823000	25.224833	0.000954	20.772663
883.247725	-3.012700	3.622900	-10.913000	25.222813	0.000953	20.786757
884.248832	-2.975400	3.624600	-10.783000	25.254358	0.000952	20.772908
885.249270	-2.977500	3.623500	-10.788000	25.263526	0.000951	20.790174
886.252519	-3.005700	3.622400	-10.887000	25.261058	0.000953	20.793386
887.252896	-3.000600	3.621600	-10.866000	25.274534	0.000952	20.777044
888.254122	-2.991900	3.621700	-10.835000	25.270415	0.000952	20.771960
889.248269	-2.981600	3.621600	-10.797000	25.261735	0.000953	20.776521
890.247982	-2.984200	3.622200	-10.808000	25.280250	0.000950	20.781835
891.251270	-2.990800	3.622600	-10.834000	25.299604	0.000949	20.768075
892.249170	-3.021900	3.620200	-10.938000	25.306565	0.000951	20.796402
893.248356	-3.009200	3.619200	-10.888000	25.278124	0.000948	20.768794
894.251616	-2.988700	3.620200	-10.819000	25.272938	0.000949	20.780657
895.248813	-3.009400	3.620500	-10.894000	25.272213	0.000949	20.769971
896.251114	-2.993800	3.620300	-10.837000	25.241637	0.000949	20.783844
897.255434	-2.998700	3.619000	-10.851000	25.201119	0.000947	20.776830
898.257883	-3.013300	3.618900	-10.904000	25.175907	0.000948	20.802254
899.250055	-2.989200	3.618500	-10.815000	25.156323	0.000945	20.776903
900.253250	-2.989400	3.619400	-10.819000	25.173409	0.000946	20.776986
901.250251	-3.011500	3.617400	-10.893000	25.183970	0.000947	20.801813
902.257583	-2.996300	3.618700	-10.842000	25.229651	0.000945	20.770387
903.254485	-2.984300	3.617900	-10.795000	25.205948	0.000946	20.782627
904.253850	-2.994300	3.616700	-10.829000	25.226607	0.000946	20.804316
905.258090	-2.975900	3.617500	-10.764000	25.276390	0.000945	20.809727
906.256711	-2.986200	3.616600	-10.799000	25.252548	0.000943	20.791954
907.251735	-2.989600	3.616400	-10.811000	25.245090	0.000942	20.772611
908.259380	-2.984100	3.617400	-10.793000	25.206615	0.000942	20.790409
909.254665	-2.982400	3.616000	-10.784000	25.178945	0.000943	20.793924
910.255418	-2.990400	3.616200	-10.813000	25.189662	0.000942	20.815114
911.252530	-2.994300	3.614500	-10.821000	25.217469	0.000943	20.806521
912.253861	-2.999900	3.614200	-10.841000	25.234495	0.000941	20.802278
913.257955	-3.009800	3.614200	-10.877000	25.222143	0.000941	20.791299
914.259508	-2.991600	3.613300	-10.808000	25.247271	0.000942	20.809889
915.259655	-3.007000	3.613600	-10.865000	25.236150	0.000940	20.791137
916.253479	-2.981800	3.614300	-10.776000	25.216256	0.000939	20.802933
917.255607	-2.975900	3.614400	-10.755000	25.247719	0.000940	20.802278
918.254837	-2.976000	3.612500	-10.749000	25.242003	0.000937	20.794169
919.254295	-3.016600	3.612000	-10.894000	25.252710	0.000939	20.816772
920.255105	-2.980700	3.614200	-10.771000	25.292949	0.000937	20.820189
921.255576	-2.992100	3.611700	-10.805000	25.302273	0.000939	20.803946
922.259328	-2.989800	3.611700	-10.796000	25.332676	0.000937	20.807919
923.256053	-2.997900	3.610500	-10.821000	25.294147	0.000936	20.822814
924.262277	-3.018700	3.610500	-10.899000	25.289351	0.000937	20.801878
925.259972	-2.995400	3.611200	-10.816000	25.261887	0.000936	20.791373
926.256250	-3.003300	3.610600	-10.843000	25.260022	0.000935	20.814157
927.261189	-3.002700	3.609400	-10.836000	25.253533	0.000935	20.808589
928.257571	-2.994100	3.611300	-10.811000	25.240635	0.000936	20.810813
929.268517	-3.022500	3.608300	-10.905000	25.228234	0.000935	20.817803
930.256347	-2.985000	3.610500	-10.776000	25.246107	0.000934	20.809669
931.261994	-2.997000	3.609100	-10.815000	25.259340	0.000932	20.790712
932.263401	-3.014200	3.608200	-10.875000	25.271658	0.000934	20.813037
933.262815	-3.037000	3.607100	-10.953000	25.280476	0.000933	20.834692
934.260826	-3.021500	3.607700	-10.900000	25.289181	0.000934	20.820672
935.264911	-2.986900	3.608000	-10.775000	25.272700	0.000932	20.822618
936.260870	-2.998700	3.607400	-10.816000	25.318679	0.000931	20.825160
937.263568	-3.009000	3.606900	-10.852000	25.333596	0.000931	20.819274
938.260956	-3.023100	3.606400	-10.900000	25.337846	0.000931	20.819748
939.265707	-2.989000	3.606300	-10.778000	25.367042	0.000931	20.808286
940.261689	-3.002000	3.607200	-10.828000	25.365917	0.000931	20.819960
941.264133	-3.012000	3.605400	-10.858000	25.348201	0.000930	20.823982
942.264160	-2.979800	3.605300	-10.741000	25.362587	0.000930	20.826099
943.261767	-2.967300	3.605400	-10.697000	25.384245	0.000929	20.830776
944.259697	-2.973900	3.605300	-10.721000	25.399941	0.000929	20.821881
945.267389	-3.017000	3.603800	-10.871000	25.377903	0.000928	20.817769
946.261204	-2.995200	3.605200	-10.797000	25.370966	0.000929	20.830244
947.266151	-3.016500	3.602700	-10.867000	25.355227	0.000926	20.818708
948.261413	-2.990800	3.603900	-10.777000	25.379807	0.000930	20.840069
949.264318	-2.986100	3.605200	-10.765000	25.379505	0.000927	20.835973
950.263284	-3.012300	3.602700	-10.852000	25.391188	0.000928	20.833480
951.267427	-2.999400	3.603000	-10.805000	25.415499	0.000926	20.839873
952.261620	-2.989300	3.602000	-10.766000	25.437936	0.000927	20.851972
953.266840	-2.977900	3.602800	-10.728000	25.437455	0.000926	20.831100
954.262381	-2.989000	3.603000	-10.768000	25.454283	0.000927	20.833300
955.265855	-2.991900	3.601300	-10.773000	25.457238	0.000925	20.842431
956.263813	-2.977500	3.602300	-10.725000	25.430552	0.000925	20.836496
957.261959	-2.987500	3.601900	-10.759000	25.441184	0.000925	20.829629
958.267715	-2.996600	3.600000	-10.786000	25.436608	0.000924	20.816974
959.264259	-2.984200	3.600200	-10.742000	25.454176	0.000926	20.837460
960.264937	-2.997800	3.600600	-10.793000	25.470060	0.000921	20.838711
961.266086	-3.001300	3.599900	-10.802000	25.445954	0.000924	20.842006
962.265628	-3.011400	3.599400	-10.838000	25.402756	0.000924	20.855526
963.267058	-2.997500	3.598500	-10.784000	25.377656	0.000923	20.841229
964.267778	-3.016000	3.598000	-10.850000	25.379316	0.000923	20.849060
965.269681	-2.996700	3.598200	-10.782000	25.374375	0.000923	20.836512
966.272923	-3.003300	3.599200	-10.809000	25.394524	0.000922	20.842520
967.267928	-3.005300	3.599000	-10.815000	25.414649	0.000920	20.832382
968.269039	-3.006900	3.596900	-10.814000	25.430159	0.000923	20.852697
969.269683	-2.988300	3.598800	-10.754000	25.421562	0.000920	20.845487
970.267444	-3.000000	3.597300	-10.791000	25.414528	0.000921	20.846010
971.271500	-3.012200	3.596300	-10.831000	25.411116	0.000920	20.861075
972.272105	-2.984700	3.596900	-10.734000	25.411588	0.000919	20.851592
973.271857	-2.985600	3.596800	-10.738000	25.415365	0.000919	20.833101
974.274629	-3.024300	3.595200	-10.870000	25.391722	0.000920	20.845869
975.274300	-2.999200	3.595500	-10.783000	25.412197	0.000920	20.858842
976.277819	-3.011400	3.595000	-10.825000	25.424352	0.000917	20.860616
977.272536	-3.010200	3.594400	-10.818000	25.404779	0.000916	20.837644
978.276046	-3.005400	3.594600	-10.802000	25.427737	0.000916	20.851688
979.271909	-3.000800	3.592900	-10.781000	25.424261	0.000916	20.860051
980.275720	-3.007700	3.594200	-10.810000	25.428861	0.000915	20.851868
981.276413	-2.987100	3.595200	-10.738000	25.446445	0.000916	20.858145
982.279802	-3.004200	3.592100	-10.790000	25.419978	0.000915	20.864758
983.284676	-3.015100	3.593600	-10.834000	25.430284	0.000914	20.861831
984.276855	-3.012400	3.592500	-10.820000	25.403003	0.000915	20.874265
985.277627	-2.997600	3.593000	-10.769000	25.436121	0.000915	20.845408
986.279134	-2.972100	3.593900	-10.681000	25.453241	0.000915	20.870185
987.275992	-3.012900	3.591100	-10.818000	25.464370	0.000911	20.881359
988.276789	-3.004700	3.592300	-10.792000	25.433166	0.000912	20.857139
989.279762	-2.988800	3.592500	-10.736000	25.427320	0.000912	20.849846
990.282249	-2.984500	3.591100	-10.716000	25.449814	0.000910	20.873855
991.280049	-3.005100	3.590500	-10.789000	25.460446	0.000910	20.866040
992.279309	-3.039900	3.589100	-10.908000	25.468921	0.000909	20.854162
993.279166	-2.996600	3.590100	-10.757000	25.452550	0.000908	20.874232
994.282534	-2.993100	3.590600	-10.746000	25.444221	0.000910	20.861602
995.283134	-3.010700	3.589700	-10.806000	25.437056	0.000910	20.857252
996.278713	-2.994200	3.588700	-10.744000	25.434369	0.000908	20.853132
997.282308	-3.009500	3.588000	-10.796000	25.453388	0.000907	20.866539
998.280149	-2.992600	3.590500	-10.743000	25.451197	0.000907	20.869555
999.282267	-3.015100	3.588500	-10.818000	25.443749	0.000905	20.854490
1000.285644	-2.982900	3.587900	-10.701000	25.404889	0.000906	20.851978
1001.281255	-3.007400	3.586300	-10.784000	25.368057	0.000905	20.866676
1002.284196	-3.004500	3.587100	-10.776000	25.355243	0.000905	20.845750
1003.284322	-3.001200	3.588000	-10.766000	25.389501	0.000904	20.824674
1004.288296	-2.987800	3.587000	-10.716000	25.383951	0.000905	20.856083
1005.285714	-3.001100	3.585200	-10.759000	25.406860	0.000904	20.847320
1006.287024	-3.006300	3.587100	-10.783000	25.406315	0.000903	20.845350
1007.284392	-2.977000	3.587300	-10.678000	25.441004	0.000903	20.860268
1008.286133	-3.004100	3.585600	-10.771000	25.455822	0.000903	20.851440
1009.282160	-2.990400	3.584600	-10.718000	25.469612	0.000902	20.838262
1010.286438	-3.025200	3.583600	-10.839000	25.487287	0.000901	20.839415
1011.287835	-3.009700	3.585000	-10.788000	25.527411	0.000900	20.840829
1012.283034	-3.005400	3.583900	-10.770000	25.517715	0.000900	20.849109
1013.282543	-3.016500	3.583300	-10.809000	25.520508	0.000901	20.846224
1014.286374	-3.003700	3.582800	-10.762000	25.524700	0.000901	20.828149
1015.287413	-3.005800	3.582900	-10.768000	25.489206	0.000900	20.845610
1016.284914	-2.994300	3.583000	-10.728000	25.491308	0.000902	20.815479
1017.288131	-3.004700	3.581600	-10.760000	25.462472	0.000901	20.836308
1018.290531	-2.987900	3.582400	-10.703000	25.446077	0.000899	20.853508
1019.285211	-3.003300	3.580600	-10.751000	25.428450	0.000898	20.835809
1020.286366	-3.016300	3.581500	-10.801000	25.399296	0.000897	20.853474
1021.295747	-3.008200	3.580800	-10.771000	25.361169	0.000898	20.826571
1022.288158	-3.018200	3.580700	-10.806000	25.377925	0.000898	20.849085
1023.288380	-3.006300	3.580900	-10.765000	25.407991	0.000898	20.842765
1024.291624	-2.990300	3.579700	-10.703000	25.409782	0.000896	20.829391
1025.288078	-2.996700	3.579800	-10.727000	25.462097	0.000897	20.836405
1026.291886	-3.014100	3.579000	-10.786000	25.483842	0.000894	20.840223
1027.285118	-3.013100	3.580100	-10.786000	25.506578	0.000896	20.821331
1028.291375	-3.002100	3.579300	-10.744000	25.512976	0.000895	20.837238
1029.291835	-3.000700	3.579500	-10.739000	25.517112	0.000896	20.842340
1030.291043	-2.996600	3.578500	-10.723000	25.571807	0.000892	20.834206
1031.293805	-2.997500	3.577200	-10.722000	25.561338	0.000894	20.825589
1032.292474	-2.991000	3.577400	-10.699000	25.560288	0.000893	20.836387
1033.290978	-2.998600	3.577100	-10.726000	25.539376	0.000892	20.812068
1034.289386	-2.996900	3.576600	-10.718000	25.521742	0.000890	20.820438
1035.289412	-3.021300	3.576900	-10.806000	25.500553	0.000892	20.826186
1036.290130	-2.980400	3.576200	-10.657000	25.503615	0.000890	20.817880
1037.294056	-3.013000	3.575000	-10.771000	25.471980	0.000890	20.823096
1038.288265	-3.006600	3.575000	-10.747000	25.457756	0.000889	20.798382
1039.292615	-3.019200	3.573700	-10.789000	25.424143	0.000890	20.817259
1040.289323	-3.003900	3.575100	-10.739000	25.405139	0.000887	20.814298
1041.295819	-2.994700	3.575500	-10.707000	25.378150	0.000887	20.813751
1042.295619	-3.010100	3.573900	-10.756000	25.405962	0.000886	20.831719
1043.292046	-2.991600	3.573800	-10.690000	25.419631	0.000887	20.799453
1044.299318	-2.994800	3.574600	-10.704000	25.428341	0.000884	20.811992
1045.295240	-2.997100	3.572800	-10.707000	25.423342	0.000886	20.840162
1046.294565	-3.003400	3.573000	-10.730000	25.440024	0.000885	20.820878
1047.302316	-2.996700	3.572600	-10.705000	25.475014	0.000882	20.818557
1048.297138	-3.019200	3.571000	-10.779000	25.481362	0.000882	20.796483
1049.298672	-3.002600	3.572200	-10.724000	25.513381	0.000881	20.827688
1050.302422	-3.039100	3.571700	-10.853000	25.545103	0.000882	20.819242
1051.295775	-3.018000	3.571100	-10.776000	25.547635	0.000884	20.839327
1052.297585	-3.022200	3.570800	-10.791000	25.547309	0.000881	20.829043
1053.305010	-2.997000	3.571300	-10.701000	25.537695	0.000881	20.806113
1054.296439	-3.022000	3.570400	-10.789000	25.531777	0.000880	20.826721
1055.299475	-3.040300	3.569300	-10.850000	25.513265	0.000881	20.827572
1056.295974	-3.007700	3.568700	-10.731000	25.544890	0.000879	20.825666
1057.296867	-2.995900	3.570600	-10.695000	25.554951	0.000878	20.821546
1058.300235	-2.992600	3.569700	-10.682000	25.593023	0.000877	20.816159
1059.298547	-3.001500	3.570000	-10.715000	25.603108	0.000878	20.825813
1060.299711	-3.000500	3.569500	-10.709000	25.610540	0.000878	20.823320
1061.299345	-2.992900	3.568100	-10.678000	25.631158	0.000876	20.821742
1062.295601	-3.018100	3.567800	-10.766000	25.606428	0.000877	20.824406
1063.296314	-3.016400	3.568400	-10.762000	25.636278	0.000877	20.792745
1064.300982	-2.997100	3.568200	-10.693000	25.618484	0.000875	20.822289
1065.299787	-3.005600	3.568000	-10.723000	25.650709	0.000876	20.811980
1066.300484	-3.024100	3.566200	-10.784000	25.642226	0.000875	20.826694
1067.300760	-2.987800	3.567200	-10.656000	25.633957	0.000875	20.815070
1068.304389	-2.989800	3.567700	-10.666000	25.636220	0.000875	20.804541
1069.304943	-2.991900	3.566400	-10.669000	25.611378	0.000872	20.807566
1070.302526	-3.001800	3.565000	-10.699000	25.632964	0.000873	20.810280
1071.299857	-2.988500	3.564800	-10.652000	25.626949	0.000874	20.808031
1072.302236	-2.991900	3.564100	-10.662000	25.666717	0.000871	20.808145
1073.306251	-2.977100	3.565200	-10.613000	25.659164	0.000872	20.817628
1074.301046	-3.000300	3.563900	-10.690000	25.620330	0.000872	20.811341
1075.301130	-3.000500	3.564000	-10.691000	25.598783	0.000872	20.799659
1076.299092	-2.998400	3.563300	-10.682000	25.556496	0.000867	20.790855
1077.298618	-3.015200	3.562100	-10.739000	25.549789	0.000869	20.819206
1078.298599	-3.002500	3.564000	-10.700000	25.533842	0.000869	20.797502
1079.299304	-2.997600	3.563900	-10.682000	25.547745	0.000868	20.836593
1080.302870	-3.002900	3.561600	-10.694000	25.548388	0.000867	20.815428
1081.299792	-3.001500	3.561900	-10.690000	25.589228	0.000868	20.813296
1082.302866	-3.000100	3.561400	-10.684000	25.562600	0.000866	20.791295
1083.302250	-2.994200	3.561300	-10.663000	25.516550	0.000866	20.817594
1084.302805	-2.996500	3.563300	-10.676000	25.557870	0.000866	20.805985
1085.303444	-3.011800	3.561900	-10.726000	25.574940	0.000865	20.807481
1086.315240	-3.011000	3.559300	-10.716000	25.578668	0.000864	20.807432
1087.299559	-3.009500	3.560100	-10.713000	25.606475	0.000862	20.805961
1088.304365	-3.022000	3.558800	-10.754000	25.601330	0.000863	20.795104
1089.301372	-3.004000	3.558900	-10.690000	25.622265	0.000862	20.796689
1090.311350	-2.991100	3.559300	-10.645000	25.605293	0.000863	20.823740
1091.306926	-3.007500	3.559600	-10.704000	25.595461	0.000861	20.795373
1092.303343	-2.988600	3.559800	-10.638000	25.622322	0.000861	20.798169
1093.305439	-2.995100	3.559000	-10.658000	25.619456	0.000859	20.790075
1094.304722	-3.007800	3.557300	-10.699000	25.636949	0.000858	20.808117
1095.304336	-3.013300	3.556400	-10.715000	25.642793	0.000859	20.774159
1096.301237	-3.016000	3.556900	-10.727000	25.639553	0.000859	20.798405
1097.301994	-2.994400	3.555900	-10.647000	25.636745	0.000856	20.789421
1098.302472	-3.015100	3.556800	-10.723000	25.634564	0.000856	20.790075
1099.305331	-3.000600	3.556000	-10.669000	25.616794	0.000856	20.795462
1100.305402	-2.987400	3.557100	-10.626000	25.628475	0.000856	20.801978
1101.304737	-2.996900	3.554900	-10.652000	25.622070	0.000854	20.784165
1102.307582	-3.032100	3.553800	-10.773000	25.614044	0.000855	20.792700
1103.304902	-3.005900	3.554500	-10.684000	25.601516	0.000855	20.788179
1104.304163	-2.983700	3.555100	-10.607000	25.616657	0.000854	20.789160
1105.307345	-3.008800	3.553700	-10.691000	25.637250	0.000854	20.815532
1106.311148	-2.993800	3.555100	-10.641000	25.651349	0.000854	20.812623
1107.308247	-2.993800	3.553300	-10.636000	25.661872	0.000852	20.805649
1108.308953	-2.981600	3.553600	-10.594000	25.669100	0.000853	20.792045
1109.311354	-2.982000	3.553500	-10.595000	25.623967	0.000852	20.783700
1110.313064	-2.989500	3.553100	-10.621000	25.639717	0.000852	20.776759
1111.312946	-3.011900	3.552800	-10.699000	25.635989	0.000851	20.778704
1112.318560	-3.012800	3.551500	-10.697000	25.624016	0.000850	20.790387
1113.310290	-3.015500	3.551700	-10.709000	25.602161	0.000848	20.761325
1114.317486	-2.987400	3.552300	-10.610000	25.623870	0.000848	20.788344
1115.311792	-3.003000	3.549700	-10.660000	25.638578	0.000848	20.777985
1116.312222	-3.018700	3.550300	-10.717000	25.669118	0.000849	20.800598
1117.313608	-2.997600	3.550200	-10.641000	25.694756	0.000849	20.776563
1118.313569	-2.990600	3.550400	-10.617000	25.676777	0.000847	20.767988
1119.314366	-2.984300	3.549300	-10.590000	25.640606	0.000847	20.787609
1120.316944	-3.034700	3.548900	-10.768000	25.601363	0.000847	20.779965
1121.317325	-2.994300	3.549300	-10.627000	25.594973	0.000846	20.781133
1122.316387	-3.014700	3.549400	-10.698000	25.563627	0.000847	20.792326
1123.323092	-3.038000	3.547000	-10.775000	25.528012	0.000845	20.785957
1124.315802	-2.993300	3.549800	-10.624000	25.511740	0.000844	20.790004
1125.323127	-3.001300	3.548200	-10.649000	25.517470	0.000845	20.770628
1126.317103	-3.001400	3.547200	-10.645000	25.548640	0.000843	20.789604
1127.319799	-2.993500	3.546900	-10.617000	25.551181	0.000844	20.786939
1128.319999	-3.031300	3.546500	-10.749000	25.541217	0.000842	20.773140
1129.324903	-2.999100	3.548000	-10.639000	25.522005	0.000841	20.766648
1130.323268	-3.022400	3.545500	-10.715000	25.516665	0.000843	20.786890
1131.323133	-3.028700	3.544400	-10.734000	25.511651	0.000840	20.769527
1132.323152	-2.996400	3.545600	-10.623000	25.523154	0.000841	20.778707
1133.323158	-2.996500	3.545300	-10.622000	25.541436	0.000839	20.759135
1134.328766	-3.008200	3.544300	-10.661000	25.583465	0.000840	20.773843
1135.321918	-3.019100	3.542800	-10.695000	25.576855	0.000838	20.774317
1136.329354	-2.992200	3.544400	-10.604000	25.568683	0.000839	20.769903
1137.324667	-3.003900	3.544000	-10.645000	25.567894	0.000837	20.764843
1138.321302	-2.990900	3.544100	-10.600000	25.597336	0.000836	20.792516
1139.328869	-2.982700	3.543100	-10.567000	25.578305	0.000838	20.757281
1140.321357	-3.000200	3.543300	-10.630000	25.602725	0.000835	20.763788
1141.321284	-2.989100	3.544100	-10.593000	25.585615	0.000837	20.777899
1142.322818	-2.979100	3.542400	-10.550000	25.603075	0.000833	20.762717
1143.323756	-3.003100	3.541600	-10.635000	25.592192	0.000834	20.751787
1144.325351	-2.985900	3.542600	-10.578000	25.589213	0.000834	20.786254
1145.329528	-3.002200	3.540000	-10.627000	25.595286	0.000835	20.776706
1146.326286	-3.021900	3.539900	-10.696000	25.609075	0.000833	20.772537
1147.324158	-3.011700	3.539700	-10.659000	25.630792	0.000831	20.773959
1148.323695	-2.980100	3.541200	-10.551000	25.631118	0.000830	20.764803
1149.325010	-3.025700	3.540100	-10.709000	25.596157	0.000830	20.771891
1150.329553	-3.008800	3.539200	-10.648000	25.587163	0.000829	20.760012
1151.325960	-3.035000	3.536400	-10.732000	25.576605	0.000831	20.750358
1152.331484	-3.003000	3.538700	-10.625000	25.607717	0.000828	20.745093
1153.329181	-2.995400	3.539800	-10.602000	25.627725	0.000830	20.746222
1154.328648	-2.993900	3.538600	-10.593000	25.638062	0.000827	20.748069
1155.328979	-2.973100	3.539700	-10.521000	25.653349	0.000828	20.753466
1156.331652	-2.989100	3.538000	-10.574000	25.642369	0.000827	20.768517
1157.330057	-3.007100	3.537400	-10.636000	25.662660	0.000826	20.759498
1158.329566	-3.001000	3.537900	-10.617000	25.647766	0.000825	20.767299
1159.327598	-3.001700	3.537600	-10.617000	25.638991	0.000826	20.751847
1160.327973	-3.006400	3.536300	-10.631000	25.635516	0.000826	20.743615
1161.333659	-3.004800	3.535100	-10.621000	25.659861	0.000824	20.757161
1162.327840	-2.989200	3.536900	-10.572000	25.676247	0.000824	20.742324
1163.330300	-2.979100	3.535100	-10.531000	25.672168	0.000822	20.759565
1164.332534	-2.990400	3.535600	-10.572000	25.716796	0.000821	20.763138
1165.330716	-3.012600	3.536300	-10.652000	25.712353	0.000821	20.740657
1166.337585	-3.012300	3.532800	-10.641000	25.721005	0.000823	20.748873
1167.331453	-3.007400	3.532500	-10.622000	25.753626	0.000822	20.759828
1168.334700	-3.003400	3.533400	-10.611000	25.722878	0.000822	20.739375
1169.332370	-3.004600	3.532400	-10.613000	25.722665	0.000821	20.735367
1170.329568	-3.000300	3.534000	-10.601000	25.721048	0.000820	20.768357
1171.333416	-2.994500	3.532000	-10.576000	25.733939	0.000819	20.762340
1172.337693	-3.008700	3.531500	-10.625000	25.751609	0.000820	20.740259
1173.333903	-3.025400	3.530900	-10.681000	25.764257	0.000818	20.744428
1174.332729	-3.012700	3.530400	-10.634000	25.743886	0.000817	20.740561
1175.334334	-2.996300	3.532200	-10.581000	25.767741	0.000817	20.737022
1176.335863	-2.988100	3.531800	-10.552000	25.742104	0.000818	20.734030
1177.336638	-2.988400	3.531000	-10.552000	25.749642	0.000814	20.753456
1178.333376	-2.976800	3.530700	-10.508000	25.746411	0.000816	20.752581
1179.338422	-2.984200	3.528600	-10.528000	25.777118	0.000815	20.734112
1180.333073	-2.994700	3.527700	-10.564000	25.753704	0.000815	20.741415
1181.333871	-2.997700	3.528200	-10.575000	25.727333	0.000814	20.729150
1182.333563	-2.997900	3.528600	-10.576000	25.750683	0.000814	20.730793
1183.336795	-3.035200	3.527200	-10.705000	25.750196	0.000815	20.719397
1184.336331	-2.996900	3.527200	-10.569000	25.763739	0.000811	20.731105
1185.339436	-3.003200	3.527100	-10.591000	25.764610	0.000812	20.740041
1186.333678	-3.022000	3.526500	-10.657000	25.783638	0.000810	20.730230
1187.338606	-3.001800	3.527900	-10.588000	25.751758	0.000812	20.736141
1188.338453	-2.993000	3.527800	-10.558000	25.727888	0.000810	20.735871
1189.335719	-2.985000	3.526300	-10.525000	25.718422	0.000809	20.727786
1190.332345	-2.984400	3.526900	-10.523000	25.727839	0.000810	20.729658
1191.337413	-2.991700	3.525200	-10.545000	25.761924	0.000808	20.732601
1192.334135	-3.020400	3.524800	-10.645000	25.744215	0.000807	20.720028
1193.333160	-2.992200	3.524300	-10.544000	25.738443	0.000806	20.708540
1194.338630	-2.987300	3.524800	-10.528000	25.739202	0.000805	20.731114
1195.333854	-3.005200	3.524100	-10.590000	25.744288	0.000806	20.730059
1196.332458	-2.994700	3.524600	-10.554000	25.750327	0.000807	20.718581
1197.336603	-3.024600	3.524100	-10.658000	25.732121	0.000806	20.699818
1198.336675	-3.008500	3.523900	-10.600000	25.692093	0.000802	20.706080
1199.335209	-3.002100	3.523700	-10.578000	25.668659	0.000804	20.729487
1200.334269	-3.010000	3.523400	-10.605000	25.696268	0.000803	20.727819
1201.334234	-3.000100	3.521700	-10.565000	25.687022	0.000802	20.719480
1202.336336	-3.000500	3.521900	-10.565000	25.680607	0.000803	20.708295
1203.336520	-2.994000	3.521200	-10.541000	25.629932	0.000802	20.718091
1204.335242	-3.017700	3.520300	-10.622000	25.646870	0.000801	20.711394
1205.338321	-3.002300	3.519400	-10.566000	25.668284	0.000800	20.686908
1206.337832	-3.005600	3.519200	-10.577000	25.659616	0.000799	20.716136
1207.334867	-2.989300	3.520500	-10.523000	25.700060	0.000799	20.702229
1208.343098	-2.990200	3.519500	-10.523000	25.737874	0.000799	20.706545
1209.336228	-3.004100	3.520500	-10.575000	25.754274	0.000800	20.722545
1210.338724	-2.976500	3.519900	-10.476000	25.749928	0.000798	20.714386
1211.339818	-3.005400	3.518000	-10.571000	25.773750	0.000799	20.703700
1212.337516	-3.006300	3.517100	-10.571000	25.776484	0.000797	20.723518
1213.339455	-3.023000	3.515800	-10.627000	25.761452	0.000799	20.720747
1214.338149	-2.996000	3.517200	-10.537000	25.752215	0.000796	20.696768
1215.339101	-2.983800	3.518700	-10.498000	25.783011	0.000797	20.710633
1216.338048	-2.994500	3.516500	-10.529000	25.760874	0.000795	20.717794
1217.338283	-3.002200	3.515700	-10.554000	25.751563	0.000797	20.693742
1218.341517	-3.017100	3.515700	-10.606000	25.718617	0.000794	20.717550
1219.337153	-3.003000	3.516600	-10.559000	25.681128	0.000793	20.714983
1220.341730	-2.958200	3.517600	-10.404000	25.684905	0.000792	20.702180
1221.346784	-3.013200	3.515200	-10.590000	25.688258	0.000792	20.713609
1222.345678	-3.001900	3.514200	-10.547000	25.723907	0.000792	20.701051
1223.342431	-3.016400	3.513700	-10.598000	25.719984	0.000792	20.698059
1224.343444	-3.003300	3.514100	-10.553000	25.694021	0.000792	20.703749
1225.347661	-3.003900	3.514000	-10.554000	25.713497	0.000791	20.675894
1226.342430	-3.009600	3.512700	-10.571000	25.722865	0.000791	20.711859
1227.347621	-2.998600	3.513100	-10.533000	25.749301	0.000790	20.700479
1228.349468	-2.984700	3.514500	-10.489000	25.732852	0.000791	20.712881
1229.349959	-2.996300	3.511100	-10.519000	25.736181	0.000787	20.697257
1230.346337	-2.985400	3.513400	-10.488000	25.717249	0.000787	20.691044
1231.347355	-3.017000	3.511600	-10.593000	25.721133	0.000788	20.701109
1232.348979	-2.995100	3.512500	-10.520000	25.752492	0.000788	20.709375
1233.347858	-2.999800	3.510500	-10.529000	25.754892	0.000786	20.694715
1234.351822	-2.998800	3.510100	-10.526000	25.784664	0.000786	20.708026
1235.345453	-2.991100	3.510600	-10.499000	25.833258	0.000786	20.701363
1236.354615	-3.000600	3.509600	-10.529000	25.853652	0.000787	20.682967
1237.349755	-2.998900	3.508100	-10.519000	25.816445	0.000785	20.689688
1238.349183	-2.991000	3.508400	-10.493000	25.837507	0.000784	20.708002
1239.348454	-3.000300	3.507500	-10.523000	25.796188	0.000784	20.709170
1240.351493	-3.000800	3.508700	-10.528000	25.808811	0.000783	20.690554
1241.347735	-3.004200	3.506100	-10.532000	25.756634	0.000784	20.686507
1242.351022	-3.021900	3.505300	-10.590000	25.779292	0.000780	20.691723
1243.348872	-3.025000	3.505100	-10.601000	25.774596	0.000782	20.678470
1244.352154	-3.005300	3.507500	-10.540000	25.780757	0.000781	20.684659
1245.353422	-2.995500	3.507000	-10.504000	25.791044	0.000782	20.688829
1246.349403	-2.995900	3.506000	-10.502000	25.820033	0.000782	20.684757
1247.349457	-3.006600	3.506200	-10.541000	25.808957	0.000779	20.695443
1248.351032	-2.989600	3.504600	-10.475000	25.834413	0.000778	20.662690
1249.354180	-2.993400	3.505000	-10.492000	25.817828	0.000778	20.691552
1250.356383	-2.979900	3.504700	-10.443000	25.809103	0.000780	20.677570
1251.354895	-2.998900	3.503900	-10.506000	25.794714	0.000777	20.687773
1252.352140	-2.991400	3.505400	-10.485000	25.766995	0.000778	20.693121
1253.357382	-2.967400	3.504900	-10.399000	25.738492	0.000777	20.681086
1254.354230	-2.995500	3.503300	-10.493000	25.716339	0.000776	20.689181
1255.356470	-2.988200	3.503300	-10.468000	25.707248	0.000774	20.683368
1256.358863	-2.997300	3.503500	-10.498000	25.759116	0.000774	20.678094
1257.352555	-3.005200	3.501600	-10.521000	25.762445	0.000775	20.687602
1258.356675	-2.977000	3.502300	-10.425000	25.800811	0.000775	20.705279
1259.354414	-2.997100	3.500300	-10.489000	25.811488	0.000773	20.707469
1260.358807	-2.997200	3.500300	-10.490000	25.825250	0.000772	20.696162
1261.355086	-2.994300	3.499400	-10.476000	25.804033	0.000771	20.690970
1262.354707	-3.006500	3.500600	-10.524000	25.794626	0.000771	20.702385
1263.356747	-3.049500	3.496900	-10.663000	25.836276	0.000770	20.695385
1264.357594	-3.017800	3.498900	-10.558000	25.822296	0.000771	20.705524
1265.356382	-3.016600	3.499500	-10.556000	25.805026	0.000770	20.681535
1266.357224	-3.003900	3.498900	-10.508000	25.869764	0.000767	20.696309
1267.353274	-2.997800	3.497700	-10.485000	25.846180	0.000769	20.683521
1268.352852	-3.001400	3.497900	-10.498000	25.848841	0.000766	20.686195
1269.359829	-3.024000	3.496800	-10.573000	25.812292	0.000767	20.699267
1270.356592	-3.004300	3.496300	-10.503000	25.785517	0.000766	20.694657
1271.356394	-3.002100	3.497500	-10.498000	25.751155	0.000767	20.684323
1272.355003	-3.015500	3.495100	-10.538000	25.709386	0.000767	20.697845
1273.357670	-3.006000	3.495700	-10.506000	25.703444	0.000765	20.705628
1274.354956	-2.999500	3.494900	-10.482000	25.726322	0.000763	20.704900
1275.359218	-3.014500	3.494700	-10.533000	25.752611	0.000766	20.658755
1276.356450	-2.994800	3.495600	-10.468000	25.773202	0.000764	20.667585
1277.358326	-2.995700	3.495300	-10.470000	25.801353	0.000762	20.691598
1278.364874	-2.999400	3.494100	-10.479000	25.813870	0.000762	20.703697
1279.354849	-2.990700	3.493400	-10.446000	25.834833	0.000763	20.689667
1280.358664	-3.008400	3.493600	-10.509000	25.862365	0.000761	20.691246
1281.359080	-3.019500	3.490600	-10.538000	25.906553	0.000761	20.692014
1282.361750	-2.998400	3.491800	-10.469000	25.879202	0.000759	20.681606
1283.357543	-2.992300	3.492600	-10.449000	25.828152	0.000759	20.694810
1284.361748	-2.984900	3.492700	-10.425000	25.827933	0.000759	20.696961
1285.362175	-2.999800	3.491100	-10.471000	25.850288	0.000759	20.676742
1286.363195	-2.979400	3.490700	-10.399000	25.863635	0.000759	20.693944
1287.361726	-2.991800	3.489900	-10.440000	25.884549	0.000758	20.692669
1288.360666	-3.006600	3.489400	-10.491000	25.908709	0.000757	20.696077
1289.362370	-2.986500	3.488200	-10.417000	25.953400	0.000755	20.687394
1290.359567	-3.005500	3.488700	-10.485000	25.921299	0.000757	20.707304
1291.365187	-2.992300	3.488600	-10.437000	25.930730	0.000756	20.696389
1292.362359	-2.999400	3.487500	-10.459000	25.929892	0.000755	20.699341
1293.361778	-3.019800	3.486300	-10.527000	25.941765	0.000755	20.707950
1294.363728	-3.009700	3.486400	-10.492000	25.956615	0.000754	20.677347
1295.358814	-2.989800	3.487000	-10.423000	25.955695	0.000753	20.688753
1296.361647	-2.993300	3.486200	-10.435000	25.933766	0.000754	20.700387
1297.362710	-3.015900	3.486400	-10.514000	25.904722	0.000753	20.686382
1298.367292	-3.011000	3.485500	-10.493000	25.877405	0.000752	20.681698
1299.363460	-3.011700	3.485200	-10.495000	25.837260	0.000752	20.704909
1300.363795	-2.985700	3.485400	-10.404000	25.816223	0.000752	20.705588
1301.363797	-2.969100	3.485700	-10.349000	25.806880	0.000752	20.667750
1302.361639	-3.018700	3.483400	-10.513000	25.786403	0.000750	20.689857
1303.359098	-2.977200	3.485200	-10.375000	25.751570	0.000750	20.703232
1304.360247	-2.990700	3.485200	-10.422000	25.729432	0.000749	20.694272
1305.369395	-3.027900	3.483200	-10.545000	25.756844	0.000749	20.672018
1306.363178	-2.998700	3.484400	-10.448000	25.768426	0.000748	20.698827
1307.361739	-3.005700	3.481300	-10.463000	25.793810	0.000749	20.703936
1308.366633	-2.999500	3.481700	-10.442000	25.817777	0.000747	20.700984
1309.366331	-2.986300	3.482400	-10.399000	25.836405	0.000747	20.686978
1310.360253	-3.016300	3.482100	-10.501000	25.837300	0.000748	20.693094
1311.363661	-3.036800	3.479300	-10.564000	25.851655	0.000745	20.701825
1312.363593	-3.022000	3.480400	-10.516000	25.897171	0.000746	20.710566
1313.363560	-3.020700	3.480200	-10.512000	25.891571	0.000744	20.699249
1314.361490	-3.013600	3.480000	-10.487000	25.928361	0.000745	20.701122
1315.367991	-2.991500	3.480200	-10.409000	25.921467	0.000745	20.694195
1316.364665	-3.009700	3.478600	-10.468000	25.887323	0.000743	20.699249
1317.362911	-3.020200	3.478400	-10.505000	25.871568	0.000744	20.706182
1318.361086	-3.001700	3.478000	-10.438000	25.882959	0.000744	20.684433
1319.361659	-3.014400	3.478500	-10.483000	25.895980	0.000742	20.703679
1320.364403	-2.962900	3.479900	-10.310000	25.895874	0.000742	20.697882
1321.365258	-2.969100	3.477900	-10.325000	25.879875	0.000740	20.698405
1322.363657	-2.991100	3.477200	-10.400000	25.890307	0.000742	20.699877
1323.362823	-2.969500	3.477600	-10.325000	25.869735	0.000739	20.700547
1324.364750	-2.999200	3.478800	-10.431000	25.804174	0.000740	20.698225
1325.364261	-3.023000	3.476000	-10.507000	25.811619	0.000739	20.721827
1326.363588	-3.022100	3.475700	-10.503000	25.825960	0.000740	20.699721
1327.367398	-2.981800	3.475600	-10.362000	25.834496	0.000740	20.710667
1328.367215	-3.002200	3.474700	-10.431000	25.841853	0.000737	20.706678
1329.369949	-2.976500	3.474900	-10.340000	25.866300	0.000738	20.718909
1330.368061	-2.991900	3.473200	-10.391000	25.872174	0.000738	20.722913
1331.368793	-2.997100	3.474700	-10.413000	25.862466	0.000737	20.720273
1332.366594	-3.009200	3.473600	-10.452000	25.879263	0.000736	20.710119
1333.375679	-3.001300	3.473700	-10.425000	25.860228	0.000736	20.701902
1334.367655	-3.000100	3.472500	-10.416000	25.844155	0.000735	20.723690
1335.371487	-2.985800	3.471900	-10.364000	25.824355	0.000734	20.715180
1336.376529	-3.008500	3.470300	-10.439000	25.810234	0.000733	20.707632
1337.370852	-2.967400	3.471100	-10.298000	25.796098	0.000736	20.712399
1338.373860	-2.978400	3.471700	-10.339000	25.773294	0.000733	20.711778
1339.374802	-2.992700	3.470400	-10.385000	25.753328	0.000733	20.719224
1340.375662	-3.006100	3.468300	-10.425000	25.735968	0.000732	20.715063
1341.369612	-2.985200	3.469100	-10.355000	25.712560	0.000731	20.699611
1342.373130	-2.968100	3.469700	-10.296000	25.742894	0.000731	20.725814
1343.374192	-3.009200	3.468300	-10.435000	25.739964	0.000731	20.716232
1344.377749	-2.997800	3.467000	-10.393000	25.819860	0.000731	20.733899
1345.374964	-3.009500	3.467100	-10.434000	25.841052	0.000731	20.715831
1346.379698	-3.018400	3.466200	-10.460000	25.877869	0.000730	20.712512
1347.373223	-3.025200	3.465300	-10.482000	25.874613	0.000729	20.729158
1348.370990	-3.008900	3.465200	-10.425000	25.864701	0.000730	20.737219
1349.376903	-3.024700	3.464800	-10.479000	25.887211	0.000730	20.719527
1350.369861	-3.011700	3.464900	-10.434000	25.903624	0.000727	20.743129
1351.371432	-2.993800	3.465100	-10.372000	25.937908	0.000729	20.705023
1352.374965	-2.991800	3.464100	-10.362000	25.942189	0.000728	20.715015
1353.374322	-3.007600	3.464400	-10.417000	25.974054	0.000725	20.743236
1354.374218	-3.019200	3.464000	-10.457000	25.963500	0.000725	20.718407
1355.374358	-2.997700	3.464700	-10.385000	25.987619	0.000726	20.700437
1356.373096	-2.991500	3.464800	-10.363000	26.034292	0.000725	20.734529
1357.370638	-3.023700	3.462400	-10.468000	26.049962	0.000725	20.728463
1358.376336	-2.992100	3.462700	-10.359000	26.069433	0.000724	20.712463
1359.372583	-3.007100	3.462200	-10.409000	26.083955	0.000725	20.725159
1360.371488	-2.993400	3.460800	-10.358000	26.111953	0.000725	20.732428
1361.371551	-2.981600	3.462600	-10.323000	26.112741	0.000724	20.727530
1362.375992	-3.005300	3.460400	-10.396000	26.125750	0.000721	20.749137
1363.372429	-2.996300	3.461700	-10.372000	26.133943	0.000721	20.714694
1364.373901	-2.985900	3.460200	-10.330000	26.129769	0.000722	20.714767
1365.375072	-2.988000	3.461000	-10.341000	26.110732	0.000722	20.730253
1366.376012	-2.991800	3.459200	-10.348000	26.069838	0.000720	20.723777
1367.377717	-2.996000	3.458600	-10.361000	26.072091	0.000721	20.753069
1368.371239	-2.985300	3.458400	-10.324000	26.053312	0.000718	20.733251
1369.375755	-2.974000	3.458600	-10.284000	26.015680	0.000719	20.733848
1370.375293	-3.009900	3.457200	-10.405000	25.989413	0.000720	20.731639
1371.375352	-2.999300	3.456600	-10.366000	25.970501	0.000715	20.734925
1372.381049	-2.989800	3.456900	-10.334000	25.948027	0.000717	20.741744
1373.378840	-3.011200	3.455900	-10.406000	25.943234	0.000715	20.742145
1374.376302	-2.999400	3.456900	-10.368000	25.952445	0.000714	20.753295
1375.376474	-3.013000	3.456200	-10.412000	25.964887	0.000715	20.728335
1376.378971	-3.013200	3.454700	-10.409000	26.007060	0.000713	20.740835
1377.377161	-3.009000	3.455600	-10.396000	26.034603	0.000715	20.732946
1378.378207	-3.004000	3.454200	-10.375000	26.008248	0.000714	20.741080
1379.378129	-2.993400	3.453500	-10.336000	25.993520	0.000713	20.736240
1380.377458	-2.977800	3.454700	-10.286000	25.976823	0.000711	20.726576
1381.386477	-2.992000	3.454100	-10.334000	25.971695	0.000711	20.718106
1382.382769	-3.003600	3.453300	-10.372000	25.957585	0.000709	20.726216
1383.381706	-3.005300	3.452500	-10.375000	25.933588	0.000710	20.734350
1384.383985	-3.008200	3.451000	-10.381000	25.932026	0.000711	20.739893
1385.385014	-3.021200	3.451500	-10.427000	25.897441	0.000711	20.740710
1386.379891	-3.003400	3.452400	-10.367000	25.891150	0.000711	20.733916
1387.379439	-2.992900	3.451600	-10.328000	25.866216	0.000711	20.747750
1388.381491	-3.020100	3.449900	-10.418000	25.875802	0.000711	20.743155
1389.391683	-3.002200	3.450700	-10.359000	25.913415	0.000708	20.735421
1390.381294	-3.032400	3.449700	-10.460000	25.928738	0.000707	20.757453
1391.385653	-3.000100	3.449100	-10.347000	25.964583	0.000707	20.756955
1392.386186	-2.985800	3.450400	-10.301000	25.994861	0.000708	20.742329
1393.380857	-2.987700	3.448200	-10.301000	26.015471	0.000707	20.754027
1394.385165	-2.990400	3.448100	-10.310000	26.031321	0.000705	20.759047
1395.386915	-2.991200	3.447700	-10.311000	26.050850	0.000705	20.752589
1396.388026	-3.004500	3.447400	-10.357000	26.032908	0.000705	20.748313
1397.384181	-2.997100	3.446800	-10.330000	25.976275	0.000705	20.739303
1398.385575	-2.964400	3.447500	-10.218000	25.944776	0.000704	20.747487
1399.389388	-3.005200	3.445900	-10.355000	25.973020	0.000703	20.751681
1400.383944	-2.985900	3.446700	-10.291000	25.957226	0.000703	20.747193
1401.392077	-3.000000	3.445300	-10.335000	25.960740	0.000702	20.744085
1402.384792	-3.009300	3.443900	-10.361000	25.953125	0.000702	20.762039
1403.387240	-2.999300	3.444900	-10.332000	25.912054	0.000702	20.735476
1404.389902	-3.011700	3.442900	-10.369000	25.913699	0.000702	20.740448
1405.388584	-2.993700	3.443600	-10.307000	25.934237	0.000700	20.745434
1406.393432	-2.986800	3.444900	-10.287000	25.969041	0.000699	20.775184
1407.385542	-2.977300	3.443300	-10.251000	25.962320	0.000702	20.748992
1408.388833	-2.998000	3.442600	-10.320000	25.960880	0.000702	20.751338
1409.387514	-3.008700	3.443100	-10.359000	25.943335	0.000700	20.753626
1410.387630	-3.011500	3.442800	-10.366000	25.932431	0.000697	20.764958
1411.389151	-3.009200	3.441200	-10.354000	25.935817	0.000699	20.771678
1412.387014	-3.017400	3.440100	-10.379000	25.983086	0.000697	20.747569
1413.388287	-3.004200	3.440000	-10.333000	25.969448	0.000698	20.758524
1414.389946	-3.008800	3.440400	-10.350000	25.984526	0.000697	20.743326
1415.390557	-2.989700	3.441200	-10.287000	26.041338	0.000695	20.763896
1416.394222	-2.983700	3.439800	-10.262000	26.055496	0.000698	20.748722
1417.393154	-3.021300	3.437900	-10.386000	26.075700	0.000695	20.760014
1418.403672	-3.011300	3.438400	-10.353000	26.086797	0.000695	20.754568
1419.392128	-3.018900	3.437400	-10.374000	26.098628	0.000694	20.772620
1420.392974	-3.005300	3.437900	-10.331000	26.094259	0.000693	20.765859
1421.392879	-3.017200	3.436700	-10.367000	26.071860	0.000692	20.745724
1422.390255	-2.992300	3.436800	-10.283000	26.091208	0.000692	20.758052
1423.394539	-3.003500	3.437300	-10.322000	26.080534	0.000692	20.740214
1424.391770	-3.001100	3.437500	-10.315000	26.049086	0.000693	20.756508
1425.395952	-2.986500	3.435700	-10.260000	26.034359	0.000691	20.761625
1426.397715	-2.986100	3.437100	-10.263000	26.013677	0.000691	20.762182
1427.393409	-2.999900	3.435900	-10.307000	26.016980	0.000691	20.766924
1428.395903	-3.008100	3.434900	-10.332000	26.016094	0.000690	20.762714
1429.394278	-3.001700	3.433300	-10.305000	26.039438	0.000690	20.753925
1430.394417	-2.995800	3.434100	-10.286000	26.043685	0.000691	20.774315
1431.400442	-2.994300	3.433800	-10.281000	26.061578	0.000688	20.772852
1432.392122	-2.999800	3.433000	-10.296000	26.046982	0.000688	20.753919
1433.395319	-3.002600	3.433400	-10.308000	26.063856	0.000687	20.766606
1434.396776	-2.996200	3.434000	-10.287000	26.036640	0.000688	20.762020
1435.397439	-2.982900	3.431600	-10.236000	25.983728	0.000686	20.751059
1436.400279	-2.970000	3.432900	-10.194000	26.014532	0.000686	20.757826
1437.394750	-2.981500	3.432400	-10.232000	26.017031	0.000685	20.781674
1438.396868	-3.013400	3.431000	-10.338000	26.053394	0.000687	20.779802
1439.401841	-3.000100	3.430900	-10.292000	26.079218	0.000684	20.765920
1440.394297	-2.978100	3.431100	-10.217000	26.105377	0.000685	20.758064
1441.394797	-2.998300	3.428400	-10.279000	26.153689	0.000682	20.762986
1442.400933	-3.002900	3.429800	-10.298000	26.173857	0.000685	20.790365
1443.394495	-3.007200	3.429100	-10.311000	26.178177	0.000682	20.783800
1444.394422	-2.980600	3.429300	-10.219000	26.218659	0.000682	20.790341
1445.397649	-2.991600	3.430300	-10.261000	26.221304	0.000682	20.770239
1446.399786	-2.994900	3.427800	-10.264000	26.225867	0.000682	20.782411
1447.395499	-2.984400	3.429100	-10.233000	26.173199	0.000682	20.781169
1448.398806	-3.012600	3.427300	-10.324000	26.144056	0.000680	20.795507
1449.398462	-3.002900	3.427400	-10.290000	26.102670	0.000681	20.770518
1450.400858	-3.011900	3.427300	-10.322000	26.072925	0.000681	20.779037
1451.399795	-3.003700	3.425000	-10.286000	26.029003	0.000679	20.766201
1452.404234	-2.991100	3.425900	-10.246000	26.037872	0.000678	20.788863
1453.399249	-2.981700	3.426700	-10.216000	26.055985	0.000677	20.788569
1454.403385	-3.018600	3.423400	-10.333000	26.080679	0.000676	20.779242
1455.401097	-3.009600	3.424500	-10.306000	26.098611	0.000676	20.771181
1456.403577	-3.011400	3.421800	-10.303000	26.109742	0.000675	20.794219
1457.400523	-2.982800	3.424000	-10.212000	26.126112	0.000676	20.780322
1458.401851	-2.985100	3.423600	-10.219000	26.122638	0.000673	20.791056
1459.400855	-2.972800	3.424700	-10.180000	26.106302	0.000677	20.791711
1460.399269	-3.003500	3.422600	-10.279000	26.056459	0.000675	20.780985
1461.402431	-3.012300	3.420900	-10.304000	26.074855	0.000675	20.786666
1462.403801	-3.006600	3.422200	-10.288000	26.058941	0.000674	20.772573
1463.399261	-3.013000	3.421400	-10.308000	26.075588	0.000675	20.779817
1464.399979	-3.027500	3.421200	-10.356000	26.097369	0.000674	20.796960
1465.403495	-3.017600	3.419900	-10.319000	26.078949	0.000674	20.789358
1466.401412	-3.017900	3.420000	-10.319000	26.121094	0.000670	20.777651
1467.403609	-3.031100	3.418700	-10.361000	26.142159	0.000670	20.795972
1468.408022	-3.011200	3.418000	-10.291000	26.177509	0.000670	20.803518
1469.401340	-2.994100	3.420900	-10.242000	26.199492	0.000670	20.793365
1470.407360	-3.024600	3.418000	-10.338000	26.243462	0.000668	20.801989
1471.406892	-3.015800	3.419100	-10.309000	26.231699	0.000669	20.798229
1472.408593	-3.019500	3.417800	-10.319000	26.221742	0.000671	20.788697
1473.401509	-3.003500	3.416700	-10.262000	26.143958	0.000668	20.797779
1474.411723	-3.012700	3.417000	-10.293000	26.148457	0.000669	20.780015
1475.402879	-3.008200	3.417700	-10.279000	26.139492	0.000668	20.780489
1476.406443	-3.003100	3.416000	-10.258000	26.155015	0.000666	20.769061
1477.406431	-2.999400	3.415300	-10.243000	26.180009	0.000666	20.783270
1478.405889	-2.986100	3.416100	-10.199000	26.205888	0.000667	20.798844
1479.406147	-2.970600	3.415700	-10.146000	26.181400	0.000666	20.796996
1480.404702	-3.002100	3.414000	-10.248000	26.170994	0.000666	20.782747
1481.406413	-3.009100	3.414800	-10.275000	26.163298	0.000665	20.809627
1482.407494	-2.991200	3.415000	-10.214000	26.154056	0.000664	20.809823
1483.405191	-3.000000	3.413500	-10.240000	26.137345	0.000665	20.795402
1484.405241	-3.028600	3.411900	-10.331000	26.128720	0.000663	20.792900
1485.409833	-2.993100	3.412800	-10.214000	26.161956	0.000664	20.817287
1486.406462	-2.986600	3.413900	-10.194000	26.169116	0.000662	20.807886
1487.409482	-3.002300	3.413200	-10.246000	26.182474	0.000661	20.793808
1488.406812	-2.958200	3.412000	-10.092000	26.161663	0.000663	20.790915
1489.403863	-2.993500	3.411100	-10.211000	26.129600	0.000662	20.818440
1490.407776	-3.023100	3.410300	-10.309000	26.145611	0.000661	20.793276
1491.410275	-2.991400	3.411900	-10.205000	26.158123	0.000660	20.821022
1492.410243	-2.979500	3.410200	-10.160000	26.155724	0.000658	20.798697
1493.408401	-3.005000	3.409100	-10.243000	26.176030	0.000659	20.820997
1494.414096	-2.980300	3.411600	-10.167000	26.156838	0.000661	20.812144
1495.411129	-2.997000	3.408400	-10.214000	26.171262	0.000658	20.811465
1496.411718	-2.981300	3.408500	-10.161000	26.180252	0.000657	20.828085
1497.414388	-3.039400	3.407600	-10.355000	26.186304	0.000656	20.820416
1498.419646	-3.017200	3.407300	-10.278000	26.175290	0.000656	20.811719
1499.409852	-3.007900	3.406600	-10.246000	26.177129	0.000656	20.813093
1500.411558	-2.998500	3.406700	-10.214000	26.172678	0.000655	20.812888
1501.413767	-2.999900	3.407000	-10.219000	26.167357	0.000655	20.819869
1502.414950	-2.995200	3.406300	-10.202000	26.178763	0.000655	20.831330
1503.418284	-3.010300	3.405000	-10.250000	26.221288	0.000656	20.813371
1504.412012	-3.028100	3.404800	-10.309000	26.255008	0.000654	20.843462
1505.415491	-2.996100	3.406000	-10.203000	26.260125	0.000653	20.811621
1506.412892	-2.984900	3.406200	-10.166000	26.305200	0.000653	20.808082
1507.414412	-2.975800	3.405500	-10.133000	26.305882	0.000653	20.824888
1508.413346	-3.012500	3.401700	-10.247000	26.338975	0.000652	20.824955
1509.416363	-3.004300	3.404100	-10.226000	26.336339	0.000653	20.815194
1510.418586	-2.998300	3.403200	-10.203000	26.366630	0.000649	20.822404
1511.419891	-2.984500	3.402300	-10.153000	26.391367	0.000648	20.826402
1512.415942	-3.004400	3.401500	-10.217000	26.394839	0.000649	20.836056
1513.420123	-3.018600	3.402700	-10.270000	26.395880	0.000650	20.816240
1514.417071	-2.998500	3.401700	-10.199000	26.419818	0.000649	20.823230
1515.417330	-2.979100	3.402200	-10.134000	26.399533	0.000649	20.817066
1516.421314	-3.001500	3.401400	-10.208000	26.430027	0.000649	20.822585
1517.419986	-2.990200	3.400500	-10.167000	26.460194	0.000646	20.821138
1518.420222	-2.998100	3.399200	-10.191000	26.445098	0.000647	20.823983
1519.424606	-3.003900	3.399600	-10.211000	26.458234	0.000647	20.831970
1520.421215	-2.999700	3.399200	-10.196000	26.412076	0.000647	20.811655
1521.424239	-2.990200	3.399600	-10.163000	26.382281	0.000647	20.828177
1522.430017	-3.003100	3.399800	-10.208000	26.390642	0.000646	20.821881
1523.423244	-3.003700	3.397200	-10.203000	26.377481	0.000644	20.822404
1524.421299	-2.997000	3.397800	-10.182000	26.388731	0.000644	20.811900
1525.420656	-3.007500	3.396800	-10.215000	26.388877	0.000643	20.825797
1526.417425	-2.991900	3.396700	-10.162000	26.410505	0.000642	20.810551
1527.433322	-2.999600	3.396400	-10.186000	26.421648	0.000643	20.802310
1528.422791	-2.989300	3.397100	-10.155000	26.392822	0.000640	20.821227
1529.421772	-2.993000	3.394600	-10.159000	26.373780	0.000641	20.813943
1530.421804	-2.987500	3.395300	-10.142000	26.379767	0.000641	20.829443
1531.422682	-2.972100	3.395000	-10.089000	26.392758	0.000640	20.806938
1532.422315	-3.015100	3.394700	-10.233000	26.404357	0.000639	20.810061
1533.422134	-2.978700	3.394200	-10.109000	26.400574	0.000639	20.782551
1534.417971	-2.999000	3.394900	-10.180000	26.405243	0.000640	20.802891
1535.423245	-3.006000	3.393700	-10.200000	26.374017	0.000635	20.812759
1536.420119	-3.014300	3.393300	-10.227000	26.393938	0.000637	20.810970
1537.422782	-3.004400	3.393200	-10.194000	26.414882	0.000639	20.815424
1538.423891	-3.008300	3.391500	-10.202000	26.418470	0.000636	20.785365
1539.421719	-3.006700	3.392600	-10.200000	26.438332	0.000636	20.815286
1540.421925	-3.003100	3.392700	-10.188000	26.371098	0.000636	20.814567
1541.422362	-2.993200	3.392000	-10.152000	26.346663	0.000634	20.793328
1542.423746	-3.003400	3.391100	-10.184000	26.341279	0.000637	20.800245
1543.419214	-3.003400	3.391900	-10.185000	26.354766	0.000633	20.785824
1544.424331	-2.975100	3.391800	-10.089000	26.299891	0.000636	20.797057
1545.422746	-3.020100	3.390400	-10.238000	26.302917	0.000633	20.806262
1546.428008	-3.005800	3.389200	-10.185000	26.268109	0.000632	20.803050
1547.423744	-3.000700	3.389100	-10.169000	26.257461	0.000633	20.795668
1548.428201	-2.976200	3.390300	-10.090000	26.220861	0.000632	20.769794
1549.427859	-2.994000	3.389800	-10.149000	26.198334	0.000632	20.791728
1550.424438	-2.991900	3.388500	-10.137000	26.195391	0.000630	20.778338
1551.425214	-3.015100	3.388300	-10.216000	26.219397	0.000632	20.787289
1552.421682	-3.017700	3.387200	-10.221000	26.183284	0.000628	20.795570
1553.425541	-2.994500	3.387400	-10.142000	26.214581	0.000627	20.790510
1554.423391	-3.009700	3.386400	-10.189000	26.189695	0.000627	20.790633
1555.423976	-3.005300	3.387100	-10.178000	26.183406	0.000628	20.799960
1556.424698	-2.997500	3.386100	-10.149000	26.202542	0.000629	20.785998
1557.424319	-2.995200	3.385800	-10.140000	26.194617	0.000626	20.788467
1558.430087	-2.995600	3.384600	-10.138000	26.237555	0.000628	20.780880
1559.424424	-2.977000	3.386000	-10.079000	26.248840	0.000626	20.759029
1560.427546	-2.960900	3.386900	-10.027000	26.274212	0.000626	20.776940
1561.425659	-3.011700	3.382500	-10.186000	26.297705	0.000625	20.770678
1562.425812	-3.007400	3.383500	-10.174000	26.300658	0.000624	20.770326
1563.425123	-3.018000	3.382400	-10.207000	26.281371	0.000623	20.790773
1564.433235	-3.023700	3.382600	-10.227000	26.275116	0.000622	20.774530
1565.429231	-2.988800	3.382400	-10.109000	26.258383	0.000622	20.753920
1566.432247	-2.991300	3.382500	-10.117000	26.249150	0.000625	20.774514
1567.435418	-2.978500	3.382400	-10.074000	26.241455	0.000620	20.762513
1568.426404	-3.018500	3.380300	-10.201000	26.179813	0.000622	20.776435
1569.426398	-2.995700	3.381500	-10.128000	26.156424	0.000622	20.771425
1570.428797	-3.031800	3.381200	-10.250000	26.085927	0.000621	20.762703
1571.432407	-2.993800	3.381200	-10.122000	26.058605	0.000619	20.752794
1572.438652	-2.976100	3.380000	-10.058000	26.070956	0.000621	20.761412
1573.429747	-3.004000	3.379300	-10.150000	26.079646	0.000620	20.750702
1574.430643	-3.001000	3.379100	-10.139000	26.084952	0.000618	20.759353
1575.431765	-2.995800	3.380300	-10.125000	26.080997	0.000619	20.758698
1576.429313	-2.992300	3.379800	-10.113000	26.042163	0.000617	20.770889
1577.429480	-2.993700	3.379000	-10.114000	26.046395	0.000618	20.758545
1578.429463	-3.000200	3.378600	-10.136000	26.026803	0.000617	20.757352
1579.435808	-3.011700	3.377200	-10.170000	26.094539	0.000614	20.749071
1580.430419	-2.995500	3.378400	-10.119000	26.126375	0.000615	20.741705
1581.429680	-3.000800	3.378300	-10.137000	26.175664	0.000615	20.745712
1582.430665	-3.015900	3.376800	-10.183000	26.187241	0.000614	20.741699
1583.433730	-3.013900	3.375900	-10.174000	26.202617	0.000613	20.741503
1584.432568	-2.999300	3.376800	-10.126000	26.207865	0.000613	20.750096
1585.431626	-2.963000	3.377400	-10.006000	26.183630	0.000612	20.730483
1586.435674	-2.986300	3.376700	-10.083000	26.187959	0.000612	20.732937
1587.445150	-2.958800	3.376000	-9.987600	26.150837	0.000613	20.747792
1588.433714	-2.987500	3.375500	-10.083000	26.119139	0.000614	20.766677
1589.451349	-3.008600	3.373800	-10.149000	26.107302	0.000611	20.752886
1590.434166	-3.007900	3.374000	-10.147000	26.104894	0.000612	20.751414
1591.435740	-3.029800	3.373500	-10.220000	26.150496	0.000611	20.757407
1592.437332	-3.022800	3.372200	-10.192000	26.183983	0.000610	20.735106
1593.435375	-2.996200	3.372900	-10.105000	26.179989	0.000609	20.742472
1594.442030	-3.008600	3.371600	-10.142000	26.201540	0.000609	20.733781
1595.447138	-3.010900	3.371300	-10.150000	26.214484	0.000607	20.763385
1596.437412	-2.981700	3.372200	-10.054000	26.242176	0.000609	20.746168
1597.436377	-2.975500	3.372700	-10.033000	26.267728	0.000607	20.719687
1598.440726	-3.016300	3.370900	-10.167000	26.291906	0.000607	20.731184
1599.439646	-3.008200	3.369900	-10.136000	26.296819	0.000607	20.727112
1600.437678	-3.000200	3.370800	-10.113000	26.314310	0.000606	20.737578
1601.439934	-3.010000	3.369400	-10.141000	26.311275	0.000606	20.729312
1602.435143	-3.004400	3.369400	-10.122000	26.309820	0.000606	20.737333
1603.438365	-3.000600	3.368600	-10.107000	26.296463	0.000606	20.737660
1604.440570	-2.984300	3.368300	-10.051000	26.309105	0.000606	20.755107
1605.442250	-2.982300	3.369200	-10.047000	26.321648	0.000603	20.738789
1606.439704	-3.009000	3.368300	-10.134000	26.361035	0.000602	20.717681
1607.440150	-2.997300	3.366800	-10.089000	26.372961	0.000603	20.731089
1608.439582	-3.031800	3.366500	-10.206000	26.401413	0.000605	20.711795
1609.447139	-2.977500	3.366900	-10.024000	26.398640	0.000602	20.748365
1610.438485	-2.979700	3.367600	-10.033000	26.383577	0.000601	20.728483
1611.442330	-3.006100	3.366400	-10.118000	26.397283	0.000600	20.739888
1612.440694	-3.017200	3.366600	-10.156000	26.404019	0.000599	20.725320
1613.441787	-3.003200	3.365800	-10.107000	26.384652	0.000600	20.713441
1614.439963	-3.015700	3.365700	-10.149000	26.331194	0.000600	20.739848
1615.440703	-2.998600	3.365100	-10.090000	26.337881	0.000598	20.733292
1616.443030	-2.992300	3.366800	-10.074000	26.310575	0.000597	20.724815
1617.440486	-3.009200	3.364500	-10.123000	26.297593	0.000600	20.734054
1618.439652	-2.996400	3.363700	-10.078000	26.275369	0.000597	20.728315
1619.443499	-2.993400	3.363700	-10.068000	26.261384	0.000595	20.720425
1620.444199	-2.992400	3.363400	-10.063000	26.295821	0.000597	20.715203
1621.450499	-3.005100	3.363200	-10.106000	26.317539	0.000596	20.721383
1622.445860	-2.990200	3.362700	-10.054000	26.352063	0.000595	20.711033
1623.444846	-2.984900	3.362400	-10.034000	26.362573	0.000595	20.728710
1624.447880	-3.014600	3.361100	-10.131000	26.340448	0.000594	20.716430
1625.449247	-2.967900	3.361400	-9.973700	26.305072	0.000595	20.715965
1626.449924	-3.014700	3.360600	-10.130000	26.320544	0.000594	20.710651
1627.453110	-2.994700	3.360500	-10.063000	26.320991	0.000593	20.709678
1628.451202	-2.984400	3.360800	-10.029000	26.345924	0.000592	20.701543
1629.453400	-3.018200	3.359500	-10.138000	26.404025	0.000592	20.705885
1630.446911	-3.021100	3.358500	-10.146000	26.431932	0.000590	20.728245
1631.449255	-3.010200	3.359100	-10.111000	26.445150	0.000591	20.705967
1632.454219	-3.008800	3.358100	-10.103000	26.404360	0.000590	20.717602
1633.452718	-3.022000	3.358300	-10.147000	26.399700	0.000589	20.726669
1634.452889	-2.994000	3.358300	-10.053000	26.408858	0.000589	20.711691
1635.451307	-2.995100	3.358200	-10.057000	26.445859	0.000589	20.694351
1636.447736	-2.983700	3.357100	-10.016000	26.447527	0.000589	20.720211
1637.452708	-2.987800	3.358600	-10.034000	26.476604	0.000585	20.712927
1638.448971	-2.980000	3.356300	-10.001000	26.454141	0.000586	20.711211
1639.451442	-2.989700	3.356900	-10.036000	26.501639	0.000586	20.706322
1640.451127	-2.965000	3.356700	-9.950600	26.512392	0.000584	20.730882
1641.452888	-3.006800	3.354800	-10.086000	26.526129	0.000584	20.720034
1642.447338	-3.013500	3.354600	-10.108000	26.544200	0.000583	20.707378
1643.448399	-2.996000	3.354800	-10.050000	26.514997	0.000585	20.691773
1644.453455	-3.010500	3.355000	-10.099000	26.526921	0.000584	20.680523
1645.450717	-2.978500	3.356100	-9.994300	26.523658	0.000583	20.706644
1646.451459	-2.993600	3.354300	-10.040000	26.494007	0.000583	20.682053
1647.449574	-2.982300	3.354300	-10.002000	26.495106	0.000579	20.711135
1648.454010	-2.986200	3.353500	-10.013000	26.475643	0.000582	20.713384
1649.454113	-2.986800	3.353600	-10.015000	26.483371	0.000584	20.692700
1650.455989	-3.027400	3.351900	-10.146000	26.484217	0.000580	20.703034
1651.450750	-2.969000	3.353100	-9.953600	26.463022	0.000579	20.701645
1652.450713	-2.983400	3.352600	-10.000000	26.478428	0.000579	20.708122
1653.451164	-2.981800	3.351100	-9.991400	26.457730	0.000578	20.710077
1654.455647	-2.991100	3.352300	-10.026000	26.465311	0.000577	20.685927
1655.461096	-3.015500	3.349800	-10.100000	26.481098	0.000576	20.715073
1656.452899	-2.992900	3.350900	-10.028000	26.486150	0.000577	20.690278
1657.462768	-3.014700	3.350400	-10.100000	26.528337	0.000576	20.705657
1658.455474	-3.005500	3.350100	-10.068000	26.531021	0.000576	20.694129
1659.455914	-3.012100	3.349600	-10.088000	26.526143	0.000576	20.685906
1660.458508	-2.981400	3.350800	-9.988900	26.538879	0.000575	20.713409
1661.455871	-3.000300	3.349100	-10.046000	26.528252	0.000575	20.681862
1662.453560	-2.987000	3.349500	-10.004000	26.568566	0.000575	20.683031
1663.457664	-2.992400	3.349700	-10.023000	26.566844	0.000574	20.685567
1664.456987	-3.014300	3.348900	-10.093000	26.546804	0.000576	20.695770
1665.457883	-3.002900	3.347100	-10.051000	26.603139	0.000573	20.674636
1666.455022	-3.007300	3.348000	-10.067000	26.605318	0.000573	20.698165
1667.461361	-3.019500	3.346300	-10.104000	26.592086	0.000570	20.690554
1668.460538	-3.002700	3.346300	-10.046000	26.585346	0.000571	20.668603
1669.461568	-3.010400	3.346500	-10.073000	26.572392	0.000570	20.682609
1670.459088	-3.008500	3.346600	-10.067000	26.535852	0.000570	20.689028
1671.453970	-3.010200	3.344900	-10.068000	26.553679	0.000569	20.708372
1672.465383	-2.989400	3.345700	-10.001000	26.557209	0.000569	20.682995
1673.456243	-2.990600	3.345300	-10.003000	26.549930	0.000567	20.684212
1674.458865	-3.021900	3.342700	-10.099000	26.540253	0.000567	20.682545
1675.459817	-3.002000	3.345200	-10.041000	26.517611	0.000569	20.662154
1676.458946	-2.996400	3.342300	-10.014000	26.481769	0.000568	20.684451
1677.460214	-2.998600	3.343300	-10.025000	26.455459	0.000567	20.670806
1678.463864	-3.002900	3.342800	-10.037000	26.462462	0.000568	20.666465
1679.459569	-2.993900	3.342900	-10.007000	26.426064	0.000564	20.679195
1680.462357	-2.983200	3.342200	-9.968900	26.410603	0.000563	20.701590
1681.459386	-2.984600	3.342200	-9.974700	26.395920	0.000564	20.681615
1682.464317	-2.980100	3.340900	-9.954800	26.368883	0.000564	20.686210
1683.459474	-2.983500	3.341000	-9.966800	26.387380	0.000565	20.669711
1684.460019	-3.000200	3.340000	-10.019000	26.412840	0.000563	20.689613
1685.459098	-3.005000	3.338900	-10.032000	26.435630	0.000561	20.683121
1686.464630	-3.005800	3.340100	-10.039000	26.461975	0.000563	20.671192
1687.469272	-2.985900	3.340400	-9.973000	26.474240	0.000561	20.674986
1688.462996	-3.000100	3.338200	-10.014000	26.485196	0.000562	20.684103
1689.470146	-2.999300	3.337700	-10.010000	26.489116	0.000559	20.691363
1690.461027	-2.995300	3.337300	-9.993800	26.523104	0.000559	20.675264
1691.465594	-2.994900	3.337100	-9.992800	26.532262	0.000561	20.664553
1692.467094	-2.998000	3.337200	-10.003000	26.521869	0.000558	20.681610
1693.461805	-3.000700	3.337600	-10.014000	26.530214	0.000557	20.665814
1694.463856	-3.013300	3.336300	-10.052000	26.541754	0.000556	20.666034
1695.467144	-3.006100	3.335100	-10.025000	26.555214	0.000558	20.648268
1696.463027	-2.998100	3.336300	-10.002000	26.525701	0.000557	20.668390
1697.463583	-2.999800	3.336200	-10.007000	26.492972	0.000555	20.680065
1698.464311	-3.002300	3.335800	-10.014000	26.502660	0.000557	20.677473
1699.469430	-2.995800	3.335600	-9.991500	26.517258	0.000553	20.673655
1700.468975	-3.024800	3.333700	-10.083000	26.512916	0.000555	20.667393
1701.470199	-2.991200	3.334500	-9.973300	26.528613	0.000551	20.667050
1702.470671	-2.998900	3.333700	-9.996900	26.528574	0.000554	20.672701
1703.470214	-3.014200	3.332800	-10.045000	26.510868	0.000552	20.664860
1704.470366	-3.000500	3.332500	-9.998200	26.498758	0.000551	20.645574
1705.472274	-2.990900	3.333100	-9.967500	26.478523	0.000550	20.672178
1706.469635	-2.991300	3.332800	-9.967000	26.483459	0.000550	20.659595
1707.469199	-3.005700	3.331900	-10.014000	26.519450	0.000551	20.670168
1708.470481	-2.991200	3.332500	-9.966700	26.552606	0.000550	20.675996
1709.472055	-2.994400	3.331500	-9.975200	26.587944	0.000550	20.665050
1710.471194	-2.981200	3.331600	-9.930900	26.586830	0.000549	20.651127
1711.467573	-2.990900	3.330200	-9.958700	26.608016	0.000548	20.661994
1712.473150	-2.983300	3.332100	-9.938700	26.588133	0.000549	20.651488
1713.468309	-2.975200	3.330500	-9.907700	26.596185	0.000548	20.656264
1714.473098	-3.006300	3.328700	-10.005000	26.585784	0.000547	20.647229
1715.470035	-3.000800	3.330100	-9.991400	26.560614	0.000548	20.676933
1716.468560	-2.998100	3.328100	-9.976800	26.545991	0.000546	20.658914
1717.475865	-2.973300	3.329500	-9.898800	26.546871	0.000547	20.680189
1718.471977	-2.987800	3.326900	-9.939100	26.575027	0.000544	20.647322
1719.470206	-2.990400	3.326800	-9.947500	26.575416	0.000546	20.634435
1720.468234	-2.992500	3.328200	-9.958100	26.567635	0.000543	20.652694
1721.470303	-3.003800	3.326900	-9.992000	26.543010	0.000543	20.646432
1722.468099	-2.975400	3.327800	-9.900900	26.550411	0.000543	20.652450
1723.471325	-2.995400	3.326600	-9.963300	26.549915	0.000540	20.664280
1724.471476	-3.042300	3.325200	-10.115000	26.539474	0.000541	20.650464
1725.471690	-2.986800	3.326800	-9.936200	26.580949	0.000542	20.662286
1726.470244	-2.998300	3.326100	-9.970000	26.575079	0.000540	20.670136
1727.472926	-3.023100	3.324500	-10.050000	26.551096	0.000540	20.655984
1728.473561	-3.026300	3.325300	-10.062000	26.521884	0.000540	20.653646
1729.471974	-3.020700	3.324000	-10.040000	26.526625	0.000538	20.672639
1730.475821	-2.991600	3.323000	-9.940600	26.545080	0.000540	20.644719
1731.474268	-3.021900	3.323200	-10.041000	26.531221	0.000538	20.681053
1732.473281	-3.004400	3.324200	-9.986300	26.552530	0.000539	20.655528
1733.478008	-2.981000	3.324100	-9.908000	26.562795	0.000537	20.658261
1734.476687	-2.986800	3.322900	-9.923800	26.547715	0.000539	20.644524
1735.472599	-2.985500	3.322700	-9.918600	26.544024	0.000533	20.655513
1736.474805	-2.983100	3.322200	-9.909600	26.557762	0.000534	20.668375
1737.471839	-3.006900	3.321100	-9.985200	26.562804	0.000533	20.647837
1738.481117	-3.019400	3.320000	-10.023000	26.502499	0.000534	20.652653
1739.472542	-2.983300	3.320800	-9.905800	26.515430	0.000533	20.652849
1740.474794	-2.974500	3.320500	-9.875600	26.498856	0.000533	20.656104
1741.479221	-2.980300	3.321800	-9.899200	26.527971	0.000532	20.679209
1742.475984	-2.984300	3.320900	-9.909000	26.539326	0.000531	20.652687
1743.473975	-2.993800	3.320700	-9.940700	26.567808	0.000532	20.665671
1744.476456	-3.013000	3.318500	-9.997800	26.592856	0.000532	20.658133
1745.478511	-3.008300	3.319000	-9.983600	26.590944	0.000530	20.638191
1746.480399	-2.988400	3.318300	-9.915000	26.601088	0.000530	20.657873
1747.479464	-3.004100	3.317800	-9.965700	26.566052	0.000530	20.656793
1748.474699	-3.027900	3.315700	-10.037000	26.506806	0.000530	20.653189
1749.479985	-2.983100	3.317000	-9.892900	26.457664	0.000528	20.650261
1750.475243	-3.007500	3.316800	-9.974300	26.421952	0.000526	20.659413
1751.484852	-2.980300	3.318000	-9.888100	26.454289	0.000526	20.661569
1752.482118	-3.015600	3.315100	-9.995700	26.488181	0.000526	20.652960
1753.475042	-3.002700	3.315800	-9.955000	26.496209	0.000526	20.658186
1754.481895	-2.963500	3.315900	-9.825600	26.514028	0.000526	20.651439
1755.475603	-2.986800	3.315100	-9.900400	26.542982	0.000527	20.664898
1756.478760	-2.984100	3.314600	-9.890100	26.565988	0.000523	20.668110
1757.480415	-2.977200	3.315000	-9.867900	26.576317	0.000524	20.660948
1758.483522	-2.991900	3.313700	-9.914000	26.600144	0.000521	20.669728
1759.483062	-3.018300	3.311600	-9.994100	26.575675	0.000523	20.662199
1760.483381	-3.000200	3.313400	-9.940100	26.623591	0.000522	20.663901
1761.485650	-3.002300	3.313200	-9.945800	26.570005	0.000522	20.672623
1762.482613	-2.987600	3.312600	-9.895600	26.580805	0.000521	20.672099
1763.478818	-2.973400	3.313800	-9.852400	26.609222	0.000521	20.653722
1764.480175	-2.997200	3.311100	-9.923200	26.646727	0.000520	20.668667
1765.482531	-3.007600	3.310200	-9.954900	26.611955	0.000520	20.653624
1766.482080	-2.995200	3.309900	-9.912500	26.600391	0.000520	20.670925
1767.483568	-2.982100	3.311900	-9.875600	26.596910	0.000518	20.652251
1768.483012	-3.003700	3.309300	-9.938700	26.608580	0.000518	20.673942
1769.486590	-3.013400	3.310300	-9.973800	26.626008	0.000517	20.665382
1770.482591	-3.005400	3.308400	-9.942100	26.625944	0.000519	20.648246
1771.483383	-3.001800	3.307500	-9.927300	26.655951	0.000516	20.648065
1772.479857	-3.006000	3.308800	-9.944000	26.690852	0.000515	20.652333
1773.484321	-2.995000	3.308300	-9.907500	26.737446	0.000515	20.688275
1774.483160	-3.006100	3.307800	-9.941600	26.764362	0.000515	20.653692
1775.479794	-2.989300	3.308000	-9.887400	26.755124	0.000516	20.682814
1776.483715	-3.001100	3.306500	-9.922900	26.786454	0.000513	20.663103
1777.483683	-2.992000	3.305700	-9.889700	26.783323	0.000516	20.686036
1778.485694	-3.004800	3.305200	-9.930500	26.782593	0.000511	20.676292
1779.483506	-3.009000	3.305700	-9.945100	26.765606	0.000512	20.669644
1780.483150	-3.002600	3.305100	-9.922300	26.753515	0.000511	20.686412
1781.483190	-2.979100	3.305700	-9.846000	26.755410	0.000511	20.672196
1782.483075	-3.011700	3.304300	-9.950300	26.699759	0.000510	20.664134
1783.486613	-3.027900	3.303000	-10.000000	26.731684	0.000510	20.680110
1784.486115	-2.995300	3.303700	-9.894100	26.715901	0.000509	20.678942
1785.487737	-3.023200	3.302300	-9.982300	26.705380	0.000509	20.692547
1786.484293	-3.013800	3.302700	-9.952800	26.671203	0.000509	20.674781
1787.489755	-3.015700	3.301700	-9.955400	26.639757	0.000507	20.655021
1788.490978	-3.005200	3.302600	-9.924400	26.602967	0.000505	20.677783
1789.485706	-3.005800	3.302100	-9.925300	26.623006	0.000508	20.672322
1790.492347	-3.006300	3.302600	-9.927700	26.638318	0.000507	20.687717
1791.488799	-2.993700	3.302200	-9.885100	26.659202	0.000506	20.654654
1792.488736	-2.986900	3.301800	-9.861700	26.687020	0.000503	20.660809
1793.490902	-3.007200	3.300400	-9.923700	26.737795	0.000504	20.670132
1794.498751	-2.994600	3.300600	-9.882600	26.780735	0.000504	20.688650
1795.486891	-2.964100	3.302700	-9.788800	26.803615	0.000502	20.688420
1796.495508	-3.001200	3.300000	-9.902700	26.796419	0.000503	20.662217
1797.493257	-3.011700	3.297900	-9.930700	26.818797	0.000503	20.662432
1798.488964	-2.998500	3.298200	-9.888400	26.811106	0.000502	20.678408
1799.492110	-2.987300	3.299500	-9.855100	26.777307	0.000499	20.684254
1800.489217	-2.997500	3.299300	-9.888600	26.770656	0.000500	20.672351
1801.492451	-3.013500	3.298100	-9.936000	26.765663	0.000500	20.677288
1802.487811	-2.988700	3.297100	-9.852600	26.791780	0.000498	20.676046
1803.488272	-2.983800	3.297700	-9.839300	26.767607	0.000497	20.678769
1804.492453	-3.010700	3.295000	-9.918200	26.727520	0.000498	20.688253
1805.489473	-3.008500	3.295200	-9.912400	26.713055	0.000498	20.675132
1806.493950	-3.023100	3.296600	-9.964900	26.685375	0.000498	20.673382
1807.489548	-3.008800	3.297700	-9.920100	26.652539	0.000497	20.662182
1808.489264	-3.009800	3.295600	-9.918200	26.644944	0.000495	20.677781
1809.489382	-3.012000	3.295100	-9.922600	26.632234	0.000495	20.689187
1810.492013	-3.006000	3.294400	-9.902200	26.621021	0.000494	20.655151
1811.488594	-3.014800	3.294700	-9.932200	26.629258	0.000494	20.680030
1812.488434	-3.026000	3.293100	-9.963100	26.644555	0.000494	20.689245
1813.490261	-3.015600	3.293000	-9.928800	26.679058	0.000492	20.699751
1814.491271	-3.017100	3.293500	-9.934200	26.684533	0.000492	20.674906
1815.488488	-3.001000	3.293100	-9.880700	26.676530	0.000491	20.676818
1816.492771	-3.008500	3.293400	-9.906900	26.663178	0.000493	20.673826
1817.490092	-3.016800	3.291500	-9.927700	26.698502	0.000491	20.681839
1818.489747	-2.993200	3.292900	-9.855400	26.724442	0.000491	20.674726
1819.490283	-2.981900	3.292300	-9.816500	26.756074	0.000489	20.686140
1820.491431	-3.015400	3.290500	-9.920500	26.750244	0.000489	20.685969
1821.491619	-3.006000	3.290900	-9.891000	26.710604	0.000487	20.689264
1822.490438	-2.984600	3.291600	-9.822700	26.671191	0.000486	20.667656
1823.492306	-3.010700	3.289900	-9.903500	26.636857	0.000487	20.671548
1824.492758	-2.997900	3.288900	-9.859200	26.620456	0.000486	20.705797
1825.493079	-2.970900	3.289700	-9.772400	26.620660	0.000485	20.696993
1826.493909	-2.998800	3.289000	-9.862000	26.620660	0.000484	20.694622
1827.489807	-3.016200	3.287200	-9.913400	26.650666	0.000484	20.694915
1828.493503	-3.006500	3.288400	-9.885300	26.681163	0.000484	20.681002
1829.497954	-3.005700	3.288100	-9.882100	26.709753	0.000484	20.683666
1830.490179	-3.024800	3.285400	-9.936300	26.734301	0.000483	20.689381
1831.493829	-3.010800	3.286300	-9.892900	26.772137	0.000482	20.690911
1832.500163	-3.017700	3.285500	-9.912500	26.797092	0.000480	20.681862
1833.494091	-3.023900	3.285300	-9.933800	26.832281	0.000483	20.684526
1834.494655	-3.000800	3.285000	-9.855600	26.861689	0.000481	20.693707
1835.499202	-2.994700	3.285400	-9.837500	26.883570	0.000480	20.699588
1836.492671	-3.012800	3.284000	-9.892300	26.899398	0.000479	20.691321
1837.494930	-3.015000	3.284200	-9.900800	26.950771	0.000479	20.700781
1838.500624	-2.981100	3.284800	-9.791300	26.946065	0.000476	20.696997
1839.500825	-3.015600	3.284200	-9.902600	26.960089	0.000478	20.703513
1840.496114	-2.979300	3.283800	-9.782900	26.989722	0.000477	20.701069
1841.500581	-2.995700	3.283900	-9.837100	26.984496	0.000478	20.701978
1842.496479	-2.991200	3.282400	-9.817300	27.011615	0.000477	20.696058
1843.496125	-2.995100	3.281900	-9.829000	27.033580	0.000477	20.697759
1844.500346	-2.982500	3.282200	-9.786800	27.005884	0.000476	20.698830
1845.494055	-3.014800	3.281300	-9.890500	27.007031	0.000474	20.703303
1846.498547	-2.989400	3.280800	-9.807200	26.996463	0.000474	20.696943
1847.499245	-2.984800	3.280700	-9.791800	26.977661	0.000472	20.709330
1848.497762	-3.008100	3.280500	-9.865700	26.970613	0.000474	20.704138
1849.500891	-3.017900	3.281900	-9.903700	27.006228	0.000471	20.694434
1850.498567	-2.984200	3.281000	-9.789900	26.989303	0.000471	20.694009
1851.497707	-3.020300	3.279400	-9.903600	27.006335	0.000469	20.703552
1852.496725	-2.980200	3.280600	-9.776300	26.996662	0.000470	20.692401
1853.504646	-2.986300	3.281200	-9.797300	27.002719	0.000470	20.717933
1854.497896	-2.996600	3.279600	-9.827000	26.999646	0.000468	20.723853
1855.494914	-2.994200	3.279200	-9.817400	26.973543	0.000468	20.699499
1856.495565	-3.019800	3.277500	-9.896100	26.957016	0.000468	20.710855
1857.499402	-3.024400	3.277400	-9.909600	26.977967	0.000465	20.708689
1858.502010	-3.012200	3.276900	-9.868700	27.017704	0.000466	20.706924
1859.502099	-3.005800	3.277200	-9.849300	27.051976	0.000465	20.709622
1860.499917	-2.961700	3.276000	-9.701900	27.060448	0.000465	20.723359
1861.502072	-2.995800	3.276000	-9.812700	27.052083	0.000466	20.712101
1862.504155	-2.977900	3.276600	-9.756700	27.039183	0.000462	20.714301
1863.505033	-3.004200	3.275500	-9.839000	27.074082	0.000464	20.701507
1864.502375	-2.985300	3.276300	-9.780200	27.060613	0.000463	20.718309
1865.498497	-3.005200	3.275200	-9.842200	27.081470	0.000461	20.702773
1866.497880	-2.999000	3.273900	-9.816800	27.109597	0.000463	20.694550
1867.501682	-2.985600	3.273200	-9.771400	27.120766	0.000460	20.697249
1868.501027	-3.007400	3.272400	-9.840200	27.147273	0.000460	20.714901
1869.501403	-3.004100	3.273000	-9.831800	27.105315	0.000458	20.718695
1870.507077	-2.996800	3.272200	-9.805400	27.125115	0.000458	20.700676
1871.499477	-2.989600	3.273700	-9.786400	27.075705	0.000457	20.716891
1872.502985	-2.987700	3.271600	-9.773000	27.086296	0.000458	20.718059
1873.503623	-2.995000	3.270700	-9.793800	27.080045	0.000456	20.710350
1874.505680	-2.979900	3.272300	-9.749500	27.064797	0.000456	20.729630
1875.500060	-3.008500	3.270700	-9.838800	27.076006	0.000458	20.719565
1876.502306	-2.986500	3.271000	-9.768000	27.050979	0.000454	20.719525
1877.505151	-2.992000	3.269700	-9.781400	27.060190	0.000457	20.728315
1878.504945	-2.980900	3.269900	-9.745900	27.012375	0.000455	20.726697
1879.505267	-2.989500	3.269000	-9.770900	27.001735	0.000453	20.719789
1880.506487	-3.018500	3.268700	-9.865000	26.963022	0.000454	20.697453
1881.507646	-3.023800	3.268400	-9.882000	26.928480	0.000452	20.723411
1882.502499	-3.011700	3.268200	-9.841300	26.943836	0.000450	20.723206
1883.505987	-2.969700	3.270600	-9.710900	26.970324	0.000450	20.705270
1884.508035	-3.013800	3.266400	-9.842400	26.989257	0.000450	20.719569
1885.510611	-2.988900	3.267000	-9.764400	26.990827	0.000448	20.711664
1886.505647	-3.027000	3.267200	-9.888100	27.000534	0.000449	20.714788
1887.504508	-2.995200	3.266200	-9.781600	26.997997	0.000450	20.706072
1888.505162	-2.985500	3.266600	-9.751600	26.979268	0.000448	20.717110
1889.509616	-2.993700	3.266300	-9.777000	26.973780	0.000447	20.721549
1890.507917	-2.995600	3.266200	-9.782900	26.977464	0.000445	20.725728
1891.508592	-3.008100	3.265300	-9.821000	27.024638	0.000446	20.710105
1892.512353	-2.989900	3.265200	-9.761700	27.030466	0.000445	20.729243
1893.512250	-2.991800	3.262600	-9.759500	27.051707	0.000444	20.730216
1894.509090	-2.987100	3.263400	-9.747500	27.066795	0.000445	20.743019
1895.513223	-2.998800	3.264800	-9.789800	27.040042	0.000442	20.724648
1896.507501	-3.010000	3.261900	-9.817300	27.019442	0.000442	20.738072
1897.507872	-3.014500	3.262000	-9.832200	27.046244	0.000442	20.739421
1898.515569	-2.980300	3.262500	-9.721700	27.067363	0.000440	20.726994
1899.514893	-2.985800	3.262900	-9.741000	27.072613	0.000440	20.741758
1900.509537	-2.990600	3.262300	-9.756100	27.087627	0.000441	20.735046
1901.511355	-2.998000	3.261900	-9.778800	27.085921	0.000441	20.742814
1902.512320	-2.990200	3.260900	-9.749800	27.067281	0.000440	20.735921
1903.506542	-2.999100	3.261700	-9.781700	27.042609	0.000436	20.730074
1904.506678	-3.008700	3.260400	-9.807900	27.020376	0.000436	20.727630
1905.507857	-3.000200	3.259500	-9.777800	27.004671	0.000436	20.750718
1906.508259	-2.997000	3.259000	-9.766000	26.984338	0.000437	20.726477
1907.507922	-2.979600	3.257700	-9.705500	26.983297	0.000435	20.748191
1908.510528	-2.967800	3.259100	-9.669600	26.950763	0.000434	20.737759
1909.515330	-2.991500	3.258100	-9.745800	26.988445	0.000435	20.751945
1910.509285	-2.978400	3.258100	-9.702900	26.991459	0.000434	20.761140
1911.512458	-3.008800	3.257600	-9.800600	27.031633	0.000433	20.740849
1912.507453	-3.001800	3.256200	-9.772600	27.062824	0.000431	20.737129
1913.515058	-3.015400	3.256900	-9.820100	27.087690	0.000431	20.742222
1914.514714	-3.009800	3.256500	-9.800600	27.095331	0.000431	20.772667
1915.512753	-3.018500	3.255100	-9.824700	27.063840	0.000428	20.756169
1916.508518	-3.009500	3.255100	-9.794400	27.063961	0.000429	20.739221
1917.514640	-3.024700	3.253500	-9.839500	27.075471	0.000428	20.764548
1918.510251	-3.005100	3.253800	-9.776200	27.092152	0.000428	20.744813
1919.514186	-2.994000	3.255100	-9.744700	27.103394	0.000427	20.747111
1920.517066	-3.006100	3.252900	-9.777900	27.075422	0.000427	20.743161
1921.513994	-2.986100	3.253400	-9.714000	27.125071	0.000427	20.750420
1922.514338	-3.005000	3.252400	-9.773000	27.158480	0.000424	20.756047
1923.516571	-2.997600	3.253000	-9.749700	27.183082	0.000425	20.725313
1924.514709	-2.983600	3.253100	-9.704800	27.202385	0.000424	20.755636
1925.516778	-3.019000	3.250400	-9.811600	27.180001	0.000424	20.739285
1926.512550	-3.013800	3.251200	-9.797100	27.125965	0.000424	20.751320
1927.513514	-3.006200	3.250700	-9.771000	27.126291	0.000422	20.742638
1928.520723	-3.035700	3.250800	-9.867200	27.122617	0.000422	20.764073
1929.517120	-2.987800	3.249600	-9.708000	27.167753	0.000423	20.762529
1930.522193	-3.021400	3.248900	-9.815100	27.175539	0.000420	20.763722
1931.517035	-2.989600	3.251500	-9.719700	27.213310	0.000421	20.762832
1932.515916	-2.981300	3.249100	-9.685300	27.265382	0.000420	20.748352
1933.516907	-3.014000	3.248400	-9.789600	27.267739	0.000417	20.768268
1934.517324	-2.994600	3.250900	-9.732300	27.297130	0.000417	20.763218
1935.515797	-2.996800	3.247300	-9.730500	27.299987	0.000417	20.779369
1936.525494	-3.003100	3.247800	-9.752000	27.248981	0.000416	20.763150
1937.517952	-2.991200	3.246500	-9.709700	27.253632	0.000415	20.765457
1938.513706	-2.984400	3.246200	-9.686500	27.278265	0.000414	20.775062
1939.516350	-3.010700	3.245100	-9.768600	27.287318	0.000414	20.768522
1940.516127	-2.999800	3.245700	-9.734900	27.320989	0.000411	20.780581
1941.515413	-3.029600	3.245300	-9.830400	27.338600	0.000414	20.757518
1942.515696	-3.005200	3.245800	-9.753100	27.344703	0.000412	20.784995
1943.521954	-3.024300	3.242300	-9.804600	27.369985	0.000414	20.791936
1944.522884	-2.984700	3.245100	-9.684600	27.388644	0.000412	20.765662
1945.517751	-2.973900	3.244200	-9.646600	27.399776	0.000409	20.758369
1946.518723	-2.988000	3.244200	-9.693100	27.435475	0.000408	20.778161
1947.516198	-2.997300	3.242500	-9.718100	27.443958	0.000407	20.772946
1948.515638	-3.018200	3.242000	-9.783700	27.446893	0.000409	20.765940
1949.517119	-3.019500	3.241500	-9.787000	27.469986	0.000405	20.771156
1950.525675	-3.025200	3.240600	-9.802400	27.469986	0.000406	20.766415
1951.526299	-3.000400	3.242400	-9.727500	27.504570	0.000405	20.767544
1952.522375	-3.048000	3.239500	-9.873300	27.491374	0.000404	20.792674
1953.525470	-3.001900	3.240000	-9.725500	27.529353	0.000405	20.773512
1954.523743	-3.007100	3.238700	-9.738600	27.522707	0.000405	20.780576
1955.522316	-2.969400	3.240800	-9.622000	27.545896	0.000402	20.771190
1956.523422	-3.004600	3.237700	-9.726600	27.558979	0.000405	20.766810
1957.524774	-2.969000	3.239700	-9.618100	27.536495	0.000403	20.778327
1958.520652	-2.983600	3.238300	-9.661200	27.511600	0.000400	20.791687
1959.522058	-2.990500	3.238300	-9.683600	27.459443	0.000402	20.793265
1960.521797	-3.005000	3.237500	-9.727800	27.453364	0.000399	20.812280
1961.524266	-2.991400	3.236400	-9.679200	27.439347	0.000398	20.792014
1962.526557	-3.009700	3.237200	-9.742400	27.490378	0.000398	20.781240
1963.521586	-2.985700	3.236800	-9.663600	27.503428	0.000397	20.799586
1964.537253	-2.968900	3.237300	-9.610100	27.514024	0.000398	20.788436
1965.526848	-2.986700	3.237100	-9.667500	27.530421	0.000397	20.792131
1966.525781	-3.006600	3.235800	-9.727300	27.531753	0.000395	20.804850
1967.523804	-2.989200	3.235400	-9.670500	27.526773	0.000396	20.793676
1968.523790	-2.975200	3.234700	-9.623000	27.528740	0.000395	20.790914
1969.524799	-2.983400	3.233800	-9.646100	27.509452	0.000392	20.782413
1970.524281	-3.020500	3.232200	-9.761900	27.510346	0.000390	20.799434
1971.524894	-3.010500	3.232300	-9.729500	27.514539	0.000392	20.795118
1972.528296	-2.988200	3.233200	-9.660700	27.539273	0.000390	20.792502
1973.524260	-2.980900	3.232700	-9.635100	27.562399	0.000389	20.804390
1974.528051	-3.005400	3.231000	-9.708900	27.592534	0.000389	20.792512
1975.529244	-3.018800	3.229500	-9.747400	27.594793	0.000388	20.810432
1976.530084	-3.003000	3.230400	-9.700400	27.603771	0.000387	20.821836
1977.530502	-2.977500	3.231100	-9.620100	27.605218	0.000387	20.797689
1978.533091	-2.984900	3.230200	-9.639400	27.569608	0.000385	20.794101
1979.536704	-2.992000	3.231300	-9.666600	27.494123	0.000387	20.799233
1980.534216	-2.978200	3.229500	-9.617000	27.424298	0.000386	20.785884
1981.527957	-2.992200	3.229000	-9.659800	27.365237	0.000382	20.797117
1982.537107	-3.018500	3.227500	-9.739800	27.350236	0.000384	20.799570
1983.535445	-2.982100	3.230200	-9.630600	27.351130	0.000384	20.770124
1984.532116	-3.002500	3.228400	-9.692300	27.385383	0.000381	20.775657
1985.536234	-3.002100	3.227300	-9.687800	27.410202	0.000382	20.789246
1986.533157	-2.988100	3.225900	-9.637900	27.453393	0.000381	20.789075
1987.527916	-3.008200	3.226500	-9.705200	27.463727	0.000381	20.792360
1988.531257	-3.013900	3.226400	-9.723300	27.484075	0.000379	20.776322
1989.530615	-3.015800	3.224800	-9.724100	27.480222	0.000379	20.785248
1990.528171	-3.005000	3.224800	-9.688400	27.475820	0.000378	20.779871
1991.531459	-2.998100	3.224800	-9.667200	27.473464	0.000379	20.780819
1992.538555	-2.985600	3.225700	-9.629400	27.490479	0.000374	20.759531
1993.530155	-2.988600	3.224400	-9.635300	27.471856	0.000377	20.763554
1994.530863	-2.993300	3.223200	-9.646600	27.460618	0.000373	20.786387
1995.534541	-3.019300	3.222800	-9.729800	27.510161	0.000373	20.784549
1996.533145	-2.993100	3.222500	-9.644700	27.535925	0.000372	20.772064
1997.532677	-3.001100	3.223200	-9.671600	27.554095	0.000373	20.782760
1998.533379	-2.994400	3.221800	-9.646400	27.520383	0.000371	20.791514
1999.533363	-3.000100	3.221800	-9.664500	27.483055	0.000369	20.792365
2000.535859	-2.973600	3.222200	-9.580100	27.505880	0.000369	20.777397
2001.536747	-2.974000	3.221100	-9.578900	27.503043	0.000371	20.781655
2002.534565	-2.991600	3.222300	-9.638900	27.494968	0.000368	20.788704
2003.537118	-3.003700	3.220500	-9.671900	27.499258	0.000368	20.777373
2004.533577	-2.988600	3.219500	-9.620600	27.476840	0.000368	20.774733
2005.540740	-3.011900	3.219700	-9.696800	27.497140	0.000367	20.763387
2006.538281	-2.969700	3.219900	-9.560500	27.519401	0.000363	20.778199
2007.537405	-3.003500	3.218800	-9.667000	27.535215	0.000365	20.764712
2008.536499	-3.007700	3.217700	-9.676400	27.495726	0.000363	20.762913
2009.541452	-3.016500	3.216700	-9.702500	27.474771	0.000363	20.775970
2010.539292	-3.004000	3.216400	-9.661000	27.481937	0.000363	20.771326
2011.540905	-3.008700	3.217800	-9.680400	27.491470	0.000363	20.776175
2012.536090	-3.000800	3.217000	-9.652700	27.531601	0.000363	20.754911
2013.538256	-2.987600	3.217900	-9.613000	27.563160	0.000359	20.735455
2014.541936	-2.983400	3.215200	-9.591600	27.561518	0.000359	20.774581
2015.541873	-2.989200	3.214200	-9.606200	27.569107	0.000360	20.752818
2016.540431	-2.997100	3.216700	-9.639400	27.566916	0.000357	20.765313
2017.539835	-2.998100	3.214300	-9.634300	27.600520	0.000355	20.750286
2018.547224	-2.996200	3.213900	-9.629200	27.613918	0.000360	20.765191
2019.545696	-2.974900	3.215500	-9.564200	27.628706	0.000355	20.744982
2020.544711	-2.982300	3.213000	-9.581200	27.643008	0.000358	20.768383
2021.548882	-2.998200	3.211100	-9.626400	27.626661	0.000355	20.759046
2022.542988	-3.004300	3.210800	-9.645200	27.643707	0.000352	20.733998
2023.548679	-2.994800	3.210900	-9.614100	27.681671	0.000354	20.743276
2024.547563	-2.989800	3.212400	-9.603600	27.665684	0.000351	20.744733
2025.548416	-2.970500	3.210700	-9.536100	27.689773	0.000351	20.750956
2026.547169	-3.004400	3.209900	-9.642700	27.716427	0.000351	20.746483
2027.547081	-2.990700	3.210300	-9.600100	27.704065	0.000350	20.768656
2028.548687	-3.027700	3.207000	-9.708900	27.735099	0.000351	20.736349
2029.549319	-3.008900	3.207900	-9.650800	27.735473	0.000350	20.755692
2030.549273	-2.993200	3.209200	-9.603300	27.693815	0.000347	20.774938
2031.552046	-2.981300	3.208500	-9.563900	27.676429	0.000350	20.756494
2032.551558	-3.015300	3.207400	-9.669700	27.709408	0.000348	20.749851
2033.550385	-3.014400	3.207700	-9.668400	27.725515	0.000347	20.731920
2034.550239	-2.999400	3.205400	-9.613600	27.737198	0.000345	20.744625
2035.552101	-3.017600	3.205500	-9.671400	27.765079	0.000345	20.742811
2036.552078	-2.971300	3.207300	-9.529800	27.756103	0.000344	20.751796
2037.552482	-3.026700	3.203000	-9.693200	27.714795	0.000345	20.761436
2038.553482	-3.045500	3.203900	-9.755700	27.650615	0.000342	20.733362
2039.549296	-3.000400	3.204700	-9.614800	27.599057	0.000342	20.749288
2040.555919	-2.974100	3.204900	-9.530600	27.577283	0.000343	20.753458
2041.553263	-3.004700	3.204600	-9.627900	27.508984	0.000340	20.735000
2042.555136	-3.033700	3.203300	-9.717200	27.478181	0.000338	20.751899
2043.553789	-2.973100	3.203400	-9.522900	27.470883	0.000340	20.751195
2044.553985	-3.029200	3.199900	-9.692300	27.505986	0.000338	20.740993
2045.554379	-2.984800	3.202700	-9.558500	27.492207	0.000337	20.741829
2046.558706	-3.019200	3.201200	-9.664400	27.488437	0.000336	20.751786
2047.552318	-3.007100	3.200700	-9.624000	27.491809	0.000336	20.740480
2048.555611	-3.020100	3.199500	-9.662100	27.497970	0.000334	20.732453
2049.550355	-2.993300	3.200900	-9.581000	27.526994	0.000333	20.747431
2050.554354	-2.984400	3.198400	-9.544900	27.531416	0.000333	20.764208
2051.553085	-2.972600	3.198500	-9.507100	27.507658	0.000332	20.743623
2052.559205	-3.011300	3.197700	-9.628600	27.557830	0.000332	20.750481
2053.558551	-3.015000	3.196800	-9.637000	27.575568	0.000330	20.729920
2054.555038	-2.993600	3.199000	-9.575800	27.585619	0.000330	20.727706
2055.562869	-3.022700	3.196500	-9.660500	27.587116	0.000330	20.730160
2056.560020	-2.999300	3.197600	-9.589800	27.612140	0.000329	20.754866
2057.562543	-2.972600	3.198500	-9.506700	27.629138	0.000329	20.726924
2058.556927	-2.990400	3.197600	-9.560600	27.634598	0.000329	20.728151
2059.559744	-3.000700	3.196200	-9.589400	27.666179	0.000326	20.744283
2060.560245	-3.009200	3.195300	-9.614800	27.672995	0.000327	20.726010
2061.561803	-2.982100	3.194200	-9.522900	27.691080	0.000325	20.735674
2062.561694	-3.008000	3.193100	-9.602400	27.649152	0.000325	20.732365
2063.562842	-2.978900	3.194200	-9.514900	27.605086	0.000324	20.720740
2064.559608	-2.996300	3.194700	-9.570600	27.555581	0.000323	20.704119
2065.561436	-3.007200	3.192900	-9.600800	27.529817	0.000322	20.730830
2066.558499	-2.993400	3.192800	-9.556100	27.491391	0.000323	20.729153
2067.559258	-2.978600	3.192500	-9.508400	27.518832	0.000323	20.738270
2068.568874	-3.000300	3.190600	-9.572100	27.546093	0.000322	20.722075
2069.562746	-2.998300	3.194100	-9.575800	27.604668	0.000322	20.706568
2070.563570	-3.002900	3.191200	-9.582100	27.574475	0.000320	20.718863
2071.562294	-2.998400	3.189000	-9.560800	27.590050	0.000319	20.725052
2072.562756	-3.033300	3.188700	-9.671600	27.603050	0.000317	20.718218
2073.564472	-3.006200	3.189700	-9.588400	27.584031	0.000317	20.708563
2074.567336	-3.025400	3.187300	-9.641800	27.644032	0.000317	20.711564
2075.566710	-3.024500	3.186500	-9.636400	27.659835	0.000318	20.723673
2076.571037	-2.978400	3.188500	-9.495600	27.686174	0.000315	20.715563
2077.568974	-3.002500	3.187500	-9.569000	27.711822	0.000314	20.728097
2078.568595	-2.995800	3.186500	-9.544300	27.748355	0.000313	20.716023
2079.570394	-3.007600	3.185200	-9.578700	27.793659	0.000311	20.727476
2080.569397	-2.994600	3.184700	-9.535300	27.795496	0.000312	20.719366
2081.568775	-2.996800	3.185700	-9.546100	27.798332	0.000311	20.733128
2082.570122	-3.018900	3.183600	-9.608900	27.833162	0.000312	20.720765
2083.569928	-3.004900	3.183300	-9.565200	27.858360	0.000310	20.725262
2084.571218	-2.987300	3.183300	-9.508000	27.831987	0.000307	20.727169
2085.572992	-3.039100	3.183000	-9.671500	27.806764	0.000307	20.718853
2086.568879	-3.026300	3.182600	-9.630500	27.786456	0.000308	20.723546
2087.568789	-3.000400	3.181800	-9.545400	27.787370	0.000309	20.703127
2088.568971	-2.990900	3.182400	-9.517600	27.826596	0.000307	20.721742
2089.572930	-3.003100	3.180300	-9.548000	27.814322	0.000306	20.729305
2090.569098	-2.988500	3.181100	-9.505500	27.808765	0.000307	20.753112
2091.574303	-3.017100	3.180600	-9.595300	27.792057	0.000306	20.695041
2092.572628	-3.022400	3.177900	-9.603600	27.806434	0.000304	20.724211
2093.573842	-3.023400	3.178800	-9.609700	27.854135	0.000303	20.727648
2094.575653	-2.991000	3.178100	-9.504900	27.844446	0.000305	20.697031
2095.577378	-3.022600	3.177000	-9.601600	27.888502	0.000303	20.710553
2096.574033	-3.009100	3.177000	-9.559100	27.820068	0.000302	20.697627
2097.576280	-3.006900	3.176100	-9.549800	27.778340	0.000302	20.700204
2098.578630	-3.012100	3.175200	-9.562900	27.750119	0.000301	20.710211
2099.577785	-3.005700	3.175800	-9.543100	27.744572	0.000300	20.705102
2100.572122	-3.007200	3.174700	-9.546600	27.746228	0.000300	20.716253
2101.575629	-3.032600	3.174100	-9.624800	27.785320	0.000298	20.715764
2102.576919	-2.990300	3.175800	-9.495500	27.844407	0.000298	20.698889
2103.576838	-2.959400	3.174500	-9.394300	27.873956	0.000297	20.701602
2104.577799	-3.010000	3.173000	-9.549500	27.840604	0.000296	20.725409
2105.580313	-3.010500	3.173200	-9.552200	27.808455	0.000296	20.703958
2106.578102	-3.015500	3.173700	-9.568700	27.777782	0.000294	20.696796
2107.575258	-2.986300	3.173300	-9.475700	27.806221	0.000294	20.697442
2108.578545	-3.020300	3.169900	-9.573500	27.840905	0.000296	20.719548
2109.576448	-2.993300	3.172100	-9.494300	27.891747	0.000293	20.699593
2110.573337	-2.981600	3.170100	-9.449400	27.887856	0.000292	20.693306
2111.577031	-2.983600	3.172900	-9.465300	27.896749	0.000292	20.715534
2112.576514	-3.019200	3.168800	-9.566200	27.916521	0.000291	20.712675
2113.578034	-2.993700	3.168900	-9.485400	27.922043	0.000290	20.710646
2114.579806	-3.014100	3.169400	-9.551100	27.932611	0.000289	20.695677
2115.582519	-2.976800	3.168000	-9.428600	27.946078	0.000289	20.692162
2116.578729	-2.982900	3.167900	-9.448600	27.937972	0.000286	20.687797
2117.580682	-2.983800	3.166600	-9.447100	27.967179	0.000286	20.688271
2118.582642	-2.998300	3.167500	-9.496600	27.986721	0.000288	20.692294
2119.584680	-2.989500	3.166700	-9.466400	27.987061	0.000286	20.694059
2120.579919	-3.002000	3.165300	-9.501500	27.968170	0.000285	20.697329
2121.579389	-3.030300	3.164300	-9.588300	27.964678	0.000285	20.710885
2122.581995	-3.006900	3.163600	-9.511000	27.991262	0.000283	20.707297
2123.577938	-2.978100	3.164700	-9.423900	27.986745	0.000283	20.719347
2124.578377	-2.996000	3.163600	-9.476700	27.949978	0.000282	20.715055
2125.581943	-3.004200	3.161900	-9.498300	27.947273	0.000281	20.694787
2126.584966	-3.000500	3.161600	-9.485300	27.939420	0.000282	20.680718
2127.582112	-2.979900	3.162700	-9.423700	27.928672	0.000280	20.704041
2128.582076	-2.990600	3.161400	-9.453500	27.930508	0.000279	20.711580
2129.588520	-2.999900	3.161100	-9.482300	27.928934	0.000279	20.703831
2130.584927	-3.007400	3.160200	-9.502400	27.954625	0.000278	20.688911
2131.580945	-2.995500	3.157800	-9.458200	27.994501	0.000277	20.683055
2132.581070	-2.996000	3.158100	-9.460500	28.023342	0.000277	20.697862
2133.586645	-3.001000	3.156200	-9.470800	28.042713	0.000276	20.704560
2134.585671	-2.988900	3.157200	-9.436100	28.002674	0.000277	20.715940
2135.588643	-3.012700	3.156400	-9.506700	28.018991	0.000276	20.697750
2136.586806	-2.975000	3.158700	-9.396300	28.035356	0.000274	20.678660
2137.584853	-3.006700	3.154600	-9.484100	28.019705	0.000273	20.683294
2138.587163	-2.969400	3.157100	-9.373900	28.039800	0.000274	20.667959
2139.586238	-2.986500	3.155800	-9.423200	27.995944	0.000273	20.671703
2140.602658	-2.994100	3.156100	-9.448600	27.933801	0.000275	20.682649
2141.592640	-3.033100	3.151600	-9.557900	27.935418	0.000272	20.693287
2142.589314	-2.979700	3.153300	-9.395400	27.944636	0.000272	20.708256
2143.584991	-3.005200	3.152800	-9.473700	27.969928	0.000272	20.680606
2144.586403	-3.000900	3.152400	-9.458600	27.977295	0.000271	20.694186
2145.590243	-2.979400	3.152200	-9.389800	27.947957	0.000270	20.676035
2146.586215	-2.993800	3.150200	-9.429700	27.874272	0.000267	20.685323
2147.587085	-2.984000	3.151700	-9.404000	27.811384	0.000267	20.693155
2148.584195	-2.986100	3.149600	-9.402900	27.795472	0.000266	20.678562
2149.585549	-2.996800	3.150100	-9.439200	27.793684	0.000267	20.693834
2150.585503	-3.022900	3.148500	-9.516500	27.808071	0.000266	20.685553
2151.585205	-3.004900	3.147200	-9.455500	27.831570	0.000263	20.672217
2152.583598	-2.995400	3.146100	-9.422600	27.849449	0.000265	20.699221
2153.599977	-3.025800	3.145700	-9.517000	27.878454	0.000263	20.681945
2154.587350	-2.985900	3.145700	-9.391100	27.896341	0.000264	20.680982
2155.585517	-3.012700	3.145000	-9.474100	27.897609	0.000260	20.671826
2156.590487	-2.984700	3.146200	-9.388200	27.872737	0.000261	20.698478
2157.587808	-2.986800	3.144900	-9.391400	27.815357	0.000262	20.693360
2158.588061	-2.986800	3.142500	-9.385300	27.785252	0.000261	20.682977
2159.584711	-3.026100	3.142000	-9.506500	27.809135	0.000259	20.669552
2160.592493	-2.987700	3.142200	-9.386200	27.812360	0.000258	20.674695
2161.590063	-2.993200	3.140900	-9.400100	27.787122	0.000259	20.670633
2162.589211	-2.983600	3.139900	-9.366400	27.764701	0.000257	20.678416
2163.589868	-2.966500	3.139700	-9.312500	27.774450	0.000254	20.668311
2164.592918	-3.020900	3.138900	-9.481700	27.804895	0.000257	20.671923
2165.588874	-3.017900	3.140100	-9.474900	27.857647	0.000255	20.680919
2166.593670	-3.028600	3.137600	-9.500700	27.843033	0.000254	20.670476
2167.588229	-3.005600	3.137000	-9.426500	27.828233	0.000254	20.671229
2168.594568	-2.982600	3.135900	-9.352500	27.817154	0.000254	20.685685
2169.593931	-2.975400	3.138000	-9.334800	27.863495	0.000253	20.682063
2170.594730	-2.980100	3.136200	-9.345700	27.897114	0.000251	20.646668
2171.590779	-2.986500	3.135900	-9.363700	27.942120	0.000251	20.666839
2172.595642	-3.022000	3.133600	-9.467300	27.949283	0.000250	20.690647
2173.595835	-2.992400	3.133900	-9.375900	27.907837	0.000249	20.661730
2174.599574	-2.988600	3.134400	-9.366400	27.924991	0.000249	20.691327
2175.597678	-2.997400	3.133000	-9.390200	27.953028	0.000248	20.669283
2176.594058	-2.988100	3.132100	-9.357800	27.973876	0.000247	20.679838
2177.596673	-3.009100	3.129500	-9.415900	28.007477	0.000248	20.673830
2178.598146	-2.997700	3.130800	-9.384500	28.048749	0.000247	20.680762
2179.604864	-3.013400	3.128200	-9.425500	28.079065	0.000246	20.669552
2180.607709	-2.982500	3.130000	-9.332600	28.105394	0.000244	20.668555
2181.599765	-2.988500	3.127800	-9.345800	28.110176	0.000245	20.672422
2182.602044	-2.995600	3.128100	-9.369300	28.098799	0.000248	20.692739
2183.598982	-3.012600	3.125600	-9.413800	28.119776	0.000245	20.667387
2184.602110	-3.008100	3.126200	-9.403100	28.129764	0.000244	20.663691
2185.600973	-2.989700	3.126100	-9.345400	28.094259	0.000243	20.665881
2186.607990	-3.011400	3.125300	-9.410500	28.119354	0.000240	20.683558
2187.604346	-3.018300	3.123600	-9.427000	28.137854	0.000241	20.676103
2188.602659	-2.984600	3.123500	-9.320400	28.156504	0.000240	20.688716
2189.605605	-2.988200	3.123600	-9.333400	28.162914	0.000239	20.681417
2190.603741	-2.991400	3.123700	-9.343300	28.186618	0.000241	20.664028
2191.605537	-3.001100	3.121600	-9.367300	28.160015	0.000238	20.663798
2192.607945	-3.007300	3.121000	-9.385100	28.093002	0.000237	20.662718
2193.605913	-3.009500	3.121000	-9.392600	28.052226	0.000239	20.682840
2194.601829	-3.009600	3.119100	-9.385000	28.046924	0.000239	20.686511
2195.606418	-2.999300	3.120000	-9.356200	28.013708	0.000239	20.683422
2196.603309	-2.992900	3.119300	-9.334700	28.017719	0.000235	20.674656
2197.603346	-3.009500	3.118500	-9.382800	28.054591	0.000236	20.666253
2198.607507	-3.004200	3.116000	-9.360500	28.057286	0.000235	20.661853
2199.611432	-3.005000	3.116700	-9.365300	28.006307	0.000236	20.691620
2200.610804	-3.023800	3.115500	-9.418700	28.034084	0.000234	20.659359
2201.612152	-3.003600	3.114100	-9.352700	28.026271	0.000236	20.663349
2202.614325	-2.983600	3.113700	-9.288700	28.055028	0.000233	20.670960
2203.607864	-3.008500	3.112900	-9.364200	28.072505	0.000234	20.675751
2204.610328	-2.991200	3.112100	-9.307800	28.104073	0.000232	20.683823
2205.612915	-2.990600	3.112300	-9.306200	28.112964	0.000230	20.662899
2206.613496	-2.990500	3.109900	-9.299000	28.158641	0.000231	20.656724
2207.611048	-3.036100	3.107300	-9.432900	28.187759	0.000230	20.685568
2208.616666	-3.006200	3.109500	-9.346300	28.249489	0.000231	20.661417
2209.615951	-3.003700	3.107800	-9.334400	28.227330	0.000230	20.668506
2210.611414	-3.027900	3.106400	-9.403800	28.232704	0.000230	20.671547
2211.616749	-3.025300	3.106300	-9.396500	28.241157	0.000231	20.676264
2212.614304	-2.964300	3.106700	-9.208300	28.255033	0.000228	20.680752
2213.616166	-2.980900	3.105500	-9.256400	28.281901	0.000227	20.674138
2214.612515	-2.992400	3.105000	-9.290100	28.308515	0.000227	20.646404
2215.614082	-3.012700	3.102400	-9.345300	28.314011	0.000228	20.685132
2216.614322	-3.028100	3.103000	-9.395200	28.322327	0.000226	20.681652
2217.617882	-3.019500	3.101700	-9.364500	28.289028	0.000226	20.688427
2218.616187	-2.999400	3.100800	-9.299500	28.306127	0.000226	20.695213
2219.620610	-2.967800	3.101300	-9.202900	28.275371	0.000227	20.683211
2220.615820	-3.000700	3.101500	-9.306100	28.203835	0.000226	20.679941
2221.621014	-3.006600	3.100000	-9.319400	28.223746	0.000226	20.687660
2222.616153	-2.993800	3.100100	-9.279800	28.230461	0.000226	20.675453
2223.615793	-2.975500	3.098300	-9.217700	28.271132	0.000224	20.683211
2224.616862	-3.016300	3.097200	-9.340500	28.286372	0.000225	20.673898
2225.614059	-3.001000	3.095800	-9.289800	28.272438	0.000221	20.690216
2226.617694	-2.995500	3.096000	-9.273500	28.230330	0.000225	20.672950
2227.616115	-2.991000	3.093700	-9.252400	28.230306	0.000223	20.672925
2228.620114	-3.002100	3.092600	-9.283000	28.248891	0.000221	20.672671
2229.622705	-2.992500	3.093200	-9.255200	28.274516	0.000222	20.683299
2230.619047	-2.972400	3.093200	-9.192500	28.298810	0.000221	20.665084
2231.620568	-2.979500	3.091900	-9.210900	28.345072	0.000222	20.663299
2232.621704	-2.996300	3.090600	-9.259200	28.336255	0.000219	20.691883
2233.622306	-3.009800	3.087900	-9.292100	28.317637	0.000220	20.684516
2234.616148	-3.003500	3.087300	-9.271500	28.289659	0.000221	20.677682
2235.621858	-2.997200	3.088900	-9.257100	28.280036	0.000219	20.676528
2236.618319	-3.001600	3.086700	-9.264100	28.287149	0.000220	20.695071
2237.619712	-3.022000	3.086200	-9.325700	28.265292	0.000218	20.685866
2238.618100	-2.987200	3.085800	-9.217000	28.236117	0.000219	20.692055
2239.621477	-2.990800	3.084500	-9.222800	28.201859	0.000217	20.688857
2240.618550	-3.024100	3.082100	-9.318500	28.172464	0.000217	20.673487
2241.616709	-3.014600	3.081600	-9.288400	28.198839	0.000217	20.673487
2242.621593	-2.999700	3.081500	-9.242600	28.210700	0.000214	20.667885
2243.617622	-3.008800	3.080000	-9.266300	28.225708	0.000214	20.695799
2244.619248	-2.990600	3.078800	-9.206900	28.250066	0.000214	20.685235
2245.619212	-3.014000	3.078300	-9.277100	28.306408	0.000215	20.658034
2246.617568	-2.990300	3.078800	-9.205100	28.340809	0.000215	20.694098
2247.619844	-2.998000	3.078400	-9.228000	28.356300	0.000218	20.696894
2248.618725	-2.976500	3.077400	-9.159300	28.348669	0.000215	20.684942
2249.623152	-3.013900	3.075600	-9.268300	28.355310	0.000215	20.679300
2250.623084	-3.030900	3.074600	-9.318200	28.404957	0.000216	20.694206
2251.627504	-3.007600	3.073400	-9.243100	28.381981	0.000215	20.689087
2252.624968	-3.005100	3.073500	-9.234800	28.396049	0.000212	20.680967
2253.627620	-3.017000	3.070600	-9.262800	28.427535	0.000212	20.685171
2254.618831	-3.012300	3.071000	-9.249600	28.409122	0.000212	20.682277
2255.624925	-3.011500	3.070300	-9.244500	28.445394	0.000212	20.699363
2256.623806	-2.985100	3.069600	-9.161200	28.420171	0.000213	20.682971
2257.619678	-2.988800	3.069100	-9.171500	28.424651	0.000212	20.684638
2258.621504	-3.019700	3.066300	-9.258000	28.412049	0.000212	20.688544
2259.620655	-2.989400	3.067100	-9.168000	28.411952	0.000213	20.700301
2260.618066	-3.011600	3.064200	-9.227400	28.412724	0.000212	20.676895
2261.621437	-3.004800	3.064100	-9.205600	28.412011	0.000211	20.700834
2262.619533	-3.006700	3.063200	-9.209000	28.401253	0.000209	20.675301
2263.619638	-2.989700	3.062400	-9.153900	28.373714	0.000208	20.694988
2264.618421	-3.009000	3.061700	-9.211900	28.380403	0.000213	20.701250
2265.618793	-3.019000	3.059700	-9.236200	28.380549	0.000210	20.699026
2266.624846	-2.978800	3.059600	-9.112700	28.378170	0.000210	20.680033
2267.621631	-3.021400	3.059300	-9.241000	28.349096	0.000209	20.699123
2268.630300	-3.023300	3.055900	-9.238000	28.393336	0.000209	20.712850
2269.618755	-3.011200	3.056400	-9.202700	28.363368	0.000210	20.688838
2270.622194	-3.002900	3.055200	-9.173400	28.333313	0.000209	20.696508
2271.625642	-2.996700	3.054300	-9.152500	28.277419	0.000207	20.705190
2272.624170	-2.996600	3.052500	-9.146300	28.283289	0.000209	20.707781
2273.626078	-3.009100	3.052400	-9.183200	28.348615	0.000208	20.704804
2274.622715	-3.003100	3.051100	-9.162100	28.337338	0.000210	20.699612
2275.625442	-2.996200	3.050500	-9.138100	28.308262	0.000208	20.697838
2276.622658	-3.013300	3.049000	-9.185600	28.266471	0.000208	20.706021
2277.625006	-3.016100	3.047200	-9.189200	28.279550	0.000209	20.707336
2278.626129	-3.021100	3.045300	-9.199000	28.324312	0.000208	20.697402
2279.633533	-3.002200	3.047100	-9.147500	28.356528	0.000206	20.698072
2280.623450	-2.992900	3.044100	-9.108400	28.416549	0.000206	20.705879
2281.631343	-3.007900	3.045000	-9.158100	28.481202	0.000207	20.706026
2282.630822	-3.004700	3.042300	-9.140100	28.474067	0.000206	20.725868
2283.629293	-3.007100	3.041600	-9.145600	28.508753	0.000209	20.728557
2284.635249	-2.985800	3.041500	-9.080000	28.502079	0.000207	20.723732
2285.626956	-3.027300	3.040000	-9.201300	28.521733	0.000206	20.715549
2286.629744	-3.000200	3.037600	-9.111900	28.572401	0.000205	20.726748
2287.630912	-2.999600	3.037100	-9.108400	28.577677	0.000207	20.727794
2288.633879	-2.992500	3.038400	-9.090900	28.613831	0.000205	20.717264
2289.632314	-2.997300	3.035100	-9.095900	28.608871	0.000205	20.714639
2290.631791	-3.008100	3.032300	-9.120500	28.618903	0.000206	20.696767
2291.628286	-2.982800	3.033400	-9.045900	28.593237	0.000207	20.688461
2292.633992	-3.013400	3.032300	-9.136200	28.575362	0.000205	20.718350
2293.632213	-3.007100	3.030500	-9.112300	28.584608	0.000205	20.710592
2294.629544	-3.008300	3.028600	-9.110400	28.614389	0.000207	20.724465
2295.631598	-3.001800	3.027900	-9.088200	28.632075	0.000207	20.719044
2296.636907	-3.003800	3.027600	-9.092900	28.614365	0.000203	20.717802
2297.636922	-2.994300	3.027200	-9.062000	28.583982	0.000204	20.724186
2298.632020	-2.966500	3.024900	-8.972100	28.546497	0.000203	20.708719
2299.632649	-2.995800	3.024300	-9.059000	28.512457	0.000203	20.712371
2300.631967	-2.981300	3.022200	-9.008600	28.449893	0.000202	20.718120
2301.637748	-3.017100	3.020200	-9.111500	28.429490	0.000205	20.721283
2302.629008	-3.003200	3.020400	-9.070100	28.472217	0.000206	20.723057
2303.633311	-3.038600	3.016400	-9.163900	28.485677	0.000205	20.741355
2304.632480	-2.993400	3.018200	-9.033400	28.541755	0.000202	20.703469
2305.640657	-2.993000	3.018200	-9.032500	28.538944	0.000203	20.721028
2306.634490	-2.984900	3.015800	-9.000900	28.587811	0.000203	20.719508
2307.633656	-2.988000	3.014500	-9.006400	28.632463	0.000204	20.711374
2308.633178	-2.995600	3.012600	-9.023700	28.636399	0.000202	20.736676
2309.633980	-3.014200	3.012400	-9.079700	28.681325	0.000204	20.731192
2310.637025	-2.995100	3.010300	-9.015200	28.689935	0.000204	20.720422
2311.631750	-3.014400	3.008000	-9.066000	28.709764	0.000203	20.722852
2312.635623	-2.976400	3.008200	-8.952900	28.726192	0.000203	20.734657
2313.633232	-3.002700	3.006900	-9.027500	28.716452	0.000203	20.733856
2314.635979	-2.981400	3.005700	-8.959800	28.664199	0.000201	20.747133
2315.633531	-2.994500	3.005600	-8.999000	28.605653	0.000201	20.732262
2316.633366	-2.979600	3.003900	-8.948400	28.554530	0.000201	20.730561
2317.634638	-3.010300	3.001400	-9.033500	28.488022	0.000200	20.740397
2318.634735	-2.990600	3.001100	-8.973700	28.455825	0.000201	20.736422
2319.635412	-2.980400	2.999900	-8.939200	28.433102	0.000201	20.713065
2320.634834	-2.979100	2.998800	-8.931300	28.458951	0.000202	20.739570
2321.638471	-3.002600	2.997900	-8.999700	28.523601	0.000201	20.728337
2322.634979	-2.995500	2.995000	-8.970400	28.567348	0.000201	20.727823
2323.633312	-3.010200	2.994600	-9.013000	28.628915	0.000199	20.733406
2324.639435	-3.008700	2.992400	-9.002500	28.623038	0.000198	20.737918
2325.632207	-2.980300	2.991600	-8.915300	28.622722	0.000203	20.730962
2326.640489	-2.999300	2.990400	-8.968300	28.585146	0.000203	20.731050
2327.634624	-3.003300	2.988300	-8.972900	28.592087	0.000200	20.738040
2328.636392	-3.003500	2.986900	-8.970500	28.587185	0.000202	20.747802
2329.641329	-2.995900	2.986200	-8.945600	28.642679	0.000201	20.752485
2330.637891	-3.004700	2.983100	-8.962200	28.673182	0.000200	20.734843
2331.641195	-2.988700	2.983900	-8.916200	28.673580	0.000200	20.731451
2332.636876	-3.002500	2.981400	-8.951100	28.708561	0.000202	20.742503
2333.637959	-3.018600	2.979600	-8.993500	28.751397	0.000202	20.722114
2334.638132	-2.998500	2.978700	-8.931000	28.775200	0.000200	20.753204
2335.646560	-3.009700	2.976400	-8.957500	28.786677	0.000201	20.752437
2336.640599	-2.982800	2.976300	-8.876500	28.824818	0.000198	20.738700
2337.644697	-2.985700	2.974300	-8.880200	28.845057	0.000199	20.755296
2338.648444	-3.011100	2.974600	-8.955500	28.870692	0.000201	20.739868
2339.644570	-3.020400	2.972000	-8.975500	28.877112	0.000198	20.739697
2340.646171	-2.980500	2.971800	-8.855600	28.827497	0.000199	20.750408
2341.651829	-2.980800	2.969600	-8.850800	28.834450	0.000199	20.742239
2342.647799	-3.009400	2.967500	-8.929700	28.824299	0.000198	20.754773
2343.645330	-2.986800	2.965600	-8.857200	28.831301	0.000200	20.734325
2344.645772	-2.955200	2.966000	-8.763900	28.832495	0.000198	20.736476
2345.650877	-2.990100	2.963000	-8.859100	28.822130	0.000200	20.761123
2346.647143	-3.001800	2.962600	-8.892800	28.803700	0.000199	20.747299
2347.644883	-2.986700	2.960200	-8.840900	28.840656	0.000197	20.732370
2348.649543	-2.987900	2.957400	-8.835400	28.877044	0.000198	20.757647
2349.651494	-3.028900	2.957300	-8.956300	28.878626	0.000200	20.764931
2350.646632	-3.016400	2.956300	-8.915300	28.913212	0.000197	20.743823
2351.653752	-2.999000	2.953600	-8.856700	28.927453	0.000197	20.760541
2352.651765	-3.005200	2.952000	-8.869900	28.886108	0.000201	20.734535
2353.651981	-3.002400	2.951200	-8.859600	28.832621	0.000195	20.761734
2354.649187	-3.009100	2.948300	-8.870600	28.799007	0.000198	20.760116
2355.657068	-3.002400	2.947100	-8.846700	28.756716	0.000197	20.753077
2356.648530	-2.990000	2.945700	-8.806800	28.720349	0.000200	20.763386
2357.653126	-3.009800	2.945400	-8.865100	28.665091	0.000197	20.765576
2358.650305	-2.995100	2.943500	-8.814900	28.620625	0.000197	20.745446
2359.651613	-3.002000	2.941200	-8.828600	28.582982	0.000198	20.753052
2360.648466	-2.963800	2.940900	-8.714200	28.550341	0.000196	20.746258
2361.656636	-3.011900	2.938500	-8.849400	28.545536	0.000198	20.754695
2362.658332	-3.016100	2.937700	-8.858500	28.567329	0.000199	20.744874
2363.650278	-2.998900	2.936500	-8.805400	28.594140	0.000197	20.761446
2364.652246	-3.003700	2.933800	-8.811500	28.598848	0.000198	20.757652
2365.653341	-3.005800	2.931800	-8.811500	28.643029	0.000197	20.752363
2366.671726	-3.004800	2.931500	-8.807700	28.644358	0.000198	20.764134
2367.656307	-2.990800	2.928400	-8.757600	28.617825	0.000199	20.753531
2368.653459	-2.981300	2.928300	-8.728600	28.586632	0.000197	20.755780
2369.658257	-3.004800	2.925000	-8.787600	28.506909	0.000200	20.762262
2370.652277	-3.009100	2.922500	-8.793200	28.560281	0.000197	20.776184
2371.655382	-2.979100	2.922800	-8.706300	28.609967	0.000199	20.780231
2372.653526	-2.994400	2.921100	-8.746100	28.636826	0.000198	20.778833
2373.652627	-2.999600	2.918800	-8.753600	28.666581	0.000196	20.768025
2374.653893	-3.042500	2.915400	-8.866600	28.713356	0.000197	20.768671
2375.659081	-3.018200	2.915000	-8.797500	28.702164	0.000198	20.765459
2376.655514	-2.963900	2.915500	-8.639900	28.750082	0.000197	20.772000
2377.653332	-3.012600	2.909900	-8.766100	28.788550	0.000196	20.771868
2378.655700	-2.984600	2.911200	-8.687300	28.803190	0.000197	20.787090
2379.653945	-2.995000	2.909800	-8.712900	28.779703	0.000196	20.767224
2380.653300	-3.002200	2.907000	-8.726700	28.769736	0.000196	20.766666
2381.658811	-2.975300	2.906500	-8.646100	28.710458	0.000198	20.776658
2382.658076	-2.938700	2.904400	-8.533900	28.661233	0.000196	20.806735
2383.657515	-2.999500	2.901600	-8.702800	28.636486	0.000197	20.787974
2384.659303	-2.988700	2.900700	-8.667900	28.580744	0.000198	20.783516
2385.658959	-2.997000	2.898900	-8.686600	28.561995	0.000196	20.785496
2386.655683	-3.006500	2.897900	-8.711900	28.533818	0.000197	20.758068
2387.656129	-2.982800	2.895500	-8.634400	28.530741	0.000197	20.790531
2388.660559	-2.990500	2.892000	-8.647400	28.546628	0.000197	20.782348
2389.661355	-3.000900	2.890100	-8.671400	28.620397	0.000195	20.798323
2390.662377	-2.994200	2.888500	-8.647500	28.671410	0.000197	20.782847
2391.662024	-2.960400	2.888400	-8.549500	28.662645	0.000197	20.784924
2392.658536	-2.985500	2.885100	-8.611400	28.702635	0.000195	20.788693
2393.662408	-2.994700	2.882500	-8.631200	28.715792	0.000194	20.794358
2394.660869	-2.994500	2.880700	-8.624500	28.741949	0.000197	20.787041
2395.660359	-3.000400	2.880100	-8.641100	28.804758	0.000196	20.778237
2396.664696	-3.014500	2.876500	-8.670100	28.846892	0.000196	20.783223
2397.662696	-3.002200	2.875800	-8.632700	28.888238	0.000195	20.813495
2398.661486	-3.013900	2.872700	-8.657600	28.900824	0.000199	20.784450
2399.665891	-3.005700	2.871500	-8.629700	28.871609	0.000195	20.787735
2400.669347	-2.992000	2.870100	-8.586200	28.852152	0.000196	20.791841
2401.665891	-3.012500	2.866200	-8.633300	28.885040	0.000195	20.784670
2402.667217	-3.008300	2.866400	-8.621000	28.854990	0.000196	20.796123
2403.670567	-2.989100	2.865100	-8.562900	28.887093	0.000197	20.785315
2404.668890	-2.996200	2.861100	-8.571800	28.938214	0.000197	20.785134
2405.667749	-3.031500	2.859700	-8.668000	28.943668	0.000198	20.793474
2406.668656	-2.981800	2.857400	-8.519500	28.973594	0.000196	20.795649
2407.667481	-3.036100	2.855500	-8.667400	28.948059	0.000194	20.795052
2408.670399	-3.027300	2.853600	-8.638200	28.941640	0.000198	20.798068
2409.672565	-3.026800	2.850700	-8.627400	28.957268	0.000197	20.816658
2410.671935	-2.988000	2.849300	-8.512300	28.992176	0.000196	20.796827
2411.673109	-2.994100	2.849600	-8.530000	29.038068	0.000196	20.799442
2412.677758	-2.969600	2.846400	-8.451800	29.080648	0.000196	20.813422
2413.672713	-2.990700	2.843900	-8.503500	29.115228	0.000194	20.798953
2414.669377	-3.005300	2.839800	-8.533300	29.063140	0.000198	20.783453
2415.674107	-3.026800	2.839500	-8.593000	29.040707	0.000196	20.784083
2416.672669	-3.006000	2.836800	-8.525400	29.008104	0.000196	20.794857
2417.672083	-3.022700	2.834200	-8.565400	28.999260	0.000193	20.813921
2418.672710	-3.012200	2.831700	-8.528800	29.040852	0.000196	20.796558
2419.680650	-2.995900	2.831100	-8.480900	29.013883	0.000196	20.804946
2420.674096	-3.002800	2.828800	-8.493300	29.042953	0.000196	20.810528
2421.676162	-3.014500	2.826500	-8.519200	29.056683	0.000195	20.807767
2422.676566	-3.008800	2.823400	-8.493700	29.079537	0.000195	20.794759
2423.676260	-2.995900	2.820300	-8.448300	29.089856	0.000195	20.826967
2424.676741	-2.999500	2.821000	-8.460600	29.094280	0.000195	20.816727
2425.677210	-3.045300	2.814500	-8.570100	29.113501	0.000196	20.799110
2426.679832	-3.004700	2.813300	-8.452300	29.144388	0.000195	20.791352
2427.675539	-3.011900	2.811300	-8.466100	29.165853	0.000195	20.819620
2428.676172	-2.984500	2.810100	-8.386000	29.169496	0.000194	20.808119
2429.677432	-2.964900	2.808400	-8.324900	29.127884	0.000195	20.810284
2430.680455	-3.028800	2.804400	-8.491900	29.136185	0.000195	20.814380
2431.681490	-3.000700	2.802300	-8.408100	29.130295	0.000195	20.845429
2432.683103	-3.005700	2.800700	-8.416300	29.168579	0.000193	20.813359
2433.679836	-2.974900	2.797000	-8.319500	29.187449	0.000196	20.837115
2434.683407	-3.028200	2.793800	-8.459400	29.234608	0.000196	20.808299
2435.686110	-3.004700	2.790600	-8.383200	29.262101	0.000196	20.810875
2436.679813	-3.022900	2.789200	-8.431300	29.333240	0.000196	20.803387
2437.676893	-2.990200	2.787400	-8.333900	29.357175	0.000194	20.820397
2438.684261	-3.010300	2.784400	-8.380500	29.372385	0.000195	20.803485
2439.680792	-2.997200	2.781600	-8.336600	29.420539	0.000196	20.812190
2440.676190	-3.041900	2.777100	-8.446700	29.431335	0.000196	20.821175
2441.684178	-3.017700	2.775800	-8.375100	29.434734	0.000195	20.827446
2442.678835	-3.013900	2.772000	-8.353200	29.426834	0.000195	20.830389
2443.682109	-2.991400	2.770900	-8.288100	29.404991	0.000194	20.830183
2444.681402	-2.980700	2.767900	-8.249700	29.403361	0.000196	20.833282
2445.683373	-3.002800	2.764900	-8.301800	29.374543	0.000196	20.813720
2446.681879	-2.990100	2.762600	-8.259300	29.375605	0.000195	20.798670
2447.681029	-2.996400	2.758600	-8.264100	29.389670	0.000194	20.819958
2448.678303	-2.979700	2.756200	-8.210100	29.406290	0.000195	20.805890
2449.677319	-3.005100	2.754000	-8.274800	29.397245	0.000196	20.805308
2450.682083	-3.017700	2.748600	-8.291700	29.378535	0.000195	20.807312
2451.685801	-2.999500	2.746700	-8.238000	29.369426	0.000193	20.805718
2452.681936	-3.009100	2.744200	-8.256500	29.373335	0.000196	20.795434
2453.679219	-2.995500	2.741200	-8.210500	29.352189	0.000195	20.801148
2454.684023	-2.988300	2.737500	-8.179200	29.308485	0.000195	20.809732
2455.685080	-3.022100	2.733200	-8.258800	29.254330	0.000194	20.810157
2456.687781	-2.994300	2.732300	-8.181000	29.212586	0.000194	20.806496
2457.682228	-2.999500	2.727300	-8.179500	29.278529	0.000194	20.798983
2458.688717	-2.979800	2.725100	-8.117900	29.271123	0.000194	20.828502
2459.685626	-3.018400	2.722300	-8.215900	29.275236	0.000194	20.811311
2460.680477	-2.973700	2.718100	-8.081300	29.273232	0.000195	20.794593
2461.688352	-3.006100	2.714700	-8.159500	29.324636	0.000195	20.799457
2462.683746	-2.975600	2.710400	-8.063600	29.347218	0.000195	20.808466
2463.684623	-2.977000	2.708900	-8.062600	29.407673	0.000196	20.791636
2464.688428	-3.027400	2.703800	-8.184800	29.452969	0.000196	20.808842
2465.685793	-2.985900	2.700200	-8.060900	29.497667	0.000195	20.796524
2466.686100	-2.988400	2.696100	-8.055600	29.500586	0.000196	20.790932
2467.687017	-3.000100	2.693800	-8.080100	29.519595	0.000196	20.799662
2468.683101	-3.008900	2.689600	-8.092000	29.463424	0.000196	20.799467
2469.685214	-3.014900	2.684400	-8.092600	29.441267	0.000197	20.781874
2470.686327	-2.968900	2.681100	-7.958900	29.443885	0.000195	20.787833
2471.681561	-3.053900	2.676200	-8.171600	29.459060	0.000196	20.788903
2472.685789	-3.002000	2.674000	-8.025400	29.446538	0.000195	20.786239
2473.682721	-3.004300	2.669400	-8.018800	29.404549	0.000195	20.792281
2474.685571	-2.994600	2.667200	-7.986500	29.344638	0.000197	20.793537
2475.682908	-3.011000	2.661800	-8.014200	29.356782	0.000195	20.802932
2476.684652	-3.020000	2.657800	-8.026200	29.377206	0.000195	20.796490
2477.688972	-3.018000	2.654900	-8.011500	29.417809	0.000196	20.798059
2478.685802	-2.984000	2.650600	-7.908400	29.403250	0.000193	20.785755
2479.684698	-3.018600	2.644900	-7.983000	29.399549	0.000195	20.773491
2480.692655	-2.995100	2.641900	-7.911700	29.398463	0.000196	20.786620
2481.686102	-2.958100	2.639800	-7.808100	29.439981	0.000195	20.774889
2482.685799	-2.992300	2.632100	-7.875200	29.388681	0.000196	20.783399
2483.689264	-2.965200	2.629100	-7.794000	29.410515	0.000194	20.785965
2484.691022	-2.997400	2.623700	-7.863000	29.392735	0.000196	20.780847
2485.692764	-2.996200	2.619100	-7.847000	29.426388	0.000195	20.764032
2486.692697	-2.990200	2.614100	-7.816100	29.436194	0.000198	20.772493
2487.696289	-3.015800	2.608500	-7.865700	29.399418	0.000197	20.773833
2488.693285	-2.975400	2.603200	-7.744000	29.344391	0.000198	20.801348
2489.693282	-3.016600	2.598100	-7.836400	29.354474	0.000197	20.777846
2490.691260	-3.008500	2.591100	-7.793800	29.347490	0.000196	20.779816
2491.690071	-2.989500	2.587100	-7.732200	29.377249	0.000198	20.771877
2492.694194	-2.987300	2.581400	-7.710200	29.388879	0.000196	20.776961
2493.697786	-2.986800	2.576700	-7.695400	29.453497	0.000198	20.772865
2494.699659	-2.997800	2.571100	-7.706800	29.435258	0.000197	20.760170
2495.694872	-3.026700	2.563800	-7.758200	29.395044	0.000195	20.777484
2496.699362	-2.994700	2.559300	-7.663400	29.417168	0.000196	20.756161
2497.697458	-3.049000	2.552700	-7.780900	29.447081	0.000195	20.755018
2498.696297	-2.988600	2.549000	-7.616000	29.434817	0.000197	20.774898
2499.699921	-3.001600	2.543700	-7.632800	29.427203	0.000197	20.774336
2500.695338	-2.982600	2.537000	-7.566200	29.447770	0.000196	20.760453
2501.696676	-2.993900	2.531000	-7.576500	29.475669	0.000197	20.758703
2502.697105	-2.996700	2.525100	-7.565300	29.486586	0.000196	20.788673
2503.698953	-3.010000	2.517500	-7.575900	29.534444	0.000197	20.768162
2504.702434	-2.969800	2.511900	-7.458900	29.582760	0.000198	20.768504
2505.698982	-2.991700	2.503900	-7.490400	29.592240	0.000197	20.769526
2506.699978	-2.978300	2.498900	-7.441700	29.619917	0.000195	20.776091
