LabVIEW Measurement	
Writer_Version	2
Reader_Version	2
Separator	Tab
Decimal_Separator	.
Multi_Headings	No
X_Columns	One
Time_Pref	Absolute
Operator	admin
Description	Clolumns are: time, Current, Voltage, Power, Battery Temp, and Chamber Temp
Date	2024/08/16
Time	13:06:06.104549407958984375
***End_of_Header***	
	
Channels	6						
Samples	1	1	1	1	1	1	
Date	2024/09/17	2024/09/17	2024/09/17	2024/09/17	2024/09/17	2024/09/17	
Time	08:04:07.7993407249450683594	08:04:07.8070673942565917969	08:04:07.8160529136657714844	08:04:07.7781977653503417969	08:04:07.7781977653503417969	08:04:07.7781977653503417969	
X_Dimension	Time	Time	Time	Time	Time	Time	
X0	0.0000000000000000E+0	0.0000000000000000E+0	0.0000000000000000E+0	0.0000000000000000E+0	0.0000000000000000E+0	0.0000000000000000E+0	
Delta_X	1.000000	1.000000	1.000000	1.000000	1.000000	1.000000	
***End_of_Header***							
X_Value	Untitled	Untitled 1	Untitled 2	Untitled 3	Untitled 4	Untitled 5	Comment
0.000000	0.006535	4.092900	0.026716	20.975516	0.000953	20.758841
0.994218	-3.008600	3.909400	-11.761000	20.988824	0.000954	20.771203
2.001304	-3.006800	3.904100	-11.736000	20.998951	0.000950	20.768055
2.998211	-3.006400	3.896300	-11.712000	20.984181	0.000950	20.767982
3.996799	-2.995200	3.893400	-11.660000	21.000519	0.000949	20.757296
4.997539	-2.997000	3.890600	-11.659000	20.981786	0.000949	20.755629
5.998044	-3.014700	3.887100	-11.717000	20.987148	0.000948	20.755776
6.997094	-3.012500	3.884800	-11.701000	21.012493	0.000948	20.736554
7.999602	-3.000100	3.881700	-11.645000	20.989127	0.000947	20.775300
8.998671	-3.009800	3.879900	-11.675000	21.005588	0.000946	20.753830
10.002174	-3.010200	3.878800	-11.675000	21.014243	0.000944	20.749685
11.000593	-3.000500	3.877700	-11.633000	21.012855	0.000944	20.735020
12.002145	-3.000700	3.874000	-11.624000	21.037130	0.000944	20.760723
13.000460	-2.995000	3.872400	-11.597000	21.038127	0.000943	20.782583
14.001740	-2.994200	3.872600	-11.595000	21.021364	0.000942	20.762497
15.001197	-2.986600	3.871200	-11.560000	21.019468	0.000941	20.761549
15.996655	-3.014700	3.868400	-11.661000	21.029789	0.000940	20.744845
17.000751	-3.004800	3.867500	-11.620000	21.054425	0.000942	20.730131
18.000024	-2.986600	3.868000	-11.551000	21.020694	0.000940	20.763724
19.008364	-3.009100	3.866700	-11.634000	21.065861	0.000939	20.752950
20.002958	-3.007800	3.864700	-11.623000	21.041308	0.000939	20.766799
21.001440	-3.008000	3.863600	-11.619000	21.057001	0.000937	20.748355
22.002471	-2.975000	3.865100	-11.497000	21.043640	0.000936	20.763441
23.001793	-3.004400	3.862900	-11.604000	21.077663	0.000938	20.745315
24.009603	-3.008500	3.861700	-11.617000	21.069835	0.000938	20.756450
25.003020	-3.028200	3.859900	-11.688000	21.084456	0.000937	20.758748
26.002284	-3.022600	3.859200	-11.663000	21.069492	0.000936	20.749944
27.001682	-2.993100	3.860000	-11.551000	21.081514	0.000937	20.741106
28.002316	-3.009200	3.860200	-11.615000	21.107073	0.000937	20.759559
28.997995	-3.006200	3.858200	-11.597000	21.083030	0.000937	20.744044
30.001293	-3.007100	3.858100	-11.600000	21.106672	0.000936	20.728811
31.000770	-2.999800	3.858000	-11.572000	21.102137	0.000936	20.724275
32.002556	-3.016900	3.855200	-11.628000	21.097021	0.000936	20.745237
33.009671	-3.000700	3.856000	-11.570000	21.137264	0.000935	20.729066
34.005233	-3.002900	3.855900	-11.576000	21.138867	0.000935	20.745843
35.005004	-3.001100	3.855500	-11.569000	21.137723	0.000934	20.735215
36.002882	-3.011900	3.854400	-11.608000	21.130115	0.000936	20.753210
37.003331	-3.022700	3.851600	-11.641000	21.149173	0.000934	20.740031
38.000817	-3.001600	3.853700	-11.565000	21.137430	0.000935	20.735871
39.005997	-3.030800	3.851700	-11.672000	21.153268	0.000932	20.741756
40.007489	-3.019900	3.851500	-11.630000	21.183497	0.000933	20.730268
41.000217	-3.012800	3.850800	-11.600000	21.169213	0.000935	20.734472
42.004002	-2.994600	3.851800	-11.533000	21.180286	0.000934	20.718995
43.005516	-2.991000	3.851800	-11.518000	21.191687	0.000933	20.749842
44.006126	-3.009100	3.850200	-11.585000	21.219334	0.000931	20.710167
45.001399	-3.022700	3.848500	-11.632000	21.210172	0.000933	20.718072
46.003790	-3.019500	3.849100	-11.620000	21.234697	0.000933	20.738339
47.007625	-3.003200	3.848600	-11.557000	21.235391	0.000931	20.742827
48.006244	-3.002700	3.848900	-11.556000	21.223199	0.000933	20.721146
49.006251	-3.019500	3.847700	-11.617000	21.242461	0.000931	20.731882
50.002917	-3.008400	3.848600	-11.577000	21.251227	0.000931	20.719313
51.008267	-3.015700	3.847200	-11.600000	21.249209	0.000932	20.731046
52.007698	-3.022600	3.845800	-11.624000	21.269360	0.000932	20.724177
53.011590	-2.983800	3.847100	-11.478000	21.261606	0.000930	20.733964
54.004643	-3.013500	3.846500	-11.589000	21.278693	0.000931	20.728772
55.006716	-2.998800	3.846800	-11.534000	21.280066	0.000933	20.737259
56.010834	-2.981500	3.847500	-11.470000	21.307188	0.000929	20.725038
57.007152	-3.015700	3.844600	-11.592000	21.322999	0.000931	20.727580
58.005985	-3.032300	3.844500	-11.655000	21.310545	0.000931	20.736931
59.005958	-2.975700	3.845800	-11.443000	21.316291	0.000929	20.709013
60.008087	-2.996400	3.843500	-11.516000	21.331130	0.000930	20.699676
61.006930	-2.975600	3.844800	-11.440000	21.326390	0.000931	20.713427
62.008039	-2.980900	3.843100	-11.455000	21.358276	0.000930	20.717827
63.008193	-2.998300	3.844300	-11.524000	21.340642	0.000931	20.718204
64.008978	-3.008600	3.843200	-11.561000	21.374838	0.000931	20.706896
65.007442	-3.008000	3.841000	-11.552000	21.379431	0.000930	20.731882
66.010394	-2.994000	3.842200	-11.502000	21.386940	0.000931	20.715686
67.005059	-2.997100	3.842000	-11.514000	21.407548	0.000932	20.718761
68.009841	-3.002700	3.841000	-11.532000	21.393428	0.000930	20.719333
69.005668	-2.985400	3.840800	-11.466000	21.393477	0.000930	20.728865
70.012654	-3.013200	3.841100	-11.573000	21.412991	0.000931	20.733216
71.009209	-2.993800	3.840700	-11.498000	21.424193	0.000930	20.728303
72.010116	-3.030900	3.839300	-11.634000	21.431438	0.000930	20.718956
73.012255	-3.009300	3.840600	-11.556000	21.431194	0.000930	20.703538
74.011035	-3.030700	3.839500	-11.635000	21.446793	0.000932	20.691170
75.014254	-2.992000	3.839900	-11.488000	21.442299	0.000932	20.708485
76.013544	-3.002600	3.839200	-11.527000	21.447316	0.000930	20.701177
77.016254	-3.011200	3.838200	-11.556000	21.453731	0.000931	20.722296
78.012763	-2.986400	3.839200	-11.464000	21.445601	0.000931	20.712264
79.010460	-2.984800	3.838000	-11.454000	21.482442	0.000934	20.694123
80.011147	-3.002700	3.838000	-11.523000	21.486756	0.000931	20.705552
81.015684	-3.000200	3.837900	-11.514000	21.495686	0.000932	20.700737
82.013374	-2.989600	3.837200	-11.471000	21.490048	0.000932	20.694147
83.010669	-3.010700	3.835400	-11.546000	21.486912	0.000932	20.716141
84.014828	-3.006800	3.837300	-11.538000	21.495808	0.000933	20.715559
85.012065	-3.009200	3.835500	-11.540000	21.517845	0.000931	20.711057
86.017204	-2.985000	3.836500	-11.451000	21.502017	0.000933	20.706598
87.017662	-3.014100	3.835200	-11.559000	21.547786	0.000931	20.697868
88.014374	-2.978400	3.835500	-11.422000	21.551772	0.000932	20.708969
89.019003	-3.000000	3.834900	-11.504000	21.553364	0.000931	20.712460
90.012270	-3.003900	3.834500	-11.518000	21.569128	0.000933	20.703103
91.012660	-3.020300	3.832400	-11.574000	21.559920	0.000933	20.712856
92.016495	-3.008700	3.833800	-11.534000	21.579734	0.000933	20.705181
93.015740	-2.995300	3.832700	-11.478000	21.594168	0.000933	20.717730
94.018445	-3.014900	3.832900	-11.555000	21.594144	0.000933	20.689254
95.017326	-3.007900	3.833000	-11.529000	21.591858	0.000934	20.684121
96.020326	-2.996100	3.833000	-11.483000	21.613507	0.000933	20.714323
97.017250	-3.004700	3.832700	-11.515000	21.608671	0.000932	20.695732
98.014855	-3.027300	3.831500	-11.598000	21.607455	0.000935	20.700205
99.023918	-3.009200	3.831500	-11.528000	21.606190	0.000935	20.725967
100.017840	-3.011300	3.832500	-11.539000	21.634717	0.000937	20.723220
101.015748	-2.995900	3.831500	-11.477000	21.629930	0.000936	20.686658
102.020691	-2.991200	3.832600	-11.463000	21.644349	0.000937	20.698245
103.018373	-2.974500	3.832000	-11.397000	21.642185	0.000936	20.697502
104.016486	-2.975100	3.832500	-11.401000	21.647324	0.000937	20.705015
105.017420	-3.016700	3.829200	-11.551000	21.665885	0.000935	20.696089
106.018187	-2.999600	3.831600	-11.492000	21.681643	0.000937	20.691943
107.017579	-3.010900	3.829800	-11.530000	21.696828	0.000937	20.697658
108.018203	-3.009500	3.830000	-11.526000	21.676490	0.000936	20.682992
109.018090	-2.999500	3.830000	-11.487000	21.694977	0.000937	20.700073
110.017450	-3.006400	3.829100	-11.511000	21.720063	0.000936	20.693410
111.017684	-3.011200	3.828300	-11.526000	21.704282	0.000936	20.691841
112.024518	-3.013400	3.828200	-11.535000	21.728445	0.000937	20.691367
113.019555	-2.987400	3.830300	-11.442000	21.738028	0.000938	20.689103
114.020608	-3.016000	3.828300	-11.545000	21.736919	0.000937	20.693684
115.024640	-3.004400	3.827200	-11.498000	21.752505	0.000938	20.686997
116.020844	-3.000300	3.829000	-11.487000	21.756041	0.000938	20.683897
117.021041	-3.003700	3.827100	-11.493000	21.763084	0.000940	20.674824
118.025476	-2.985800	3.827700	-11.428000	21.767919	0.000937	20.689148
119.017509	-2.993200	3.827100	-11.453000	21.780574	0.000938	20.683321
120.017470	-2.988200	3.827100	-11.435000	21.770043	0.000940	20.667564
121.019234	-2.992500	3.826400	-11.450000	21.755489	0.000941	20.676232
122.017862	-2.988600	3.826800	-11.435000	21.754712	0.000941	20.691577
123.022237	-2.974200	3.827600	-11.382000	21.793912	0.000943	20.684817
124.021674	-2.982200	3.825700	-11.408000	21.805267	0.000942	20.675318
125.021593	-3.016900	3.825500	-11.540000	21.802801	0.000944	20.658623
126.026662	-3.011500	3.824900	-11.517000	21.824036	0.000942	20.684621
127.027479	-2.997500	3.825300	-11.464000	21.813345	0.000944	20.673920
128.021767	-2.998900	3.825800	-11.471000	21.836182	0.000943	20.687295
129.022314	-2.991200	3.824100	-11.437000	21.839801	0.000945	20.689021
130.025432	-3.002700	3.824800	-11.483000	21.831225	0.000946	20.691343
131.019870	-2.984000	3.824900	-11.412000	21.812422	0.000943	20.669676
132.021110	-3.010800	3.823500	-11.510000	21.828636	0.000947	20.680691
133.025673	-3.008700	3.823200	-11.502000	21.839180	0.000946	20.662319
134.025704	-3.023600	3.823200	-11.558000	21.844245	0.000946	20.675450
135.025467	-3.006500	3.822800	-11.492000	21.842277	0.000947	20.686283
136.025845	-2.976300	3.823400	-11.379000	21.864928	0.000948	20.698525
137.021909	-3.019800	3.821800	-11.541000	21.893301	0.000947	20.696105
138.027098	-2.979000	3.823500	-11.389000	21.885785	0.000948	20.683839
139.026463	-2.997100	3.822800	-11.456000	21.900128	0.000946	20.671642
140.030608	-2.984500	3.822900	-11.409000	21.921396	0.000949	20.680129
141.029216	-2.984700	3.822800	-11.408000	21.918627	0.000950	20.665976
142.022979	-3.008200	3.822000	-11.496000	21.926983	0.000951	20.683825
143.029330	-2.999900	3.822400	-11.466000	21.932437	0.000949	20.678379
144.030753	-3.003000	3.820000	-11.470000	21.916161	0.000952	20.649755
145.031170	-2.973700	3.821100	-11.361000	21.945407	0.000951	20.662911
146.029675	-3.002700	3.820500	-11.471000	21.952488	0.000952	20.675216
147.030505	-2.981100	3.820700	-11.389000	21.971323	0.000953	20.666568
148.031005	-3.005800	3.820400	-11.481000	21.949851	0.000951	20.665937
149.031476	-3.007800	3.819400	-11.486000	22.001579	0.000953	20.680735
150.034783	-2.997300	3.819100	-11.445000	22.018508	0.000955	20.675871
151.029309	-2.986400	3.820100	-11.407000	21.995153	0.000953	20.667663
152.029076	-3.018800	3.818400	-11.526000	21.995612	0.000954	20.667648
153.034568	-2.989700	3.818900	-11.415000	22.011985	0.000953	20.672185
154.035893	-2.979800	3.819800	-11.381000	22.008498	0.000953	20.659210
155.033250	-3.011300	3.819800	-11.500000	22.026658	0.000956	20.667907
156.037591	-3.018400	3.818000	-11.523000	21.995163	0.000956	20.674786
157.036718	-2.998700	3.819200	-11.452000	22.004236	0.000956	20.666798
158.033484	-3.007800	3.817600	-11.482000	22.023543	0.000955	20.674273
159.040263	-2.989800	3.818300	-11.415000	22.018441	0.000956	20.680071
160.034176	-3.011200	3.816900	-11.492000	22.033573	0.000958	20.661553
161.030797	-3.028500	3.815700	-11.554000	22.056771	0.000957	20.665810
162.029999	-3.027500	3.816400	-11.553000	22.078749	0.000957	20.650352
163.037262	-3.001800	3.816600	-11.456000	22.077548	0.000956	20.649624
164.033062	-3.014100	3.815400	-11.499000	22.096590	0.000956	20.664896
165.034590	-2.992400	3.817200	-11.421000	22.078651	0.000959	20.678233
166.033852	-2.997800	3.815700	-11.438000	22.084066	0.000960	20.647615
167.035546	-2.995600	3.814400	-11.426000	22.091718	0.000959	20.662863
168.033763	-2.985600	3.815700	-11.391000	22.087299	0.000960	20.646109
169.036176	-2.999500	3.815200	-11.443000	22.098617	0.000958	20.658390
170.034289	-3.014800	3.815700	-11.502000	22.112220	0.000959	20.675803
171.034727	-3.005800	3.815100	-11.466000	22.130495	0.000960	20.656639
172.040345	-2.989900	3.817200	-11.411000	22.143561	0.000960	20.681577
173.039999	-2.987700	3.815100	-11.397000	22.154331	0.000960	20.663435
174.035324	-3.010900	3.813800	-11.482000	22.159419	0.000963	20.650509
175.037498	-3.007200	3.812200	-11.462000	22.174500	0.000962	20.664662
176.038239	-2.990100	3.812600	-11.398000	22.196358	0.000960	20.678487
177.045254	-3.018200	3.813100	-11.508000	22.183098	0.000964	20.659993
178.039463	-2.986500	3.814300	-11.390000	22.179700	0.000965	20.668446
179.041037	-2.996900	3.813100	-11.426000	22.207104	0.000966	20.663166
180.037376	-3.003500	3.811800	-11.448000	22.204834	0.000965	20.657099
181.036815	-3.001300	3.811700	-11.439000	22.234888	0.000966	20.668700
182.041841	-3.001700	3.811900	-11.441000	22.209921	0.000965	20.672152
183.040615	-3.018200	3.811000	-11.502000	22.221809	0.000965	20.660819
184.035855	-3.000000	3.811400	-11.433000	22.219685	0.000967	20.655848
185.037091	-3.019000	3.811100	-11.504000	22.233492	0.000966	20.658766
186.039786	-2.997100	3.811300	-11.420000	22.248548	0.000967	20.651081
187.040141	-3.000600	3.810100	-11.431000	22.260568	0.000968	20.665962
188.039892	-3.016400	3.811400	-11.495000	22.281067	0.000969	20.654244
189.044528	-2.989500	3.810400	-11.390000	22.282219	0.000971	20.680056
190.037346	-2.997200	3.810700	-11.420000	22.284914	0.000968	20.658571
191.041423	-3.003700	3.809600	-11.441000	22.299593	0.000972	20.674219
192.039252	-2.997400	3.810700	-11.421000	22.298270	0.000971	20.660565
193.038195	-2.999300	3.809300	-11.425000	22.314248	0.000971	20.653804
194.041374	-3.009700	3.808400	-11.461000	22.314976	0.000973	20.670656
195.038260	-2.991100	3.808800	-11.390000	22.327517	0.000973	20.648598
196.044054	-2.994500	3.807700	-11.400000	22.358769	0.000973	20.678947
197.042128	-3.004500	3.807300	-11.438000	22.344271	0.000973	20.644985
198.043437	-3.005100	3.807300	-11.440000	22.361917	0.000975	20.668348
199.051305	-3.014900	3.808700	-11.482000	22.398992	0.000974	20.663748
200.044077	-3.020800	3.806600	-11.498000	22.370597	0.000975	20.672298
201.041176	-3.020600	3.806200	-11.494000	22.388370	0.000973	20.649790
202.043886	-2.990600	3.807100	-11.384000	22.402126	0.000976	20.682535
203.048629	-2.977400	3.808800	-11.339000	22.385714	0.000974	20.665151
204.041702	-2.983100	3.808500	-11.358000	22.400632	0.000974	20.674875
205.047153	-2.997600	3.807300	-11.411000	22.393715	0.000977	20.656566
206.045694	-3.004500	3.806800	-11.437000	22.411317	0.000976	20.685576
207.045659	-2.995900	3.807300	-11.404000	22.419318	0.000977	20.661343
208.046674	-2.999600	3.807000	-11.419000	22.417448	0.000979	20.660419
209.046795	-2.981800	3.807000	-11.350000	22.413699	0.000978	20.653819
210.047689	-2.994300	3.806200	-11.396000	22.430125	0.000979	20.666476
211.045018	-3.003500	3.806000	-11.431000	22.437735	0.000979	20.662716
212.046145	-3.024700	3.804200	-11.504000	22.432965	0.000979	20.650827
213.045948	-3.007400	3.804600	-11.441000	22.446901	0.000978	20.679010
214.048546	-2.967100	3.806000	-11.292000	22.443367	0.000979	20.672626
215.044366	-3.020800	3.803600	-11.489000	22.449815	0.000979	20.667229
216.048660	-2.996600	3.803800	-11.397000	22.472263	0.000979	20.669321
217.047001	-2.993300	3.804700	-11.388000	22.469955	0.000982	20.665112
218.048686	-3.007400	3.803700	-11.438000	22.465684	0.000982	20.688338
219.048944	-3.024900	3.802100	-11.499000	22.486418	0.000981	20.674014
220.049096	-2.982000	3.803400	-11.341000	22.490582	0.000984	20.678658
221.052773	-2.979600	3.804600	-11.335000	22.522825	0.000983	20.672543
222.050674	-3.007600	3.802400	-11.435000	22.519111	0.000986	20.679729
223.048359	-2.982800	3.803100	-11.341000	22.516802	0.000984	20.685952
224.047919	-2.976300	3.802300	-11.316000	22.534817	0.000984	20.673647
225.048100	-2.986500	3.803300	-11.357000	22.530459	0.000986	20.688250
226.049026	-2.993900	3.802000	-11.382000	22.526295	0.000986	20.677915
227.050068	-3.003300	3.801100	-11.414000	22.529414	0.000987	20.678194
228.049949	-3.028100	3.799800	-11.504000	22.544042	0.000986	20.666764
229.054965	-3.003300	3.799500	-11.410000	22.527594	0.000989	20.660722
230.051081	-3.007400	3.799700	-11.427000	22.541494	0.000990	20.673696
231.053253	-3.014400	3.799200	-11.450000	22.541782	0.000988	20.684892
232.054277	-2.999800	3.799600	-11.395000	22.571974	0.000988	20.691423
233.053416	-2.996300	3.798800	-11.381000	22.574668	0.000990	20.672308
234.050155	-2.995100	3.800200	-11.381000	22.563682	0.000990	20.670314
235.051269	-2.990100	3.799300	-11.358000	22.605669	0.000991	20.655467
236.051270	-3.002300	3.799100	-11.405000	22.632726	0.000990	20.669766
237.052141	-2.976100	3.799500	-11.306000	22.622238	0.000991	20.679651
238.054533	-2.986500	3.798600	-11.344000	22.634449	0.000989	20.664853
239.051662	-2.982900	3.798700	-11.330000	22.642414	0.000991	20.691325
240.050848	-2.976300	3.797700	-11.302000	22.659163	0.000992	20.663528
241.052806	-2.989800	3.798700	-11.356000	22.679552	0.000994	20.670676
242.056174	-3.023200	3.798200	-11.481000	22.668982	0.000993	20.673838
243.054735	-2.999900	3.796800	-11.388000	22.671144	0.000993	20.680746
244.053545	-2.993300	3.797300	-11.365000	22.665219	0.000996	20.665327
245.053635	-3.016000	3.795600	-11.446000	22.651491	0.000994	20.677657
246.055364	-2.989500	3.796000	-11.347000	22.631731	0.000996	20.678253
247.055149	-3.025800	3.795800	-11.483000	22.643600	0.000996	20.679236
248.054506	-3.008700	3.795700	-11.419000	22.685282	0.000996	20.674992
249.057508	-2.983600	3.796700	-11.327000	22.687722	0.000998	20.688343
250.056231	-2.984200	3.795100	-11.323000	22.684603	0.000997	20.679055
251.055983	-2.996700	3.795600	-11.374000	22.723287	0.000999	20.695994
252.056254	-2.993800	3.794000	-11.358000	22.714376	0.001001	20.674738
253.059250	-3.014400	3.794700	-11.436000	22.714777	0.001000	20.686520
254.056782	-2.997600	3.794700	-11.373000	22.733091	0.001000	20.697754
255.057103	-2.998400	3.792700	-11.369000	22.743993	0.001001	20.693501
256.060275	-3.008000	3.793400	-11.409000	22.734985	0.001004	20.692064
257.060954	-2.989000	3.794400	-11.341000	22.719134	0.000998	20.685669
258.057952	-3.009700	3.794800	-11.420000	22.715406	0.001004	20.708015
259.057953	-3.008500	3.793300	-11.411000	22.703089	0.001001	20.683821
260.057954	-2.992700	3.794700	-11.355000	22.709628	0.001004	20.684208
261.057954	-2.964400	3.794900	-11.247000	22.707857	0.001003	20.705194
262.059954	-2.989000	3.793000	-11.337000	22.743432	0.001004	20.680609
263.059951	-3.004500	3.792200	-11.393000	22.744198	0.001003	20.682325
264.060952	-3.000100	3.791000	-11.372000	22.770144	0.001004	20.689825
265.060952	-2.976900	3.792900	-11.288000	22.792488	0.001006	20.693242
266.068953	-2.992600	3.792400	-11.347000	22.797548	0.001007	20.699260
267.060955	-2.969100	3.792300	-11.259000	22.794162	0.001006	20.680693
268.060955	-3.009300	3.791000	-11.407000	22.798919	0.001007	20.687356
269.061952	-3.000100	3.792100	-11.376000	22.798544	0.001008	20.688876
270.060955	-3.003900	3.789800	-11.383000	22.796079	0.001009	20.695891
271.061952	-2.978800	3.790900	-11.291000	22.806771	0.001008	20.710396
272.062953	-2.979000	3.789400	-11.288000	22.812402	0.001009	20.703234
273.063953	-3.003300	3.789000	-11.378000	22.821600	0.001010	20.711975
274.064951	-3.003300	3.789900	-11.382000	22.841967	0.001009	20.703454
275.064954	-3.009800	3.786600	-11.396000	22.859284	0.001011	20.703733
276.065954	-2.991400	3.787400	-11.328000	22.833179	0.001012	20.695598
277.065471	-2.994000	3.788500	-11.342000	22.857937	0.001012	20.709022
278.066467	-2.981200	3.787900	-11.291000	22.842850	0.001011	20.701968
279.065471	-3.010900	3.787500	-11.403000	22.847256	0.001011	20.705908
280.066466	-2.990000	3.787500	-11.323000	22.852789	0.001015	20.714297
281.068467	-3.027800	3.785100	-11.459000	22.837063	0.001013	20.705180
282.067466	-2.992000	3.787000	-11.329000	22.858386	0.001015	20.692875
283.067469	-2.997400	3.786400	-11.347000	22.840981	0.001014	20.715270
284.067467	-2.987100	3.786300	-11.309000	22.858059	0.001016	20.696341
285.067470	-3.012600	3.785700	-11.403000	22.903397	0.001016	20.726117
286.066469	-2.992200	3.786400	-11.329000	22.891287	0.001017	20.715881
287.070470	-3.012300	3.785100	-11.401000	22.891165	0.001018	20.710068
288.067466	-3.008100	3.784800	-11.383000	22.892136	0.001020	20.702506
289.067469	-3.000700	3.784900	-11.356000	22.897244	0.001018	20.702882
290.068467	-3.012700	3.783200	-11.397000	22.900133	0.001019	20.701034
291.068467	-2.993600	3.785600	-11.331000	22.919830	0.001018	20.704647
292.071467	-2.985800	3.785000	-11.300000	22.945835	0.001021	20.706993
293.068466	-2.974000	3.785600	-11.257000	22.952812	0.001019	20.720623
294.069467	-2.997000	3.783800	-11.340000	22.979475	0.001022	20.721258
295.073467	-2.975900	3.784400	-11.261000	22.979113	0.001021	20.718525
296.068468	-2.999200	3.783600	-11.346000	23.007250	0.001021	20.708308
297.072466	-2.990100	3.784300	-11.314000	22.989096	0.001023	20.705766
298.070466	-2.985700	3.782300	-11.291000	23.001108	0.001023	20.723966
299.069467	-2.985000	3.783600	-11.293000	23.027974	0.001021	20.729549
300.072548	-2.997400	3.783200	-11.339000	23.024930	0.001023	20.715118
301.070546	-2.997100	3.781300	-11.332000	23.012650	0.001022	20.732687
302.071263	-3.012800	3.781400	-11.391000	22.974523	0.001023	20.709183
303.070506	-2.980500	3.781300	-11.269000	23.002639	0.001027	20.708905
304.072854	-3.011700	3.782000	-11.390000	23.026276	0.001024	20.722157
305.070991	-3.010900	3.780800	-11.382000	23.034394	0.001024	20.730292
306.070991	-2.993800	3.781100	-11.319000	23.053748	0.001024	20.750632
307.078826	-3.007200	3.780100	-11.367000	23.066451	0.001025	20.717367
308.075670	-3.004300	3.780000	-11.355000	23.053640	0.001027	20.724445
309.081271	-3.025100	3.779900	-11.433000	23.043810	0.001026	20.736407
310.079386	-3.010600	3.779500	-11.376000	23.044673	0.001028	20.729211
311.076559	-2.993300	3.779400	-11.312000	23.077544	0.001027	20.735595
312.073240	-2.987800	3.779600	-11.291000	23.098463	0.001027	20.725735
313.081490	-3.004200	3.778500	-11.351000	23.092711	0.001027	20.724240
314.076271	-3.000600	3.778700	-11.338000	23.113678	0.001028	20.733870
315.079890	-2.993100	3.778800	-11.310000	23.092458	0.001028	20.732046
316.083234	-3.023100	3.776100	-11.414000	23.095067	0.001026	20.744619
317.083622	-3.003800	3.777000	-11.344000	23.092448	0.001029	20.733459
318.078024	-3.021800	3.777000	-11.413000	23.104424	0.001028	20.719854
319.084910	-3.002100	3.777600	-11.338000	23.100687	0.001029	20.718481
320.078684	-3.021000	3.775400	-11.403000	23.105395	0.001029	20.736001
321.080614	-2.986100	3.776600	-11.275000	23.140567	0.001029	20.742796
322.088374	-3.007800	3.776000	-11.356000	23.117722	0.001032	20.737448
323.081318	-2.997600	3.775000	-11.314000	23.124917	0.001031	20.754142
324.084298	-2.993600	3.775600	-11.302000	23.105370	0.001031	20.739296
325.091525	-3.000900	3.775200	-11.328000	23.112492	0.001030	20.720827
326.084339	-3.004300	3.774800	-11.339000	23.100204	0.001032	20.737438
327.081270	-3.003400	3.774600	-11.335000	23.108356	0.001032	20.728536
328.081435	-3.008800	3.773800	-11.354000	23.113317	0.001034	20.746311
329.082178	-2.980800	3.775200	-11.251000	23.121727	0.001031	20.734348
330.082380	-3.003300	3.774400	-11.334000	23.126786	0.001032	20.747005
331.083585	-3.007800	3.774000	-11.351000	23.140581	0.001035	20.737594
332.082716	-3.008700	3.773800	-11.352000	23.148927	0.001033	20.727940
333.083621	-3.016900	3.772500	-11.379000	23.172064	0.001033	20.751126
334.082288	-3.012200	3.772300	-11.362000	23.178191	0.001034	20.737350
335.087537	-3.003100	3.772900	-11.329000	23.179571	0.001035	20.731147
336.084454	-3.019600	3.770700	-11.385000	23.210278	0.001035	20.742478
337.085481	-2.992200	3.772000	-11.286000	23.215751	0.001036	20.749860
338.089536	-2.996700	3.770100	-11.295000	23.192069	0.001036	20.736558
339.089023	-3.007900	3.769900	-11.338000	23.212863	0.001035	20.744595
340.084088	-3.011600	3.770500	-11.354000	23.220614	0.001038	20.742405
341.098641	-2.994800	3.771100	-11.293000	23.217361	0.001037	20.730135
342.091851	-2.992000	3.770600	-11.280000	23.241954	0.001038	20.761421
343.088617	-2.994800	3.770900	-11.292000	23.270571	0.001038	20.744580
344.090099	-2.985300	3.770600	-11.255000	23.281672	0.001039	20.739584
345.086237	-3.002500	3.768800	-11.315000	23.274649	0.001039	20.742977
346.091822	-2.986600	3.771100	-11.261000	23.272864	0.001040	20.752568
347.088246	-3.002100	3.769700	-11.316000	23.273932	0.001039	20.745103
348.091630	-3.011000	3.768700	-11.347000	23.268010	0.001037	20.745333
349.088566	-3.009300	3.769400	-11.341000	23.294627	0.001041	20.747826
350.089262	-2.983300	3.769700	-11.245000	23.290661	0.001040	20.770880
351.089169	-3.012400	3.767500	-11.347000	23.308723	0.001042	20.733029
352.093291	-2.980000	3.769100	-11.231000	23.330934	0.001042	20.755291
353.090811	-3.006700	3.767300	-11.325000	23.325233	0.001041	20.740567
354.092213	-2.995200	3.767200	-11.283000	23.337992	0.001042	20.749562
355.092295	-2.992800	3.768300	-11.277000	23.327779	0.001042	20.753551
356.090522	-2.987900	3.767600	-11.257000	23.305192	0.001043	20.756044
357.092539	-3.003300	3.766600	-11.311000	23.316449	0.001045	20.736505
358.094266	-3.004800	3.765700	-11.314000	23.305397	0.001044	20.762413
359.094173	-3.017200	3.764100	-11.356000	23.302655	0.001045	20.752554
360.090806	-3.004600	3.766600	-11.315000	23.338733	0.001046	20.756943
361.097754	-2.995400	3.765500	-11.278000	23.357886	0.001046	20.757647
362.101728	-3.011800	3.763600	-11.334000	23.368996	0.001047	20.763567
363.096763	-3.002000	3.764400	-11.300000	23.358686	0.001046	20.759397
364.093819	-2.977700	3.765400	-11.211000	23.364485	0.001045	20.768529
365.101026	-3.003300	3.763600	-11.302000	23.357740	0.001047	20.739482
366.094608	-2.999600	3.763100	-11.286000	23.340660	0.001046	20.774048
367.096459	-2.994300	3.762400	-11.265000	23.357413	0.001047	20.759070
368.096293	-2.995000	3.761800	-11.266000	23.369484	0.001047	20.776858
369.092247	-2.995100	3.763000	-11.269000	23.361646	0.001049	20.772322
370.097892	-2.973900	3.762900	-11.189000	23.365894	0.001049	20.762829
371.096436	-3.003400	3.761200	-11.295000	23.347151	0.001050	20.773916
372.100727	-3.027100	3.760200	-11.382000	23.356252	0.001051	20.770234
373.098001	-2.995300	3.760200	-11.262000	23.376263	0.001048	20.762790
374.097658	-2.996200	3.761800	-11.270000	23.398561	0.001051	20.778501
375.097477	-2.988100	3.762400	-11.242000	23.410314	0.001052	20.786014
376.093648	-2.991200	3.760000	-11.245000	23.447188	0.001050	20.753746
377.099718	-2.984100	3.760700	-11.221000	23.456893	0.001052	20.768216
378.097727	-2.998300	3.759600	-11.271000	23.476614	0.001052	20.748628
379.096810	-3.053600	3.757700	-11.473000	23.487713	0.001052	20.765918
380.095431	-3.028000	3.757700	-11.377000	23.480520	0.001051	20.777674
381.096494	-2.989600	3.759200	-11.237000	23.499163	0.001053	20.776447
382.095174	-2.988300	3.758900	-11.232000	23.510711	0.001052	20.764789
383.102487	-3.004800	3.757700	-11.289000	23.538146	0.001054	20.766685
384.094248	-2.991700	3.757200	-11.240000	23.531304	0.001051	20.775475
385.094002	-2.991500	3.756900	-11.238000	23.568915	0.001054	20.776193
386.101314	-3.011400	3.755700	-11.307000	23.562450	0.001055	20.777298
387.097354	-3.007100	3.756400	-11.295000	23.580584	0.001055	20.775562
388.097030	-3.010600	3.756700	-11.309000	23.573245	0.001054	20.781008
389.095419	-3.002400	3.755500	-11.275000	23.603385	0.001053	20.792730
390.101581	-2.996700	3.757400	-11.258000	23.602439	0.001054	20.791782
391.094575	-2.992900	3.755200	-11.238000	23.601069	0.001054	20.775709
392.107254	-2.999700	3.756800	-11.268000	23.613137	0.001055	20.774057
393.100603	-3.001300	3.755100	-11.268000	23.617891	0.001056	20.781193
394.101107	-3.016100	3.754200	-11.322000	23.646318	0.001055	20.787881
395.097699	-3.010600	3.754500	-11.303000	23.659283	0.001056	20.788076
396.103262	-3.018200	3.752300	-11.324000	23.648244	0.001056	20.789812
397.100452	-3.010700	3.753900	-11.301000	23.655231	0.001055	20.779272
398.102019	-2.994200	3.753800	-11.239000	23.669468	0.001055	20.783115
399.103666	-2.987900	3.753500	-11.214000	23.663842	0.001057	20.802130
400.097655	-2.996100	3.752700	-11.242000	23.655319	0.001058	20.803542
401.100553	-2.992800	3.753400	-11.231000	23.686714	0.001058	20.794240
402.102606	-3.015700	3.751200	-11.311000	23.646757	0.001055	20.803019
403.100101	-3.014800	3.752400	-11.312000	23.657152	0.001057	20.784043
404.103091	-2.990700	3.751300	-11.217000	23.653851	0.001056	20.808709
405.107854	-2.988900	3.751100	-11.210000	23.615277	0.001057	20.787582
406.101817	-3.007700	3.750800	-11.280000	23.601863	0.001057	20.802584
407.099821	-2.997400	3.750800	-11.240000	23.607344	0.001057	20.782948
408.105530	-3.012300	3.749200	-11.291000	23.654616	0.001054	20.804735
409.104550	-2.983200	3.752000	-11.192000	23.642334	0.001058	20.818499
410.099904	-3.004300	3.750400	-11.266000	23.658463	0.001059	20.801479
411.101355	-3.009700	3.749200	-11.282000	23.656498	0.001059	20.789078
412.103189	-2.991300	3.750000	-11.217000	23.671038	0.001059	20.795120
413.101581	-3.014300	3.748500	-11.296000	23.673817	0.001061	20.781310
414.102520	-3.015700	3.748200	-11.303000	23.721886	0.001060	20.800105
415.103583	-3.020600	3.748000	-11.320000	23.710619	0.001060	20.794973
416.103536	-3.006600	3.749000	-11.271000	23.717825	0.001060	20.794611
417.105123	-3.007900	3.747200	-11.269000	23.726845	0.001060	20.810767
418.102470	-2.995600	3.746900	-11.224000	23.728347	0.001058	20.815117
419.108716	-2.975800	3.747200	-11.150000	23.752441	0.001060	20.807032
420.104830	-2.995900	3.746500	-11.224000	23.740726	0.001059	20.807140
421.108847	-2.988000	3.746300	-11.193000	23.712667	0.001061	20.794181
422.107636	-2.996400	3.746800	-11.226000	23.737610	0.001059	20.791214
423.107819	-2.979600	3.746400	-11.161000	23.743407	0.001058	20.785172
424.108861	-3.003900	3.745400	-11.250000	23.739478	0.001060	20.781707
425.113401	-2.993200	3.743800	-11.205000	23.728103	0.001061	20.782630
426.105680	-2.972900	3.746200	-11.136000	23.717796	0.001060	20.804539
427.109425	-2.992300	3.745400	-11.207000	23.702311	0.001061	20.776686
428.105726	-3.009300	3.743700	-11.263000	23.679269	0.001062	20.800052
429.105888	-2.992000	3.743500	-11.200000	23.686207	0.001061	20.778084
430.107640	-2.986700	3.744200	-11.182000	23.727133	0.001062	20.785451
431.107235	-2.982600	3.743400	-11.165000	23.732954	0.001062	20.805038
432.107296	-2.989600	3.742400	-11.187000	23.746693	0.001062	20.788467
433.109294	-2.971300	3.743600	-11.121000	23.760676	0.001062	20.778304
434.108818	-2.995500	3.742600	-11.210000	23.760642	0.001063	20.796762
435.105861	-2.991000	3.742300	-11.192000	23.793258	0.001063	20.782997
436.105679	-3.000700	3.741200	-11.225000	23.821417	0.001061	20.784204
437.107881	-2.999200	3.742000	-11.222000	23.823294	0.001063	20.780870
438.106009	-3.027500	3.740700	-11.323000	23.795734	0.001063	20.783109
439.109077	-3.004700	3.739800	-11.237000	23.806928	0.001062	20.764934
440.109946	-3.029500	3.740200	-11.330000	23.786496	0.001064	20.798976
441.113246	-3.016500	3.739500	-11.279000	23.799337	0.001062	20.772497
442.109232	-3.005200	3.739200	-11.236000	23.779743	0.001064	20.782723
443.115669	-2.995800	3.740000	-11.203000	23.783648	0.001064	20.775258
444.111166	-2.988300	3.739700	-11.174000	23.791590	0.001064	20.770893
445.115125	-3.010000	3.739100	-11.254000	23.797157	0.001065	20.766992
446.115131	-3.016700	3.738500	-11.276000	23.818087	0.001066	20.754312
447.114244	-3.001800	3.737700	-11.219000	23.823883	0.001064	20.777668
448.112687	-2.994000	3.738500	-11.190000	23.831279	0.001064	20.751418
449.113084	-3.016000	3.736700	-11.269000	23.820865	0.001064	20.777013
450.115482	-2.987600	3.738400	-11.168000	23.803076	0.001065	20.785255
451.109183	-3.001200	3.738100	-11.217000	23.818247	0.001063	20.784345
452.113493	-2.991000	3.737100	-11.177000	23.839103	0.001065	20.766850
453.113194	-2.989900	3.736000	-11.169000	23.841384	0.001065	20.772931
454.113856	-3.008300	3.735400	-11.237000	23.808936	0.001066	20.765525
455.113742	-3.012600	3.734700	-11.249000	23.838362	0.001065	20.782229
456.111704	-3.002300	3.734500	-11.211000	23.834398	0.001066	20.774461
457.111462	-3.004300	3.733700	-11.216000	23.869416	0.001065	20.765002
458.111507	-3.009700	3.733300	-11.235000	23.865837	0.001067	20.758569
459.113943	-3.004300	3.733600	-11.215000	23.848634	0.001066	20.762182
460.113021	-3.010900	3.733100	-11.240000	23.870288	0.001068	20.765877
461.124309	-2.996500	3.734400	-11.189000	23.855956	0.001066	20.767627
462.115202	-2.983900	3.735100	-11.144000	23.875261	0.001068	20.762328
463.119020	-3.002400	3.733000	-11.207000	23.836797	0.001067	20.737510
464.121557	-3.016600	3.732200	-11.258000	23.838679	0.001067	20.750303
465.117869	-3.019800	3.731600	-11.267000	23.831912	0.001066	20.755846
466.122124	-2.996400	3.732900	-11.184000	23.846679	0.001065	20.744574
467.119739	-3.007500	3.732100	-11.222000	23.821665	0.001067	20.738459
468.119457	-2.983300	3.732200	-11.133000	23.819871	0.001066	20.748514
469.126670	-3.001500	3.731700	-11.199000	23.827047	0.001066	20.743381
470.119885	-2.993100	3.731300	-11.167000	23.819676	0.001066	20.749267
471.117891	-3.018300	3.730200	-11.258000	23.822499	0.001067	20.740243
472.120434	-3.025700	3.729600	-11.283000	23.818823	0.001066	20.756473
473.118991	-3.004600	3.730200	-11.206000	23.814591	0.001068	20.734685
474.122386	-3.009600	3.729300	-11.223000	23.828110	0.001069	20.758198
475.120706	-2.998600	3.728900	-11.180000	23.819320	0.001068	20.737530
476.121762	-2.979500	3.730100	-11.112000	23.850443	0.001067	20.761151
477.121892	-2.979900	3.730300	-11.115000	23.858916	0.001068	20.741671
478.117543	-2.998400	3.727500	-11.176000	23.879517	0.001066	20.737672
479.127791	-3.006300	3.727400	-11.204000	23.896140	0.001068	20.755290
480.117679	-3.039800	3.726400	-11.327000	23.910190	0.001068	20.753731
481.122268	-2.987100	3.728400	-11.136000	23.929820	0.001067	20.735956
482.120156	-2.989300	3.728000	-11.143000	23.948344	0.001069	20.756429
483.123469	-2.981100	3.727700	-11.112000	23.940354	0.001067	20.722812
484.123973	-3.013700	3.726500	-11.229000	23.951000	0.001068	20.749136
485.122786	-3.002800	3.725800	-11.185000	23.995465	0.001067	20.747733
486.125451	-2.999100	3.727300	-11.177000	23.975573	0.001069	20.737741
487.121273	-3.018100	3.725300	-11.242000	23.962129	0.001069	20.727578
488.125243	-2.980400	3.726200	-11.104000	23.971317	0.001068	20.753863
489.125372	-2.979000	3.725000	-11.096000	23.968612	0.001066	20.725070
490.128046	-2.993200	3.724600	-11.148000	23.972770	0.001067	20.737775
491.124213	-2.986100	3.724600	-11.121000	23.978892	0.001066	20.737277
492.136936	-3.000400	3.723600	-11.172000	23.983704	0.001066	20.722186
493.134469	-3.001800	3.723500	-11.175000	23.979424	0.001068	20.731171
494.122952	-3.005500	3.723100	-11.189000	23.996508	0.001066	20.742615
495.129906	-3.010400	3.722400	-11.204000	24.025769	0.001066	20.734501
496.126825	-2.997000	3.722700	-11.156000	24.002133	0.001067	20.742092
497.123314	-3.011500	3.721000	-11.204000	24.017902	0.001068	20.727559
498.129001	-2.973200	3.722800	-11.067000	23.988212	0.001067	20.751840
499.125793	-2.992000	3.721500	-11.134000	23.998385	0.001066	20.739755
500.128640	-3.003700	3.721300	-11.177000	23.973579	0.001066	20.728155
501.129465	-2.988100	3.721700	-11.120000	24.020802	0.001066	20.751331
502.131225	-2.973300	3.721100	-11.062000	24.028791	0.001066	20.730418
503.129097	-2.991100	3.719800	-11.125000	24.020169	0.001065	20.734574
504.129891	-2.983900	3.720300	-11.101000	24.038476	0.001067	20.726855
505.126679	-2.992500	3.719900	-11.130000	24.032924	0.001068	20.726503
506.126299	-2.982800	3.720100	-11.095000	24.008275	0.001066	20.722646
507.131350	-3.004400	3.719700	-11.175000	24.043458	0.001067	20.723790
508.141802	-3.014900	3.718200	-11.209000	24.051495	0.001067	20.710987
509.137469	-3.000500	3.719700	-11.160000	24.061726	0.001067	20.712238
510.131996	-2.992900	3.718300	-11.127000	24.101039	0.001068	20.721321
511.146956	-3.005900	3.716600	-11.170000	24.095283	0.001070	20.724557
512.133253	-3.005800	3.716900	-11.171000	24.114569	0.001067	20.727779
513.133120	-2.980200	3.719100	-11.082000	24.110519	0.001070	20.718500
514.132422	-2.995300	3.716300	-11.130000	24.102311	0.001070	20.717855
515.134755	-3.006300	3.716300	-11.171000	24.080466	0.001069	20.719180
516.129377	-3.011800	3.714900	-11.188000	24.071352	0.001068	20.728057
517.132650	-3.010400	3.716100	-11.185000	24.113828	0.001069	20.726087
518.137170	-3.005000	3.715200	-11.163000	24.113804	0.001068	20.722270
519.140671	-2.997400	3.715400	-11.136000	24.100094	0.001070	20.713260
520.135072	-2.984400	3.715600	-11.088000	24.122143	0.001069	20.713089
521.134818	-2.993300	3.714100	-11.117000	24.126846	0.001069	20.715910
522.138555	-2.997700	3.713500	-11.129000	24.133743	0.001069	20.718559
523.140739	-3.007900	3.713400	-11.168000	24.162702	0.001070	20.712517
524.136962	-3.024300	3.712500	-11.226000	24.128435	0.001068	20.713710
525.140059	-3.008900	3.712600	-11.169000	24.117269	0.001070	20.719581
526.135988	-3.008600	3.713500	-11.172000	24.134713	0.001068	20.701987
527.138516	-2.993800	3.713500	-11.116000	24.152701	0.001069	20.708650
528.139494	-3.025200	3.711400	-11.227000	24.131004	0.001069	20.737150
529.139210	-2.989600	3.712500	-11.098000	24.116616	0.001066	20.724142
530.136208	-2.997300	3.712400	-11.126000	24.121646	0.001068	20.706900
531.142022	-3.011200	3.711200	-11.174000	24.141224	0.001068	20.699034
532.138494	-2.997700	3.711200	-11.124000	24.149260	0.001069	20.694292
533.138670	-2.987500	3.712000	-11.089000	24.167444	0.001066	20.709212
534.142958	-2.997100	3.711200	-11.122000	24.175987	0.001066	20.711618
535.141148	-3.017500	3.709900	-11.194000	24.172498	0.001068	20.715704
536.137643	-3.002900	3.710100	-11.139000	24.159286	0.001066	20.699606
537.151231	-2.999200	3.708900	-11.123000	24.179491	0.001066	20.713710
538.143700	-2.981000	3.711100	-11.062000	24.206125	0.001067	20.713397
539.144600	-3.006600	3.709100	-11.151000	24.208464	0.001065	20.706259
540.142877	-2.989300	3.709200	-11.087000	24.203980	0.001066	20.705555
541.143437	-2.995800	3.708200	-11.108000	24.242840	0.001066	20.685737
542.138278	-2.992400	3.708600	-11.097000	24.236052	0.001067	20.717811
543.146256	-3.008000	3.706300	-11.147000	24.229059	0.001067	20.734031
544.141918	-3.026200	3.706700	-11.217000	24.225043	0.001066	20.706768
545.147410	-3.007400	3.707000	-11.147000	24.239858	0.001067	20.702661
546.142249	-2.985500	3.708400	-11.070000	24.256476	0.001067	20.708899
547.141883	-2.989000	3.707700	-11.081000	24.245131	0.001067	20.709847
548.139617	-3.003700	3.706300	-11.132000	24.224342	0.001066	20.726928
549.141255	-2.999100	3.705600	-11.112000	24.206622	0.001068	20.708205
550.140533	-3.033100	3.703900	-11.233000	24.187698	0.001067	20.687326
551.139987	-3.011800	3.705600	-11.158000	24.186465	0.001069	20.716911
552.142908	-3.018900	3.703000	-11.177000	24.226730	0.001068	20.704666
553.143963	-2.997400	3.704400	-11.102000	24.225872	0.001066	20.715660
554.144078	-3.000500	3.702700	-11.109000	24.230331	0.001067	20.694527
555.143974	-2.996900	3.704000	-11.100000	24.234039	0.001068	20.708679
556.144475	-3.005300	3.704000	-11.130000	24.229907	0.001067	20.687937
557.142773	-3.002700	3.703400	-11.119000	24.230647	0.001066	20.688680
558.148505	-3.030000	3.701500	-11.214000	24.219907	0.001067	20.703512
559.148191	-3.003600	3.702000	-11.118000	24.247845	0.001064	20.704509
560.145184	-3.014400	3.702300	-11.159000	24.263893	0.001065	20.710649
561.147442	-3.003300	3.702300	-11.118000	24.277698	0.001067	20.697470
562.146341	-3.009300	3.701300	-11.138000	24.273868	0.001066	20.714492
563.150432	-3.002800	3.701500	-11.113000	24.302702	0.001065	20.704534
564.151178	-3.016200	3.698900	-11.154000	24.299286	0.001068	20.701107
565.148055	-2.978100	3.701500	-11.022000	24.351582	0.001065	20.700461
566.147551	-2.988900	3.700100	-11.058000	24.327622	0.001067	20.699660
567.146356	-2.976300	3.701100	-11.014000	24.340711	0.001066	20.717532
568.152171	-2.989400	3.700800	-11.063000	24.352746	0.001066	20.712062
569.152131	-3.011800	3.699900	-11.143000	24.340506	0.001064	20.688401
570.149137	-2.993600	3.699100	-11.071000	24.327793	0.001066	20.689398
571.146387	-2.985900	3.698400	-11.042000	24.329829	0.001066	20.702822
572.146408	-2.967200	3.698100	-10.970000	24.321068	0.001064	20.703991
573.154623	-3.004600	3.698300	-11.111000	24.350251	0.001064	20.701023
574.148300	-2.997500	3.697600	-11.082000	24.332895	0.001064	20.694043
575.148576	-3.002100	3.696900	-11.097000	24.361049	0.001064	20.691466
576.157231	-2.995800	3.697500	-11.076000	24.386378	0.001064	20.694590
577.150470	-2.987900	3.697200	-11.046000	24.374381	0.001065	20.687296
578.150910	-2.966400	3.698500	-10.970000	24.344253	0.001067	20.670347
579.155550	-2.987000	3.694900	-11.036000	24.332378	0.001065	20.703956
580.153783	-3.006400	3.695400	-11.108000	24.305543	0.001065	20.702167
581.153158	-3.005600	3.694500	-11.102000	24.328450	0.001063	20.701913
582.157897	-3.007700	3.694800	-11.111000	24.317915	0.001065	20.701776
583.156654	-2.980500	3.695700	-11.014000	24.353901	0.001065	20.709901
584.151302	-3.012200	3.693500	-11.124000	24.367218	0.001063	20.693862
585.153437	-2.998500	3.694900	-11.078000	24.382962	0.001063	20.669350
586.157497	-3.005300	3.693600	-11.100000	24.359899	0.001064	20.673715
587.153215	-2.999600	3.693000	-11.076000	24.349004	0.001064	20.714472
588.160131	-2.998900	3.692200	-11.070000	24.365293	0.001064	20.690982
589.154474	-2.997000	3.693400	-11.068000	24.379507	0.001063	20.698129
590.154581	-2.996400	3.692100	-11.062000	24.375716	0.001064	20.681522
591.155372	-2.994600	3.691600	-11.053000	24.384161	0.001064	20.676243
592.158702	-2.996300	3.692000	-11.059000	24.400133	0.001063	20.682310
593.152059	-2.995300	3.691900	-11.057000	24.413878	0.001063	20.685194
594.157791	-3.010500	3.691000	-11.111000	24.418034	0.001062	20.671819
595.158926	-2.998500	3.691800	-11.069000	24.403334	0.001064	20.694057
596.157127	-3.000200	3.689700	-11.068000	24.416568	0.001061	20.679357
597.156751	-3.021400	3.689000	-11.145000	24.443108	0.001063	20.705037
598.155509	-3.022400	3.689000	-11.149000	24.449530	0.001062	20.668802
599.159002	-2.988100	3.690900	-11.028000	24.448828	0.001061	20.669047
600.164970	-3.003100	3.689100	-11.078000	24.450173	0.001062	20.677035
601.160958	-2.991800	3.689100	-11.035000	24.445033	0.001061	20.662867
602.155590	-3.001700	3.688800	-11.071000	24.460473	0.001062	20.661762
603.159321	-3.012800	3.686800	-11.106000	24.472337	0.001063	20.648059
604.165495	-2.991100	3.688200	-11.030000	24.492318	0.001061	20.669531
605.160810	-3.018900	3.687500	-11.131000	24.518238	0.001061	20.681787
606.161086	-3.010100	3.687000	-11.097000	24.484103	0.001061	20.683102
607.164546	-2.999000	3.687200	-11.057000	24.478651	0.001062	20.671466
608.158937	-3.005700	3.686400	-11.079000	24.482247	0.001060	20.639983
609.162236	-2.981700	3.686400	-10.989000	24.488391	0.001060	20.674600
610.160990	-2.990600	3.686200	-11.022000	24.456385	0.001059	20.680897
611.158292	-2.992200	3.686500	-11.029000	24.474130	0.001060	20.670723
612.161656	-3.009500	3.684800	-11.089000	24.470578	0.001060	20.658150
613.163445	-2.991600	3.684800	-11.023000	24.488766	0.001059	20.671657
614.166118	-3.012200	3.684300	-11.097000	24.457477	0.001058	20.655911
615.161977	-2.988000	3.684700	-11.009000	24.466856	0.001058	20.677651
616.163983	-2.995200	3.684500	-11.034000	24.443615	0.001056	20.650538
617.164778	-2.994400	3.684200	-11.030000	24.413718	0.001059	20.683610
618.171329	-3.002000	3.683700	-11.058000	24.392035	0.001059	20.671814
619.166178	-2.974500	3.683300	-10.955000	24.425689	0.001057	20.668118
620.166602	-2.995900	3.682400	-11.030000	24.438402	0.001058	20.659059
621.168419	-3.019300	3.680500	-11.110000	24.445296	0.001055	20.673090
622.168449	-3.006200	3.683600	-11.072000	24.458822	0.001057	20.679548
623.168925	-3.017100	3.682100	-11.107000	24.448580	0.001056	20.670695
624.166682	-2.997100	3.682400	-11.035000	24.458832	0.001056	20.647312
625.166050	-2.995000	3.682200	-11.028000	24.472513	0.001056	20.648710
626.168038	-3.013300	3.681200	-11.092000	24.526837	0.001057	20.660541
627.166335	-2.999400	3.679700	-11.035000	24.543416	0.001058	20.663899
628.167668	-2.994300	3.680100	-11.018000	24.543621	0.001056	20.676434
629.167136	-2.974700	3.679600	-10.944000	24.534788	0.001055	20.666148
630.171555	-2.986400	3.679700	-10.987000	24.517385	0.001055	20.672396
631.172851	-3.004100	3.679400	-11.052000	24.508625	0.001056	20.677358
632.168773	-3.004300	3.678600	-11.050000	24.469886	0.001056	20.683537
633.173234	-3.022900	3.677800	-11.117000	24.441164	0.001056	20.656141
634.170986	-3.007800	3.678100	-11.062000	24.448410	0.001053	20.674791
635.170077	-3.002200	3.678500	-11.042000	24.448351	0.001056	20.645332
636.175344	-3.015100	3.675700	-11.081000	24.445467	0.001054	20.654767
637.172573	-2.989600	3.677700	-10.994000	24.446982	0.001053	20.647752
638.176390	-2.988400	3.678300	-10.990000	24.422211	0.001056	20.684070
639.172851	-2.990900	3.676200	-10.994000	24.455319	0.001054	20.672239
640.173964	-3.042600	3.676000	-11.183000	24.480986	0.001053	20.673809
641.174775	-3.000200	3.675600	-11.027000	24.469872	0.001053	20.671193
642.173591	-2.980100	3.676000	-10.953000	24.486935	0.001052	20.666500
643.172979	-3.007000	3.675200	-11.050000	24.481034	0.001054	20.662476
644.173685	-2.977500	3.675800	-10.944000	24.444341	0.001053	20.658380
645.172621	-2.992500	3.676300	-11.000000	24.501210	0.001053	20.671814
646.171731	-2.995600	3.675200	-11.007000	24.515100	0.001055	20.668206
647.175172	-3.004400	3.674100	-11.037000	24.547489	0.001051	20.675573
648.174332	-2.989700	3.675100	-10.986000	24.530340	0.001053	20.639397
649.173193	-2.985900	3.674700	-10.971000	24.520576	0.001052	20.673227
650.175537	-2.994400	3.674700	-11.003000	24.483943	0.001052	20.671085
651.185624	-2.985700	3.673700	-10.968000	24.493965	0.001052	20.665019
652.173975	-3.030500	3.671800	-11.126000	24.506481	0.001051	20.680897
653.173000	-3.001100	3.672700	-11.021000	24.529809	0.001051	20.672533
654.174605	-3.005400	3.672500	-11.037000	24.539913	0.001051	20.668446
655.176171	-3.013800	3.670600	-11.061000	24.515875	0.001051	20.663767
656.177139	-3.019300	3.668900	-11.075000	24.536873	0.001051	20.651643
657.175952	-2.999500	3.670600	-11.008000	24.558816	0.001052	20.671291
658.181015	-3.015000	3.668900	-11.060000	24.575356	0.001052	20.673188
659.181606	-3.010500	3.669800	-11.047000	24.577198	0.001051	20.653696
660.174697	-2.994100	3.669300	-10.984000	24.574557	0.001049	20.683767
661.182454	-3.005100	3.671000	-11.031000	24.582868	0.001051	20.663181
662.180748	-3.002800	3.670300	-11.020000	24.578411	0.001052	20.689056
663.182399	-3.020300	3.669000	-11.081000	24.526198	0.001051	20.658003
664.180229	-3.004500	3.668400	-11.021000	24.504557	0.001051	20.683708
665.180597	-2.974000	3.670400	-10.915000	24.489507	0.001050	20.662916
666.178118	-2.978200	3.669600	-10.927000	24.475183	0.001049	20.662770
667.181829	-2.977400	3.669300	-10.924000	24.458071	0.001049	20.668362
668.179744	-2.983300	3.668600	-10.943000	24.468264	0.001049	20.667209
669.179826	-3.001200	3.666900	-11.004000	24.531704	0.001049	20.669692
670.183195	-2.993300	3.667600	-10.976000	24.543552	0.001049	20.641274
671.180701	-2.983900	3.666600	-10.940000	24.541930	0.001047	20.674263
672.181831	-2.992600	3.667400	-10.974000	24.570562	0.001048	20.660315
673.178086	-2.985700	3.666200	-10.945000	24.571400	0.001046	20.679176
674.185453	-2.991600	3.666400	-10.967000	24.562601	0.001048	20.666553
675.184270	-3.015500	3.664600	-11.048000	24.597912	0.001047	20.680173
676.185624	-2.990700	3.666600	-10.965000	24.597439	0.001046	20.673060
677.183765	-2.989700	3.665000	-10.956000	24.596411	0.001045	20.678193
678.181184	-2.995800	3.665200	-10.979000	24.563683	0.001048	20.681865
679.183669	-3.012600	3.663600	-11.036000	24.564287	0.001047	20.682945
680.184843	-3.026200	3.662900	-11.084000	24.578512	0.001046	20.677778
681.185362	-2.999500	3.665400	-10.992000	24.575083	0.001047	20.670542
682.183473	-2.996500	3.663600	-10.977000	24.579009	0.001043	20.653618
683.184483	-3.004500	3.662500	-11.002000	24.547737	0.001044	20.668235
684.186364	-3.002700	3.663200	-10.998000	24.552692	0.001044	20.703081
685.184707	-2.982600	3.663800	-10.926000	24.557793	0.001043	20.679748
686.184690	-3.004200	3.662200	-11.000000	24.565729	0.001043	20.673960
687.183547	-3.008600	3.662400	-11.018000	24.579711	0.001043	20.667125
688.188650	-3.014600	3.660800	-11.035000	24.623936	0.001043	20.682104
689.188447	-2.994400	3.661300	-10.961000	24.621490	0.001044	20.677753
690.188336	-2.963300	3.662900	-10.853000	24.619381	0.001044	20.671843
691.183008	-3.014300	3.661700	-11.036000	24.631219	0.001044	20.670919
692.199472	-2.992200	3.661700	-10.955000	24.630844	0.001043	20.686665
693.190958	-3.014200	3.660100	-11.031000	24.654359	0.001043	20.666637
694.188637	-3.002800	3.661100	-10.992000	24.630639	0.001043	20.673656
695.188664	-3.012800	3.659500	-11.024000	24.634488	0.001043	20.671828
696.185002	-2.992800	3.660900	-10.955000	24.666732	0.001043	20.683796
697.192649	-2.999900	3.659700	-10.976000	24.696257	0.001041	20.664109
698.184811	-3.003000	3.659100	-10.987000	24.694947	0.001042	20.676072
699.184558	-3.018900	3.658200	-11.042000	24.701503	0.001042	20.678384
700.190955	-3.010800	3.658200	-11.011000	24.702312	0.001040	20.673505
701.192648	-2.999300	3.658200	-10.970000	24.696715	0.001040	20.674527
702.188884	-3.001300	3.657800	-10.977000	24.689228	0.001039	20.694991
703.189229	-2.972100	3.658400	-10.871000	24.718002	0.001039	20.688303
704.189927	-3.003800	3.657200	-10.985000	24.734393	0.001042	20.677250
705.187666	-2.985200	3.657100	-10.916000	24.765119	0.001040	20.676316
706.193920	-3.021200	3.655800	-11.044000	24.769659	0.001039	20.696047
707.187683	-3.010500	3.656400	-11.006000	24.749839	0.001041	20.679949
708.193363	-3.007100	3.656400	-10.994000	24.779557	0.001038	20.685116
709.191431	-3.003900	3.655400	-10.979000	24.754360	0.001040	20.696340
710.192461	-3.002000	3.656400	-10.975000	24.773610	0.001038	20.660653
711.191746	-2.988500	3.656900	-10.927000	24.798651	0.001038	20.692425
712.191224	-3.011300	3.654500	-11.003000	24.793478	0.001039	20.698613
713.191280	-2.994200	3.653700	-10.938000	24.812922	0.001038	20.685409
714.188350	-3.001700	3.655200	-10.971000	24.802090	0.001039	20.672640
715.191886	-2.986800	3.653400	-10.910000	24.764282	0.001036	20.695392
716.192419	-2.988100	3.654100	-10.918000	24.750263	0.001037	20.693652
717.201258	-3.024200	3.653500	-11.047000	24.746508	0.001037	20.704583
718.193376	-3.002500	3.652300	-10.965000	24.706248	0.001035	20.705433
719.195819	-3.012800	3.653300	-11.005000	24.717116	0.001035	20.703536
720.195189	-3.003200	3.652100	-10.967000	24.674336	0.001034	20.706601
721.194231	-3.002600	3.653000	-10.967000	24.673776	0.001034	20.699401
722.195263	-2.986900	3.651100	-10.904000	24.661335	0.001034	20.694502
723.197380	-2.979800	3.652700	-10.883000	24.656634	0.001036	20.696423
724.192681	-2.982100	3.651700	-10.889000	24.659625	0.001034	20.679509
725.210518	-3.013800	3.651200	-11.003000	24.675608	0.001035	20.694126
726.196509	-3.019100	3.649100	-11.015000	24.693247	0.001035	20.689066
727.197472	-3.003700	3.650700	-10.964000	24.706453	0.001035	20.693784
728.199335	-2.992700	3.650900	-10.925000	24.691430	0.001035	20.690088
729.199020	-3.013700	3.648100	-10.993000	24.679120	0.001034	20.667302
730.198662	-3.024600	3.648300	-11.033000	24.719741	0.001032	20.690049
731.196598	-3.001400	3.649000	-10.951000	24.742640	0.001035	20.680785
732.198655	-2.992000	3.649700	-10.919000	24.755870	0.001034	20.687898
733.196730	-2.999100	3.649300	-10.943000	24.810872	0.001033	20.692361
734.197005	-2.999800	3.648200	-10.942000	24.835391	0.001032	20.709857
735.198512	-3.014700	3.647600	-10.995000	24.837232	0.001032	20.716921
736.199706	-3.005000	3.648200	-10.962000	24.869976	0.001032	20.705213
737.198426	-3.006700	3.648100	-10.968000	24.853212	0.001031	20.681748
738.199350	-3.001100	3.648300	-10.947000	24.862432	0.001030	20.700486
739.198950	-2.994400	3.647600	-10.920000	24.832473	0.001030	20.701713
740.199845	-3.042700	3.646300	-11.093000	24.823993	0.001030	20.710747
741.202182	-2.979500	3.647500	-10.867000	24.826380	0.001029	20.716462
742.204425	-2.984700	3.647200	-10.884000	24.836374	0.001029	20.687609
743.198320	-2.998200	3.646300	-10.931000	24.874764	0.001031	20.679670
744.203619	-3.001500	3.646300	-10.943000	24.875090	0.001030	20.716511
745.198775	-3.013900	3.644700	-10.983000	24.885181	0.001029	20.688230
746.199839	-3.005800	3.644300	-10.954000	24.860591	0.001027	20.714286
747.200334	-3.041200	3.643300	-11.077000	24.888415	0.001030	20.709021
748.205174	-3.019600	3.643600	-11.000000	24.919717	0.001028	20.689227
749.203026	-3.017800	3.644000	-10.995000	24.906475	0.001030	20.696326
750.213406	-3.005000	3.644400	-10.949000	24.905617	0.001029	20.735771
751.208684	-2.999300	3.644000	-10.928000	24.942694	0.001028	20.692376
752.213919	-3.001800	3.642500	-10.932000	24.955255	0.001028	20.714467
753.213163	-2.989600	3.643100	-10.889000	24.966533	0.001027	20.699234
754.206745	-2.994800	3.643600	-10.910000	24.984241	0.001026	20.717483
755.205709	-3.005000	3.641400	-10.941000	24.999683	0.001026	20.714017
756.209689	-3.025200	3.640400	-11.012000	24.988079	0.001027	20.705213
757.202312	-2.988100	3.642000	-10.880000	24.999284	0.001025	20.704133
758.208354	-3.009800	3.640300	-10.955000	25.022309	0.001026	20.716814
759.204683	-3.005800	3.641200	-10.944000	25.020478	0.001026	20.708811
760.200411	-2.973200	3.641900	-10.827000	24.973785	0.001024	20.706039
761.205256	-3.004400	3.641600	-10.939000	25.002722	0.001026	20.700471
762.212575	-3.007900	3.640700	-10.951000	25.006491	0.001025	20.718481
763.201408	-3.010500	3.640800	-10.959000	24.996484	0.001026	20.718393
764.208421	-2.998200	3.640100	-10.913000	25.022173	0.001025	20.725212
765.221454	-2.999300	3.638200	-10.911000	25.017595	0.001024	20.727256
766.216736	-2.985000	3.638600	-10.860000	25.010592	0.001024	20.727339
767.209795	-2.997400	3.638000	-10.904000	25.029682	0.001023	20.718999
768.208129	-3.009000	3.638700	-10.948000	25.025041	0.001022	20.710547
769.214198	-2.999200	3.638600	-10.912000	25.024398	0.001022	20.727921
770.208904	-3.005600	3.637500	-10.932000	25.013631	0.001024	20.738925
771.207493	-2.994300	3.637300	-10.890000	24.983857	0.001022	20.718520
772.202136	-2.993100	3.638600	-10.889000	24.975028	0.001023	20.710132
773.208538	-2.987400	3.638000	-10.867000	24.975101	0.001021	20.726327
774.218565	-3.006700	3.637300	-10.934000	24.959220	0.001022	20.728405
775.214718	-3.007200	3.635900	-10.933000	24.983565	0.001020	20.724392
776.214912	-3.017100	3.635800	-10.969000	24.978612	0.001020	20.711359
777.208877	-3.001000	3.635400	-10.908000	25.011314	0.001018	20.726166
778.207227	-3.009600	3.634700	-10.938000	25.041993	0.001018	20.729935
779.217833	-3.003800	3.634700	-10.917000	25.039544	0.001018	20.713251
780.211664	-2.995500	3.634800	-10.887000	25.065621	0.001018	20.714771
781.208307	-3.007600	3.635000	-10.931000	25.068260	0.001018	20.716473
782.208129	-3.007100	3.633200	-10.924000	25.053291	0.001019	20.720887
783.215961	-3.029100	3.633900	-11.007000	25.019729	0.001017	20.716121
784.212705	-3.022300	3.633200	-10.979000	25.006624	0.001015	20.729520
785.222407	-2.993400	3.633700	-10.875000	25.027745	0.001016	20.744557
786.214914	-3.002900	3.633200	-10.909000	25.059539	0.001016	20.723366
787.207792	-3.016400	3.631700	-10.954000	25.072765	0.001016	20.726211
788.216101	-2.988100	3.632800	-10.854000	25.103890	0.001017	20.715730
789.210430	-2.976400	3.631900	-10.807000	25.081617	0.001017	20.733675
790.215207	-2.985000	3.633000	-10.843000	25.095184	0.001016	20.726431
791.222103	-2.997700	3.631900	-10.886000	25.063196	0.001016	20.724666
792.213339	-3.007400	3.630900	-10.919000	25.097434	0.001015	20.725370
793.216093	-2.988300	3.630800	-10.848000	25.098320	0.001016	20.738114
794.217727	-3.013400	3.629400	-10.934000	25.125096	0.001015	20.732751
795.216457	-3.003100	3.631800	-10.905000	25.102171	0.001014	20.750516
796.216282	-3.024200	3.629800	-10.976000	25.088084	0.001013	20.741590
797.220223	-2.981700	3.629800	-10.822000	25.061404	0.001014	20.729506
798.217739	-2.976400	3.630800	-10.805000	25.093392	0.001013	20.721312
799.217281	-2.974300	3.630200	-10.796000	25.087699	0.001013	20.742152
800.217408	-3.019100	3.628700	-10.954000	25.109583	0.001012	20.730928
801.218545	-2.978200	3.629200	-10.807000	25.129216	0.001014	20.730723
802.218984	-3.014100	3.627900	-10.933000	25.131456	0.001012	20.746248
803.218439	-3.007800	3.627900	-10.911000	25.162097	0.001014	20.730542
804.217323	-2.993900	3.628200	-10.862000	25.150373	0.001012	20.746273
805.215974	-2.990900	3.627100	-10.847000	25.145299	0.001013	20.734066
806.218278	-3.017600	3.626300	-10.942000	25.173589	0.001011	20.746346
807.216252	-2.995800	3.627500	-10.866000	25.183147	0.001011	20.743139
808.215858	-2.977000	3.626300	-10.794000	25.175409	0.001010	20.741061
809.219976	-3.010400	3.624200	-10.909000	25.178691	0.001008	20.728708
810.218859	-3.014100	3.624900	-10.925000	25.153659	0.001009	20.750046
811.220695	-3.020800	3.625500	-10.950000	25.147436	0.001011	20.757550
812.221983	-3.011100	3.625100	-10.915000	25.141393	0.001010	20.747690
813.225682	-2.998700	3.625000	-10.869000	25.143453	0.001010	20.739800
814.221294	-3.015500	3.623900	-10.927000	25.174771	0.001008	20.761284
815.222983	-3.006700	3.623400	-10.894000	25.156268	0.001008	20.757407
816.223315	-3.019300	3.622500	-10.936000	25.144232	0.001005	20.750065
817.221604	-2.985600	3.624300	-10.818000	25.139362	0.001009	20.756557
818.223160	-3.019100	3.620900	-10.930000	25.151209	0.001007	20.743319
819.222763	-2.988600	3.623700	-10.829000	25.123099	0.001006	20.758722
820.224562	-2.991100	3.623000	-10.836000	25.098990	0.001006	20.748745
821.222462	-2.990400	3.622700	-10.832000	25.112191	0.001007	20.761523
822.223346	-2.993900	3.622200	-10.843000	25.129258	0.001007	20.750680
823.222587	-3.002400	3.620500	-10.868000	25.157232	0.001005	20.742253
824.224845	-2.970600	3.622300	-10.759000	25.135096	0.001006	20.771715
825.221427	-2.979000	3.621900	-10.789000	25.137954	0.001005	20.746134
826.221419	-2.994500	3.620600	-10.841000	25.169502	0.001005	20.756942
827.225491	-3.004000	3.621500	-10.879000	25.160567	0.001004	20.760300
828.224111	-3.006000	3.621200	-10.884000	25.164501	0.001005	20.769940
829.227296	-3.013200	3.620800	-10.909000	25.174298	0.001003	20.773611
830.230389	-2.994400	3.620200	-10.839000	25.178115	0.001004	20.782185
831.226629	-2.993300	3.619400	-10.833000	25.142122	0.001003	20.746525
832.229927	-2.993700	3.618900	-10.832000	25.159091	0.001001	20.755500
833.227188	-2.990300	3.619500	-10.822000	25.137681	0.001002	20.779526
834.225012	-3.006900	3.618600	-10.879000	25.170548	0.001001	20.764157
835.225746	-3.032300	3.617600	-10.969000	25.130523	0.001001	20.781823
836.230927	-2.990100	3.618800	-10.820000	25.138723	0.001001	20.768244
837.229711	-2.999400	3.616800	-10.846000	25.167267	0.001003	20.788838
838.226938	-2.980900	3.617200	-10.781000	25.173299	0.001002	20.766919
839.225034	-3.007100	3.615700	-10.872000	25.161540	0.001001	20.781667
840.233139	-2.980300	3.618300	-10.782000	25.155887	0.000999	20.767931
841.229055	-2.984100	3.617200	-10.793000	25.127933	0.001002	20.775904
842.225983	-2.980700	3.615800	-10.776000	25.138314	0.000999	20.780161
843.231839	-3.016300	3.615900	-10.906000	25.151490	0.000996	20.769206
844.233040	-2.994900	3.615700	-10.828000	25.123248	0.000998	20.775468
845.238262	-3.012200	3.614500	-10.886000	25.113802	0.000997	20.784951
846.230891	-2.996200	3.614700	-10.828000	25.102237	0.000999	20.792308
847.229861	-3.013000	3.614500	-10.889000	25.127110	0.000997	20.784086
848.234403	-3.003200	3.614800	-10.855000	25.181864	0.000998	20.785949
849.231632	-2.995600	3.613700	-10.822000	25.214622	0.000996	20.776636
850.236561	-3.006000	3.613100	-10.860000	25.226318	0.000994	20.772257
851.230271	-2.977900	3.614400	-10.761000	25.220105	0.000996	20.776451
852.229327	-2.991500	3.613500	-10.809000	25.214053	0.000995	20.791712
853.231819	-3.012500	3.612000	-10.879000	25.199436	0.000995	20.799797
854.229502	-2.994500	3.612900	-10.818000	25.221171	0.000994	20.802652
855.231923	-3.004400	3.612800	-10.853000	25.258213	0.000995	20.807599
856.230551	-3.023900	3.610200	-10.914000	25.258189	0.000994	20.789082
857.231012	-3.018000	3.611300	-10.897000	25.289056	0.000995	20.782615
858.230655	-2.997000	3.611800	-10.823000	25.319606	0.000994	20.792426
859.234706	-3.007900	3.610200	-10.858000	25.340988	0.000993	20.792084
860.234750	-3.012700	3.610300	-10.876000	25.326324	0.000991	20.791111
861.232967	-3.009800	3.610000	-10.864000	25.271797	0.000990	20.795158
862.234027	-2.999600	3.611300	-10.831000	25.275575	0.000991	20.816021
863.238550	-3.014700	3.608300	-10.875000	25.271033	0.000990	20.806245
864.241929	-2.977100	3.609900	-10.746000	25.298112	0.000989	20.804509
865.234691	-3.016500	3.608600	-10.885000	25.322581	0.000990	20.808689
866.240297	-2.995700	3.609600	-10.813000	25.363412	0.000988	20.795633
867.235446	-3.015200	3.607200	-10.873000	25.352609	0.000988	20.810390
868.235630	-3.001600	3.608500	-10.830000	25.385022	0.000987	20.808323
869.238770	-2.981800	3.607400	-10.756000	25.405619	0.000989	20.792020
870.236718	-3.006000	3.608100	-10.846000	25.413247	0.000990	20.819120
871.236095	-2.988300	3.607500	-10.779000	25.426454	0.000986	20.776906
872.236897	-3.000300	3.606100	-10.819000	25.397542	0.000986	20.785333
873.241777	-2.980200	3.607100	-10.748000	25.426347	0.000986	20.808093
874.240063	-3.015200	3.606600	-10.874000	25.386185	0.000984	20.800008
875.238440	-2.992700	3.604500	-10.785000	25.351494	0.000987	20.798365
876.242145	-3.008000	3.605500	-10.843000	25.323691	0.000985	20.810278
877.239216	-2.972900	3.605900	-10.718000	25.296023	0.000984	20.800042
878.239812	-3.005900	3.605100	-10.836000	25.300819	0.000986	20.802960
879.244171	-3.004200	3.605000	-10.829000	25.320848	0.000984	20.803630
880.243134	-2.991500	3.604700	-10.782000	25.339085	0.000983	20.811984
881.242445	-3.013100	3.604400	-10.859000	25.349873	0.000983	20.795789
882.242236	-3.004500	3.604700	-10.828000	25.360890	0.000982	20.791678
883.245274	-2.967700	3.604900	-10.697000	25.389247	0.000981	20.799289
884.245883	-2.992500	3.604600	-10.786000	25.401792	0.000980	20.803351
885.244702	-2.979200	3.603800	-10.736000	25.401608	0.000982	20.819761
886.248999	-3.015000	3.602600	-10.861000	25.411840	0.000982	20.803483
887.251810	-2.999400	3.602600	-10.804000	25.439286	0.000981	20.811128
888.246484	-2.997200	3.603600	-10.799000	25.464492	0.000981	20.780964
889.249827	-3.018200	3.600800	-10.866000	25.502825	0.000980	20.807130
890.249708	-3.002800	3.602800	-10.818000	25.492715	0.000980	20.816892
891.248026	-2.989200	3.602100	-10.766000	25.512570	0.000979	20.802217
892.248507	-3.019000	3.600200	-10.868000	25.541356	0.000979	20.793194
893.248933	-2.985000	3.601700	-10.750000	25.533705	0.000980	20.800683
894.248821	-3.014600	3.600900	-10.854000	25.504709	0.000980	20.792427
895.248054	-3.025400	3.599600	-10.888000	25.499296	0.000980	20.807854
896.249054	-2.984500	3.601100	-10.746000	25.533656	0.000977	20.800634
897.247243	-3.005800	3.600700	-10.821000	25.540519	0.000977	20.797095
898.248362	-2.994000	3.599500	-10.776000	25.534357	0.000974	20.781423
899.249529	-3.002900	3.599700	-10.808000	25.529271	0.000978	20.784376
900.252429	-3.015700	3.597400	-10.847000	25.506135	0.000974	20.807135
901.251995	-2.988100	3.597700	-10.750000	25.490627	0.000976	20.774966
902.252171	-3.011500	3.597800	-10.833000	25.512828	0.000973	20.799158
903.252892	-2.999900	3.597300	-10.790000	25.485321	0.000975	20.765371
904.254569	-2.985500	3.599100	-10.743000	25.474184	0.000974	20.798757
905.254770	-3.008500	3.597300	-10.822000	25.494064	0.000974	20.789797
906.260314	-2.993800	3.597500	-10.768000	25.457814	0.000972	20.766671
907.252321	-2.991000	3.596500	-10.756000	25.472826	0.000974	20.766099
908.252747	-3.007000	3.595200	-10.810000	25.463309	0.000971	20.766974
909.256252	-2.980300	3.597000	-10.719000	25.445075	0.000972	20.770000
910.253867	-3.000500	3.596900	-10.791000	25.476092	0.000971	20.781708
911.252702	-3.005600	3.595700	-10.805000	25.453014	0.000973	20.756161
912.255682	-3.004100	3.594400	-10.797000	25.465982	0.000971	20.769658
913.255227	-3.011400	3.593700	-10.820000	25.447835	0.000971	20.770875
914.252711	-2.992300	3.595200	-10.757000	25.471683	0.000969	20.759261
915.262143	-3.001100	3.593900	-10.784000	25.455302	0.000969	20.785486
916.259507	-2.982400	3.592700	-10.714000	25.451403	0.000967	20.771139
917.258783	-2.995300	3.594000	-10.763000	25.436668	0.000968	20.760610
918.257030	-2.994200	3.593200	-10.758000	25.410756	0.000967	20.778213
919.262539	-3.013200	3.591300	-10.820000	25.372337	0.000968	20.784206
920.258593	-3.001100	3.590600	-10.773000	25.362737	0.000966	20.764609
921.257062	-2.981300	3.593000	-10.710000	25.356355	0.000965	20.758200
922.256613	-3.008300	3.592200	-10.805000	25.371597	0.000965	20.784411
923.257044	-2.998600	3.591400	-10.769000	25.327028	0.000966	20.774747
924.260730	-3.021000	3.589800	-10.844000	25.330572	0.000963	20.752701
925.261362	-3.008000	3.590200	-10.798000	25.328781	0.000965	20.753747
926.258458	-3.017600	3.590000	-10.831000	25.327714	0.000965	20.758841
927.265118	-3.019900	3.588800	-10.837000	25.363531	0.000966	20.739327
928.260567	-2.992500	3.590400	-10.743000	25.378773	0.000964	20.765538
929.259177	-3.014200	3.589700	-10.819000	25.393315	0.000964	20.758328
930.260136	-3.006100	3.590300	-10.792000	25.387127	0.000962	20.750692
931.265164	-2.992700	3.589500	-10.741000	25.402686	0.000962	20.774376
932.263103	-2.984000	3.588400	-10.707000	25.438840	0.000963	20.755678
933.259283	-2.978500	3.587800	-10.685000	25.445850	0.000962	20.756079
934.264996	-3.004300	3.587800	-10.777000	25.469809	0.000961	20.745051
935.265088	-3.009800	3.588300	-10.799000	25.442326	0.000960	20.758230
936.259817	-2.976500	3.587900	-10.678000	25.421549	0.000960	20.742583
937.263572	-2.995000	3.587800	-10.744000	25.434284	0.000961	20.760113
938.260810	-2.977700	3.588700	-10.685000	25.459587	0.000961	20.749011
939.260786	-3.005000	3.586000	-10.774000	25.456623	0.000960	20.747457
940.260795	-2.982800	3.587300	-10.699000	25.412806	0.000959	20.751822
941.263107	-3.000800	3.584700	-10.755000	25.404487	0.000959	20.744890
942.262674	-2.996400	3.585000	-10.741000	25.399887	0.000959	20.756867
943.262431	-2.999100	3.585300	-10.751000	25.415031	0.000958	20.734141
944.262250	-2.985900	3.584800	-10.702000	25.417465	0.000958	20.754129
945.263402	-2.993500	3.584800	-10.729000	25.397039	0.000956	20.746420
946.263259	-3.002800	3.584700	-10.763000	25.390633	0.000955	20.756584
947.269910	-3.016400	3.583400	-10.807000	25.362349	0.000955	20.746201
948.262855	-3.006600	3.583000	-10.771000	25.325914	0.000955	20.746127
949.263186	-3.007900	3.582600	-10.775000	25.368512	0.000955	20.740061
950.266349	-2.997700	3.582700	-10.738000	25.389372	0.000953	20.741567
951.264577	-2.966600	3.583800	-10.631000	25.423006	0.000952	20.735984
952.265598	-3.010600	3.581700	-10.781000	25.459666	0.000953	20.740081
953.266474	-2.984500	3.582300	-10.690000	25.497877	0.000953	20.748107
954.265397	-2.963400	3.582500	-10.615000	25.490333	0.000950	20.736737
955.266286	-2.979300	3.582900	-10.673000	25.518988	0.000952	20.735642
956.272551	-2.994800	3.580000	-10.721000	25.535368	0.000951	20.733599
957.267830	-2.999200	3.580900	-10.739000	25.547546	0.000949	20.739191
958.266501	-3.001900	3.579400	-10.744000	25.555100	0.000949	20.729708
959.268121	-3.001100	3.579100	-10.739000	25.559009	0.000947	20.737427
960.268205	-3.005400	3.580200	-10.759000	25.607044	0.000947	20.744892
961.269241	-2.996400	3.579600	-10.725000	25.626956	0.000948	20.735017
962.270142	-2.993100	3.578400	-10.709000	25.624682	0.000947	20.739372
963.274918	-3.010900	3.577200	-10.770000	25.649811	0.000947	20.729997
964.272440	-3.011200	3.577800	-10.772000	25.677761	0.000946	20.716343
965.271952	-3.010500	3.577800	-10.769000	25.683145	0.000946	20.748778
966.272205	-2.987800	3.577100	-10.687000	25.667872	0.000943	20.723954
967.278408	-2.983700	3.576600	-10.670000	25.604100	0.000945	20.743831
968.271546	-3.008100	3.576600	-10.757000	25.565819	0.000944	20.742844
969.275054	-2.983200	3.577600	-10.671000	25.518196	0.000944	20.738165
970.285147	-2.992500	3.576800	-10.702000	25.507551	0.000942	20.733165
971.275235	-2.997800	3.575900	-10.719000	25.506100	0.000944	20.727440
972.279449	-3.011500	3.573800	-10.762000	25.515032	0.000944	20.727401
973.281746	-2.997700	3.576200	-10.719000	25.516512	0.000943	20.737422
974.274090	-2.997400	3.576100	-10.718000	25.518337	0.000941	20.733092
975.279360	-2.987600	3.574700	-10.678000	25.530978	0.000941	20.732036
976.277612	-3.016700	3.572700	-10.776000	25.549027	0.000939	20.740204
977.276025	-2.976300	3.574700	-10.638000	25.562694	0.000940	20.723584
978.278442	-2.993500	3.574300	-10.698000	25.600041	0.000941	20.729797
979.284899	-3.009400	3.572600	-10.751000	25.604762	0.000937	20.730745
980.276658	-2.983900	3.573100	-10.660000	25.619953	0.000937	20.721345
981.281087	-3.005800	3.571200	-10.733000	25.630266	0.000937	20.741661
982.278516	-3.009300	3.573100	-10.751000	25.600669	0.000937	20.728531
983.278506	-3.008000	3.570200	-10.738000	25.578202	0.000936	20.736787
984.279351	-3.007800	3.573000	-10.747000	25.544048	0.000936	20.732359
985.276731	-3.003900	3.571400	-10.727000	25.551870	0.000935	20.711289
986.277715	-2.982200	3.570500	-10.647000	25.578514	0.000935	20.725720
987.280122	-2.981500	3.570100	-10.644000	25.603960	0.000933	20.732310
988.280268	-3.020900	3.570200	-10.783000	25.606237	0.000934	20.730330
989.282345	-2.992000	3.569700	-10.680000	25.630203	0.000933	20.731640
990.278245	-2.983200	3.570400	-10.650000	25.653117	0.000932	20.713402
991.282291	-2.988700	3.570400	-10.670000	25.647681	0.000934	20.717899
992.281610	-3.019800	3.568300	-10.775000	25.670112	0.000932	20.728575
993.278926	-2.996300	3.568100	-10.690000	25.660695	0.000931	20.717694
994.281331	-3.005400	3.568300	-10.723000	25.671431	0.000931	20.713304
995.283270	-3.013000	3.566300	-10.743000	25.645237	0.000931	20.706909
996.290708	-2.988500	3.568400	-10.663000	25.634423	0.000930	20.711222
997.281583	-2.988100	3.567400	-10.659000	25.634895	0.000929	20.711696
998.280504	-3.000700	3.567200	-10.703000	25.646868	0.000929	20.701909
999.284674	-2.997800	3.567900	-10.695000	25.665474	0.000929	20.720123
1000.289912	-3.001200	3.566500	-10.702000	25.669733	0.000927	20.708753
1001.284476	-3.013700	3.566000	-10.745000	25.663221	0.000927	20.731137
1002.285489	-3.015900	3.565000	-10.751000	25.649131	0.000927	20.707501
1003.284559	-3.004900	3.564800	-10.710000	25.586219	0.000924	20.718760
1004.282832	-3.024800	3.563700	-10.779000	25.589500	0.000926	20.698819
1005.282663	-3.016300	3.565400	-10.753000	25.555375	0.000925	20.700584
1006.286354	-3.014000	3.564100	-10.741000	25.559006	0.000923	20.716560
1007.287170	-3.010200	3.563800	-10.726000	25.530736	0.000921	20.722783
1008.283406	-3.002400	3.563700	-10.699000	25.519273	0.000926	20.714590
1009.288667	-3.018900	3.562200	-10.752000	25.513038	0.000922	20.712121
1010.286271	-3.021400	3.563200	-10.765000	25.573170	0.000924	20.705179
1011.284459	-2.975500	3.564300	-10.605000	25.561946	0.000920	20.711452
1012.283166	-2.989100	3.561700	-10.646000	25.600914	0.000919	20.706490
1013.288173	-2.997500	3.562200	-10.676000	25.606759	0.000920	20.712361
1014.292325	-2.968700	3.563700	-10.578000	25.649614	0.000920	20.716047
1015.286549	-3.024000	3.560600	-10.765000	25.663484	0.000920	20.711012
1016.300959	-2.985800	3.562400	-10.635000	25.677126	0.000919	20.699583
1017.289546	-3.032300	3.559900	-10.793000	25.669427	0.000918	20.725516
1018.286500	-3.036800	3.559700	-10.808000	25.630555	0.000916	20.712552
1019.290905	-3.007500	3.560000	-10.706000	25.629031	0.000917	20.709125
1020.286780	-2.996400	3.561200	-10.670000	25.632711	0.000916	20.720882
1021.290658	-2.985700	3.559700	-10.627000	25.660575	0.000917	20.723737
1022.291000	-3.009200	3.558700	-10.707000	25.690569	0.000915	20.699808
1023.286693	-2.996600	3.559000	-10.663000	25.687484	0.000914	20.695760
1024.294659	-3.008900	3.558500	-10.706000	25.712708	0.000913	20.699285
1025.290030	-3.000900	3.558800	-10.679000	25.729907	0.000915	20.704707
1026.294988	-2.996800	3.557200	-10.658000	25.715828	0.000914	20.698151
1027.289851	-2.981300	3.557500	-10.605000	25.686934	0.000914	20.734566
1028.286989	-2.975500	3.556900	-10.582000	25.647858	0.000912	20.713810
1029.287020	-3.002100	3.555600	-10.673000	25.633213	0.000910	20.697677
1030.287270	-3.013200	3.555100	-10.711000	25.609316	0.000910	20.710187
1031.290411	-2.978400	3.555600	-10.588000	25.614217	0.000910	20.683814
1032.288891	-2.983600	3.555300	-10.607000	25.601602	0.000910	20.693430
1033.292618	-2.995100	3.555700	-10.649000	25.580464	0.000911	20.697805
1034.288612	-2.989000	3.555900	-10.627000	25.599324	0.000910	20.676442
1035.292096	-2.996700	3.553200	-10.647000	25.616238	0.000908	20.680152
1036.295735	-3.017300	3.554800	-10.725000	25.619358	0.000909	20.699883
1037.291623	-2.994000	3.553700	-10.639000	25.588208	0.000907	20.696100
1038.289749	-2.996500	3.553300	-10.646000	25.612783	0.000907	20.697547
1039.295634	-3.005900	3.553700	-10.682000	25.611113	0.000909	20.707725
1040.291775	-2.983600	3.552600	-10.598000	25.634972	0.000907	20.704660
1041.293538	-3.000000	3.552600	-10.657000	25.635069	0.000905	20.678202
1042.294403	-2.973900	3.553200	-10.566000	25.646555	0.000904	20.693059
1043.290307	-2.980200	3.553200	-10.588000	25.668257	0.000906	20.666964
1044.294694	-2.988400	3.552800	-10.616000	25.679476	0.000904	20.678233
1045.295671	-3.011400	3.550300	-10.690000	25.703274	0.000904	20.688860
1046.292680	-3.004000	3.551400	-10.666000	25.724337	0.000904	20.683937
1047.293093	-3.016200	3.549900	-10.706000	25.708647	0.000903	20.681929
1048.292668	-3.007400	3.551000	-10.678000	25.698237	0.000902	20.691388
1049.291249	-2.994200	3.549200	-10.626000	25.718380	0.000902	20.652821
1050.293262	-3.011900	3.549800	-10.691000	25.723705	0.000899	20.685673
1051.293185	-3.015200	3.550300	-10.703000	25.709348	0.000901	20.675520
1052.292280	-2.998200	3.547900	-10.635000	25.741847	0.000899	20.678292
1053.293326	-3.003900	3.548800	-10.658000	25.742392	0.000900	20.688797
1054.293457	-2.995000	3.548200	-10.624000	25.718439	0.000899	20.688919
1055.292793	-2.976900	3.549000	-10.563000	25.661050	0.000899	20.677270
1056.292717	-2.986700	3.548500	-10.597000	25.612302	0.000898	20.674303
1057.291915	-2.989500	3.548300	-10.607000	25.599375	0.000898	20.688822
1058.292412	-3.009400	3.546800	-10.672000	25.593865	0.000897	20.681391
1059.293812	-3.004800	3.546000	-10.653000	25.638171	0.000899	20.672308
1060.297466	-2.989000	3.547000	-10.601000	25.661547	0.000897	20.704798
1061.298559	-3.004200	3.546200	-10.653000	25.709154	0.000895	20.676273
1062.298332	-2.966600	3.546500	-10.519000	25.715655	0.000895	20.678062
1063.297738	-2.994200	3.545200	-10.614000	25.693745	0.000894	20.680237
1064.300474	-3.020800	3.545000	-10.707000	25.696179	0.000895	20.680311
1065.293773	-2.987100	3.544400	-10.586000	25.654743	0.000894	20.675202
1066.298429	-3.010000	3.544600	-10.668000	25.664501	0.000892	20.676942
1067.302022	-2.989200	3.544800	-10.595000	25.660783	0.000893	20.682692
1068.299165	-2.985100	3.545100	-10.582000	25.662213	0.000892	20.675593
1069.295153	-2.997500	3.543500	-10.621000	25.653073	0.000891	20.692493
1070.302982	-2.985700	3.543600	-10.580000	25.648922	0.000890	20.670778
1071.299002	-3.011400	3.542500	-10.667000	25.625317	0.000890	20.671726
1072.300128	-3.023800	3.541900	-10.708000	25.619992	0.000889	20.677284
1073.300911	-3.001600	3.541700	-10.629000	25.634929	0.000889	20.666681
1074.300270	-2.999800	3.541400	-10.623000	25.640088	0.000889	20.658585
1075.299730	-3.004800	3.541400	-10.640000	25.656173	0.000889	20.694184
1076.299518	-2.997900	3.540300	-10.612000	25.711757	0.000887	20.667981
1077.302750	-2.997800	3.540700	-10.612000	25.714093	0.000887	20.667957
1078.296631	-2.988500	3.540100	-10.579000	25.695658	0.000888	20.678365
1079.300797	-2.996300	3.540300	-10.606000	25.746110	0.000888	20.685893
1080.299628	-2.977000	3.540100	-10.538000	25.762364	0.000886	20.666182
1081.298439	-2.993800	3.538700	-10.593000	25.743229	0.000887	20.673041
1082.300018	-3.015600	3.538800	-10.670000	25.716360	0.000885	20.668338
1083.301783	-2.996700	3.538800	-10.604000	25.664529	0.000884	20.676497
1084.302838	-3.007700	3.537800	-10.640000	25.642219	0.000884	20.662623
1085.301628	-3.001500	3.536900	-10.615000	25.634724	0.000883	20.666949
1086.304279	-2.991400	3.537700	-10.582000	25.635561	0.000882	20.672532
1087.303329	-2.986600	3.538100	-10.565000	25.684634	0.000881	20.657333
1088.302897	-2.997400	3.535900	-10.597000	25.680035	0.000882	20.671681
1089.300416	-2.994300	3.535700	-10.585000	25.702889	0.000881	20.675670
1090.300852	-2.999300	3.535000	-10.601000	25.709318	0.000882	20.654624
1091.328345	-3.025500	3.534300	-10.690000	25.724993	0.000880	20.655196
1092.304804	-2.997200	3.535700	-10.596000	25.743827	0.000879	20.662735
1093.306763	-3.000000	3.535200	-10.603000	25.757662	0.000879	20.664304
1094.309198	-2.994900	3.534700	-10.585000	25.786218	0.000878	20.672125
1095.300906	-2.999700	3.535300	-10.604000	25.808185	0.000878	20.673802
1096.307024	-3.002400	3.534600	-10.611000	25.832875	0.000877	20.646919
1097.312490	-2.990500	3.534900	-10.570000	25.843128	0.000877	20.669549
1098.308666	-2.990400	3.534400	-10.568000	25.855390	0.000877	20.665745
1099.304623	-3.001000	3.534100	-10.605000	25.850875	0.000875	20.671641
1100.305690	-3.003500	3.532200	-10.608000	25.852062	0.000876	20.677101
1101.323722	-3.003300	3.533400	-10.611000	25.847016	0.000875	20.668238
1102.306654	-2.979800	3.532100	-10.521000	25.877574	0.000875	20.648673
1103.311298	-3.010900	3.531500	-10.632000	25.864227	0.000873	20.671777
1104.307854	-3.010300	3.530900	-10.628000	25.827726	0.000874	20.660714
1105.313555	-2.977700	3.532300	-10.517000	25.838183	0.000872	20.646087
1106.309866	-3.010100	3.529400	-10.623000	25.853044	0.000871	20.656275
1107.306427	-2.977400	3.531500	-10.512000	25.868864	0.000872	20.673117
1108.309680	-2.988000	3.530500	-10.548000	25.896979	0.000869	20.659159
1109.308015	-2.999300	3.529500	-10.585000	25.907265	0.000871	20.669020
1110.306949	-2.992400	3.529200	-10.558000	25.893300	0.000871	20.660205
1111.308679	-3.007700	3.529000	-10.613000	25.889378	0.000870	20.668594
1112.311557	-2.980000	3.528600	-10.514000	25.857380	0.000869	20.655414
1113.308692	-3.010500	3.527000	-10.616000	25.854426	0.000869	20.672838
1114.318464	-3.006200	3.527000	-10.601000	25.853750	0.000867	20.666468
1115.308863	-2.976100	3.527300	-10.496000	25.863418	0.000869	20.672862
1116.307505	-2.997300	3.526100	-10.567000	25.833030	0.000867	20.657507
1117.311592	-3.005500	3.526100	-10.596000	25.824086	0.000867	20.678396
1118.308301	-3.010000	3.524700	-10.608000	25.806110	0.000866	20.664605
1119.308708	-2.979500	3.527500	-10.507000	25.772756	0.000863	20.656230
1120.313251	-2.983300	3.525000	-10.516000	25.765082	0.000864	20.663696
1121.314353	-3.017700	3.523200	-10.631000	25.785681	0.000864	20.704780
1122.310570	-3.001400	3.525600	-10.581000	25.811945	0.000864	20.684693
1123.314103	-3.000900	3.523700	-10.573000	25.835463	0.000863	20.647147
1124.314363	-2.983000	3.524300	-10.512000	25.878717	0.000861	20.656935
1125.312861	-3.022400	3.523200	-10.647000	25.905197	0.000861	20.683065
1126.309762	-2.999100	3.523700	-10.567000	25.903757	0.000860	20.667392
1127.317219	-3.020100	3.521600	-10.635000	25.880230	0.000861	20.658929
1128.307814	-3.046200	3.520400	-10.722000	25.863117	0.000861	20.673033
1129.313093	-3.019500	3.521200	-10.631000	25.857404	0.000859	20.666820
1130.311896	-3.008500	3.521500	-10.593000	25.884040	0.000858	20.680777
1131.308479	-2.990700	3.521000	-10.529000	25.894293	0.000859	20.658831
1132.307744	-2.980400	3.520500	-10.492000	25.862791	0.000856	20.656583
1133.310248	-2.984100	3.520400	-10.504000	25.836796	0.000857	20.681681
1134.310991	-2.972400	3.521200	-10.465000	25.829691	0.000856	20.671698
1135.313382	-2.978300	3.519500	-10.480000	25.818251	0.000855	20.681070
1136.312423	-2.993700	3.520400	-10.538000	25.770746	0.000854	20.670335
1137.311091	-2.997500	3.519300	-10.547000	25.722295	0.000856	20.674773
1138.310125	-3.021600	3.519700	-10.634000	25.682763	0.000856	20.665411
1139.309915	-3.002100	3.519600	-10.565000	25.676178	0.000852	20.673497
1140.312015	-2.978100	3.519900	-10.480000	25.686612	0.000855	20.660743
1141.311117	-3.011500	3.516900	-10.590000	25.703753	0.000853	20.680806
1142.312849	-3.003100	3.517900	-10.563000	25.720300	0.000851	20.684624
1143.326027	-2.995400	3.517100	-10.534000	25.730782	0.000852	20.674763
1144.311352	-3.002500	3.517100	-10.559000	25.727891	0.000852	20.678972
1145.318763	-2.982100	3.517400	-10.489000	25.709758	0.000854	20.689683
1146.320025	-2.999200	3.517000	-10.547000	25.721900	0.000850	20.679593
1147.315742	-3.011500	3.515800	-10.587000	25.680524	0.000849	20.702047
1148.311834	-2.990000	3.515600	-10.510000	25.675647	0.000850	20.672016
1149.317205	-2.996500	3.514800	-10.531000	25.678324	0.000849	20.678498
1150.313609	-2.993700	3.515600	-10.523000	25.684704	0.000848	20.671155
1151.311863	-2.992800	3.514200	-10.516000	25.722008	0.000849	20.682072
1152.319879	-3.031900	3.513300	-10.650000	25.702920	0.000847	20.683763
1153.314730	-3.011900	3.511800	-10.576000	25.709651	0.000847	20.689576
1154.315722	-2.982600	3.512900	-10.476000	25.741717	0.000845	20.702344
1155.317400	-3.020300	3.512500	-10.608000	25.772823	0.000847	20.697079
1156.315631	-2.976000	3.512800	-10.452000	25.799559	0.000844	20.706392
1157.318703	-2.991200	3.512000	-10.503000	25.814289	0.000845	20.702222
1158.319012	-3.007300	3.509000	-10.551000	25.863222	0.000845	20.680727
1159.312952	-2.992700	3.510400	-10.504000	25.877392	0.000843	20.679788
1160.315810	-3.004800	3.509000	-10.542000	25.855233	0.000842	20.687874
1161.319790	-3.003400	3.509300	-10.539000	25.836051	0.000844	20.694684
1162.312315	-2.994400	3.510800	-10.511000	25.783777	0.000840	20.691961
1163.313159	-3.001500	3.509500	-10.533000	25.763372	0.000841	20.683792
1164.317943	-3.024300	3.507300	-10.606000	25.792177	0.000839	20.670050
1165.320849	-2.981600	3.510800	-10.467000	25.800615	0.000838	20.678527
1166.319866	-3.007900	3.507700	-10.549000	25.790931	0.000839	20.680653
1167.316843	-2.991500	3.508000	-10.492000	25.810770	0.000839	20.693945
1168.322927	-3.005000	3.508100	-10.539000	25.827413	0.000838	20.691696
1169.321569	-2.986500	3.507800	-10.476000	25.865694	0.000837	20.709765
1170.320242	-3.013600	3.507600	-10.569000	25.855903	0.000838	20.676693
1171.318641	-2.980500	3.508100	-10.455000	25.860453	0.000834	20.688851
1172.318730	-3.027700	3.506900	-10.615000	25.865173	0.000836	20.704026
1173.317410	-2.988700	3.506100	-10.477000	25.879275	0.000834	20.696854
1174.320995	-2.985900	3.506300	-10.468000	25.942739	0.000835	20.695651
1175.320717	-3.001500	3.503700	-10.515000	25.913594	0.000835	20.702408
1176.318349	-2.999500	3.504100	-10.509000	25.939469	0.000835	20.689047
1177.321287	-3.006000	3.503500	-10.531000	25.945099	0.000833	20.701341
1178.321051	-3.005900	3.503400	-10.531000	25.961739	0.000833	20.701938
1179.320354	-2.996800	3.503800	-10.498000	25.925709	0.000832	20.714106
1180.322442	-2.997300	3.502200	-10.496000	25.896062	0.000832	20.707555
1181.324553	-3.016600	3.501300	-10.562000	25.902451	0.000830	20.717293
1182.317566	-3.002800	3.500800	-10.511000	25.924950	0.000831	20.702910
1183.322269	-2.981600	3.502200	-10.441000	25.955555	0.000829	20.702837
1184.325592	-2.989900	3.500900	-10.466000	25.981269	0.000829	20.708283
1185.324389	-3.013800	3.500000	-10.546000	25.996906	0.000831	20.724943
1186.319579	-2.995800	3.500000	-10.484000	25.999762	0.000831	20.708371
1187.323426	-3.022800	3.498900	-10.576000	26.034564	0.000826	20.722474
1188.327371	-2.982500	3.500600	-10.438000	26.038582	0.000828	20.703751
1189.321394	-3.017100	3.499600	-10.558000	26.030959	0.000824	20.720274
1190.321255	-3.008500	3.498900	-10.526000	26.007386	0.000826	20.709392
1191.323000	-2.999100	3.497800	-10.490000	25.981176	0.000824	20.699654
1192.319707	-2.991300	3.498900	-10.466000	26.011707	0.000824	20.719424
1193.320408	-3.018800	3.497200	-10.556000	26.003552	0.000825	20.707911
1194.327987	-3.007200	3.497700	-10.517000	25.995675	0.000824	20.697151
1195.323843	-2.973800	3.498900	-10.402000	25.959252	0.000824	20.707500
1196.322937	-2.993600	3.497900	-10.470000	25.983030	0.000822	20.720484
1197.325754	-2.994400	3.496900	-10.470000	25.994030	0.000821	20.710673
1198.324270	-3.006900	3.495500	-10.510000	26.011093	0.000820	20.703633
1199.322804	-2.983400	3.496400	-10.430000	26.008952	0.000822	20.712863
1200.326011	-3.007100	3.495300	-10.510000	26.028204	0.000820	20.708023
1201.328853	-2.979000	3.496500	-10.414000	26.023402	0.000821	20.723588
1202.324786	-2.994500	3.493400	-10.460000	26.014192	0.000818	20.717653
1203.328249	-3.006000	3.494300	-10.503000	26.018259	0.000819	20.727904
1204.322019	-2.996500	3.495300	-10.472000	26.001162	0.000817	20.722106
1205.324154	-2.990300	3.492400	-10.442000	25.972179	0.000817	20.719066
1206.331509	-2.988700	3.492900	-10.438000	25.968549	0.000817	20.718738
1207.325671	-2.981800	3.493600	-10.416000	25.932427	0.000818	20.713268
1208.324943	-2.972900	3.493400	-10.384000	25.871468	0.000815	20.716514
1209.326959	-2.985200	3.492300	-10.424000	25.822525	0.000815	20.722825
1210.328582	-3.007300	3.491400	-10.499000	25.784364	0.000815	20.724321
1211.329888	-3.028200	3.488400	-10.562000	25.770193	0.000813	20.702972
1212.329511	-2.997100	3.490500	-10.460000	25.799289	0.000813	20.724140
1213.326053	-2.990800	3.490800	-10.439000	25.848369	0.000814	20.735984
1214.329688	-2.988600	3.489700	-10.428000	25.867940	0.000813	20.711072
1215.330232	-2.993000	3.488600	-10.440000	25.895568	0.000812	20.726501
1216.331054	-3.024400	3.488000	-10.548000	25.940348	0.000811	20.733554
1217.330500	-2.974700	3.488800	-10.377000	25.947656	0.000810	20.720981
1218.327986	-2.993100	3.488000	-10.439000	25.997697	0.000809	20.722893
1219.327107	-3.011800	3.487600	-10.502000	25.993669	0.000810	20.725483
1220.330111	-3.023500	3.486100	-10.539000	26.002699	0.000808	20.737401
1221.329643	-3.027700	3.486300	-10.554000	25.965668	0.000807	20.719162
1222.329456	-2.996900	3.485500	-10.444000	25.952783	0.000808	20.731823
1223.334103	-2.999700	3.485400	-10.455000	25.963989	0.000810	20.724588
1224.329198	-2.999500	3.485400	-10.453000	25.982794	0.000807	20.722618
1225.329898	-3.003300	3.484600	-10.465000	26.004333	0.000807	20.717705
1226.331030	-3.002700	3.484900	-10.462000	26.039767	0.000806	20.732918
1227.333295	-3.021700	3.485400	-10.530000	26.065226	0.000805	20.742851
1228.328031	-3.022700	3.484000	-10.530000	26.072898	0.000804	20.733490
1229.330879	-2.994300	3.483700	-10.430000	26.096094	0.000805	20.731667
1230.332157	-3.003300	3.483500	-10.460000	26.107240	0.000804	20.736701
1231.331951	-2.996700	3.484000	-10.440000	26.148196	0.000804	20.727594
1232.332219	-2.981500	3.483000	-10.384000	26.157176	0.000804	20.741360
1233.330820	-3.021400	3.481900	-10.520000	26.192070	0.000803	20.731378
1234.331333	-3.019600	3.481500	-10.511000	26.173366	0.000804	20.754309
1235.334077	-3.003100	3.481200	-10.453000	26.157420	0.000803	20.739708
1236.331012	-2.995300	3.481300	-10.426000	26.190908	0.000802	20.741590
1237.336159	-3.005700	3.481000	-10.462000	26.189375	0.000800	20.729143
1238.340482	-2.998700	3.479100	-10.432000	26.158679	0.000802	20.751405
1239.333423	-2.973300	3.482200	-10.352000	26.190041	0.000800	20.748780
1240.332874	-2.981300	3.480800	-10.376000	26.170646	0.000799	20.765801
1241.337111	-2.978600	3.480100	-10.363000	26.148361	0.000800	20.746727
1242.338365	-2.989200	3.480000	-10.401000	26.148274	0.000799	20.757071
1243.338758	-2.980500	3.479400	-10.369000	26.151834	0.000800	20.756856
1244.331635	-3.009000	3.477200	-10.462000	26.163475	0.000798	20.756225
1245.333426	-3.011800	3.475300	-10.465000	26.174290	0.000799	20.745754
1246.334146	-3.003600	3.476900	-10.442000	26.172281	0.000798	20.760331
1247.330551	-2.994600	3.477400	-10.411000	26.172548	0.000798	20.744952
1248.334555	-3.004300	3.476500	-10.443000	26.168399	0.000795	20.741731
1249.335084	-2.985100	3.476800	-10.377000	26.124514	0.000797	20.746473
1250.332213	-3.011600	3.474800	-10.464000	26.131787	0.000795	20.748565
1251.336374	-3.008400	3.476500	-10.458000	26.117207	0.000794	20.756675
1252.332234	-2.991700	3.474700	-10.394000	26.132803	0.000793	20.762389
1253.339792	-2.993700	3.473300	-10.397000	26.102204	0.000794	20.758669
1254.335973	-2.998600	3.474500	-10.417000	26.097485	0.000793	20.755350
1255.333976	-2.980300	3.474800	-10.355000	26.076784	0.000791	20.761103
1256.339934	-2.996500	3.472200	-10.403000	26.062627	0.000793	20.774380
1257.338571	-2.998300	3.473400	-10.413000	26.088922	0.000792	20.756703
1258.340271	-3.000700	3.472000	-10.418000	26.120442	0.000791	20.779366
1259.339225	-2.990200	3.471900	-10.381000	26.125837	0.000789	20.753018
1260.335286	-2.998800	3.471300	-10.410000	26.135892	0.000789	20.756009
1261.336455	-3.027800	3.471100	-10.509000	26.144483	0.000788	20.764168
1262.341184	-3.019700	3.469600	-10.475000	26.121872	0.000789	20.773881
1263.339266	-3.000700	3.471300	-10.416000	26.121663	0.000790	20.782963
1264.339642	-2.986700	3.469600	-10.361000	26.082714	0.000787	20.762320
1265.342361	-2.987800	3.470100	-10.366000	26.097333	0.000787	20.769897
1266.337283	-2.988600	3.470300	-10.370000	26.088474	0.000785	20.770479
1267.340755	-2.981600	3.469200	-10.343000	26.078880	0.000786	20.762736
1268.337680	-3.008100	3.467200	-10.429000	26.096497	0.000784	20.774272
1269.339289	-2.993400	3.466900	-10.376000	26.108960	0.000783	20.773993
1270.338793	-3.010100	3.467300	-10.435000	26.113835	0.000784	20.767986
1271.341283	-2.987000	3.467000	-10.354000	26.133898	0.000784	20.785774
1272.337554	-3.030300	3.464300	-10.495000	26.122052	0.000785	20.776716
1273.340251	-3.014300	3.465800	-10.446000	26.125948	0.000782	20.763562
1274.340370	-2.989000	3.466500	-10.360000	26.111855	0.000782	20.775953
1275.338293	-3.012000	3.464700	-10.434000	26.128926	0.000783	20.797848
1276.340257	-2.981600	3.464800	-10.330000	26.138787	0.000781	20.785945
1277.341333	-2.984300	3.463900	-10.336000	26.137711	0.000780	20.756889
1278.342421	-2.981300	3.464100	-10.326000	26.168879	0.000780	20.777302
1279.342270	-2.967000	3.464500	-10.278000	26.156562	0.000781	20.779624
1280.339933	-2.999100	3.464300	-10.388000	26.146555	0.000780	20.762931
1281.339526	-3.013400	3.462700	-10.434000	26.130998	0.000778	20.783334
1282.345806	-2.993500	3.462500	-10.364000	26.139915	0.000779	20.771906
1283.344038	-2.992500	3.462700	-10.361000	26.137157	0.000777	20.789997
1284.343265	-3.003800	3.461500	-10.396000	26.172474	0.000778	20.774277
1285.344095	-2.996700	3.460700	-10.370000	26.148058	0.000777	20.775347
1286.341880	-2.993300	3.460900	-10.358000	26.144682	0.000778	20.784757
1287.347942	-3.020100	3.460700	-10.451000	26.160327	0.000777	20.781511
1288.341249	-2.971700	3.461900	-10.286000	26.195693	0.000776	20.779116
1289.342031	-2.992200	3.460600	-10.354000	26.197400	0.000774	20.778461
1290.350390	-3.001400	3.458700	-10.379000	26.127344	0.000776	20.789146
1291.350693	-2.971000	3.460200	-10.278000	26.125145	0.000774	20.762280
1292.345842	-2.970900	3.457900	-10.272000	26.134267	0.000773	20.792783
1293.346189	-3.005800	3.457000	-10.389000	26.162049	0.000774	20.798888
1294.348792	-3.007300	3.456900	-10.394000	26.183064	0.000773	20.779702
1295.350109	-3.013500	3.457400	-10.418000	26.197755	0.000771	20.763644
1296.348979	-3.022700	3.455600	-10.444000	26.206379	0.000772	20.786062
1297.345730	-2.991000	3.456900	-10.338000	26.211813	0.000770	20.800531
1298.349636	-2.993800	3.455400	-10.343000	26.269012	0.000770	20.807751
1299.346707	-3.011200	3.454600	-10.402000	26.284971	0.000768	20.793443
1300.349509	-3.000300	3.455300	-10.365000	26.274314	0.000770	20.780836
1301.350922	-3.006500	3.455400	-10.388000	26.255524	0.000769	20.793722
1302.350621	-3.004500	3.455000	-10.380000	26.243003	0.000770	20.799157
1303.352650	-3.016000	3.453400	-10.414000	26.212406	0.000770	20.803024
1304.353353	-3.004000	3.452700	-10.370000	26.198757	0.000767	20.786937
1305.350657	-2.995300	3.453200	-10.343000	26.203028	0.000767	20.814936
1306.347816	-3.006700	3.451500	-10.377000	26.214085	0.000768	20.799969
1307.354203	-3.004200	3.451500	-10.368000	26.201325	0.000767	20.802794
1308.345809	-2.996200	3.452400	-10.343000	26.208461	0.000767	20.807120
1309.349319	-3.013300	3.450600	-10.397000	26.240994	0.000766	20.818475
1310.351865	-2.986700	3.451800	-10.308000	26.244190	0.000765	20.819790
1311.349719	-3.014900	3.449900	-10.399000	26.251292	0.000765	20.781882
1312.351499	-3.000500	3.450200	-10.351000	26.237171	0.000764	20.799460
1313.355955	-3.012600	3.449100	-10.390000	26.189164	0.000763	20.785358
1314.351767	-2.991500	3.448700	-10.316000	26.143636	0.000763	20.815474
1315.353330	-2.989000	3.448100	-10.305000	26.139146	0.000762	20.813333
1316.357499	-3.008300	3.447800	-10.372000	26.126405	0.000761	20.808117
1317.350912	-2.996600	3.448500	-10.332000	26.072040	0.000761	20.791898
1318.353004	-2.993900	3.448400	-10.323000	26.035084	0.000759	20.817356
1319.353792	-3.025500	3.445400	-10.423000	26.009721	0.000760	20.796141
1320.354895	-2.985800	3.447400	-10.291000	26.018557	0.000760	20.802173
1321.354609	-3.024800	3.445200	-10.420000	26.017272	0.000759	20.803253
1322.357038	-3.003500	3.445000	-10.345000	26.053854	0.000759	20.824834
1323.354710	-2.978800	3.445900	-10.264000	26.088070	0.000758	20.810850
1324.354200	-3.022500	3.443700	-10.407000	26.123209	0.000757	20.804432
1325.358093	-2.975100	3.446000	-10.252000	26.162569	0.000756	20.821696
1326.356417	-3.005900	3.443700	-10.349000	26.174342	0.000757	20.813137
1327.354326	-2.998600	3.446100	-10.331000	26.198781	0.000756	20.821574
1328.358387	-2.996100	3.444300	-10.317000	26.214810	0.000755	20.798326
1329.359938	-2.974700	3.444300	-10.245000	26.192535	0.000755	20.793961
1330.361038	-2.990600	3.442700	-10.295000	26.166208	0.000754	20.798326
1331.360434	-3.012300	3.443400	-10.371000	26.157170	0.000755	20.800150
1332.356804	-2.989100	3.442400	-10.289000	26.131869	0.000755	20.822616
1333.357177	-3.025300	3.441700	-10.410000	26.093091	0.000753	20.807834
1334.364241	-3.014400	3.439900	-10.368000	26.071237	0.000751	20.793937
1335.358844	-3.001700	3.441600	-10.329000	26.050483	0.000751	20.811490
1336.365276	-3.010300	3.440200	-10.355000	26.031654	0.000751	20.814858
1337.365948	-3.003700	3.439300	-10.330000	26.054852	0.000753	20.812087
1338.361184	-2.987600	3.441000	-10.279000	26.076764	0.000751	20.802335
1339.361835	-2.988000	3.438400	-10.273000	26.084023	0.000750	20.823853
1340.361543	-2.994100	3.438800	-10.295000	26.107229	0.000750	20.813979
1341.360257	-3.014800	3.436300	-10.358000	26.127388	0.000749	20.814321
1342.376795	-3.015600	3.436700	-10.363000	26.166457	0.000749	20.781981
1343.364979	-2.986400	3.437900	-10.265000	26.179776	0.000749	20.798684
1344.363402	-3.002800	3.437800	-10.321000	26.138227	0.000748	20.787754
1345.365226	-2.991300	3.437600	-10.282000	26.143904	0.000747	20.791087
1346.362576	-3.007000	3.436800	-10.333000	26.152179	0.000747	20.771427
1347.363885	-3.005800	3.436900	-10.330000	26.166491	0.000746	20.811887
1348.362506	-3.000900	3.435800	-10.309000	26.185886	0.000745	20.789651
1349.364359	-3.005500	3.435300	-10.324000	26.197804	0.000744	20.783609
1350.366688	-2.995600	3.433900	-10.286000	26.182982	0.000744	20.795267
1351.363675	-2.991800	3.435300	-10.276000	26.193110	0.000743	20.763718
1352.361663	-2.988900	3.433500	-10.259000	26.217539	0.000744	20.757446
1353.361465	-3.010900	3.432600	-10.333000	26.257572	0.000743	20.776814
1354.364099	-2.998900	3.433500	-10.296000	26.243164	0.000743	20.755222
1355.363106	-2.993700	3.432300	-10.275000	26.284237	0.000741	20.752876
1356.364547	-3.010400	3.432800	-10.333000	26.287346	0.000742	20.765957
1357.363275	-2.994800	3.430500	-10.273000	26.312595	0.000741	20.790383
1358.371187	-2.984900	3.432500	-10.244000	26.306826	0.000741	20.757559
1359.368060	-2.997600	3.431400	-10.285000	26.297424	0.000742	20.765654
1360.366442	-2.986500	3.430800	-10.245000	26.284709	0.000736	20.761885
1361.369752	-3.009600	3.429400	-10.319000	26.234019	0.000739	20.766421
1362.370377	-3.016700	3.430000	-10.347000	26.185127	0.000739	20.756170
1363.370195	-3.009300	3.429800	-10.320000	26.158498	0.000736	20.764026
1364.369778	-3.017000	3.428700	-10.344000	26.169701	0.000738	20.775284
1365.370494	-2.992600	3.429600	-10.262000	26.135425	0.000736	20.759333
1366.366685	-2.998600	3.427600	-10.277000	26.166933	0.000734	20.772028
1367.368714	-2.973700	3.428400	-10.192000	26.199443	0.000737	20.771979
1368.367366	-2.957800	3.429000	-10.141000	26.214941	0.000734	20.766690
1369.366553	-3.002500	3.427500	-10.290000	26.258545	0.000733	20.772101
1370.370436	-2.994000	3.427200	-10.261000	26.248841	0.000733	20.755711
1371.369009	-2.990800	3.426800	-10.246000	26.224368	0.000734	20.757671
1372.364907	-3.010600	3.425700	-10.313000	26.240629	0.000734	20.762632
1373.374759	-2.999500	3.425500	-10.274000	26.234904	0.000734	20.774423
1374.372509	-3.004400	3.425300	-10.290000	26.265826	0.000731	20.751917
1375.368700	-3.024200	3.424000	-10.354000	26.290930	0.000732	20.757231
1376.372079	-3.004100	3.425400	-10.289000	26.315138	0.000732	20.746946
1377.365775	-2.999700	3.423900	-10.270000	26.321345	0.000732	20.766460
1378.369505	-2.985100	3.424800	-10.221000	26.341087	0.000730	20.747420
1379.368453	-3.001100	3.423400	-10.273000	26.367483	0.000730	20.762095
1380.370327	-2.998700	3.423200	-10.264000	26.373387	0.000729	20.762339
1381.367849	-3.009500	3.421000	-10.295000	26.374574	0.000731	20.770170
1382.371368	-3.023300	3.420600	-10.340000	26.381276	0.000728	20.770742
1383.375523	-2.990500	3.420500	-10.228000	26.394982	0.000728	20.760809
1384.371987	-2.996700	3.420000	-10.248000	26.407695	0.000727	20.750827
1385.371697	-3.009300	3.420000	-10.291000	26.374189	0.000727	20.769784
1386.368802	-2.997500	3.421100	-10.253000	26.334885	0.000724	20.757309
1387.369770	-3.010800	3.418500	-10.292000	26.279008	0.000724	20.747620
1388.368757	-3.015300	3.418100	-10.306000	26.250431	0.000724	20.753990
1389.369700	-2.992600	3.420700	-10.235000	26.241578	0.000724	20.732290
1390.366739	-3.027700	3.416600	-10.342000	26.261273	0.000724	20.738806
1391.369664	-3.006000	3.418300	-10.274000	26.288323	0.000723	20.753662
1392.370797	-2.983900	3.418700	-10.199000	26.266487	0.000722	20.738356
1393.369548	-2.977000	3.418900	-10.176000	26.270189	0.000722	20.742076
1394.368275	-2.951200	3.418400	-10.087000	26.259035	0.000722	20.737032
1395.375194	-2.997500	3.416500	-10.240000	26.248135	0.000722	20.770649
1396.368386	-3.016600	3.414900	-10.301000	26.261224	0.000722	20.744447
1397.371029	-3.025700	3.413500	-10.327000	26.245026	0.000719	20.742868
1398.374107	-3.002800	3.415500	-10.255000	26.269669	0.000719	20.749614
1399.369336	-3.001500	3.415400	-10.251000	26.277631	0.000719	20.748133
1400.377618	-2.967100	3.416400	-10.135000	26.305191	0.000716	20.754493
1401.375818	-2.996300	3.414200	-10.228000	26.256448	0.000718	20.742018
1402.372731	-2.993500	3.413500	-10.217000	26.215772	0.000718	20.745239
1403.372899	-2.982800	3.414100	-10.183000	26.158206	0.000716	20.747136
1404.375718	-2.990700	3.414200	-10.209000	26.135833	0.000716	20.739828
1405.374613	-2.991500	3.414000	-10.210000	26.117575	0.000715	20.750406
1406.384136	-3.036100	3.411800	-10.357000	26.095601	0.000716	20.734490
1407.375030	-2.999800	3.411700	-10.233000	26.049645	0.000716	20.738576
1408.374758	-3.023300	3.410400	-10.309000	26.064503	0.000713	20.746867
1409.376471	-2.959800	3.413600	-10.102000	26.067432	0.000716	20.740326
1410.380345	-3.014000	3.410600	-10.277000	26.098865	0.000714	20.725915
1411.375791	-3.004200	3.410800	-10.245000	26.124576	0.000713	20.758389
1412.390420	-3.016500	3.408800	-10.282000	26.130603	0.000712	20.735047
1413.384030	-2.998700	3.408300	-10.220000	26.129587	0.000713	20.740664
1414.377968	-2.996300	3.409100	-10.213000	26.143271	0.000712	20.734500
1415.377491	-3.010300	3.408400	-10.260000	26.149153	0.000711	20.725236
1416.385835	-3.010100	3.407100	-10.255000	26.169453	0.000710	20.736152
1417.374249	-2.982500	3.408900	-10.165000	26.219154	0.000711	20.741524
1418.379327	-3.031900	3.405700	-10.325000	26.242818	0.000707	20.747762
1419.385432	-2.985000	3.408600	-10.174000	26.290366	0.000709	20.724420
1420.382629	-2.989300	3.407400	-10.185000	26.315406	0.000707	20.741524
1421.383811	-2.991100	3.405300	-10.184000	26.331846	0.000708	20.713949
1422.384099	-3.004600	3.405900	-10.232000	26.344317	0.000707	20.750192
1423.382321	-3.001600	3.404800	-10.218000	26.373810	0.000707	20.738582
1424.383445	-3.014700	3.406100	-10.267000	26.384068	0.000705	20.738459
1425.382483	-2.981100	3.404700	-10.149000	26.418847	0.000705	20.743543
1426.380596	-2.994100	3.404400	-10.192000	26.393902	0.000706	20.755931
1427.383630	-2.984500	3.403600	-10.158000	26.386266	0.000704	20.739247
1428.384651	-2.990900	3.404200	-10.180000	26.390828	0.000704	20.733874
1429.381910	-3.015800	3.403200	-10.262000	26.365994	0.000704	20.730726
1430.381876	-3.022800	3.403400	-10.287000	26.332352	0.000702	20.741960
1431.384621	-2.982700	3.402500	-10.148000	26.380328	0.000703	20.730907
1432.379938	-3.005400	3.402100	-10.224000	26.374968	0.000702	20.737375
1433.386122	-2.998400	3.401500	-10.197000	26.358650	0.000700	20.708171
1434.385284	-3.025300	3.399200	-10.281000	26.336077	0.000702	20.705399
1435.390492	-3.021900	3.399700	-10.272000	26.320858	0.000702	20.727563
1436.389413	-3.017500	3.400200	-10.259000	26.326569	0.000701	20.716706
1437.389238	-2.983900	3.401300	-10.149000	26.320304	0.000698	20.740283
1438.385773	-2.988900	3.400900	-10.164000	26.354161	0.000697	20.716462
1439.392087	-3.012000	3.400400	-10.241000	26.361359	0.000698	20.720377
1440.389288	-3.004600	3.398200	-10.209000	26.318704	0.000698	20.708327
1441.391553	-3.010500	3.398900	-10.232000	26.264289	0.000697	20.723819
1442.391368	-2.998800	3.398200	-10.190000	26.254731	0.000696	20.704729
1443.389877	-3.026500	3.397700	-10.282000	26.254415	0.000698	20.695876
1444.386422	-3.020100	3.395600	-10.254000	26.242644	0.000695	20.725774
1445.393002	-3.015200	3.396700	-10.240000	26.243490	0.000695	20.719512
1446.389776	-3.014500	3.395300	-10.233000	26.199609	0.000694	20.729944
1447.385414	-2.978500	3.396200	-10.115000	26.157564	0.000693	20.713299
1448.406544	-3.017900	3.394900	-10.246000	26.172567	0.000693	20.728849
1449.387742	-3.018600	3.393600	-10.244000	26.198155	0.000692	20.727060
1450.391171	-2.967600	3.397000	-10.078000	26.144785	0.000692	20.699034
1451.389226	-2.994300	3.394000	-10.161000	26.158216	0.000692	20.708738
1452.393643	-3.000400	3.393700	-10.181000	26.146152	0.000693	20.697089
1453.389367	-3.012500	3.393100	-10.219000	26.167338	0.000692	20.720275
1454.390683	-2.996100	3.392900	-10.164000	26.217403	0.000691	20.719376
1455.388611	-3.027500	3.392100	-10.269000	26.244926	0.000690	20.724748
1456.389692	-3.020000	3.392000	-10.243000	26.294418	0.000691	20.705732
1457.399511	-2.986000	3.391500	-10.126000	26.280760	0.000687	20.708601
1458.389804	-3.010000	3.391200	-10.206000	26.302682	0.000688	20.694121
1459.393438	-3.005500	3.392000	-10.194000	26.339468	0.000686	20.724455
1460.391133	-2.985700	3.392200	-10.127000	26.331414	0.000688	20.704979
1461.392965	-3.025700	3.389800	-10.255000	26.344283	0.000686	20.709379
1462.393034	-3.017300	3.389800	-10.227000	26.305148	0.000685	20.708455
1463.393685	-3.042400	3.387300	-10.303000	26.298820	0.000684	20.689292
1464.389444	-3.027900	3.388600	-10.259000	26.280989	0.000683	20.700770
1465.393718	-2.999500	3.388100	-10.162000	26.302328	0.000686	20.713681
1466.393574	-2.991200	3.388700	-10.134000	26.317960	0.000683	20.703786
1467.396196	-2.985400	3.389200	-10.118000	26.322678	0.000683	20.702364
1468.394371	-2.986800	3.387700	-10.117000	26.302439	0.000684	20.708103
1469.391189	-3.000600	3.388500	-10.167000	26.288392	0.000682	20.712004
1470.393474	-3.001100	3.387400	-10.165000	26.267656	0.000681	20.698277
1471.396978	-3.001200	3.386100	-10.161000	26.282730	0.000680	20.698727
1472.398472	-2.960600	3.387400	-10.027000	26.288562	0.000683	20.693207
1473.393047	-2.998400	3.384400	-10.147000	26.311559	0.000678	20.697353
1474.395083	-3.005300	3.385300	-10.172000	26.299390	0.000679	20.691286
1475.393485	-3.001000	3.385500	-10.159000	26.304205	0.000679	20.693755
1476.395494	-3.020500	3.384300	-10.222000	26.286325	0.000680	20.688588
1477.394587	-3.002600	3.384400	-10.161000	26.275157	0.000677	20.687796
1478.390766	-3.005700	3.383100	-10.167000	26.279816	0.000677	20.702437
1479.397289	-2.996400	3.384700	-10.141000	26.309020	0.000678	20.695275
1480.393694	-2.991400	3.383400	-10.120000	26.316715	0.000677	20.691154
1481.399415	-3.017300	3.382900	-10.206000	26.342834	0.000676	20.694170
1482.399096	-2.993500	3.384200	-10.129000	26.405906	0.000674	20.687859
1483.399654	-3.036300	3.381500	-10.266000	26.370416	0.000675	20.688700
1484.395803	-3.011100	3.381800	-10.181000	26.371661	0.000675	20.696116
1485.397346	-3.002100	3.382000	-10.152000	26.363811	0.000674	20.694390
1486.398026	-2.995000	3.381100	-10.125000	26.344346	0.000674	20.679094
1487.403513	-3.020800	3.380200	-10.210000	26.370163	0.000674	20.705516
1488.397417	-3.003300	3.380000	-10.150000	26.400974	0.000673	20.696179
1489.395488	-3.005100	3.380000	-10.156000	26.406684	0.000672	20.666828
1490.400013	-2.980100	3.379500	-10.070000	26.417617	0.000673	20.688250
1491.394967	-3.001000	3.378400	-10.137000	26.429630	0.000673	20.692738
1492.395529	-2.972200	3.379100	-10.042000	26.420739	0.000670	20.684275
1493.394734	-2.989000	3.378400	-10.097000	26.405074	0.000672	20.677065
1494.397640	-3.011600	3.376600	-10.167000	26.353821	0.000670	20.686720
1495.396581	-3.000000	3.377700	-10.132000	26.317254	0.000669	20.695015
1496.395816	-3.029600	3.375200	-10.224000	26.290638	0.000667	20.700036
1497.402859	-2.986800	3.377600	-10.086000	26.325552	0.000668	20.692923
1498.399864	-2.998200	3.376800	-10.123000	26.304345	0.000669	20.687257
1499.402300	-2.995400	3.376400	-10.113000	26.332376	0.000666	20.703101
1500.399174	-3.007400	3.375000	-10.149000	26.329725	0.000667	20.679098
1501.403981	-2.994200	3.374100	-10.102000	26.361359	0.000665	20.682442
1502.409652	-2.987500	3.376100	-10.085000	26.364312	0.000663	20.689203
1503.408719	-2.985200	3.377100	-10.079000	26.371014	0.000667	20.681713
1504.401580	-3.038000	3.372100	-10.244000	26.395108	0.000664	20.678428
1505.406791	-2.971600	3.374600	-10.026000	26.402345	0.000665	20.674796
1506.404807	-2.988500	3.373100	-10.080000	26.433520	0.000665	20.672938
1507.406438	-2.999200	3.373200	-10.116000	26.460395	0.000663	20.665810
1508.409049	-2.994900	3.373900	-10.104000	26.465608	0.000664	20.694761
1509.408207	-3.009000	3.372400	-10.146000	26.495099	0.000661	20.676986
1510.410094	-3.013000	3.370700	-10.155000	26.495074	0.000661	20.676961
1511.404442	-3.008100	3.370200	-10.137000	26.462331	0.000661	20.675343
1512.409317	-2.983500	3.371000	-10.057000	26.435164	0.000659	20.676961
1513.409735	-2.964500	3.371700	-9.994500	26.439881	0.000659	20.664158
1514.411728	-2.985500	3.370000	-10.060000	26.446705	0.000659	20.668646
1515.407237	-3.001900	3.369500	-10.114000	26.424143	0.000659	20.670626
1516.408022	-2.999000	3.369500	-10.104000	26.429770	0.000658	20.683869
1517.405277	-3.007600	3.369100	-10.132000	26.455099	0.000657	20.672342
1518.411578	-3.015500	3.369900	-10.161000	26.424484	0.000658	20.652474
1519.409866	-3.001600	3.368300	-10.110000	26.450503	0.000655	20.666299
1520.407818	-2.980500	3.369200	-10.041000	26.447794	0.000655	20.694873
1521.414831	-3.000700	3.367600	-10.104000	26.437138	0.000655	20.673256
1522.411797	-2.985900	3.367500	-10.054000	26.396951	0.000655	20.671745
1523.411446	-3.019700	3.367200	-10.166000	26.397049	0.000655	20.659514
1524.415210	-2.984900	3.367500	-10.051000	26.399904	0.000653	20.670919
1525.413292	-3.012300	3.365200	-10.136000	26.397292	0.000651	20.672087
1526.412332	-2.983000	3.367000	-10.043000	26.360591	0.000651	20.667917
1527.411961	-2.995500	3.365000	-10.079000	26.364340	0.000650	20.675006
1528.415365	-3.001100	3.363800	-10.095000	26.314865	0.000651	20.659420
1529.412822	-3.022900	3.363200	-10.165000	26.280555	0.000650	20.679469
1530.415486	-3.029800	3.363100	-10.188000	26.294432	0.000650	20.673026
1531.411973	-2.994400	3.363400	-10.071000	26.300590	0.000649	20.651711
1532.415180	-3.012500	3.361800	-10.126000	26.328693	0.000651	20.666206
1533.410560	-2.982500	3.364200	-10.033000	26.354992	0.000648	20.685526
1534.411051	-2.999600	3.362400	-10.085000	26.373163	0.000647	20.678183
1535.417081	-2.977200	3.363200	-10.011000	26.357122	0.000647	20.668225
1536.416054	-3.017800	3.362100	-10.145000	26.381236	0.000646	20.665907
1537.415102	-3.034000	3.361300	-10.196000	26.415636	0.000647	20.680094
1538.415093	-2.993900	3.361700	-10.063000	26.457792	0.000644	20.664617
1539.413720	-2.998200	3.361100	-10.076000	26.471750	0.000646	20.657308
1540.414895	-2.991600	3.361400	-10.054000	26.461868	0.000645	20.658281
1541.414647	-3.016300	3.360100	-10.134000	26.492652	0.000643	20.684010
1542.411876	-3.000800	3.359900	-10.081000	26.499548	0.000644	20.692365
1543.416374	-2.985900	3.359000	-10.028000	26.483183	0.000642	20.672595
1544.412226	-3.005500	3.358300	-10.092000	26.452423	0.000641	20.671549
1545.415527	-2.996000	3.358700	-10.061000	26.423622	0.000643	20.674370
1546.416447	-2.995800	3.359700	-10.064000	26.389645	0.000641	20.667247
1547.416512	-3.024800	3.356300	-10.150000	26.373556	0.000641	20.696598
1548.419425	-3.007600	3.357700	-10.098000	26.331543	0.000641	20.670019
1549.412900	-2.999500	3.358100	-10.071000	26.315040	0.000638	20.659596
1550.417167	-2.976800	3.357300	-9.992900	26.333576	0.000640	20.660207
1551.420520	-2.998300	3.356500	-10.062000	26.373556	0.000638	20.693753
1552.417665	-3.000100	3.355500	-10.065000	26.387009	0.000635	20.678349
1553.416840	-2.989200	3.355200	-10.028000	26.367472	0.000637	20.685741
1554.420463	-3.023500	3.353800	-10.139000	26.321285	0.000637	20.673934
1555.418125	-3.016500	3.354600	-10.119000	26.302958	0.000637	20.689656
1556.420511	-3.047100	3.352700	-10.215000	26.311353	0.000635	20.685765
1557.423093	-3.001400	3.353900	-10.065000	26.303259	0.000634	20.687588
1558.414851	-3.018300	3.353200	-10.119000	26.332209	0.000633	20.677327
1559.418375	-3.010400	3.353200	-10.094000	26.322326	0.000634	20.687784
1560.417966	-2.999900	3.353800	-10.060000	26.336796	0.000634	20.662969
1561.419457	-2.984400	3.353000	-10.005000	26.354588	0.000632	20.669471
1562.419349	-2.990000	3.353000	-10.024000	26.322448	0.000632	20.681267
1563.417492	-3.003900	3.352800	-10.071000	26.322739	0.000633	20.693415
1564.425624	-3.016900	3.351800	-10.111000	26.306431	0.000631	20.677972
1565.417384	-2.988900	3.351800	-10.017000	26.330843	0.000629	20.676902
1566.421165	-2.995300	3.352200	-10.041000	26.348965	0.000629	20.674726
1567.427273	-3.005600	3.349900	-10.068000	26.387846	0.000627	20.682035
1568.428674	-3.002000	3.349000	-10.052000	26.433592	0.000628	20.673010
1569.421917	-2.993900	3.349600	-10.027000	26.489753	0.000628	20.656912
1570.421458	-3.016700	3.347900	-10.099000	26.510655	0.000628	20.671285
1571.423699	-2.990700	3.348900	-10.014000	26.531094	0.000629	20.689461
1572.418879	-2.996900	3.348500	-10.035000	26.574831	0.000626	20.669412
1573.424107	-2.987400	3.347900	-10.000000	26.602660	0.000628	20.691700
1574.421379	-2.989600	3.348800	-10.011000	26.646851	0.000625	20.674956
1575.422601	-3.008000	3.347700	-10.068000	26.643695	0.000626	20.681267
1576.420441	-3.000400	3.347200	-10.042000	26.649778	0.000626	20.682167
1577.424459	-3.014500	3.346900	-10.088000	26.654553	0.000624	20.679855
1578.424026	-3.029300	3.345000	-10.132000	26.690218	0.000623	20.683467
1579.422250	-3.019800	3.344800	-10.100000	26.706205	0.000622	20.697170
1580.424076	-2.984200	3.345700	-9.983100	26.736787	0.000623	20.692829
1581.425104	-2.990500	3.345700	-10.004000	26.743307	0.000621	20.698436
1582.425259	-2.985000	3.346500	-9.987900	26.748592	0.000621	20.701379
1583.426205	-2.998300	3.345100	-10.028000	26.732037	0.000619	20.689949
1584.426641	-2.991900	3.344700	-10.006000	26.746574	0.000621	20.676589
1585.423386	-3.010100	3.344400	-10.066000	26.756707	0.000619	20.699106
1586.427865	-3.033900	3.341400	-10.135000	26.722920	0.000619	20.686948
1587.427312	-3.008100	3.342400	-10.053000	26.753128	0.000618	20.693137
1588.431373	-2.992400	3.341300	-9.998100	26.732537	0.000618	20.691875
1589.427726	-2.989000	3.341100	-9.985200	26.728969	0.000617	20.681174
1590.430644	-2.998300	3.341200	-10.017000	26.741075	0.000617	20.681492
1591.426891	-2.987300	3.342000	-9.981800	26.717844	0.000615	20.675679
1592.430468	-3.017800	3.340400	-10.079000	26.683804	0.000614	20.674648
1593.434270	-3.011000	3.340600	-10.057000	26.701109	0.000613	20.685882
1594.426435	-2.983600	3.342000	-9.969300	26.731088	0.000613	20.710334
1595.432612	-3.006900	3.338100	-10.036000	26.759930	0.000613	20.673895
1596.429334	-3.003700	3.338300	-10.026000	26.745869	0.000613	20.676828
1597.431918	-3.018000	3.337600	-10.072000	26.760139	0.000614	20.704453
1598.433000	-3.025000	3.337000	-10.094000	26.757309	0.000612	20.691176
1599.435730	-3.005400	3.337200	-10.028000	26.707244	0.000612	20.705328
1600.430010	-2.999200	3.338600	-10.012000	26.657615	0.000612	20.704747
1601.435995	-2.999300	3.337300	-10.008000	26.645002	0.000610	20.690643
1602.433537	-2.987400	3.337700	-9.970400	26.660615	0.000609	20.676940
1603.430404	-2.984200	3.337300	-9.958600	26.644049	0.000611	20.684468
1604.435885	-2.989200	3.337100	-9.974400	26.675299	0.000610	20.680323
1605.435050	-3.010800	3.336700	-10.045000	26.675275	0.000611	20.715863
1606.439875	-2.991600	3.335700	-9.977700	26.644389	0.000608	20.711840
1607.437840	-3.001400	3.335400	-10.010000	26.606777	0.000610	20.684933
1608.440456	-2.991600	3.335700	-9.978600	26.590658	0.000607	20.682479
1609.439391	-3.005000	3.335800	-10.023000	26.626869	0.000606	20.717461
1610.438847	-2.985800	3.335500	-9.958400	26.612452	0.000606	20.718615
1611.435386	-2.976900	3.334400	-9.924900	26.608946	0.000606	20.709874
1612.434217	-2.993300	3.333900	-9.976200	26.614572	0.000605	20.703201
1613.433941	-2.995000	3.333400	-9.982100	26.649596	0.000604	20.693839
1614.441235	-3.009100	3.332100	-10.025000	26.673193	0.000606	20.716141
1615.438633	-2.983800	3.331600	-9.939400	26.653929	0.000602	20.708153
1616.438633	-3.000000	3.331400	-9.993000	26.674175	0.000602	20.719499
1617.437555	-3.016600	3.329900	-10.044000	26.649601	0.000603	20.709967
1618.437906	-2.985400	3.330600	-9.941500	26.627156	0.000602	20.708740
1619.438800	-3.024100	3.329800	-10.069000	26.615607	0.000600	20.705190
1620.440602	-3.002900	3.329800	-9.997800	26.614314	0.000599	20.692509
1621.438215	-2.998500	3.329300	-9.982000	26.620976	0.000600	20.701578
1622.440478	-3.020100	3.328100	-10.051000	26.639409	0.000598	20.704936
1623.440882	-2.993900	3.330400	-9.969800	26.649134	0.000597	20.710920
1624.441498	-2.978200	3.328900	-9.912400	26.656428	0.000596	20.708295
1625.443859	-3.015000	3.327700	-10.032000	26.638155	0.000597	20.720746
1626.444158	-2.989800	3.328900	-9.952000	26.577007	0.000597	20.716649
1627.442714	-2.995300	3.328600	-9.968700	26.558577	0.000596	20.712347
1628.442158	-3.021800	3.326000	-10.049000	26.539733	0.000598	20.699568
1629.444928	-2.999800	3.328100	-9.982500	26.540857	0.000593	20.713975
1630.443299	-2.992900	3.326400	-9.952800	26.563693	0.000595	20.706109
1631.442007	-3.016300	3.325200	-10.029000	26.588366	0.000593	20.701988
1632.440715	-2.996200	3.326300	-9.964600	26.623936	0.000594	20.724470
1633.450844	-3.008400	3.325900	-10.005000	26.616098	0.000593	20.714694
1634.447395	-2.989400	3.324000	-9.936300	26.655367	0.000592	20.727619
1635.450470	-3.000500	3.324800	-9.975000	26.675191	0.000589	20.701079
1636.450179	-3.005600	3.323800	-9.988700	26.727771	0.000590	20.706999
1637.447582	-2.999200	3.323000	-9.965000	26.726551	0.000589	20.731378
1638.446946	-2.986400	3.323400	-9.923900	26.760638	0.000588	20.705430
1639.448439	-2.990300	3.322900	-9.934900	26.713306	0.000589	20.730865
1640.448542	-2.998100	3.323100	-9.961900	26.678444	0.000588	20.718101
1641.445343	-2.978700	3.322800	-9.896100	26.632101	0.000586	20.732204
1642.451986	-3.014500	3.321500	-10.011000	26.621520	0.000589	20.731999
1643.448454	-3.010100	3.321400	-9.996100	26.638850	0.000585	20.718125
1644.449018	-2.971500	3.321400	-9.868700	26.650145	0.000586	20.719523
1645.450203	-2.955300	3.322500	-9.818000	26.673971	0.000583	20.725932
1646.451887	-2.988300	3.321600	-9.925000	26.656773	0.000584	20.711012
1647.453897	-3.006700	3.319200	-9.978000	26.634157	0.000583	20.715779
1648.458961	-3.004200	3.320400	-9.974000	26.613526	0.000583	20.714952
1649.463547	-3.010100	3.320300	-9.992800	26.615062	0.000582	20.724084
1650.449996	-2.980100	3.319600	-9.891800	26.642249	0.000582	20.723439
1651.457058	-3.003500	3.318500	-9.965700	26.590209	0.000581	20.734663
1652.451829	-3.005300	3.318900	-9.973800	26.584500	0.000581	20.725604
1653.451485	-3.004200	3.318500	-9.968800	26.585745	0.000579	20.721166
1654.456685	-3.012000	3.317700	-9.991700	26.622550	0.000580	20.723077
1655.453724	-2.969300	3.318700	-9.852900	26.675833	0.000580	20.749142
1656.455330	-3.024400	3.315200	-10.026000	26.690964	0.000577	20.743491
1657.455258	-2.996600	3.317300	-9.940000	26.714643	0.000579	20.726993
1658.453145	-2.988800	3.316200	-9.910300	26.748600	0.000576	20.710870
1659.451216	-3.003300	3.314800	-9.954700	26.762155	0.000578	20.727819
1660.456745	-3.000600	3.315700	-9.947300	26.761285	0.000576	20.736427
1661.455534	-2.996200	3.314800	-9.930900	26.813753	0.000576	20.731334
1662.452132	-3.014400	3.313400	-9.986600	26.811590	0.000575	20.741013
1663.454709	-2.995400	3.313400	-9.923900	26.823851	0.000574	20.738168
1664.452850	-2.980400	3.314700	-9.877900	26.817516	0.000574	20.721840
1665.453688	-2.979700	3.312600	-9.869000	26.777188	0.000574	20.725863
1666.456429	-2.991500	3.312500	-9.907500	26.770960	0.000572	20.739991
1667.456779	-3.028000	3.310300	-10.020000	26.726497	0.000573	20.743178
1668.456224	-3.012400	3.311300	-9.973700	26.688888	0.000572	20.730498
1669.455104	-3.006000	3.311500	-9.953400	26.746694	0.000571	20.711799
1670.455413	-3.005900	3.310800	-9.950600	26.778777	0.000571	20.734575
1671.457770	-3.018900	3.310400	-9.992300	26.784641	0.000570	20.750902
1672.454849	-3.028100	3.309000	-10.020000	26.796975	0.000572	20.740543
1673.456811	-3.000300	3.308700	-9.926200	26.799746	0.000569	20.743804
1674.456105	-3.014200	3.310300	-9.977200	26.785647	0.000569	20.746698
1675.457147	-2.993500	3.309200	-9.905500	26.774825	0.000569	20.732023
1676.458904	-2.987100	3.308800	-9.883100	26.718703	0.000567	20.751464
1677.456180	-2.986700	3.309000	-9.881800	26.654331	0.000569	20.753605
1678.459960	-3.024000	3.308000	-10.003000	26.614444	0.000570	20.732473
1679.458669	-2.990100	3.309200	-9.894200	26.590053	0.000567	20.738774
1680.457615	-2.995800	3.307700	-9.908000	26.557230	0.000567	20.750824
1681.460855	-2.985900	3.308500	-9.878200	26.568234	0.000566	20.747661
1682.459918	-3.006700	3.307200	-9.941500	26.576904	0.000565	20.761593
1683.459818	-3.019400	3.306800	-9.983100	26.559043	0.000567	20.739844
1684.462883	-3.004200	3.305500	-9.929500	26.553300	0.000565	20.744977
1685.459122	-2.988400	3.305200	-9.876300	26.516639	0.000563	20.748428
1686.461103	-3.008100	3.304200	-9.938600	26.528991	0.000563	20.743774
1687.462147	-3.019900	3.305500	-9.980500	26.536538	0.000561	20.739033
1688.459023	-3.004600	3.303400	-9.924700	26.568156	0.000562	20.747108
1689.459827	-2.981400	3.303400	-9.847800	26.598125	0.000561	20.747362
1690.468159	-3.014900	3.303600	-9.956900	26.570067	0.000559	20.747607
1691.459213	-2.993800	3.303600	-9.889600	26.596384	0.000559	20.747509
1692.461427	-3.022300	3.301700	-9.977700	26.612387	0.000557	20.744630
1693.459843	-3.032400	3.301300	-10.010000	26.629158	0.000559	20.759593
1694.460342	-3.001500	3.301800	-9.908600	26.625011	0.000559	20.771545
1695.463546	-3.006400	3.300700	-9.922600	26.633889	0.000557	20.768617
1696.461090	-2.993500	3.301300	-9.881400	26.656709	0.000557	20.771169
1697.463665	-3.029900	3.299600	-9.996200	26.733829	0.000556	20.741066
1698.466491	-2.994300	3.300900	-9.881600	26.779429	0.000556	20.751826
1699.466837	-3.020300	3.298800	-9.962500	26.776672	0.000556	20.759960
1700.466746	-3.007000	3.300500	-9.922800	26.832003	0.000555	20.768651
1701.464942	-3.011000	3.298900	-9.931900	26.825669	0.000553	20.750427
1702.464961	-3.016800	3.298900	-9.951100	26.806164	0.000553	20.750731
1703.472866	-3.004600	3.297700	-9.906700	26.771762	0.000553	20.773515
1704.463291	-3.007700	3.297900	-9.918600	26.750272	0.000551	20.774669
1705.465594	-3.006500	3.297000	-9.911100	26.765835	0.000552	20.778936
1706.469930	-2.999200	3.296900	-9.887000	26.832256	0.000550	20.768431
1707.467084	-2.981600	3.297000	-9.830300	26.816067	0.000549	20.766852
1708.470380	-2.996800	3.297400	-9.880400	26.768446	0.000550	20.762120
1709.467385	-3.005100	3.295900	-9.902500	26.751288	0.000548	20.777113
1710.467072	-2.982000	3.296200	-9.828000	26.754803	0.000546	20.764526
1711.467872	-2.992200	3.295000	-9.858500	26.777080	0.000548	20.790717
1712.469831	-2.999900	3.296200	-9.886900	26.790489	0.000548	20.760576
1713.468404	-2.999600	3.296100	-9.886100	26.782944	0.000546	20.786181
1714.468783	-2.980200	3.296900	-9.824400	26.754876	0.000547	20.749425
1715.469469	-3.018200	3.294000	-9.941500	26.764080	0.000545	20.776697
1716.471349	-2.976200	3.295200	-9.804500	26.762942	0.000543	20.771760
1717.468829	-3.012600	3.294300	-9.922700	26.747151	0.000542	20.790971
1718.471452	-2.996400	3.293100	-9.866100	26.777032	0.000544	20.777391
1719.470125	-3.018400	3.292700	-9.937200	26.786921	0.000545	20.775954
1720.466279	-3.010500	3.291500	-9.907600	26.775471	0.000544	20.769184
1721.478240	-2.992800	3.292500	-9.852200	26.756908	0.000544	20.770435
1722.471624	-2.993200	3.290800	-9.849100	26.782686	0.000542	20.799672
1723.468915	-2.970500	3.292200	-9.778200	26.791734	0.000539	20.775104
1724.470090	-3.005300	3.289800	-9.885600	26.804214	0.000541	20.791919
1725.474160	-3.016500	3.290200	-9.923900	26.737645	0.000540	20.774302
1726.471402	-2.990700	3.290100	-9.838400	26.786546	0.000539	20.783639
1727.469927	-3.009800	3.288700	-9.897500	26.813354	0.000538	20.782143
1728.482656	-3.023800	3.288100	-9.941200	26.850258	0.000541	20.780368
1729.473727	-3.015100	3.287400	-9.910800	26.875762	0.000539	20.798425
1730.470032	-2.975000	3.288200	-9.781600	26.932658	0.000536	20.776453
1731.470318	-2.998400	3.287000	-9.854900	26.940095	0.000536	20.769233
1732.484066	-2.993600	3.288200	-9.842200	26.958811	0.000536	20.799432
1733.471964	-3.027400	3.285100	-9.944400	27.001465	0.000534	20.791118
1734.472629	-3.012700	3.286000	-9.898800	27.043282	0.000535	20.770108
1735.475083	-3.001000	3.286400	-9.861200	27.052191	0.000534	20.793767
1736.476291	-2.979100	3.287500	-9.793000	27.060887	0.000534	20.802986
1737.480659	-3.017800	3.284500	-9.909500	27.075838	0.000533	20.800479
1738.479857	-2.997800	3.284700	-9.846400	27.092028	0.000532	20.783570
1739.478929	-3.013800	3.284300	-9.897000	27.073364	0.000532	20.790878
1740.477730	-2.992300	3.285900	-9.830700	27.087119	0.000532	20.781004
1741.478903	-3.007500	3.285500	-9.880400	27.069976	0.000530	20.776565
1742.476114	-3.024000	3.283100	-9.927300	27.054670	0.000529	20.786777
1743.480224	-3.005700	3.284100	-9.869900	27.011235	0.000528	20.795727
1744.477046	-3.003400	3.282100	-9.856700	27.013194	0.000528	20.810973
1745.481803	-3.001200	3.283800	-9.854200	27.048181	0.000526	20.803485
1746.478666	-3.018200	3.281800	-9.904200	27.077981	0.000527	20.800263
1747.480360	-3.002000	3.282100	-9.851300	27.068430	0.000527	20.801564
1748.476675	-2.994000	3.281100	-9.822600	27.110765	0.000525	20.790086
1749.482002	-2.980900	3.282200	-9.782500	27.152179	0.000525	20.802341
1750.485991	-3.019300	3.280500	-9.902400	27.193931	0.000523	20.781747
1751.481211	-3.013400	3.280400	-9.884600	27.177033	0.000524	20.809795
1752.480690	-3.022300	3.278400	-9.907400	27.183609	0.000525	20.802659
1753.481400	-3.007900	3.279400	-9.862600	27.156747	0.000520	20.810729
1754.481562	-2.990300	3.279300	-9.805300	27.143790	0.000521	20.791533
1755.481736	-2.999400	3.277900	-9.831200	27.103294	0.000521	20.816238
1756.485211	-2.998900	3.278700	-9.831400	27.086118	0.000521	20.803705
1757.481751	-3.015900	3.276900	-9.881800	27.076373	0.000520	20.801490
1758.479228	-2.988800	3.277200	-9.793800	27.080810	0.000520	20.810221
1759.482251	-2.999200	3.277400	-9.827800	27.106910	0.000518	20.814185
1760.484337	-2.995800	3.276700	-9.814900	27.126444	0.000519	20.809649
1761.479080	-2.984800	3.277600	-9.781700	27.128466	0.000517	20.814053
1762.479465	-3.014100	3.275000	-9.870600	27.140456	0.000517	20.802879
1763.483733	-2.987000	3.276000	-9.784700	27.142342	0.000517	20.815206
1764.483588	-2.997600	3.274300	-9.812800	27.093457	0.000514	20.822465
1765.482015	-3.005000	3.274200	-9.837000	27.039627	0.000515	20.806735
1766.485153	-2.991900	3.274000	-9.794400	27.000021	0.000515	20.804839
1767.483588	-3.006600	3.274400	-9.843200	26.995510	0.000512	20.813579
1768.483162	-3.012500	3.272900	-9.857200	27.005499	0.000514	20.808451
1769.487437	-3.015800	3.272700	-9.869100	27.006948	0.000513	20.818442
1770.484031	-3.020400	3.273600	-9.886300	27.003273	0.000511	20.810005
1771.487165	-3.011200	3.272300	-9.852500	27.011629	0.000512	20.835951
1772.484562	-3.013700	3.273200	-9.861900	27.026488	0.000512	20.818178
1773.482157	-3.009100	3.272600	-9.846600	27.054933	0.000510	20.826869
1774.489101	-2.991300	3.270700	-9.782800	27.077724	0.000511	20.814229
1775.484514	-2.976400	3.273300	-9.740100	27.093632	0.000507	20.810787
1776.488123	-3.002900	3.269000	-9.815600	27.061125	0.000509	20.809864
1777.487657	-2.990500	3.270100	-9.777600	27.067594	0.000509	20.815896
1778.488727	-3.005400	3.270400	-9.827800	27.072863	0.000506	20.797487
1779.488926	-2.995300	3.269300	-9.791700	27.095654	0.000507	20.810924
1780.488774	-2.981700	3.269200	-9.746200	27.132500	0.000505	20.861256
1781.491398	-2.994600	3.270900	-9.793200	27.137579	0.000506	20.832701
1782.487379	-3.009000	3.267400	-9.830200	27.123013	0.000506	20.818999
1783.494023	-3.007500	3.268400	-9.827900	27.078166	0.000506	20.801397
1784.490095	-2.991300	3.268600	-9.776800	27.109851	0.000504	20.829944
1785.493771	-2.984400	3.267500	-9.750800	27.144908	0.000504	20.845287
1786.493724	-3.002000	3.267800	-9.809000	27.163440	0.000505	20.856813
1787.491819	-3.003000	3.266400	-9.807600	27.193766	0.000504	20.818090
1788.491734	-2.985800	3.266500	-9.752300	27.239094	0.000501	20.831914
1789.489925	-2.994000	3.265900	-9.777100	27.246325	0.000501	20.850092
1790.493433	-2.991100	3.264300	-9.763400	27.226249	0.000501	20.829426
1791.496690	-3.012800	3.266100	-9.838100	27.193576	0.000499	20.829279
1792.489146	-3.016600	3.263700	-9.843800	27.217788	0.000501	20.850786
1793.490679	-3.003100	3.262900	-9.797800	27.243186	0.000499	20.834133
1794.494970	-2.997000	3.263100	-9.777500	27.264048	0.000497	20.839471
1795.491034	-2.998100	3.263100	-9.780800	27.275191	0.000497	20.838351
1796.496576	-2.971500	3.263300	-9.695800	27.280270	0.000497	20.865743
1797.494722	-3.007900	3.263000	-9.813300	27.310933	0.000496	20.850596
1798.501091	-3.015400	3.261000	-9.833000	27.313436	0.000495	20.842682
1799.494620	-2.991600	3.262800	-9.759200	27.335662	0.000494	20.845600
1800.496546	-3.008500	3.260300	-9.807300	27.329802	0.000493	20.834016
1801.498831	-2.987100	3.261500	-9.742200	27.354978	0.000493	20.851280
1802.495162	-2.992200	3.261500	-9.757900	27.358700	0.000493	20.858343
1803.497407	-2.997100	3.261600	-9.773000	27.355872	0.000492	20.845067
1804.496243	-3.000800	3.259200	-9.779700	27.317731	0.000493	20.842736
1805.494263	-3.013500	3.257900	-9.815700	27.343753	0.000489	20.861799
1806.492798	-2.975100	3.260000	-9.697200	27.323329	0.000490	20.851686
1807.496806	-3.023300	3.257700	-9.848100	27.312862	0.000488	20.859174
1808.493017	-3.005800	3.258100	-9.792600	27.326653	0.000488	20.855977
1809.496526	-2.995200	3.257800	-9.756900	27.298264	0.000487	20.847810
1810.493463	-3.014200	3.256900	-9.815000	27.284220	0.000486	20.850752
1811.494885	-3.022500	3.255400	-9.838700	27.259043	0.000486	20.841548
1812.502441	-2.988300	3.256700	-9.731600	27.243234	0.000485	20.851251
1813.495310	-3.010100	3.256100	-9.799600	27.243526	0.000486	20.870509
1814.498098	-2.983000	3.257400	-9.715700	27.212146	0.000485	20.834680
1815.493994	-2.996900	3.255400	-9.755700	27.192760	0.000484	20.847424
1816.494399	-3.010800	3.254900	-9.798100	27.172961	0.000483	20.856906
1817.494412	-3.013800	3.254700	-9.807700	27.167522	0.000482	20.831997
1818.496906	-3.013600	3.253300	-9.803300	27.192979	0.000483	20.861393
1819.494280	-3.028000	3.252500	-9.846300	27.191239	0.000481	20.853006
1820.497365	-3.005100	3.253600	-9.776900	27.214606	0.000482	20.851852
1821.498355	-3.014100	3.253200	-9.804400	27.250709	0.000479	20.847863
1822.493829	-3.007400	3.252400	-9.779900	27.312070	0.000478	20.858852
1823.496410	-3.006700	3.251000	-9.774400	27.342611	0.000479	20.852116
1824.494731	-3.011100	3.251500	-9.789500	27.373312	0.000478	20.850757
1825.496229	-2.999900	3.251300	-9.751100	27.376344	0.000477	20.851911
1826.495154	-3.005700	3.250900	-9.770300	27.411562	0.000474	20.826175
1827.496071	-2.962100	3.251900	-9.630900	27.438257	0.000477	20.840703
1828.499050	-2.977600	3.251300	-9.680000	27.456710	0.000474	20.834138
1829.498396	-2.987900	3.249700	-9.709000	27.484930	0.000473	20.848303
1830.499173	-3.025700	3.251000	-9.835500	27.518002	0.000473	20.847438
1831.495829	-3.004000	3.249600	-9.760100	27.536867	0.000474	20.838444
1832.496833	-2.991500	3.249200	-9.719000	27.543912	0.000473	20.832730
1833.510732	-3.018700	3.248100	-9.804100	27.567921	0.000471	20.834602
1834.496380	-3.003600	3.249100	-9.756800	27.589200	0.000471	20.841314
1835.496777	-3.036200	3.247800	-9.860000	27.574096	0.000470	20.833703
1836.498343	-2.988500	3.247300	-9.703200	27.554522	0.000469	20.823966
1837.501655	-3.010100	3.246100	-9.770600	27.531251	0.000469	20.845121
1838.499022	-2.988400	3.248200	-9.706200	27.544121	0.000466	20.847165
1839.499566	-2.995600	3.247200	-9.727100	27.553473	0.000468	20.841402
1840.499135	-3.017500	3.244400	-9.789300	27.542682	0.000466	20.863735
1841.500793	-3.030000	3.244800	-9.830900	27.523686	0.000466	20.846994
1842.499338	-3.009100	3.245300	-9.764700	27.523458	0.000465	20.816419
1843.500692	-2.989200	3.244900	-9.698700	27.464076	0.000466	20.842497
1844.503127	-2.986000	3.245000	-9.687500	27.458698	0.000466	20.839930
1845.507640	-3.013000	3.243700	-9.772700	27.422699	0.000462	20.842120
1846.505478	-2.984400	3.243600	-9.678600	27.436148	0.000463	20.829099
1847.503809	-3.015500	3.242300	-9.775600	27.404536	0.000462	20.820530
1848.504075	-2.985000	3.243400	-9.680500	27.364837	0.000460	20.857879
1849.508388	-2.994600	3.242000	-9.708000	27.350984	0.000461	20.832090
1850.508862	-2.978400	3.242800	-9.657500	27.369983	0.000461	20.856892
1851.510493	-2.983500	3.240900	-9.668500	27.386120	0.000459	20.835668
1852.504596	-2.982200	3.242000	-9.667100	27.403253	0.000457	20.825877
1853.507149	-2.992700	3.241100	-9.698200	27.448995	0.000458	20.813574
1854.507014	-2.977900	3.241800	-9.651700	27.508620	0.000458	20.838948
1855.510266	-3.016300	3.239400	-9.769400	27.492198	0.000457	20.806305
1856.506552	-2.983600	3.239400	-9.663900	27.468464	0.000454	20.822255
1857.508780	-3.012500	3.240000	-9.758800	27.434384	0.000454	20.830643
1858.510345	-3.011900	3.237400	-9.749700	27.449238	0.000455	20.819508
1859.508765	-3.007700	3.236800	-9.734600	27.476451	0.000453	20.817015
1860.509988	-3.026000	3.236700	-9.792400	27.515820	0.000452	20.837657
1861.509081	-3.010500	3.236500	-9.743200	27.501648	0.000452	20.813916
1862.512699	-3.015600	3.237700	-9.761800	27.528365	0.000452	20.818985
1863.510124	-3.017100	3.235500	-9.760600	27.561436	0.000451	20.827129
1864.508975	-2.989400	3.236100	-9.671700	27.544932	0.000451	20.830912
1865.514006	-2.997400	3.234600	-9.693200	27.511642	0.000449	20.818755
1866.509693	-2.980400	3.234500	-9.639000	27.480173	0.000451	20.808432
1867.513217	-2.994200	3.236200	-9.689000	27.442494	0.000447	20.823155
1868.513538	-3.022500	3.232200	-9.768200	27.459339	0.000448	20.828722
1869.508912	-3.023500	3.233800	-9.776600	27.467434	0.000445	20.818848
1870.510382	-3.000500	3.233200	-9.700400	27.450263	0.000445	20.802048
1871.513037	-2.986800	3.233300	-9.655700	27.420415	0.000445	20.814693
1872.512189	-3.008800	3.231600	-9.720500	27.446240	0.000444	20.803690
1873.510208	-3.001300	3.232800	-9.701600	27.427592	0.000443	20.811482
1874.511869	-2.996600	3.231900	-9.683200	27.450817	0.000441	20.816355
1875.511830	-3.001000	3.231700	-9.697000	27.483171	0.000442	20.799594
1876.514791	-2.992100	3.231300	-9.666700	27.521281	0.000442	20.818970
1877.514113	-2.987900	3.231000	-9.653400	27.561737	0.000442	20.815578
1878.514600	-3.010700	3.229800	-9.723300	27.603847	0.000442	20.817646
1879.512418	-3.006800	3.229700	-9.710500	27.612184	0.000439	20.808965
1880.515552	-2.998900	3.231800	-9.691200	27.638718	0.000438	20.800576
1881.517285	-2.995800	3.229200	-9.672200	27.635988	0.000439	20.811106
1882.516388	-2.999600	3.227400	-9.679500	27.644795	0.000437	20.813804
1883.520906	-3.001200	3.228200	-9.686800	27.659063	0.000435	20.823419
1884.514493	-3.008500	3.227600	-9.709200	27.621006	0.000435	20.801720
1885.515090	-3.021900	3.225900	-9.746500	27.587558	0.000436	20.802678
1886.518014	-3.009400	3.226700	-9.708600	27.596512	0.000434	20.803152
1887.517837	-2.994400	3.225900	-9.659100	27.566644	0.000433	20.799653
1888.519877	-2.991000	3.225700	-9.646500	27.580164	0.000434	20.788126
1889.518068	-3.004200	3.224600	-9.686500	27.587728	0.000430	20.794789
1890.518360	-2.980500	3.225400	-9.612700	27.574592	0.000433	20.809072
1891.518522	-3.002200	3.225400	-9.681300	27.549785	0.000429	20.811140
1892.519245	-2.999000	3.224900	-9.670700	27.539077	0.000427	20.798944
1893.516992	-3.013400	3.224300	-9.714600	27.533437	0.000428	20.810338
1894.516894	-2.984600	3.225000	-9.624200	27.549955	0.000427	20.786655
1895.519111	-2.990300	3.224700	-9.641000	27.555489	0.000426	20.804076
1896.518507	-2.995900	3.223100	-9.655200	27.564841	0.000427	20.802581
1897.518402	-3.008900	3.222600	-9.695500	27.553895	0.000427	20.810534
1898.519025	-3.024100	3.221400	-9.740400	27.571803	0.000425	20.804370
1899.520134	-3.017800	3.221800	-9.721800	27.598737	0.000423	20.803495
1900.519592	-2.982100	3.222700	-9.609000	27.620374	0.000424	20.799662
1901.519218	-2.969900	3.222000	-9.568300	27.611436	0.000422	20.791142
1902.524465	-2.991100	3.219600	-9.629200	27.575005	0.000423	20.797160
1903.524828	-2.988000	3.220400	-9.621800	27.578206	0.000420	20.788053
1904.524274	-2.987700	3.220600	-9.620800	27.604741	0.000418	20.793889
1905.521188	-2.990400	3.219000	-9.624200	27.633219	0.000419	20.811164
1906.523628	-3.011400	3.219800	-9.694500	27.607787	0.000416	20.798377
1907.523860	-3.008900	3.218800	-9.684200	27.613296	0.000417	20.790644
1908.520248	-3.017100	3.218100	-9.708800	27.619651	0.000417	20.788503
1909.521272	-3.019000	3.217100	-9.710700	27.647210	0.000416	20.788258
1910.522998	-2.989000	3.216400	-9.612500	27.677066	0.000417	20.811663
1911.519988	-3.015700	3.215400	-9.695400	27.705444	0.000414	20.789485
1912.520411	-3.011700	3.216800	-9.687100	27.657358	0.000414	20.776658
1913.521802	-2.993500	3.215700	-9.625800	27.706289	0.000412	20.806457
1914.528339	-3.003300	3.214800	-9.654400	27.728508	0.000412	20.773813
1915.530582	-3.002700	3.215900	-9.654900	27.726356	0.000411	20.777812
1916.527310	-3.007800	3.213900	-9.665500	27.683113	0.000412	20.779816
1917.525456	-2.988600	3.214800	-9.606600	27.663493	0.000411	20.807488
1918.524453	-2.985800	3.213400	-9.593500	27.632995	0.000410	20.790551
1919.529031	-3.000500	3.212900	-9.639500	27.636789	0.000408	20.802429
1920.529998	-3.001300	3.212100	-9.638300	27.650455	0.000408	20.800532
1921.528658	-2.994800	3.211800	-9.617600	27.681870	0.000407	20.794212
1922.530080	-2.967200	3.213700	-9.534400	27.709573	0.000407	20.789373
1923.531227	-2.995500	3.213100	-9.624100	27.725651	0.000404	20.777103
1924.530064	-2.986400	3.210500	-9.585600	27.733953	0.000403	20.792095
1925.527872	-2.995300	3.210400	-9.614500	27.698177	0.000402	20.788336
1926.527257	-3.004600	3.211500	-9.648000	27.649327	0.000403	20.793708
1927.532972	-3.009600	3.209100	-9.657200	27.698420	0.000403	20.777675
1928.531517	-3.011700	3.209000	-9.663100	27.724238	0.000402	20.755291
1929.533112	-3.013600	3.209200	-9.670300	27.730193	0.000400	20.794950
1930.527218	-3.018200	3.208400	-9.683500	27.748919	0.000399	20.749308
1931.530661	-3.004500	3.207800	-9.635300	27.777067	0.000399	20.781903
1932.529829	-2.970200	3.209700	-9.531900	27.787457	0.000397	20.779083
1933.534706	-2.980200	3.208600	-9.560400	27.802665	0.000399	20.772576
1934.530351	-3.008100	3.206000	-9.642900	27.828747	0.000397	20.787921
1935.532135	-3.000400	3.206600	-9.620500	27.797637	0.000395	20.777000
1936.530828	-3.024900	3.204600	-9.692700	27.803087	0.000396	20.785804
1937.527195	-3.004700	3.205600	-9.630900	27.823817	0.000394	20.788649
1938.531934	-3.004400	3.205700	-9.630300	27.796491	0.000393	20.767312
1939.527083	-2.987900	3.204900	-9.575000	27.771049	0.000393	20.770157
1940.533895	-2.995100	3.204400	-9.596900	27.774298	0.000393	20.775798
1941.528094	-3.027700	3.203300	-9.697800	27.780219	0.000390	20.786498
1942.530577	-2.985700	3.203900	-9.564400	27.777101	0.000389	20.776248
1943.531878	-2.994200	3.203100	-9.589900	27.781798	0.000388	20.765327
1944.534157	-2.988300	3.203700	-9.573400	27.812763	0.000389	20.774204
1945.530980	-2.996700	3.201900	-9.592300	27.848870	0.000389	20.781146
1946.534771	-2.985900	3.203600	-9.564500	27.846806	0.000387	20.768637
1947.532766	-2.985200	3.201100	-9.555400	27.846092	0.000388	20.793997
1948.528395	-3.007000	3.200700	-9.623900	27.815818	0.000385	20.783443
1949.539896	-3.019700	3.198100	-9.655200	27.778524	0.000384	20.767722
1950.529877	-2.998200	3.198900	-9.589800	27.751707	0.000385	20.757330
1951.537302	-3.002200	3.199600	-9.605000	27.718142	0.000384	20.778555
1952.531397	-2.992400	3.198800	-9.571000	27.735998	0.000383	20.779928
1953.536572	-2.986400	3.200100	-9.554700	27.718807	0.000381	20.777328
1954.540423	-2.977700	3.199400	-9.525700	27.727939	0.000382	20.761387
1955.540730	-2.995200	3.198400	-9.578400	27.711992	0.000379	20.769047
1956.540430	-3.003100	3.196900	-9.599300	27.695428	0.000380	20.752852
1957.537707	-2.982400	3.198900	-9.538800	27.682730	0.000379	20.785594
1958.539111	-3.003700	3.195900	-9.598000	27.720959	0.000378	20.760053
1959.534800	-2.969800	3.197000	-9.492800	27.728109	0.000378	20.792379
1960.538448	-2.986200	3.195300	-9.539800	27.805079	0.000376	20.770738
1961.541200	-3.009100	3.194900	-9.612100	27.809499	0.000376	20.747211
1962.539411	-2.982100	3.194800	-9.526300	27.800741	0.000375	20.770167
1963.537545	-3.008900	3.192000	-9.603400	27.793407	0.000372	20.765630
1964.537728	-3.025400	3.192000	-9.656700	27.820563	0.000372	20.754553
1965.538525	-2.984500	3.194200	-9.531600	27.812398	0.000371	20.760561
1966.538954	-2.969900	3.193500	-9.483400	27.840472	0.000370	20.764159
1967.538954	-3.018600	3.191000	-9.630800	27.876437	0.000369	20.782338
1968.538507	-2.987600	3.191700	-9.534500	27.892003	0.000371	20.771452
1969.539841	-2.990400	3.191300	-9.542100	27.880444	0.000368	20.754602
1970.539535	-2.977900	3.192000	-9.504600	27.883523	0.000367	20.761969
1971.544496	-2.994100	3.190600	-9.552300	27.926418	0.000367	20.780960
1972.540113	-2.985600	3.189600	-9.521300	27.967873	0.000366	20.755829
1973.541934	-2.981100	3.189100	-9.505900	27.965940	0.000367	20.757677
1974.543696	-2.983600	3.189700	-9.516200	27.954790	0.000366	20.760678
1975.543711	-3.023400	3.189400	-9.640400	28.004990	0.000364	20.765215
1976.544194	-3.017500	3.187800	-9.618100	28.025148	0.000365	20.779816
1977.540353	-2.997800	3.188200	-9.556900	27.998793	0.000363	20.765141
1978.540342	-3.000200	3.187000	-9.560400	28.020364	0.000360	20.759828
1979.540642	-3.001300	3.188300	-9.567600	27.994311	0.000361	20.753991
1980.546935	-2.998100	3.186900	-9.553700	28.009011	0.000361	20.762150
1981.544119	-2.990900	3.187400	-9.531400	28.016339	0.000360	20.754353
1982.545574	-2.995500	3.184500	-9.538400	28.026464	0.000358	20.763597
1983.544419	-2.992600	3.184300	-9.527700	27.967640	0.000357	20.765552
1984.543614	-2.997900	3.184900	-9.546900	27.966299	0.000359	20.741443
1985.542727	-2.995600	3.183900	-9.536300	27.929919	0.000356	20.753189
1986.541333	-2.995700	3.182000	-9.531600	27.943532	0.000355	20.748873
1987.542422	-3.003200	3.182500	-9.556800	27.911255	0.000353	20.745783
1988.541206	-3.000000	3.182300	-9.545400	27.918647	0.000352	20.761759
1989.548080	-2.983200	3.181200	-9.487600	27.944620	0.000352	20.747597
1990.545285	-3.013400	3.181100	-9.585100	27.916258	0.000352	20.743706
1991.546703	-2.994700	3.180700	-9.523700	27.933227	0.000350	20.758889
1992.553261	-2.996800	3.181700	-9.533400	27.961108	0.000348	20.732423
1993.550099	-2.991400	3.180500	-9.513300	27.991606	0.000348	20.743207
1994.545748	-2.997700	3.180400	-9.533100	27.973463	0.000346	20.739644
1995.546796	-2.998700	3.178900	-9.531200	27.987983	0.000349	20.755682
1996.548930	-3.004600	3.178500	-9.549100	28.000702	0.000347	20.748096
1997.546411	-3.014300	3.177700	-9.577200	28.018286	0.000346	20.738769
1998.551560	-2.999700	3.178300	-9.533300	27.985880	0.000346	20.750721
1999.545631	-2.994800	3.176100	-9.510100	28.007622	0.000346	20.743681
2000.549810	-2.998300	3.177100	-9.525000	28.033748	0.000342	20.751962
2001.548480	-2.971300	3.176200	-9.436600	28.092214	0.000343	20.739692
2002.548876	-2.989300	3.176200	-9.493200	28.113011	0.000342	20.763949
2003.551520	-3.005400	3.175400	-9.543100	28.113929	0.000340	20.720774
2004.549230	-3.001500	3.175000	-9.528600	28.142019	0.000343	20.733406
2005.552138	-3.008900	3.174000	-9.549400	28.140198	0.000340	20.739160
2006.553396	-2.991500	3.174500	-9.494400	28.174435	0.000338	20.724788
2007.551272	-3.026300	3.171700	-9.596800	28.189171	0.000336	20.740572
2008.551240	-2.995000	3.172500	-9.500900	28.143301	0.000339	20.724739
2009.553493	-3.009800	3.170500	-9.541000	28.129448	0.000337	20.744933
2010.552813	-2.987600	3.171800	-9.475900	28.137868	0.000336	20.737287
2011.549297	-2.960900	3.171900	-9.390200	28.099643	0.000335	20.733421
2012.554890	-2.991100	3.172500	-9.488500	28.111914	0.000334	20.732971
2013.551935	-2.990100	3.169200	-9.475400	28.107058	0.000334	20.739463
2014.555530	-2.983900	3.171800	-9.463600	28.151055	0.000332	20.741555
2015.553703	-2.987900	3.169000	-9.466900	28.173663	0.000330	20.724010
2016.556124	-3.001200	3.169600	-9.512300	28.182903	0.000332	20.728097
2017.549577	-2.997000	3.169200	-9.497000	28.182791	0.000331	20.749323
2018.553808	-2.980800	3.169000	-9.445100	28.180378	0.000329	20.732668
2019.553767	-3.001500	3.167700	-9.506400	28.198916	0.000329	20.734261
2020.553546	-3.035300	3.165700	-9.607700	28.189991	0.000330	20.721957
2021.553392	-3.000800	3.166000	-9.499100	28.151395	0.000328	20.712972
2022.552677	-3.000400	3.166900	-9.500100	28.163437	0.000328	20.742640
2023.553834	-3.025100	3.164300	-9.570900	28.138523	0.000328	20.743163
2024.558321	-3.015500	3.163700	-9.538000	28.120203	0.000326	20.722822
2025.557222	-2.989600	3.164000	-9.458400	28.132662	0.000324	20.730150
2026.556487	-2.998300	3.166500	-9.493100	28.134488	0.000326	20.693579
2027.556654	-3.001100	3.163000	-9.491400	28.122640	0.000323	20.728122
2028.552656	-2.982100	3.162900	-9.430800	28.142121	0.000320	20.721654
2029.555909	-2.994000	3.162900	-9.469000	28.162738	0.000321	20.737669
2030.556865	-2.993900	3.162100	-9.466200	28.166156	0.000320	20.727833
2031.556983	-3.019800	3.158600	-9.537100	28.196177	0.000320	20.713011
2032.562002	-2.991900	3.159500	-9.451700	28.198891	0.000319	20.717641
2033.560315	-3.010600	3.159600	-9.511400	28.205160	0.000318	20.717787
2034.558387	-3.034600	3.158700	-9.583900	28.188943	0.000317	20.716634
2035.566626	-3.010400	3.159300	-9.508900	28.229421	0.000317	20.701909
2036.559817	-2.990400	3.156800	-9.437200	28.218313	0.000315	20.712537
2037.556685	-2.985700	3.158200	-9.427600	28.245400	0.000316	20.717523
2038.558650	-3.004700	3.156200	-9.481700	28.230533	0.000315	20.712987
2039.558470	-3.009800	3.157300	-9.501100	28.204931	0.000312	20.707600
2040.560642	-3.004900	3.155200	-9.480200	28.175056	0.000311	20.724465
2041.563191	-3.024800	3.155100	-9.542600	28.203096	0.000313	20.698639
2042.559477	-3.004000	3.156100	-9.480700	28.224979	0.000311	20.723991
2043.558800	-2.994700	3.154700	-9.447000	28.203412	0.000313	20.738788
2044.563759	-3.019200	3.154100	-9.521900	28.264636	0.000311	20.696111
2045.564775	-3.004300	3.152900	-9.470300	28.293241	0.000308	20.726811
2046.566237	-3.021400	3.152100	-9.523000	28.292324	0.000308	20.711188
2047.563400	-2.994200	3.151600	-9.436000	28.295863	0.000308	20.694361
2048.560935	-2.989300	3.151100	-9.418700	28.257644	0.000306	20.715152
2049.562011	-2.971800	3.152800	-9.367000	28.257392	0.000307	20.699724
2050.563271	-3.006400	3.150200	-9.469000	28.223158	0.000305	20.737331
2051.567263	-3.012400	3.149200	-9.485600	28.211049	0.000305	20.710440
2052.565763	-2.996800	3.150800	-9.440900	28.198163	0.000305	20.703156
2053.565992	-3.007300	3.147200	-9.463800	28.218235	0.000301	20.704398
2054.564635	-3.004800	3.146700	-9.454000	28.236520	0.000300	20.700047
2055.562399	-3.002100	3.148100	-9.450000	28.258533	0.000303	20.700873
2056.565044	-2.998900	3.145600	-9.432700	28.223707	0.000302	20.700423
2057.568238	-2.986400	3.147500	-9.398500	28.209253	0.000300	20.699147
2058.564203	-2.990100	3.145800	-9.405600	28.181757	0.000300	20.707976
2059.563547	-3.022200	3.143900	-9.500600	28.175925	0.000298	20.717753
2060.569788	-3.008500	3.145100	-9.460100	28.181058	0.000298	20.692098
2061.564637	-3.002500	3.142600	-9.434800	28.186675	0.000296	20.707712
2062.571287	-3.000800	3.143200	-9.430800	28.190516	0.000297	20.719166
2063.564341	-3.022700	3.141600	-9.493800	28.208063	0.000295	20.711701
2064.568702	-3.014900	3.141700	-9.470300	28.227688	0.000296	20.710122
2065.566541	-2.998000	3.141000	-9.415600	28.277924	0.000294	20.695740
2066.566459	-3.002700	3.139900	-9.427600	28.298111	0.000292	20.686193
2067.577648	-3.020800	3.139900	-9.484500	28.290494	0.000292	20.691800
2068.567197	-3.012500	3.139400	-9.456100	28.288819	0.000292	20.693433
2069.564931	-2.965000	3.140400	-9.309700	28.287537	0.000290	20.700678
2070.567647	-2.997000	3.139400	-9.408200	28.299058	0.000289	20.695207
2071.566204	-2.979800	3.141300	-9.359400	28.288508	0.000288	20.721572
2072.566840	-3.000000	3.137600	-9.411800	28.254552	0.000289	20.709194
2073.568931	-3.001500	3.136900	-9.414600	28.269346	0.000289	20.695638
2074.566846	-2.984700	3.136300	-9.360200	28.305971	0.000288	20.703117
2075.574722	-2.987200	3.136100	-9.367400	28.315307	0.000286	20.684067
2076.570035	-3.003800	3.135700	-9.417800	28.264025	0.000286	20.697867
2077.565439	-3.003900	3.134900	-9.415900	28.231398	0.000286	20.695838
2078.576694	-3.014500	3.133800	-9.445700	28.228825	0.000285	20.697041
2079.566268	-3.005300	3.132400	-9.411800	28.204277	0.000283	20.705044
2080.568409	-3.009200	3.131900	-9.422900	28.181607	0.000283	20.687435
2081.569011	-3.014000	3.130900	-9.434900	28.140937	0.000283	20.684898
2082.570910	-3.000900	3.131600	-9.395300	28.104850	0.000280	20.712582
2083.573401	-2.996200	3.131700	-9.381000	28.086048	0.000282	20.715940
2084.569973	-2.989400	3.130700	-9.357200	28.087655	0.000280	20.693375
2085.567346	-3.015900	3.130100	-9.437700	28.096833	0.000278	20.691234
2086.568445	-2.985900	3.130100	-9.345500	28.120179	0.000282	20.711893
2087.568712	-2.995600	3.127300	-9.366900	28.170527	0.000277	20.700937
2088.569266	-3.002600	3.127600	-9.389900	28.209171	0.000277	20.703333
2089.571323	-2.998200	3.128000	-9.377500	28.215415	0.000278	20.697291
2090.568052	-2.996100	3.127000	-9.367600	28.212929	0.000277	20.700952
2091.571150	-2.991000	3.125600	-9.347500	28.180942	0.000276	20.682498
2092.569003	-3.000500	3.125000	-9.375200	28.174023	0.000273	20.728641
2093.570611	-2.985300	3.124900	-9.327500	28.188104	0.000275	20.697296
2094.571439	-2.993600	3.123400	-9.349400	28.189818	0.000272	20.706134
2095.568917	-2.986400	3.123300	-9.325800	28.175169	0.000273	20.682376
2096.569278	-2.993900	3.122000	-9.345600	28.208283	0.000272	20.701016
2097.570354	-3.010400	3.120600	-9.393400	28.208681	0.000271	20.688139
2098.570974	-2.962300	3.123100	-9.249500	28.175402	0.000272	20.694939
2099.570632	-2.984600	3.120600	-9.313200	28.172926	0.000273	20.712362
2100.567920	-3.019300	3.118100	-9.412000	28.161525	0.000270	20.699936
2101.573771	-2.991400	3.120300	-9.333300	28.145584	0.000269	20.705225
2102.573689	-2.996700	3.117800	-9.342100	28.096891	0.000267	20.699828
2103.574450	-2.988600	3.118300	-9.318500	28.064668	0.000267	20.685881
2104.574327	-2.994700	3.117600	-9.334600	28.048279	0.000268	20.706369
2105.575157	-2.976700	3.117400	-9.277700	28.082071	0.000267	20.720947
2106.569605	-2.994000	3.114600	-9.323600	28.116664	0.000266	20.706457
2107.573459	-3.000000	3.114200	-9.341700	28.153013	0.000265	20.694685
2108.569218	-2.977100	3.115000	-9.273000	28.209822	0.000263	20.701143
2109.573577	-2.992100	3.113100	-9.314200	28.301705	0.000263	20.703089
2110.574533	-3.005800	3.113000	-9.356300	28.288616	0.000262	20.707929
2111.576895	-2.997800	3.112200	-9.327100	28.237128	0.000261	20.704927
2112.574825	-3.001800	3.111900	-9.339200	28.227816	0.000260	20.694128
2113.575846	-2.991300	3.110900	-9.304900	28.195222	0.000262	20.717266
2114.576060	-2.986300	3.110300	-9.286900	28.150770	0.000259	20.695272
2115.578517	-2.981700	3.110300	-9.271800	28.122923	0.000259	20.689049
2116.577264	-2.986500	3.108800	-9.283400	28.108045	0.000258	20.708687
2117.578758	-3.007600	3.107300	-9.344100	28.095061	0.000258	20.711737
2118.579656	-2.997900	3.106000	-9.310000	28.134237	0.000256	20.694275
2119.576455	-3.007700	3.106300	-9.341600	28.153878	0.000256	20.718791
2120.584387	-3.005100	3.105300	-9.329400	28.142793	0.000257	20.714269
2121.574977	-3.019200	3.104000	-9.370400	28.134534	0.000255	20.702635
2122.579195	-3.004100	3.103800	-9.323000	28.142021	0.000256	20.703060
2123.578663	-2.992700	3.102900	-9.284300	28.103413	0.000255	20.705920
2124.581212	-2.995700	3.102100	-9.292100	28.080236	0.000252	20.702503
2125.581614	-2.976400	3.101600	-9.231500	28.100796	0.000252	20.701388
2126.583491	-3.007300	3.099400	-9.320500	28.129999	0.000251	20.698069
2127.586506	-3.001200	3.100100	-9.303600	28.159069	0.000250	20.712163
2128.578025	-3.003000	3.099800	-9.307800	28.168154	0.000250	20.718939
2129.583849	-2.989900	3.099500	-9.266700	28.218752	0.000250	20.699228
2130.579837	-2.993000	3.097800	-9.270400	28.251102	0.000249	20.718997
2131.585625	-3.004700	3.096600	-9.302500	28.262361	0.000250	20.708047
2132.596155	-3.023100	3.096000	-9.359100	28.311241	0.000249	20.697517
2133.580771	-3.007500	3.095200	-9.308000	28.335272	0.000248	20.704171
2134.584351	-2.993100	3.096100	-9.265700	28.401425	0.000248	20.691123
2135.585662	-3.001900	3.093600	-9.285800	28.407993	0.000246	20.717179
2136.589650	-2.981800	3.094400	-9.226200	28.381280	0.000245	20.703081
2137.581919	-3.028200	3.091100	-9.359200	28.341156	0.000246	20.704880
2138.586685	-3.006900	3.092100	-9.296300	28.286083	0.000245	20.712491
2139.587366	-2.999200	3.092800	-9.274700	28.252297	0.000245	20.726365
2140.585396	-3.003900	3.092100	-9.286800	28.241766	0.000243	20.714813
2141.583601	-2.977100	3.089500	-9.196600	28.252069	0.000245	20.723764
2142.584251	-2.989800	3.090100	-9.237200	28.284205	0.000245	20.712971
2143.580421	-3.002700	3.088100	-9.270200	28.341778	0.000244	20.700290
2144.584110	-3.026200	3.086900	-9.339400	28.336321	0.000242	20.710918
2145.583926	-2.972300	3.086900	-9.173300	28.360760	0.000241	20.722723
2146.583225	-2.995400	3.084900	-9.239800	28.413416	0.000244	20.719321
2147.586790	-3.002900	3.084800	-9.262500	28.427533	0.000241	20.706508
2148.584545	-2.986300	3.085700	-9.214100	28.395586	0.000241	20.725075
2149.583653	-2.992200	3.084800	-9.229600	28.374819	0.000241	20.733087
2150.588408	-2.998300	3.081700	-9.238400	28.386193	0.000240	20.724151
2151.585029	-2.998100	3.082900	-9.240600	28.365717	0.000239	20.735776
2152.586789	-3.008700	3.082200	-9.272400	28.395373	0.000240	20.730550
2153.585990	-2.996900	3.079500	-9.228100	28.426043	0.000238	20.714018
2154.589394	-2.982700	3.079000	-9.181200	28.484366	0.000236	20.717747
2155.585704	-2.959600	3.080900	-9.115700	28.481565	0.000238	20.741481
2156.586757	-3.012900	3.077800	-9.272200	28.496249	0.000237	20.728292
2157.590281	-2.997100	3.076200	-9.217500	28.416155	0.000236	20.748159
2158.591030	-3.008100	3.076200	-9.252900	28.409718	0.000238	20.725080
2159.591235	-2.998900	3.076100	-9.223800	28.392335	0.000234	20.742190
2160.592134	-3.030500	3.073300	-9.312800	28.407704	0.000234	20.726371
2161.595174	-2.980700	3.075000	-9.164900	28.397611	0.000234	20.734227
2162.590189	-2.981000	3.073800	-9.161700	28.380174	0.000234	20.730419
2163.594704	-2.990800	3.071300	-9.185000	28.387000	0.000232	20.753414
2164.594930	-3.009400	3.070100	-9.238200	28.408393	0.000231	20.747455
2165.599132	-3.029100	3.068000	-9.291300	28.456727	0.000230	20.716467
2166.597862	-2.998200	3.069000	-9.200600	28.523344	0.000229	20.719068
2167.599052	-2.989100	3.067300	-9.167000	28.539667	0.000231	20.728395
2168.598882	-3.016200	3.067600	-9.250800	28.589874	0.000230	20.727750
2169.600271	-3.014900	3.067500	-9.247900	28.668673	0.000229	20.745949
2170.598358	-3.023400	3.063800	-9.262500	28.712516	0.000229	20.740323
2171.599628	-2.997200	3.064200	-9.182500	28.728943	0.000231	20.726049
2172.596251	-2.970700	3.063900	-9.100600	28.768882	0.000229	20.725501
2173.600062	-2.998000	3.062700	-9.181500	28.827647	0.000230	20.740602
2174.609159	-3.010000	3.061600	-9.213800	28.828321	0.000227	20.746023
2175.597319	-3.005800	3.060800	-9.199400	28.799672	0.000229	20.740871
2176.596371	-2.979000	3.060200	-9.115700	28.751043	0.000227	20.754475
2177.601369	-2.999300	3.059100	-9.174400	28.690837	0.000225	20.712796
2178.602148	-2.993600	3.058800	-9.154800	28.624134	0.000226	20.747558
2179.607465	-2.965700	3.058500	-9.069700	28.563184	0.000227	20.728845
2180.597704	-2.981400	3.056800	-9.112600	28.551981	0.000227	20.746962
2181.605042	-3.006000	3.054900	-9.181600	28.558078	0.000225	20.730341
2182.603435	-2.986500	3.054700	-9.121600	28.564222	0.000226	20.731314
2183.600889	-3.008200	3.053300	-9.183100	28.547744	0.000224	20.734633
2184.602307	-3.004700	3.053100	-9.172600	28.518179	0.000227	20.739473
2185.604964	-3.010800	3.050700	-9.184100	28.536697	0.000223	20.738206
2186.605698	-3.003400	3.049900	-9.159300	28.522733	0.000225	20.727936
2187.603228	-3.027700	3.048600	-9.229500	28.522548	0.000224	20.732018
2188.602785	-2.991500	3.046900	-9.114200	28.491211	0.000222	20.746928
2189.601722	-2.991500	3.046600	-9.113200	28.490546	0.000224	20.747680
2190.603038	-2.988200	3.047200	-9.104500	28.501681	0.000223	20.729496
2191.603155	-2.992900	3.045500	-9.113600	28.499531	0.000223	20.742030
2192.604884	-2.998100	3.044300	-9.126100	28.492541	0.000223	20.748267
2193.601665	-2.992500	3.043000	-9.105000	28.521116	0.000223	20.735792
2194.608190	-3.005800	3.041700	-9.142200	28.574357	0.000220	20.756695
2195.609951	-2.987400	3.041600	-9.085500	28.577556	0.000221	20.728621
2196.605951	-2.990600	3.041300	-9.094500	28.542522	0.000221	20.727951
2197.610047	-2.985800	3.039300	-9.072800	28.544881	0.000220	20.750717
2198.605590	-3.015700	3.037800	-9.159400	28.570460	0.000220	20.749925
2199.607610	-3.011600	3.036000	-9.142600	28.617166	0.000221	20.737694
2200.611073	-3.000200	3.034800	-9.103100	28.652993	0.000221	20.771409
2201.610407	-3.010900	3.033000	-9.131000	28.641646	0.000218	20.756661
2202.605466	-2.987800	3.033700	-9.062600	28.697618	0.000220	20.736222
2203.607254	-3.012100	3.031200	-9.129500	28.739189	0.000219	20.763871
2204.607911	-2.996000	3.031700	-9.082600	28.782218	0.000219	20.757428
2205.608233	-2.988100	3.028500	-9.046600	28.814599	0.000220	20.752115
2206.609077	-3.031400	3.028300	-9.177300	28.805622	0.000218	20.763935
2207.608793	-2.998400	3.027700	-9.077800	28.782014	0.000218	20.744421
2208.608325	-3.001700	3.026800	-9.084900	28.761570	0.000216	20.736629
2209.610193	-3.020500	3.023900	-9.132100	28.718457	0.000215	20.759110
2210.611973	-3.031500	3.023100	-9.163800	28.707339	0.000217	20.752653
2211.611423	-3.001000	3.023200	-9.071000	28.731914	0.000217	20.739474
2212.609940	-2.999200	3.022200	-9.063300	28.748448	0.000217	20.766086
2213.609729	-3.034200	3.019800	-9.161700	28.771164	0.000215	20.748190
2214.611104	-3.018000	3.019200	-9.111500	28.789269	0.000217	20.772118
2215.609534	-2.996400	3.019200	-9.045000	28.784523	0.000215	20.761173
2216.611324	-3.023100	3.016200	-9.117400	28.783004	0.000217	20.759169
2217.608864	-2.971800	3.018200	-8.968400	28.814168	0.000218	20.752154
2218.612761	-2.985200	3.016600	-9.004100	28.840584	0.000217	20.758377
2219.612914	-2.978100	3.014700	-8.977300	28.850770	0.000215	20.756309
2220.606297	-3.010800	3.011900	-9.066800	28.870495	0.000217	20.760533
2221.607750	-2.986800	3.012500	-8.996300	28.897356	0.000216	20.749187
2222.611093	-3.013000	3.010100	-9.068100	28.918730	0.000216	20.769298
2223.607954	-3.010400	3.008700	-9.055500	28.933548	0.000215	20.750560
2224.609573	-3.004700	3.007000	-9.034500	28.936047	0.000214	20.773941
2225.610110	-3.013200	3.005800	-9.056500	28.915721	0.000214	20.766741
2226.606621	-3.014100	3.004900	-9.055300	28.851037	0.000214	20.762742
2227.612266	-3.040200	3.002400	-9.126300	28.801866	0.000215	20.776747
2228.610058	-2.995300	3.003000	-8.994300	28.748001	0.000213	20.780335
2229.611433	-2.982800	3.002300	-8.954200	28.750510	0.000214	20.770060
2230.610965	-3.001800	3.001000	-9.006800	28.763414	0.000213	20.757927
2231.615160	-2.986400	2.999100	-8.955200	28.833524	0.000213	20.768808
2232.614022	-2.978400	2.997200	-8.925900	28.890393	0.000215	20.780580
2233.617682	-2.981000	2.996900	-8.932800	28.897439	0.000212	20.781039
2234.615239	-2.997800	2.993600	-8.973300	28.870586	0.000212	20.769635
2235.616054	-2.999000	2.992700	-8.974700	28.838726	0.000212	20.782584
2236.617814	-2.992600	2.992100	-8.953600	28.800066	0.000215	20.773985
2237.613296	-2.994600	2.991300	-8.956100	28.821524	0.000212	20.776634
2238.619053	-2.994100	2.990200	-8.951400	28.832607	0.000211	20.771204
2239.615788	-2.991000	2.989200	-8.939300	28.845602	0.000215	20.785243
2240.613458	-2.994200	2.986700	-8.941100	28.875909	0.000212	20.765514
2241.614507	-3.017000	2.986400	-9.008400	28.847776	0.000212	20.777001
2242.617435	-3.012100	2.983700	-8.986100	28.865166	0.000213	20.785986
2243.615939	-2.990100	2.984500	-8.923500	28.889423	0.000212	20.773912
2244.617858	-2.998200	2.982700	-8.941400	28.900573	0.000213	20.796524
2245.617342	-2.997700	2.981600	-8.936800	28.865249	0.000211	20.781327
2246.618354	-2.980500	2.978800	-8.877500	28.891077	0.000212	20.777001
2247.620945	-2.994600	2.979200	-8.921300	28.898739	0.000213	20.781400
2248.616637	-3.008200	2.976300	-8.952300	28.929185	0.000213	20.778409
2249.617739	-3.025600	2.974300	-8.997600	28.927570	0.000213	20.773936
2250.614340	-2.981400	2.974000	-8.865600	28.914741	0.000211	20.772865
2251.621266	-2.994000	2.973500	-8.901500	28.959403	0.000213	20.785145
2252.620402	-2.992400	2.971200	-8.889700	28.970179	0.000212	20.777509
2253.621680	-2.984300	2.970100	-8.862800	28.951800	0.000211	20.777011
2254.622177	-3.004200	2.967200	-8.911900	28.966113	0.000212	20.772939
2255.625070	-3.002300	2.967000	-8.907000	28.956710	0.000212	20.785751
2256.620460	-2.990500	2.964900	-8.864600	28.957244	0.000211	20.794349
2257.617719	-2.988900	2.963400	-8.856600	28.956409	0.000214	20.814845
2258.621682	-2.990600	2.961700	-8.855400	28.996980	0.000212	20.755673
2259.622398	-2.992800	2.960700	-8.859800	29.017774	0.000210	20.818350
2260.630699	-3.022200	2.957100	-8.935900	29.013757	0.000210	20.783009
2261.624559	-3.031600	2.955100	-8.956300	29.029117	0.000210	20.795166
2262.626074	-3.023500	2.955200	-8.933900	29.069579	0.000207	20.778561
2263.625154	-3.011200	2.953900	-8.893800	29.073654	0.000209	20.781718
2264.624157	-2.975400	2.953700	-8.787200	29.030471	0.000210	20.772822
2265.624207	-2.992200	2.951400	-8.829900	29.012928	0.000209	20.772690
2266.620085	-3.018000	2.949400	-8.899800	28.992546	0.000209	20.792932
2267.630240	-2.991200	2.948800	-8.819300	28.965784	0.000210	20.784461
2268.623658	-2.988600	2.946600	-8.805500	28.938667	0.000209	20.797918
2269.619799	-2.971800	2.945700	-8.752300	28.933732	0.000208	20.796266
2270.624205	-2.998000	2.943400	-8.822600	28.936605	0.000209	20.792996
2271.623424	-3.022400	2.940600	-8.886000	28.955527	0.000208	20.810163
2272.622392	-3.005100	2.940000	-8.833900	28.951476	0.000208	20.804185
2273.624717	-2.985800	2.940100	-8.777800	28.884702	0.000207	20.786700
2274.625080	-2.982700	2.936800	-8.758400	28.889433	0.000207	20.802846
2275.623662	-3.013600	2.934800	-8.842600	28.854497	0.000207	20.788514
2276.626626	-2.995300	2.934900	-8.790600	28.839818	0.000209	20.790796
2277.624511	-2.982500	2.933300	-8.747700	28.837106	0.000206	20.793754
2278.629928	-2.980200	2.931300	-8.735100	28.820161	0.000207	20.796599
2279.626224	-3.004200	2.928500	-8.797200	28.813848	0.000207	20.796403
2280.626365	-3.003200	2.926600	-8.788000	28.841934	0.000206	20.789135
2281.627694	-2.989800	2.925000	-8.744100	28.875644	0.000208	20.801282
2282.623159	-2.985400	2.925000	-8.731300	28.904630	0.000208	20.820527
2283.628448	-2.981400	2.922900	-8.712400	28.936707	0.000209	20.807324
2284.626734	-3.001400	2.920500	-8.764500	28.974009	0.000208	20.784213
2285.627787	-3.031100	2.917600	-8.842700	28.938614	0.000206	20.806874
2286.625507	-3.020100	2.915400	-8.803800	28.919609	0.000207	20.812383
2287.629972	-3.023400	2.914500	-8.811400	28.884261	0.000209	20.825610
2288.629176	-3.015600	2.913900	-8.784900	28.892107	0.000209	20.810281
2289.629622	-2.996800	2.912400	-8.726900	28.904126	0.000207	20.803897
2290.627489	-3.005200	2.909600	-8.743100	28.940958	0.000207	20.812554
2291.631232	-2.998300	2.909200	-8.720600	28.991169	0.000207	20.808614
2292.632665	-2.998400	2.907200	-8.716100	29.043033	0.000207	20.810135
2293.630503	-2.985300	2.905900	-8.673500	29.054968	0.000207	20.832591
2294.630187	-2.998500	2.901800	-8.700700	29.078570	0.000207	20.798525
2295.626789	-2.986600	2.902200	-8.666800	29.122551	0.000206	20.829565
2296.626740	-3.034000	2.898200	-8.792500	29.145375	0.000207	20.811313
2297.634283	-2.999600	2.897300	-8.689800	29.202795	0.000208	20.817491
2298.626587	-2.990100	2.896700	-8.660900	29.168349	0.000208	20.813126
2299.632826	-3.025400	2.893400	-8.752600	29.078497	0.000205	20.815047
2300.626886	-2.997900	2.892000	-8.669000	29.019843	0.000206	20.798623
2301.627707	-2.988500	2.891400	-8.639500	29.025044	0.000209	20.813821
2302.632510	-3.029500	2.887700	-8.746500	29.018276	0.000206	20.817433
2303.633266	-2.984900	2.887500	-8.617900	29.062643	0.000206	20.837479
2304.633934	-3.011000	2.883700	-8.680600	29.105528	0.000207	20.821422
2305.630181	-3.005600	2.883600	-8.666500	29.092110	0.000205	20.825445
2306.629741	-3.013900	2.879600	-8.677900	29.071404	0.000207	20.821177
2307.631371	-2.967500	2.880400	-8.546100	29.065141	0.000207	20.842367
2308.634192	-3.002600	2.878100	-8.639400	29.062536	0.000209	20.826466
2309.633466	-2.991000	2.875400	-8.599200	29.074732	0.000206	20.825953
2310.634319	-2.994700	2.873400	-8.602600	29.083794	0.000206	20.801893
2311.634279	-2.996700	2.870800	-8.602200	29.082446	0.000208	20.828035
2312.633516	-2.986500	2.869900	-8.568600	29.134290	0.000208	20.833808
2313.633687	-2.985400	2.868000	-8.559800	29.148334	0.000204	20.826622
2314.632768	-2.985800	2.865800	-8.555900	29.235949	0.000205	20.840470
2315.630437	-3.009200	2.863400	-8.614500	29.275000	0.000205	20.830988
2316.633470	-2.995900	2.862900	-8.576400	29.293568	0.000206	20.823147
2317.633457	-3.011900	2.858900	-8.609400	29.261186	0.000205	20.823704
2318.630576	-2.995500	2.857800	-8.559800	29.268195	0.000204	20.835983
2319.634577	-3.000500	2.853900	-8.561100	29.304966	0.000205	20.830841
2320.637463	-2.970500	2.854300	-8.477000	29.267618	0.000204	20.839669
2321.638546	-3.009100	2.851500	-8.578800	29.259256	0.000204	20.826974
2322.636428	-3.005700	2.849100	-8.562500	29.241571	0.000204	20.841394
2323.636738	-2.984000	2.846700	-8.493600	29.243656	0.000204	20.836384
2324.636772	-3.010200	2.843900	-8.559700	29.219020	0.000205	20.835264
2325.636457	-2.985600	2.840500	-8.480300	29.193840	0.000204	20.855882
2326.633825	-3.013700	2.841500	-8.562500	29.155872	0.000204	20.819520
2327.636946	-2.995400	2.837300	-8.497900	29.161048	0.000206	20.853658
2328.636656	-3.036000	2.834100	-8.603300	29.212467	0.000204	20.833876
2329.638846	-2.968100	2.834000	-8.410300	29.261763	0.000205	20.843725
2330.636240	-2.983800	2.831700	-8.448000	29.296734	0.000204	20.849097
2331.636503	-3.003000	2.828700	-8.492900	29.331753	0.000203	20.850250
2332.637985	-3.026400	2.826800	-8.553900	29.370369	0.000204	20.827531
2333.637282	-3.009400	2.822500	-8.492900	29.392538	0.000202	20.838495
2334.638183	-2.997300	2.822400	-8.458300	29.391728	0.000203	20.807807
2335.643584	-3.020200	2.818200	-8.510600	29.395938	0.000203	20.813947
2336.640974	-3.031400	2.816900	-8.538100	29.406806	0.000205	20.836281
2337.639087	-3.012200	2.814400	-8.476700	29.370267	0.000204	20.836911
2338.636374	-3.021700	2.811600	-8.494000	29.315936	0.000204	20.809181
2339.637642	-3.025200	2.809200	-8.496400	29.287295	0.000205	20.816826
2340.645105	-2.990600	2.808800	-8.398900	29.275005	0.000204	20.837155
2341.642794	-3.000800	2.805800	-8.418300	29.283929	0.000204	20.808218
2342.644202	-2.983600	2.804000	-8.364600	29.307186	0.000206	20.831656
2343.639462	-2.993200	2.801000	-8.383000	29.299998	0.000204	20.817774
2344.641212	-2.982300	2.798100	-8.344300	29.299237	0.000204	20.813213
2345.644186	-2.990800	2.796400	-8.362200	29.337839	0.000204	20.809919
2346.644490	-2.980200	2.793800	-8.325000	29.396005	0.000207	20.817808
2347.641176	-3.015100	2.792300	-8.417600	29.446365	0.000205	20.804556
2348.641275	-3.013600	2.787600	-8.399600	29.415026	0.000205	20.815168
2349.642455	-2.988000	2.787800	-8.328200	29.401238	0.000205	20.824505
2350.641186	-3.009800	2.782400	-8.373000	29.402227	0.000205	20.807010
2351.645463	-2.979000	2.779900	-8.279700	29.427533	0.000203	20.799800
2352.642584	-2.983900	2.776600	-8.283500	29.473876	0.000205	20.800519
2353.643304	-3.025300	2.773600	-8.389500	29.509830	0.000205	20.802146
2354.645278	-3.012900	2.770800	-8.346300	29.549244	0.000205	20.829075
2355.643323	-3.019400	2.767900	-8.355900	29.572486	0.000204	20.799873
2356.645251	-2.980000	2.767000	-8.243900	29.534978	0.000204	20.793832
2357.643727	-2.998600	2.763700	-8.286400	29.553405	0.000204	20.797708
2358.648719	-2.991800	2.759700	-8.254500	29.564092	0.000205	20.804214
2359.647445	-2.990100	2.757300	-8.243700	29.588779	0.000205	20.803495
2360.647406	-3.017400	2.752900	-8.304500	29.592144	0.000204	20.786499
2361.648035	-2.992000	2.750000	-8.226800	29.538741	0.000204	20.798099
2362.648211	-3.008100	2.747000	-8.262400	29.544240	0.000205	20.805539
2363.648256	-2.977500	2.746600	-8.177200	29.565309	0.000204	20.779836
2364.648234	-3.025100	2.740600	-8.289600	29.609547	0.000201	20.803569
2365.650509	-3.029400	2.737000	-8.289700	29.649088	0.000206	20.790326
2366.650194	-3.000000	2.735600	-8.205800	29.700052	0.000206	20.798084
2367.654188	-3.016900	2.732200	-8.241600	29.661802	0.000204	20.795557
2368.651065	-3.001500	2.728500	-8.189200	29.653855	0.000205	20.771424
2369.646252	-3.011500	2.724800	-8.205000	29.633834	0.000203	20.793914
2370.651594	-2.974600	2.723300	-8.098600	29.640443	0.000203	20.800103
2371.650798	-3.019900	2.718900	-8.209800	29.599160	0.000205	20.789779
2372.653651	-3.003800	2.716200	-8.157700	29.605638	0.000203	20.762644
2373.657611	-2.979800	2.712400	-8.081200	29.625572	0.000205	20.778947
2374.653499	-3.015000	2.707900	-8.162500	29.621145	0.000205	20.790605
2375.651693	-2.989700	2.703900	-8.082700	29.587547	0.000206	20.780442
2376.652523	-3.001800	2.701200	-8.107100	29.583915	0.000206	20.799541
2377.651622	-3.014900	2.697200	-8.129900	29.618842	0.000205	20.775955
2378.655870	-3.013400	2.692800	-8.113900	29.639342	0.000207	20.791881
2379.651848	-3.019700	2.689600	-8.120500	29.686771	0.000205	20.763832
2380.660600	-2.979400	2.686500	-8.003100	29.677787	0.000207	20.790810
2381.653362	-2.986400	2.684100	-8.015600	29.664400	0.000204	20.773046
2382.653424	-3.007200	2.677800	-8.051600	29.699576	0.000206	20.787173
2383.661737	-2.991800	2.674200	-8.000000	29.710636	0.000204	20.778409
2384.656399	-3.008800	2.670600	-8.034500	29.719484	0.000203	20.764570
2385.657506	-3.007500	2.666800	-8.019800	29.691630	0.000203	20.777265
2386.659566	-2.997800	2.663600	-7.984300	29.727469	0.000205	20.766457
2387.659746	-3.007800	2.658900	-7.996500	29.724948	0.000203	20.774346
2388.658607	-2.994500	2.654700	-7.948300	29.750173	0.000203	20.779865
2389.662931	-2.984900	2.651100	-7.912500	29.821605	0.000205	20.782187
2390.655610	-3.022300	2.645500	-7.994900	29.809378	0.000206	20.755160
2391.655960	-3.007800	2.641200	-7.942300	29.827597	0.000205	20.751244
2392.661139	-3.000700	2.637400	-7.912800	29.817818	0.000205	20.773628
2393.659800	-2.988500	2.631500	-7.863200	29.840196	0.000203	20.772958
2394.664711	-2.974500	2.629000	-7.819000	29.836167	0.000203	20.766525
2395.660752	-2.980800	2.623300	-7.819000	29.823835	0.000203	20.766892
2396.660479	-2.981500	2.618500	-7.806500	29.829996	0.000206	20.750345
2397.660727	-2.982200	2.614100	-7.794000	29.872099	0.000204	20.773833
2398.662277	-3.012900	2.609400	-7.860200	29.894102	0.000205	20.768045
2399.661228	-3.022800	2.603300	-7.868000	29.855738	0.000206	20.771560
2400.659214	-3.036600	2.596400	-7.882500	29.809737	0.000205	20.768324
2401.663375	-3.003900	2.592600	-7.786300	29.776867	0.000204	20.750828
2402.668679	-3.012700	2.588300	-7.797300	29.825279	0.000205	20.764081
2403.662054	-2.975200	2.584100	-7.686400	29.861943	0.000203	20.765488
2404.657341	-2.998100	2.577900	-7.727600	29.864682	0.000205	20.780579
2405.661290	-3.012600	2.570900	-7.744100	29.821648	0.000202	20.763264
2406.660890	-2.989400	2.564900	-7.665500	29.803008	0.000202	20.764858
2407.671344	-3.023100	2.557900	-7.731400	29.781773	0.000205	20.746766
2408.659813	-3.041600	2.552500	-7.762300	29.794010	0.000206	20.741085
2409.665915	-3.021700	2.547600	-7.696500	29.773090	0.000201	20.760771
2410.663363	-3.038500	2.540800	-7.719300	29.752965	0.000204	20.758024
2411.662910	-2.980500	2.535500	-7.555700	29.775369	0.000204	20.737937
2412.664116	-3.031900	2.529000	-7.666500	29.770521	0.000202	20.751542
2413.663216	-3.001000	2.524100	-7.573300	29.795178	0.000205	20.741315
2414.660247	-3.013900	2.514800	-7.578600	29.759234	0.000203	20.748222
2415.661731	-3.009100	2.509900	-7.551000	29.810900	0.000202	20.750530
2416.667830	-2.997900	2.501900	-7.499100	29.814759	0.000206	20.741144
2417.661917	-3.025800	2.498200	-7.558000	29.774486	0.000204	20.750324
