LabVIEW Measurement	
Writer_Version	2
Reader_Version	2
Separator	Tab
Decimal_Separator	.
Multi_Headings	No
X_Columns	One
Time_Pref	Absolute
Operator	admin
Description	Clolumns are: time, Current, Voltage, Power, Battery Temp, and Chamber Temp
Date	2024/08/16
Time	13:06:06.104549407958984375
***End_of_Header***	
	
Channels	6						
Samples	1	1	1	1	1	1	
Date	2024/09/16	2024/09/16	2024/09/16	2024/09/16	2024/09/16	2024/09/16	
Time	20:51:54.5351614952087402344	20:51:54.5442657470703125	20:51:54.5545678138732910156	20:51:54.5181217193603515625	20:51:54.5181217193603515625	20:51:54.5181217193603515625	
X_Dimension	Time	Time	Time	Time	Time	Time	
X0	0.0000000000000000E+0	0.0000000000000000E+0	0.0000000000000000E+0	0.0000000000000000E+0	0.0000000000000000E+0	0.0000000000000000E+0	
Delta_X	1.000000	1.000000	1.000000	1.000000	1.000000	1.000000	
***End_of_Header***							
X_Value	Untitled	Untitled 1	Untitled 2	Untitled 3	Untitled 4	Untitled 5	Comment
0.000000	0.000361	4.095300	0.001407	20.986431	0.000953	20.762645
1.001230	-3.019500	3.913000	-11.814000	21.010004	0.000953	20.733116
1.999781	-3.026100	3.905100	-11.815000	20.994971	0.000951	20.752221
3.002702	-3.003400	3.901900	-11.718000	21.018495	0.000951	20.734023
4.003521	-3.005700	3.896400	-11.710000	21.015374	0.000949	20.731374
4.998484	-2.991200	3.893200	-11.645000	21.000000	0.000948	20.741602
5.999488	-3.009000	3.890300	-11.703000	21.011623	0.000947	20.713397
7.000572	-3.006500	3.887700	-11.687000	21.007985	0.000948	20.730148
8.000597	-3.008300	3.885900	-11.689000	21.000776	0.000945	20.740008
9.000119	-3.006200	3.883600	-11.674000	21.033388	0.000944	20.731848
10.002266	-2.987900	3.882000	-11.598000	21.019893	0.000943	20.734472
11.002168	-2.991500	3.880400	-11.608000	21.023236	0.000941	20.755835
12.006736	-2.965600	3.880000	-11.505000	21.023415	0.000942	20.737521
13.004790	-3.000200	3.876100	-11.629000	21.032946	0.000941	20.710068
14.004254	-3.014300	3.875000	-11.680000	21.021414	0.000942	20.719397
15.003660	-3.024200	3.874400	-11.716000	21.035635	0.000941	20.742158
16.011567	-2.998300	3.873100	-11.612000	21.043898	0.000939	20.733352
17.004770	-2.996800	3.871700	-11.601000	21.047420	0.000938	20.734030
18.010449	-2.991300	3.871700	-11.579000	21.061217	0.000938	20.734079
19.008612	-3.030500	3.868600	-11.722000	21.075241	0.000935	20.719657
20.008036	-2.991200	3.869000	-11.572000	21.086225	0.000936	20.736334
21.005081	-3.009700	3.867000	-11.638000	21.078437	0.000935	20.727595
22.005805	-2.974600	3.867700	-11.504000	21.081355	0.000937	20.739524
23.007944	-3.027100	3.865500	-11.700000	21.099997	0.000935	20.730669
24.007248	-3.029100	3.864200	-11.703000	21.098329	0.000935	20.727578
25.007962	-2.993900	3.863800	-11.567000	21.103020	0.000935	20.729426
26.014096	-3.001200	3.862400	-11.591000	21.103673	0.000934	20.730553
27.008554	-2.991700	3.864000	-11.559000	21.107097	0.000935	20.720701
28.008834	-3.012300	3.861000	-11.627000	21.108291	0.000934	20.717153
29.006371	-2.997300	3.861100	-11.572000	21.132694	0.000935	20.722124
30.008543	-2.991700	3.859400	-11.544000	21.104260	0.000932	20.732563
31.007049	-2.999600	3.859500	-11.575000	21.130553	0.000934	20.714765
32.008735	-3.002100	3.858300	-11.582000	21.147919	0.000934	20.725499
33.009251	-2.975900	3.859100	-11.484000	21.148491	0.000933	20.716114
34.010968	-3.002900	3.859000	-11.586000	21.161985	0.000933	20.722974
35.010532	-2.998200	3.858300	-11.565000	21.143678	0.000935	20.712247
36.011543	-2.993900	3.856800	-11.544000	21.189329	0.000933	20.728991
37.019292	-2.999300	3.856400	-11.565000	21.175183	0.000933	20.723374
38.014701	-3.012300	3.856600	-11.616000	21.181426	0.000933	20.706859
39.011229	-3.006500	3.855300	-11.589000	21.188715	0.000933	20.704667
40.008625	-3.005900	3.854100	-11.583000	21.190727	0.000935	20.708576
41.012791	-3.005300	3.852900	-11.577000	21.186917	0.000932	20.707610
42.011089	-2.972800	3.854600	-11.457000	21.205077	0.000931	20.718190
43.012459	-2.998400	3.854000	-11.555000	21.202707	0.000931	20.703016
44.012591	-2.998000	3.853900	-11.553000	21.207626	0.000930	20.717421
45.013130	-2.980000	3.853300	-11.481000	21.206702	0.000930	20.718868
46.010567	-3.003200	3.851900	-11.567000	21.223930	0.000929	20.713342
47.013040	-2.972400	3.852500	-11.450000	21.233449	0.000930	20.711959
48.010202	-2.993400	3.852500	-11.531000	21.245920	0.000930	20.708313
49.010147	-3.000300	3.850300	-11.551000	21.257067	0.000933	20.721362
50.016382	-2.982400	3.851300	-11.486000	21.280993	0.000932	20.725858
51.018853	-3.006400	3.850400	-11.574000	21.283682	0.000932	20.699149
52.014923	-2.988900	3.851100	-11.510000	21.285732	0.000933	20.720642
53.019433	-2.995500	3.851200	-11.534000	21.290275	0.000931	20.712384
54.013113	-3.022500	3.848800	-11.632000	21.290268	0.000930	20.693883
55.015384	-2.993300	3.849300	-11.521000	21.311171	0.000929	20.720961
56.020401	-2.997100	3.847800	-11.530000	21.321875	0.000932	20.699900
57.016076	-3.004200	3.848300	-11.560000	21.318656	0.000930	20.698576
58.021181	-3.003300	3.846800	-11.552000	21.338045	0.000931	20.677195
59.017085	-3.001900	3.846800	-11.547000	21.341437	0.000930	20.693392
60.016275	-2.998100	3.846900	-11.532000	21.335799	0.000931	20.702451
61.018073	-2.996600	3.846800	-11.527000	21.351512	0.000928	20.712957
62.017887	-3.013100	3.845600	-11.586000	21.370665	0.000930	20.674743
63.015606	-3.009900	3.846700	-11.576000	21.380765	0.000929	20.700023
64.020566	-3.008200	3.844400	-11.563000	21.382700	0.000931	20.716659
65.015929	-3.011700	3.844500	-11.577000	21.388502	0.000930	20.706817
66.023711	-2.995100	3.844700	-11.515000	21.391002	0.000929	20.701257
67.029446	-3.010700	3.844700	-11.574000	21.403650	0.000929	20.715335
68.020771	-2.991000	3.844100	-11.496000	21.402074	0.000928	20.685780
69.019400	-3.015500	3.843500	-11.590000	21.404117	0.000929	20.721966
70.019042	-3.014900	3.842900	-11.585000	21.419134	0.000931	20.696687
71.019186	-3.022700	3.840000	-11.606000	21.449544	0.000930	20.708148
72.021462	-2.985800	3.844000	-11.476000	21.429560	0.000930	20.693841
73.022611	-3.003100	3.842300	-11.538000	21.426544	0.000929	20.685134
74.019173	-2.996400	3.841800	-11.511000	21.445272	0.000931	20.687751
75.022663	-3.029100	3.840100	-11.631000	21.439087	0.000931	20.704323
76.027610	-3.009800	3.842300	-11.562000	21.452896	0.000931	20.698225
77.023009	-3.023000	3.839700	-11.606000	21.470068	0.000930	20.695018
78.019661	-3.011200	3.840100	-11.562000	21.486875	0.000930	20.693817
79.019138	-3.000600	3.839300	-11.519000	21.490185	0.000931	20.683851
80.018893	-2.996700	3.840000	-11.506000	21.512211	0.000929	20.699254
81.024642	-3.003800	3.839000	-11.530000	21.532049	0.000929	20.699665
82.019755	-3.028600	3.837600	-11.621000	21.511280	0.000931	20.682675
83.022901	-3.028200	3.837500	-11.620000	21.510185	0.000930	20.682527
84.020479	-3.021100	3.837800	-11.592000	21.522931	0.000931	20.688168
85.026379	-3.006300	3.838100	-11.538000	21.528519	0.000933	20.675741
86.028280	-3.014000	3.839000	-11.570000	21.512474	0.000932	20.685766
87.029356	-3.022500	3.837000	-11.597000	21.525096	0.000930	20.691284
88.025383	-3.012400	3.836900	-11.557000	21.523503	0.000931	20.687318
89.023423	-2.988700	3.838000	-11.469000	21.520856	0.000931	20.698421
90.023738	-2.969900	3.838300	-11.398000	21.549083	0.000931	20.686837
91.025936	-3.005700	3.836300	-11.529000	21.554597	0.000930	20.685242
92.019221	-2.978600	3.837500	-11.430000	21.568845	0.000932	20.696181
93.020820	-2.990900	3.837000	-11.475000	21.563650	0.000933	20.697146
94.022474	-2.984400	3.834700	-11.444000	21.589963	0.000935	20.693132
95.023755	-3.008300	3.837200	-11.542000	21.614202	0.000930	20.696525
96.024004	-2.994100	3.837100	-11.486000	21.605003	0.000932	20.685422
97.025010	-2.989100	3.835300	-11.463000	21.627623	0.000933	20.692412
98.027761	-3.002800	3.836600	-11.518000	21.625556	0.000933	20.704094
99.025752	-3.002400	3.835100	-11.513000	21.654238	0.000932	20.679689
100.029716	-3.012900	3.833600	-11.550000	21.639925	0.000933	20.687652
101.028951	-3.015400	3.833000	-11.556000	21.663142	0.000935	20.709939
102.028472	-3.005200	3.833400	-11.518000	21.670347	0.000935	20.702451
103.023348	-2.991300	3.833700	-11.466000	21.648878	0.000932	20.693768
104.029954	-3.001800	3.832800	-11.504000	21.661067	0.000933	20.690318
105.028850	-3.002200	3.833400	-11.507000	21.682346	0.000934	20.679844
106.026865	-3.008700	3.833900	-11.534000	21.673572	0.000936	20.689556
107.031016	-3.020700	3.832600	-11.577000	21.685368	0.000936	20.697094
108.030632	-3.007900	3.832700	-11.527000	21.689534	0.000936	20.703635
109.031260	-2.999100	3.831300	-11.490000	21.708927	0.000934	20.707396
110.031791	-3.003900	3.831800	-11.510000	21.686095	0.000935	20.686915
111.032604	-2.988700	3.832500	-11.452000	21.712953	0.000937	20.701942
112.034082	-2.993900	3.830200	-11.466000	21.728114	0.000938	20.688190
113.032391	-2.994800	3.831600	-11.474000	21.760273	0.000935	20.700463
114.032695	-3.006800	3.831000	-11.518000	21.763499	0.000937	20.702743
115.032114	-3.010400	3.829500	-11.527000	21.791973	0.000938	20.703740
116.034800	-2.998400	3.831100	-11.485000	21.762895	0.000937	20.676532
117.028672	-2.993500	3.831400	-11.469000	21.774739	0.000939	20.683171
118.028783	-3.013800	3.829800	-11.540000	21.785740	0.000938	20.706038
119.034603	-2.987700	3.831000	-11.445000	21.799921	0.000939	20.709325
120.032200	-3.003000	3.828800	-11.497000	21.794057	0.000939	20.696817
121.028971	-2.992300	3.828900	-11.456000	21.807803	0.000938	20.708679
122.032463	-3.011400	3.828100	-11.527000	21.817818	0.000939	20.695468
123.034228	-3.013200	3.828700	-11.535000	21.823355	0.000940	20.704804
124.033250	-3.000400	3.828500	-11.485000	21.843220	0.000940	20.686279
125.038495	-2.987400	3.828300	-11.437000	21.857839	0.000940	20.701387
126.035981	-2.977300	3.828400	-11.396000	21.870344	0.000939	20.701576
127.031595	-2.990200	3.828800	-11.448000	21.855961	0.000939	20.694765
128.034407	-2.990200	3.827400	-11.443000	21.869102	0.000942	20.689900
129.034393	-2.991700	3.826800	-11.448000	21.882604	0.000942	20.707210
130.031000	-3.004700	3.825900	-11.494000	21.878717	0.000940	20.709008
131.034742	-2.975700	3.828100	-11.389000	21.892658	0.000942	20.689296
132.033161	-3.018200	3.826700	-11.549000	21.914023	0.000941	20.685077
133.032080	-3.017600	3.826400	-11.544000	21.906321	0.000941	20.703922
134.033943	-3.002100	3.827000	-11.488000	21.915886	0.000944	20.688365
135.032063	-3.022000	3.825000	-11.558000	21.937202	0.000944	20.714920
136.031442	-2.994300	3.826200	-11.454000	21.949037	0.000944	20.715861
137.032928	-2.982300	3.827000	-11.412000	21.958918	0.000944	20.709630
138.033231	-2.985100	3.826100	-11.420000	21.940894	0.000943	20.708183
139.041264	-3.020900	3.823300	-11.548000	21.957497	0.000944	20.717217
140.038587	-2.994000	3.824000	-11.448000	21.966889	0.000943	20.729939
141.036406	-2.982300	3.824900	-11.406000	21.964791	0.000944	20.708871
142.040589	-2.995900	3.825000	-11.458000	21.951332	0.000945	20.702510
143.038427	-3.010200	3.824900	-11.512000	21.977057	0.000946	20.726841
144.037699	-3.019500	3.823800	-11.544000	21.986973	0.000946	20.715903
145.040525	-3.011700	3.823200	-11.513000	22.017971	0.000947	20.716114
146.042133	-2.980200	3.823500	-11.393000	22.009421	0.000947	20.718934
147.038706	-3.012100	3.821900	-11.511000	22.025967	0.000945	20.713687
148.033492	-3.005000	3.823400	-11.488000	22.032149	0.000949	20.707547
149.035643	-3.014100	3.822200	-11.519000	22.036183	0.000946	20.699731
150.034929	-3.004600	3.823400	-11.486000	22.060413	0.000949	20.734895
151.035703	-2.987900	3.823200	-11.422000	22.064928	0.000949	20.737519
152.041238	-3.004000	3.821000	-11.477000	22.087981	0.000948	20.706542
153.034140	-3.010600	3.822000	-11.506000	22.081424	0.000950	20.713728
154.038769	-2.989400	3.822800	-11.427000	22.073927	0.000952	20.714284
155.042893	-3.010100	3.821300	-11.502000	22.083301	0.000951	20.721298
156.040949	-2.991000	3.821200	-11.428000	22.085817	0.000952	20.722868
157.039451	-3.005600	3.821300	-11.484000	22.091574	0.000950	20.731003
158.041634	-2.998600	3.820000	-11.454000	22.094416	0.000953	20.716777
159.049472	-3.000200	3.820800	-11.462000	22.073208	0.000953	20.721625
160.042970	-3.004300	3.819900	-11.475000	22.095436	0.000953	20.734870
161.042732	-2.993100	3.819900	-11.432000	22.110887	0.000955	20.722836
162.047047	-2.970500	3.820300	-11.347000	22.121110	0.000956	20.716001
163.041091	-3.000300	3.819200	-11.457000	22.143099	0.000955	20.716679
164.039289	-2.982800	3.819900	-11.392000	22.128712	0.000955	20.734519
165.044085	-2.987900	3.819000	-11.409000	22.138756	0.000956	20.722762
166.042583	-2.985800	3.817100	-11.395000	22.136935	0.000955	20.709085
167.042307	-2.979000	3.821000	-11.380000	22.179737	0.000957	20.732973
168.046137	-3.006200	3.816900	-11.474000	22.175745	0.000955	20.728976
169.042320	-2.971800	3.819000	-11.348000	22.177860	0.000958	20.704065
170.042438	-2.989600	3.818200	-11.414000	22.195758	0.000960	20.735263
171.045103	-3.044000	3.816300	-11.615000	22.211663	0.000959	20.721790
172.046898	-2.995500	3.818500	-11.437000	22.218799	0.000958	20.716605
173.041469	-3.022200	3.817100	-11.536000	22.251541	0.000959	20.720939
174.044147	-3.005100	3.816600	-11.468000	22.266971	0.000960	20.736391
175.041571	-3.009000	3.817400	-11.485000	22.245858	0.000958	20.732320
176.044286	-3.004500	3.816200	-11.464000	22.255722	0.000958	20.715642
177.041438	-3.025100	3.815200	-11.540000	22.260138	0.000961	20.723384
178.044222	-3.013900	3.814500	-11.495000	22.284608	0.000960	20.740300
179.046139	-2.991400	3.814900	-11.411000	22.294910	0.000959	20.729752
180.041437	-3.005700	3.815300	-11.467000	22.287986	0.000960	20.710490
181.048833	-2.975600	3.816500	-11.355000	22.291399	0.000963	20.730030
182.045801	-2.998200	3.815000	-11.438000	22.290919	0.000960	20.741403
183.047729	-3.003900	3.814100	-11.456000	22.258668	0.000962	20.737086
184.041604	-2.998400	3.815700	-11.440000	22.290070	0.000963	20.733914
185.045655	-2.999800	3.813500	-11.439000	22.301238	0.000964	20.737985
186.046637	-3.028200	3.814000	-11.548000	22.290845	0.000965	20.738484
187.041564	-3.003600	3.813400	-11.453000	22.311926	0.000966	20.732566
188.047657	-3.000400	3.812700	-11.439000	22.339316	0.000967	20.732018
189.048204	-2.987500	3.814500	-11.394000	22.338647	0.000967	20.749840
190.047652	-2.969300	3.813700	-11.322000	22.335462	0.000968	20.713932
191.043190	-2.997200	3.814300	-11.430000	22.341137	0.000966	20.736686
192.043875	-3.000600	3.813900	-11.443000	22.361621	0.000967	20.742025
193.048496	-2.992800	3.812400	-11.409000	22.370723	0.000969	20.734543
194.046277	-3.006700	3.810600	-11.457000	22.358411	0.000968	20.745924
195.051764	-2.994700	3.811800	-11.414000	22.370575	0.000967	20.741034
196.047403	-2.998600	3.812500	-11.431000	22.370519	0.000969	20.721537
197.046066	-2.971300	3.813100	-11.328000	22.404863	0.000970	20.750240
198.048861	-3.003100	3.810600	-11.443000	22.394601	0.000967	20.749921
199.052295	-3.025500	3.809900	-11.526000	22.425998	0.000971	20.744378
200.047156	-3.007300	3.809800	-11.456000	22.429614	0.000970	20.745629
201.049760	-3.004200	3.809400	-11.443000	22.433459	0.000971	20.737150
202.046099	-3.006000	3.810200	-11.451000	22.447786	0.000972	20.757662
203.046597	-3.001400	3.809000	-11.431000	22.427321	0.000972	20.759928
204.050475	-3.023800	3.808400	-11.514000	22.457876	0.000975	20.743110
205.050685	-2.994500	3.808700	-11.404000	22.461982	0.000974	20.739636
206.056992	-3.005700	3.809500	-11.450000	22.464112	0.000976	20.740820
207.053795	-2.985900	3.809400	-11.373000	22.454610	0.000975	20.756436
208.054912	-3.020800	3.809200	-11.506000	22.471827	0.000976	20.755660
209.053289	-3.001000	3.807600	-11.425000	22.474969	0.000975	20.759281
210.049979	-3.009400	3.807800	-11.458000	22.513302	0.000973	20.753100
211.050625	-3.016600	3.806800	-11.483000	22.493589	0.000975	20.743788
212.056809	-2.993700	3.809800	-11.404000	22.503359	0.000979	20.745039
213.061297	-2.997000	3.807000	-11.409000	22.535055	0.000976	20.726996
214.051535	-2.975800	3.808800	-11.334000	22.526141	0.000977	20.769278
215.058411	-2.998000	3.807200	-11.412000	22.532909	0.000977	20.755193
216.053967	-2.987100	3.807100	-11.371000	22.556156	0.000979	20.737698
217.086380	-2.989100	3.806300	-11.376000	22.537521	0.000979	20.765028
218.060362	-2.995500	3.806200	-11.400000	22.537766	0.000981	20.752471
219.059655	-3.000100	3.806300	-11.418000	22.543283	0.000982	20.744245
220.055949	-3.007000	3.805800	-11.443000	22.537700	0.000978	20.778009
221.059908	-2.980400	3.807400	-11.346000	22.536981	0.000981	20.753107
222.059087	-3.005000	3.805800	-11.436000	22.563812	0.000980	20.754849
223.059200	-2.998400	3.805200	-11.407000	22.584242	0.000980	20.760613
224.059777	-3.013600	3.803700	-11.461000	22.599374	0.000980	20.767234
225.059287	-3.014600	3.803700	-11.465000	22.611030	0.000982	20.757097
226.061853	-2.983800	3.806000	-11.355000	22.627567	0.000983	20.754220
227.062565	-2.987900	3.805800	-11.371000	22.634693	0.000984	20.759461
228.060767	-3.001500	3.804400	-11.418000	22.644266	0.000984	20.767627
229.058379	-2.984700	3.804400	-11.353000	22.667536	0.000982	20.758692
230.062410	-3.027000	3.802200	-11.508000	22.662255	0.000985	20.755299
231.057188	-3.001200	3.803200	-11.413000	22.682880	0.000984	20.755095
232.061102	-3.016200	3.802600	-11.468000	22.684128	0.000986	20.760139
233.084875	-2.997300	3.802600	-11.397000	22.666336	0.000984	20.770767
234.064620	-2.995800	3.804000	-11.395000	22.674180	0.000987	20.764873
235.061370	-2.986700	3.803400	-11.358000	22.625274	0.000986	20.782270
236.057170	-2.999200	3.802100	-11.401000	22.654004	0.000986	20.759836
237.058706	-2.984500	3.801900	-11.345000	22.669355	0.000988	20.774739
238.059124	-2.985800	3.803100	-11.355000	22.662770	0.000989	20.778100
239.061500	-3.008000	3.802000	-11.435000	22.712972	0.000988	20.770064
240.058898	-3.026800	3.800000	-11.501000	22.690822	0.000990	20.762102
241.062254	-3.000100	3.800300	-11.400000	22.713298	0.000991	20.784142
242.065053	-2.997700	3.800200	-11.391000	22.725703	0.000991	20.758161
243.059970	-3.001700	3.800600	-11.406000	22.743757	0.000992	20.761547
244.061683	-2.995300	3.798800	-11.378000	22.751264	0.000994	20.766696
245.064963	-2.999700	3.800100	-11.399000	22.750717	0.000992	20.781795
246.059405	-2.994300	3.800300	-11.379000	22.739455	0.000992	20.769566
247.065543	-3.004000	3.799200	-11.412000	22.739879	0.000997	20.756240
248.066299	-3.003100	3.799700	-11.409000	22.768174	0.000995	20.767988
249.065274	-3.009500	3.799400	-11.433000	22.777543	0.000993	20.784012
250.062541	-3.001500	3.798600	-11.400000	22.794664	0.000995	20.773187
251.063807	-3.024000	3.797500	-11.482000	22.792714	0.000996	20.791148
252.067340	-3.006600	3.797000	-11.415000	22.794565	0.000996	20.784468
253.064941	-3.001800	3.798000	-11.400000	22.819146	0.000995	20.782540
254.065825	-3.008800	3.797700	-11.426000	22.837525	0.000998	20.766337
255.066439	-2.997700	3.797500	-11.382000	22.811272	0.000999	20.771806
256.067403	-3.002200	3.796200	-11.394000	22.826947	0.000997	20.787984
257.065827	-3.029900	3.795800	-11.500000	22.833581	0.001000	20.792259
258.071952	-2.990800	3.796200	-11.352000	22.837108	0.001001	20.798637
259.064487	-3.007000	3.796000	-11.413000	22.870312	0.001001	20.786382
260.071006	-2.986700	3.798300	-11.342000	22.839997	0.001000	20.781616
261.063885	-2.985900	3.795800	-11.332000	22.854571	0.001001	20.790053
262.067440	-2.980800	3.795500	-11.312000	22.835288	0.001003	20.792072
263.066223	-3.000000	3.796600	-11.388000	22.845757	0.001003	20.769369
264.070052	-3.009100	3.795500	-11.420000	22.869226	0.001003	20.779604
265.069576	-3.001600	3.793700	-11.386000	22.880479	0.001004	20.803680
266.069906	-3.037400	3.793200	-11.520000	22.882748	0.001004	20.786987
267.072958	-3.017500	3.794400	-11.449000	22.891193	0.001004	20.793077
268.069766	-3.009400	3.793900	-11.417000	22.901255	0.001004	20.786562
269.069860	-2.974100	3.795400	-11.286000	22.897606	0.001006	20.796656
270.067770	-3.011700	3.792700	-11.421000	22.889356	0.001008	20.794082
271.071113	-2.981300	3.793400	-11.308000	22.888157	0.001007	20.807579
272.076190	-3.007100	3.794100	-11.408000	22.899124	0.001009	20.790116
273.076140	-3.007700	3.792300	-11.405000	22.881963	0.001008	20.800425
274.078674	-2.984300	3.793500	-11.319000	22.895215	0.001007	20.794735
275.068609	-3.007500	3.793100	-11.406000	22.895443	0.001008	20.803498
276.073687	-2.996100	3.791800	-11.359000	22.924509	0.001010	20.807014
277.071758	-2.982100	3.792200	-11.307000	22.924908	0.001010	20.790819
278.071320	-2.987600	3.792000	-11.327000	22.945291	0.001011	20.788480
279.078375	-3.008000	3.792300	-11.406000	22.959611	0.001009	20.799034
280.084501	-2.974500	3.792100	-11.279000	22.958240	0.001012	20.802403
281.071774	-3.009100	3.789400	-11.401000	22.954977	0.001012	20.787753
282.074289	-3.006700	3.790200	-11.395000	22.961014	0.001012	20.796172
283.077363	-3.014800	3.789100	-11.422000	22.966840	0.001012	20.821924
284.072268	-3.004100	3.789500	-11.383000	22.987109	0.001013	20.811886
285.077561	-2.988300	3.790700	-11.327000	22.988732	0.001014	20.822521
286.075205	-3.001800	3.790000	-11.375000	22.984921	0.001012	20.790728
287.079050	-3.002200	3.789100	-11.375000	22.999918	0.001014	20.812392
288.077394	-2.992800	3.790200	-11.341000	23.002635	0.001014	20.808476
289.078511	-2.989900	3.789300	-11.329000	23.037639	0.001016	20.816521
290.078823	-2.992700	3.788900	-11.338000	23.038088	0.001016	20.801798
291.079258	-2.992200	3.788700	-11.335000	23.051198	0.001017	20.816831
292.080794	-3.012700	3.787300	-11.409000	23.069671	0.001014	20.791718
293.080229	-2.998100	3.787500	-11.354000	23.088974	0.001016	20.807741
294.080327	-3.029200	3.786100	-11.467000	23.097418	0.001018	20.805297
295.083133	-2.993300	3.787900	-11.337000	23.109297	0.001018	20.818622
296.077946	-2.970000	3.789200	-11.253000	23.103594	0.001018	20.818123
297.083904	-2.986300	3.786600	-11.307000	23.120972	0.001018	20.803294
298.083456	-2.982400	3.787900	-11.296000	23.134940	0.001020	20.812075
299.085175	-2.998100	3.786000	-11.350000	23.137134	0.001020	20.809532
300.088300	-3.005900	3.785600	-11.379000	23.147470	0.001019	20.808984
301.081632	-3.002200	3.785500	-11.365000	23.149135	0.001020	20.829144
302.084665	-2.990200	3.786300	-11.321000	23.179344	0.001021	20.818165
303.081813	-3.016400	3.784600	-11.416000	23.177329	0.001023	20.811404
304.079615	-3.032900	3.783100	-11.472000	23.172271	0.001021	20.822931
305.084052	-2.992900	3.785400	-11.328000	23.198467	0.001021	20.816465
306.085410	-3.020200	3.783100	-11.424000	23.218910	0.001024	20.816089
307.080267	-3.002900	3.784400	-11.363000	23.218935	0.001024	20.830338
308.087099	-3.017500	3.783000	-11.414000	23.238383	0.001022	20.829439
309.083591	-2.994100	3.784000	-11.328000	23.227500	0.001023	20.809525
310.086542	-3.014400	3.782100	-11.400000	23.260343	0.001024	20.823946
311.082619	-3.003300	3.784500	-11.364000	23.246450	0.001024	20.794377
312.091496	-2.977900	3.783400	-11.265000	23.239084	0.001026	20.818288
313.082621	-2.996000	3.781900	-11.329000	23.222239	0.001025	20.837917
314.086036	-3.000700	3.782500	-11.349000	23.230356	0.001029	20.840361
315.090421	-3.010200	3.780500	-11.379000	23.228758	0.001027	20.829277
316.089324	-3.003200	3.781400	-11.355000	23.239444	0.001027	20.830503
317.086302	-2.983600	3.781800	-11.282000	23.240334	0.001027	20.847041
318.086576	-2.988400	3.781800	-11.301000	23.253932	0.001028	20.832694
319.089300	-3.006800	3.781200	-11.368000	23.245115	0.001029	20.842349
320.082229	-2.996900	3.780400	-11.327000	23.262392	0.001029	20.835008
321.089927	-2.980200	3.781800	-11.269000	23.254511	0.001029	20.820946
322.087449	-3.006700	3.779000	-11.361000	23.272630	0.001028	20.822509
323.089135	-2.999600	3.780700	-11.339000	23.277662	0.001029	20.828501
324.090329	-3.011600	3.778600	-11.379000	23.274995	0.001029	20.820612
325.091040	-3.016200	3.779700	-11.400000	23.287965	0.001030	20.844042
326.088198	-3.018700	3.778600	-11.404000	23.304198	0.001030	20.797249
327.090870	-2.995300	3.778000	-11.315000	23.289368	0.001033	20.826007
328.093203	-2.999000	3.778200	-11.330000	23.289515	0.001031	20.789645
329.087170	-2.974700	3.778800	-11.240000	23.267320	0.001033	20.828567
330.090899	-2.983100	3.778600	-11.270000	23.284377	0.001031	20.816264
331.093174	-2.995200	3.777400	-11.313000	23.273022	0.001030	20.829540
332.093215	-3.002700	3.776400	-11.338000	23.290650	0.001030	20.819706
333.097210	-2.988800	3.777100	-11.287000	23.329592	0.001032	20.824595
334.087907	-2.995100	3.776600	-11.310000	23.317445	0.001034	20.792507
335.092454	-2.997600	3.776300	-11.318000	23.337512	0.001033	20.806454
336.093785	-3.008500	3.774900	-11.356000	23.308604	0.001033	20.802138
337.094547	-3.003000	3.775400	-11.337000	23.308376	0.001034	20.827987
338.092386	-3.002500	3.775000	-11.334000	23.324917	0.001035	20.799995
339.094234	-2.986800	3.776200	-11.278000	23.317477	0.001036	20.812453
340.095095	-2.996600	3.773900	-11.307000	23.329329	0.001035	20.803469
341.092362	-2.999500	3.775700	-11.324000	23.306571	0.001036	20.802946
342.098217	-3.002100	3.774200	-11.330000	23.322257	0.001036	20.817718
343.091984	-3.016500	3.773200	-11.381000	23.328253	0.001035	20.819934
344.093906	-2.993800	3.774000	-11.296000	23.351915	0.001036	20.809510
345.095389	-3.015800	3.772600	-11.376000	23.351687	0.001036	20.799799
346.097139	-3.002500	3.772800	-11.327000	23.348873	0.001038	20.781806
347.093125	-2.986900	3.772600	-11.267000	23.358717	0.001036	20.797362
348.098063	-2.985900	3.772600	-11.264000	23.346841	0.001038	20.810589
349.093628	-2.996800	3.772500	-11.305000	23.326049	0.001038	20.797811
350.093320	-3.005100	3.771600	-11.333000	23.305184	0.001040	20.806771
351.101739	-3.005200	3.771100	-11.332000	23.305233	0.001039	20.794018
352.099174	-3.011000	3.769900	-11.349000	23.285516	0.001038	20.795121
353.093249	-3.019800	3.770500	-11.385000	23.292238	0.001039	20.791426
354.092619	-2.982400	3.772200	-11.248000	23.318911	0.001039	20.780700
355.097856	-2.994200	3.770400	-11.287000	23.355339	0.001039	20.784019
356.092251	-3.016500	3.768900	-11.368000	23.340347	0.001041	20.786537
357.098401	-2.988400	3.770200	-11.265000	23.362092	0.001040	20.794580
358.094907	-3.002200	3.769700	-11.316000	23.388764	0.001039	20.791441
359.096316	-3.001200	3.769300	-11.311000	23.406137	0.001042	20.796526
360.099329	-2.980800	3.770000	-11.237000	23.419334	0.001040	20.797425
361.099347	-3.007700	3.767900	-11.330000	23.410770	0.001041	20.792160
362.099116	-2.999000	3.768400	-11.301000	23.414390	0.001041	20.799108
363.102418	-3.005400	3.767800	-11.322000	23.415010	0.001042	20.786453
364.103257	-3.015300	3.766800	-11.357000	23.438915	0.001042	20.782439
365.095258	-3.000300	3.767200	-11.302000	23.450318	0.001043	20.791971
366.100477	-3.008900	3.766300	-11.331000	23.451068	0.001043	20.779921
367.101747	-2.986500	3.767700	-11.251000	23.470445	0.001045	20.785119
368.097863	-2.964900	3.768200	-11.170000	23.470266	0.001043	20.793475
369.101167	-2.989700	3.767800	-11.264000	23.492506	0.001044	20.778309
370.101286	-3.002300	3.765400	-11.304000	23.493256	0.001045	20.786647
371.103954	-2.995700	3.766600	-11.282000	23.470004	0.001044	20.792263
372.103994	-2.999500	3.763900	-11.289000	23.464685	0.001045	20.777449
373.100915	-3.007600	3.764500	-11.321000	23.459947	0.001044	20.785502
374.102046	-2.997400	3.765000	-11.285000	23.429949	0.001044	20.772503
375.103122	-3.010700	3.763400	-11.329000	23.436432	0.001046	20.769044
376.101586	-3.005100	3.763700	-11.309000	23.414181	0.001046	20.787519
377.103656	-2.994900	3.763900	-11.271000	23.433447	0.001047	20.778854
378.105102	-2.995200	3.763400	-11.270000	23.448511	0.001048	20.779729
379.106085	-2.970700	3.764100	-11.179000	23.460663	0.001049	20.774365
380.114272	-2.985300	3.763800	-11.235000	23.487479	0.001048	20.788443
381.108260	-2.981200	3.763500	-11.218000	23.506211	0.001051	20.768339
382.108613	-3.004400	3.761000	-11.298000	23.513878	0.001048	20.783610
383.103288	-3.001300	3.762700	-11.291000	23.493822	0.001049	20.772515
384.106119	-3.006600	3.761000	-11.307000	23.525612	0.001048	20.756018
385.107370	-3.005300	3.761300	-11.302000	23.518647	0.001050	20.766580
386.104766	-2.995800	3.760800	-11.266000	23.498503	0.001051	20.770095
387.108843	-3.016500	3.761400	-11.344000	23.517953	0.001050	20.746443
388.102568	-2.997700	3.760600	-11.272000	23.493805	0.001051	20.779136
389.105591	-3.000700	3.759100	-11.278000	23.507571	0.001050	20.769702
390.107890	-3.003100	3.761100	-11.294000	23.537077	0.001051	20.764192
391.105446	-2.981800	3.760700	-11.212000	23.535340	0.001052	20.759131
392.105487	-2.993000	3.759700	-11.251000	23.542631	0.001054	20.752215
393.107481	-2.991500	3.760000	-11.247000	23.553233	0.001053	20.760946
394.103653	-3.002400	3.758300	-11.283000	23.575471	0.001050	20.753367
395.103595	-3.016800	3.757600	-11.335000	23.577444	0.001054	20.760086
396.104607	-3.007400	3.756600	-11.296000	23.593852	0.001053	20.770845
397.102781	-3.002700	3.757700	-11.283000	23.609330	0.001051	20.759334
398.106267	-3.024500	3.757500	-11.364000	23.617052	0.001051	20.777982
399.110557	-2.987700	3.758300	-11.227000	23.630148	0.001054	20.761238
400.106918	-3.002000	3.757600	-11.277000	23.641965	0.001054	20.749377
401.107932	-2.986900	3.757800	-11.222000	23.636525	0.001054	20.744871
402.109011	-3.001300	3.755700	-11.271000	23.639713	0.001056	20.751386
403.111094	-3.023900	3.755200	-11.354000	23.603742	0.001055	20.758474
404.103214	-3.004800	3.757000	-11.288000	23.595849	0.001055	20.760519
405.112315	-3.015900	3.754500	-11.320000	23.621015	0.001055	20.744969
406.107573	-2.992500	3.755700	-11.238000	23.634290	0.001054	20.764442
407.108328	-3.010900	3.754600	-11.304000	23.621912	0.001055	20.752981
408.111721	-3.010400	3.753700	-11.297000	23.651985	0.001056	20.742827
409.108274	-2.989900	3.755000	-11.226000	23.668889	0.001054	20.755507
410.110445	-2.988000	3.754500	-11.217000	23.654978	0.001057	20.737291
411.109123	-3.005000	3.753600	-11.279000	23.639321	0.001056	20.750993
412.110334	-2.989200	3.751800	-11.214000	23.637779	0.001056	20.751819
413.108666	-2.999400	3.751700	-11.252000	23.650052	0.001057	20.760329
414.106386	-3.009000	3.752400	-11.290000	23.676986	0.001056	20.745131
415.104485	-3.001000	3.750800	-11.256000	23.686249	0.001057	20.730709
416.125550	-3.000400	3.751300	-11.253000	23.678682	0.001057	20.758686
417.108220	-3.000300	3.750900	-11.252000	23.662503	0.001058	20.741517
418.108155	-2.978700	3.751100	-11.172000	23.659592	0.001058	20.752350
419.106578	-2.991600	3.751500	-11.222000	23.646398	0.001058	20.727267
420.109712	-3.008400	3.749700	-11.279000	23.616650	0.001057	20.739645
421.108112	-2.974200	3.750800	-11.155000	23.608560	0.001058	20.733906
422.108410	-3.006300	3.749600	-11.271000	23.596270	0.001059	20.741026
423.109902	-2.979100	3.749800	-11.169000	23.612727	0.001059	20.728599
424.107841	-2.985100	3.750300	-11.194000	23.627543	0.001058	20.753411
425.109156	-2.991300	3.749700	-11.215000	23.634295	0.001059	20.756386
426.114083	-3.006000	3.748400	-11.267000	23.648011	0.001060	20.725565
427.111088	-3.015000	3.747900	-11.298000	23.645972	0.001060	20.736323
428.107896	-2.982900	3.748700	-11.181000	23.635020	0.001059	20.740517
429.109901	-2.985600	3.749600	-11.193000	23.670597	0.001059	20.738252
430.114614	-2.999300	3.747200	-11.238000	23.706566	0.001059	20.744915
431.115360	-2.997400	3.748000	-11.233000	23.715502	0.001058	20.744392
432.111664	-2.991100	3.746100	-11.204000	23.711849	0.001060	20.734564
433.112642	-3.006800	3.746800	-11.265000	23.728980	0.001060	20.728980
434.112151	-2.990200	3.747700	-11.205000	23.748646	0.001060	20.738741
435.118827	-2.987300	3.745800	-11.189000	23.731026	0.001061	20.731031
436.110137	-3.022500	3.744700	-11.317000	23.745564	0.001062	20.727115
437.112510	-2.993000	3.745900	-11.210000	23.760501	0.001059	20.716486
438.110034	-3.010200	3.744800	-11.272000	23.732329	0.001060	20.707681
439.116167	-2.994400	3.745600	-11.215000	23.730837	0.001061	20.728945
440.111233	-3.014700	3.743500	-11.285000	23.721557	0.001060	20.710157
441.115875	-2.986800	3.743600	-11.180000	23.761413	0.001061	20.734945
442.113547	-2.973300	3.743900	-11.130000	23.762114	0.001061	20.731854
443.108497	-3.023400	3.741600	-11.311000	23.741305	0.001061	20.739915
444.107436	-2.992100	3.742200	-11.196000	23.762464	0.001059	20.739318
445.108881	-3.002100	3.742200	-11.233000	23.743905	0.001062	20.726400
446.113607	-3.021600	3.742300	-11.306000	23.761908	0.001061	20.716474
447.112382	-2.990400	3.742000	-11.188000	23.766914	0.001062	20.736193
448.112491	-3.024700	3.739700	-11.309000	23.768487	0.001060	20.718329
449.111760	-2.996900	3.742000	-11.213000	23.798574	0.001061	20.716727
450.115972	-3.010000	3.740500	-11.258000	23.822243	0.001061	20.702526
451.117425	-3.017000	3.740500	-11.284000	23.832531	0.001061	20.726120
452.110675	-2.996800	3.740500	-11.209000	23.813623	0.001062	20.728498
453.116028	-3.020100	3.739500	-11.293000	23.825649	0.001061	20.704519
454.110566	-2.997100	3.739100	-11.205000	23.840806	0.001061	20.716872
455.115103	-2.984000	3.739700	-11.157000	23.842028	0.001062	20.720943
456.110315	-2.968600	3.741800	-11.106000	23.863781	0.001060	20.710037
457.114182	-2.989100	3.739200	-11.176000	23.875446	0.001063	20.713199
458.111000	-2.997800	3.738600	-11.207000	23.879841	0.001063	20.718555
459.112616	-2.994600	3.739900	-11.197000	23.924296	0.001062	20.710502
460.116974	-3.016700	3.738600	-11.277000	23.916942	0.001061	20.723990
461.115733	-3.021200	3.736600	-11.287000	23.918409	0.001062	20.710288
462.115795	-2.994800	3.738200	-11.194000	23.933768	0.001063	20.723794
463.113947	-2.987100	3.737600	-11.164000	23.919835	0.001060	20.712666
464.117564	-2.983100	3.737600	-11.148000	23.931485	0.001062	20.727194
465.118858	-3.008400	3.736200	-11.239000	23.959169	0.001062	20.694262
466.119982	-3.012900	3.736400	-11.256000	23.946077	0.001062	20.712902
467.117666	-3.019900	3.734300	-11.276000	23.925907	0.001063	20.706900
468.119281	-2.986300	3.737000	-11.158000	23.902264	0.001063	20.695994
469.118639	-3.019200	3.734400	-11.274000	23.892954	0.001062	20.707996
470.119872	-2.976000	3.734600	-11.113000	23.898864	0.001061	20.704913
471.122240	-2.996000	3.735900	-11.192000	23.900461	0.001062	20.704144
472.115295	-3.011900	3.733400	-11.243000	23.923288	0.001062	20.687677
473.119466	-3.000700	3.734300	-11.205000	23.928636	0.001063	20.693515
474.120218	-2.997900	3.732700	-11.189000	23.930665	0.001064	20.704085
475.118186	-2.990600	3.733300	-11.164000	23.972975	0.001065	20.704788
476.119446	-2.983800	3.731700	-11.133000	23.961994	0.001063	20.694724
477.118738	-3.003500	3.731600	-11.207000	23.972404	0.001066	20.695206
478.117194	-3.004900	3.732200	-11.214000	23.994430	0.001062	20.700225
479.120236	-3.021200	3.731600	-11.272000	23.983090	0.001064	20.695017
480.121876	-2.984900	3.732300	-11.139000	24.001660	0.001066	20.713640
481.118379	-3.006100	3.732400	-11.219000	23.987679	0.001066	20.691557
482.135403	-2.987100	3.731900	-11.146000	23.989700	0.001064	20.690739
483.120559	-2.994000	3.731400	-11.170000	24.002613	0.001065	20.702741
484.124051	-3.006000	3.729600	-11.209000	23.980440	0.001064	20.702316
485.123198	-2.997700	3.730200	-11.180000	23.986194	0.001064	20.701923
486.121968	-3.002300	3.729400	-11.196000	23.985869	0.001065	20.689267
487.118943	-2.999800	3.728900	-11.185000	23.976991	0.001067	20.692218
488.125548	-2.982500	3.730000	-11.123000	23.978343	0.001066	20.686936
489.125364	-2.994800	3.729500	-11.168000	23.959503	0.001066	20.683690
490.120754	-2.976600	3.729900	-11.102000	23.937288	0.001067	20.695553
491.123828	-3.000500	3.728400	-11.186000	23.942489	0.001066	20.687966
492.122975	-3.012000	3.726700	-11.224000	23.958443	0.001067	20.693059
493.124437	-2.978300	3.727900	-11.102000	23.935877	0.001067	20.685602
494.126110	-2.989000	3.728700	-11.144000	23.952695	0.001066	20.661688
495.123051	-2.995700	3.726900	-11.163000	23.936920	0.001065	20.705142
496.127522	-2.998100	3.725700	-11.170000	23.976295	0.001067	20.709066
497.123984	-2.996700	3.726800	-11.167000	24.012254	0.001067	20.669258
498.123368	-2.987100	3.725900	-11.128000	24.020014	0.001066	20.671826
499.127808	-2.987600	3.726000	-11.131000	24.045146	0.001065	20.662415
500.127415	-3.004800	3.725300	-11.192000	24.058759	0.001068	20.668482
501.126587	-3.002800	3.724500	-11.183000	24.052865	0.001067	20.654983
502.127657	-2.988300	3.724700	-11.130000	24.011242	0.001067	20.674883
503.129750	-2.994100	3.724800	-11.151000	24.019696	0.001067	20.680516
504.129562	-2.995200	3.723000	-11.150000	24.018758	0.001066	20.693801
505.126054	-3.007800	3.722200	-11.194000	24.051006	0.001067	20.669715
506.129522	-2.994800	3.723500	-11.150000	24.049482	0.001065	20.663919
507.129403	-2.998200	3.722800	-11.161000	24.058700	0.001066	20.677433
508.125295	-3.008700	3.721900	-11.197000	24.078550	0.001065	20.694022
509.128675	-2.984300	3.723400	-11.111000	24.081435	0.001066	20.699288
510.125897	-2.985600	3.721400	-11.110000	24.094372	0.001065	20.676224
511.128326	-2.994800	3.720600	-11.141000	24.091910	0.001065	20.688929
512.126371	-3.006700	3.720400	-11.184000	24.105824	0.001065	20.667320
513.129347	-2.995200	3.721300	-11.144000	24.117439	0.001068	20.669013
514.132957	-2.995200	3.721200	-11.145000	24.112068	0.001067	20.676902
515.131950	-2.999200	3.720300	-11.157000	24.133170	0.001066	20.651597
516.131387	-3.004400	3.720600	-11.177000	24.099050	0.001066	20.682339
517.134182	-3.010800	3.719200	-11.197000	24.087973	0.001067	20.679764
518.129423	-2.989800	3.719100	-11.119000	24.052596	0.001067	20.691226
519.129251	-2.999700	3.719000	-11.155000	24.040622	0.001066	20.676371
520.135164	-2.984900	3.719500	-11.102000	24.016369	0.001065	20.677654
521.128144	-2.958300	3.721100	-11.007000	24.005561	0.001068	20.660649
522.129394	-2.985000	3.719500	-11.102000	24.026519	0.001067	20.670762
523.134567	-2.993200	3.717500	-11.127000	24.025965	0.001065	20.669258
524.140689	-3.005300	3.717500	-11.171000	24.020144	0.001066	20.670059
525.133081	-3.014700	3.717100	-11.204000	24.020666	0.001065	20.653511
526.134943	-3.022500	3.716700	-11.233000	24.056003	0.001066	20.686108
527.137075	-2.988300	3.717300	-11.107000	24.056949	0.001066	20.666666
528.137762	-2.989600	3.716800	-11.110000	24.099278	0.001066	20.702958
529.137894	-3.002500	3.716300	-11.157000	24.096148	0.001065	20.672789
530.132478	-3.010300	3.714800	-11.181000	24.138966	0.001065	20.688234
531.134080	-2.982800	3.716300	-11.084000	24.169400	0.001066	20.683197
532.137492	-3.013100	3.714700	-11.191000	24.163752	0.001066	20.674212
533.141879	-3.009400	3.715000	-11.179000	24.175293	0.001067	20.663976
534.133965	-3.003200	3.714200	-11.153000	24.204806	0.001065	20.658015
535.141177	-3.014200	3.714800	-11.196000	24.221750	0.001066	20.661261
536.137368	-3.010100	3.713200	-11.175000	24.230952	0.001066	20.663853
537.140501	-3.006000	3.712200	-11.158000	24.248051	0.001066	20.664883
538.140595	-2.994600	3.713500	-11.119000	24.227594	0.001065	20.664752
539.140477	-3.012900	3.713400	-11.187000	24.221253	0.001064	20.665504
540.138990	-3.026400	3.710300	-11.227000	24.200584	0.001064	20.661367
541.141800	-2.994600	3.712300	-11.115000	24.211106	0.001063	20.682354
542.144120	-3.028200	3.709800	-11.232000	24.239778	0.001064	20.657057
543.140100	-2.983700	3.711500	-11.072000	24.243290	0.001063	20.672436
544.144438	-2.990400	3.711000	-11.096000	24.237960	0.001065	20.668986
545.141341	-3.006800	3.711100	-11.157000	24.208774	0.001065	20.668160
546.141547	-3.002200	3.709900	-11.137000	24.195237	0.001062	20.681136
547.141420	-3.004800	3.709000	-11.142000	24.181478	0.001064	20.663541
548.141584	-2.978000	3.710800	-11.050000	24.163179	0.001063	20.671741
549.140879	-3.009700	3.709700	-11.164000	24.158248	0.001066	20.658259
550.150656	-2.993700	3.709400	-11.104000	24.166562	0.001063	20.679402
551.142614	-3.007100	3.708800	-11.152000	24.200738	0.001065	20.673377
552.143607	-2.985800	3.709600	-11.075000	24.202213	0.001064	20.660630
553.145535	-2.989000	3.707800	-11.081000	24.207462	0.001064	20.698615
554.145066	-3.005100	3.708300	-11.142000	24.184974	0.001063	20.667522
555.144229	-3.008600	3.707200	-11.152000	24.217633	0.001064	20.674202
556.148555	-2.998000	3.708200	-11.116000	24.252141	0.001064	20.679893
557.143947	-2.992800	3.707900	-11.096000	24.253381	0.001064	20.672126
558.144890	-2.987300	3.706900	-11.071000	24.245083	0.001064	20.669018
559.144577	-3.013400	3.707600	-11.172000	24.256812	0.001063	20.652332
560.145803	-3.004800	3.705800	-11.135000	24.236069	0.001063	20.675151
561.145504	-3.021100	3.705400	-11.193000	24.244847	0.001064	20.678266
562.149147	-3.005100	3.705600	-11.135000	24.265622	0.001063	20.675871
563.148770	-2.978900	3.705500	-11.036000	24.275475	0.001063	20.667735
564.149734	-3.002800	3.705000	-11.124000	24.305898	0.001064	20.677866
565.151165	-3.000100	3.704000	-11.111000	24.290520	0.001064	20.688993
566.149975	-2.989400	3.703400	-11.070000	24.315677	0.001061	20.698583
567.149233	-3.023000	3.702300	-11.191000	24.324325	0.001064	20.672168
568.150545	-2.987800	3.703500	-11.064000	24.317210	0.001062	20.661236
569.152698	-2.992100	3.702900	-11.078000	24.312435	0.001064	20.690114
570.147676	-3.032400	3.700900	-11.221000	24.315596	0.001064	20.663885
571.149070	-3.001900	3.701600	-11.110000	24.333330	0.001063	20.675986
572.165574	-2.977000	3.703400	-11.024000	24.337829	0.001064	20.668170
573.150217	-2.974200	3.701900	-11.008000	24.355496	0.001064	20.691585
574.146468	-2.992300	3.701600	-11.075000	24.339867	0.001063	20.673059
575.146917	-2.996100	3.700700	-11.085000	24.320487	0.001062	20.672111
576.152481	-3.008100	3.700800	-11.131000	24.320071	0.001062	20.684023
577.148238	-2.991200	3.701800	-11.072000	24.327430	0.001062	20.685715
578.147552	-3.015000	3.701200	-11.158000	24.338652	0.001062	20.687964
579.144955	-3.014300	3.700200	-11.153000	24.318229	0.001063	20.670794
580.151855	-3.002700	3.701200	-11.111000	24.302256	0.001063	20.686067
581.155819	-2.988600	3.700500	-11.059000	24.274417	0.001061	20.659561
582.152046	-3.003300	3.698400	-11.106000	24.290578	0.001064	20.680991
583.154526	-2.997600	3.699700	-11.087000	24.287995	0.001061	20.675553
584.155346	-2.991100	3.699100	-11.063000	24.336925	0.001062	20.686231
585.155448	-3.008700	3.697900	-11.125000	24.341578	0.001063	20.670509
586.154044	-2.989700	3.698100	-11.055000	24.353615	0.001062	20.701079
587.150654	-3.013000	3.696700	-11.137000	24.362498	0.001062	20.674900
588.152395	-2.998800	3.695600	-11.081000	24.354617	0.001061	20.662725
589.156608	-2.993900	3.697000	-11.067000	24.345507	0.001060	20.672079
590.156134	-2.998900	3.695600	-11.081000	24.383147	0.001060	20.683762
591.157437	-3.000700	3.695800	-11.090000	24.372056	0.001061	20.693973
592.158528	-2.981500	3.695900	-11.019000	24.363215	0.001063	20.691268
593.164079	-2.992400	3.695500	-11.057000	24.362522	0.001061	20.698160
594.159888	-2.996600	3.696000	-11.074000	24.399462	0.001061	20.679266
595.158570	-2.982100	3.695800	-11.019000	24.383368	0.001060	20.685406
596.161066	-2.990500	3.695900	-11.052000	24.379285	0.001061	20.701700
597.159315	-3.013300	3.693800	-11.130000	24.343266	0.001059	20.685479
598.159979	-3.026500	3.692800	-11.175000	24.351717	0.001060	20.698226
599.158821	-3.004900	3.695300	-11.103000	24.324702	0.001060	20.701946
600.158556	-2.991300	3.693100	-11.045000	24.295778	0.001060	20.680042
601.166078	-2.994000	3.693300	-11.057000	24.316593	0.001059	20.698079
602.164857	-3.004800	3.691700	-11.091000	24.318141	0.001059	20.684457
603.161554	-2.989400	3.691700	-11.035000	24.327170	0.001059	20.682135
604.161997	-3.015500	3.691600	-11.130000	24.349231	0.001059	20.698577
605.165965	-2.998500	3.692200	-11.070000	24.362091	0.001059	20.686347
606.162847	-2.983700	3.692100	-11.015000	24.375350	0.001059	20.693958
607.165347	-3.007600	3.691300	-11.100000	24.413438	0.001059	20.702297
608.165295	-2.987300	3.690900	-11.024000	24.397287	0.001056	20.675187
609.160676	-2.998500	3.689500	-11.061000	24.429573	0.001058	20.686241
610.162319	-3.020800	3.689500	-11.145000	24.428954	0.001057	20.696526
611.167336	-2.964700	3.690400	-10.938000	24.391094	0.001059	20.707857
612.164649	-3.007100	3.690100	-11.096000	24.386865	0.001057	20.705511
613.162511	-3.005000	3.689200	-11.085000	24.379278	0.001057	20.682251
614.169083	-3.014400	3.688200	-11.117000	24.394354	0.001057	20.697850
615.160391	-3.014900	3.687600	-11.116000	24.415850	0.001057	20.704717
616.167998	-3.023600	3.686500	-11.145000	24.467505	0.001057	20.695848
617.166264	-3.006300	3.686900	-11.083000	24.458435	0.001055	20.684376
618.163664	-2.996100	3.687100	-11.046000	24.466518	0.001055	20.704341
619.168693	-2.992200	3.687600	-11.032000	24.444208	0.001057	20.721314
620.167440	-2.985200	3.687200	-11.006000	24.480021	0.001055	20.711724
621.163894	-2.990500	3.685900	-11.021000	24.475278	0.001054	20.708862
622.165392	-2.981400	3.687800	-10.994000	24.505223	0.001055	20.713776
623.166780	-3.025000	3.686100	-11.150000	24.523825	0.001055	20.708732
624.165227	-3.011200	3.685600	-11.097000	24.536046	0.001057	20.710563
625.165644	-3.013300	3.685200	-11.104000	24.572850	0.001054	20.701496
626.167095	-3.011000	3.685400	-11.095000	24.572442	0.001056	20.707725
627.165871	-2.989400	3.685700	-11.018000	24.590440	0.001057	20.697334
628.169964	-2.996700	3.684400	-11.039000	24.589740	0.001056	20.689993
629.163318	-2.981200	3.684200	-10.982000	24.617799	0.001054	20.702501
630.165872	-2.977200	3.684300	-10.968000	24.616903	0.001056	20.701128
631.169379	-3.008400	3.683800	-11.081000	24.621685	0.001056	20.709246
632.168468	-2.992300	3.684400	-11.023000	24.636660	0.001056	20.686811
633.169670	-2.993400	3.683000	-11.023000	24.646428	0.001055	20.710840
634.175167	-3.022800	3.681300	-11.126000	24.649442	0.001055	20.722874
635.172575	-2.999800	3.682500	-11.046000	24.662152	0.001055	20.698642
636.170659	-3.020800	3.681800	-11.120000	24.668042	0.001055	20.701234
637.175581	-3.011300	3.680200	-11.081000	24.653019	0.001055	20.719351
638.170637	-3.021000	3.681000	-11.120000	24.646142	0.001054	20.717666
639.172303	-3.011500	3.679100	-11.077000	24.668172	0.001054	20.718435
640.172184	-3.004600	3.680500	-11.057000	24.678886	0.001053	20.706425
641.171058	-2.994800	3.681200	-11.024000	24.662999	0.001052	20.713243
642.174402	-2.995200	3.680800	-11.022000	24.664588	0.001051	20.722899
643.177021	-2.987100	3.681400	-10.996000	24.624528	0.001053	20.713047
644.177184	-3.004500	3.679700	-11.055000	24.627958	0.001053	20.719334
645.171155	-2.997000	3.678200	-11.022000	24.664416	0.001053	20.713717
646.175902	-3.037200	3.677500	-11.169000	24.679211	0.001053	20.698691
647.176286	-2.992000	3.679200	-11.007000	24.661948	0.001050	20.712663
648.173667	-3.011100	3.677200	-11.071000	24.681794	0.001051	20.711715
649.177398	-3.009700	3.677700	-11.068000	24.642396	0.001052	20.712958
650.175046	-3.001800	3.678100	-11.040000	24.637671	0.001051	20.726235
651.176560	-2.992800	3.678400	-11.007000	24.637622	0.001052	20.747050
652.174788	-3.009300	3.676400	-11.063000	24.617702	0.001051	20.719000
653.181277	-2.988000	3.677500	-10.988000	24.626362	0.001053	20.712516
654.172613	-2.998500	3.675000	-11.019000	24.620439	0.001050	20.735972
655.182654	-3.008800	3.676400	-11.061000	24.652564	0.001051	20.726955
656.183267	-2.997400	3.675700	-11.017000	24.679693	0.001052	20.726677
657.173503	-2.993500	3.675900	-11.003000	24.689599	0.001051	20.726186
658.181058	-2.993600	3.675400	-11.001000	24.716207	0.001052	20.735817
659.182588	-3.011500	3.674400	-11.065000	24.719791	0.001051	20.720921
660.176580	-3.010100	3.674300	-11.060000	24.714699	0.001051	20.713914
661.181333	-3.001300	3.673200	-11.022000	24.727848	0.001051	20.738964
662.189190	-3.000100	3.673900	-11.021000	24.732622	0.001051	20.747074
663.175286	-2.986800	3.673000	-10.969000	24.739065	0.001050	20.744532
664.183051	-2.994700	3.673000	-10.999000	24.727253	0.001051	20.738842
665.180491	-3.004300	3.672200	-11.031000	24.706015	0.001048	20.705673
666.181467	-3.014900	3.672400	-11.070000	24.707506	0.001049	20.708592
667.181443	-3.005700	3.672700	-11.038000	24.675676	0.001049	20.734974
668.182157	-3.001500	3.671300	-11.019000	24.701395	0.001049	20.738972
669.180601	-2.992200	3.672200	-10.986000	24.712263	0.001047	20.703408
670.182368	-2.998500	3.670400	-11.004000	24.714625	0.001048	20.731385
671.188064	-2.998600	3.670900	-11.006000	24.741998	0.001046	20.729456
672.180056	-2.976500	3.672000	-10.928000	24.716092	0.001050	20.734753
673.195359	-2.998900	3.670700	-11.006000	24.712084	0.001047	20.725515
674.192191	-2.994300	3.670200	-10.987000	24.724320	0.001049	20.750598
675.180222	-2.987400	3.670700	-10.965000	24.705388	0.001048	20.724486
676.185312	-3.017900	3.669000	-11.071000	24.732010	0.001050	20.754521
677.187043	-2.999400	3.669800	-11.006000	24.735709	0.001047	20.742586
678.181854	-3.001100	3.670300	-11.014000	24.738796	0.001045	20.746158
679.181827	-3.009000	3.667100	-11.033000	24.726714	0.001046	20.746836
680.185069	-3.023200	3.668200	-11.087000	24.763422	0.001046	20.749060
681.181675	-3.018400	3.668500	-11.071000	24.775829	0.001047	20.738277
682.191712	-3.012400	3.667300	-11.045000	24.760611	0.001047	20.732962
683.187634	-3.005000	3.666400	-11.017000	24.773718	0.001046	20.743746
684.187666	-2.984500	3.667400	-10.944000	24.763390	0.001045	20.756615
685.189377	-3.012700	3.665700	-11.042000	24.772374	0.001046	20.755674
686.188811	-3.002200	3.666900	-11.008000	24.783038	0.001045	20.744564
687.189437	-3.011300	3.667000	-11.040000	24.763520	0.001046	20.745839
688.194141	-2.979400	3.667600	-10.925000	24.751260	0.001044	20.746338
689.190748	-2.985100	3.665500	-10.941000	24.768212	0.001044	20.738694
690.187752	-2.997000	3.665800	-10.984000	24.780032	0.001043	20.733012
691.206534	-3.008300	3.663600	-11.020000	24.799827	0.001044	20.741498
692.191730	-2.990400	3.663500	-10.953000	24.812062	0.001044	20.757096
693.191364	-2.983500	3.666100	-10.938000	24.792960	0.001044	20.750728
694.188703	-3.002100	3.663000	-10.995000	24.784211	0.001044	20.737680
695.192678	-2.980800	3.664300	-10.922000	24.765385	0.001043	20.782799
696.190674	-3.009000	3.662900	-11.021000	24.767356	0.001045	20.744947
697.195849	-3.002600	3.662000	-10.995000	24.762232	0.001042	20.757349
698.195721	-2.999500	3.662600	-10.985000	24.787795	0.001040	20.759769
699.193810	-3.009000	3.661800	-11.017000	24.822936	0.001041	20.761845
700.202063	-3.006100	3.661400	-11.005000	24.819751	0.001040	20.754856
701.191431	-2.982300	3.663000	-10.923000	24.852798	0.001042	20.764315
702.195247	-2.977000	3.662100	-10.902000	24.892906	0.001041	20.755256
703.197235	-2.987300	3.661600	-10.938000	24.901197	0.001040	20.739395
704.193964	-2.997000	3.660500	-10.969000	24.889599	0.001040	20.745773
705.199625	-3.008300	3.660400	-11.010000	24.861806	0.001039	20.773830
706.195324	-3.002200	3.660000	-10.987000	24.837964	0.001040	20.744685
707.197377	-3.001400	3.660300	-10.986000	24.798799	0.001040	20.775555
708.198812	-3.017000	3.658400	-11.037000	24.809812	0.001038	20.777599
709.195533	-3.000500	3.659500	-10.979000	24.823896	0.001039	20.757119
710.195887	-2.993500	3.660400	-10.957000	24.835430	0.001039	20.772963
711.201332	-2.989800	3.659500	-10.939000	24.831129	0.001039	20.752524
712.198304	-2.997100	3.659000	-10.964000	24.848243	0.001038	20.768752
713.197506	-3.015500	3.656500	-11.024000	24.848610	0.001038	20.760111
714.192813	-3.000400	3.657600	-10.973000	24.871067	0.001037	20.765106
715.199293	-3.001600	3.657700	-10.978000	24.828872	0.001037	20.758794
716.199831	-2.978600	3.658400	-10.896000	24.828522	0.001036	20.776461
717.198426	-2.998000	3.658200	-10.966000	24.854336	0.001036	20.748314
718.196383	-2.996100	3.656100	-10.953000	24.868989	0.001034	20.774400
719.197376	-3.002200	3.657900	-10.981000	24.890150	0.001036	20.775250
720.197322	-2.998700	3.655000	-10.960000	24.917152	0.001035	20.772479
721.201682	-3.000600	3.655200	-10.967000	24.910912	0.001035	20.767165
722.198790	-3.005700	3.655900	-10.988000	24.929109	0.001036	20.785429
723.202275	-2.992700	3.655500	-10.939000	24.937808	0.001035	20.771400
724.200694	-3.016600	3.654600	-11.023000	24.952533	0.001036	20.762947
725.198596	-2.982900	3.656800	-10.907000	24.933857	0.001034	20.792092
726.213675	-3.008900	3.654200	-10.994000	24.944674	0.001032	20.765489
727.202720	-3.005200	3.654600	-10.982000	24.978833	0.001034	20.758524
728.196974	-3.010600	3.653900	-10.999000	24.974484	0.001033	20.768858
729.203211	-2.997300	3.653700	-10.949000	24.996629	0.001034	20.773069
730.201158	-2.991100	3.652800	-10.925000	24.963195	0.001033	20.756579
731.204396	-2.997200	3.652900	-10.948000	24.977881	0.001034	20.795027
732.202823	-2.974000	3.655100	-10.868000	24.961705	0.001033	20.766462
733.203208	-2.985400	3.652100	-10.901000	24.926169	0.001034	20.785797
734.205601	-2.989000	3.651700	-10.914000	24.952991	0.001032	20.780476
735.201463	-2.999400	3.652700	-10.955000	24.940537	0.001034	20.779830
736.200662	-3.012500	3.651400	-10.999000	24.952893	0.001033	20.783697
737.208395	-2.988000	3.651000	-10.908000	24.981342	0.001032	20.797079
738.206702	-3.003500	3.650900	-10.964000	24.996149	0.001032	20.787286
739.203236	-3.007600	3.650200	-10.978000	24.993665	0.001029	20.777206
740.208827	-2.984600	3.652000	-10.899000	25.026186	0.001034	20.773813
741.204942	-2.953900	3.652200	-10.786000	25.003984	0.001032	20.793728
742.207430	-3.010000	3.648800	-10.981000	24.976684	0.001032	20.790033
743.209341	-2.997600	3.650600	-10.943000	24.943266	0.001032	20.795371
744.206054	-3.022600	3.649700	-11.031000	24.943902	0.001031	20.777517
745.205957	-3.019500	3.646500	-11.010000	24.934486	0.001031	20.797464
746.205552	-2.987600	3.649300	-10.901000	24.912104	0.001030	20.786853
747.209035	-3.008200	3.648100	-10.971000	24.881852	0.001028	20.794897
748.209538	-2.985600	3.647700	-10.889000	24.875605	0.001030	20.800955
749.207230	-2.994600	3.648000	-10.923000	24.923018	0.001030	20.785006
750.208614	-2.987100	3.648000	-10.895000	24.959890	0.001030	20.807316
751.212604	-3.019000	3.646600	-11.008000	24.944423	0.001029	20.797007
752.210877	-3.023700	3.646500	-11.024000	24.951037	0.001027	20.778041
753.215040	-2.993300	3.645000	-10.909000	24.979080	0.001030	20.794334
754.210911	-2.967000	3.646000	-10.816000	25.005110	0.001031	20.802918
755.213677	-2.986900	3.645400	-10.887000	25.001827	0.001028	20.815270
756.212606	-3.015600	3.644800	-10.991000	24.963148	0.001030	20.793042
757.213864	-2.995200	3.645300	-10.917000	24.953717	0.001029	20.795904
758.214473	-2.999400	3.645600	-10.933000	24.949669	0.001029	20.807013
759.216875	-2.992700	3.643800	-10.904000	24.963669	0.001027	20.798307
760.214602	-3.015200	3.643000	-10.984000	24.955908	0.001027	20.810431
761.218106	-2.988500	3.644100	-10.889000	24.981889	0.001028	20.804741
762.213206	-3.004900	3.643400	-10.947000	24.962399	0.001026	20.810308
763.211823	-2.998800	3.644200	-10.927000	24.961300	0.001029	20.803515
764.220356	-3.008300	3.644000	-10.961000	24.960233	0.001029	20.797228
765.217741	-3.001000	3.642400	-10.931000	24.967326	0.001026	20.814779
766.217769	-3.021200	3.643500	-11.006000	24.992135	0.001027	20.785627
767.217950	-2.996900	3.642400	-10.915000	25.025894	0.001027	20.808134
768.222365	-3.015400	3.640800	-10.977000	25.019932	0.001026	20.812580
769.214527	-3.004000	3.641400	-10.938000	25.008392	0.001026	20.837506
770.218130	-2.979900	3.641500	-10.849000	25.019264	0.001025	20.827082
771.223390	-3.008100	3.639700	-10.948000	25.050058	0.001025	20.814845
772.218812	-2.966200	3.641200	-10.799000	25.067535	0.001025	20.823854
773.222397	-2.997800	3.640200	-10.911000	25.086681	0.001025	20.815573
774.223795	-2.998500	3.640500	-10.915000	25.101169	0.001024	20.823952
775.221297	-3.018200	3.639100	-10.981000	25.111854	0.001023	20.819031
776.220912	-3.012000	3.638300	-10.956000	25.110070	0.001024	20.819611
777.222700	-3.025500	3.638500	-11.007000	25.093115	0.001022	20.833410
778.219354	-3.002100	3.639200	-10.924000	25.073545	0.001023	20.834155
779.223870	-2.989600	3.638400	-10.876000	25.054032	0.001023	20.822154
780.225187	-2.985300	3.638800	-10.862000	25.041247	0.001023	20.810742
781.220403	-3.002600	3.637400	-10.921000	25.042664	0.001022	20.822122
782.222946	-2.979900	3.638600	-10.842000	25.049651	0.001023	20.805428
783.222834	-2.993000	3.637100	-10.885000	25.053959	0.001022	20.804063
784.221192	-3.000900	3.637300	-10.914000	25.048413	0.001020	20.827419
785.224631	-3.014800	3.636500	-10.962000	25.028371	0.001021	20.825318
786.223065	-2.995400	3.637800	-10.895000	24.994107	0.001020	20.812737
787.229239	-2.998000	3.637100	-10.902000	25.007114	0.001021	20.805404
788.230235	-2.966100	3.637800	-10.789000	25.006992	0.001021	20.806704
789.240286	-3.008700	3.633900	-10.932000	24.993285	0.001020	20.811437
790.229362	-2.996200	3.635200	-10.890000	25.006039	0.001019	20.817601
791.232591	-3.004200	3.634900	-10.919000	25.028380	0.001019	20.826276
792.231729	-2.990200	3.635800	-10.871000	25.056477	0.001019	20.810383
793.224622	-3.011700	3.633800	-10.942000	25.086895	0.001018	20.833805
794.230568	-3.005400	3.634300	-10.922000	25.092767	0.001019	20.795129
795.229977	-3.028200	3.633600	-11.002000	25.085014	0.001017	20.809632
796.225520	-3.023900	3.632200	-10.981000	25.117849	0.001015	20.812248
797.230878	-2.996800	3.634100	-10.890000	25.143176	0.001016	20.827241
798.229306	-2.979300	3.633900	-10.826000	25.147997	0.001016	20.798891
799.229463	-3.003800	3.632600	-10.910000	25.200643	0.001017	20.793422
800.234826	-2.979500	3.634200	-10.827000	25.195472	0.001017	20.805774
801.235729	-2.989300	3.631700	-10.854000	25.167396	0.001014	20.797976
802.230011	-2.985500	3.633000	-10.846000	25.176768	0.001015	20.792213
803.230840	-3.012200	3.630400	-10.935000	25.150392	0.001016	20.789916
804.231550	-3.013400	3.630600	-10.939000	25.148577	0.001013	20.809430
805.231446	-2.996800	3.629800	-10.876000	25.167493	0.001014	20.795704
806.236152	-3.011600	3.629300	-10.929000	25.177796	0.001013	20.794193
807.232322	-3.018800	3.629200	-10.954000	25.203356	0.001011	20.784766
808.228200	-2.994400	3.631100	-10.872000	25.231189	0.001013	20.775251
809.237210	-3.011800	3.630300	-10.933000	25.207974	0.001010	20.786083
810.231242	-2.997100	3.628200	-10.874000	25.198300	0.001011	20.805295
811.231111	-2.996800	3.628000	-10.871000	25.174563	0.001008	20.794266
812.228552	-2.999000	3.628500	-10.881000	25.142911	0.001010	20.792836
813.230774	-2.996900	3.629000	-10.874000	25.156779	0.001009	20.811974
814.230753	-3.003200	3.629200	-10.897000	25.125354	0.001010	20.792281
815.231042	-2.987400	3.627900	-10.837000	25.133685	0.001010	20.781204
816.230350	-3.016900	3.626400	-10.940000	25.117968	0.001010	20.782970
817.231762	-2.996800	3.627800	-10.871000	25.136144	0.001009	20.774664
818.230373	-3.019100	3.626100	-10.947000	25.128237	0.001007	20.796124
819.228474	-2.989700	3.628700	-10.847000	25.129581	0.001007	20.789412
820.233243	-2.990900	3.626500	-10.845000	25.145860	0.001010	20.783943
821.230543	-3.002100	3.624700	-10.880000	25.146202	0.001008	20.777648
822.235772	-3.012400	3.625500	-10.920000	25.201413	0.001007	20.774754
823.228438	-2.980000	3.626300	-10.805000	25.204645	0.001006	20.771362
824.232520	-3.014700	3.624500	-10.926000	25.192936	0.001007	20.788055
825.233886	-3.011800	3.625900	-10.918000	25.166732	0.001007	20.793043
826.235054	-2.999400	3.623900	-10.868000	25.167530	0.001007	20.763971
827.233858	-3.007800	3.624400	-10.900000	25.152066	0.001005	20.775000
828.235359	-2.976700	3.624800	-10.788000	25.098889	0.001005	20.797956
829.237035	-2.984500	3.624900	-10.817000	25.084092	0.001005	20.772197
830.234063	-2.989400	3.623500	-10.831000	25.084963	0.001003	20.778287
831.239639	-3.003500	3.622500	-10.879000	25.064726	0.001004	20.767929
832.234302	-3.003000	3.623600	-10.881000	25.073774	0.001004	20.764210
833.237499	-3.009800	3.623000	-10.904000	25.050653	0.001003	20.783201
834.242474	-3.003300	3.622300	-10.877000	25.065044	0.001001	20.784370
835.234648	-3.005100	3.623000	-10.885000	25.081975	0.001002	20.775761
836.240247	-2.990700	3.621600	-10.830000	25.106904	0.001002	20.750999
837.245879	-2.990300	3.621000	-10.826000	25.153118	0.001001	20.777953
838.238379	-2.998500	3.620700	-10.855000	25.162043	0.001003	20.776007
839.245307	-2.995200	3.620700	-10.844000	25.142433	0.001000	20.770546
840.241023	-3.038700	3.619900	-10.998000	25.144665	0.000999	20.756190
841.245403	-2.970300	3.620600	-10.753000	25.139347	0.000998	20.774086
842.241561	-3.002000	3.620400	-10.867000	25.169869	0.001001	20.766320
843.241879	-2.987000	3.619400	-10.810000	25.182995	0.000998	20.758635
844.239275	-2.986800	3.620400	-10.811000	25.224655	0.000999	20.769165
845.238354	-2.990300	3.618400	-10.819000	25.209835	0.001000	20.769460
846.238090	-2.988100	3.620700	-10.818000	25.222374	0.000999	20.763082
847.238400	-3.017800	3.616900	-10.914000	25.221576	0.000999	20.767971
848.245070	-3.007600	3.618000	-10.880000	25.247478	0.000998	20.772165
849.245532	-3.003500	3.619000	-10.868000	25.260922	0.000996	20.766222
850.237894	-3.004200	3.617900	-10.866000	25.260499	0.000996	20.774806
851.239442	-3.026300	3.617100	-10.945000	25.290128	0.000997	20.761406
852.244966	-2.990400	3.617500	-10.817000	25.307227	0.000997	20.767194
853.238017	-3.005300	3.616300	-10.867000	25.332028	0.000995	20.764121
854.240896	-2.984000	3.616600	-10.790000	25.339486	0.000998	20.749323
855.240992	-2.984300	3.615800	-10.789000	25.359068	0.000996	20.761873
856.241695	-3.015100	3.615500	-10.899000	25.378730	0.000995	20.749373
857.241555	-3.005800	3.615900	-10.867000	25.357773	0.000992	20.776221
858.244742	-3.023000	3.616100	-10.929000	25.346195	0.000994	20.755586
859.248312	-2.973300	3.615300	-10.748000	25.354296	0.000995	20.746650
860.243815	-3.002700	3.614400	-10.850000	25.353058	0.000994	20.741140
861.248425	-3.006600	3.613300	-10.862000	25.334960	0.000993	20.751417
862.244926	-2.999900	3.614200	-10.840000	25.315045	0.000994	20.763664
863.244782	-2.999000	3.614000	-10.837000	25.265710	0.000990	20.779564
864.247703	-2.996900	3.614300	-10.831000	25.284943	0.000991	20.750984
865.241855	-3.006700	3.611800	-10.857000	25.275295	0.000992	20.767850
866.244673	-3.011100	3.613400	-10.879000	25.300503	0.000990	20.750960
867.245171	-3.019700	3.612700	-10.909000	25.313107	0.000991	20.751761
868.243649	-3.002900	3.614100	-10.852000	25.341710	0.000991	20.767204
869.245749	-3.014500	3.612200	-10.888000	25.331996	0.000990	20.759347
870.246573	-3.024800	3.611500	-10.923000	25.319442	0.000990	20.726826
871.242515	-3.023900	3.610800	-10.919000	25.337803	0.000988	20.750004
872.243583	-3.038800	3.610800	-10.971000	25.324776	0.000989	20.746407
873.246735	-2.979700	3.611600	-10.760000	25.303858	0.000988	20.759070
874.247438	-2.965200	3.610900	-10.706000	25.302059	0.000986	20.731658
875.245279	-3.003500	3.610700	-10.844000	25.327536	0.000987	20.746333
876.244667	-2.992100	3.610300	-10.802000	25.368001	0.000989	20.749031
877.244077	-3.013400	3.610300	-10.878000	25.349682	0.000987	20.749603
878.247851	-2.998500	3.610300	-10.824000	25.361431	0.000987	20.747176
879.249381	-2.988400	3.609300	-10.785000	25.369483	0.000987	20.746252
880.249604	-2.989500	3.609800	-10.790000	25.378952	0.000987	20.738690
881.250470	-2.981900	3.609100	-10.760000	25.396441	0.000987	20.743449
882.248615	-2.983500	3.608200	-10.763000	25.399754	0.000986	20.750095
883.249183	-2.981500	3.608000	-10.756000	25.393737	0.000986	20.746424
884.252044	-2.995600	3.607700	-10.806000	25.392817	0.000985	20.754035
885.247763	-3.004600	3.607400	-10.837000	25.416802	0.000984	20.743031
886.244077	-3.007400	3.606400	-10.844000	25.453877	0.000983	20.738535
887.249171	-2.988000	3.606300	-10.773000	25.454577	0.000985	20.751092
888.249865	-3.014300	3.607700	-10.872000	25.464167	0.000983	20.768310
889.248376	-2.986200	3.606200	-10.768000	25.451394	0.000981	20.735567
890.249424	-3.023700	3.604900	-10.899000	25.425815	0.000981	20.731693
891.255085	-2.970800	3.605700	-10.710000	25.430838	0.000981	20.771825
892.251178	-2.998100	3.604500	-10.805000	25.460162	0.000982	20.737260
893.247182	-2.977400	3.605500	-10.734000	25.464730	0.000980	20.748485
894.250789	-2.998700	3.602900	-10.802000	25.469850	0.000981	20.737506
895.247552	-2.999200	3.602800	-10.804000	25.506826	0.000979	20.726273
896.250333	-2.997500	3.603400	-10.800000	25.481882	0.000979	20.716396
897.254320	-3.009000	3.603200	-10.840000	25.478919	0.000980	20.739975
898.247546	-3.006100	3.603600	-10.832000	25.450572	0.000981	20.715774
899.246568	-3.008200	3.602600	-10.836000	25.413286	0.000977	20.739026
900.250968	-3.009700	3.602000	-10.840000	25.373368	0.000978	20.751576
901.250576	-3.013100	3.601500	-10.851000	25.356547	0.000979	20.721408
902.248116	-3.014500	3.602200	-10.857000	25.345735	0.000976	20.737105
903.254096	-2.977300	3.602400	-10.725000	25.325184	0.000976	20.742550
904.251610	-2.997800	3.600700	-10.792000	25.310814	0.000974	20.756097
905.252138	-3.006100	3.600900	-10.823000	25.295482	0.000975	20.738805
906.254649	-2.981900	3.601700	-10.739000	25.285785	0.000974	20.724327
907.251451	-2.998900	3.600000	-10.795000	25.338407	0.000974	20.725953
908.248221	-2.989200	3.600600	-10.762000	25.351321	0.000973	20.726118
909.253411	-3.034700	3.598500	-10.920000	25.385971	0.000973	20.713968
910.252755	-3.041100	3.598500	-10.942000	25.397525	0.000973	20.717035
911.255426	-2.990800	3.598600	-10.761000	25.417014	0.000973	20.723803
912.255517	-3.011200	3.598800	-10.836000	25.443188	0.000973	20.739181
913.250792	-2.992000	3.599100	-10.767000	25.465398	0.000973	20.722128
914.250722	-2.996800	3.597800	-10.779000	25.425661	0.000973	20.723477
915.257288	-3.010700	3.598600	-10.834000	25.435853	0.000972	20.730867
916.259367	-2.995000	3.598400	-10.776000	25.418431	0.000970	20.725226
917.257272	-2.987500	3.597100	-10.745000	25.429389	0.000971	20.735282
918.257389	-3.001300	3.596000	-10.791000	25.438214	0.000970	20.731815
919.257452	-2.981800	3.596100	-10.722000	25.382893	0.000969	20.700445
920.260846	-2.990900	3.597300	-10.758000	25.400211	0.000970	20.702662
921.260690	-2.996000	3.597400	-10.777000	25.372309	0.000969	20.750986
922.258401	-2.967400	3.597300	-10.672000	25.362067	0.000967	20.743073
923.261502	-2.972600	3.596600	-10.691000	25.344976	0.000965	20.735395
924.260684	-2.997500	3.596000	-10.778000	25.345368	0.000966	20.725356
925.264024	-2.981500	3.596700	-10.721000	25.316187	0.000965	20.714548
926.266544	-2.985200	3.596200	-10.733000	25.352402	0.000965	20.729575
927.264158	-3.014600	3.593500	-10.832000	25.338211	0.000964	20.711531
928.264822	-3.016700	3.594000	-10.841000	25.371739	0.000964	20.709634
929.264376	-3.011700	3.593700	-10.822000	25.375027	0.000961	20.711040
930.267017	-2.995900	3.593700	-10.764000	25.381890	0.000963	20.706077
931.262181	-3.009200	3.592400	-10.809000	25.399932	0.000963	20.713288
932.264986	-2.970900	3.593900	-10.676000	25.454031	0.000961	20.700755
933.267434	-2.974500	3.593800	-10.687000	25.465192	0.000962	20.721922
934.261262	-2.957200	3.594100	-10.626000	25.478274	0.000961	20.712298
935.266115	-3.003600	3.592400	-10.788000	25.474961	0.000959	20.701858
936.267685	-2.997200	3.592400	-10.765000	25.493628	0.000961	20.701163
937.265905	-2.990900	3.591000	-10.739000	25.506148	0.000961	20.699038
938.264258	-3.017100	3.590000	-10.830000	25.507719	0.000959	20.689234
939.269442	-3.007800	3.590100	-10.798000	25.492040	0.000960	20.700517
940.262224	-3.003300	3.589200	-10.778000	25.501385	0.000957	20.709902
941.268581	-2.995400	3.588400	-10.748000	25.522632	0.000960	20.713222
942.262773	-2.998800	3.589500	-10.763000	25.516462	0.000958	20.705128
943.265787	-2.998700	3.589500	-10.763000	25.493554	0.000958	20.695399
944.269655	-3.004300	3.588100	-10.778000	25.509314	0.000956	20.713598
945.262301	-3.014800	3.587900	-10.816000	25.509478	0.000957	20.716133
946.265019	-2.988800	3.588500	-10.724000	25.545215	0.000956	20.698441
947.262633	-2.985000	3.588500	-10.710000	25.557808	0.000956	20.702554
948.266056	-3.000200	3.587100	-10.760000	25.530896	0.000955	20.683112
949.263952	-2.994800	3.586900	-10.740000	25.558972	0.000958	20.699930
950.273011	-3.020200	3.587900	-10.833000	25.548886	0.000955	20.718725
951.266626	-2.990800	3.588000	-10.731000	25.531833	0.000954	20.683104
952.265753	-3.012900	3.584900	-10.800000	25.506060	0.000955	20.695156
953.272061	-3.026500	3.584900	-10.848000	25.493190	0.000956	20.709258
954.269144	-3.016800	3.584800	-10.812000	25.465951	0.000952	20.691861
955.267317	-3.010400	3.584500	-10.790000	25.467962	0.000952	20.713322
956.265328	-2.997800	3.584600	-10.745000	25.483120	0.000952	20.698197
957.268991	-2.994500	3.585000	-10.735000	25.508984	0.000951	20.686711
958.266306	-2.979100	3.584700	-10.678000	25.504164	0.000951	20.715538
959.271517	-3.006700	3.583800	-10.773000	25.501926	0.000950	20.700487
960.268358	-2.998200	3.584800	-10.747000	25.490251	0.000952	20.679753
961.269868	-2.994200	3.584100	-10.731000	25.508113	0.000949	20.685362
962.267272	-2.995900	3.584400	-10.737000	25.514219	0.000947	20.684856
963.269728	-3.004000	3.582700	-10.762000	25.544069	0.000947	20.686858
964.267447	-3.002900	3.582000	-10.756000	25.541334	0.000949	20.692647
965.267235	-2.995800	3.583000	-10.732000	25.593440	0.000946	20.688077
966.274043	-2.988600	3.581200	-10.701000	25.598080	0.000948	20.722138
967.268304	-3.000400	3.582000	-10.746000	25.623785	0.000949	20.692949
968.273650	-2.985400	3.581900	-10.692000	25.632153	0.000948	20.710838
969.269410	-3.006700	3.580300	-10.762000	25.636647	0.000947	20.694961
970.277987	-3.002700	3.580200	-10.749000	25.660821	0.000945	20.689369
971.276062	-3.000700	3.581000	-10.744000	25.647984	0.000945	20.707772
972.275232	-3.032100	3.578800	-10.849000	25.677890	0.000945	20.671898
973.273017	-2.993900	3.580400	-10.717000	25.676823	0.000944	20.693114
974.269717	-3.006000	3.578500	-10.756000	25.686013	0.000945	20.689541
975.276218	-2.992100	3.579600	-10.709000	25.640773	0.000946	20.695313
976.274413	-2.999000	3.578300	-10.729000	25.629785	0.000944	20.691389
977.273471	-2.988600	3.578800	-10.694000	25.597706	0.000942	20.688568
978.272854	-3.008400	3.576600	-10.758000	25.590306	0.000944	20.685878
979.269979	-2.996400	3.576900	-10.717000	25.550347	0.000941	20.687947
980.275049	-3.001700	3.578000	-10.739000	25.519926	0.000942	20.687743
981.274703	-3.011100	3.576600	-10.767000	25.515579	0.000940	20.674367
982.274146	-3.021100	3.576400	-10.803000	25.527799	0.000941	20.684743
983.271250	-2.995100	3.576800	-10.712000	25.579073	0.000941	20.691667
984.280882	-2.987500	3.577400	-10.686000	25.606229	0.000938	20.707086
985.277903	-2.984200	3.576700	-10.672000	25.611219	0.000938	20.693605
986.276001	-3.000900	3.576200	-10.731000	25.644665	0.000938	20.655595
987.276243	-2.998000	3.575900	-10.719000	25.662279	0.000939	20.688937
988.278815	-2.971700	3.576300	-10.626000	25.684743	0.000937	20.687318
989.277301	-3.002600	3.575100	-10.734000	25.695993	0.000937	20.710472
990.278127	-2.997200	3.574800	-10.713000	25.670923	0.000936	20.700465
991.280963	-2.994500	3.573700	-10.700000	25.643175	0.000936	20.690612
992.278224	-2.992400	3.573900	-10.694000	25.626270	0.000934	20.683116
993.291300	-2.996200	3.572800	-10.703000	25.645871	0.000933	20.695691
994.280416	-2.991200	3.573000	-10.686000	25.659813	0.000935	20.697841
995.279472	-3.019600	3.572400	-10.787000	25.651886	0.000934	20.672332
996.277863	-2.982800	3.574000	-10.659000	25.606710	0.000933	20.684335
997.283309	-2.978700	3.572900	-10.641000	25.566010	0.000932	20.700359
998.277836	-2.990700	3.571600	-10.681000	25.529208	0.000934	20.679993
999.277054	-2.974700	3.573100	-10.626000	25.481894	0.000933	20.691750
1000.279485	-2.997400	3.571000	-10.703000	25.482310	0.000933	20.700703
1001.278516	-3.021000	3.569700	-10.782000	25.449006	0.000930	20.686224
1002.282213	-2.980000	3.570900	-10.640000	25.447141	0.000931	20.691465
1003.283301	-2.989600	3.570400	-10.672000	25.481236	0.000931	20.685399
1004.279531	-2.987900	3.569900	-10.665000	25.521093	0.000929	20.708831
1005.277600	-2.982900	3.570200	-10.649000	25.513685	0.000930	20.683846
1006.275395	-2.988200	3.569500	-10.665000	25.528794	0.000930	20.697597
1007.279335	-3.010000	3.567600	-10.737000	25.533141	0.000929	20.692954
1008.279632	-3.009200	3.567700	-10.735000	25.526800	0.000927	20.723572
1009.280606	-3.010400	3.568400	-10.741000	25.536082	0.000928	20.684052
1010.283414	-3.010600	3.567200	-10.739000	25.550295	0.000927	20.687895
1011.287928	-3.031100	3.565800	-10.806000	25.556408	0.000927	20.690241
1012.282068	-2.997800	3.568700	-10.697000	25.591412	0.000926	20.692204
1013.285214	-2.999900	3.566600	-10.699000	25.567837	0.000924	20.684175
1014.282218	-2.998100	3.566800	-10.693000	25.584729	0.000925	20.688337
1015.281959	-3.003700	3.566700	-10.713000	25.618371	0.000923	20.686089
1016.282910	-2.973300	3.566300	-10.602000	25.653869	0.000922	20.707044
1017.285623	-2.975700	3.566800	-10.612000	25.656254	0.000924	20.697111
1018.287314	-3.019100	3.565200	-10.762000	25.662360	0.000923	20.705140
1019.288219	-2.988300	3.565800	-10.655000	25.694192	0.000922	20.694912
1020.286404	-3.007500	3.564400	-10.719000	25.678924	0.000921	20.694750
1021.286357	-3.019600	3.563500	-10.759000	25.694975	0.000922	20.684317
1022.281119	-3.026800	3.563900	-10.786000	25.709854	0.000920	20.698315
1023.284589	-3.003300	3.563100	-10.700000	25.723967	0.000920	20.700162
1024.284914	-3.000300	3.562800	-10.688000	25.722152	0.000921	20.703081
1025.286200	-3.007300	3.563000	-10.714000	25.730967	0.000919	20.707668
1026.284957	-2.990600	3.563200	-10.656000	25.733026	0.000920	20.680811
1027.288840	-2.991800	3.562700	-10.658000	25.754765	0.000919	20.689371
1028.283115	-2.998300	3.562000	-10.679000	25.752202	0.000919	20.697703
1029.287509	-2.996900	3.561600	-10.673000	25.754017	0.000917	20.695733
1030.288444	-2.990800	3.562000	-10.652000	25.768357	0.000918	20.712509
1031.285388	-2.987100	3.561000	-10.636000	25.791895	0.000917	20.696796
1032.291041	-2.996600	3.559600	-10.665000	25.801213	0.000914	20.690035
1033.289739	-2.986100	3.560200	-10.630000	25.776668	0.000915	20.709951
1034.289022	-2.976100	3.559500	-10.593000	25.772094	0.000914	20.711995
1035.290369	-2.997000	3.558200	-10.663000	25.766576	0.000914	20.698391
1036.291430	-2.992700	3.559100	-10.651000	25.732263	0.000911	20.708496
1037.285526	-3.000000	3.559000	-10.676000	25.710744	0.000913	20.706322
1038.290183	-3.011300	3.558200	-10.714000	25.733875	0.000910	20.700632
1039.291366	-2.993800	3.560000	-10.657000	25.696232	0.000911	20.693642
1040.290135	-3.025700	3.557300	-10.763000	25.696729	0.000912	20.707892
1041.291202	-3.008400	3.557300	-10.701000	25.702019	0.000910	20.709413
1042.293492	-2.977000	3.558800	-10.593000	25.718216	0.000911	20.707189
1043.292651	-2.974800	3.558400	-10.584000	25.738466	0.000911	20.714727
1044.293393	-2.984100	3.557300	-10.615000	25.749054	0.000910	20.696438
1045.293766	-2.997600	3.557100	-10.662000	25.763827	0.000911	20.714597
1046.299846	-3.000400	3.556900	-10.672000	25.789251	0.000906	20.687502
1047.302091	-2.988800	3.555500	-10.625000	25.760418	0.000910	20.710698
1048.296635	-3.032600	3.554200	-10.776000	25.737221	0.000908	20.709683
1049.290151	-2.993300	3.556100	-10.643000	25.754085	0.000907	20.715243
1050.294031	-3.003300	3.554400	-10.672000	25.763453	0.000907	20.698573
1051.295753	-2.984900	3.554100	-10.608000	25.731060	0.000906	20.698752
1052.293847	-3.009800	3.553300	-10.693000	25.761264	0.000906	20.698745
1053.292305	-2.978400	3.553200	-10.581000	25.777387	0.000905	20.716364
1054.294939	-2.987500	3.553800	-10.615000	25.753442	0.000903	20.717442
1055.293900	-2.996000	3.553600	-10.645000	25.695127	0.000902	20.706757
1056.295909	-3.006300	3.551900	-10.677000	25.650824	0.000903	20.725324
1057.295906	-3.003500	3.551500	-10.666000	25.613080	0.000903	20.712071
1058.295745	-2.985700	3.552100	-10.605000	25.600739	0.000903	20.711531
1059.294078	-2.988400	3.551800	-10.612000	25.590240	0.000902	20.723272
1060.293346	-3.011500	3.551300	-10.693000	25.603589	0.000902	20.705384
1061.298182	-3.008500	3.550600	-10.680000	25.640480	0.000902	20.733427
1062.298507	-3.016200	3.549200	-10.704000	25.684416	0.000899	20.720182
1063.296973	-3.008400	3.550000	-10.679000	25.712667	0.000900	20.704460
1064.295310	-2.996900	3.548800	-10.634000	25.755812	0.000899	20.720297
1065.297498	-3.007800	3.548800	-10.673000	25.743123	0.000898	20.709447
1066.298330	-3.030700	3.547900	-10.751000	25.741357	0.000895	20.702932
1067.292178	-3.001200	3.549500	-10.652000	25.745158	0.000896	20.712440
1068.297193	-3.009700	3.547900	-10.676000	25.741301	0.000894	20.728955
1069.294874	-3.004900	3.547100	-10.658000	25.758400	0.000896	20.708197
1070.293200	-3.010900	3.547500	-10.680000	25.759753	0.000893	20.714772
1071.296936	-2.990800	3.548600	-10.612000	25.792306	0.000893	20.693890
1072.295481	-2.998300	3.546800	-10.633000	25.821271	0.000893	20.706865
1073.296179	-3.007600	3.547500	-10.668000	25.836424	0.000892	20.714027
1074.298697	-3.030600	3.547300	-10.748000	25.836676	0.000890	20.736567
1075.295074	-3.003300	3.545600	-10.647000	25.833683	0.000893	20.718386
1076.298053	-2.989600	3.545600	-10.600000	25.838648	0.000891	20.725270
1077.299364	-2.969800	3.546100	-10.529000	25.849266	0.000891	20.725032
1078.298930	-3.022700	3.544700	-10.712000	25.861661	0.000887	20.740328
1079.298704	-2.995200	3.545400	-10.618000	25.867993	0.000889	20.726299
1080.300989	-2.995200	3.544500	-10.616000	25.882324	0.000892	20.722204
1081.303871	-2.994300	3.546500	-10.617000	25.833861	0.000888	20.735636
1082.301272	-3.007500	3.543800	-10.657000	25.825309	0.000887	20.714241
1083.308986	-2.979500	3.545700	-10.564000	25.860898	0.000886	20.724388
1084.304340	-3.001400	3.542300	-10.631000	25.858699	0.000888	20.710799
1085.300840	-2.991400	3.543700	-10.598000	25.884725	0.000887	20.727462
1086.303203	-3.030800	3.541700	-10.733000	25.870957	0.000885	20.710310
1087.300740	-2.999100	3.542700	-10.623000	25.922215	0.000885	20.730985
1088.305893	-3.025900	3.540900	-10.712000	25.908471	0.000883	20.712435
1089.303689	-2.991000	3.541900	-10.593000	25.921865	0.000884	20.723521
1090.303400	-2.979500	3.542800	-10.554000	25.928857	0.000883	20.729123
1091.300857	-2.993200	3.540600	-10.597000	25.970844	0.000882	20.751866
1092.308029	-3.010600	3.539300	-10.654000	25.957427	0.000881	20.733643
1093.306899	-3.017900	3.540100	-10.683000	25.915788	0.000881	20.717890
1094.303938	-2.992900	3.540100	-10.594000	25.880756	0.000880	20.739596
1095.310987	-3.000200	3.538400	-10.614000	25.876435	0.000880	20.728142
1096.306746	-3.007200	3.539100	-10.642000	25.868232	0.000879	20.731282
1097.306166	-2.989500	3.538200	-10.576000	25.858394	0.000880	20.736098
1098.302603	-2.990200	3.539200	-10.581000	25.856303	0.000878	20.734946
1099.306578	-3.004900	3.538000	-10.630000	25.825989	0.000879	20.744324
1100.306853	-3.012500	3.538500	-10.659000	25.805846	0.000877	20.743530
1101.307887	-3.003800	3.537700	-10.625000	25.794535	0.000877	20.740702
1102.304313	-2.998700	3.537700	-10.608000	25.816720	0.000877	20.739280
1103.305110	-3.000700	3.536900	-10.612000	25.842803	0.000877	20.731816
1104.310538	-2.994900	3.536600	-10.590000	25.840240	0.000875	20.756269
1105.307253	-3.012200	3.535500	-10.649000	25.841233	0.000875	20.741619
1106.302575	-3.019200	3.534900	-10.671000	25.822328	0.000875	20.749655
1107.305801	-3.032600	3.534800	-10.718000	25.837897	0.000873	20.753441
1108.307690	-2.991600	3.535600	-10.576000	25.831516	0.000871	20.729487
1109.302855	-2.988900	3.535200	-10.565000	25.808884	0.000871	20.746582
1110.309117	-3.002700	3.534200	-10.611000	25.780163	0.000870	20.751397
1111.309221	-3.024400	3.532000	-10.681000	25.750718	0.000871	20.745528
1112.305672	-3.015400	3.532400	-10.651000	25.721590	0.000871	20.765109
1113.308175	-3.007900	3.532900	-10.625000	25.724877	0.000870	20.742331
1114.304499	-2.977400	3.534500	-10.522000	25.738910	0.000870	20.760220
1115.305829	-3.007800	3.532400	-10.624000	25.760900	0.000870	20.755756
1116.305449	-2.990100	3.533000	-10.562000	25.803702	0.000870	20.765558
1117.303473	-2.996200	3.532200	-10.581000	25.820020	0.000867	20.741172
1118.303068	-2.980700	3.531700	-10.525000	25.812247	0.000868	20.742847
1119.316419	-3.012400	3.530700	-10.634000	25.815502	0.000867	20.755127
1120.308350	-3.014600	3.529400	-10.638000	25.841309	0.000866	20.760662
1121.304461	-3.044700	3.528000	-10.740000	25.878597	0.000865	20.756869
1122.307462	-2.994900	3.530500	-10.572000	25.855844	0.000863	20.770047
1123.311526	-2.997600	3.529300	-10.579000	25.888240	0.000866	20.760392
1124.309875	-2.991100	3.528900	-10.554000	25.916951	0.000866	20.766949
1125.310381	-2.991400	3.529200	-10.556000	25.937025	0.000863	20.760564
1126.305030	-2.992900	3.529200	-10.561000	25.931012	0.000865	20.762583
1127.305308	-3.005700	3.527900	-10.602000	25.952568	0.000861	20.768118
1128.305750	-2.982600	3.528100	-10.521000	25.956792	0.000864	20.770939
1129.309315	-3.023000	3.526600	-10.660000	25.977753	0.000860	20.764497
1130.310335	-3.016800	3.526400	-10.636000	25.972464	0.000862	20.780520
1131.310409	-3.027600	3.525600	-10.672000	25.966297	0.000862	20.768635
1132.311160	-3.002900	3.527600	-10.592000	25.950233	0.000860	20.757237
1133.311341	-2.988800	3.526800	-10.539000	25.943097	0.000858	20.746749
1134.310120	-3.022300	3.524000	-10.650000	25.940591	0.000859	20.759404
1135.308759	-3.011300	3.524900	-10.614000	25.949786	0.000861	20.752994
1136.308958	-3.034000	3.522200	-10.685000	25.977876	0.000858	20.763198
1137.311408	-3.009100	3.524300	-10.603000	25.978714	0.000856	20.761195
1138.310621	-3.005100	3.524300	-10.589000	25.950128	0.000857	20.770882
1139.312603	-2.971300	3.524500	-10.471000	25.927393	0.000856	20.770801
1140.311699	-2.975600	3.524400	-10.485000	25.945125	0.000857	20.787193
1141.312354	-3.004900	3.522800	-10.583000	25.949201	0.000856	20.770426
1142.312772	-2.990200	3.523700	-10.536000	25.928417	0.000855	20.767563
1143.310961	-3.003400	3.522500	-10.577000	25.930697	0.000854	20.760370
1144.313343	-2.972400	3.522400	-10.469000	25.935888	0.000855	20.781707
1145.309877	-2.978900	3.523100	-10.494000	25.932714	0.000853	20.779467
1146.319286	-2.998800	3.521300	-10.559000	25.900969	0.000853	20.758006
1147.326849	-3.002900	3.521600	-10.573000	25.882058	0.000851	20.799226
1148.313050	-2.979100	3.522200	-10.491000	25.879446	0.000854	20.788068
1149.313190	-2.993000	3.521700	-10.539000	25.892589	0.000852	20.771399
1150.309529	-3.001500	3.520400	-10.566000	25.927361	0.000851	20.756545
1151.312819	-2.987300	3.520000	-10.515000	25.960333	0.000850	20.789670
1152.314627	-2.999000	3.519600	-10.554000	25.962661	0.000852	20.772094
1153.310566	-3.002000	3.518600	-10.561000	25.991824	0.000851	20.780530
1154.311611	-3.009100	3.518800	-10.587000	25.982710	0.000851	20.796030
1155.314679	-3.004300	3.518000	-10.568000	25.958714	0.000850	20.777612
1156.315683	-2.986000	3.518000	-10.503000	25.942244	0.000849	20.766281
1157.314893	-2.999800	3.516200	-10.547000	25.939283	0.000848	20.778479
1158.320573	-2.991900	3.517200	-10.522000	25.945328	0.000847	20.789294
1159.312179	-3.029100	3.514400	-10.644000	25.941031	0.000847	20.782606
1160.315270	-3.008100	3.514800	-10.572000	25.907367	0.000847	20.802840
1161.315457	-3.001400	3.515800	-10.550000	25.918044	0.000845	20.789385
1162.314415	-3.007500	3.516200	-10.574000	25.931787	0.000846	20.774268
1163.318640	-2.981100	3.516300	-10.480000	25.975134	0.000846	20.783203
1164.314429	-3.010900	3.514100	-10.580000	25.972034	0.000845	20.780562
1165.313613	-2.993800	3.513800	-10.519000	25.983525	0.000847	20.798271
1166.317437	-3.006700	3.514100	-10.564000	25.971562	0.000847	20.791942
1167.315534	-3.001700	3.512800	-10.542000	26.002703	0.000843	20.803314
1168.318620	-3.000600	3.512400	-10.538000	25.985728	0.000843	20.787208
1169.318789	-2.993100	3.513800	-10.516000	25.972904	0.000843	20.802300
1170.317643	-3.023600	3.511000	-10.614000	26.003556	0.000842	20.787576
1171.316013	-2.990600	3.512200	-10.503000	26.009520	0.000841	20.783611
1172.318179	-3.019300	3.509900	-10.596000	26.012768	0.000841	20.804892
1173.316831	-2.987800	3.512000	-10.491000	25.999358	0.000839	20.804221
1174.314504	-3.024900	3.510200	-10.617000	26.025884	0.000839	20.779189
1175.317710	-3.002700	3.511500	-10.542000	26.041888	0.000838	20.799062
1176.317159	-3.011200	3.509900	-10.568000	26.030107	0.000838	20.802872
1177.319286	-2.984400	3.509600	-10.473000	26.029293	0.000840	20.788778
1178.322906	-2.982000	3.511000	-10.468000	26.012051	0.000835	20.810810
1179.319903	-2.993900	3.510200	-10.508000	25.977184	0.000838	20.786684
1180.317690	-3.002200	3.509500	-10.535000	25.980113	0.000837	20.805749
1181.320887	-3.028500	3.507400	-10.620000	25.979771	0.000836	20.808250
1182.316740	-2.994500	3.507400	-10.502000	25.967818	0.000835	20.814733
1183.318039	-2.992200	3.507400	-10.494000	25.955026	0.000836	20.791925
1184.320749	-2.998000	3.508000	-10.516000	25.941412	0.000834	20.815232
1185.319458	-3.010900	3.505600	-10.554000	25.938361	0.000833	20.813114
1186.320247	-3.003900	3.506300	-10.532000	25.924673	0.000833	20.784665
1187.323130	-2.993100	3.507300	-10.496000	25.888306	0.000832	20.794598
1188.322085	-3.007600	3.505600	-10.542000	25.879069	0.000831	20.799543
1189.321347	-2.991900	3.506100	-10.489000	25.880779	0.000831	20.795096
1190.323596	-2.989100	3.505000	-10.476000	25.898218	0.000830	20.787960
1191.328298	-2.991300	3.505100	-10.484000	25.915461	0.000829	20.806704
1192.320875	-2.978200	3.505100	-10.437000	25.948824	0.000827	20.805609
1193.320872	-3.009000	3.503100	-10.540000	25.979582	0.000827	20.810431
1194.325715	-3.001000	3.502700	-10.511000	25.995230	0.000828	20.813824
1195.325602	-2.990000	3.504300	-10.477000	26.025311	0.000827	20.790468
1196.328475	-3.004900	3.501700	-10.521000	26.055043	0.000827	20.812753
1197.324378	-2.985800	3.503100	-10.458000	26.072552	0.000827	20.786724
1198.328869	-2.971300	3.504100	-10.411000	26.100923	0.000827	20.817600
1199.329277	-3.007500	3.501500	-10.528000	26.091460	0.000826	20.810937
1200.335062	-3.007100	3.501900	-10.528000	26.074755	0.000826	20.828765
1201.330053	-3.008700	3.499900	-10.529000	26.031608	0.000825	20.804380
1202.329890	-2.966600	3.501600	-10.387000	26.051617	0.000825	20.807888
1203.329660	-2.992300	3.501400	-10.477000	26.032048	0.000824	20.808616
1204.333728	-2.977500	3.500200	-10.421000	26.030087	0.000821	20.805223
1205.329163	-3.013500	3.499900	-10.546000	26.042756	0.000822	20.840236
1206.327663	-3.008700	3.498400	-10.524000	26.013374	0.000822	20.809768
1207.334143	-2.977100	3.499700	-10.418000	26.036051	0.000821	20.807896
1208.333673	-2.983100	3.498100	-10.434000	26.048020	0.000821	20.814706
1209.330591	-2.999400	3.496100	-10.484000	26.039012	0.000819	20.815138
1210.334175	-3.002900	3.496400	-10.497000	26.073983	0.000816	20.832256
1211.331101	-3.016900	3.496500	-10.548000	26.065960	0.000818	20.815661
1212.333615	-3.018000	3.495600	-10.547000	26.101580	0.000818	20.823002
1213.334164	-3.005700	3.495500	-10.505000	26.105226	0.000817	20.815760
1214.334257	-2.985300	3.497700	-10.440000	26.092289	0.000817	20.811770
1215.333967	-2.997300	3.495800	-10.477000	26.043958	0.000817	20.818686
1216.338374	-3.007400	3.494600	-10.508000	26.029727	0.000816	20.817664
1217.332136	-2.991200	3.495600	-10.454000	26.020589	0.000816	20.830768
1218.333235	-2.986200	3.494500	-10.435000	25.975031	0.000816	20.808230
1219.332802	-2.988300	3.494900	-10.442000	25.974412	0.000815	20.809031
1220.335195	-2.987900	3.493400	-10.437000	25.974217	0.000815	20.805041
1221.337751	-3.003000	3.493400	-10.490000	25.957300	0.000814	20.822658
1222.336551	-2.988900	3.492100	-10.436000	25.899841	0.000812	20.845065
1223.336310	-3.003600	3.492500	-10.488000	25.867795	0.000810	20.841321
1224.336399	-2.978900	3.492300	-10.402000	25.870309	0.000813	20.823933
1225.342296	-3.004800	3.491400	-10.490000	25.862309	0.000811	20.833440
1226.335448	-3.014100	3.490800	-10.521000	25.880595	0.000812	20.818145
1227.334960	-2.988900	3.492300	-10.437000	25.898831	0.000809	20.826982
1228.335149	-2.986800	3.490500	-10.424000	25.929331	0.000810	20.824906
1229.333303	-2.997200	3.490500	-10.461000	25.952685	0.000810	20.832721
1230.335730	-3.013300	3.489000	-10.512000	25.975770	0.000809	20.830308
1231.342007	-2.993300	3.489700	-10.443000	26.025348	0.000810	20.827488
1232.334828	-3.002800	3.488500	-10.475000	26.030490	0.000809	20.817956
1233.338264	-2.988300	3.487400	-10.419000	26.008008	0.000808	20.815757
1234.351171	-3.010200	3.486300	-10.493000	25.966827	0.000808	20.827962
1235.336291	-2.996500	3.488100	-10.450000	25.985639	0.000806	20.823628
1236.335289	-2.999400	3.487600	-10.459000	25.997511	0.000805	20.807107
1237.339385	-2.987900	3.486100	-10.416000	26.018447	0.000806	20.823400
1238.338980	-3.011000	3.486200	-10.496000	26.055883	0.000805	20.810278
1239.336881	-3.005100	3.485400	-10.473000	26.098998	0.000804	20.816140
1240.344350	-3.011200	3.485700	-10.495000	26.146910	0.000805	20.847212
1241.345850	-3.002500	3.485300	-10.463000	26.200825	0.000803	20.826947
1242.344010	-3.047100	3.483100	-10.611000	26.179819	0.000803	20.805365
1243.343503	-3.007100	3.484300	-10.476000	26.154573	0.000802	20.815558
1244.343773	-3.008000	3.485000	-10.481000	26.097303	0.000801	20.822498
1245.342213	-2.987800	3.483600	-10.407000	26.081608	0.000801	20.818108
1246.346480	-2.997700	3.483500	-10.441000	26.075449	0.000803	20.816187
1247.339983	-2.976600	3.483700	-10.369000	26.095213	0.000799	20.812811
1248.339080	-3.000800	3.481500	-10.446000	26.093374	0.000800	20.813809
1249.340539	-2.961000	3.483500	-10.313000	26.130783	0.000802	20.811094
1250.342227	-2.993600	3.481200	-10.420000	26.157754	0.000800	20.793624
1251.343716	-2.968500	3.482700	-10.335000	26.135558	0.000800	20.806883
1252.346324	-2.996100	3.482300	-10.432000	26.109653	0.000798	20.823527
1253.346433	-3.016100	3.479200	-10.492000	26.093780	0.000798	20.806156
1254.347098	-3.004300	3.482200	-10.460000	26.064155	0.000797	20.812425
1255.352288	-3.008800	3.479000	-10.466000	26.002333	0.000795	20.790140
1256.346560	-2.993700	3.478800	-10.413000	25.969468	0.000797	20.820658
1257.346409	-3.009300	3.478200	-10.465000	25.962290	0.000794	20.830042
1258.350723	-3.009100	3.477700	-10.462000	25.982487	0.000794	20.786797
1259.344491	-3.007100	3.479200	-10.461000	26.024042	0.000795	20.785399
1260.347627	-3.010600	3.476400	-10.465000	26.036931	0.000794	20.808780
1261.353381	-3.006600	3.478700	-10.458000	26.044034	0.000793	20.807382
1262.345268	-2.981200	3.477900	-10.367000	26.057223	0.000794	20.779382
1263.343266	-2.986000	3.477300	-10.382000	26.064456	0.000793	20.780011
1264.349322	-3.004500	3.476200	-10.443000	26.063407	0.000790	20.781802
1265.349498	-2.997500	3.476200	-10.420000	26.064781	0.000793	20.785079
1266.348446	-3.001700	3.475600	-10.431000	26.083300	0.000792	20.788040
1267.350990	-2.999400	3.475000	-10.422000	26.038004	0.000790	20.779512
1268.347105	-3.015100	3.474100	-10.474000	26.034627	0.000789	20.799827
1269.357232	-3.010400	3.473100	-10.454000	26.026458	0.000790	20.774550
1270.353029	-3.006700	3.472800	-10.441000	26.033463	0.000789	20.784907
1271.350375	-3.001200	3.472600	-10.420000	26.057573	0.000787	20.781156
1272.350521	-3.010300	3.473100	-10.454000	26.085220	0.000788	20.797081
1273.356618	-3.012000	3.472500	-10.458000	26.092746	0.000788	20.788047
1274.346784	-2.995900	3.471800	-10.400000	26.121947	0.000789	20.794629
1275.347498	-3.012400	3.470900	-10.455000	26.140155	0.000787	20.768828
1276.350328	-3.010200	3.470800	-10.446000	26.125258	0.000786	20.787524
1277.347657	-2.999900	3.469500	-10.406000	26.123720	0.000785	20.786927
1278.346756	-2.984300	3.471000	-10.357000	26.141050	0.000783	20.782529
1279.348565	-3.004400	3.469300	-10.422000	26.131465	0.000784	20.795184
1280.350935	-3.004600	3.469400	-10.423000	26.111695	0.000783	20.793337
1281.347581	-2.988000	3.467600	-10.360000	26.092103	0.000784	20.786927
1282.353418	-3.018600	3.468500	-10.468000	26.057304	0.000783	20.792740
1283.346060	-2.973800	3.467200	-10.309000	26.051641	0.000781	20.782308
1284.347994	-3.028000	3.466500	-10.496000	26.026230	0.000782	20.800874
1285.351902	-2.993900	3.467000	-10.377000	26.054472	0.000782	20.765712
1286.347051	-2.967600	3.467000	-10.287000	26.049672	0.000782	20.775589
1287.349802	-3.012900	3.466300	-10.443000	26.072258	0.000779	20.770781
1288.357794	-2.995200	3.466700	-10.382000	26.079630	0.000781	20.762541
1289.350124	-2.998600	3.467000	-10.396000	26.062690	0.000779	20.787720
1290.353103	-3.023200	3.465200	-10.475000	26.029575	0.000780	20.768673
1291.349141	-3.000700	3.465800	-10.398000	25.980371	0.000778	20.787042
1292.355039	-3.003000	3.464500	-10.403000	25.963780	0.000778	20.769425
1293.351854	-3.009600	3.464100	-10.425000	25.921303	0.000778	20.785546
1294.354929	-3.001500	3.464300	-10.398000	25.933794	0.000776	20.775336
1295.348655	-2.984700	3.464700	-10.340000	25.906818	0.000777	20.772891
1296.351151	-2.988700	3.462900	-10.348000	25.934819	0.000775	20.766882
1297.354237	-2.976300	3.464300	-10.310000	25.994082	0.000774	20.776635
1298.351546	-2.990300	3.463400	-10.356000	26.015417	0.000774	20.765828
1299.352499	-3.018800	3.460900	-10.445000	26.013530	0.000774	20.761086
1300.356837	-3.005200	3.461400	-10.401000	26.054864	0.000774	20.768950
1301.364377	-2.999100	3.461500	-10.380000	26.030299	0.000772	20.752804
1302.355007	-3.002700	3.462200	-10.394000	25.993033	0.000772	20.760882
1303.361036	-2.987300	3.461000	-10.338000	26.029282	0.000772	20.775491
1304.351279	-3.014000	3.458800	-10.424000	26.007174	0.000773	20.770823
1305.355994	-2.986400	3.459700	-10.330000	25.967873	0.000770	20.756942
1306.353078	-2.980500	3.458700	-10.308000	25.926365	0.000768	20.754121
1307.355377	-3.012100	3.458200	-10.415000	25.907444	0.000768	20.761192
1308.355652	-3.025000	3.456400	-10.453000	25.919960	0.000769	20.762386
1309.361632	-2.987900	3.458400	-10.333000	25.944080	0.000769	20.747262
1310.354146	-2.995600	3.456900	-10.355000	25.977466	0.000769	20.759941
1311.357887	-3.009100	3.457000	-10.402000	25.997313	0.000767	20.758543
1312.362747	-3.007800	3.458500	-10.401000	26.018427	0.000768	20.775491
1313.359326	-3.014300	3.456600	-10.418000	25.970915	0.000767	20.759049
1314.362523	-2.995200	3.454300	-10.344000	25.956756	0.000768	20.759998
1315.361746	-2.989100	3.456300	-10.331000	25.964724	0.000766	20.740974
1316.359629	-2.988900	3.455500	-10.327000	26.003854	0.000765	20.760374
1317.358318	-2.995000	3.453800	-10.342000	26.049980	0.000763	20.761199
1318.366595	-3.007100	3.453900	-10.385000	26.066571	0.000765	20.770282
1319.366238	-2.993700	3.454400	-10.340000	26.102785	0.000764	20.760676
1320.363313	-3.013200	3.453800	-10.406000	26.091785	0.000763	20.752468
1321.362058	-3.014700	3.453000	-10.409000	26.094812	0.000762	20.751242
1322.363945	-3.010700	3.452700	-10.394000	26.085381	0.000763	20.773061
1323.365157	-2.992400	3.452900	-10.332000	26.092306	0.000760	20.748723
1324.367781	-3.008900	3.451800	-10.385000	26.118991	0.000760	20.749458
1325.366964	-2.985400	3.452200	-10.305000	26.119008	0.000761	20.766071
1326.362759	-2.997000	3.451400	-10.343000	26.098448	0.000758	20.751102
1327.369660	-3.009700	3.451200	-10.386000	26.125451	0.000759	20.751681
1328.365207	-2.986800	3.449900	-10.302000	26.151551	0.000761	20.756096
1329.360580	-2.992300	3.449100	-10.320000	26.129746	0.000760	20.747937
1330.366530	-3.004600	3.450000	-10.365000	26.165120	0.000759	20.766412
1331.365985	-2.994600	3.449700	-10.330000	26.146140	0.000757	20.752082
1332.363891	-3.010100	3.447500	-10.376000	26.152380	0.000757	20.736065
1333.365286	-2.986200	3.449600	-10.300000	26.158294	0.000755	20.746276
1334.372613	-2.997400	3.448100	-10.334000	26.138971	0.000755	20.750094
1335.365395	-2.985100	3.447400	-10.289000	26.140394	0.000757	20.731134
1336.363611	-2.997400	3.446900	-10.331000	26.171782	0.000755	20.735174
1337.364933	-3.019400	3.447700	-10.409000	26.140272	0.000755	20.743340
1338.360757	-3.026500	3.444600	-10.424000	26.155120	0.000752	20.743561
1339.365915	-3.005400	3.445000	-10.353000	26.177948	0.000752	20.750379
1340.367255	-2.989500	3.446000	-10.300000	26.195180	0.000752	20.739719
1341.364232	-3.011300	3.443400	-10.366000	26.220978	0.000753	20.744780
1342.363582	-3.008400	3.444500	-10.362000	26.233945	0.000753	20.748802
1343.372609	-2.989100	3.446400	-10.299000	26.251305	0.000751	20.747281
1344.368431	-2.999000	3.444000	-10.328000	26.278272	0.000751	20.756838
1345.363237	-2.981300	3.444000	-10.266000	26.282672	0.000747	20.748932
1346.369227	-3.007300	3.443200	-10.353000	26.280876	0.000749	20.740488
1347.365082	-2.968600	3.443400	-10.221000	26.256170	0.000747	20.735574
1348.369343	-3.018700	3.441500	-10.388000	26.216015	0.000746	20.748802
1349.367615	-3.011100	3.441800	-10.363000	26.198427	0.000746	20.743456
1350.368657	-3.005400	3.441000	-10.341000	26.179877	0.000746	20.754214
1351.369451	-2.999000	3.442500	-10.323000	26.177794	0.000746	20.727464
1352.364958	-2.996900	3.440900	-10.311000	26.157472	0.000746	20.726009
1353.364480	-3.002300	3.440000	-10.326000	26.195595	0.000744	20.746301
1354.375197	-3.009800	3.439400	-10.351000	26.196588	0.000744	20.724064
1355.370077	-2.970600	3.440300	-10.218000	26.225794	0.000743	20.753888
1356.366472	-2.999000	3.439100	-10.313000	26.263817	0.000743	20.727611
1357.373577	-2.992200	3.439900	-10.292000	26.275678	0.000743	20.743800
1358.373247	-3.013900	3.437400	-10.358000	26.256610	0.000740	20.741232
1359.368793	-3.012000	3.437700	-10.354000	26.220376	0.000741	20.749391
1360.374115	-2.998100	3.437300	-10.305000	26.225542	0.000740	20.722339
1361.380204	-3.010600	3.436800	-10.346000	26.236761	0.000743	20.724130
1362.369441	-3.016600	3.435600	-10.363000	26.258081	0.000739	20.744134
1363.376584	-2.991900	3.436400	-10.281000	26.252363	0.000740	20.732697
1364.372025	-2.984300	3.435900	-10.252000	26.262712	0.000740	20.731717
1365.371194	-3.023600	3.435900	-10.388000	26.227600	0.000740	20.723933
1366.368083	-2.970700	3.435900	-10.206000	26.234336	0.000738	20.753462
1367.370478	-2.998700	3.433200	-10.294000	26.257057	0.000737	20.718447
1368.372110	-2.987300	3.434400	-10.258000	26.241910	0.000738	20.738788
1369.371323	-2.978400	3.434500	-10.227000	26.279030	0.000736	20.728201
1370.371764	-3.013100	3.433200	-10.343000	26.274832	0.000736	20.743898
1371.374251	-3.003200	3.433000	-10.310000	26.289085	0.000735	20.714597
1372.370001	-3.027000	3.432700	-10.390000	26.323600	0.000735	20.697600
1373.370308	-3.006100	3.432700	-10.319000	26.339868	0.000734	20.717270
1374.371061	-2.996700	3.431700	-10.283000	26.314985	0.000734	20.715496
1375.372972	-2.985400	3.432500	-10.247000	26.328245	0.000734	20.703216
1376.373746	-3.013100	3.429500	-10.332000	26.346002	0.000733	20.724857
1377.371168	-3.001800	3.430300	-10.296000	26.332554	0.000732	20.720351
1378.373709	-2.988900	3.429900	-10.251000	26.333613	0.000734	20.710983
1379.369045	-3.003200	3.429300	-10.298000	26.306444	0.000731	20.716395
1380.373331	-3.010100	3.428400	-10.319000	26.259448	0.000731	20.712315
1381.372949	-3.003900	3.429500	-10.300000	26.284626	0.000729	20.723393
1382.373367	-2.978700	3.428900	-10.213000	26.291524	0.000729	20.739336
1383.373631	-2.999000	3.428000	-10.279000	26.324981	0.000729	20.726491
1384.382875	-2.996200	3.427800	-10.269000	26.315863	0.000729	20.729181
1385.377702	-2.993300	3.428300	-10.260000	26.311218	0.000729	20.733997
1386.374692	-3.007300	3.426600	-10.304000	26.300196	0.000731	20.725289
1387.375710	-3.016200	3.425700	-10.331000	26.278297	0.000727	20.740741
1388.372208	-2.977300	3.427400	-10.203000	26.284210	0.000728	20.707801
1389.376318	-3.016300	3.426100	-10.333000	26.299853	0.000726	20.738697
1390.372427	-3.011100	3.426700	-10.318000	26.294614	0.000727	20.711145
1391.373312	-2.987900	3.425000	-10.232000	26.258253	0.000727	20.724864
1392.381851	-2.970000	3.425400	-10.173000	26.219220	0.000725	20.705553
1393.378328	-2.981900	3.425000	-10.211000	26.205561	0.000724	20.730235
1394.380103	-3.002300	3.424600	-10.280000	26.222743	0.000724	20.694394
1395.377809	-3.023300	3.422600	-10.347000	26.261555	0.000724	20.703526
1396.374580	-2.975500	3.423400	-10.186000	26.268364	0.000720	20.690453
1397.379495	-3.002100	3.422800	-10.275000	26.269779	0.000722	20.696617
1398.379506	-3.022500	3.421000	-10.340000	26.199395	0.000721	20.707442
1399.379079	-2.990600	3.422400	-10.234000	26.202796	0.000721	20.718921
1400.383829	-3.002200	3.421800	-10.271000	26.210702	0.000721	20.706951
1401.378269	-3.041200	3.420000	-10.399000	26.220572	0.000719	20.707386
1402.380701	-3.001400	3.420000	-10.263000	26.218024	0.000719	20.717629
1403.382039	-3.011100	3.420900	-10.299000	26.235482	0.000719	20.715258
1404.383614	-2.992800	3.419800	-10.233000	26.285723	0.000719	20.697467
1405.378125	-3.003500	3.419700	-10.270000	26.285870	0.000718	20.699511
1406.383249	-2.974700	3.421200	-10.176000	26.308688	0.000717	20.706796
1407.382833	-2.997400	3.418600	-10.246000	26.321759	0.000715	20.691008
1408.382768	-3.018700	3.417000	-10.314000	26.343161	0.000717	20.700664
1409.389922	-2.994700	3.417300	-10.233000	26.314853	0.000718	20.700664
1410.382867	-2.996800	3.418300	-10.243000	26.326575	0.000715	20.693003
1411.381110	-3.002800	3.416500	-10.259000	26.334620	0.000715	20.688285
1412.386415	-3.013000	3.415800	-10.291000	26.324363	0.000714	20.692202
1413.386607	-3.012500	3.415500	-10.289000	26.293182	0.000714	20.685996
1414.381936	-3.011500	3.414800	-10.283000	26.283200	0.000714	20.703941
1415.388619	-2.975900	3.416800	-10.167000	26.296722	0.000712	20.683863
1416.391858	-3.005000	3.413700	-10.257000	26.274651	0.000712	20.686340
1417.382590	-2.971500	3.414200	-10.144000	26.261937	0.000711	20.693003
1418.393163	-3.023100	3.412200	-10.315000	26.289750	0.000710	20.689659
1419.386398	-2.997400	3.414300	-10.233000	26.287244	0.000712	20.694253
1420.383114	-3.010400	3.410900	-10.266000	26.308580	0.000710	20.698153
1421.388073	-3.021800	3.411400	-10.306000	26.341631	0.000709	20.661190
1422.383862	-3.022000	3.411400	-10.308000	26.344503	0.000709	20.698219
1423.389275	-3.029800	3.411200	-10.334000	26.318261	0.000710	20.696976
1424.393188	-2.993100	3.411800	-10.211000	26.325688	0.000708	20.702543
1425.385395	-2.992600	3.410600	-10.206000	26.333229	0.000710	20.679774
1426.382592	-3.003300	3.410400	-10.240000	26.307483	0.000708	20.692782
1427.385877	-2.998500	3.411500	-10.229000	26.293329	0.000707	20.688988
1428.385962	-3.020600	3.409300	-10.298000	26.291857	0.000704	20.683241
1429.382531	-2.991700	3.409700	-10.199000	26.296079	0.000706	20.683691
1430.387139	-2.972200	3.410000	-10.134000	26.313868	0.000706	20.680706
1431.387678	-3.010700	3.409000	-10.262000	26.358371	0.000705	20.661418
1432.382459	-3.005500	3.407500	-10.240000	26.349228	0.000705	20.686371
1433.385837	-2.996800	3.408300	-10.213000	26.363602	0.000703	20.669047
1434.385492	-2.988200	3.408400	-10.184000	26.392104	0.000703	20.679676
1435.383311	-2.971500	3.407700	-10.125000	26.376592	0.000702	20.666929
1436.388590	-2.999300	3.408100	-10.221000	26.391639	0.000701	20.687745
1437.386844	-2.984100	3.407500	-10.167000	26.391485	0.000702	20.672890
1438.387444	-2.997900	3.405000	-10.207000	26.397804	0.000700	20.687777
1439.388558	-3.017100	3.405100	-10.273000	26.420043	0.000701	20.691637
1440.386964	-2.974300	3.405900	-10.129000	26.423223	0.000701	20.683453
1441.390057	-2.999300	3.404400	-10.210000	26.430128	0.000699	20.673322
1442.391128	-3.003300	3.404700	-10.223000	26.415944	0.000698	20.684671
1443.391854	-3.018200	3.404100	-10.273000	26.342257	0.000697	20.667035
1444.386408	-3.005400	3.403900	-10.228000	26.286381	0.000698	20.703818
1445.393758	-2.985800	3.403600	-10.162000	26.263034	0.000698	20.668973
1446.386997	-2.994800	3.403000	-10.191000	26.246674	0.000697	20.674344
1447.389903	-2.977000	3.403200	-10.130000	26.256289	0.000695	20.708192
1448.393531	-3.014700	3.400100	-10.248000	26.249977	0.000694	20.675767
1449.395942	-3.003200	3.401500	-10.213000	26.293336	0.000695	20.665760
1450.390415	-3.006100	3.400800	-10.222000	26.302357	0.000695	20.672929
1451.391994	-2.998800	3.402000	-10.200000	26.353076	0.000694	20.688816
1452.389347	-3.001500	3.400500	-10.205000	26.389110	0.000693	20.686625
1453.388851	-3.010600	3.399300	-10.233000	26.409867	0.000693	20.681883
1454.393067	-2.994300	3.399400	-10.178000	26.401718	0.000691	20.671794
1455.389507	-2.997600	3.399400	-10.189000	26.431414	0.000691	20.674615
1456.395530	-2.973100	3.398900	-10.104000	26.444801	0.000693	20.658671
1457.396276	-2.968100	3.400100	-10.091000	26.470642	0.000691	20.669946
1458.407082	-2.988700	3.398900	-10.158000	26.432529	0.000690	20.675261
1459.393509	-2.995900	3.397500	-10.177000	26.410957	0.000692	20.677762
1460.393922	-2.991400	3.398200	-10.164000	26.441572	0.000690	20.665384
1461.394381	-3.004400	3.396800	-10.204000	26.437107	0.000690	20.670379
1462.391886	-2.985000	3.397800	-10.142000	26.476408	0.000687	20.677639
1463.391857	-2.998500	3.396200	-10.182000	26.454935	0.000690	20.660322
1464.392977	-2.988300	3.395600	-10.146000	26.440849	0.000686	20.684099
1465.395954	-2.997000	3.395700	-10.176000	26.391989	0.000686	20.666283
1466.391299	-2.981000	3.395300	-10.120000	26.340565	0.000688	20.681457
1467.396309	-2.992400	3.395300	-10.158000	26.358143	0.000686	20.692961
1468.396407	-2.994900	3.394300	-10.165000	26.370815	0.000684	20.668236
1469.394344	-2.959500	3.395400	-10.048000	26.379153	0.000685	20.682782
1470.393600	-2.998600	3.394000	-10.176000	26.363731	0.000686	20.685300
1471.393950	-2.981500	3.392700	-10.113000	26.403109	0.000684	20.685996
1472.395964	-2.985300	3.392700	-10.127000	26.409119	0.000684	20.669750
1473.389935	-3.007100	3.392000	-10.199000	26.372720	0.000684	20.670150
1474.394710	-2.990700	3.392100	-10.143000	26.335896	0.000681	20.696681
1475.392302	-3.019100	3.391900	-10.239000	26.318212	0.000682	20.681278
1476.393278	-2.987400	3.391600	-10.131000	26.368092	0.000682	20.683045
1477.397813	-2.993600	3.391200	-10.150000	26.367425	0.000681	20.679055
1478.392805	-3.006400	3.390700	-10.193000	26.364814	0.000679	20.687337
1479.394058	-2.981900	3.390500	-10.109000	26.364203	0.000680	20.676765
1480.400336	-3.012500	3.388800	-10.208000	26.341973	0.000679	20.676708
1481.399893	-2.993900	3.387800	-10.142000	26.289725	0.000678	20.664976
1482.395407	-2.996000	3.388400	-10.150000	26.277091	0.000679	20.667453
1483.394808	-3.011200	3.387500	-10.199000	26.259854	0.000679	20.676209
1484.395856	-3.031200	3.386800	-10.265000	26.269647	0.000678	20.683681
1485.397606	-3.000100	3.387700	-10.163000	26.292312	0.000678	20.654298
1486.399641	-2.999200	3.387500	-10.159000	26.310663	0.000673	20.674639
1487.400378	-2.996100	3.387200	-10.146000	26.342445	0.000675	20.684295
1488.399694	-3.016700	3.385900	-10.212000	26.375868	0.000675	20.681376
1489.399454	-3.015800	3.385200	-10.208000	26.381009	0.000676	20.664730
1490.397398	-3.000600	3.385400	-10.156000	26.434196	0.000671	20.689266
1491.403290	-2.988500	3.385400	-10.116000	26.435415	0.000674	20.706140
1492.400771	-3.025800	3.384500	-10.240000	26.463468	0.000673	20.685971
1493.397485	-2.988500	3.384600	-10.113000	26.463835	0.000672	20.668320
1494.399446	-3.010300	3.384700	-10.187000	26.482110	0.000671	20.680052
1495.401746	-3.003900	3.384300	-10.165000	26.492195	0.000672	20.671696
1496.402885	-3.017300	3.384300	-10.211000	26.439500	0.000669	20.700762
1497.401917	-2.991500	3.384200	-10.123000	26.444591	0.000669	20.695922
1498.404301	-3.010900	3.382600	-10.184000	26.469611	0.000670	20.674126
1499.405152	-2.997400	3.381900	-10.136000	26.455133	0.000669	20.679015
1500.408489	-2.996900	3.380800	-10.131000	26.482127	0.000669	20.672956
1501.402666	-3.006300	3.379500	-10.158000	26.456849	0.000667	20.695914
1502.402256	-2.967200	3.383000	-10.036000	26.437857	0.000667	20.672082
1503.402867	-2.994600	3.380400	-10.122000	26.419623	0.000667	20.666082
1504.402888	-2.981300	3.380800	-10.078000	26.404575	0.000666	20.694109
1505.406069	-3.007600	3.379500	-10.162000	26.370933	0.000665	20.661715
1506.402984	-2.995800	3.380100	-10.125000	26.358447	0.000665	20.695163
1507.403261	-3.009100	3.378200	-10.164000	26.332963	0.000665	20.686620
1508.409420	-2.988800	3.378500	-10.097000	26.350314	0.000665	20.695050
1509.407143	-3.011500	3.378000	-10.171000	26.346637	0.000663	20.680448
1510.406553	-2.993900	3.378200	-10.113000	26.357139	0.000663	20.688158
1511.404068	-2.999800	3.377000	-10.130000	26.376360	0.000664	20.679974
1512.402448	-2.999100	3.377300	-10.128000	26.405577	0.000664	20.675674
1513.405124	-2.990200	3.375900	-10.094000	26.448084	0.000662	20.675723
1514.407267	-3.001600	3.376500	-10.133000	26.436444	0.000661	20.694846
1515.406337	-3.003000	3.377000	-10.140000	26.427425	0.000662	20.697634
1516.406286	-2.999400	3.374600	-10.119000	26.405203	0.000659	20.697111
1517.407869	-3.007500	3.375800	-10.152000	26.393109	0.000661	20.669305
1518.407356	-3.006400	3.375300	-10.146000	26.391432	0.000660	20.690381
1519.407851	-3.005500	3.374700	-10.141000	26.418308	0.000659	20.680883
1520.405351	-3.019400	3.373600	-10.185000	26.450387	0.000656	20.685151
1521.405337	-2.995000	3.375300	-10.108000	26.419430	0.000658	20.707143
1522.406171	-3.005700	3.373600	-10.138000	26.434624	0.000658	20.701551
1523.407168	-3.000200	3.373100	-10.119000	26.467345	0.000658	20.700774
1524.411187	-3.007300	3.371700	-10.139000	26.457487	0.000658	20.697504
1525.408977	-3.014300	3.371900	-10.163000	26.448678	0.000656	20.702875
1526.408744	-3.002300	3.372400	-10.124000	26.472209	0.000657	20.722260
1527.408734	-3.010400	3.370200	-10.145000	26.513305	0.000656	20.695288
1528.409332	-3.006800	3.371300	-10.136000	26.502431	0.000657	20.675347
1529.405487	-2.996300	3.370100	-10.097000	26.485100	0.000654	20.711035
1530.410620	-3.017500	3.369700	-10.167000	26.510695	0.000653	20.701674
1531.418858	-2.984300	3.371100	-10.059000	26.535996	0.000653	20.700079
1532.413652	-3.005400	3.370200	-10.128000	26.523651	0.000652	20.707585
1533.409233	-2.992000	3.371000	-10.085000	26.535224	0.000651	20.701674
1534.410360	-3.009600	3.369000	-10.138000	26.510248	0.000650	20.682256
1535.408617	-3.014200	3.368500	-10.152000	26.483838	0.000651	20.715457
1536.412863	-3.012400	3.366300	-10.140000	26.463107	0.000652	20.681340
1537.410930	-3.005400	3.368500	-10.123000	26.440764	0.000649	20.700610
1538.411040	-2.987000	3.367600	-10.058000	26.403659	0.000649	20.703145
1539.409672	-3.002300	3.367300	-10.109000	26.366372	0.000650	20.710715
1540.407197	-2.992000	3.366100	-10.071000	26.370097	0.000650	20.713037
1541.408443	-3.002700	3.366600	-10.108000	26.370446	0.000648	20.665969
1542.410644	-2.998800	3.367100	-10.096000	26.415509	0.000651	20.691821
1543.408863	-3.001400	3.365800	-10.101000	26.391051	0.000648	20.696163
1544.417803	-3.005600	3.366100	-10.117000	26.421886	0.000648	20.711983
1545.415533	-2.980000	3.366700	-10.032000	26.365037	0.000645	20.713641
1546.416656	-2.995300	3.364900	-10.078000	26.349370	0.000645	20.705482
1547.410765	-3.038700	3.364200	-10.222000	26.342912	0.000646	20.714639
1548.416107	-2.988000	3.363900	-10.051000	26.355357	0.000646	20.716715
1549.412462	-2.982700	3.363400	-10.030000	26.374969	0.000645	20.696595
1550.411407	-2.997400	3.363600	-10.082000	26.375025	0.000644	20.689539
1551.416754	-3.028500	3.361700	-10.180000	26.396604	0.000641	20.701271
1552.414697	-3.006300	3.363000	-10.109000	26.421876	0.000643	20.696325
1553.415740	-3.027800	3.362300	-10.180000	26.474541	0.000641	20.718914
1554.410496	-2.996900	3.361000	-10.071000	26.469124	0.000641	20.691182
1555.414928	-3.022100	3.361900	-10.158000	26.507261	0.000642	20.712921
1556.412922	-3.007300	3.361100	-10.107000	26.514141	0.000639	20.726002
1557.412532	-3.005100	3.360100	-10.097000	26.562027	0.000639	20.715816
1558.413889	-2.987400	3.360400	-10.037000	26.537328	0.000641	20.723231
1559.414094	-3.006800	3.360100	-10.102000	26.508830	0.000637	20.721137
1560.408739	-2.979600	3.360400	-10.011000	26.451320	0.000639	20.682295
1561.411858	-3.006200	3.357500	-10.091000	26.412620	0.000640	20.702194
1562.412293	-3.007400	3.358600	-10.100000	26.423446	0.000635	20.712128
1563.418706	-3.019900	3.357100	-10.136000	26.394392	0.000637	20.704263
1564.412711	-3.020200	3.355800	-10.134000	26.415279	0.000637	20.699651
1565.411971	-2.995200	3.358400	-10.058000	26.431392	0.000635	20.731970
1566.416283	-3.004100	3.357200	-10.084000	26.412644	0.000636	20.724506
1567.413243	-3.009800	3.356000	-10.100000	26.451059	0.000635	20.702897
1568.417630	-2.983700	3.356600	-10.014000	26.491684	0.000632	20.712437
1569.418022	-2.990400	3.356400	-10.036000	26.551591	0.000633	20.698212
1570.413935	-3.001100	3.356100	-10.071000	26.576853	0.000634	20.724081
1571.410995	-3.002400	3.356500	-10.077000	26.610381	0.000630	20.707523
1572.409515	-3.003500	3.354100	-10.074000	26.656719	0.000631	20.728029
1573.410203	-3.009200	3.354700	-10.094000	26.665680	0.000631	20.720442
1574.413963	-3.007800	3.354000	-10.087000	26.663280	0.000630	20.702855
1575.414306	-2.994700	3.354400	-10.045000	26.601468	0.000631	20.724643
1576.416505	-2.996200	3.354600	-10.050000	26.596751	0.000629	20.723221
1577.414053	-2.989800	3.352400	-10.022000	26.607820	0.000628	20.731977
1578.410786	-3.001300	3.352500	-10.061000	26.630338	0.000628	20.719051
1579.418803	-2.996000	3.352200	-10.042000	26.631411	0.000628	20.720604
1580.412935	-2.988700	3.351900	-10.017000	26.677601	0.000627	20.737169
1581.414343	-2.997600	3.352800	-10.049000	26.664053	0.000627	20.715012
1582.410672	-3.023000	3.350600	-10.127000	26.654668	0.000626	20.731184
1583.413431	-2.986800	3.351900	-10.010000	26.645187	0.000624	20.732083
1584.416128	-3.009000	3.350900	-10.083000	26.661052	0.000624	20.720056
1585.416884	-3.010600	3.350800	-10.087000	26.627833	0.000624	20.716059
1586.417762	-3.009400	3.350300	-10.081000	26.618407	0.000623	20.725076
1587.412655	-2.997900	3.350200	-10.043000	26.590277	0.000624	20.727144
1588.416417	-3.010600	3.349900	-10.084000	26.616447	0.000622	20.716941
1589.415092	-2.992100	3.348800	-10.019000	26.622904	0.000622	20.719639
1590.421133	-2.995300	3.348800	-10.029000	26.626977	0.000621	20.712828
1591.416434	-3.004000	3.347500	-10.055000	26.613820	0.000621	20.748441
1592.417636	-2.979900	3.348600	-9.976300	26.606542	0.000620	20.759617
1593.417966	-2.994000	3.347400	-10.022000	26.648024	0.000619	20.724503
1594.418896	-2.992200	3.345100	-10.008000	26.664036	0.000620	20.740601
1595.420815	-3.010800	3.344700	-10.070000	26.684991	0.000619	20.701922
1596.419405	-3.001200	3.346700	-10.043000	26.659075	0.000617	20.724233
1597.419324	-3.002000	3.345200	-10.041000	26.637777	0.000616	20.720366
1598.422824	-3.024900	3.342700	-10.110000	26.661670	0.000617	20.739171
1599.420349	-2.997600	3.346000	-10.028000	26.677347	0.000617	20.742129
1600.421424	-3.019000	3.343200	-10.092000	26.682527	0.000615	20.724577
1601.426830	-2.995900	3.343200	-10.014000	26.676924	0.000617	20.725108
1602.430921	-2.987400	3.343400	-9.987200	26.689406	0.000617	20.739554
1603.438773	-2.992200	3.344500	-10.006000	26.683023	0.000617	20.751630
1604.419906	-2.996900	3.344200	-10.022000	26.688439	0.000614	20.732891
1605.423710	-3.004800	3.342100	-10.042000	26.685211	0.000614	20.734862
1606.428116	-3.001500	3.342200	-10.031000	26.665978	0.000614	20.749192
1607.420810	-3.011600	3.342100	-10.064000	26.655375	0.000612	20.722410
1608.425015	-2.989800	3.340600	-9.985500	26.666272	0.000614	20.746642
1609.423168	-2.988600	3.340500	-9.981800	26.653341	0.000612	20.745497
1610.424261	-2.985100	3.341600	-9.974300	26.695115	0.000611	20.754777
1611.422808	-3.005300	3.339600	-10.036000	26.667467	0.000611	20.746421
1612.428621	-2.993000	3.341500	-10.001000	26.663117	0.000610	20.736358
1613.426438	-2.999700	3.340700	-10.021000	26.658156	0.000610	20.748915
1614.425946	-3.015500	3.339500	-10.070000	26.683698	0.000611	20.749463
1615.422864	-3.008700	3.339000	-10.045000	26.721282	0.000609	20.739358
1616.429872	-2.981400	3.338600	-9.952000	26.674070	0.000608	20.740731
1617.429854	-3.013800	3.336900	-10.055000	26.655846	0.000608	20.752757
1618.423735	-3.002200	3.339400	-10.023000	26.605923	0.000607	20.762314
1619.429010	-2.979300	3.338500	-9.945700	26.561666	0.000606	20.756231
1620.424344	-3.002400	3.336700	-10.017000	26.582493	0.000608	20.729277
1621.427235	-2.984400	3.336900	-9.957900	26.556673	0.000605	20.744574
1622.438805	-3.009700	3.335500	-10.037000	26.573539	0.000607	20.745881
1623.430202	-3.007200	3.335100	-10.029000	26.565513	0.000604	20.766263
1624.425266	-2.992700	3.336000	-9.982000	26.551792	0.000603	20.771437
1625.430164	-2.996400	3.336000	-9.994300	26.566984	0.000604	20.743559
1626.427847	-3.004900	3.333900	-10.018000	26.622390	0.000604	20.755160
1627.429298	-3.005300	3.336000	-10.025000	26.635978	0.000601	20.763604
1628.429193	-3.003100	3.334200	-10.012000	26.617950	0.000603	20.769663
1629.425797	-3.001300	3.333600	-10.004000	26.589877	0.000602	20.765624
1630.436231	-3.006600	3.333200	-10.021000	26.615420	0.000601	20.756688
1631.431344	-3.026000	3.332700	-10.084000	26.655358	0.000598	20.766965
1632.431701	-3.004600	3.331300	-10.008000	26.661017	0.000601	20.754637
1633.435313	-3.014200	3.332700	-10.043000	26.705107	0.000598	20.746804
1634.433687	-3.007300	3.331100	-10.017000	26.715630	0.000597	20.762599
1635.436258	-2.997600	3.330600	-9.983100	26.738746	0.000598	20.769245
1636.433760	-2.976100	3.332500	-9.916700	26.736657	0.000597	20.756239
1637.435051	-3.018800	3.331200	-10.054000	26.752196	0.000597	20.760482
1638.433675	-2.976400	3.330900	-9.913200	26.765702	0.000598	20.760310
1639.437645	-3.020300	3.328300	-10.051000	26.783671	0.000596	20.759885
1640.432062	-3.015300	3.328600	-10.036000	26.825894	0.000596	20.761086
1641.435295	-3.001500	3.329900	-9.993200	26.810300	0.000594	20.763425
1642.433082	-2.990200	3.328300	-9.951300	26.811439	0.000594	20.768837
1643.436729	-3.004900	3.327500	-9.996900	26.840879	0.000593	20.742013
1644.440910	-2.994600	3.327000	-9.962400	26.847181	0.000594	20.759256
1645.440366	-3.003700	3.327300	-9.992700	26.855344	0.000591	20.769361
1646.439580	-2.998200	3.325700	-9.970000	26.831025	0.000591	20.756762
1647.433901	-2.997400	3.326800	-9.969800	26.802332	0.000590	20.765845
1648.438640	-3.000000	3.327400	-9.982000	26.754676	0.000592	20.783364
1649.437658	-3.011100	3.324600	-10.010000	26.750236	0.000588	20.777952
1650.439192	-2.994300	3.325200	-9.955600	26.768678	0.000589	20.779898
1651.439742	-3.002800	3.325500	-9.984800	26.748797	0.000587	20.785040
1652.439889	-2.991000	3.324900	-9.942800	26.766613	0.000589	20.772606
1653.436775	-2.977900	3.325600	-9.902000	26.794860	0.000586	20.764022
1654.439830	-2.979200	3.325100	-9.905400	26.794738	0.000588	20.791400
1655.444746	-3.001700	3.323400	-9.974300	26.863043	0.000585	20.787533
1656.441420	-2.991900	3.323000	-9.940300	26.860011	0.000584	20.766941
1657.440578	-3.015800	3.322700	-10.019000	26.875304	0.000585	20.796542
1658.442709	-2.997000	3.321900	-9.953900	26.877556	0.000585	20.782686
1659.441626	-2.995100	3.321400	-9.946900	26.892792	0.000585	20.784730
1660.439845	-3.034800	3.320400	-10.076000	26.868101	0.000584	20.778868
1661.439610	-2.997500	3.321200	-9.953800	26.847425	0.000584	20.771355
1662.444177	-3.008300	3.322800	-9.995400	26.817122	0.000582	20.794466
1663.443771	-2.997700	3.320500	-9.952400	26.846287	0.000581	20.781116
1664.440431	-2.995700	3.321000	-9.947700	26.837620	0.000581	20.782834
1665.447058	-2.998900	3.319700	-9.954600	26.837107	0.000580	20.776154
1666.440586	-2.994700	3.321200	-9.944800	26.833464	0.000581	20.784345
1667.442565	-3.000700	3.319500	-9.959600	26.802014	0.000581	20.793027
1668.445381	-3.007600	3.320600	-9.986400	26.783923	0.000581	20.782423
1669.443762	-2.982900	3.318500	-9.897600	26.778882	0.000578	20.794425
1670.450162	-2.977300	3.318900	-9.879900	26.767141	0.000579	20.795422
1671.448326	-3.004300	3.318100	-9.968000	26.797323	0.000577	20.780249
1672.451794	-3.001200	3.317200	-9.954900	26.799070	0.000577	20.803343
1673.447014	-3.013100	3.315400	-9.987300	26.823138	0.000576	20.795773
1674.449375	-2.992900	3.316100	-9.923600	26.766303	0.000575	20.786993
1675.449473	-2.994900	3.316500	-9.931200	26.746072	0.000574	20.807431
1676.447811	-2.988800	3.317900	-9.915900	26.783923	0.000573	20.812769
1677.449387	-2.971600	3.316500	-9.854000	26.805225	0.000571	20.790565
1678.449956	-2.973400	3.315400	-9.857100	26.841935	0.000573	20.785750
1679.449548	-3.016900	3.313700	-9.996000	26.909961	0.000574	20.795830
1680.447973	-2.986500	3.315000	-9.898800	26.941138	0.000570	20.809637
1681.454664	-3.043100	3.314000	-10.084000	26.962675	0.000572	20.798102
1682.451821	-3.026700	3.313900	-10.029000	26.982950	0.000571	20.798577
1683.452233	-3.008900	3.312800	-9.966600	26.960715	0.000570	20.815098
1684.452096	-3.004500	3.314000	-9.956000	26.919944	0.000568	20.794963
1685.454770	-3.000300	3.312100	-9.936300	26.849057	0.000568	20.814248
1686.450026	-3.007900	3.312600	-9.963500	26.860179	0.000567	20.806465
1687.456309	-2.975400	3.312700	-9.855900	26.856578	0.000567	20.801896
1688.456189	-3.005000	3.310100	-9.945700	26.826576	0.000568	20.807765
1689.454067	-3.014300	3.310400	-9.977300	26.802403	0.000565	20.798633
1690.453114	-2.996700	3.309800	-9.917600	26.828755	0.000565	20.800947
1691.450974	-2.956000	3.311600	-9.787600	26.881082	0.000565	20.804249
1692.457115	-2.999800	3.309700	-9.928100	26.893440	0.000564	20.820943
1693.456438	-2.999600	3.308600	-9.922900	26.928830	0.000565	20.792044
1694.460498	-2.997000	3.310200	-9.919800	26.965577	0.000565	20.827573
1695.457306	-2.969900	3.310000	-9.829100	26.988290	0.000565	20.816275
1696.463447	-3.009600	3.308300	-9.954800	27.013776	0.000564	20.815351
1697.459620	-3.016600	3.305600	-9.970800	27.004241	0.000562	20.810978
1698.460328	-3.002300	3.308200	-9.931600	27.010052	0.000563	20.822512
1699.460416	-2.997500	3.307800	-9.914400	26.989477	0.000562	20.817943
1700.456242	-3.015000	3.305700	-9.965500	26.960471	0.000559	20.817223
1701.461402	-3.020700	3.305800	-9.984800	26.951219	0.000561	20.812187
1702.461318	-3.005100	3.305700	-9.932700	26.957568	0.000560	20.812408
1703.466331	-2.993800	3.306500	-9.898000	26.891529	0.000561	20.815228
1704.458993	-3.002700	3.304900	-9.922700	26.884456	0.000557	20.807642
1705.460332	-2.991500	3.305600	-9.886600	26.868919	0.000558	20.811460
1706.459560	-3.000200	3.304900	-9.914200	26.851220	0.000557	20.815948
1707.461498	-2.998500	3.304000	-9.905900	26.886635	0.000557	20.819790
1708.461511	-2.997100	3.302900	-9.898400	26.959056	0.000555	20.826232
1709.458346	-2.996500	3.303000	-9.896300	26.961145	0.000556	20.821220
1710.461709	-2.997800	3.302700	-9.899800	26.965780	0.000557	20.817820
1711.460696	-2.986700	3.302400	-9.862800	26.949926	0.000556	20.834594
1712.460608	-2.985500	3.302000	-9.857000	27.001907	0.000555	20.822856
1713.460833	-3.007300	3.301300	-9.927000	26.952228	0.000555	20.838331
1714.460178	-2.994900	3.301500	-9.886600	26.965438	0.000556	20.810838
1715.462271	-3.026900	3.299300	-9.985500	26.911180	0.000551	20.812703
1716.461355	-2.997300	3.300800	-9.891500	26.909206	0.000553	20.812614
1717.459562	-3.004200	3.300800	-9.914600	26.920059	0.000553	20.828268
1718.466282	-3.047000	3.298600	-10.050000	26.932783	0.000551	20.836796
1719.466786	-2.991800	3.300600	-9.874400	26.948123	0.000551	20.828514
1720.464502	-2.991600	3.300700	-9.873300	26.986634	0.000549	20.838316
1721.465573	-2.997000	3.297700	-9.882400	27.019087	0.000549	20.842977
1722.460703	-3.040000	3.296900	-10.022000	27.016216	0.000549	20.836297
1723.461322	-3.014900	3.296900	-9.938600	27.034995	0.000548	20.840957
1724.467930	-2.972600	3.299100	-9.805900	27.049775	0.000548	20.831639
1725.464286	-2.990500	3.297000	-9.858800	27.086085	0.000548	20.826905
1726.474035	-3.005200	3.296500	-9.905100	27.109731	0.000546	20.817496
1727.462736	-2.994300	3.296600	-9.870300	27.131711	0.000547	20.827274
1728.461253	-2.984100	3.296900	-9.837200	27.124681	0.000544	20.862875
1729.466514	-3.017100	3.294600	-9.939200	27.140361	0.000545	20.830757
1730.488447	-3.014300	3.295200	-9.931200	27.163510	0.000545	20.828910
1731.463401	-3.002300	3.294300	-9.889400	27.171150	0.000542	20.856508
1732.473958	-2.998400	3.295000	-9.877400	27.190796	0.000546	20.819370
1733.470533	-3.014300	3.293200	-9.924400	27.225338	0.000542	20.830880
1734.462993	-3.008100	3.294000	-9.907900	27.224371	0.000540	20.813312
1735.476341	-3.017000	3.293000	-9.933700	27.201363	0.000541	20.824783
1736.466105	-3.012200	3.292100	-9.915000	27.144174	0.000541	20.828428
1737.467834	-2.962600	3.294000	-9.757400	27.137298	0.000541	20.839056
1738.470547	-2.990200	3.291100	-9.839200	27.145686	0.000540	20.841802
1739.469004	-2.991800	3.292900	-9.851200	27.135014	0.000538	20.823483
1740.472350	-2.975900	3.292200	-9.796100	27.114221	0.000538	20.823434
1741.472144	-2.994100	3.291100	-9.853000	27.118855	0.000537	20.820982
1742.477231	-2.998800	3.290500	-9.866200	27.115653	0.000537	20.822503
1743.474793	-2.978400	3.290600	-9.799100	27.117692	0.000535	20.815545
1744.476865	-2.985600	3.290700	-9.822500	27.141135	0.000536	20.826320
1745.469023	-3.011600	3.288200	-9.901100	27.180735	0.000535	20.816838
1746.478603	-2.986500	3.289400	-9.822300	27.173192	0.000534	20.829165
1747.470152	-3.014600	3.288100	-9.911000	27.172201	0.000535	20.795926
1748.468806	-2.998700	3.288600	-9.860200	27.162318	0.000535	20.837668
1749.471404	-3.004700	3.289400	-9.882100	27.152743	0.000534	20.826141
1750.479402	-3.011100	3.288500	-9.901100	27.166683	0.000531	20.813610
1751.482920	-3.011100	3.286300	-9.894000	27.156245	0.000530	20.810224
1752.474380	-3.027400	3.285700	-9.945100	27.132722	0.000531	20.818334
1753.472080	-3.014100	3.286600	-9.905000	27.148971	0.000531	20.807175
1754.480258	-2.995200	3.286400	-9.841100	27.174624	0.000531	20.821596
1755.472643	-2.990100	3.286800	-9.827100	27.202088	0.000530	20.815555
1756.477899	-3.014000	3.287000	-9.906300	27.220571	0.000528	20.821817
1757.478283	-3.006200	3.285100	-9.874600	27.200227	0.000527	20.814632
1758.477673	-3.017900	3.285300	-9.912900	27.232209	0.000529	20.806023
1759.473073	-2.998800	3.284300	-9.848800	27.244197	0.000525	20.817132
1760.475642	-3.015800	3.283500	-9.902000	27.194399	0.000525	20.809718
1761.479890	-3.021700	3.284600	-9.924200	27.169966	0.000526	20.828765
1762.476979	-2.988600	3.283000	-9.810500	27.181150	0.000524	20.814410
1763.476271	-3.004700	3.282700	-9.862100	27.188368	0.000524	20.806497
1764.481669	-3.012600	3.282800	-9.888200	27.172738	0.000522	20.830605
1765.475574	-2.998600	3.282600	-9.843100	27.167113	0.000524	20.814516
1766.480743	-2.996300	3.282200	-9.833400	27.166592	0.000521	20.801665
1767.483863	-2.988000	3.282400	-9.805500	27.176216	0.000522	20.796646
1768.475107	-3.031300	3.280100	-9.941900	27.163415	0.000520	20.821228
1769.481988	-2.998800	3.280700	-9.836800	27.195154	0.000520	20.807632
1770.479967	-2.998000	3.279500	-9.830400	27.219139	0.000521	20.815162
1771.481500	-2.997100	3.280000	-9.829900	27.242367	0.000519	20.800120
1772.483567	-2.985200	3.279200	-9.787900	27.248893	0.000519	20.818063
1773.475194	-2.984900	3.279700	-9.788100	27.275567	0.000518	20.808858
1774.478535	-3.002000	3.279000	-9.841400	27.290756	0.000516	20.808964
1775.482507	-3.009700	3.276400	-9.859800	27.318818	0.000520	20.796889
1776.481039	-2.998300	3.278500	-9.829200	27.322362	0.000519	20.798083
1777.478233	-3.012500	3.276500	-9.869300	27.322987	0.000516	20.801557
1778.479997	-2.993400	3.277600	-9.810000	27.344718	0.000516	20.800658
1779.475189	-3.003200	3.276200	-9.836900	27.330902	0.000513	20.804777
1780.480638	-3.006500	3.275600	-9.847500	27.276769	0.000512	20.806274
1781.477561	-3.014700	3.275300	-9.873600	27.249680	0.000514	20.801311
1782.479856	-3.017200	3.275000	-9.879600	27.212391	0.000513	20.790356
1783.479434	-3.020600	3.275600	-9.893300	27.172247	0.000510	20.805930
1784.478614	-3.011400	3.274600	-9.859900	27.170808	0.000510	20.799741
1785.482433	-2.983300	3.274100	-9.766600	27.185293	0.000512	20.793921
1786.482377	-3.008700	3.274400	-9.851200	27.212439	0.000510	20.813639
1787.483074	-2.981000	3.275300	-9.762600	27.212586	0.000510	20.791501
1788.485115	-3.004700	3.273300	-9.834300	27.201873	0.000508	20.802537
1789.483031	-3.020400	3.272800	-9.884800	27.188251	0.000508	20.793103
1790.478824	-2.991500	3.273800	-9.791800	27.179570	0.000506	20.794803
1791.482934	-2.994000	3.272400	-9.796300	27.160779	0.000506	20.785860
1792.479992	-2.998200	3.272500	-9.811000	27.151082	0.000506	20.774684
1793.479831	-3.017200	3.272200	-9.871500	27.133265	0.000506	20.789956
1794.486629	-2.966900	3.272400	-9.707000	27.124681	0.000504	20.764253
1795.493086	-2.990800	3.270300	-9.779700	27.166558	0.000502	20.794518
1796.485863	-3.000200	3.269400	-9.808300	27.212310	0.000501	20.791698
1797.482058	-3.046500	3.268800	-9.956700	27.236132	0.000501	20.788632
1798.480141	-3.000400	3.269900	-9.810000	27.253874	0.000502	20.769019
1799.487051	-3.006800	3.269500	-9.828300	27.278183	0.000501	20.792997
1800.487488	-3.001500	3.268700	-9.808800	27.287642	0.000501	20.786865
1801.482091	-2.995300	3.268700	-9.789600	27.307342	0.000500	20.761162
1802.486106	-2.986600	3.266000	-9.753400	27.278459	0.000497	20.773834
1803.489384	-2.994900	3.268700	-9.788400	27.235472	0.000500	20.765683
1804.490295	-3.003400	3.267400	-9.812600	27.233660	0.000497	20.791361
1805.492277	-3.026700	3.266500	-9.885200	27.257254	0.000498	20.789963
1806.484578	-3.021100	3.266400	-9.866700	27.262586	0.000498	20.780153
1807.487354	-3.018700	3.264100	-9.851500	27.246957	0.000497	20.769648
1808.484849	-3.012200	3.264100	-9.830700	27.193720	0.000494	20.786276
1809.483675	-2.991000	3.265400	-9.765500	27.171238	0.000493	20.799699
1810.489514	-2.992900	3.265100	-9.770400	27.136303	0.000495	20.774994
1811.485850	-2.987400	3.264200	-9.749500	27.162232	0.000491	20.767407
1812.488165	-2.997000	3.264800	-9.783800	27.182706	0.000492	20.769508
1813.483162	-3.002900	3.263300	-9.797000	27.224882	0.000493	20.779687
1814.485118	-2.990800	3.264800	-9.763200	27.221052	0.000491	20.793852
1815.485404	-3.000300	3.263300	-9.789800	27.234390	0.000491	20.782138
1816.485043	-2.963400	3.264500	-9.673800	27.273711	0.000490	20.771429
1817.487953	-2.982300	3.262000	-9.727300	27.285055	0.000488	20.766245
1818.485909	-3.008300	3.261700	-9.811500	27.280066	0.000490	20.778770
1819.487523	-3.012100	3.261500	-9.821800	27.285014	0.000488	20.778532
1820.486614	-3.007300	3.261300	-9.804800	27.289435	0.000485	20.765909
1821.490376	-2.999000	3.260700	-9.777500	27.274067	0.000486	20.776530
1822.491049	-2.994400	3.261900	-9.765500	27.290045	0.000487	20.779325
1823.491191	-2.988600	3.261500	-9.745500	27.262143	0.000486	20.780183
1824.489901	-3.007300	3.259000	-9.799400	27.248742	0.000484	20.755796
1825.486459	-3.001400	3.259300	-9.780400	27.250163	0.000485	20.765761
1826.488197	-3.007800	3.258900	-9.800900	27.279186	0.000484	20.776937
1827.487610	-2.993300	3.258200	-9.751300	27.273530	0.000481	20.765083
1828.487358	-2.999300	3.258800	-9.772300	27.294197	0.000484	20.784450
1829.490860	-2.994400	3.257900	-9.753900	27.316139	0.000482	20.769537
1830.488290	-3.009800	3.256500	-9.800700	27.322999	0.000480	20.752256
1831.489723	-3.018500	3.256100	-9.827300	27.313904	0.000480	20.756858
1832.492242	-3.012800	3.257300	-9.812000	27.272301	0.000479	20.761477
1833.488850	-3.015000	3.256300	-9.816400	27.223001	0.000480	20.752190
1834.489698	-3.010800	3.256200	-9.802200	27.211045	0.000478	20.752492
1835.487228	-2.996200	3.254500	-9.750400	27.210029	0.000478	20.760479
1836.490263	-3.010800	3.254600	-9.797600	27.249081	0.000477	20.777950
1837.490280	-3.000400	3.254300	-9.763200	27.295431	0.000475	20.760560
1838.491090	-2.975700	3.255600	-9.686900	27.306914	0.000473	20.776854
1839.492218	-3.019900	3.253100	-9.823000	27.352482	0.000475	20.769587
1840.489271	-3.003800	3.253000	-9.770000	27.385629	0.000473	20.743662
1841.489125	-3.002400	3.252200	-9.763000	27.380169	0.000473	20.768990
1842.492483	-2.994500	3.252700	-9.738600	27.433264	0.000472	20.754126
1843.490272	-2.964400	3.254100	-9.645300	27.473147	0.000473	20.752998
1844.491422	-2.995600	3.252600	-9.741900	27.487317	0.000471	20.761565
1845.489329	-2.980600	3.251100	-9.689500	27.499937	0.000472	20.751976
1846.487414	-2.988400	3.251400	-9.715700	27.555944	0.000471	20.755222
1847.489511	-3.019800	3.249300	-9.810700	27.583228	0.000472	20.782200
1848.492397	-2.982200	3.249400	-9.689400	27.586233	0.000470	20.767206
1849.491831	-2.993300	3.250700	-9.729700	27.569244	0.000466	20.769078
1850.492701	-2.978600	3.250000	-9.679200	27.530992	0.000466	20.755720
1851.489693	-3.008400	3.248700	-9.772700	27.523012	0.000469	20.750062
1852.490026	-2.992100	3.250000	-9.721800	27.471195	0.000468	20.747716
1853.497805	-2.993700	3.249500	-9.727200	27.451799	0.000464	20.760919
1854.492190	-3.014700	3.247600	-9.789000	27.502999	0.000466	20.749841
1855.490098	-2.987800	3.248200	-9.702900	27.510588	0.000463	20.739933
1856.491888	-2.985100	3.247000	-9.691300	27.546160	0.000465	20.770508
1857.491523	-2.987600	3.246400	-9.698600	27.544722	0.000462	20.754836
1858.489718	-2.974500	3.248100	-9.660300	27.510563	0.000462	20.756030
1859.494158	-3.000200	3.246300	-9.739100	27.502706	0.000461	20.736744
1860.491578	-2.999700	3.246900	-9.738700	27.521232	0.000460	20.769135
1861.490133	-3.007600	3.244700	-9.757300	27.506005	0.000459	20.753814
1862.490991	-2.984300	3.245400	-9.683900	27.527341	0.000460	20.743986
1863.502623	-2.987300	3.244200	-9.691000	27.540114	0.000460	20.738345
1864.494419	-3.010500	3.244400	-9.766500	27.516128	0.000458	20.753568
1865.497934	-3.009100	3.242700	-9.756000	27.497058	0.000456	20.740544
1866.494316	-3.005000	3.242200	-9.741800	27.485642	0.000457	20.738542
1867.494742	-2.995200	3.243400	-9.712600	27.498828	0.000456	20.730471
1868.498682	-2.974200	3.243900	-9.645100	27.535783	0.000456	20.729245
1869.495886	-2.992600	3.242300	-9.702200	27.555202	0.000455	20.748785
1870.496444	-3.000200	3.240500	-9.720700	27.550204	0.000452	20.741859
1871.494787	-2.997600	3.240700	-9.713500	27.521750	0.000454	20.745473
1872.494821	-2.978900	3.241300	-9.653800	27.550497	0.000451	20.728402
1873.500160	-3.002400	3.240600	-9.727000	27.528794	0.000451	20.727430
1874.494461	-2.985500	3.241800	-9.677500	27.554023	0.000450	20.743805
1875.496239	-2.992600	3.240000	-9.694800	27.559182	0.000450	20.732874
1876.495744	-3.001900	3.239300	-9.722900	27.584507	0.000449	20.744131
1877.500361	-3.019900	3.237100	-9.774600	27.600805	0.000448	20.751522
1878.496512	-2.990500	3.236900	-9.679100	27.621134	0.000450	20.757752
1879.494268	-2.982400	3.238600	-9.657700	27.615040	0.000447	20.749723
1880.504159	-3.016600	3.237900	-9.766500	27.636489	0.000445	20.730528
1881.496024	-3.007200	3.236000	-9.729700	27.647530	0.000446	20.741638
1882.496922	-3.022800	3.235000	-9.777400	27.640623	0.000444	20.736110
1883.495998	-3.008900	3.235500	-9.734600	27.656385	0.000445	20.743436
1884.499552	-3.027400	3.235300	-9.793000	27.546294	0.000444	20.738874
1885.496835	-3.015400	3.233700	-9.749400	27.504774	0.000442	20.726496
1886.500979	-2.990900	3.235100	-9.674200	27.531864	0.000442	20.745217
1887.498402	-3.006800	3.233600	-9.722100	27.516947	0.000442	20.730683
1888.497324	-3.003700	3.234700	-9.714900	27.497729	0.000439	20.734107
1889.499312	-2.979800	3.232100	-9.630000	27.464683	0.000439	20.716980
1890.497997	-3.004300	3.232200	-9.709900	27.432544	0.000440	20.726373
1891.501313	-3.008400	3.233200	-9.725700	27.466429	0.000438	20.735808
1892.502277	-2.995800	3.233200	-9.685400	27.472734	0.000439	20.731719
1893.499834	-3.004200	3.232700	-9.711000	27.490587	0.000436	20.725024
1894.498486	-3.005100	3.231500	-9.709900	27.507528	0.000436	20.727845
1895.498917	-3.002200	3.231700	-9.701300	27.503839	0.000436	20.731245
1896.499300	-3.001200	3.231300	-9.696800	27.471215	0.000435	20.739675
1897.500978	-2.991300	3.231100	-9.664400	27.463975	0.000435	20.712949
1898.501401	-3.010800	3.229900	-9.723200	27.467079	0.000433	20.728874
1899.501338	-3.000100	3.229200	-9.685900	27.445074	0.000432	20.713848
1900.503883	-3.030700	3.228500	-9.783700	27.458246	0.000430	20.723307
1901.502275	-3.001800	3.229400	-9.692300	27.489351	0.000434	20.705762
1902.505404	-3.012800	3.228000	-9.722900	27.500931	0.000431	20.729742
1903.503599	-3.014400	3.228100	-9.729700	27.482079	0.000430	20.722155
1904.503767	-3.020200	3.226400	-9.743100	27.504124	0.000428	20.727739
1905.501926	-2.990400	3.227700	-9.651400	27.471078	0.000428	20.707293
1906.504866	-3.010100	3.225800	-9.708600	27.467413	0.000426	20.717830
1907.508662	-3.008200	3.225500	-9.702300	27.481942	0.000426	20.715853
1908.503503	-3.014700	3.225100	-9.721900	27.519027	0.000426	20.721870
1909.507891	-2.994600	3.225300	-9.657400	27.562009	0.000426	20.711062
1910.502491	-2.989300	3.224900	-9.638400	27.613594	0.000424	20.716499
1911.503573	-3.001500	3.225200	-9.679400	27.641421	0.000423	20.707040
1912.509436	-2.992200	3.224900	-9.648500	27.657945	0.000421	20.719400
1913.506569	-2.984300	3.223700	-9.619700	27.633117	0.000421	20.699632
1914.505211	-2.969700	3.225100	-9.575900	27.624481	0.000420	20.702322
1915.504047	-2.968600	3.223800	-9.568600	27.608460	0.000420	20.715125
1916.502278	-3.009700	3.223600	-9.700300	27.644370	0.000419	20.711904
1917.505622	-2.997700	3.223400	-9.661700	27.624596	0.000416	20.696747
1918.503154	-2.970400	3.223300	-9.573600	27.601831	0.000418	20.720784
1919.515526	-3.011300	3.221200	-9.699200	27.555153	0.000417	20.714120
1920.503682	-3.021200	3.221300	-9.730900	27.486323	0.000417	20.715518
1921.503872	-3.008300	3.220400	-9.687200	27.490784	0.000415	20.729491
1922.507044	-2.992900	3.220200	-9.636800	27.482497	0.000414	20.703607
1923.503402	-3.051200	3.219200	-9.820400	27.498918	0.000415	20.699266
1924.504345	-3.011400	3.219000	-9.692600	27.514568	0.000412	20.699364
1925.503075	-3.009300	3.217600	-9.681100	27.524399	0.000413	20.708781
1926.502979	-2.985900	3.218400	-9.608800	27.526130	0.000411	20.701988
1927.502399	-3.004000	3.218100	-9.665700	27.538935	0.000411	20.699698
1928.507470	-3.018700	3.217300	-9.710500	27.533126	0.000411	20.717563
1929.503932	-2.996000	3.216600	-9.636100	27.522409	0.000411	20.698718
1930.506107	-2.997000	3.216500	-9.637800	27.548231	0.000411	20.707155
1931.505002	-3.003800	3.216200	-9.659000	27.547588	0.000407	20.696077
1932.505573	-2.997100	3.215400	-9.635800	27.533622	0.000408	20.699094
1933.509195	-3.010800	3.213800	-9.674500	27.567056	0.000406	20.692905
1934.510370	-2.990900	3.215600	-9.616800	27.588929	0.000405	20.687411
1935.506935	-3.004600	3.212700	-9.652000	27.638359	0.000405	20.704433
1936.514825	-2.983100	3.213700	-9.585100	27.695651	0.000403	20.698072
1937.506439	-3.006500	3.213800	-9.661200	27.705595	0.000405	20.695750
1938.506127	-2.977400	3.214000	-9.568400	27.733492	0.000405	20.689209
1939.509135	-3.016500	3.211900	-9.688100	27.742518	0.000402	20.691180
1940.505495	-2.998800	3.213500	-9.635800	27.781648	0.000400	20.706853
1941.506591	-3.002400	3.211900	-9.642200	27.812371	0.000400	20.691303
1942.507818	-3.014200	3.211000	-9.678000	27.832825	0.000399	20.700509
1943.507670	-3.017900	3.210000	-9.686900	27.867371	0.000399	20.704457
1944.509107	-2.983000	3.209500	-9.572600	27.833020	0.000396	20.706396
1945.508787	-2.989300	3.211800	-9.599900	27.820097	0.000396	20.699079
1946.510293	-3.002000	3.210400	-9.635500	27.756718	0.000398	20.700730
1947.506516	-2.985000	3.210300	-9.581400	27.721698	0.000397	20.692988
1948.507552	-2.987300	3.209600	-9.586700	27.712721	0.000395	20.706715
1949.512446	-3.010100	3.207800	-9.654800	27.723363	0.000395	20.688025
1950.510578	-3.014200	3.210000	-9.673700	27.686132	0.000394	20.687069
1951.508879	-3.017300	3.207600	-9.676900	27.708156	0.000391	20.679833
1952.509501	-2.990800	3.208400	-9.594000	27.659793	0.000392	20.694706
1953.510611	-2.989200	3.208200	-9.589100	27.601271	0.000390	20.697934
1954.514011	-3.006300	3.205800	-9.635600	27.559868	0.000390	20.694207
1955.511947	-3.006200	3.205900	-9.636900	27.580302	0.000388	20.679679
1956.508700	-2.967000	3.206700	-9.512600	27.638191	0.000389	20.689089
1957.513503	-2.977100	3.208200	-9.550200	27.650865	0.000387	20.675762
1958.509637	-2.998400	3.205600	-9.611100	27.690812	0.000387	20.686089
1959.509623	-2.996500	3.204500	-9.601300	27.703558	0.000386	20.675207
1960.512012	-2.987100	3.206400	-9.577100	27.691105	0.000386	20.690177
1961.512473	-3.002700	3.202800	-9.616600	27.664661	0.000385	20.695337
1962.512113	-2.990500	3.201600	-9.573600	27.656180	0.000384	20.695811
1963.510851	-3.010900	3.202100	-9.640500	27.621756	0.000384	20.691045
1964.509398	-3.005200	3.201600	-9.620200	27.605378	0.000382	20.696850
1965.510059	-3.003900	3.201500	-9.615900	27.626664	0.000379	20.694561
1966.513570	-2.987900	3.201600	-9.564700	27.647359	0.000380	20.693573
1967.508724	-3.011900	3.199900	-9.637100	27.645498	0.000382	20.713513
1968.515835	-2.980800	3.200500	-9.538200	27.654053	0.000380	20.676600
1969.508582	-2.997200	3.199400	-9.589300	27.603405	0.000377	20.694391
1970.510468	-3.008200	3.199100	-9.622400	27.559304	0.000377	20.685578
1971.512805	-2.995000	3.198100	-9.577500	27.565325	0.000376	20.708234
1972.508434	-3.001300	3.198200	-9.597800	27.581194	0.000377	20.701914
1973.512486	-2.998200	3.198000	-9.587100	27.583208	0.000374	20.699673
1974.510447	-3.010900	3.197900	-9.627400	27.652146	0.000374	20.686062
1975.509696	-3.017700	3.195400	-9.641700	27.660653	0.000375	20.684190
1976.512135	-2.992000	3.199200	-9.571500	27.706229	0.000374	20.697811
1977.512252	-2.996100	3.196100	-9.575000	27.715458	0.000373	20.690976
1978.508020	-3.006900	3.194200	-9.603800	27.749082	0.000372	20.693519
1979.511939	-2.972600	3.195900	-9.498900	27.774061	0.000370	20.702062
1980.507666	-3.010700	3.194200	-9.615400	27.807432	0.000370	20.687281
1981.508638	-3.004600	3.194400	-9.596500	27.810698	0.000368	20.703845
1982.517651	-3.005700	3.193800	-9.598900	27.784590	0.000369	20.717400
1983.524884	-2.998700	3.195200	-9.579700	27.735264	0.000367	20.689570
1984.512595	-3.022600	3.193200	-9.650600	27.714313	0.000367	20.677494
1985.509553	-2.996300	3.192300	-9.564200	27.768993	0.000365	20.696487
1986.511495	-3.007400	3.193200	-9.602400	27.784695	0.000363	20.695219
1987.514260	-3.000000	3.192300	-9.574800	27.797831	0.000366	20.695163
1988.514050	-3.002700	3.192100	-9.583300	27.836684	0.000364	20.678787
1989.509822	-2.993300	3.191600	-9.551700	27.859201	0.000365	20.693863
1990.511645	-2.991700	3.190400	-9.544200	27.845887	0.000362	20.697059
1991.512074	-3.015800	3.189800	-9.618700	27.817619	0.000363	20.688050
1992.510396	-3.022000	3.187900	-9.632800	27.799464	0.000362	20.701074
1993.515144	-2.964700	3.189500	-9.454700	27.786865	0.000359	20.696455
1994.513179	-3.004700	3.188400	-9.578600	27.844571	0.000359	20.703796
1995.518818	-2.997500	3.188100	-9.555700	27.882781	0.000360	20.678713
1996.514568	-2.988600	3.188000	-9.526700	27.932741	0.000358	20.693438
1997.513103	-3.008800	3.186800	-9.587500	27.921906	0.000358	20.685851
1998.517190	-3.021800	3.186900	-9.629500	27.887443	0.000356	20.705693
1999.513960	-2.994300	3.188400	-9.546300	27.941270	0.000356	20.691116
2000.511930	-3.004000	3.184900	-9.566800	27.974155	0.000355	20.693396
2001.514282	-2.997200	3.186800	-9.550700	27.983618	0.000355	20.689644
2002.518289	-2.982700	3.185500	-9.499900	28.001672	0.000352	20.696438
2003.515090	-2.965200	3.185600	-9.444900	27.992146	0.000352	20.684003
2004.523165	-3.006000	3.183600	-9.567700	28.016218	0.000353	20.697804
2005.516831	-3.015900	3.183000	-9.599000	28.005011	0.000350	20.682254
2006.517312	-2.987800	3.183100	-9.509500	28.036473	0.000350	20.697804
2007.517658	-3.019200	3.181200	-9.602800	28.048874	0.000349	20.670929
2008.518929	-2.965400	3.183800	-9.440200	28.069917	0.000348	20.684052
2009.520764	-2.976200	3.182700	-9.470200	28.090624	0.000349	20.685457
2010.518912	-3.021100	3.180100	-9.606400	28.104633	0.000346	20.714260
2011.520943	-3.004800	3.182900	-9.563200	28.089682	0.000346	20.695890
2012.518673	-2.986200	3.181300	-9.498100	28.068835	0.000346	20.716157
2013.522510	-2.990500	3.180700	-9.510800	28.067845	0.000345	20.697615
2014.523836	-3.005200	3.177300	-9.547900	28.053089	0.000342	20.694615
2015.520037	-2.988400	3.179700	-9.501600	28.062858	0.000344	20.713934
2016.522363	-3.002400	3.178500	-9.542600	28.046648	0.000342	20.695718
2017.520423	-3.016200	3.176900	-9.581300	27.989676	0.000342	20.705226
2018.519235	-2.998100	3.176200	-9.521400	27.969371	0.000339	20.702806
2019.521214	-2.981200	3.176800	-9.469900	27.924472	0.000338	20.679897
2020.522122	-3.002600	3.176200	-9.535500	27.957845	0.000338	20.703059
2021.518775	-3.007700	3.175700	-9.550400	27.964336	0.000337	20.725240
2022.518167	-3.018200	3.175200	-9.582000	28.004010	0.000337	20.704008
2023.518948	-3.006500	3.175500	-9.545500	28.024216	0.000337	20.701113
2024.521382	-3.025800	3.173200	-9.600200	27.963327	0.000336	20.685816
2025.524805	-2.994800	3.172600	-9.500200	27.919517	0.000336	20.691981
2026.519714	-3.013600	3.172600	-9.559700	27.919915	0.000334	20.682897
2027.519413	-3.005400	3.172800	-9.534400	27.857997	0.000332	20.687435
2028.520288	-2.989100	3.174300	-9.487600	27.831004	0.000331	20.702470
2029.521146	-2.991100	3.172000	-9.487200	27.787537	0.000333	20.700450
2030.524910	-3.028600	3.169100	-9.596500	27.775482	0.000330	20.707759
2031.521268	-3.015900	3.171300	-9.563200	27.792248	0.000331	20.697131
2032.523394	-3.020300	3.170200	-9.573700	27.840653	0.000329	20.699379
2033.522302	-3.004100	3.169700	-9.520500	27.915829	0.000328	20.704865
2034.521369	-2.976400	3.170000	-9.434200	27.937450	0.000329	20.704342
2035.524493	-2.999800	3.169100	-9.505700	27.919524	0.000326	20.702420
2036.524306	-3.004900	3.168800	-9.521400	27.962815	0.000325	20.715174
2037.522164	-2.996300	3.167400	-9.490000	27.983915	0.000323	20.694212
2038.523909	-2.955600	3.170100	-9.368200	28.037493	0.000322	20.707366
2039.528262	-2.996300	3.167400	-9.489700	28.043568	0.000322	20.699256
2040.522654	-2.988800	3.166200	-9.462000	28.067420	0.000323	20.705248
2041.522906	-2.992300	3.166200	-9.473700	28.017709	0.000321	20.705469
2042.520818	-2.998600	3.164700	-9.489100	27.965973	0.000321	20.716457
2043.524148	-2.997200	3.164400	-9.483400	27.997227	0.000320	20.709509
2044.526701	-2.950400	3.165500	-9.338100	28.015557	0.000320	20.729857
2045.520034	-2.987700	3.164500	-9.453500	27.997137	0.000319	20.725066
2046.526909	-3.022100	3.160500	-9.550200	28.000036	0.000318	20.727036
2047.524403	-3.005600	3.162000	-9.502400	28.041601	0.000318	20.734262
2048.524614	-3.011300	3.161300	-9.518700	28.088916	0.000316	20.706025
2049.526618	-2.994600	3.160600	-9.463900	28.092765	0.000316	20.710848
2050.528598	-2.995700	3.161500	-9.468400	28.127344	0.000316	20.721476
2051.528906	-3.016900	3.160800	-9.534900	28.159842	0.000317	20.709147
2052.534826	-2.991200	3.161700	-9.456400	28.205324	0.000314	20.691398
2053.528618	-3.012900	3.158600	-9.515300	28.232030	0.000313	20.719710
2054.529815	-2.982300	3.158500	-9.418600	28.199331	0.000312	20.703383
2055.546227	-2.997800	3.157900	-9.465500	28.178137	0.000312	20.711919
2056.534142	-3.013900	3.157100	-9.514400	28.135748	0.000312	20.737525
2057.539255	-3.003300	3.156300	-9.478300	28.137705	0.000310	20.719580
2058.535288	-3.031900	3.155800	-9.566800	28.138452	0.000308	20.712744
2059.537025	-2.993900	3.156500	-9.447500	28.172363	0.000310	20.717486
2060.535838	-2.981100	3.155700	-9.406200	28.194070	0.000307	20.722270
2061.532006	-3.020100	3.154800	-9.526700	28.199136	0.000307	20.712197
2062.535514	-3.014400	3.154000	-9.506100	28.213289	0.000305	20.721231
2063.532872	-2.981800	3.155100	-9.406700	28.229699	0.000304	20.720683
2064.541280	-3.009000	3.153200	-9.487400	28.215117	0.000305	20.721174
2065.532016	-3.010600	3.152000	-9.488800	28.157934	0.000303	20.721452
2066.535658	-2.998100	3.151300	-9.447900	28.154605	0.000305	20.711936
2067.533794	-2.990800	3.150900	-9.422200	28.164754	0.000303	20.715516
2068.536007	-2.993400	3.150900	-9.430400	28.163115	0.000303	20.730461
2069.537857	-3.008100	3.149700	-9.472100	28.185973	0.000303	20.729292
2070.535295	-3.005900	3.149700	-9.465600	28.226793	0.000300	20.729611
2071.533659	-3.014600	3.149000	-9.492000	28.255350	0.000300	20.725172
2072.533851	-2.986400	3.148700	-9.401800	28.271906	0.000302	20.739945
2073.542243	-2.987200	3.147600	-9.400900	28.295656	0.000297	20.740623
2074.533770	-3.006100	3.147700	-9.460400	28.331470	0.000297	20.720732
2075.537776	-2.974300	3.147700	-9.360500	28.341286	0.000295	20.731564
2076.535999	-2.984400	3.146100	-9.387900	28.354991	0.000294	20.714543
2077.535332	-2.991500	3.146800	-9.412300	28.282023	0.000295	20.723577
2078.537722	-2.990400	3.145000	-9.404400	28.179679	0.000294	20.727223
2079.541704	-3.002600	3.143600	-9.438100	28.131387	0.000293	20.749730
2080.536321	-3.005400	3.143100	-9.445800	28.097921	0.000291	20.737377
2081.536906	-2.987200	3.144100	-9.391100	28.072909	0.000291	20.710774
2082.537610	-3.017500	3.141700	-9.478300	28.038970	0.000291	20.726398
2083.539867	-2.985500	3.142400	-9.380900	27.997842	0.000292	20.723405
2084.541154	-2.960000	3.142300	-9.299100	27.964121	0.000289	20.731188
2085.536981	-3.011600	3.139400	-9.453000	27.971438	0.000289	20.732390
2086.538674	-3.009300	3.139800	-9.446800	28.020372	0.000287	20.708150
2087.542629	-3.002400	3.139900	-9.425700	28.049828	0.000286	20.737328
2088.540630	-3.018500	3.138200	-9.471900	28.064559	0.000286	20.730820
2089.541641	-2.978400	3.138700	-9.346400	28.103525	0.000287	20.732112
2090.539003	-2.948900	3.139100	-9.256300	28.119969	0.000286	20.731122
2091.540171	-3.021700	3.135500	-9.473200	28.144973	0.000284	20.753450
2092.542403	-2.978700	3.138500	-9.347600	28.180946	0.000285	20.736085
2093.541099	-2.999000	3.135900	-9.402900	28.238111	0.000283	20.715875
2094.539616	-3.007300	3.135300	-9.427400	28.270557	0.000282	20.739060
2095.542505	-2.996600	3.133300	-9.387400	28.302012	0.000282	20.728056
2096.541501	-2.984900	3.134200	-9.354100	28.310139	0.000279	20.739559
2097.541658	-3.010300	3.132700	-9.429700	28.353634	0.000281	20.736412
2098.546578	-3.014700	3.132500	-9.441600	28.371260	0.000280	20.727606
2099.544621	-3.017100	3.132200	-9.448200	28.401421	0.000278	20.731898
2100.545831	-3.007000	3.131400	-9.415100	28.404431	0.000279	20.729240
2101.541258	-3.000800	3.130600	-9.392700	28.431937	0.000277	20.734178
2102.543858	-3.008400	3.129300	-9.412800	28.449530	0.000277	20.732454
2103.547789	-2.964400	3.129300	-9.275600	28.476100	0.000275	20.756366
2104.545582	-3.002900	3.128700	-9.394100	28.521949	0.000278	20.741372
2105.559298	-2.987100	3.129700	-9.346900	28.555702	0.000276	20.746915
2106.545415	-3.009700	3.126300	-9.408800	28.514667	0.000274	20.750160
2107.544923	-3.024000	3.127000	-9.454300	28.475141	0.000274	20.744021
2108.552478	-2.998000	3.124600	-9.366900	28.488991	0.000275	20.730466
2109.547385	-2.994400	3.126000	-9.359900	28.497742	0.000274	20.755401
2110.548269	-2.988700	3.124400	-9.336800	28.517126	0.000272	20.750266
2111.547673	-3.001300	3.123700	-9.374000	28.511867	0.000272	20.751133
2112.548456	-3.009400	3.124000	-9.400700	28.514626	0.000271	20.749645
2113.556651	-3.009400	3.122800	-9.396400	28.478549	0.000268	20.735124
2114.552433	-2.999900	3.121900	-9.364700	28.479337	0.000271	20.764843
2115.550220	-3.001200	3.122500	-9.369400	28.512498	0.000270	20.751296
2116.549729	-2.977600	3.121200	-9.292800	28.525113	0.000268	20.731756
2117.547879	-3.009300	3.118700	-9.382900	28.545366	0.000268	20.738876
2118.550014	-2.984400	3.120000	-9.310900	28.564271	0.000267	20.758865
2119.552126	-2.994200	3.118700	-9.337200	28.580798	0.000269	20.741370
2120.550021	-3.036300	3.116700	-9.462000	28.596983	0.000267	20.762887
2121.553309	-3.011900	3.118700	-9.392800	28.614922	0.000265	20.742073
2122.549365	-2.984900	3.117700	-9.303900	28.620328	0.000266	20.761742
2123.549382	-3.012900	3.115700	-9.385800	28.640668	0.000263	20.751409
2124.550947	-2.977900	3.115600	-9.276800	28.581520	0.000262	20.735459
2125.550046	-2.992900	3.114400	-9.319100	28.516555	0.000263	20.752062
2126.556621	-3.004700	3.115100	-9.359100	28.435367	0.000261	20.755177
2127.548870	-3.002700	3.113800	-9.347900	28.374893	0.000260	20.734584
2128.549314	-3.003400	3.112800	-9.347100	28.350455	0.000261	20.773989
2129.551746	-2.986100	3.111400	-9.290300	28.356015	0.000260	20.747819
2130.549166	-2.999500	3.111700	-9.330900	28.363396	0.000261	20.737707
2131.554382	-2.976400	3.110100	-9.256100	28.373407	0.000259	20.752055
2132.551494	-3.001100	3.109200	-9.329700	28.391893	0.000258	20.760238
2133.550406	-3.022300	3.106700	-9.388600	28.431747	0.000257	20.744893
2134.549671	-3.013500	3.107100	-9.362100	28.473653	0.000257	20.781878
2135.551661	-2.986800	3.107800	-9.280500	28.492494	0.000257	20.769557
2136.549347	-2.986300	3.107800	-9.279400	28.496951	0.000255	20.758873
2137.551184	-3.004500	3.106100	-9.331200	28.521061	0.000256	20.753755
2138.549965	-3.004600	3.104700	-9.327100	28.537418	0.000255	20.769754
2139.552731	-2.998700	3.105900	-9.311600	28.559449	0.000255	20.745473
2140.555506	-2.976100	3.105500	-9.240600	28.570975	0.000255	20.763720
2141.551222	-2.994800	3.103900	-9.294500	28.570545	0.000254	20.771822
2142.555161	-2.980900	3.102300	-9.246200	28.585918	0.000253	20.771658
2143.554040	-2.985800	3.101800	-9.260900	28.581406	0.000251	20.778967
2144.553764	-3.003500	3.102000	-9.316200	28.563247	0.000252	20.785809
2145.554395	-2.996400	3.100700	-9.289100	28.605497	0.000251	20.767194
2146.551543	-2.984900	3.100100	-9.252500	28.641422	0.000250	20.778247
2147.550209	-3.004800	3.099200	-9.311700	28.646374	0.000249	20.777544
2148.556534	-3.045900	3.097300	-9.432000	28.631909	0.000248	20.766769
2149.556555	-3.017800	3.097300	-9.344700	28.622494	0.000249	20.776252
2150.556037	-3.000400	3.095900	-9.288000	28.641998	0.000249	20.765550
2151.558190	-3.009400	3.095400	-9.314800	28.645391	0.000249	20.757113
2152.560238	-2.999000	3.095700	-9.282800	28.602257	0.000248	20.760138
2153.560494	-3.000400	3.093900	-9.282500	28.612088	0.000245	20.763875
2154.558131	-2.984200	3.093700	-9.230100	28.625106	0.000245	20.780306
2155.561877	-3.014600	3.091600	-9.318900	28.626997	0.000244	20.782684
2156.561775	-3.016900	3.090000	-9.321100	28.623540	0.000246	20.769719
2157.560055	-3.011500	3.089700	-9.303800	28.595617	0.000245	20.778581
2158.564478	-3.012800	3.090300	-9.309400	28.551020	0.000245	20.781556
2159.559239	-2.992000	3.089000	-9.241300	28.528624	0.000245	20.778441
2160.562212	-3.001400	3.088100	-9.267500	28.540387	0.000244	20.778434
2161.561058	-3.002900	3.087500	-9.270500	28.576071	0.000243	20.795879
2162.561330	-2.988500	3.087900	-9.227300	28.573107	0.000241	20.752116
2163.560310	-2.978300	3.086800	-9.192800	28.604521	0.000242	20.802721
2164.564765	-2.985400	3.087500	-9.216500	28.629497	0.000240	20.790418
2165.562381	-2.984900	3.086000	-9.209600	28.672912	0.000239	20.784834
2166.563969	-3.013400	3.084200	-9.292600	28.715182	0.000241	20.791374
2167.563668	-3.009600	3.081100	-9.272200	28.727763	0.000239	20.789821
2168.563389	-2.969500	3.084400	-9.158000	28.726156	0.000240	20.805272
2169.567842	-3.005600	3.081100	-9.258700	28.703511	0.000236	20.784834
2170.562762	-3.007600	3.081200	-9.266400	28.703145	0.000238	20.799164
2171.569326	-3.007500	3.080900	-9.264000	28.742980	0.000237	20.776225
2172.573596	-3.000600	3.079600	-9.239600	28.755292	0.000237	20.785308
2173.565197	-3.009200	3.077900	-9.261300	28.759097	0.000235	20.775864
2174.569620	-3.052700	3.075400	-9.386100	28.772245	0.000235	20.782945
2175.568178	-2.996600	3.076700	-9.217700	28.822244	0.000234	20.777834
2176.564793	-3.000100	3.074600	-9.223000	28.831114	0.000235	20.791037
2177.569842	-3.002400	3.076900	-9.237300	28.794059	0.000233	20.798754
2178.567287	-3.006700	3.074300	-9.242400	28.777040	0.000230	20.795835
2179.569477	-2.991200	3.073000	-9.191300	28.736826	0.000231	20.785200
2180.568407	-3.020300	3.071300	-9.275100	28.694987	0.000232	20.767713
2181.566398	-3.015200	3.070900	-9.257900	28.697121	0.000232	20.808743
2182.572400	-2.992400	3.070600	-9.187700	28.701302	0.000233	20.808687
2183.573856	-2.985800	3.070400	-9.166200	28.741468	0.000231	20.807419
2184.573247	-2.999800	3.069200	-9.205900	28.758365	0.000230	20.776550
2185.574479	-3.011300	3.068100	-9.237800	28.782501	0.000229	20.809871
2186.571866	-2.987600	3.067000	-9.161600	28.769865	0.000231	20.814212
2187.584449	-2.993300	3.067400	-9.180500	28.791769	0.000230	20.816836
2188.575090	-2.988400	3.065400	-9.159800	28.756441	0.000229	20.805432
2189.574322	-3.001800	3.063800	-9.195500	28.796176	0.000227	20.806576
2190.581150	-2.995500	3.063100	-9.172600	28.794025	0.000228	20.805358
2191.573637	-2.985400	3.062400	-9.141000	28.808048	0.000226	20.820432
2192.574859	-2.978500	3.062000	-9.119500	28.808933	0.000227	20.805203
2193.575870	-2.997000	3.060600	-9.171400	28.796329	0.000227	20.804360
2194.576438	-2.978300	3.060500	-9.114100	28.800144	0.000225	20.830488
2195.578936	-3.036300	3.057100	-9.281200	28.783101	0.000226	20.805734
2196.577367	-2.984000	3.058700	-9.125400	28.825740	0.000229	20.801744
2197.579860	-2.982700	3.057400	-9.118300	28.851603	0.000226	20.798400
2198.574422	-3.000400	3.054600	-9.163800	28.879324	0.000225	20.820162
2199.577397	-2.969700	3.055500	-9.072900	28.882301	0.000226	20.804196
2200.577247	-3.008100	3.052200	-9.180000	28.884606	0.000224	20.799405
2201.581430	-3.015200	3.050800	-9.197100	28.882870	0.000226	20.810932
2202.578530	-2.981400	3.052700	-9.099900	28.902045	0.000222	20.793740
2203.576942	-2.974600	3.051800	-9.077000	28.922210	0.000224	20.805046
2204.577613	-3.004400	3.049600	-9.161300	28.938658	0.000222	20.796013
2205.574800	-2.974300	3.050400	-9.071800	28.947356	0.000224	20.813310
2206.581264	-3.014600	3.047300	-9.185100	28.930194	0.000224	20.808348
2207.574343	-3.000500	3.046900	-9.141300	28.917908	0.000223	20.803083
2208.578692	-2.991500	3.045600	-9.109800	28.893256	0.000221	20.820921
2209.581551	-2.980000	3.045800	-9.075300	28.854361	0.000223	20.818723
2210.580453	-3.011000	3.043300	-9.161900	28.816121	0.000225	20.811021
2211.580536	-3.020800	3.041600	-9.187200	28.778984	0.000221	20.813441
2212.585361	-2.999500	3.041100	-9.121200	28.757941	0.000222	20.827805
2213.579878	-2.990800	3.039500	-9.089800	28.779455	0.000221	20.814863
2214.576847	-3.015400	3.038800	-9.161800	28.784877	0.000221	20.801833
2215.580346	-2.981600	3.039000	-9.059900	28.821445	0.000223	20.823496
2216.576371	-3.015200	3.036100	-9.153100	28.776282	0.000222	20.829210
2217.585949	-3.000200	3.035500	-9.106900	28.715527	0.000221	20.812583
2218.579857	-3.008500	3.033900	-9.126600	28.691989	0.000221	20.832023
2219.585170	-3.007900	3.034300	-9.125600	28.735297	0.000222	20.841506
2220.580632	-2.995500	3.032600	-9.083300	28.750758	0.000221	20.830053
2221.579650	-2.974600	3.033800	-9.022900	28.746197	0.000221	20.836838
2222.581710	-3.020000	3.029900	-9.150200	28.769726	0.000219	20.796528
2223.580602	-2.995000	3.028600	-9.069800	28.775626	0.000219	20.829972
2224.576550	-2.979600	3.028700	-9.023800	28.789349	0.000221	20.821037
2225.581199	-2.986300	3.026800	-9.038200	28.840485	0.000218	20.825132
2226.581010	-2.994500	3.026600	-9.062300	28.863953	0.000219	20.805152
2227.586015	-2.993000	3.025900	-9.055400	28.861763	0.000218	20.816696
2228.579933	-2.996800	3.023600	-9.058900	28.872961	0.000218	20.829873
2229.582689	-3.010100	3.024100	-9.101100	28.820569	0.000218	20.805545
2230.585386	-2.997200	3.021000	-9.053600	28.746075	0.000221	20.822965
2231.585613	-2.998100	3.021500	-9.057300	28.701031	0.000218	20.807940
2232.584077	-2.993700	3.019900	-9.039600	28.714634	0.000218	20.823538
2233.586677	-3.011700	3.018100	-9.088700	28.719812	0.000218	20.810262
2234.585371	-2.983400	3.016900	-8.999500	28.711339	0.000218	20.820693
2235.585869	-2.994500	3.017100	-9.034200	28.757990	0.000215	20.805569
2236.594286	-2.979700	3.015700	-8.984800	28.805288	0.000217	20.818126
2237.585255	-2.991200	3.013800	-9.014300	28.809321	0.000216	20.795637
2238.590304	-2.968400	3.012600	-8.942300	28.878755	0.000216	20.825279
2239.586710	-2.990600	3.010700	-9.002300	28.908390	0.000216	20.825262
2240.587057	-2.986400	3.009900	-8.988400	28.923158	0.000216	20.805528
2241.585677	-2.973500	3.010500	-8.949600	28.947729	0.000218	20.794720
2242.584602	-2.996500	3.007100	-9.009500	28.926348	0.000217	20.814431
2243.585568	-3.013600	3.005700	-9.056200	28.902279	0.000217	20.814839
2244.583947	-2.975700	3.005700	-8.942600	28.916991	0.000216	20.794573
2245.583060	-3.045400	3.001300	-9.139300	28.923012	0.000215	20.821501
2246.587068	-3.035800	3.000600	-9.107900	28.944362	0.000217	20.798914
2247.588032	-3.014100	3.000400	-9.041500	28.956752	0.000214	20.803810
2248.586849	-2.974500	3.001500	-8.926600	29.015798	0.000214	20.803083
2249.590430	-2.975300	2.999600	-8.923600	29.005031	0.000215	20.780854
2250.588079	-2.975100	2.999000	-8.921200	29.054663	0.000213	20.794826
2251.591188	-2.997000	2.995500	-8.976400	29.097907	0.000214	20.806157
2252.584461	-3.002000	2.994100	-8.987100	29.055880	0.000214	20.788466
2253.588028	-3.022600	2.992800	-9.045700	29.070070	0.000212	20.804660
2254.589279	-2.998200	2.993200	-8.972900	29.047848	0.000215	20.777054
2255.588887	-2.995700	2.990400	-8.956700	29.011912	0.000212	20.791581
2256.586738	-3.001600	2.989900	-8.973800	28.991773	0.000213	20.774609
2257.589653	-2.996200	2.989700	-8.957000	29.000593	0.000212	20.786340
2258.588845	-3.005500	2.986000	-8.972600	29.000885	0.000213	20.798489
2259.590562	-2.980300	2.986400	-8.899400	28.996998	0.000211	20.791254
2260.595175	-2.997000	2.984200	-8.942700	28.967276	0.000214	20.778378
2261.590366	-2.999400	2.981800	-8.942200	28.908422	0.000211	20.813441
2262.592700	-3.010500	2.981800	-8.975500	28.892193	0.000210	20.797091
2263.591393	-3.007900	2.978700	-8.957900	28.851974	0.000211	20.777911
2264.592609	-3.005200	2.977700	-8.947400	28.871093	0.000212	20.781051
2265.595611	-2.980600	2.976500	-8.869100	28.874939	0.000211	20.774494
2266.593945	-2.987500	2.973400	-8.881900	28.904908	0.000213	20.781451
2267.597976	-2.995900	2.973500	-8.907100	28.879987	0.000213	20.765829
2268.593742	-3.013300	2.971800	-8.954100	28.905420	0.000211	20.764423
2269.597615	-3.029300	2.969000	-8.993000	28.919896	0.000213	20.791809
2270.595433	-3.002600	2.970400	-8.916600	28.934656	0.000210	20.793878
2271.593450	-3.005000	2.968700	-8.920300	28.963041	0.000208	20.763205
2272.594432	-3.009300	2.967000	-8.928000	29.010054	0.000210	20.791605
2273.594300	-3.018200	2.964800	-8.947700	29.027100	0.000211	20.764210
2274.590206	-3.032200	2.961900	-8.980300	29.046841	0.000212	20.771772
2275.598521	-3.001100	2.961500	-8.886400	29.023911	0.000212	20.779014
2276.596294	-2.989900	2.960400	-8.850300	29.036990	0.000209	20.785080
2277.593402	-2.984100	2.959200	-8.829300	29.038329	0.000210	20.785481
2278.593733	-3.010100	2.958200	-8.904300	29.081850	0.000211	20.775752
2279.592243	-3.013700	2.956600	-8.908900	29.072762	0.000210	20.770389
2280.592627	-3.020300	2.954800	-8.923200	29.076722	0.000211	20.765369
2281.595068	-3.002800	2.953700	-8.868700	29.058620	0.000209	20.762303
2282.595470	-3.003800	2.951800	-8.865700	29.075171	0.000210	20.772342
2283.594934	-3.009800	2.949300	-8.875100	29.084705	0.000211	20.775784
2284.593205	-3.003900	2.949300	-8.858600	29.101077	0.000211	20.766202
2285.605448	-2.988400	2.947600	-8.807300	29.085127	0.000211	20.768622
2286.599236	-2.980900	2.946100	-8.780900	29.064997	0.000209	20.777737
2287.594840	-2.988500	2.943800	-8.796800	29.045508	0.000211	20.757151
2288.595417	-2.985300	2.942700	-8.783600	28.998552	0.000209	20.750619
2289.593270	-2.995600	2.940500	-8.807500	28.909076	0.000210	20.760520
2290.595527	-2.980400	2.939300	-8.759300	28.885372	0.000208	20.771728
2291.597642	-3.024900	2.936600	-8.881200	28.815712	0.000210	20.771728
2292.593304	-2.999300	2.936000	-8.804600	28.816556	0.000209	20.769733
2293.597416	-2.976900	2.934100	-8.733900	28.850299	0.000209	20.755361
2294.594107	-2.994900	2.933300	-8.783900	28.887887	0.000210	20.749130
2295.605513	-3.010300	2.931500	-8.823300	28.925337	0.000210	20.765522
2296.598869	-3.041000	2.927200	-8.900100	28.962866	0.000209	20.758287
2297.600860	-2.994100	2.927000	-8.762600	28.944292	0.000208	20.740521
2298.599701	-3.009500	2.925000	-8.801400	28.937134	0.000210	20.748010
2299.599367	-2.994300	2.924800	-8.756400	28.886775	0.000211	20.741846
2300.599670	-2.970700	2.922700	-8.681600	28.838149	0.000210	20.763984
2301.603030	-3.005600	2.919900	-8.774500	28.786851	0.000209	20.753560
2302.601725	-3.052800	2.917400	-8.904900	28.761749	0.000208	20.759569
2303.599992	-3.007700	2.918700	-8.775400	28.803130	0.000208	20.757157
2304.602654	-3.010700	2.915000	-8.775200	28.861917	0.000209	20.758530
2305.599260	-2.994700	2.914500	-8.726600	28.896617	0.000209	20.750813
2306.604701	-3.000700	2.912600	-8.738600	28.905584	0.000209	20.745148
2307.614919	-3.021500	2.910200	-8.792400	28.899222	0.000208	20.741583
2308.602827	-3.033200	2.908300	-8.820700	28.925391	0.000209	20.738549
2309.603117	-2.996700	2.908400	-8.715100	28.969452	0.000209	20.731257
2310.602799	-2.989900	2.905800	-8.686100	29.008026	0.000210	20.745939
2311.603889	-3.002300	2.904300	-8.718800	29.040571	0.000209	20.738900
2312.604787	-3.028900	2.900600	-8.784100	29.083265	0.000208	20.741615
2313.604753	-3.000500	2.900500	-8.701600	29.089860	0.000210	20.742097
2314.602606	-2.980100	2.898600	-8.636400	29.066656	0.000209	20.753329
2315.604275	-3.010900	2.896200	-8.719400	29.046801	0.000209	20.735694
2316.604495	-2.977000	2.894800	-8.616500	29.016309	0.000208	20.747647
2317.607996	-3.000600	2.892300	-8.677800	29.050307	0.000208	20.741598
2318.607722	-2.976600	2.892200	-8.607800	29.064951	0.000209	20.744974
2319.603314	-2.966200	2.888300	-8.566800	29.116300	0.000208	20.746927
2320.604811	-2.997000	2.886800	-8.650800	29.141069	0.000209	20.728736
2321.606400	-3.008700	2.885100	-8.678500	29.105679	0.000209	20.740493
2322.605676	-2.991800	2.885000	-8.630300	29.047742	0.000208	20.748971
2323.606688	-3.007500	2.881700	-8.665400	28.996283	0.000208	20.738849
2324.604911	-3.028600	2.878300	-8.716100	29.006783	0.000208	20.731410
2325.608805	-2.994600	2.877300	-8.615700	29.024066	0.000208	20.744556
2326.605505	-3.032800	2.874800	-8.717700	29.029972	0.000207	20.750507
2327.615441	-3.000900	2.873300	-8.621000	29.081436	0.000209	20.752101
2328.616701	-2.987800	2.871800	-8.579100	29.119626	0.000207	20.732734
2329.606309	-2.993500	2.868900	-8.587200	29.159720	0.000210	20.744687
2330.607637	-2.974700	2.868000	-8.529200	29.213343	0.000208	20.746566
2331.609018	-2.979700	2.865400	-8.537000	29.276812	0.000209	20.719489
2332.603874	-3.005800	2.863500	-8.606000	29.296346	0.000210	20.751504
2333.607709	-3.003900	2.862900	-8.599000	29.350060	0.000208	20.739731
2334.606008	-3.002900	2.859600	-8.585000	29.363581	0.000208	20.749566
2335.608213	-3.015700	2.858500	-8.619300	29.421818	0.000207	20.727182
2336.608610	-2.982800	2.856000	-8.517100	29.449768	0.000208	20.734965
2337.608775	-2.998500	2.853400	-8.554900	29.451705	0.000209	20.727909
2338.609476	-2.959600	2.854100	-8.445500	29.476556	0.000207	20.714076
2339.610661	-2.998700	2.850000	-8.546000	29.399691	0.000207	20.728113
2340.608250	-2.987700	2.847900	-8.508400	29.358787	0.000207	20.733353
2341.608615	-2.991000	2.846300	-8.511700	29.306865	0.000206	20.722275
2342.611169	-3.011500	2.842600	-8.559700	29.225550	0.000207	20.722831
2343.606355	-2.981200	2.841800	-8.470500	29.135152	0.000206	20.732258
2344.614267	-3.008500	2.838100	-8.537100	29.094221	0.000206	20.719937
2345.617578	-3.006800	2.837900	-8.531900	29.101206	0.000207	20.733614
2346.609378	-2.994200	2.836400	-8.491400	29.126616	0.000207	20.710853
2347.613320	-2.997600	2.832700	-8.490100	29.178596	0.000207	20.714868
2348.610064	-2.993600	2.830300	-8.471500	29.150776	0.000206	20.729983
2349.614899	-2.988000	2.826600	-8.445300	29.125415	0.000207	20.724816
2350.617040	-2.978000	2.826200	-8.415400	29.102608	0.000206	20.719853
2351.615115	-3.015200	2.822700	-8.510400	29.058991	0.000207	20.717630
2352.615731	-3.012400	2.820200	-8.493500	29.061076	0.000208	20.714989
2353.612818	-3.025400	2.817900	-8.524700	29.062868	0.000208	20.723908
2354.610067	-3.007500	2.816400	-8.469600	29.017659	0.000205	20.726721
2355.616827	-2.998600	2.813900	-8.437200	28.990347	0.000206	20.713426
2356.610084	-3.034100	2.810100	-8.524900	29.000579	0.000206	20.711881
2357.615659	-2.988100	2.809000	-8.391800	28.963797	0.000207	20.691417
2358.614163	-3.019800	2.805500	-8.470000	28.954506	0.000208	20.717620
2359.613421	-2.999500	2.805100	-8.412400	29.012661	0.000206	20.730693
2360.617761	-2.994700	2.802500	-8.391900	29.057180	0.000208	20.729556
2361.611672	-2.985800	2.798600	-8.355200	29.107636	0.000207	20.724446
2362.616050	-2.984400	2.799000	-8.352300	29.139529	0.000207	20.702528
2363.616051	-2.987400	2.796100	-8.352300	29.157337	0.000206	20.719050
2364.613267	-3.002200	2.792200	-8.380500	29.120763	0.000205	20.712068
2365.616689	-2.995500	2.789000	-8.353700	29.125323	0.000206	20.724724
2366.613547	-3.026200	2.785700	-8.428400	29.095434	0.000206	20.731591
2367.610831	-3.024400	2.783800	-8.418100	29.045235	0.000206	20.695233
2368.612968	-3.017800	2.780300	-8.388700	29.025463	0.000206	20.701390
2369.616084	-2.990800	2.779000	-8.310400	28.985688	0.000204	20.712999
2370.619401	-2.988800	2.775800	-8.294700	29.019767	0.000204	20.716041
2371.617791	-3.008500	2.772700	-8.340400	29.002930	0.000204	20.710931
2372.614098	-2.991100	2.770900	-8.287300	29.008975	0.000204	20.700425
2373.615736	-2.990400	2.767000	-8.273300	29.016585	0.000203	20.690074
2374.614750	-2.987600	2.765300	-8.260900	29.064188	0.000207	20.703899
2375.618199	-2.985100	2.761300	-8.242100	29.095636	0.000203	20.711879
2376.617064	-3.001300	2.757600	-8.275500	29.153368	0.000205	20.705093
2377.618442	-2.976100	2.755900	-8.199900	29.184699	0.000204	20.705371
2378.614055	-3.006200	2.751100	-8.269100	29.251586	0.000204	20.716351
2379.616138	-3.015500	2.748000	-8.285400	29.285664	0.000204	20.711813
2380.620706	-3.005600	2.744900	-8.248800	29.336004	0.000205	20.694268
2381.618852	-2.953100	2.743900	-8.102000	29.385224	0.000206	20.691243
2382.617697	-3.055400	2.738000	-8.363200	29.438755	0.000205	20.692568
2383.620466	-3.033100	2.736600	-8.299500	29.427692	0.000205	20.700383
2384.615986	-2.979700	2.732900	-8.142400	29.422720	0.000204	20.694423
2385.620861	-3.025000	2.729100	-8.254400	29.431877	0.000205	20.672831
2386.622325	-2.995600	2.728100	-8.171200	29.440783	0.000205	20.688447
2387.617241	-3.005200	2.722400	-8.179900	29.437076	0.000204	20.697514
2388.620622	-3.027400	2.718800	-8.229500	29.442891	0.000205	20.690098
2389.618059	-2.989000	2.716200	-8.117300	29.458715	0.000203	20.688978
2390.621048	-3.003500	2.713800	-8.150400	29.511675	0.000205	20.712491
2391.622049	-2.977900	2.709900	-8.069000	29.522535	0.000203	20.690720
2392.626282	-3.009100	2.705100	-8.139000	29.562816	0.000203	20.705248
2393.619963	-2.998900	2.703300	-8.105900	29.601441	0.000202	20.701037
2394.618218	-3.017900	2.699100	-8.144000	29.607110	0.000205	20.692052
2395.625593	-3.012100	2.695400	-8.117600	29.555995	0.000203	20.691258
2396.619555	-2.975100	2.693000	-8.010200	29.565524	0.000205	20.695175
2397.622981	-2.997400	2.687800	-8.055600	29.546361	0.000203	20.677752
2398.617885	-2.991800	2.683400	-8.027000	29.502996	0.000204	20.684775
2399.620118	-2.983100	2.681000	-7.996000	29.523376	0.000204	20.672126
2400.619281	-2.978700	2.676300	-7.970900	29.546831	0.000203	20.684865
2401.619882	-2.999100	2.671800	-8.012000	29.549264	0.000207	20.702018
2402.621346	-2.999700	2.668000	-8.002200	29.556368	0.000203	20.693531
2403.619034	-3.003600	2.664600	-8.002700	29.561793	0.000203	20.694733
2404.622243	-2.975000	2.660400	-7.913300	29.603330	0.000202	20.693458
2405.619378	-3.042300	2.655500	-8.077400	29.627795	0.000203	20.684455
2406.622171	-3.016300	2.651000	-7.995500	29.653095	0.000201	20.696212
2407.621572	-2.987100	2.648100	-7.908700	29.672922	0.000203	20.686802
2408.624386	-2.987700	2.643000	-7.895200	29.713229	0.000203	20.671013
2409.619853	-3.033300	2.639400	-8.004300	29.730030	0.000204	20.685583
2410.626493	-3.028500	2.633000	-7.972900	29.687039	0.000204	20.665470
2411.623813	-2.974200	2.630400	-7.822400	29.703799	0.000203	20.689483
2412.624075	-2.989200	2.624600	-7.844600	29.641345	0.000203	20.671561
2413.633791	-3.018400	2.619900	-7.906300	29.600418	0.000203	20.690048
2414.620487	-2.995700	2.615000	-7.831800	29.516457	0.000204	20.686016
2415.623130	-3.011400	2.610000	-7.859100	29.518680	0.000203	20.689679
2416.646863	-2.987600	2.603800	-7.777300	29.521973	0.000203	20.681144
2417.623994	-3.054500	2.598100	-7.933800	29.546829	0.000203	20.681544
2418.628648	-2.975200	2.595400	-7.720300	29.576981	0.000203	20.692974
2419.627534	-3.020400	2.589700	-7.821400	29.633666	0.000203	20.695591
2420.620485	-3.019200	2.584200	-7.801400	29.608365	0.000205	20.680989
2421.622161	-2.980200	2.580000	-7.688200	29.599015	0.000206	20.703333
2422.623445	-3.001600	2.573400	-7.723400	29.627495	0.000204	20.685576
2423.626258	-3.023300	2.568400	-7.762300	29.560981	0.000204	20.677792
2424.625536	-2.993100	2.562700	-7.669400	29.558362	0.000203	20.684161
2425.621363	-2.990400	2.555000	-7.639500	29.588172	0.000204	20.672959
2426.625640	-3.000100	2.549700	-7.648300	29.625970	0.000204	20.678347
2427.623139	-2.937600	2.544900	-7.474400	29.681622	0.000204	20.668544
2428.628628	-2.992600	2.539300	-7.598100	29.710254	0.000204	20.683188
2429.621134	-3.025200	2.530700	-7.655100	29.728069	0.000204	20.669379
2430.624279	-2.980900	2.526100	-7.528900	29.757923	0.000205	20.683834
2431.626460	-3.001200	2.519100	-7.559400	29.822049	0.000204	20.691593
2432.626159	-2.988600	2.512800	-7.508400	29.912364	0.000204	20.680244
2433.624134	-3.011100	2.506800	-7.547400	29.927557	0.000205	20.676598
2434.627571	-2.991300	2.500100	-7.477600	29.989662	0.000204	20.689443
2435.630549	-3.025300	2.493100	-7.541300	29.957374	0.000206	20.675846
