LabVIEW Measurement	
Writer_Version	2
Reader_Version	2
Separator	Tab
Decimal_Separator	.
Multi_Headings	No
X_Columns	One
Time_Pref	Absolute
Operator	admin
Description	Clolumns are: time, Current, Voltage, Power, Battery Temp, and Chamber Temp
Date	2024/08/16
Time	13:06:06.104549407958984375
***End_of_Header***	
	
Channels	6						
Samples	1	1	1	1	1	1	
Date	2024/09/19	2024/09/19	2024/09/19	2024/09/19	2024/09/19	2024/09/19	
Time	19:51:07.5327425003051757813	19:51:07.5404577255249023438	19:51:07.5454525947570800781	19:51:07.5060095787048339844	19:51:07.5060095787048339844	19:51:07.5060095787048339844	
X_Dimension	Time	Time	Time	Time	Time	Time	
X0	0.0000000000000000E+0	0.0000000000000000E+0	0.0000000000000000E+0	0.0000000000000000E+0	0.0000000000000000E+0	0.0000000000000000E+0	
Delta_X	1.000000	1.000000	1.000000	1.000000	1.000000	1.000000	
***End_of_Header***							
X_Value	Untitled	Untitled 1	Untitled 2	Untitled 3	Untitled 4	Untitled 5	Comment
0.000000	0.032408	4.091200	0.132560	21.028034	0.001034	20.887704
0.993118	-2.997200	3.903200	-11.698000	21.023468	0.001033	20.894516
1.990376	-3.010100	3.896200	-11.726000	21.009946	0.001032	20.901380
2.989314	-2.984600	3.893400	-11.618000	21.033623	0.001030	20.882863
3.989960	-3.014000	3.887200	-11.716000	21.027711	0.001030	20.871735
4.989547	-3.036200	3.883900	-11.791000	21.048918	0.001030	20.892945
5.989138	-3.011400	3.880400	-11.684000	21.025739	0.001027	20.901054
6.991212	-3.000900	3.878800	-11.639000	21.050714	0.001029	20.898534
7.991942	-3.005700	3.874700	-11.646000	21.018977	0.001027	20.867267
8.992010	-2.989900	3.873600	-11.581000	21.031428	0.001025	20.894891
9.991964	-3.006800	3.872000	-11.642000	21.057026	0.001025	20.876874
10.993593	-2.986300	3.871200	-11.559000	21.056602	0.001026	20.884510
11.992534	-2.993200	3.867000	-11.574000	21.063363	0.001025	20.891746
12.992770	-3.008600	3.864700	-11.626000	21.052410	0.001024	20.908291
13.994810	-2.995700	3.864600	-11.576000	21.064061	0.001023	20.883910
14.991364	-2.999400	3.863700	-11.588000	21.086366	0.001023	20.900530
15.994670	-2.997300	3.862600	-11.576000	21.074690	0.001022	20.922513
16.996334	-2.999900	3.861200	-11.581000	21.084045	0.001020	20.877821
17.994180	-3.005000	3.859000	-11.596000	21.094599	0.001023	20.904497
18.994442	-2.980900	3.859500	-11.504000	21.094898	0.001020	20.905744
19.995368	-3.003400	3.857500	-11.584000	21.112163	0.001021	20.902151
20.997590	-3.010900	3.857300	-11.614000	21.111165	0.001019	20.886929
22.000636	-2.996100	3.856200	-11.552000	21.135215	0.001018	20.912881
23.003475	-3.004100	3.855100	-11.580000	21.123439	0.001017	20.925281
23.998466	-2.998500	3.854600	-11.557000	21.136561	0.001018	20.908063
25.000587	-2.995200	3.854400	-11.544000	21.135014	0.001019	20.907939
26.001013	-3.004700	3.852000	-11.573000	21.151082	0.001018	20.915949
26.998368	-2.985700	3.852300	-11.501000	21.147738	0.001018	20.919243
27.999324	-2.988900	3.851300	-11.510000	21.157667	0.001017	20.903097
29.002913	-3.001900	3.851100	-11.560000	21.174556	0.001018	20.908138
29.997774	-3.011500	3.849900	-11.593000	21.160361	0.001016	20.930920
30.997636	-2.991900	3.849400	-11.515000	21.205465	0.001015	20.914875
32.003546	-3.001000	3.848500	-11.548000	21.190920	0.001015	20.910757
33.002064	-3.006700	3.849400	-11.572000	21.197307	0.001015	20.914775
33.999429	-3.015500	3.846600	-11.598000	21.203868	0.001017	20.913278
34.999549	-2.985700	3.849000	-11.491000	21.229463	0.001016	20.930819
36.001576	-2.993200	3.848800	-11.519000	21.223800	0.001016	20.919465
37.002426	-2.997400	3.845900	-11.527000	21.219708	0.001014	20.917269
38.002492	-2.986700	3.846500	-11.488000	21.262241	0.001015	20.910981
39.001873	-3.002100	3.844900	-11.542000	21.264361	0.001016	20.930644
40.007726	-2.990700	3.843300	-11.492000	21.255829	0.001015	20.935858
41.005508	-3.023600	3.844000	-11.620000	21.285563	0.001015	20.929569
42.002982	-3.013300	3.843600	-11.581000	21.283992	0.001014	20.934635
43.003124	-3.003400	3.842200	-11.539000	21.277357	0.001015	20.938902
44.006970	-3.007700	3.842800	-11.556000	21.314025	0.001016	20.937179
45.003256	-3.000700	3.843000	-11.531000	21.304396	0.001014	20.928496
46.001694	-2.980900	3.844000	-11.457000	21.309933	0.001014	20.950154
47.005294	-3.037000	3.839800	-11.660000	21.307214	0.001015	20.927048
48.002192	-3.004900	3.840600	-11.539000	21.320709	0.001015	20.916843
49.004906	-2.996500	3.839800	-11.505000	21.337970	0.001015	20.917041
50.004955	-2.997300	3.838600	-11.505000	21.344480	0.001013	20.926399
51.001485	-3.009100	3.839100	-11.551000	21.349569	0.001015	20.937178
52.003082	-3.001100	3.838600	-11.518000	21.356928	0.001015	20.963029
53.002366	-2.995400	3.838200	-11.496000	21.337570	0.001012	20.944613
54.001372	-2.994500	3.837800	-11.492000	21.375783	0.001014	20.958187
55.004303	-3.012100	3.837700	-11.558000	21.388005	0.001015	20.928694
56.002295	-3.015500	3.837400	-11.570000	21.406886	0.001015	20.958012
57.002520	-2.991500	3.837800	-11.477000	21.403294	0.001013	20.945885
58.003106	-3.012200	3.836600	-11.555000	21.418335	0.001014	20.933435
59.004030	-2.994600	3.835600	-11.485000	21.404841	0.001014	20.946010
60.005716	-3.002800	3.835600	-11.516000	21.420305	0.001015	20.931138
61.005260	-3.011100	3.835600	-11.547000	21.426141	0.001016	20.938399
62.002216	-3.009300	3.834800	-11.539000	21.450959	0.001014	20.943315
63.009317	-3.002900	3.835100	-11.515000	21.450907	0.001015	20.938523
64.003970	-2.982900	3.835800	-11.441000	21.441903	0.001013	20.932833
65.007447	-2.976300	3.834800	-11.412000	21.444323	0.001015	20.944262
66.007406	-2.995300	3.834200	-11.483000	21.469539	0.001014	20.920183
67.005808	-3.007400	3.832800	-11.525000	21.460061	0.001014	20.939147
68.005474	-3.004700	3.833000	-11.515000	21.441380	0.001016	20.928043
69.007435	-2.987400	3.832900	-11.449000	21.478617	0.001015	20.936377
70.007391	-2.997000	3.832400	-11.485000	21.473777	0.001015	20.925846
71.004117	-3.003000	3.830900	-11.503000	21.485201	0.001016	20.914992
72.009414	-2.981100	3.833200	-11.426000	21.491960	0.001016	20.911798
73.007205	-2.994600	3.831200	-11.471000	21.497921	0.001015	20.920608
74.007040	-3.012000	3.830300	-11.536000	21.482059	0.001016	20.926072
75.006482	-2.996100	3.831300	-11.477000	21.493033	0.001015	20.924250
76.008291	-3.001000	3.829300	-11.489000	21.524407	0.001015	20.943788
77.008191	-2.991800	3.830100	-11.458000	21.525354	0.001016	20.930038
78.010736	-2.993600	3.829600	-11.464000	21.530841	0.001018	20.938373
79.007638	-2.993600	3.829200	-11.462000	21.542413	0.001016	20.921031
80.007750	-2.991800	3.830100	-11.457000	21.553935	0.001017	20.912647
81.009611	-2.998000	3.827300	-11.472000	21.555581	0.001015	20.916664
82.007910	-2.992200	3.828800	-11.456000	21.564585	0.001019	20.947955
83.009493	-3.002400	3.828700	-11.495000	21.571991	0.001016	20.923601
84.010174	-2.996200	3.828300	-11.469000	21.561840	0.001015	20.940943
85.020378	-3.008600	3.827700	-11.513000	21.577053	0.001015	20.930088
86.006800	-3.001400	3.829000	-11.490000	21.561815	0.001018	20.914368
87.013575	-2.997900	3.827700	-11.473000	21.597103	0.001018	20.909851
88.008460	-3.010100	3.828700	-11.523000	21.589198	0.001018	20.927069
89.008943	-2.999500	3.827100	-11.478000	21.596580	0.001018	20.915491
90.014376	-3.004100	3.826700	-11.495000	21.622066	0.001016	20.918709
91.017342	-2.975400	3.826600	-11.384000	21.621467	0.001019	20.905784
92.011099	-3.003500	3.825700	-11.488000	21.633313	0.001018	20.918110
93.006844	-3.018600	3.824300	-11.542000	21.647776	0.001019	20.913144
94.008854	-3.004800	3.825800	-11.495000	21.662040	0.001017	20.916513
95.008486	-2.988400	3.825700	-11.431000	21.660194	0.001021	20.901391
96.009416	-2.971900	3.825600	-11.368000	21.673809	0.001019	20.933030
97.011430	-2.986100	3.824600	-11.418000	21.676627	0.001019	20.910249
98.016710	-2.988800	3.824800	-11.431000	21.664833	0.001019	20.921204
99.008582	-2.994300	3.823600	-11.448000	21.657825	0.001019	20.908028
100.009195	-2.995000	3.822300	-11.447000	21.700292	0.001019	20.903113
101.012159	-2.999100	3.823900	-11.467000	21.724057	0.001020	20.900818
102.009984	-3.004000	3.822100	-11.481000	21.720415	0.001018	20.913768
103.012790	-3.002900	3.822800	-11.478000	21.709294	0.001022	20.906432
104.012815	-2.984000	3.821800	-11.403000	21.711388	0.001021	20.890986
105.014058	-2.988700	3.822300	-11.423000	21.741385	0.001021	20.907729
106.011311	-2.993000	3.822200	-11.439000	21.714830	0.001022	20.883525
107.011854	-3.015000	3.820700	-11.518000	21.740563	0.001022	20.913070
108.012807	-2.996100	3.820800	-11.447000	21.743707	0.001023	20.915741
109.013152	-2.985300	3.821500	-11.406000	21.758617	0.001022	20.891311
110.012142	-2.980300	3.821500	-11.386000	21.767967	0.001022	20.908729
111.013606	-3.012900	3.819400	-11.505000	21.790258	0.001022	20.923925
112.014766	-2.998000	3.820600	-11.453000	21.787565	0.001024	20.887568
113.013380	-3.004000	3.819100	-11.472000	21.801429	0.001024	20.897176
114.016982	-3.016000	3.819700	-11.519000	21.800457	0.001024	20.901418
115.012915	-3.000200	3.818700	-11.456000	21.798163	0.001022	20.910975
116.014346	-2.994800	3.819000	-11.435000	21.797066	0.001024	20.898973
117.016916	-3.009900	3.818100	-11.490000	21.813447	0.001025	20.893558
118.019922	-2.999400	3.819200	-11.455000	21.839528	0.001024	20.894058
119.018123	-2.999900	3.818900	-11.455000	21.849477	0.001023	20.888843
120.020300	-2.992900	3.818200	-11.426000	21.852219	0.001023	20.891113
121.018089	-2.983400	3.818300	-11.390000	21.878773	0.001024	20.888294
122.018565	-3.013900	3.816000	-11.500000	21.885579	0.001024	20.887046
123.023955	-2.982600	3.817800	-11.386000	21.888247	0.001025	20.893035
124.020150	-3.002600	3.816400	-11.458000	21.912157	0.001026	20.884727
125.018934	-2.981100	3.818000	-11.381000	21.905650	0.001026	20.899075
126.017342	-2.991700	3.816100	-11.416000	21.923874	0.001024	20.877964
127.023502	-2.996000	3.816400	-11.433000	21.920360	0.001026	20.903842
128.020446	-2.993700	3.817400	-11.427000	21.918315	0.001025	20.869555
129.018391	-2.995600	3.815400	-11.428000	21.915874	0.001025	20.887972
130.021144	-3.003700	3.815800	-11.461000	21.919763	0.001026	20.873374
131.016291	-2.985700	3.814700	-11.388000	21.946315	0.001026	20.896632
132.018661	-3.007000	3.814200	-11.467000	21.929511	0.001027	20.872701
133.020675	-2.995400	3.814500	-11.426000	21.958232	0.001029	20.871105
134.022070	-2.998500	3.814000	-11.436000	21.946939	0.001029	20.899627
135.017377	-2.975800	3.816800	-11.356000	21.947538	0.001026	20.877469
136.021302	-3.017500	3.814800	-11.510000	21.960827	0.001027	20.903571
137.021008	-2.991400	3.815100	-11.412000	21.964692	0.001030	20.888001
138.018203	-3.005600	3.813200	-11.459000	21.966437	0.001029	20.902549
139.024048	-2.971000	3.814500	-11.332000	21.969429	0.001031	20.879468
140.024993	-3.010000	3.813000	-11.475000	21.988128	0.001029	20.895813
141.022477	-2.988600	3.813700	-11.396000	21.999845	0.001030	20.874828
142.023924	-3.011800	3.812100	-11.480000	22.027044	0.001031	20.874080
143.023371	-2.989800	3.812900	-11.398000	22.042076	0.001031	20.863051
144.023146	-3.008500	3.812300	-11.469000	22.049730	0.001033	20.857438
145.025764	-2.987200	3.811500	-11.385000	22.052398	0.001034	20.860108
146.024317	-3.002600	3.811000	-11.442000	22.060525	0.001034	20.861606
147.021611	-3.002800	3.811600	-11.444000	22.054442	0.001036	20.862629
148.022907	-2.989500	3.810700	-11.391000	22.052249	0.001033	20.858537
149.026659	-2.987200	3.813500	-11.390000	22.050380	0.001036	20.883217
150.023582	-2.990800	3.812000	-11.399000	22.067581	0.001036	20.866299
151.028069	-3.003700	3.810600	-11.444000	22.079049	0.001035	20.865925
152.025770	-2.988300	3.811800	-11.391000	22.079099	0.001038	20.858389
153.022083	-3.007600	3.808600	-11.454000	22.105598	0.001038	20.868797
154.024595	-2.993600	3.809800	-11.404000	22.090517	0.001036	20.865552
155.024320	-3.001300	3.810700	-11.436000	22.079174	0.001037	20.867947
156.022469	-2.993000	3.809600	-11.400000	22.112453	0.001038	20.881823
157.031212	-3.008800	3.808600	-11.458000	22.126662	0.001039	20.867125
158.026885	-2.996500	3.807800	-11.409000	22.127135	0.001040	20.863806
159.024447	-3.023400	3.806100	-11.506000	22.151115	0.001040	20.860313
160.028323	-2.983500	3.808600	-11.362000	22.165622	0.001040	20.847337
161.029145	-3.003400	3.808000	-11.435000	22.163653	0.001041	20.860064
162.023721	-3.002000	3.808200	-11.431000	22.181924	0.001041	20.880726
163.029994	-2.982500	3.807300	-11.355000	22.190698	0.001042	20.855847
164.030275	-3.006900	3.806700	-11.445000	22.211809	0.001043	20.848061
165.027252	-3.017400	3.807400	-11.487000	22.233020	0.001044	20.849858
166.033703	-2.978300	3.808300	-11.341000	22.212307	0.001047	20.855672
167.031513	-2.987900	3.807000	-11.374000	22.231624	0.001045	20.859840
168.029551	-2.984200	3.806700	-11.359000	22.219436	0.001044	20.844793
169.032315	-2.983500	3.805700	-11.353000	22.224744	0.001047	20.871443
170.032043	-2.992200	3.807400	-11.391000	22.246254	0.001046	20.866902
171.031281	-2.999900	3.807900	-11.421000	22.264748	0.001048	20.847961
172.034389	-2.999600	3.806100	-11.415000	22.257844	0.001046	20.854799
173.031645	-3.020700	3.805000	-11.492000	22.273422	0.001046	20.850008
174.033406	-3.004100	3.804900	-11.428000	22.251887	0.001046	20.850257
175.036112	-3.001600	3.804900	-11.419000	22.261333	0.001047	20.852602
176.035410	-2.991400	3.805000	-11.381000	22.264224	0.001049	20.860712
177.038593	-2.992900	3.804300	-11.386000	22.236159	0.001049	20.857269
178.039558	-2.998400	3.803300	-11.403000	22.249344	0.001047	20.845341
179.036337	-2.983100	3.804600	-11.349000	22.267762	0.001050	20.843868
180.041063	-2.999900	3.802900	-11.407000	22.288598	0.001049	20.851454
181.043204	-2.987800	3.803700	-11.363000	22.304200	0.001051	20.861386
182.037587	-3.023600	3.802700	-11.496000	22.297745	0.001049	20.848759
183.040523	-2.992800	3.803700	-11.383000	22.330194	0.001051	20.849483
184.039881	-3.024100	3.800500	-11.493000	22.347140	0.001052	20.841796
185.040209	-3.006000	3.801900	-11.428000	22.365557	0.001051	20.832264
186.039214	-3.005800	3.802600	-11.429000	22.353172	0.001052	20.829345
187.040511	-3.010100	3.800200	-11.438000	22.354443	0.001052	20.850056
188.038282	-3.004900	3.801900	-11.422000	22.383126	0.001053	20.851752
189.042499	-2.993600	3.801100	-11.378000	22.397332	0.001053	20.851753
190.042538	-2.999500	3.801700	-11.402000	22.400596	0.001056	20.840324
191.043773	-2.997900	3.802300	-11.398000	22.393943	0.001055	20.840299
192.048744	-2.983700	3.801300	-11.340000	22.394117	0.001057	20.839525
193.044363	-2.985500	3.800700	-11.346000	22.380360	0.001055	20.849457
194.047550	-2.993100	3.799900	-11.372000	22.419112	0.001058	20.838477
195.044785	-2.992100	3.799900	-11.369000	22.441764	0.001060	20.847410
196.046090	-3.007500	3.801100	-11.430000	22.451333	0.001057	20.825226
197.044213	-2.987300	3.800900	-11.353000	22.443483	0.001057	20.842020
198.049171	-3.012000	3.798900	-11.441000	22.464490	0.001056	20.841246
199.046615	-2.975400	3.800100	-11.306000	22.453776	0.001059	20.846638
200.047797	-2.999300	3.799700	-11.395000	22.478696	0.001059	20.853101
201.045597	-3.012000	3.798200	-11.439000	22.482558	0.001061	20.825676
202.046867	-3.003700	3.796900	-11.403000	22.490980	0.001060	20.809455
203.047849	-2.993400	3.797800	-11.367000	22.500649	0.001060	20.830043
204.050189	-3.009800	3.797100	-11.426000	22.513830	0.001060	20.830443
205.050449	-3.001300	3.797100	-11.395000	22.511463	0.001062	20.835184
206.048117	-2.995700	3.798400	-11.378000	22.518415	0.001059	20.837404
207.049366	-2.990600	3.796500	-11.353000	22.525044	0.001060	20.832190
208.053456	-2.997400	3.797500	-11.381000	22.516322	0.001063	20.844317
209.051546	-3.003100	3.795700	-11.398000	22.540867	0.001063	20.835235
210.049651	-2.985200	3.797400	-11.333000	22.536656	0.001064	20.822008
211.054170	-3.023600	3.794600	-11.471000	22.556714	0.001065	20.826450
212.049854	-2.995800	3.794900	-11.366000	22.543110	0.001065	20.823731
213.049487	-3.006100	3.795000	-11.407000	22.555967	0.001066	20.852254
214.048297	-2.997100	3.794400	-11.371000	22.571789	0.001066	20.828746
215.050929	-3.022500	3.794500	-11.467000	22.588383	0.001067	20.847736
216.049579	-3.007600	3.795900	-11.416000	22.599098	0.001066	20.824803
217.049308	-3.015300	3.794000	-11.439000	22.597031	0.001066	20.821311
218.050461	-3.021000	3.793500	-11.459000	22.618233	0.001066	20.835435
219.049523	-3.004500	3.794300	-11.398000	22.608441	0.001068	20.835584
220.053142	-3.031300	3.794600	-11.501000	22.618308	0.001068	20.829820
221.055237	-3.017700	3.793700	-11.448000	22.623142	0.001067	20.827075
222.050587	-3.006300	3.792600	-11.401000	22.643971	0.001068	20.829919
223.054894	-3.014800	3.792500	-11.431000	22.638216	0.001070	20.827948
224.052727	-2.990500	3.793700	-11.344000	22.640409	0.001070	20.828249
225.054475	-2.981400	3.792000	-11.304000	22.629146	0.001070	20.818391
226.054296	-3.015100	3.791600	-11.432000	22.653289	0.001069	20.834985
227.055870	-2.994800	3.793000	-11.357000	22.598226	0.001071	20.844319
228.054938	-3.022800	3.792100	-11.462000	22.619455	0.001072	20.826227
229.060838	-2.995500	3.793000	-11.361000	22.606848	0.001072	20.818816
230.059502	-2.994600	3.792600	-11.356000	22.628448	0.001071	20.814372
231.058256	-3.000800	3.791000	-11.375000	22.629894	0.001072	20.804441
232.057999	-2.995200	3.791500	-11.355000	22.662409	0.001071	20.842697
233.057990	-2.993700	3.790200	-11.346000	22.670282	0.001075	20.818816
234.057752	-2.985200	3.790200	-11.313000	22.664353	0.001072	20.825205
235.057594	-3.010500	3.789900	-11.409000	22.679775	0.001076	20.828798
236.064256	-2.998800	3.790300	-11.365000	22.703469	0.001076	20.834039
237.055831	-3.004600	3.789000	-11.382000	22.694375	0.001077	20.813551
238.058355	-3.007800	3.788000	-11.392000	22.699483	0.001075	20.816770
239.063538	-3.011000	3.789600	-11.409000	22.695422	0.001079	20.801324
240.059241	-3.002200	3.788300	-11.373000	22.686005	0.001078	20.828400
241.061688	-2.994300	3.789100	-11.345000	22.685456	0.001080	20.821686
242.066576	-3.020300	3.786700	-11.434000	22.700455	0.001079	20.806365
243.065105	-2.984800	3.788300	-11.306000	22.704839	0.001080	20.815023
244.062093	-2.999600	3.787000	-11.358000	22.682366	0.001080	20.816221
245.068646	-3.020000	3.786700	-11.435000	22.720534	0.001078	20.813676
246.064586	-3.006400	3.786500	-11.383000	22.712661	0.001082	20.812902
247.064043	-2.994300	3.787200	-11.337000	22.731122	0.001080	20.800574
248.063700	-3.008900	3.786600	-11.393000	22.728980	0.001084	20.820713
249.065264	-2.998000	3.787400	-11.353000	22.722577	0.001084	20.808609
250.064241	-3.002300	3.786400	-11.367000	22.715651	0.001085	20.806413
251.071129	-2.994300	3.786000	-11.336000	22.722452	0.001083	20.794734
252.066372	-3.008400	3.785300	-11.385000	22.729628	0.001085	20.818043
253.064133	-3.020700	3.785000	-11.431000	22.719089	0.001084	20.815072
254.068112	-3.010400	3.786800	-11.399000	22.756881	0.001085	20.822109
255.065207	-3.027800	3.782800	-11.453000	22.747464	0.001086	20.786597
256.063672	-3.015800	3.783800	-11.409000	22.770034	0.001087	20.804939
257.068875	-3.002800	3.783900	-11.362000	22.790637	0.001088	20.808982
258.065207	-3.018800	3.783700	-11.421000	22.795419	0.001086	20.823730
259.068265	-2.983500	3.783600	-11.286000	22.824168	0.001089	20.809382
260.070739	-3.002000	3.784000	-11.358000	22.822897	0.001090	20.795781
261.066527	-2.994900	3.783200	-11.330000	22.820281	0.001089	20.803591
262.066023	-2.999400	3.782700	-11.345000	22.825213	0.001091	20.799048
263.071415	-2.985600	3.783100	-11.294000	22.817790	0.001091	20.779284
264.064755	-2.987500	3.783200	-11.302000	22.818711	0.001091	20.786372
265.066635	-3.007200	3.782300	-11.372000	22.838839	0.001091	20.811277
266.070785	-2.984900	3.783600	-11.293000	22.840383	0.001092	20.797176
267.067700	-3.016400	3.781400	-11.405000	22.859465	0.001092	20.795904
268.065664	-3.002900	3.781700	-11.355000	22.857620	0.001094	20.807807
269.067881	-3.017900	3.780600	-11.408000	22.851518	0.001094	20.788891
270.066930	-3.019600	3.780700	-11.414000	22.858941	0.001094	20.789215
271.068559	-3.006900	3.780100	-11.365000	22.887612	0.001095	20.807981
272.079082	-2.999900	3.780400	-11.340000	22.886018	0.001095	20.795004
273.066079	-2.998200	3.779800	-11.332000	22.908885	0.001096	20.786145
274.069533	-2.992600	3.780700	-11.313000	22.934142	0.001095	20.793906
275.068353	-3.011300	3.778600	-11.377000	22.935237	0.001097	20.800219
276.069394	-3.012900	3.779200	-11.386000	22.932273	0.001097	20.789663
277.069377	-3.005100	3.777800	-11.351000	22.931850	0.001095	20.785919
278.069803	-3.007200	3.778500	-11.362000	22.928537	0.001097	20.804885
279.069551	-3.016000	3.777300	-11.391000	22.930106	0.001097	20.787491
280.070999	-3.015000	3.777200	-11.387000	22.937130	0.001100	20.782201
281.074069	-3.000700	3.775600	-11.328000	22.948538	0.001097	20.808329
282.068933	-2.989900	3.777200	-11.292000	22.939371	0.001098	20.795352
283.070745	-2.981400	3.777600	-11.261000	22.949185	0.001101	20.794279
284.072143	-2.981900	3.776700	-11.261000	22.940068	0.001099	20.806007
285.069596	-3.004500	3.776500	-11.344000	22.920639	0.001100	20.793180
286.072635	-3.013200	3.774900	-11.373000	22.904722	0.001100	20.797148
287.071758	-2.981800	3.775500	-11.256000	22.929955	0.001101	20.794452
288.071870	-2.980300	3.776600	-11.253000	22.930727	0.001101	20.788114
289.071905	-3.020900	3.775300	-11.404000	22.960816	0.001102	20.814940
290.073977	-3.000400	3.774900	-11.325000	22.958923	0.001103	20.783172
291.075823	-2.998000	3.774800	-11.315000	22.978476	0.001104	20.786167
292.076159	-3.024500	3.774000	-11.413000	22.988937	0.001105	20.789536
293.076770	-2.980200	3.774900	-11.248000	23.001191	0.001105	20.795175
294.072062	-3.014400	3.772600	-11.371000	22.977404	0.001104	20.797895
295.073139	-3.014800	3.772600	-11.372000	22.982211	0.001105	20.791806
296.075506	-3.005400	3.772200	-11.336000	22.998824	0.001105	20.791856
297.073987	-3.016900	3.771400	-11.377000	22.981065	0.001107	20.776907
298.071229	-3.028500	3.771700	-11.421000	22.991601	0.001108	20.796946
299.076688	-3.004300	3.771600	-11.330000	22.970106	0.001109	20.785367
300.074076	-2.992300	3.772000	-11.286000	23.006894	0.001106	20.790932
301.073971	-3.009500	3.770800	-11.346000	23.006321	0.001107	20.791780
302.075262	-2.999500	3.772200	-11.313000	23.042585	0.001108	20.781174
303.074402	-2.990300	3.771400	-11.276000	23.036856	0.001107	20.793926
304.074855	-2.973300	3.772500	-11.216000	23.077353	0.001110	20.795623
305.079583	-2.981500	3.772000	-11.245000	23.103777	0.001109	20.784167
306.073239	-2.973500	3.770500	-11.210000	23.127511	0.001111	20.782820
307.073853	-2.987900	3.770800	-11.266000	23.141806	0.001110	20.788136
308.080438	-3.004400	3.770500	-11.327000	23.164170	0.001112	20.800588
309.074432	-2.989500	3.770000	-11.269000	23.161481	0.001112	20.789833
310.076868	-3.004600	3.768900	-11.322000	23.169598	0.001110	20.797019
311.080414	-3.013300	3.769400	-11.357000	23.170520	0.001112	20.783244
312.076952	-2.996500	3.769500	-11.294000	23.168253	0.001113	20.780024
313.077713	-2.994400	3.769000	-11.285000	23.171665	0.001113	20.811892
314.082070	-3.021100	3.768400	-11.383000	23.201599	0.001113	20.817707
315.080954	-3.032400	3.767000	-11.421000	23.209469	0.001113	20.803783
316.075702	-3.003800	3.767000	-11.313000	23.235914	0.001112	20.789508
317.082987	-2.986500	3.768600	-11.254000	23.245327	0.001113	20.787561
318.080192	-2.990000	3.766800	-11.262000	23.259297	0.001114	20.781173
319.080640	-3.002400	3.766000	-11.307000	23.263730	0.001115	20.794624
320.085404	-2.974400	3.768300	-11.208000	23.286140	0.001115	20.793376
321.082444	-2.988300	3.766900	-11.257000	23.300059	0.001116	20.801161
322.082152	-3.008900	3.765900	-11.329000	23.292988	0.001118	20.807824
323.085572	-3.014800	3.765300	-11.351000	23.290821	0.001116	20.808024
324.085060	-3.004800	3.765800	-11.314000	23.315647	0.001117	20.789283
325.081885	-2.995900	3.765900	-11.281000	23.284148	0.001117	20.786638
326.086397	-2.991400	3.765000	-11.261000	23.285542	0.001118	20.806526
327.086676	-3.002900	3.765700	-11.308000	23.287808	0.001117	20.797418
328.085465	-2.994400	3.764600	-11.272000	23.282480	0.001117	20.802983
329.091316	-2.973100	3.764100	-11.190000	23.282330	0.001118	20.801885
330.087402	-2.998100	3.763000	-11.281000	23.277873	0.001121	20.804056
331.084122	-2.998400	3.763100	-11.282000	23.281956	0.001119	20.802458
332.089423	-2.998100	3.763600	-11.282000	23.309870	0.001118	20.811941
333.086067	-2.967500	3.764800	-11.172000	23.331235	0.001120	20.786413
334.084802	-2.963900	3.764000	-11.154000	23.375356	0.001120	20.804555
335.089551	-2.983200	3.762700	-11.223000	23.379414	0.001122	20.807200
336.084627	-2.988200	3.762200	-11.242000	23.380883	0.001124	20.827638
337.085579	-2.989000	3.762500	-11.244000	23.388079	0.001123	20.804505
338.091574	-3.018100	3.760900	-11.349000	23.383273	0.001120	20.790204
339.088730	-3.011900	3.759200	-11.322000	23.396992	0.001121	20.800162
340.087675	-2.995200	3.761000	-11.265000	23.382227	0.001123	20.794846
341.092885	-2.973000	3.760500	-11.178000	23.380708	0.001125	20.806126
342.083512	-2.993800	3.760200	-11.256000	23.408917	0.001122	20.823968
343.087253	-2.998800	3.759900	-11.274000	23.409539	0.001126	20.804203
344.092078	-3.000000	3.759600	-11.277000	23.421490	0.001126	20.801009
345.087176	-2.988300	3.760900	-11.238000	23.423432	0.001124	20.823344
346.088224	-3.004000	3.759000	-11.291000	23.397612	0.001126	20.810267
347.092068	-3.013800	3.758000	-11.324000	23.389395	0.001127	20.800609
348.091241	-3.016600	3.757600	-11.335000	23.393380	0.001126	20.803180
349.087587	-2.994000	3.757700	-11.250000	23.422809	0.001127	20.787632
350.087795	-3.000600	3.757600	-11.274000	23.430452	0.001126	20.815207
351.089983	-3.003900	3.758100	-11.288000	23.444493	0.001128	20.799410
352.089386	-3.002400	3.756800	-11.277000	23.424675	0.001127	20.806572
353.091159	-2.983700	3.757500	-11.210000	23.428334	0.001129	20.816878
354.089378	-2.988400	3.757100	-11.227000	23.413221	0.001129	20.820222
355.087424	-2.979700	3.756700	-11.193000	23.385136	0.001128	20.799185
356.091931	-3.005600	3.754200	-11.282000	23.373930	0.001129	20.824463
357.092486	-2.986700	3.755500	-11.216000	23.380578	0.001129	20.798884
358.091201	-3.002500	3.754600	-11.272000	23.379781	0.001132	20.811361
359.098558	-2.995100	3.755500	-11.247000	23.388072	0.001130	20.824886
360.090022	-2.980900	3.753900	-11.189000	23.423801	0.001128	20.822765
361.091566	-3.001400	3.754200	-11.266000	23.410904	0.001130	20.822640
362.093440	-3.015500	3.753800	-11.318000	23.441228	0.001130	20.818422
363.094642	-2.990700	3.753000	-11.224000	23.430124	0.001130	20.813930
364.092357	-3.000500	3.754700	-11.264000	23.446605	0.001131	20.809113
365.092291	-3.018500	3.752200	-11.324000	23.468664	0.001132	20.804671
366.094365	-3.005400	3.751500	-11.274000	23.483727	0.001131	20.801751
367.094380	-2.991300	3.752500	-11.224000	23.499984	0.001133	20.803348
368.092119	-3.006900	3.751400	-11.279000	23.502771	0.001132	20.815625
369.093835	-2.977200	3.752600	-11.171000	23.512058	0.001130	20.834417
370.092776	-3.006000	3.751600	-11.276000	23.512929	0.001132	20.823436
371.094316	-3.009200	3.750300	-11.284000	23.529809	0.001133	20.829451
372.099211	-3.001200	3.749800	-11.253000	23.532198	0.001134	20.819992
373.092363	-3.018000	3.750300	-11.318000	23.554255	0.001134	20.829301
374.094617	-2.982200	3.751400	-11.186000	23.544869	0.001136	20.822737
375.095180	-3.007900	3.748800	-11.276000	23.549101	0.001135	20.821764
376.092569	-2.994400	3.749500	-11.226000	23.528638	0.001136	20.802673
377.096325	-2.999600	3.748100	-11.241000	23.518480	0.001137	20.812405
378.095469	-3.012900	3.748400	-11.293000	23.521691	0.001136	20.848814
379.093865	-3.020100	3.746900	-11.315000	23.528314	0.001135	20.810409
380.095572	-2.998300	3.748600	-11.237000	23.500853	0.001135	20.828875
381.094128	-3.004200	3.748000	-11.259000	23.499409	0.001136	20.838807
382.093756	-3.011000	3.746900	-11.281000	23.522015	0.001136	20.829700
383.098572	-3.013800	3.745600	-11.287000	23.511011	0.001135	20.830997
384.093177	-3.011000	3.745800	-11.277000	23.532273	0.001136	20.821490
385.092269	-2.991000	3.747600	-11.208000	23.553782	0.001135	20.824085
386.097003	-3.030700	3.745200	-11.350000	23.564386	0.001134	20.835663
387.095498	-3.025900	3.744400	-11.329000	23.558761	0.001136	20.826705
388.094086	-2.974200	3.745700	-11.140000	23.550571	0.001137	20.833194
389.095726	-2.987600	3.745000	-11.188000	23.553160	0.001134	20.838160
390.095702	-2.981400	3.745900	-11.167000	23.533219	0.001136	20.827180
391.096048	-2.985100	3.745500	-11.180000	23.541161	0.001136	20.848891
392.097343	-2.988200	3.744200	-11.188000	23.551369	0.001138	20.841580
393.094971	-3.002000	3.743800	-11.238000	23.531901	0.001137	20.822540
394.093844	-3.006000	3.742300	-11.249000	23.565460	0.001136	20.826783
395.098494	-3.003900	3.743200	-11.243000	23.577186	0.001136	20.832373
396.099554	-2.992600	3.743300	-11.201000	23.601956	0.001137	20.825910
397.095987	-2.986300	3.743500	-11.178000	23.608752	0.001138	20.824189
398.098641	-3.015200	3.741300	-11.278000	23.637006	0.001138	20.849193
399.099422	-3.001400	3.742400	-11.230000	23.663145	0.001138	20.841733
400.096982	-2.983700	3.742300	-11.165000	23.669344	0.001137	20.838465
401.100664	-3.004600	3.741300	-11.240000	23.662325	0.001138	20.821945
402.098475	-3.000200	3.741400	-11.224000	23.692494	0.001139	20.817578
403.094450	-2.984600	3.740800	-11.164000	23.697075	0.001138	20.818378
404.096451	-2.985600	3.742200	-11.172000	23.683211	0.001141	20.841461
405.100041	-2.993200	3.742100	-11.200000	23.725651	0.001140	20.834700
406.098258	-2.997000	3.740300	-11.209000	23.728066	0.001140	20.833801
407.101138	-3.000600	3.738900	-11.218000	23.733293	0.001139	20.839990
408.101054	-2.982400	3.739600	-11.152000	23.740338	0.001141	20.849423
409.099004	-3.006700	3.738100	-11.237000	23.746959	0.001141	20.835674
410.101875	-2.995000	3.738200	-11.196000	23.715273	0.001140	20.845631
411.102126	-3.015000	3.736400	-11.264000	23.707931	0.001141	20.834951
412.097924	-3.005800	3.737300	-11.233000	23.693170	0.001142	20.833903
413.103307	-2.988100	3.737700	-11.167000	23.712312	0.001143	20.836025
414.103667	-3.005700	3.735800	-11.228000	23.722742	0.001141	20.847904
415.098692	-2.996800	3.737000	-11.198000	23.730559	0.001142	20.833929
416.102839	-3.007600	3.736700	-11.238000	23.706389	0.001144	20.837672
417.101130	-3.005300	3.735100	-11.222000	23.700490	0.001144	20.854042
418.099923	-3.009100	3.734600	-11.237000	23.723166	0.001142	20.856389
419.102153	-2.997000	3.736000	-11.196000	23.713857	0.001145	20.852745
420.102489	-3.002000	3.734400	-11.208000	23.731778	0.001144	20.848903
421.100010	-2.992600	3.736100	-11.179000	23.740964	0.001142	20.853371
422.102422	-3.017400	3.734900	-11.268000	23.750820	0.001144	20.844286
423.101402	-3.031700	3.732500	-11.315000	23.759856	0.001147	20.851922
424.101608	-3.002200	3.734400	-11.211000	23.793283	0.001144	20.847980
425.105343	-2.997000	3.733500	-11.188000	23.809809	0.001144	20.846058
426.103106	-3.023200	3.732800	-11.284000	23.818271	0.001145	20.841267
427.109528	-2.996400	3.732300	-11.183000	23.859810	0.001146	20.837399
428.104509	-2.986000	3.733300	-11.148000	23.837884	0.001145	20.861879
429.103508	-3.005800	3.731600	-11.214000	23.871457	0.001146	20.831534
430.103013	-3.000200	3.731200	-11.193000	23.861875	0.001147	20.855590
431.104730	-2.987700	3.731800	-11.149000	23.871855	0.001146	20.856588
432.102864	-3.027200	3.729800	-11.290000	23.862796	0.001145	20.852720
433.101937	-3.021800	3.729500	-11.269000	23.885021	0.001145	20.851772
434.104870	-2.989200	3.730900	-11.152000	23.869266	0.001146	20.848777
435.109210	-2.993600	3.730700	-11.166000	23.876011	0.001147	20.847005
436.104581	-2.976500	3.729900	-11.101000	23.867449	0.001147	20.841740
437.110782	-3.002300	3.729400	-11.197000	23.861326	0.001148	20.859307
438.108192	-3.011500	3.729000	-11.229000	23.856772	0.001147	20.852844
439.107741	-2.995000	3.729100	-11.168000	23.870560	0.001147	20.853867
440.110629	-3.015900	3.727300	-11.240000	23.848484	0.001147	20.854491
441.110211	-2.990500	3.728400	-11.149000	23.845920	0.001147	20.852394
442.110892	-3.001800	3.729300	-11.194000	23.860082	0.001147	20.857585
443.110701	-3.023400	3.728300	-11.271000	23.856796	0.001146	20.877523
444.109160	-2.999600	3.728100	-11.182000	23.840817	0.001149	20.848700
445.108065	-2.956100	3.729400	-11.021000	23.887607	0.001147	20.851521
446.109134	-2.996400	3.725900	-11.163000	23.895396	0.001149	20.852219
447.110429	-2.988700	3.727200	-11.138000	23.918590	0.001147	20.855562
448.111972	-2.990800	3.727300	-11.146000	23.945418	0.001150	20.888152
449.113515	-2.993500	3.726100	-11.151000	23.962564	0.001150	20.869786
450.110955	-2.999300	3.725200	-11.171000	23.947010	0.001148	20.855612
451.110881	-3.012400	3.725200	-11.220000	23.947855	0.001149	20.880165
452.113480	-2.991400	3.724900	-11.142000	23.930933	0.001151	20.865094
453.112091	-2.983700	3.724800	-11.112000	23.911496	0.001148	20.867888
454.117343	-3.014500	3.723600	-11.225000	23.921774	0.001150	20.878194
455.116737	-2.992800	3.722600	-11.139000	23.949224	0.001148	20.854513
456.116305	-3.028800	3.722600	-11.274000	23.972267	0.001149	20.878567
457.119699	-2.986400	3.723700	-11.119000	23.958879	0.001149	20.859927
458.117165	-2.996500	3.723200	-11.154000	23.963681	0.001148	20.865216
459.117657	-3.015700	3.722800	-11.225000	23.959052	0.001149	20.884756
460.115209	-3.006800	3.721000	-11.187000	23.952730	0.001151	20.869882
461.116895	-3.001400	3.721000	-11.167000	23.958529	0.001147	20.863844
462.117842	-2.995900	3.720800	-11.146000	23.972141	0.001150	20.870855
463.113862	-2.992200	3.720900	-11.132000	23.971269	0.001150	20.877567
464.115356	-3.005400	3.721100	-11.182000	23.996379	0.001152	20.868609
465.115891	-3.014300	3.719900	-11.211000	24.010986	0.001149	20.895583
466.113914	-2.984100	3.720700	-11.101000	24.059310	0.001151	20.868184
467.117932	-2.997500	3.719100	-11.147000	24.064809	0.001150	20.872276
468.120058	-3.017300	3.718700	-11.219000	24.054208	0.001151	20.867809
469.117481	-3.018600	3.718000	-11.222000	24.086457	0.001150	20.881658
470.119577	-3.009500	3.718100	-11.189000	24.089318	0.001149	20.878838
471.122258	-3.022800	3.717100	-11.234000	24.084341	0.001152	20.874320
472.119111	-2.996000	3.718900	-11.141000	24.093198	0.001151	20.877988
473.120375	-2.976900	3.718900	-11.070000	24.080981	0.001152	20.887071
474.119105	-3.003500	3.717500	-11.165000	24.084290	0.001152	20.883752
475.119578	-2.997700	3.716200	-11.139000	24.067269	0.001151	20.908406
476.123213	-2.981900	3.717600	-11.085000	24.062268	0.001152	20.905760
477.121289	-2.991500	3.715900	-11.115000	24.059480	0.001149	20.884474
478.121764	-2.997800	3.715200	-11.136000	24.048755	0.001153	20.890787
479.123237	-2.988300	3.715500	-11.103000	24.024842	0.001150	20.890039
480.123475	-2.996900	3.715900	-11.136000	24.027229	0.001151	20.877735
481.120097	-3.001200	3.714100	-11.146000	24.002445	0.001151	20.890337
482.123235	-3.004500	3.715400	-11.162000	24.010432	0.001151	20.885546
483.132115	-3.001400	3.714500	-11.147000	24.042533	0.001152	20.876488
484.121895	-2.993100	3.714900	-11.118000	24.070825	0.001152	20.880205
485.124149	-3.022400	3.712600	-11.220000	24.100086	0.001152	20.892956
486.124100	-2.996400	3.715500	-11.133000	24.115761	0.001152	20.911046
487.123066	-3.007200	3.713700	-11.167000	24.110486	0.001151	20.886792
488.123929	-3.000300	3.713700	-11.142000	24.108619	0.001152	20.894875
489.125559	-2.982300	3.712800	-11.071000	24.132979	0.001151	20.922149
490.122825	-2.999900	3.713200	-11.138000	24.108221	0.001151	20.921500
491.124809	-3.013500	3.711200	-11.183000	24.096625	0.001154	20.913664
492.126287	-3.002000	3.712300	-11.144000	24.078510	0.001153	20.904032
493.125048	-3.009700	3.711900	-11.170000	24.085427	0.001153	20.894849
494.130792	-2.981100	3.711800	-11.065000	24.127578	0.001152	20.921474
495.127607	-2.993200	3.711200	-11.108000	24.128772	0.001151	20.923145
496.124300	-3.021700	3.710300	-11.210000	24.105905	0.001152	20.920600
497.126409	-2.990600	3.711100	-11.097000	24.081917	0.001151	20.898441
498.126562	-2.984300	3.709700	-11.069000	24.086221	0.001151	20.908447
499.125536	-3.003000	3.709200	-11.138000	24.054422	0.001152	20.934398
500.130651	-2.977600	3.709900	-11.045000	24.054197	0.001152	20.906675
501.125218	-2.981100	3.709200	-11.056000	24.065967	0.001151	20.923693
502.127386	-2.980100	3.708500	-11.050000	24.065568	0.001152	20.919501
503.128485	-2.967800	3.709500	-11.008000	24.044218	0.001154	20.929381
504.126962	-2.998000	3.706800	-11.111000	24.062731	0.001149	20.910966
505.127392	-3.022700	3.705500	-11.199000	24.109461	0.001153	20.927959
506.134543	-3.014700	3.706100	-11.171000	24.126057	0.001151	20.903829
507.130645	-2.989600	3.706800	-11.080000	24.138224	0.001151	20.922668
508.127011	-2.984900	3.708000	-11.067000	24.136233	0.001152	20.919724
509.130082	-2.991700	3.706700	-11.087000	24.144518	0.001150	20.935144
510.128332	-2.999100	3.705600	-11.113000	24.145912	0.001150	20.917577
511.130972	-3.006100	3.704200	-11.133000	24.171564	0.001151	20.923391
512.135038	-3.014200	3.705200	-11.166000	24.181392	0.001153	20.945099
513.133102	-2.999400	3.704600	-11.111000	24.190199	0.001151	20.935443
514.132254	-2.984400	3.705200	-11.057000	24.205425	0.001151	20.939809
515.135330	-2.992400	3.705600	-11.088000	24.220552	0.001151	20.929853
516.134763	-2.994100	3.704100	-11.089000	24.225130	0.001152	20.919272
517.130647	-2.976300	3.705100	-11.026000	24.250980	0.001151	20.931924
518.140371	-3.014700	3.702100	-11.159000	24.265360	0.001151	20.916478
519.135192	-3.006300	3.703300	-11.131000	24.277376	0.001151	20.944175
520.134791	-2.983600	3.702700	-11.046000	24.280983	0.001149	20.940681
521.138750	-3.003100	3.702500	-11.118000	24.305214	0.001150	20.928480
522.137499	-3.008900	3.701800	-11.137000	24.284167	0.001153	20.927756
523.134595	-3.011100	3.700900	-11.142000	24.330813	0.001150	20.939459
524.143084	-2.977200	3.701800	-11.019000	24.306134	0.001153	20.940307
525.133066	-3.018500	3.699300	-11.165000	24.325041	0.001151	20.934618
526.137409	-2.975200	3.701300	-11.012000	24.352232	0.001153	20.943875
527.138741	-3.006100	3.700100	-11.122000	24.326932	0.001153	20.935092
528.135009	-3.010300	3.698200	-11.131000	24.348201	0.001150	20.963537
529.136919	-3.021100	3.698100	-11.171000	24.375143	0.001151	20.966855
530.136860	-2.993000	3.700200	-11.074000	24.372656	0.001151	20.933071
531.137417	-3.011600	3.698000	-11.137000	24.359346	0.001150	20.933469
532.141160	-2.984800	3.698000	-11.036000	24.375392	0.001151	20.953356
533.140792	-2.983000	3.698600	-11.032000	24.408079	0.001150	20.957224
534.137729	-2.997400	3.697500	-11.081000	24.419248	0.001151	20.952783
535.137215	-2.991700	3.697100	-11.059000	24.428875	0.001150	20.950113
536.138475	-3.026600	3.695300	-11.184000	24.423726	0.001151	20.943526
537.135307	-2.991600	3.695900	-11.055000	24.424596	0.001149	20.961940
538.140906	-3.021400	3.696200	-11.167000	24.415941	0.001149	20.946621
539.141232	-2.994700	3.696900	-11.070000	24.402309	0.001151	20.945273
540.139886	-3.011200	3.694600	-11.123000	24.414000	0.001150	20.954156
541.137075	-2.982300	3.695500	-11.021000	24.387210	0.001148	20.949565
542.138816	-2.996600	3.695400	-11.073000	24.369150	0.001150	20.953733
543.141817	-3.015700	3.694100	-11.138000	24.370965	0.001149	20.939909
544.137646	-2.997200	3.696100	-11.076000	24.389598	0.001150	20.944376
545.139524	-3.009600	3.693300	-11.113000	24.381290	0.001150	20.965910
546.138944	-2.981700	3.694500	-11.015000	24.402434	0.001152	20.966259
547.143212	-2.998000	3.694200	-11.074000	24.401713	0.001151	20.962691
548.143723	-3.021900	3.692200	-11.156000	24.420394	0.001150	20.969577
549.144201	-3.010800	3.692200	-11.116000	24.435096	0.001149	20.970102
550.143423	-3.019300	3.691000	-11.143000	24.435295	0.001148	20.952287
551.143710	-2.985000	3.692100	-11.019000	24.447559	0.001150	20.972647
552.143475	-3.002800	3.692500	-11.087000	24.471388	0.001152	20.967158
553.142355	-3.003900	3.691200	-11.087000	24.502779	0.001149	20.939387
554.143136	-3.000700	3.690700	-11.073000	24.510813	0.001148	20.942231
555.142941	-3.016900	3.689400	-11.129000	24.512628	0.001148	20.954956
556.143777	-3.003800	3.689900	-11.082000	24.502107	0.001148	20.949142
557.143557	-3.003000	3.689500	-11.078000	24.500342	0.001148	20.907547
558.146060	-3.013200	3.689200	-11.115000	24.535637	0.001147	20.954333
559.144959	-3.012000	3.689300	-11.112000	24.501784	0.001148	20.953085
560.146545	-2.987400	3.690500	-11.024000	24.514321	0.001149	20.937216
561.146492	-3.012100	3.688900	-11.110000	24.506211	0.001148	20.939037
562.147595	-3.009800	3.688900	-11.102000	24.539417	0.001149	20.936791
563.147372	-3.018100	3.688800	-11.132000	24.551157	0.001149	20.923442
564.147090	-3.003900	3.687400	-11.076000	24.575010	0.001149	20.939786
565.147458	-2.994500	3.687800	-11.041000	24.588216	0.001149	20.938339
566.148318	-2.996200	3.687400	-11.046000	24.583142	0.001148	20.942730
567.148996	-2.995400	3.687500	-11.045000	24.552276	0.001149	20.925513
568.148219	-3.009800	3.685800	-11.092000	24.538025	0.001146	20.937766
569.150777	-3.000300	3.685500	-11.056000	24.513574	0.001149	20.915133
570.147415	-3.011600	3.685900	-11.100000	24.504670	0.001148	20.910467
571.150819	-3.004100	3.686500	-11.074000	24.505441	0.001147	20.936842
572.155881	-3.003200	3.683600	-11.061000	24.508973	0.001147	20.935170
573.148510	-2.978100	3.686200	-10.977000	24.504198	0.001149	20.923742
574.151484	-2.999900	3.684000	-11.051000	24.517356	0.001149	20.923193
575.149127	-3.001400	3.685500	-11.060000	24.529494	0.001149	20.927785
576.150050	-2.987200	3.684800	-11.006000	24.563669	0.001148	20.928883
577.153009	-2.988700	3.685100	-11.013000	24.554789	0.001148	20.910966
578.152596	-3.014300	3.682600	-11.100000	24.585406	0.001148	20.932675
579.152624	-3.004900	3.683200	-11.066000	24.597345	0.001147	20.918578
580.151155	-3.019500	3.681200	-11.115000	24.563668	0.001146	20.914185
581.156047	-3.000100	3.683000	-11.048000	24.563345	0.001145	20.925714
582.157600	-2.997300	3.682500	-11.037000	24.511611	0.001148	20.919800
583.155128	-2.994800	3.681700	-11.025000	24.503850	0.001147	20.921023
584.157374	-3.023300	3.680400	-11.126000	24.500940	0.001147	20.908621
585.152814	-2.994700	3.681200	-11.023000	24.514546	0.001147	20.900936
586.155565	-2.993100	3.682000	-11.020000	24.537728	0.001145	20.927511
587.158226	-3.013500	3.680600	-11.090000	24.528101	0.001148	20.922595
588.157705	-2.996000	3.681100	-11.027000	24.555535	0.001148	20.902707
589.159572	-3.003100	3.680100	-11.050000	24.575731	0.001147	20.933399
590.163349	-2.979900	3.680300	-10.966000	24.577448	0.001146	20.911890
591.161016	-2.988600	3.677900	-10.991000	24.597718	0.001147	20.884816
592.159348	-3.007100	3.679200	-11.062000	24.615600	0.001145	20.919350
593.160797	-3.010000	3.677400	-11.068000	24.595056	0.001145	20.912014
594.159502	-2.993100	3.678000	-11.008000	24.586948	0.001144	20.919051
595.157731	-3.010300	3.678200	-11.070000	24.578716	0.001145	20.896094
596.160176	-3.015200	3.676200	-11.083000	24.573691	0.001145	20.915233
597.158182	-2.990000	3.677500	-10.995000	24.567523	0.001145	20.891028
598.157876	-2.978900	3.677500	-10.953000	24.546431	0.001145	20.916331
599.163682	-3.018400	3.675400	-11.093000	24.572572	0.001145	20.906998
600.158227	-3.000800	3.676100	-11.030000	24.589409	0.001146	20.885014
601.159751	-3.002800	3.674500	-11.033000	24.605377	0.001143	20.892974
602.164115	-2.983400	3.676900	-10.969000	24.578665	0.001144	20.899836
603.159451	-2.998500	3.675200	-11.019000	24.567547	0.001147	20.898613
604.162605	-2.994500	3.674800	-11.003000	24.586350	0.001144	20.915132
605.160796	-2.992700	3.673700	-10.994000	24.610300	0.001143	20.897440
606.165233	-3.005200	3.673600	-11.039000	24.614056	0.001143	20.886510
607.160480	-3.011900	3.673100	-11.061000	24.645493	0.001141	20.894346
608.164223	-2.976500	3.673600	-10.933000	24.667800	0.001146	20.906373
609.160302	-3.011000	3.672300	-11.056000	24.676281	0.001143	20.897739
610.161467	-3.007400	3.671800	-11.040000	24.667601	0.001141	20.890727
611.163356	-2.990400	3.673200	-10.984000	24.655937	0.001140	20.902454
612.163846	-2.999900	3.673200	-11.018000	24.631489	0.001142	20.877052
613.160825	-2.980100	3.672400	-10.943000	24.641488	0.001142	20.890802
614.166687	-2.996900	3.671100	-11.001000	24.664317	0.001142	20.884787
615.162234	-3.018400	3.669900	-11.077000	24.671256	0.001139	20.889853
616.164986	-3.003700	3.671400	-11.025000	24.645914	0.001141	20.899510
617.165299	-3.001800	3.669200	-11.013000	24.645267	0.001141	20.891275
618.162481	-3.012500	3.670500	-11.055000	24.638180	0.001139	20.875156
619.163095	-2.997400	3.670100	-10.999000	24.603063	0.001136	20.896341
620.168105	-3.009600	3.670000	-11.044000	24.593462	0.001138	20.891450
621.163881	-2.983200	3.670400	-10.949000	24.559190	0.001139	20.885986
622.163158	-2.996000	3.670100	-10.995000	24.541208	0.001140	20.898763
623.167986	-3.006400	3.668300	-11.027000	24.549242	0.001136	20.877903
624.165137	-2.983900	3.670000	-10.950000	24.552550	0.001136	20.892126
625.172863	-2.997000	3.668900	-10.994000	24.544940	0.001136	20.894448
626.169032	-3.018700	3.665200	-11.063000	24.555610	0.001134	20.872813
627.165123	-3.006700	3.667500	-11.026000	24.582173	0.001136	20.899563
628.166257	-2.978200	3.666900	-10.920000	24.606349	0.001137	20.881149
629.171882	-3.003500	3.666700	-11.012000	24.591427	0.001137	20.862384
630.169841	-2.998800	3.666300	-10.994000	24.640771	0.001139	20.885342
631.167990	-2.999300	3.664300	-10.988000	24.619185	0.001136	20.884544
632.168900	-2.996300	3.665800	-10.983000	24.638684	0.001134	20.876135
633.167709	-3.019000	3.665100	-11.062000	24.653830	0.001136	20.874739
634.167231	-3.011100	3.664600	-11.031000	24.686261	0.001138	20.861289
635.170605	-2.985500	3.664000	-10.938000	24.688028	0.001134	20.889139
636.168115	-2.988400	3.665700	-10.953000	24.701432	0.001136	20.878409
637.166512	-2.997400	3.664100	-10.981000	24.681812	0.001135	20.835489
638.169370	-3.003800	3.663200	-11.001000	24.668308	0.001133	20.858447
639.169506	-2.999500	3.663100	-10.986000	24.682186	0.001135	20.875692
640.168563	-3.005700	3.663300	-11.009000	24.682212	0.001134	20.866235
641.170136	-2.995300	3.662700	-10.969000	24.690121	0.001133	20.870852
642.167998	-3.004700	3.662000	-11.002000	24.659532	0.001135	20.862917
643.177715	-3.011900	3.662100	-11.029000	24.648963	0.001137	20.857053
644.173466	-2.987200	3.663600	-10.943000	24.676719	0.001134	20.864990
645.170866	-2.981800	3.661100	-10.916000	24.686120	0.001135	20.873950
646.172680	-3.009400	3.660100	-11.013000	24.713152	0.001134	20.864092
647.171470	-2.978700	3.661500	-10.905000	24.733918	0.001134	20.868335
648.172616	-3.000400	3.660900	-10.983000	24.776517	0.001131	20.853238
649.174453	-2.997400	3.660600	-10.971000	24.768411	0.001134	20.842733
650.173989	-3.007200	3.660600	-11.007000	24.747970	0.001134	20.859678
651.174206	-2.996300	3.660200	-10.966000	24.757594	0.001134	20.847999
652.170456	-2.992600	3.659300	-10.950000	24.762418	0.001134	20.879866
653.172401	-3.021400	3.659000	-11.053000	24.786937	0.001134	20.867014
654.173055	-3.020500	3.656800	-11.045000	24.804941	0.001136	20.868013
655.172078	-2.995300	3.658500	-10.957000	24.841246	0.001132	20.868413
656.174197	-3.006800	3.657200	-10.995000	24.860343	0.001133	20.845855
657.172045	-2.997600	3.657600	-10.963000	24.829783	0.001133	20.856908
658.173182	-3.007800	3.656600	-10.998000	24.816380	0.001131	20.852941
659.175814	-2.996300	3.656600	-10.956000	24.810312	0.001135	20.855860
660.172610	-3.002100	3.656600	-10.976000	24.804395	0.001131	20.852292
661.172384	-3.003700	3.655400	-10.979000	24.788107	0.001130	20.842111
662.174092	-2.991700	3.656300	-10.938000	24.787162	0.001133	20.858231
663.174831	-2.998600	3.656200	-10.962000	24.803425	0.001134	20.861750
664.174906	-3.018700	3.655700	-11.034000	24.815411	0.001136	20.853865
665.177471	-3.010600	3.654400	-11.002000	24.804893	0.001130	20.831930
666.182377	-2.974800	3.655400	-10.873000	24.798128	0.001132	20.849796
667.178402	-2.993700	3.653800	-10.937000	24.816405	0.001130	20.860078
668.176454	-2.973100	3.654800	-10.865000	24.822223	0.001129	20.843633
669.177365	-2.992700	3.654000	-10.934000	24.840101	0.001130	20.841661
670.176255	-3.002400	3.653100	-10.966000	24.850794	0.001133	20.842434
671.177889	-2.981400	3.653300	-10.891000	24.869467	0.001129	20.836994
672.180284	-3.007000	3.653000	-10.983000	24.871531	0.001129	20.847600
673.176101	-3.019700	3.651000	-11.024000	24.875210	0.001131	20.849870
674.175295	-3.027200	3.650300	-11.049000	24.843880	0.001128	20.839289
675.178758	-3.007800	3.651600	-10.981000	24.848082	0.001131	20.857730
676.180340	-2.981500	3.653200	-10.889000	24.883291	0.001127	20.844704
677.179245	-2.986600	3.651500	-10.904000	24.878641	0.001130	20.843356
678.177830	-3.034100	3.649600	-11.071000	24.858849	0.001127	20.846251
679.177787	-2.993800	3.650300	-10.927000	24.843580	0.001127	20.842307
680.185001	-2.980100	3.652000	-10.882000	24.868570	0.001127	20.843206
681.185751	-3.008600	3.648400	-10.976000	24.896841	0.001127	20.839338
682.179757	-3.009900	3.649000	-10.982000	24.909522	0.001126	20.836418
683.191527	-2.970000	3.650400	-10.840000	24.933069	0.001128	20.830180
684.184734	-3.026600	3.648100	-11.039000	24.924614	0.001126	20.840660
685.181593	-2.989400	3.648900	-10.907000	24.905669	0.001126	20.832551
686.178630	-2.987600	3.649300	-10.901000	24.869564	0.001125	20.840410
687.178542	-3.015500	3.648500	-11.000000	24.831420	0.001127	20.833423
688.179090	-3.017800	3.646600	-11.004000	24.832291	0.001125	20.849469
689.181961	-3.004800	3.648300	-10.961000	24.850469	0.001124	20.834996
690.178427	-3.030500	3.645800	-11.046000	24.857032	0.001126	20.836368
691.181322	-2.993900	3.647900	-10.920000	24.870782	0.001121	20.851115
692.180840	-2.990900	3.646400	-10.904000	24.862727	0.001123	20.831178
693.180871	-2.993500	3.645800	-10.913000	24.842809	0.001123	20.860024
694.180511	-2.994100	3.646000	-10.916000	24.837189	0.001122	20.844902
695.180792	-2.995400	3.646600	-10.922000	24.844028	0.001122	20.821420
696.181389	-2.975300	3.646400	-10.848000	24.829158	0.001123	20.821670
697.183369	-2.986900	3.647100	-10.891000	24.868097	0.001124	20.811438
698.181671	-2.997600	3.645700	-10.927000	24.857106	0.001122	20.844028
699.185721	-3.002700	3.643900	-10.940000	24.883637	0.001125	20.827508
700.184669	-3.000800	3.645200	-10.938000	24.921903	0.001122	20.830827
701.184214	-2.997900	3.644200	-10.924000	24.928542	0.001119	20.840809
702.185532	-2.998400	3.644800	-10.928000	24.930407	0.001123	20.818025
703.185321	-2.991000	3.643300	-10.896000	24.949700	0.001123	20.829329
704.184121	-2.995700	3.642700	-10.911000	24.948109	0.001121	20.812560
705.186255	-2.971000	3.645100	-10.827000	24.958576	0.001120	20.812635
706.190238	-2.990400	3.644000	-10.896000	24.941519	0.001120	20.829653
707.187428	-3.021700	3.641500	-11.001000	24.875431	0.001121	20.827807
708.185847	-3.000200	3.642700	-10.928000	24.832588	0.001121	20.832224
709.187098	-2.996000	3.642400	-10.911000	24.847756	0.001119	20.829429
710.184305	-2.989100	3.641100	-10.883000	24.812894	0.001121	20.812934
711.184039	-3.008300	3.641400	-10.954000	24.797227	0.001121	20.815703
712.187286	-2.991500	3.641700	-10.891000	24.792552	0.001122	20.797735
713.183424	-2.992500	3.639600	-10.891000	24.795188	0.001120	20.807019
714.186530	-3.017100	3.641000	-10.983000	24.810854	0.001120	20.812783
715.183886	-2.991900	3.641900	-10.896000	24.834129	0.001118	20.837563
716.185099	-3.002000	3.638400	-10.921000	24.855189	0.001119	20.824087
717.183701	-3.004900	3.637600	-10.929000	24.839773	0.001118	20.804823
718.184420	-3.002300	3.638800	-10.923000	24.819582	0.001116	20.807792
719.187362	-3.011700	3.637600	-10.955000	24.787131	0.001117	20.827856
720.184661	-2.975000	3.638900	-10.824000	24.816647	0.001118	20.807217
721.184333	-2.995600	3.638300	-10.898000	24.839250	0.001118	20.831323
722.184401	-3.000400	3.638800	-10.917000	24.876075	0.001117	20.816600
723.184445	-3.023200	3.638000	-10.998000	24.910264	0.001117	20.803972
724.187630	-3.009700	3.638100	-10.949000	24.934208	0.001118	20.814254
725.184729	-2.986300	3.638700	-10.866000	24.903501	0.001113	20.821841
726.188388	-3.018000	3.636200	-10.974000	24.905987	0.001113	20.802999
727.186710	-3.016600	3.636400	-10.968000	24.893281	0.001113	20.833394
728.184637	-3.001600	3.637100	-10.916000	24.917399	0.001113	20.805918
729.187803	-2.997600	3.636900	-10.900000	24.929483	0.001114	20.809512
730.185490	-3.013400	3.635700	-10.955000	24.978563	0.001113	20.797134
731.184985	-2.998300	3.635200	-10.899000	24.979383	0.001111	20.809811
732.185332	-2.995700	3.634800	-10.888000	24.969611	0.001108	20.834616
733.189407	-2.989400	3.633800	-10.862000	24.984753	0.001112	20.788649
734.188311	-2.990100	3.634400	-10.866000	25.035346	0.001113	20.803871
735.189806	-2.985900	3.635200	-10.853000	25.014413	0.001108	20.816524
736.188354	-2.988800	3.634100	-10.861000	25.052078	0.001110	20.796484
737.187381	-3.012300	3.633700	-10.945000	25.076814	0.001110	20.807564
738.187289	-2.998100	3.632100	-10.888000	25.067565	0.001110	20.819142
739.187510	-2.999000	3.632800	-10.892000	25.053171	0.001110	20.808961
740.187794	-2.996800	3.632000	-10.883000	25.022368	0.001111	20.814551
741.186806	-2.994300	3.632300	-10.874000	25.016624	0.001110	20.800725
742.188129	-2.993700	3.632500	-10.874000	25.014685	0.001112	20.806365
743.190797	-3.009700	3.632700	-10.932000	25.052498	0.001109	20.803071
744.188698	-3.001400	3.630800	-10.896000	25.062318	0.001109	20.801548
745.192568	-3.019000	3.629800	-10.957000	25.034673	0.001109	20.805092
746.189258	-2.998500	3.631400	-10.888000	25.040340	0.001108	20.810781
747.188848	-2.988200	3.631500	-10.850000	25.045412	0.001108	20.782681
748.189898	-3.021000	3.629900	-10.964000	25.025598	0.001108	20.814000
749.189410	-3.001700	3.629400	-10.893000	25.038848	0.001106	20.788420
750.189625	-3.012400	3.628200	-10.928000	25.040564	0.001106	20.822859
751.188999	-3.008700	3.628000	-10.914000	25.046953	0.001106	20.821211
752.193104	-2.977300	3.629100	-10.804000	25.050034	0.001106	20.800597
753.193419	-3.001300	3.629000	-10.891000	25.062216	0.001107	20.799075
754.189976	-2.993800	3.629900	-10.866000	25.057269	0.001106	20.796005
755.193007	-2.996600	3.627500	-10.869000	25.023234	0.001105	20.801670
756.195138	-2.994900	3.626500	-10.860000	25.005805	0.001106	20.785124
757.189294	-2.990000	3.628000	-10.846000	24.981490	0.001104	20.811926
758.190588	-3.009800	3.626600	-10.914000	24.985940	0.001105	20.799324
759.192797	-2.995300	3.626800	-10.862000	25.023010	0.001104	20.802868
760.190095	-2.971400	3.626400	-10.774000	25.024178	0.001105	20.784126
761.190438	-2.980800	3.626500	-10.809000	25.043519	0.001103	20.793583
762.191673	-3.001300	3.624500	-10.877000	25.046875	0.001105	20.784150
763.190882	-2.980900	3.625800	-10.806000	25.075315	0.001103	20.804638
764.193169	-3.003000	3.624800	-10.884000	25.060076	0.001103	20.785073
765.193775	-2.982700	3.625000	-10.811000	25.022163	0.001103	20.787319
766.190988	-3.002600	3.623400	-10.878000	25.058808	0.001103	20.796128
767.192885	-2.989200	3.624400	-10.832000	25.063805	0.001101	20.796876
768.192717	-3.007700	3.623700	-10.898000	25.069273	0.001101	20.797150
769.198306	-3.012400	3.624700	-10.918000	25.048863	0.001102	20.809853
770.193246	-3.001800	3.622100	-10.872000	25.026263	0.001103	20.789538
771.195436	-2.981500	3.622900	-10.801000	25.028053	0.001100	20.787067
772.195140	-3.023300	3.621700	-10.947000	25.022509	0.001101	20.804261
773.195274	-3.005100	3.622000	-10.883000	25.021241	0.001099	20.804411
774.197912	-3.023000	3.621600	-10.946000	25.048911	0.001098	20.788564
775.195836	-3.019200	3.621600	-10.933000	25.064722	0.001101	20.780253
776.195129	-3.004400	3.621800	-10.880000	25.100844	0.001096	20.793281
777.197666	-2.992200	3.620600	-10.832000	25.092192	0.001099	20.797872
778.197309	-2.995100	3.620800	-10.844000	25.114044	0.001097	20.784720
779.196270	-3.007700	3.620400	-10.888000	25.113223	0.001098	20.777258
780.196333	-2.999500	3.620100	-10.857000	25.114416	0.001096	20.786517
781.199208	-3.016100	3.619600	-10.916000	25.131768	0.001099	20.793978
782.197221	-3.002700	3.619700	-10.866000	25.133235	0.001098	20.790709
783.195652	-3.005600	3.619000	-10.876000	25.117150	0.001096	20.787365
784.199443	-2.993200	3.620300	-10.834000	25.159833	0.001097	20.789910
785.197941	-2.998500	3.618800	-10.850000	25.160901	0.001095	20.768697
786.197028	-2.991500	3.618300	-10.824000	25.179619	0.001097	20.809300
787.197361	-3.013200	3.617900	-10.900000	25.174896	0.001096	20.794127
788.198425	-3.021200	3.616800	-10.925000	25.142928	0.001095	20.783371
789.196932	-3.015500	3.618000	-10.909000	25.111133	0.001093	20.800290
790.198085	-3.020400	3.614600	-10.917000	25.111407	0.001095	20.784918
791.204712	-3.000300	3.617100	-10.851000	25.103900	0.001092	20.781175
792.198831	-3.002200	3.616700	-10.858000	25.120306	0.001095	20.784369
793.198984	-3.006300	3.615900	-10.869000	25.152698	0.001095	20.779902
794.201430	-3.006900	3.616000	-10.872000	25.134924	0.001096	20.792405
795.199965	-3.012100	3.614900	-10.887000	25.135446	0.001091	20.786765
796.199480	-3.021300	3.614100	-10.918000	25.167662	0.001092	20.771217
797.201440	-3.035800	3.613900	-10.969000	25.180961	0.001091	20.782672
798.200720	-3.003600	3.613400	-10.852000	25.215811	0.001091	20.794900
799.203857	-2.989900	3.614900	-10.807000	25.190879	0.001089	20.798793
800.200916	-3.013300	3.614100	-10.888000	25.165996	0.001090	20.789459
801.204691	-2.976000	3.615800	-10.759000	25.167711	0.001089	20.780749
802.201715	-2.991700	3.613900	-10.811000	25.174920	0.001088	20.770917
803.200750	-2.980400	3.613900	-10.769000	25.197591	0.001089	20.797470
804.203942	-3.003400	3.613100	-10.850000	25.230849	0.001089	20.762107
805.201995	-3.011600	3.611500	-10.874000	25.233185	0.001089	20.790057
806.200774	-3.014900	3.612500	-10.890000	25.231147	0.001088	20.798442
807.205568	-3.007000	3.612700	-10.862000	25.255059	0.001087	20.791155
808.210065	-3.010000	3.610300	-10.866000	25.267138	0.001086	20.798068
809.202219	-3.002500	3.610200	-10.839000	25.288987	0.001087	20.798667
810.204903	-3.019700	3.610200	-10.901000	25.290080	0.001086	20.809247
811.202208	-3.016300	3.610000	-10.886000	25.312350	0.001086	20.802685
812.202071	-3.001500	3.609900	-10.834000	25.316501	0.001085	20.802584
813.201925	-2.998400	3.608100	-10.818000	25.344685	0.001085	20.785839
814.204662	-2.996700	3.610000	-10.818000	25.343244	0.001083	20.781072
815.201052	-3.018800	3.608600	-10.893000	25.392404	0.001084	20.797243
816.202430	-3.016400	3.608500	-10.883000	25.371552	0.001083	20.805703
817.205138	-2.999500	3.607600	-10.819000	25.362555	0.001082	20.789557
818.203763	-3.012400	3.607700	-10.867000	25.354353	0.001084	20.795546
819.202349	-2.989200	3.609600	-10.788000	25.375156	0.001081	20.805054
820.205510	-2.992700	3.608000	-10.795000	25.339490	0.001080	20.789157
821.203397	-3.005600	3.607600	-10.843000	25.328455	0.001080	20.808423
822.205760	-3.023500	3.606500	-10.903000	25.301339	0.001078	20.793051
823.209177	-2.994900	3.607000	-10.801000	25.264229	0.001078	20.791828
824.205243	-3.011000	3.607100	-10.860000	25.223491	0.001078	20.804506
825.204907	-3.028800	3.605100	-10.918000	25.176161	0.001077	20.775482
826.205052	-3.011100	3.606300	-10.858000	25.169201	0.001080	20.799314
827.205058	-3.014000	3.605100	-10.865000	25.171116	0.001078	20.796970
828.205210	-3.000700	3.604300	-10.814000	25.196992	0.001078	20.784541
829.205330	-2.990800	3.605800	-10.782000	25.164056	0.001076	20.802210
830.210121	-3.025300	3.603700	-10.902000	25.176038	0.001076	20.788634
831.206867	-2.994800	3.604600	-10.795000	25.148669	0.001077	20.794823
832.207435	-2.966900	3.604700	-10.694000	25.169774	0.001075	20.794674
833.207599	-2.976000	3.605000	-10.727000	25.156699	0.001073	20.809523
834.209472	-2.976200	3.604800	-10.727000	25.145140	0.001074	20.804083
835.209386	-3.003400	3.602400	-10.818000	25.175889	0.001073	20.819779
836.209665	-2.970800	3.602700	-10.702000	25.236094	0.001074	20.803409
837.214988	-2.997700	3.601600	-10.795000	25.247703	0.001072	20.821228
838.208762	-3.003900	3.602800	-10.822000	25.283967	0.001074	20.815911
839.210137	-3.000100	3.602900	-10.808000	25.275516	0.001073	20.810746
840.209509	-2.985600	3.602200	-10.754000	25.301267	0.001072	20.781125
841.210047	-2.991000	3.601200	-10.770000	25.328458	0.001073	20.789934
842.210601	-2.987300	3.601100	-10.757000	25.345558	0.001072	20.785767
843.210408	-2.984200	3.600900	-10.745000	25.352542	0.001073	20.797046
844.210018	-2.998900	3.602000	-10.801000	25.362782	0.001072	20.795001
845.213708	-3.000700	3.600900	-10.805000	25.363603	0.001070	20.821429
846.213488	-2.977700	3.599500	-10.717000	25.373395	0.001072	20.804235
847.210502	-3.000700	3.599200	-10.799000	25.393078	0.001069	20.823050
848.213993	-3.001400	3.599800	-10.803000	25.388556	0.001069	20.818983
849.212536	-3.006600	3.597600	-10.816000	25.368474	0.001071	20.808303
850.211430	-3.024200	3.598800	-10.882000	25.347249	0.001069	20.810224
851.215003	-3.006900	3.598000	-10.817000	25.300846	0.001070	20.801565
852.211546	-2.985200	3.598300	-10.739000	25.245691	0.001069	20.806406
853.212877	-2.996500	3.596400	-10.776000	25.213278	0.001069	20.820806
854.211162	-2.989900	3.596900	-10.754000	25.205448	0.001069	20.815789
855.213955	-2.974100	3.598000	-10.700000	25.215216	0.001066	20.810424
856.216722	-2.986500	3.595800	-10.738000	25.242609	0.001066	20.816114
857.213144	-2.989700	3.596400	-10.751000	25.272834	0.001069	20.798096
858.211429	-2.990000	3.596800	-10.753000	25.285311	0.001068	20.815839
859.213263	-3.016000	3.596200	-10.846000	25.347125	0.001065	20.803461
860.213257	-3.012800	3.593400	-10.825000	25.359577	0.001065	20.809800
861.218377	-3.013700	3.594500	-10.832000	25.391314	0.001065	20.820805
862.216298	-3.001400	3.594500	-10.787000	25.396484	0.001063	20.819832
863.213550	-3.022400	3.593200	-10.859000	25.392930	0.001066	20.817211
864.214101	-3.005100	3.593400	-10.797000	25.408886	0.001065	20.797198
865.216605	-3.000300	3.593200	-10.780000	25.368126	0.001064	20.813643
866.215209	-3.022100	3.592700	-10.857000	25.384057	0.001062	20.823001
867.218778	-2.997700	3.593700	-10.771000	25.326372	0.001063	20.815340
868.219741	-2.995400	3.592800	-10.761000	25.306413	0.001062	20.817111
869.219368	-2.997200	3.591600	-10.764000	25.310738	0.001064	20.820031
870.217370	-2.997600	3.592100	-10.767000	25.294533	0.001063	20.819882
871.219194	-3.015000	3.590100	-10.823000	25.285733	0.001062	20.824797
872.220222	-3.032700	3.588600	-10.882000	25.273106	0.001062	20.823025
873.219701	-3.008400	3.589800	-10.798000	25.278748	0.001061	20.829638
874.222490	-2.990900	3.591800	-10.742000	25.294805	0.001062	20.816362
875.222040	-3.006900	3.589500	-10.793000	25.321798	0.001059	20.821653
876.219507	-2.992100	3.589200	-10.738000	25.345632	0.001061	20.833730
877.222054	-3.020400	3.587900	-10.835000	25.410822	0.001060	20.828065
878.222831	-3.011000	3.588600	-10.804000	25.416414	0.001057	20.838422
879.220632	-3.010100	3.589200	-10.802000	25.440893	0.001057	20.819381
880.222610	-2.992900	3.588600	-10.739000	25.443950	0.001056	20.817235
881.224092	-2.967500	3.589200	-10.648000	25.460899	0.001057	20.815288
882.224357	-2.993800	3.589700	-10.746000	25.518776	0.001056	20.828839
883.223071	-3.013300	3.587100	-10.808000	25.527698	0.001055	20.821202
884.225565	-2.992900	3.586500	-10.734000	25.533214	0.001057	20.828639
885.224915	-2.990700	3.587000	-10.727000	25.549366	0.001054	20.842963
886.224996	-2.982700	3.586800	-10.697000	25.542185	0.001056	20.832432
887.234297	-2.976200	3.587400	-10.674000	25.556225	0.001053	20.831359
888.225113	-2.976600	3.587500	-10.677000	25.558610	0.001055	20.825694
889.227348	-3.004200	3.586900	-10.775000	25.530182	0.001054	20.823698
890.227818	-2.995600	3.584900	-10.737000	25.503195	0.001051	20.830735
891.225482	-2.995300	3.585100	-10.737000	25.475810	0.001052	20.831683
892.227072	-2.991200	3.585300	-10.722000	25.480530	0.001050	20.837372
893.228435	-3.008400	3.584600	-10.782000	25.477971	0.001050	20.833380
894.227385	-2.993200	3.583300	-10.724000	25.467087	0.001051	20.849002
895.226541	-2.997700	3.584800	-10.745000	25.481077	0.001050	20.842189
896.231385	-3.019300	3.582200	-10.815000	25.454338	0.001049	20.828614
897.228608	-2.999100	3.583100	-10.744000	25.484134	0.001048	20.837197
898.228360	-3.030800	3.581400	-10.853000	25.478045	0.001048	20.833454
899.241288	-2.974500	3.583200	-10.657000	25.499616	0.001048	20.846106
900.228485	-2.997800	3.581400	-10.735000	25.482295	0.001047	20.823023
901.228985	-3.027200	3.581400	-10.840000	25.475460	0.001047	20.843186
902.228541	-3.015300	3.580900	-10.796000	25.470465	0.001047	20.819679
903.232926	-2.978200	3.582400	-10.669000	25.494695	0.001045	20.846855
904.233659	-3.017400	3.579100	-10.799000	25.492508	0.001048	20.841339
905.231892	-3.003000	3.579600	-10.749000	25.508884	0.001045	20.842612
906.234721	-3.002700	3.580100	-10.749000	25.503293	0.001044	20.846480
907.232674	-2.977500	3.580100	-10.659000	25.510873	0.001043	20.842712
908.232075	-2.991400	3.579600	-10.706000	25.516264	0.001044	20.852393
909.234912	-3.030700	3.577000	-10.839000	25.495490	0.001044	20.853816
910.232660	-2.983500	3.579000	-10.676000	25.535623	0.001042	20.844334
911.233669	-2.990300	3.578400	-10.699000	25.549687	0.001041	20.837596
912.232822	-2.996800	3.577900	-10.722000	25.540692	0.001043	20.835674
913.234111	-3.023600	3.577300	-10.816000	25.515097	0.001042	20.859755
914.234210	-3.008900	3.576300	-10.759000	25.462413	0.001041	20.834351
915.232426	-3.006700	3.576400	-10.753000	25.433088	0.001042	20.870335
916.236040	-2.982500	3.577500	-10.669000	25.452944	0.001039	20.838120
917.233605	-3.004800	3.577200	-10.747000	25.483039	0.001041	20.849374
918.233825	-3.009700	3.574100	-10.756000	25.505032	0.001041	20.845856
919.233756	-3.012800	3.575200	-10.770000	25.505429	0.001039	20.865694
920.233722	-2.991400	3.576800	-10.698000	25.496284	0.001038	20.846080
921.235641	-3.010800	3.574600	-10.761000	25.527645	0.001038	20.850546
922.235127	-3.022200	3.574300	-10.801000	25.554906	0.001038	20.878870
923.237936	-3.015700	3.575200	-10.781000	25.595036	0.001037	20.862275
924.234294	-3.011100	3.574800	-10.763000	25.613597	0.001038	20.843459
925.235714	-3.003300	3.573100	-10.731000	25.631141	0.001037	20.874353
926.240258	-3.016800	3.572300	-10.775000	25.656211	0.001036	20.892419
927.239401	-2.979900	3.572800	-10.646000	25.637402	0.001034	20.894864
928.236469	-3.003500	3.571100	-10.723000	25.635016	0.001033	20.853117
929.241364	-2.999900	3.573600	-10.718000	25.668186	0.001035	20.875051
930.239518	-2.981800	3.573500	-10.654000	25.683293	0.001033	20.854189
931.239923	-3.000900	3.571000	-10.715000	25.678175	0.001033	20.861850
932.240017	-2.987600	3.572700	-10.671000	25.616380	0.001033	20.868538
933.241368	-2.997600	3.571900	-10.706000	25.625624	0.001032	20.861227
934.240165	-3.020200	3.569400	-10.778000	25.631686	0.001033	20.863996
935.239964	-2.995100	3.570700	-10.692000	25.633401	0.001030	20.863822
936.241610	-2.977700	3.571300	-10.633000	25.643539	0.001031	20.861202
937.242478	-2.989500	3.570300	-10.672000	25.665652	0.001028	20.868713
938.240602	-2.983100	3.569400	-10.646000	25.663814	0.001030	20.868289
939.242396	-2.997100	3.569300	-10.697000	25.667590	0.001030	20.853116
940.241154	-2.985500	3.570000	-10.657000	25.644159	0.001028	20.858506
941.242023	-2.995100	3.568800	-10.688000	25.610938	0.001029	20.878245
942.243517	-2.996100	3.568800	-10.691000	25.590488	0.001027	20.872879
943.242829	-3.003300	3.567800	-10.714000	25.574833	0.001026	20.872330
944.242502	-3.018100	3.567100	-10.764000	25.583182	0.001026	20.893042
945.245321	-2.984700	3.567800	-10.649000	25.578510	0.001025	20.886928
946.244414	-3.013800	3.568600	-10.754000	25.609994	0.001024	20.891520
947.245000	-2.987100	3.567000	-10.654000	25.637749	0.001024	20.879567
948.245760	-2.994600	3.567700	-10.684000	25.645003	0.001024	20.863621
949.246372	-3.018500	3.566900	-10.766000	25.666794	0.001023	20.886927
950.246134	-2.984000	3.567100	-10.643000	25.668061	0.001023	20.901949
951.249177	-3.020000	3.564700	-10.763000	25.700114	0.001023	20.865393
952.247705	-2.984000	3.566500	-10.642000	25.735220	0.001021	20.875050
953.246555	-3.002000	3.565700	-10.703000	25.757953	0.001021	20.893615
954.246838	-2.993700	3.565400	-10.672000	25.781109	0.001021	20.880366
955.251634	-3.009200	3.563700	-10.722000	25.786127	0.001020	20.874502
956.248191	-2.993000	3.564300	-10.666000	25.812958	0.001020	20.873953
957.248588	-3.017600	3.562700	-10.750000	25.831492	0.001019	20.879293
958.251559	-2.980900	3.564600	-10.625000	25.843192	0.001017	20.888201
959.250138	-3.029800	3.561800	-10.790000	25.840286	0.001020	20.878170
960.253595	-3.002800	3.562900	-10.697000	25.821406	0.001017	20.890498
961.260500	-3.017500	3.562700	-10.749000	25.796935	0.001016	20.884409
962.251248	-3.010100	3.563500	-10.725000	25.748738	0.001015	20.865869
963.250312	-3.021900	3.560900	-10.760000	25.720935	0.001017	20.891521
964.253050	-2.986900	3.562800	-10.641000	25.709606	0.001015	20.870660
965.250275	-2.994300	3.561300	-10.662000	25.733458	0.001016	20.887504
966.257625	-2.984900	3.561200	-10.628000	25.727819	0.001012	20.882788
967.250385	-2.998500	3.561500	-10.677000	25.718129	0.001013	20.887280
968.252892	-2.999600	3.559200	-10.674000	25.682650	0.001014	20.883413
969.254401	-2.990900	3.561000	-10.648000	25.664984	0.001013	20.901230
970.251385	-2.986500	3.559600	-10.629000	25.693732	0.001012	20.889802
971.254757	-3.005100	3.560300	-10.698000	25.693484	0.001013	20.883863
972.254265	-3.004900	3.557700	-10.690000	25.710155	0.001011	20.894917
973.251599	-3.016300	3.557300	-10.728000	25.735201	0.001012	20.889254
974.255666	-2.990300	3.558600	-10.640000	25.744343	0.001008	20.898437
975.253238	-3.010700	3.557500	-10.710000	25.735524	0.001008	20.876303
976.253704	-2.979500	3.557700	-10.598000	25.693635	0.001011	20.916728
977.256598	-2.979700	3.557300	-10.599000	25.727823	0.001010	20.888007
978.253270	-2.981000	3.557900	-10.605000	25.752693	0.001007	20.896866
979.254728	-3.007800	3.554900	-10.691000	25.751600	0.001007	20.888657
980.255590	-2.979900	3.556400	-10.597000	25.775426	0.001006	20.913061
981.256137	-3.006800	3.554600	-10.687000	25.795078	0.001005	20.893449
982.255650	-2.986300	3.556600	-10.620000	25.773092	0.001004	20.894597
983.255373	-2.987600	3.554700	-10.619000	25.792223	0.001006	20.911915
984.255785	-2.976700	3.555800	-10.583000	25.794632	0.001005	20.901061
985.255138	-2.989800	3.552600	-10.620000	25.795726	0.001004	20.915434
986.253763	-2.985700	3.554700	-10.612000	25.821315	0.001004	20.906052
987.256927	-2.990600	3.554100	-10.627000	25.824968	0.001004	20.892653
988.257226	-3.009200	3.553800	-10.693000	25.825689	0.001003	20.901911
989.254864	-2.998200	3.552500	-10.649000	25.825589	0.001002	20.917457
990.256767	-2.977200	3.551700	-10.574000	25.823976	0.001001	20.899717
991.256052	-3.000200	3.552900	-10.658000	25.808176	0.000999	20.921301
992.256494	-3.016000	3.550700	-10.707000	25.824771	0.000999	20.903361
993.256531	-3.024700	3.549900	-10.736000	25.822660	0.000998	20.908352
994.260165	-2.969600	3.552600	-10.548000	25.842312	0.000999	20.906755
995.256234	-3.004100	3.551100	-10.665000	25.852473	0.001000	20.928340
996.256547	-2.994000	3.552000	-10.634000	25.823780	0.000998	20.916588
997.258642	-2.991200	3.549300	-10.615000	25.795235	0.000997	20.909726
998.255809	-2.997100	3.550200	-10.639000	25.770516	0.000997	20.919508
999.256582	-3.004200	3.548400	-10.659000	25.744503	0.000996	20.910924
1000.258026	-2.997400	3.549300	-10.637000	25.708851	0.000998	20.906883
1001.257656	-3.013900	3.548700	-10.694000	25.745175	0.000996	20.921555
1002.255206	-2.976200	3.548400	-10.559000	25.714641	0.000996	20.928817
1003.259195	-2.975800	3.549200	-10.559000	25.674142	0.000994	20.933183
1004.257884	-2.998100	3.546800	-10.632000	25.685348	0.000993	20.902716
1005.257829	-2.993200	3.547300	-10.616000	25.681646	0.000994	20.923178
1006.260469	-3.008700	3.546800	-10.670000	25.695139	0.000992	20.922506
1007.256593	-3.013200	3.545300	-10.680000	25.752183	0.000991	20.890665
1008.258602	-2.999300	3.545800	-10.634000	25.770070	0.000992	20.911475
1009.261881	-3.016400	3.545200	-10.693000	25.802269	0.000990	20.924376
1010.260245	-2.997800	3.546600	-10.631000	25.825075	0.000990	20.927371
1011.261771	-3.008200	3.543800	-10.660000	25.806319	0.000989	20.924651
1012.258332	-3.001400	3.544000	-10.636000	25.810492	0.000988	20.916990
1013.261663	-2.984200	3.544600	-10.576000	25.813424	0.000989	20.941269
1014.263839	-3.005200	3.545000	-10.651000	25.824182	0.000989	20.899449
1015.258258	-2.991400	3.544000	-10.600000	25.816729	0.000989	20.908083
1016.258930	-2.987500	3.543100	-10.584000	25.815089	0.000987	20.928719
1017.259875	-3.003900	3.543500	-10.643000	25.821598	0.000987	20.920085
1018.261181	-2.987100	3.542700	-10.580000	25.855434	0.000986	20.931788
1019.259817	-3.001300	3.543200	-10.633000	25.840007	0.000987	20.927197
1020.260881	-3.006100	3.542100	-10.647000	25.870414	0.000986	20.944464
1021.265421	-3.010600	3.542000	-10.662000	25.847882	0.000984	20.927047
1022.260717	-2.999800	3.541800	-10.624000	25.852726	0.000985	20.915793
1023.271146	-2.999200	3.540800	-10.619000	25.868874	0.000986	20.936754
1024.261835	-3.013200	3.540600	-10.668000	25.913340	0.000982	20.909356
1025.261226	-3.006900	3.540200	-10.644000	25.926878	0.000984	20.950452
1026.263216	-2.998800	3.540300	-10.616000	25.946676	0.000982	20.925300
1027.263572	-3.001200	3.538800	-10.620000	25.950253	0.000981	20.942643
1028.262938	-3.001200	3.539500	-10.622000	25.952041	0.000981	20.952972
1029.268663	-3.015000	3.537100	-10.663000	25.974422	0.000980	20.902444
1030.263931	-3.018100	3.537600	-10.676000	25.953083	0.000981	20.932211
1031.263232	-3.009800	3.537700	-10.647000	25.976159	0.000979	20.945436
1032.265474	-2.953200	3.539100	-10.450000	25.975838	0.000976	20.922356
1033.263186	-3.020800	3.537400	-10.684000	25.997447	0.000978	20.944064
1034.266029	-2.993700	3.538500	-10.593000	25.991586	0.000978	20.916841
1035.267434	-2.981800	3.537500	-10.547000	25.982867	0.000977	20.944114
1036.266826	-2.982500	3.536400	-10.546000	25.951097	0.000974	20.938749
1037.264934	-2.993000	3.537400	-10.586000	25.941012	0.000978	20.945686
1038.265501	-2.990100	3.535500	-10.571000	25.919350	0.000974	20.920608
1039.264905	-2.993300	3.535700	-10.583000	25.899180	0.000974	20.926897
1040.265269	-3.002000	3.534800	-10.610000	25.885591	0.000973	20.917515
1041.266443	-3.003200	3.533500	-10.610000	25.905713	0.000973	20.922081
1042.265465	-2.992300	3.534500	-10.575000	25.925288	0.000973	20.926099
1043.269053	-3.000100	3.533800	-10.601000	25.941757	0.000971	20.917515
1044.267353	-2.991500	3.535100	-10.575000	25.963716	0.000973	20.931988
1045.271656	-3.004900	3.533600	-10.617000	25.980036	0.000972	20.927048
1046.272550	-3.023800	3.533500	-10.683000	26.005894	0.000971	20.935008
1047.268517	-2.997200	3.533900	-10.591000	26.023231	0.000971	20.910703
1048.273265	-3.003300	3.532800	-10.609000	26.054205	0.000971	20.925227
1049.271683	-2.990700	3.532600	-10.564000	26.093994	0.000971	20.908783
1050.270271	-3.000600	3.533200	-10.599000	26.098564	0.000970	20.920012
1051.272451	-3.013800	3.530200	-10.638000	26.121488	0.000968	20.916019
1052.268547	-3.001100	3.531000	-10.596000	26.134478	0.000967	20.927648
1053.268436	-2.989800	3.531200	-10.557000	26.138651	0.000968	20.916669
1054.270820	-3.009400	3.529200	-10.620000	26.168354	0.000967	20.914748
1055.271236	-3.006900	3.529700	-10.612000	26.144637	0.000967	20.932165
1056.268607	-3.038700	3.527700	-10.718000	26.148735	0.000966	20.888872
1057.271719	-3.005100	3.529500	-10.606000	26.131971	0.000967	20.922284
1058.272373	-3.000500	3.529300	-10.588000	26.118087	0.000967	20.907387
1059.271183	-3.007800	3.528800	-10.612000	26.105148	0.000965	20.909558
1060.270288	-2.971600	3.528600	-10.484000	26.070799	0.000963	20.893539
1061.274903	-2.988300	3.527100	-10.539000	26.057015	0.000961	20.917619
1062.271321	-3.016300	3.526400	-10.636000	26.059895	0.000962	20.895859
1063.272011	-2.978200	3.527700	-10.505000	26.052767	0.000960	20.918094
1064.278713	-3.009800	3.526800	-10.611000	26.012382	0.000962	20.895063
1065.275103	-2.990300	3.526100	-10.543000	26.004408	0.000960	20.910284
1066.273799	-2.999300	3.527200	-10.577000	25.973384	0.000958	20.893341
1067.276688	-2.989700	3.526100	-10.540000	25.957139	0.000958	20.906417
1068.276444	-3.005700	3.524100	-10.592000	25.993530	0.000959	20.894615
1069.275233	-3.017600	3.523900	-10.632000	26.002820	0.000959	20.885457
1070.276881	-2.990200	3.523100	-10.534000	26.011191	0.000956	20.891022
1071.280296	-3.004600	3.520900	-10.578000	26.045419	0.000958	20.890324
1072.276954	-2.987000	3.523900	-10.525000	26.044525	0.000959	20.894642
1073.276765	-2.991500	3.522600	-10.537000	26.054983	0.000958	20.895666
1074.282211	-2.998100	3.522300	-10.559000	26.033051	0.000955	20.885959
1075.277721	-3.028000	3.520800	-10.659000	25.986181	0.000957	20.879173
1076.277833	-2.999600	3.522700	-10.565000	25.936029	0.000956	20.889478
1077.282197	-3.012100	3.520600	-10.604000	25.900706	0.000956	20.877700
1078.279759	-2.995700	3.523000	-10.552000	25.836017	0.000954	20.873408
1079.280709	-2.983000	3.521100	-10.502000	25.829533	0.000955	20.854568
1080.278906	-2.964600	3.521500	-10.438000	25.800467	0.000952	20.886060
1081.279649	-3.000400	3.521200	-10.563000	25.860563	0.000953	20.888581
1082.280100	-3.014600	3.519500	-10.608000	25.862103	0.000953	20.883965
1083.279113	-3.000200	3.518900	-10.555000	25.865731	0.000951	20.856791
1084.278325	-3.003300	3.518000	-10.564000	25.905948	0.000952	20.867320
1085.281415	-2.970900	3.521500	-10.460000	25.902000	0.000951	20.872836
1086.285280	-3.007000	3.518500	-10.579000	25.929424	0.000950	20.879998
1087.284877	-2.999800	3.517900	-10.552000	25.945819	0.000949	20.875132
1088.280818	-3.014900	3.516700	-10.602000	25.960474	0.000951	20.884165
1089.283192	-3.008200	3.517500	-10.580000	26.001062	0.000947	20.878002
1090.284121	-2.980300	3.516100	-10.477000	26.028781	0.000946	20.874083
1091.284878	-2.988000	3.516400	-10.505000	26.025628	0.000947	20.871389
1092.282135	-3.006200	3.514200	-10.563000	26.003049	0.000944	20.884739
1093.284483	-3.012900	3.514200	-10.586000	25.987203	0.000946	20.869294
1094.281964	-3.000800	3.513800	-10.544000	25.997883	0.000945	20.856792
1095.282945	-2.986500	3.515800	-10.498000	25.997386	0.000943	20.856292
1096.284868	-2.984800	3.515300	-10.491000	25.972772	0.000943	20.877080
1097.283262	-2.995000	3.515700	-10.529000	25.946938	0.000943	20.884316
1098.282450	-3.004000	3.513100	-10.553000	25.929177	0.000942	20.875483
1099.285206	-3.002200	3.511600	-10.542000	25.888537	0.000941	20.875907
1100.283234	-3.003400	3.512500	-10.548000	25.872489	0.000941	20.872588
1101.283373	-3.005200	3.512300	-10.553000	25.884786	0.000941	20.887785
1102.283701	-2.994700	3.512000	-10.516000	25.916857	0.000939	20.853150
1103.284515	-3.020300	3.510500	-10.602000	25.938519	0.000939	20.862583
1104.287729	-3.003000	3.512000	-10.546000	25.975431	0.000939	20.855572
1105.284420	-2.994900	3.512400	-10.519000	26.000992	0.000939	20.857544
1106.287606	-3.023900	3.509300	-10.610000	25.988870	0.000938	20.851530
1107.286640	-2.997100	3.510700	-10.521000	25.950916	0.000937	20.854176
1108.284869	-2.991600	3.510800	-10.502000	25.936980	0.000938	20.846814
1109.287961	-3.015400	3.510200	-10.584000	25.966789	0.000935	20.853053
1110.286819	-3.002400	3.508100	-10.531000	25.981148	0.000936	20.861314
1111.286444	-2.987700	3.509800	-10.485000	25.997243	0.000934	20.836234
1112.290793	-2.993100	3.508200	-10.499000	26.000323	0.000935	20.848812
1113.289029	-3.009800	3.506900	-10.553000	26.009937	0.000934	20.863212
1114.288941	-3.000500	3.505300	-10.517000	26.026778	0.000932	20.843623
1115.287910	-2.981900	3.508300	-10.461000	26.035198	0.000932	20.850186
1116.287716	-2.978100	3.506800	-10.442000	25.996104	0.000931	20.850737
1117.292546	-2.993800	3.506700	-10.497000	25.980406	0.000930	20.840655
1118.290985	-2.987200	3.506700	-10.474000	25.992527	0.000931	20.846195
1119.291334	-2.988900	3.504600	-10.474000	25.995955	0.000930	20.861018
1120.292943	-3.003200	3.505100	-10.525000	25.992032	0.000931	20.851861
1121.290617	-2.965600	3.506100	-10.396000	25.999483	0.000929	20.836115
1122.290710	-3.009500	3.503700	-10.543000	26.028372	0.000930	20.855181
1123.290443	-2.998900	3.504800	-10.510000	26.076954	0.000927	20.848518
1124.292282	-3.023200	3.501800	-10.585000	26.109616	0.000928	20.863791
1125.294701	-3.004600	3.503400	-10.525000	26.101643	0.000927	20.834918
1126.291976	-2.992900	3.503700	-10.485000	26.073925	0.000928	20.844527
1127.294619	-3.030900	3.501600	-10.610000	26.064090	0.000928	20.850765
1128.296707	-2.981400	3.502300	-10.440000	26.027579	0.000924	20.830678
1129.295196	-3.008100	3.501500	-10.532000	25.996928	0.000926	20.850142
1130.294209	-3.017000	3.499900	-10.558000	26.002542	0.000924	20.833972
1131.297988	-3.018800	3.499800	-10.564000	26.019804	0.000924	20.849418
1132.298162	-2.987000	3.499800	-10.452000	26.046904	0.000923	20.854835
1133.295054	-2.976500	3.500500	-10.418000	26.050530	0.000924	20.833822
1134.297526	-3.000400	3.500900	-10.502000	26.028449	0.000923	20.855733
1135.294372	-3.005300	3.499400	-10.515000	26.005872	0.000924	20.836369
1136.294923	-2.983800	3.499700	-10.442000	25.999985	0.000920	20.838515
1137.296200	-3.012300	3.499200	-10.539000	25.994969	0.000919	20.832527
1138.299379	-3.002600	3.497800	-10.501000	25.996210	0.000919	20.838516
1139.296161	-3.021800	3.496700	-10.566000	25.961858	0.000918	20.826763
1140.296871	-3.004500	3.497700	-10.508000	25.981952	0.000919	20.821821
1141.298507	-3.014200	3.497000	-10.539000	26.024154	0.000918	20.843832
1142.297022	-3.014100	3.496800	-10.539000	26.014940	0.000916	20.828410
1143.295652	-3.013200	3.496300	-10.533000	25.995093	0.000917	20.846403
1144.296123	-2.994400	3.495000	-10.464000	25.988511	0.000917	20.815608
1145.297117	-2.988300	3.495200	-10.443000	25.964093	0.000915	20.841811
1146.295969	-2.980700	3.494900	-10.415000	25.953537	0.000915	20.823619
1147.297775	-3.003600	3.497200	-10.503000	25.966652	0.000913	20.833001
1148.297744	-2.981000	3.494000	-10.414000	25.931229	0.000913	20.837718
1149.303879	-2.989200	3.494400	-10.444000	25.919729	0.000915	20.832328
1150.299589	-3.009900	3.492900	-10.511000	25.946630	0.000912	20.834698
1151.302246	-3.003900	3.493100	-10.492000	26.004531	0.000912	20.812738
1152.299484	-3.005800	3.492800	-10.497000	25.996980	0.000912	20.830281
1153.299447	-3.000600	3.492000	-10.477000	25.997674	0.000911	20.826711
1154.301842	-2.999300	3.492200	-10.472000	26.013596	0.000910	20.821845
1155.300647	-3.018300	3.489100	-10.530000	26.026438	0.000910	20.820522
1156.299349	-2.989700	3.492000	-10.439000	26.057014	0.000911	20.806673
1157.302619	-2.990100	3.491100	-10.438000	26.104676	0.000908	20.815681
1158.304649	-3.012900	3.489800	-10.513000	26.126159	0.000906	20.820198
1159.300634	-3.001100	3.489000	-10.470000	26.145431	0.000906	20.852363
1160.300993	-2.999200	3.490400	-10.466000	26.150820	0.000907	20.835020
1161.303355	-2.992300	3.488900	-10.439000	26.102290	0.000908	20.800008
1162.301138	-3.001100	3.487100	-10.462000	26.125885	0.000906	20.839836
1163.301225	-2.976000	3.488500	-10.381000	26.119203	0.000905	20.822691
1164.305570	-3.010000	3.486500	-10.493000	26.111602	0.000904	20.824537
1165.303006	-2.989300	3.487400	-10.424000	26.078097	0.000901	20.796088
1166.302392	-3.005200	3.487100	-10.478000	26.071590	0.000904	20.822740
1167.304424	-2.988300	3.487300	-10.420000	26.060237	0.000901	20.819395
1168.303181	-2.984600	3.488300	-10.409000	26.087011	0.000901	20.812157
1169.305957	-2.999200	3.484700	-10.450000	26.068905	0.000901	20.830000
1170.309293	-3.012000	3.485000	-10.496000	26.049382	0.000901	20.818920
1171.311863	-3.005100	3.485700	-10.474000	26.038130	0.000900	20.839381
1172.305060	-2.994800	3.484800	-10.435000	26.031274	0.000900	20.826804
1173.310001	-3.008500	3.483900	-10.480000	26.047270	0.000899	20.824383
1174.304766	-3.017200	3.482600	-10.506000	26.067015	0.000898	20.820040
1175.306938	-3.006900	3.483400	-10.474000	26.080824	0.000898	20.809260
1176.310093	-2.992900	3.482700	-10.423000	26.130149	0.000898	20.822785
1177.305084	-3.000300	3.482800	-10.447000	26.160224	0.000897	20.827400
1178.306742	-2.984000	3.481600	-10.387000	26.171598	0.000894	20.813226
1179.307296	-3.007200	3.482000	-10.469000	26.221863	0.000896	20.824380
1180.307235	-3.015700	3.481600	-10.498000	26.221490	0.000893	20.814048
1181.308365	-3.026400	3.479100	-10.528000	26.238402	0.000893	20.826301
1182.306974	-2.996100	3.481400	-10.430000	26.267580	0.000892	20.824803
1183.307947	-3.000100	3.480100	-10.440000	26.280394	0.000894	20.804964
1184.308454	-2.996900	3.480300	-10.429000	26.262340	0.000892	20.827124
1185.308298	-3.003800	3.478100	-10.446000	26.191439	0.000891	20.809929
1186.309688	-3.001600	3.479600	-10.443000	26.177010	0.000893	20.812500
1187.309803	-2.996800	3.479600	-10.426000	26.167548	0.000891	20.823380
1188.310872	-2.969600	3.480400	-10.334000	26.182125	0.000890	20.806734
1189.312238	-2.993300	3.477000	-10.406000	26.169509	0.000890	20.817289
1190.310863	-2.992200	3.476500	-10.402000	26.173308	0.000887	20.825375
1191.310656	-3.009400	3.476700	-10.462000	26.191015	0.000887	20.825624
1192.312575	-2.978500	3.478100	-10.359000	26.204624	0.000887	20.809428
1193.312037	-2.988600	3.477400	-10.391000	26.166378	0.000889	20.804187
1194.312550	-2.978100	3.476300	-10.352000	26.113726	0.000887	20.802490
1195.320888	-2.982200	3.475700	-10.364000	26.077414	0.000885	20.808678
1196.314382	-2.987700	3.476600	-10.387000	26.050888	0.000886	20.804311
1197.314559	-3.019300	3.474700	-10.489000	26.038544	0.000885	20.817039
1198.316234	-3.007700	3.474000	-10.448000	26.036729	0.000886	20.800517
1199.319089	-3.003300	3.473300	-10.430000	26.039858	0.000885	20.798445
1200.316712	-2.990200	3.475600	-10.391000	26.044702	0.000882	20.818484
1201.315978	-3.011500	3.473300	-10.458000	26.072942	0.000881	20.810348
1202.317058	-2.992900	3.471800	-10.389000	26.093084	0.000884	20.820155
1203.316103	-2.987700	3.473300	-10.375000	26.097356	0.000884	20.798369
1204.316425	-2.977200	3.472600	-10.337000	26.086949	0.000879	20.807827
1205.319376	-2.992900	3.472100	-10.391000	26.114517	0.000882	20.807552
1206.317929	-2.988700	3.470700	-10.371000	26.129666	0.000880	20.794799
1207.318771	-2.995700	3.470400	-10.395000	26.143996	0.000879	20.808724
1208.320431	-2.985000	3.471400	-10.360000	26.134683	0.000879	20.809322
1209.319965	-3.004200	3.470200	-10.424000	26.122786	0.000879	20.810645
1210.319188	-3.025000	3.467200	-10.486000	26.098595	0.000876	20.812890
1211.321225	-3.007100	3.467700	-10.426000	26.071473	0.000879	20.807925
1212.317413	-2.979800	3.469800	-10.339000	26.085729	0.000876	20.798067
1213.318347	-2.995000	3.467700	-10.385000	26.048622	0.000876	20.827164
1214.319022	-2.982600	3.468100	-10.343000	26.031657	0.000877	20.803956
1215.324622	-2.987500	3.469200	-10.362000	26.037792	0.000875	20.789257
1216.318540	-2.997700	3.466100	-10.388000	26.034290	0.000877	20.815135
1217.318760	-3.003600	3.466300	-10.410000	26.031582	0.000875	20.818579
1218.320975	-3.013700	3.466000	-10.444000	26.055104	0.000873	20.819452
1219.323854	-3.002100	3.465900	-10.403000	26.037320	0.000874	20.794946
1220.319906	-2.996300	3.465500	-10.383000	26.033842	0.000873	20.815159
1221.321164	-2.989500	3.463600	-10.354000	26.019709	0.000873	20.809494
1222.318837	-3.003900	3.464000	-10.404000	26.005675	0.000873	20.781170
1223.320208	-2.990800	3.463600	-10.357000	26.025073	0.000872	20.812988
1224.318712	-2.996300	3.463500	-10.377000	26.035206	0.000871	20.791875
1225.319908	-3.013700	3.463100	-10.436000	26.044919	0.000869	20.790254
1226.319929	-2.984700	3.463000	-10.335000	26.040870	0.000869	20.817479
1227.319613	-3.002600	3.460700	-10.390000	26.041491	0.000869	20.797241
1228.319772	-2.987200	3.461400	-10.339000	26.093550	0.000867	20.794071
1229.319531	-2.973700	3.462500	-10.296000	26.116176	0.000867	20.797365
1230.320587	-2.978300	3.462100	-10.309000	26.114834	0.000865	20.805026
1231.320334	-2.984000	3.461500	-10.328000	26.108774	0.000868	20.814109
1232.321432	-2.998600	3.460600	-10.375000	26.064193	0.000865	20.801084
1233.320915	-2.985300	3.460100	-10.328000	26.028847	0.000864	20.791175
1234.321440	-2.994400	3.459700	-10.358000	26.028947	0.000864	20.785585
1235.321886	-3.029800	3.458000	-10.476000	26.001798	0.000863	20.784861
1236.321362	-2.983100	3.459400	-10.319000	25.953983	0.000863	20.791825
1237.323992	-2.987500	3.459200	-10.333000	25.960391	0.000864	20.800634
1238.323571	-3.004700	3.456800	-10.385000	25.922013	0.000862	20.787682
1239.324128	-3.012300	3.454900	-10.407000	25.919057	0.000861	20.788980
1240.327744	-3.018200	3.455300	-10.427000	25.930210	0.000861	20.798288
1241.323798	-3.004700	3.456400	-10.384000	25.965855	0.000862	20.800908
1242.328557	-2.992400	3.455200	-10.339000	25.993899	0.000860	20.797788
1243.324802	-2.990000	3.456400	-10.334000	26.045314	0.000860	20.789228
1244.328223	-3.001700	3.453700	-10.366000	26.082969	0.000859	20.805725
1245.327422	-3.003300	3.455200	-10.376000	26.128345	0.000859	20.801058
1246.325565	-2.985200	3.453800	-10.309000	26.138826	0.000859	20.782191
1247.326712	-3.001700	3.454200	-10.367000	26.144562	0.000858	20.791274
1248.327866	-2.998500	3.454300	-10.357000	26.135721	0.000858	20.798512
1249.327835	-3.005100	3.453800	-10.378000	26.140514	0.000855	20.790052
1250.327553	-3.005100	3.453100	-10.376000	26.098864	0.000856	20.791824
1251.332095	-3.009000	3.451700	-10.385000	26.110214	0.000854	20.800858
1252.327301	-2.982700	3.452500	-10.297000	26.098640	0.000853	20.790177
1253.329023	-3.002100	3.450700	-10.357000	26.095114	0.000851	20.780943
1254.332296	-3.007000	3.450500	-10.373000	26.127997	0.000853	20.786010
1255.330329	-2.994000	3.451000	-10.331000	26.150175	0.000851	20.784112
1256.329686	-2.990900	3.450700	-10.319000	26.159116	0.000853	20.794045
1257.334883	-3.007200	3.448900	-10.369000	26.178039	0.000850	20.794094
1258.331891	-3.000000	3.448500	-10.345000	26.153279	0.000853	20.810465
1259.331942	-3.017700	3.448500	-10.406000	26.138924	0.000848	20.808369
1260.334922	-2.990200	3.448900	-10.312000	26.147195	0.000849	20.804351
1261.331686	-2.973100	3.449200	-10.253000	26.107779	0.000849	20.806471
1262.331851	-2.998300	3.447500	-10.336000	26.082246	0.000848	20.811636
1263.335918	-2.989700	3.447100	-10.305000	26.124916	0.000846	20.793345
1264.333254	-2.974300	3.447800	-10.253000	26.134751	0.000849	20.792796
1265.333387	-3.008500	3.445600	-10.364000	26.148982	0.000846	20.796190
1266.335390	-2.987900	3.446400	-10.297000	26.131572	0.000849	20.803826
1267.336000	-2.998800	3.446200	-10.334000	26.107357	0.000849	20.789452
1268.335157	-2.985200	3.446500	-10.286000	26.111454	0.000845	20.796414
1269.337793	-2.989900	3.445500	-10.300000	26.127574	0.000845	20.814507
1270.340878	-3.008400	3.442800	-10.356000	26.151017	0.000845	20.802976
1271.335793	-2.990800	3.444200	-10.300000	26.206748	0.000843	20.801605
1272.338692	-3.011100	3.442600	-10.365000	26.237293	0.000844	20.800531
1273.337284	-3.007700	3.441800	-10.351000	26.237442	0.000844	20.797836
1274.335785	-2.999700	3.442300	-10.325000	26.200191	0.000844	20.791697
1275.339859	-3.000900	3.442800	-10.331000	26.164428	0.000841	20.787055
1276.337897	-3.012300	3.442400	-10.368000	26.116645	0.000842	20.792146
1277.337816	-2.998300	3.441200	-10.317000	26.106388	0.000841	20.804125
1278.339146	-2.981300	3.442900	-10.264000	26.094391	0.000842	20.812459
1279.338760	-2.982900	3.440600	-10.262000	26.133931	0.000839	20.823265
1280.339176	-3.019700	3.439400	-10.385000	26.164552	0.000840	20.797610
1281.339963	-3.005200	3.438900	-10.333000	26.210447	0.000836	20.816227
1282.339305	-3.002000	3.438700	-10.322000	26.203121	0.000837	20.792270
1283.340731	-3.006100	3.438500	-10.335000	26.171903	0.000839	20.794091
1284.341378	-2.999400	3.437600	-10.309000	26.175132	0.000835	20.796862
1285.342453	-2.990600	3.438100	-10.280000	26.190753	0.000836	20.812558
1286.342792	-2.994000	3.437700	-10.291000	26.179800	0.000835	20.809139
1287.343242	-3.046400	3.434300	-10.460000	26.200090	0.000836	20.814829
1288.346065	-3.034400	3.435400	-10.423000	26.227283	0.000834	20.795213
1289.344597	-3.006300	3.435600	-10.328000	26.263987	0.000836	20.815502
1290.343504	-2.988600	3.436300	-10.267000	26.280128	0.000835	20.799007
1291.346350	-2.996800	3.435200	-10.294000	26.292221	0.000834	20.803099
1292.344314	-3.022000	3.432800	-10.373000	26.305903	0.000833	20.837237
1293.344100	-3.001100	3.432800	-10.301000	26.308635	0.000832	20.809163
1294.345180	-3.014500	3.433400	-10.348000	26.316059	0.000831	20.816624
1295.344658	-2.989700	3.434000	-10.266000	26.310844	0.000832	20.819444
1296.346960	-2.974400	3.433800	-10.212000	26.325047	0.000829	20.801476
1297.347229	-3.010400	3.433400	-10.334000	26.336370	0.000830	20.807639
1298.346297	-2.973900	3.433500	-10.210000	26.307490	0.000828	20.812754
1299.346742	-3.004600	3.431700	-10.310000	26.284247	0.000829	20.794138
1300.345899	-3.006900	3.432100	-10.319000	26.255814	0.000829	20.815350
1301.347003	-2.989800	3.430500	-10.255000	26.244365	0.000827	20.825655
1302.347029	-3.032300	3.429000	-10.397000	26.243395	0.000827	20.817095
1303.345781	-2.985800	3.431200	-10.243000	26.259711	0.000826	20.803619
1304.348773	-3.005500	3.429700	-10.307000	26.292589	0.000825	20.832866
1305.348489	-3.002100	3.429000	-10.293000	26.364822	0.000825	20.816320
1306.346710	-2.988200	3.429600	-10.246000	26.379224	0.000824	20.810880
1307.350026	-2.967900	3.429300	-10.177000	26.360899	0.000823	20.839403
1308.346704	-2.975500	3.429500	-10.203000	26.331152	0.000824	20.816619
1309.346501	-2.986200	3.428200	-10.236000	26.308256	0.000825	20.816843
1310.350837	-3.012100	3.426600	-10.320000	26.318238	0.000821	20.809806
1311.349117	-3.007300	3.427100	-10.306000	26.346372	0.000822	20.830967
1312.350086	-3.001900	3.427600	-10.287000	26.348382	0.000820	20.833462
1313.350242	-3.014800	3.427200	-10.331000	26.349425	0.000822	20.821708
1314.350049	-3.019000	3.426100	-10.342000	26.364497	0.000818	20.843493
1315.350855	-3.012400	3.424400	-10.314000	26.354614	0.000820	20.815069
1316.354489	-2.989500	3.425900	-10.241000	26.297924	0.000817	20.827322
1317.351093	-2.966300	3.424900	-10.158000	26.285507	0.000817	20.821482
1318.352662	-2.989400	3.423400	-10.231000	26.299338	0.000816	20.833010
1319.352789	-3.012400	3.424000	-10.313000	26.290994	0.000817	20.824151
1320.354979	-2.993000	3.423300	-10.246000	26.294346	0.000815	20.818037
1321.354944	-2.995600	3.422900	-10.253000	26.271401	0.000816	20.830065
1322.353377	-2.979100	3.424800	-10.201000	26.278379	0.000813	20.828543
1323.355988	-2.999300	3.421700	-10.262000	26.303857	0.000814	20.811948
1324.354515	-3.020700	3.420300	-10.331000	26.293898	0.000812	20.855992
1325.353093	-2.982100	3.420600	-10.199000	26.274579	0.000811	20.830888
1326.353874	-2.994900	3.420700	-10.244000	26.222304	0.000814	20.834781
1327.356472	-2.985000	3.421400	-10.212000	26.235765	0.000812	20.842142
1328.354527	-2.991800	3.419900	-10.230000	26.242916	0.000813	20.838898
1329.354843	-3.009800	3.418200	-10.287000	26.276217	0.000813	20.831586
1330.356427	-2.999500	3.419800	-10.257000	26.289080	0.000811	20.848780
1331.355344	-2.998200	3.417200	-10.245000	26.272740	0.000810	20.829040
1332.355806	-3.006800	3.417300	-10.274000	26.355008	0.000807	20.852922
1333.360009	-3.006100	3.416900	-10.271000	26.321957	0.000808	20.827768
1334.356493	-2.985800	3.417800	-10.204000	26.297324	0.000808	20.826719
1335.356389	-2.977000	3.418100	-10.174000	26.252997	0.000810	20.852347
1336.359558	-2.986600	3.416900	-10.204000	26.220168	0.000808	20.849702
1337.356197	-2.977700	3.416700	-10.173000	26.172361	0.000807	20.825845
1338.356929	-2.999400	3.416400	-10.246000	26.172584	0.000807	20.837923
1339.360661	-3.006100	3.414500	-10.263000	26.131556	0.000805	20.838422
1340.356768	-3.009600	3.414500	-10.275000	26.142632	0.000802	20.838172
1341.357185	-2.994500	3.414900	-10.225000	26.192501	0.000803	20.834229
1342.357745	-3.009600	3.414300	-10.275000	26.243460	0.000806	20.826643
1343.356202	-3.018800	3.412000	-10.298000	26.265288	0.000803	20.848578
1344.356654	-3.007900	3.413100	-10.265000	26.230621	0.000803	20.856887
1345.357654	-3.016700	3.412200	-10.293000	26.213734	0.000804	20.839444
1346.360956	-3.013400	3.411900	-10.280000	26.178991	0.000803	20.834878
1347.362385	-3.022500	3.412000	-10.312000	26.196275	0.000801	20.859358
1348.358550	-2.986500	3.411100	-10.186000	26.209885	0.000799	20.856439
1349.359448	-3.007300	3.410700	-10.256000	26.272216	0.000801	20.858384
1350.360377	-2.988200	3.411500	-10.193000	26.279666	0.000799	20.872034
1351.357766	-2.974300	3.410500	-10.143000	26.307925	0.000801	20.874355
1352.359597	-2.988800	3.410600	-10.193000	26.314753	0.000797	20.860355
1353.358570	-2.995700	3.409500	-10.213000	26.320837	0.000798	20.829487
1354.358003	-2.995200	3.408200	-10.207000	26.296551	0.000798	20.837322
1355.359083	-3.014000	3.407100	-10.268000	26.256794	0.000797	20.872282
1356.359720	-2.992600	3.408900	-10.201000	26.253640	0.000798	20.873855
1357.359593	-3.004000	3.409100	-10.240000	26.280087	0.000795	20.857759
1358.360703	-2.991400	3.407500	-10.192000	26.281353	0.000796	20.879893
1359.358652	-2.995700	3.407800	-10.208000	26.327317	0.000794	20.845956
1360.359053	-2.997200	3.406000	-10.207000	26.330321	0.000794	20.855138
1361.359325	-3.007700	3.405500	-10.241000	26.336132	0.000792	20.865719
1362.359421	-3.001700	3.404600	-10.217000	26.357462	0.000792	20.853017
1363.360260	-3.018600	3.405000	-10.276000	26.355102	0.000793	20.839741
1364.363863	-2.983500	3.406600	-10.163000	26.370720	0.000791	20.851170
1365.361162	-2.996700	3.404100	-10.200000	26.350235	0.000791	20.866617
1366.361209	-3.001800	3.404000	-10.217000	26.343233	0.000790	20.856261
1367.360958	-2.975300	3.404100	-10.127000	26.330346	0.000791	20.869387
1368.364671	-2.994200	3.402300	-10.186000	26.321928	0.000790	20.872780
1369.362641	-3.019100	3.402000	-10.269000	26.295283	0.000789	20.862599
1370.361099	-2.999000	3.402400	-10.203000	26.297592	0.000786	20.870134
1371.365377	-3.013600	3.401300	-10.250000	26.279588	0.000786	20.869585
1372.365034	-3.001100	3.401500	-10.207000	26.315644	0.000786	20.860776
1373.362201	-3.000300	3.402400	-10.208000	26.316091	0.000785	20.863122
1374.364910	-2.986600	3.401500	-10.159000	26.338762	0.000783	20.871207
1375.364411	-2.959100	3.402400	-10.067000	26.353239	0.000785	20.886229
1376.361521	-2.993300	3.400900	-10.178000	26.358578	0.000784	20.871207
1377.362038	-2.982300	3.400400	-10.140000	26.397784	0.000780	20.875998
1378.361443	-2.991800	3.399700	-10.170000	26.422490	0.000781	20.878543
1379.362656	-2.985500	3.399300	-10.148000	26.460800	0.000780	20.881014
1380.362490	-3.023300	3.397700	-10.270000	26.495410	0.000782	20.887352
1381.364717	-2.995300	3.397500	-10.176000	26.501294	0.000781	20.866241
1382.363550	-3.008700	3.399400	-10.227000	26.479670	0.000781	20.896185
1383.364274	-3.034800	3.396000	-10.305000	26.474679	0.000782	20.869834
1384.365792	-3.014900	3.395900	-10.237000	26.444860	0.000782	20.869734
1385.363924	-3.010200	3.396300	-10.222000	26.398380	0.000779	20.885605
1386.364541	-3.017700	3.395000	-10.243000	26.378317	0.000779	20.863545
1387.365394	-2.992900	3.395100	-10.160000	26.382463	0.000780	20.878143
1388.363451	-3.018000	3.394600	-10.242000	26.416852	0.000781	20.879041
1389.365611	-3.013800	3.393200	-10.225000	26.421173	0.000776	20.877220
1390.367599	-3.012700	3.395100	-10.227000	26.474877	0.000777	20.863395
1391.364970	-2.997300	3.393600	-10.171000	26.499382	0.000776	20.884232
1392.364152	-2.996100	3.393700	-10.167000	26.533668	0.000776	20.892616
1393.367514	-2.980400	3.392500	-10.111000	26.537516	0.000776	20.887476
1394.365886	-3.013400	3.392900	-10.223000	26.567506	0.000773	20.896758
1395.365977	-3.003500	3.392700	-10.188000	26.595138	0.000777	20.891344
1396.368153	-3.010900	3.390500	-10.207000	26.649453	0.000776	20.903745
1397.365795	-3.009100	3.391200	-10.203000	26.694508	0.000773	20.876970
1398.365503	-3.005400	3.390400	-10.189000	26.693888	0.000774	20.876347
1399.366543	-2.992400	3.390600	-10.145000	26.699944	0.000774	20.890495
1400.366313	-2.975800	3.391100	-10.089000	26.657694	0.000773	20.907762
1401.366318	-2.982700	3.389200	-10.108000	26.618348	0.000774	20.884805
1402.367805	-2.990700	3.390400	-10.138000	26.571330	0.000770	20.886852
1403.367271	-2.987900	3.388300	-10.123000	26.555168	0.000772	20.902373
1404.367187	-2.996400	3.387500	-10.150000	26.583692	0.000770	20.874624
1405.367223	-2.995300	3.388400	-10.148000	26.590792	0.000768	20.881761
1406.367081	-2.989500	3.387800	-10.126000	26.600896	0.000770	20.890020
1407.366854	-2.981900	3.388300	-10.102000	26.598439	0.000769	20.873327
1408.367416	-3.012100	3.385300	-10.196000	26.605440	0.000768	20.871830
1409.368632	-3.001900	3.385500	-10.162000	26.617107	0.000768	20.915323
1410.368671	-3.013100	3.386400	-10.203000	26.588732	0.000766	20.892491
1411.368389	-2.998100	3.386400	-10.152000	26.654715	0.000764	20.891018
1412.367708	-2.999300	3.384400	-10.150000	26.634061	0.000766	20.903919
1413.373471	-3.036900	3.383300	-10.273000	26.590296	0.000762	20.907812
1414.369352	-3.011500	3.384000	-10.190000	26.575996	0.000766	20.912877
1415.370498	-2.995000	3.384400	-10.135000	26.550723	0.000766	20.889845
1416.373685	-3.016200	3.382400	-10.201000	26.541165	0.000762	20.902048
1417.368526	-2.984200	3.383700	-10.095000	26.487116	0.000763	20.901299
1418.369874	-3.014400	3.382000	-10.193000	26.438601	0.000762	20.909433
1419.371074	-3.009100	3.382000	-10.177000	26.460723	0.000761	20.891367
1420.370930	-3.002900	3.381500	-10.153000	26.457272	0.000762	20.922982
1421.371323	-2.976000	3.382200	-10.065000	26.461319	0.000760	20.907137
1422.373075	-3.000500	3.381700	-10.145000	26.502509	0.000759	20.917717
1423.371894	-2.969900	3.382400	-10.044000	26.563855	0.000757	20.902571
1424.372456	-2.990500	3.380400	-10.108000	26.573611	0.000759	20.924230
1425.372397	-3.016500	3.380000	-10.194000	26.584932	0.000757	20.919489
1426.372077	-2.980800	3.380100	-10.073000	26.570707	0.000757	20.903768
1427.372092	-2.984400	3.378900	-10.083000	26.608814	0.000757	20.922633
1428.374613	-2.999300	3.379800	-10.136000	26.649575	0.000756	20.932314
1429.371431	-2.986500	3.377800	-10.087000	26.660895	0.000754	20.914298
1430.371439	-3.004900	3.377200	-10.147000	26.679165	0.000754	20.917018
1431.372002	-3.003200	3.377300	-10.142000	26.662409	0.000754	20.884529
1432.372438	-2.998200	3.377500	-10.125000	26.644288	0.000754	20.935533
1433.371792	-2.987800	3.377100	-10.089000	26.610725	0.000751	20.930243
1434.375207	-2.999900	3.375600	-10.125000	26.550474	0.000752	20.914249
1435.371805	-3.005700	3.376800	-10.148000	26.517132	0.000753	20.916295
1436.371580	-2.963300	3.376500	-10.004000	26.501715	0.000753	20.928298
1437.376302	-3.013800	3.375200	-10.171000	26.506283	0.000751	20.921985
1438.373974	-3.001000	3.375300	-10.128000	26.517232	0.000749	20.934411
1439.371929	-2.982900	3.375400	-10.067000	26.524059	0.000749	20.919939
1440.374329	-3.012800	3.374300	-10.165000	26.518225	0.000748	20.935410
1441.376994	-3.002500	3.375200	-10.132000	26.544244	0.000748	20.916995
1442.376320	-2.999500	3.373200	-10.117000	26.511299	0.000746	20.933663
1443.374889	-2.979100	3.374500	-10.053000	26.520956	0.000747	20.932466
1444.375181	-2.981800	3.374000	-10.060000	26.551941	0.000746	20.925679
1445.373381	-3.009800	3.372200	-10.147000	26.607078	0.000745	20.910932
1446.374697	-2.995100	3.372300	-10.098000	26.623537	0.000745	20.929846
1447.377389	-2.997000	3.372100	-10.105000	26.648883	0.000745	20.936834
1448.378797	-2.999100	3.369900	-10.105000	26.663306	0.000746	20.929996
1449.377300	-2.993300	3.369400	-10.086000	26.707044	0.000743	20.937931
1450.377329	-2.995900	3.370100	-10.096000	26.727622	0.000744	20.933964
1451.377995	-3.003200	3.369200	-10.118000	26.768701	0.000742	20.927850
1452.379626	-2.996100	3.369800	-10.095000	26.732040	0.000741	20.934613
1453.382217	-3.025200	3.367700	-10.187000	26.730824	0.000742	20.925330
1454.377832	-3.006300	3.368100	-10.124000	26.724718	0.000741	20.922511
1455.377608	-2.985400	3.369000	-10.057000	26.713721	0.000739	20.941325
1456.377825	-2.992200	3.369600	-10.082000	26.704760	0.000738	20.924257
1457.378329	-3.000700	3.368100	-10.106000	26.668022	0.000740	20.933789
1458.378567	-2.993300	3.367900	-10.081000	26.627881	0.000737	20.916671
1459.381314	-3.005800	3.365500	-10.115000	26.614526	0.000738	20.941649
1460.377963	-2.990900	3.366400	-10.067000	26.614551	0.000738	20.959689
1461.377854	-2.994900	3.366000	-10.080000	26.666309	0.000737	20.956246
1462.382186	-3.001800	3.365000	-10.099000	26.670901	0.000735	20.946639
1463.380469	-3.012400	3.363400	-10.131000	26.695451	0.000736	20.935760
1464.381226	-2.992900	3.364400	-10.068000	26.650323	0.000735	20.952503
1465.385334	-3.016600	3.364700	-10.150000	26.623189	0.000735	20.938031
1466.384776	-3.006500	3.363400	-10.112000	26.650446	0.000733	20.945990
1467.383723	-3.005500	3.362100	-10.104000	26.644165	0.000735	20.953899
1468.386293	-2.990200	3.362000	-10.052000	26.648361	0.000734	20.954798
1469.385635	-2.984400	3.363000	-10.035000	26.682965	0.000733	20.936483
1470.383501	-3.016700	3.362300	-10.142000	26.634584	0.000731	20.941898
1471.386307	-2.994700	3.361900	-10.067000	26.602609	0.000733	20.932041
1472.382972	-3.000600	3.360700	-10.083000	26.594838	0.000731	20.957417
1473.383981	-2.976100	3.362400	-10.006000	26.627234	0.000731	20.954423
1474.384590	-3.006600	3.360100	-10.102000	26.649303	0.000731	20.948160
1475.387608	-3.002400	3.360800	-10.090000	26.662982	0.000730	20.966650
1476.384275	-3.006000	3.359900	-10.099000	26.632125	0.000730	20.959339
1477.386466	-2.990400	3.359200	-10.045000	26.636420	0.000729	20.933788
1478.384426	-2.971500	3.360400	-9.984000	26.662807	0.000727	20.967423
1479.384398	-2.968300	3.360100	-9.972500	26.718584	0.000726	20.954747
1480.386358	-2.995400	3.357800	-10.057000	26.772050	0.000729	20.951129
1481.387259	-3.000100	3.358000	-10.073000	26.800470	0.000729	20.963579
1482.384146	-2.990700	3.359000	-10.045000	26.806948	0.000725	20.956344
1483.385359	-2.997700	3.357200	-10.063000	26.811117	0.000724	20.942045
1484.386584	-3.004100	3.356000	-10.081000	26.811862	0.000723	20.960810
1485.384786	-2.974900	3.357500	-9.987200	26.766663	0.000723	20.954247
1486.386002	-3.003300	3.357100	-10.081000	26.730201	0.000723	20.954572
1487.387112	-3.019600	3.354600	-10.128000	26.731342	0.000721	20.973260
1488.385718	-2.999900	3.354100	-10.061000	26.716001	0.000722	20.967321
1489.386683	-3.001300	3.353300	-10.062000	26.714562	0.000722	20.957340
1490.385250	-2.995000	3.354300	-10.045000	26.740054	0.000719	20.954995
1491.386025	-3.003000	3.352800	-10.067000	26.768276	0.000721	20.962980
1492.386246	-3.012100	3.354000	-10.102000	26.761574	0.000719	20.973783
1493.385469	-2.980600	3.355400	-9.999200	26.788579	0.000717	20.952574
1494.393843	-3.005300	3.352000	-10.073000	26.809229	0.000718	20.961008
1495.391550	-3.013100	3.351800	-10.097000	26.831047	0.000716	20.976303
1496.388253	-3.014800	3.351100	-10.102000	26.864875	0.000717	20.965275
1497.389942	-3.001600	3.352700	-10.062000	26.876937	0.000716	20.952275
1498.387541	-3.016300	3.351100	-10.107000	26.849587	0.000714	20.957489
1499.389090	-2.995100	3.351300	-10.037000	26.854203	0.000719	20.960234
1500.389356	-3.008800	3.351100	-10.082000	26.827199	0.000714	20.959635
1501.393671	-2.988600	3.350700	-10.012000	26.800294	0.000714	20.949180
1502.389616	-2.963600	3.350700	-9.927700	26.788653	0.000715	20.963078
1503.389612	-2.974300	3.351700	-9.967700	26.835836	0.000712	20.959784
1504.390569	-2.992000	3.349600	-10.021000	26.877209	0.000712	20.941644
1505.391121	-3.007900	3.348900	-10.072000	26.856559	0.000713	20.947432
1506.389721	-2.999400	3.347900	-10.041000	26.886590	0.000710	20.932112
1507.392313	-2.995800	3.348400	-10.031000	26.864849	0.000709	20.943914
1508.390762	-2.991700	3.348200	-10.015000	26.838689	0.000709	20.922355
1509.394626	-2.996600	3.346500	-10.027000	26.816450	0.000709	20.944562
1510.391453	-2.986900	3.347900	-9.998400	26.781255	0.000709	20.932410
1511.391155	-3.003600	3.346100	-10.050000	26.790860	0.000710	20.948704
1512.389771	-2.983900	3.345800	-9.982900	26.800664	0.000709	20.930115
1513.392598	-3.007400	3.346700	-10.063000	26.791257	0.000705	20.937251
1514.391111	-3.000400	3.345600	-10.037000	26.834295	0.000707	20.938323
1515.392282	-3.006100	3.344200	-10.051000	26.829877	0.000708	20.941942
1516.393008	-2.995700	3.344600	-10.019000	26.860504	0.000706	20.937650
1517.392826	-2.999400	3.343400	-10.027000	26.860951	0.000706	20.941891
1518.393770	-3.008500	3.342400	-10.053000	26.894927	0.000705	20.931486
1519.393860	-2.985000	3.343700	-9.979700	26.902571	0.000701	20.933956
1520.395410	-2.982900	3.342600	-9.970000	26.925801	0.000704	20.939770
1521.393206	-2.995200	3.343000	-10.012000	26.935827	0.000703	20.935154
1522.395576	-3.006000	3.341700	-10.043000	26.937490	0.000702	20.924025
1523.395184	-3.013400	3.341100	-10.066000	26.903341	0.000701	20.940419
1524.398413	-3.030000	3.338700	-10.115000	26.861372	0.000700	20.928566
1525.394739	-3.020800	3.341000	-10.091000	26.828313	0.000700	20.928990
1526.399457	-2.989100	3.341600	-9.986300	26.815159	0.000701	20.950375
1527.395176	-3.004700	3.342200	-10.041000	26.840251	0.000699	20.915865
1528.397315	-2.994800	3.340200	-10.002000	26.822728	0.000700	20.896826
1529.398622	-2.971900	3.340600	-9.926600	26.854348	0.000696	20.933831
1530.395838	-2.974500	3.339800	-9.932900	26.860156	0.000695	20.943463
1531.396649	-2.985400	3.337500	-9.962000	26.848243	0.000696	20.930537
1532.398434	-2.998300	3.337600	-10.006000	26.870580	0.000695	20.937350
1533.396103	-2.998700	3.338000	-10.007000	26.907659	0.000695	20.935752
1534.396085	-2.981900	3.338600	-9.954600	26.936273	0.000693	20.946507
1535.396642	-3.000800	3.336800	-10.012000	26.932427	0.000692	20.920357
1536.399534	-3.003900	3.336800	-10.023000	26.967171	0.000694	20.910251
1537.398898	-3.022400	3.334400	-10.075000	26.962306	0.000692	20.925272
1538.396873	-2.990500	3.337700	-9.980400	26.975360	0.000692	20.933657
1539.401450	-2.987400	3.336100	-9.965400	26.959998	0.000691	20.931486
1540.400200	-3.007600	3.334700	-10.028000	26.963101	0.000690	20.912796
1541.399077	-3.000800	3.335200	-10.006000	26.947987	0.000690	20.916564
1542.402778	-2.986900	3.332900	-9.953900	26.949526	0.000686	20.912896
1543.399033	-2.997000	3.334500	-9.992300	26.970421	0.000690	20.917312
1544.399418	-3.001000	3.333200	-10.002000	26.975633	0.000689	20.893158
1545.402461	-2.993900	3.333200	-9.978900	26.986477	0.000689	20.919234
1546.400000	-3.000700	3.332000	-9.996600	27.024793	0.000685	20.910825
1547.399642	-2.976700	3.332600	-9.918800	27.045836	0.000687	20.926769
1548.400571	-3.004700	3.332800	-10.013000	27.081247	0.000687	20.915441
1549.404282	-3.021100	3.331500	-10.063000	27.083505	0.000682	20.921031
1550.403662	-2.989600	3.331600	-9.959300	27.094968	0.000685	20.898897
1551.401384	-2.988700	3.331200	-9.954400	27.102363	0.000684	20.921979
1552.404555	-2.990400	3.332300	-9.963600	27.040849	0.000683	20.908479
1553.402289	-3.005200	3.329000	-10.003000	27.006803	0.000682	20.907432
1554.401868	-3.017700	3.327800	-10.040000	26.981986	0.000683	20.916614
1555.403442	-3.012500	3.327700	-10.023000	26.926074	0.000682	20.918711
1556.406108	-3.014200	3.327900	-10.029000	26.878870	0.000681	20.898274
1557.406590	-3.009400	3.328800	-10.017000	26.852364	0.000680	20.919509
1558.403858	-2.991200	3.327700	-9.952800	26.882966	0.000680	20.906185
1559.405531	-2.996300	3.329300	-9.974500	26.875421	0.000679	20.899073
1560.403635	-3.016900	3.325300	-10.030000	26.876439	0.000681	20.885873
1561.406278	-3.004600	3.325700	-9.991900	26.899918	0.000679	20.903790
1562.407291	-2.967400	3.326500	-9.869900	26.916545	0.000677	20.897751
1563.404826	-2.995800	3.327000	-9.966100	26.951414	0.000677	20.917165
1564.405023	-3.009400	3.326400	-10.009000	26.974990	0.000678	20.927121
1565.406182	-2.995900	3.325300	-9.960900	27.000203	0.000673	20.898899
1566.406070	-2.995200	3.325500	-9.959700	26.991617	0.000678	20.905437
1567.406304	-3.001400	3.324500	-9.976900	26.945384	0.000672	20.902094
1568.407660	-3.013600	3.323700	-10.015000	26.892572	0.000671	20.911102
1569.408977	-2.979400	3.321400	-9.894500	26.877507	0.000671	20.894533
1570.408897	-3.005400	3.322200	-9.983100	26.878525	0.000671	20.893186
1571.412112	-2.994800	3.321300	-9.944700	26.866984	0.000671	20.903391
1572.410066	-2.999500	3.322000	-9.962400	26.884109	0.000670	20.903541
1573.411427	-3.007200	3.321900	-9.988500	26.913419	0.000671	20.904564
1574.411944	-3.031700	3.318800	-10.061000	26.925753	0.000670	20.898475
1575.412302	-3.028100	3.321000	-10.055000	26.904062	0.000669	20.900846
1576.411991	-3.005600	3.320000	-9.977100	26.938832	0.000668	20.884127
1577.410379	-3.000400	3.320400	-9.961300	26.958760	0.000669	20.884252
1578.412669	-3.032800	3.319500	-10.066000	26.950496	0.000666	20.893484
1579.411140	-3.009300	3.320000	-9.989100	26.955508	0.000667	20.898525
1580.409944	-2.995300	3.320100	-9.943100	26.924189	0.000667	20.886472
1581.414356	-2.996900	3.318500	-9.944300	26.930021	0.000667	20.904663
1582.412807	-3.004000	3.318500	-9.966600	26.934017	0.000664	20.885923
1583.412055	-3.003700	3.317800	-9.965000	26.954838	0.000662	20.878412
1584.414828	-2.986300	3.316900	-9.903000	26.956848	0.000664	20.891338
1585.413527	-3.013800	3.315400	-9.989900	26.975734	0.000664	20.887570
1586.413345	-2.995300	3.315600	-9.930200	27.011692	0.000663	20.893384
1587.412945	-3.002300	3.315400	-9.953100	27.023331	0.000662	20.908406
1588.412674	-2.999500	3.315700	-9.943600	27.043083	0.000660	20.878012
1589.413723	-3.000100	3.315400	-9.945800	27.095242	0.000660	20.870251
1590.413399	-2.990500	3.315700	-9.915200	27.055465	0.000660	20.890938
1591.414645	-2.988800	3.314000	-9.904100	27.008962	0.000658	20.882104
1592.416122	-2.988800	3.315300	-9.908100	26.998415	0.000657	20.898524
1593.416288	-2.975800	3.313900	-9.860700	26.963747	0.000661	20.887370
1594.415724	-2.996000	3.314100	-9.928600	26.903490	0.000657	20.874668
1595.415712	-2.989600	3.313500	-9.905000	26.848591	0.000655	20.893907
1596.415380	-2.986900	3.313300	-9.894800	26.839160	0.000654	20.882529
1597.420845	-2.978800	3.313400	-9.867500	26.849087	0.000657	20.903414
1598.420528	-3.017300	3.310500	-9.988100	26.883511	0.000655	20.878760
1599.418344	-3.004500	3.311400	-9.948400	26.893488	0.000655	20.874094
1600.421378	-3.005600	3.311200	-9.951100	26.939798	0.000655	20.887469
1601.423326	-3.008300	3.311100	-9.960100	26.953372	0.000653	20.885472
1602.418509	-3.018400	3.309700	-9.989100	26.968089	0.000651	20.880357
1603.423125	-2.990900	3.309900	-9.899100	26.967915	0.000651	20.886346
1604.420222	-3.006700	3.308600	-9.946400	26.993153	0.000650	20.885173
1605.420344	-3.011100	3.308900	-9.962000	27.018018	0.000650	20.886944
1606.425384	-3.008500	3.308500	-9.952400	27.032982	0.000647	20.862639
1607.420620	-3.002300	3.308200	-9.931300	27.009209	0.000648	20.890887
1608.419841	-2.997200	3.308400	-9.914500	26.973498	0.000647	20.882951
1609.420010	-2.991000	3.307200	-9.891000	27.017522	0.000647	20.869376
1610.423051	-3.006300	3.306100	-9.937500	27.028217	0.000644	20.892932
1611.427107	-3.001100	3.306500	-9.922300	27.061220	0.000646	20.884872
1612.421253	-3.023100	3.304800	-9.989300	27.057945	0.000643	20.884423
1613.424135	-3.007200	3.306000	-9.939800	27.068565	0.000644	20.887517
1614.423229	-3.029400	3.304300	-10.009000	27.101989	0.000642	20.888416
1615.422503	-2.996200	3.305400	-9.902200	27.096108	0.000642	20.875864
1616.423459	-2.996700	3.306100	-9.905700	27.116456	0.000642	20.870249
1617.425146	-3.000200	3.305000	-9.914700	27.122311	0.000640	20.903162
1618.421165	-3.008800	3.305000	-9.943400	27.144866	0.000642	20.872270
1619.424637	-2.978000	3.303900	-9.837500	27.154667	0.000640	20.878334
1620.422335	-3.014700	3.303000	-9.956100	27.139903	0.000640	20.876762
1621.421441	-2.992200	3.303500	-9.883800	27.134915	0.000639	20.876487
1622.426203	-2.997600	3.303000	-9.900200	27.132583	0.000640	20.862762
1623.423542	-3.000800	3.303100	-9.910400	27.151391	0.000636	20.863186
1624.421973	-3.008600	3.301300	-9.930500	27.135735	0.000638	20.878259
1625.423902	-3.021300	3.300200	-9.969800	27.127273	0.000636	20.881602
1626.425042	-3.002600	3.300700	-9.910400	27.109581	0.000635	20.871396
1627.423034	-3.017500	3.299100	-9.954200	27.084594	0.000634	20.875189
1628.422838	-3.002000	3.298700	-9.901100	27.067844	0.000636	20.866879
1629.422673	-3.009000	3.298800	-9.924100	27.070624	0.000633	20.865882
1630.423681	-2.986700	3.299600	-9.854000	27.053551	0.000632	20.861988
1631.424346	-3.002400	3.298400	-9.901800	27.054122	0.000631	20.862562
1632.427541	-3.008600	3.297200	-9.919300	27.079507	0.000630	20.853005
1633.425094	-2.988600	3.298500	-9.856800	27.083948	0.000633	20.847989
1634.429752	-3.007400	3.296800	-9.913800	27.070326	0.000631	20.855625
1635.428553	-3.019000	3.298000	-9.955000	27.060921	0.000628	20.859917
1636.427272	-3.001400	3.296800	-9.893800	27.059159	0.000630	20.875214
1637.425097	-3.007400	3.296500	-9.913400	27.029804	0.000627	20.867978
1638.428430	-2.982600	3.295900	-9.829400	27.015186	0.000628	20.858494
1639.426721	-2.969900	3.296800	-9.788600	26.995905	0.000626	20.850010
1640.426981	-2.998100	3.295400	-9.879700	26.975555	0.000625	20.850409
1641.427381	-3.010500	3.295000	-9.917000	26.944510	0.000627	20.850958
1642.426969	-3.016900	3.293800	-9.936100	26.938653	0.000625	20.853129
1643.427878	-2.999000	3.294500	-9.878800	26.934831	0.000625	20.851656
1644.427556	-2.996800	3.293200	-9.867800	26.962006	0.000623	20.870922
1645.427760	-3.011600	3.293800	-9.918300	26.965505	0.000623	20.864957
1646.426454	-2.994300	3.293600	-9.860900	26.972503	0.000623	20.841176
1647.428097	-3.012900	3.292100	-9.916200	26.987219	0.000621	20.868775
1648.428948	-2.992300	3.292000	-9.849400	26.986450	0.000619	20.862313
1649.428450	-3.009900	3.290800	-9.904200	27.006204	0.000620	20.866056
1650.430447	-2.993900	3.292500	-9.856100	27.048364	0.000620	20.845867
1651.434827	-2.997500	3.292000	-9.866700	27.091566	0.000619	20.852330
1652.431833	-3.017800	3.289000	-9.923600	27.104270	0.000616	20.836185
1653.429690	-2.997100	3.290400	-9.861200	27.145187	0.000619	20.859318
1654.430606	-3.005400	3.289800	-9.886600	27.150100	0.000617	20.870422
1655.431004	-3.015000	3.289100	-9.914400	27.131441	0.000616	20.860191
1656.431229	-2.987700	3.289900	-9.827600	27.118563	0.000617	20.863360
1657.432256	-2.991100	3.287600	-9.831800	27.085958	0.000616	20.855226
1658.431149	-3.019000	3.287200	-9.922200	27.083874	0.000615	20.840802
1659.431344	-2.996600	3.287200	-9.848800	27.101343	0.000614	20.863585
1660.433168	-3.024500	3.286900	-9.939900	27.088861	0.000616	20.864783
1661.431018	-3.003400	3.286900	-9.871700	27.095884	0.000614	20.850983
1662.433580	-2.991100	3.286200	-9.827900	27.070499	0.000613	20.840153
1663.434411	-2.994100	3.286400	-9.838500	27.020572	0.000612	20.846367
1664.432614	-3.025400	3.285300	-9.937100	26.990519	0.000610	20.860715
1665.432103	-3.001000	3.284800	-9.856500	26.985830	0.000609	20.854102
1666.435837	-3.029300	3.283500	-9.945800	27.019530	0.000607	20.819715
1667.433800	-2.983600	3.285700	-9.802100	27.002283	0.000607	20.852630
1668.434849	-2.989700	3.283900	-9.816700	26.996476	0.000606	20.845843
1669.438604	-3.004900	3.285700	-9.871700	27.046578	0.000608	20.854976
1670.434155	-3.014300	3.282100	-9.891800	27.035038	0.000607	20.840052
1671.436623	-2.980400	3.283700	-9.785700	27.039034	0.000605	20.867303
1672.437302	-3.028900	3.282000	-9.939700	27.023524	0.000606	20.837482
1673.436678	-3.002200	3.282500	-9.853100	27.040672	0.000604	20.830071
1674.436922	-3.044900	3.280400	-9.986000	27.072782	0.000604	20.841500
1675.439429	-3.006100	3.280600	-9.860900	27.101690	0.000602	20.847814
1676.439555	-2.988500	3.282100	-9.807100	27.079308	0.000603	20.857546
1677.441331	-3.010100	3.280700	-9.874100	27.087795	0.000602	20.819141
1678.438944	-2.989400	3.280800	-9.805800	27.045089	0.000600	20.839255
1679.442185	-2.994900	3.280800	-9.824300	27.043575	0.000599	20.823034
1680.443690	-2.996400	3.280200	-9.827800	27.069829	0.000601	20.828100
1681.440379	-3.023500	3.279200	-9.914400	27.083180	0.000598	20.826828
1682.445767	-3.007000	3.277600	-9.854800	27.080500	0.000596	20.844521
1683.441741	-3.026500	3.277200	-9.916600	27.079284	0.000598	20.825281
1684.441002	-2.994900	3.278100	-9.816700	27.142533	0.000596	20.831046
1685.444913	-2.973000	3.277900	-9.744700	27.147223	0.000594	20.835762
1686.445782	-3.016000	3.275800	-9.878300	27.112510	0.000596	20.841627
1687.444535	-3.000500	3.276900	-9.831400	27.115587	0.000595	20.820066
1688.449461	-2.988800	3.277200	-9.793400	27.115587	0.000592	20.843299
1689.444314	-3.001500	3.274600	-9.828100	27.066804	0.000594	20.829325
1690.443475	-3.003400	3.275300	-9.835400	27.045116	0.000592	20.826480
1691.444861	-3.002100	3.273900	-9.827200	27.023005	0.000593	20.826530
1692.443538	-3.004800	3.276500	-9.844800	27.063776	0.000592	20.832444
1693.443117	-2.964700	3.275200	-9.707800	27.099956	0.000590	20.809561
1694.444235	-2.996200	3.272900	-9.805000	27.125786	0.000591	20.814202
1695.444101	-2.993100	3.273300	-9.796800	27.174046	0.000592	20.823860
1696.443792	-3.003200	3.273000	-9.828300	27.155536	0.000588	20.817097
1697.445372	-3.023000	3.270800	-9.886500	27.160350	0.000589	20.845646
1698.444875	-2.980800	3.274300	-9.759200	27.132635	0.000589	20.818720
1699.444761	-2.994000	3.273000	-9.797300	27.079535	0.000587	20.818895
1700.447849	-3.015000	3.270200	-9.858000	27.072685	0.000586	20.820067
1701.444040	-2.982000	3.272200	-9.755700	27.038342	0.000587	20.824883
1702.447664	-2.994800	3.270500	-9.793400	27.077028	0.000583	20.837236
1703.447482	-3.004700	3.270900	-9.826300	27.093777	0.000585	20.801451
1704.445400	-3.002700	3.269500	-9.815600	27.126952	0.000584	20.825807
1705.446703	-3.028400	3.268500	-9.896900	27.075986	0.000585	20.825757
1706.448355	-3.020700	3.267700	-9.869900	27.050601	0.000583	20.829151
1707.445994	-3.001100	3.269500	-9.809700	27.065762	0.000583	20.819742
1708.445346	-3.016000	3.268600	-9.857300	27.047772	0.000582	20.831047
1709.445209	-3.012000	3.267800	-9.841700	27.062262	0.000580	20.826654
1710.452502	-2.992700	3.265500	-9.770600	27.061568	0.000580	20.838283
1711.447891	-3.007100	3.266600	-9.822200	27.079434	0.000579	20.823061
1712.447259	-3.007800	3.267700	-9.827500	27.049781	0.000578	20.839232
1713.450869	-3.004900	3.266700	-9.814900	27.063602	0.000577	20.811880
1714.448424	-3.018200	3.264700	-9.851900	27.095463	0.000577	20.808836
1715.448510	-3.025300	3.263500	-9.872100	27.143203	0.000579	20.800900
1716.451169	-3.001500	3.265600	-9.799800	27.165906	0.000576	20.813302
1717.449462	-3.004500	3.265600	-9.809500	27.159108	0.000576	20.815000
1718.449668	-2.969800	3.266900	-9.700100	27.184614	0.000576	20.813627
1719.451561	-3.017300	3.263000	-9.844500	27.202776	0.000575	20.823833
1720.450237	-3.008700	3.264300	-9.820200	27.256564	0.000574	20.813452
1721.448676	-2.971000	3.264700	-9.697500	27.272294	0.000576	20.830696
1722.450369	-2.996200	3.262200	-9.773100	27.306232	0.000573	20.811255
1723.450011	-3.012900	3.262100	-9.827600	27.332678	0.000572	20.798503
1724.447929	-2.989300	3.262500	-9.751700	27.355799	0.000570	20.794261
1725.452946	-2.998300	3.261900	-9.779100	27.368202	0.000568	20.794884
1726.450292	-2.993800	3.260700	-9.760400	27.374702	0.000573	20.806164
1727.449830	-3.001100	3.259500	-9.781600	27.385096	0.000569	20.793861
1728.450721	-3.004200	3.259400	-9.790700	27.363638	0.000572	20.824431
1729.451208	-3.009300	3.260600	-9.811500	27.357436	0.000568	20.820089
1730.453194	-3.003100	3.260400	-9.789300	27.366193	0.000567	20.790492
1731.450818	-2.983400	3.260300	-9.724400	27.376563	0.000566	20.797605
1732.451294	-2.999500	3.260300	-9.778100	27.394274	0.000564	20.817319
1733.450372	-3.000600	3.258700	-9.777300	27.420197	0.000565	20.802620
1734.450215	-2.994900	3.257400	-9.753400	27.409382	0.000565	20.800749
1735.451171	-3.000000	3.257600	-9.771800	27.353491	0.000563	20.820388
1736.450001	-3.000400	3.259000	-9.777700	27.374106	0.000564	20.812677
1737.452102	-2.986500	3.258500	-9.730000	27.372494	0.000564	20.816745
1738.453180	-2.997700	3.257500	-9.763700	27.398962	0.000562	20.812078
1739.451235	-2.992100	3.255600	-9.740300	27.426745	0.000562	20.801148
1740.451662	-3.010100	3.255800	-9.798600	27.458670	0.000560	20.817618
1741.452318	-2.988200	3.255800	-9.727300	27.403750	0.000561	20.806938
1742.450929	-2.978000	3.256200	-9.695400	27.405264	0.000556	20.826477
1743.452763	-2.984500	3.254900	-9.713300	27.396383	0.000560	20.790991
1744.451989	-2.992200	3.254100	-9.735200	27.418882	0.000558	20.802720
1745.452466	-2.972600	3.255500	-9.675700	27.444978	0.000558	20.777291
1746.452747	-3.007200	3.253000	-9.781500	27.471669	0.000557	20.791341
1747.453691	-3.042800	3.251600	-9.891400	27.484815	0.000553	20.789868
1748.453526	-3.030800	3.252400	-9.854800	27.501186	0.000557	20.818193
1749.453454	-3.022600	3.250600	-9.824200	27.518102	0.000555	20.803918
1750.455547	-3.016100	3.250700	-9.803000	27.499151	0.000554	20.795757
1751.455766	-3.010800	3.249900	-9.783600	27.447037	0.000552	20.817768
1752.458224	-3.028900	3.249200	-9.840300	27.414095	0.000553	20.802645
1753.460196	-3.000000	3.249000	-9.744000	27.345950	0.000553	20.825130
1754.457147	-2.994900	3.250900	-9.735300	27.327468	0.000550	20.779986
1755.456460	-2.999200	3.249400	-9.744900	27.336300	0.000553	20.795034
1756.459665	-3.027200	3.248500	-9.832500	27.362248	0.000550	20.814024
1757.457131	-3.001400	3.249200	-9.752200	27.414839	0.000547	20.810981
1758.456645	-3.020900	3.246800	-9.807000	27.366466	0.000548	20.819216
1759.457417	-3.003300	3.247700	-9.753500	27.338011	0.000547	20.803868
1760.459746	-2.974700	3.249100	-9.664100	27.325434	0.000547	20.811604
1761.459598	-3.021900	3.246300	-9.808400	27.313848	0.000545	20.821761
1762.457427	-2.996000	3.247600	-9.728200	27.322854	0.000543	20.808535
1763.460585	-2.981700	3.246300	-9.678100	27.312534	0.000546	20.786774
1764.457838	-3.013200	3.245400	-9.778500	27.326798	0.000544	20.829571
1765.458791	-3.032200	3.244000	-9.834800	27.314196	0.000545	20.814524
1766.460564	-3.018900	3.244800	-9.795200	27.345205	0.000543	20.795932
1767.460366	-3.006100	3.243600	-9.749600	27.368003	0.000544	20.820762
1768.458717	-3.001600	3.245200	-9.739700	27.364952	0.000540	20.800149
1769.461862	-3.009000	3.243700	-9.759100	27.349075	0.000539	20.810730
1770.463186	-2.976300	3.243300	-9.652100	27.349497	0.000541	20.815422
1771.462111	-3.031600	3.242300	-9.827100	27.348058	0.000538	20.816819
1772.460838	-2.996000	3.243200	-9.715100	27.354384	0.000537	20.807062
1773.463930	-2.979400	3.243900	-9.662700	27.394447	0.000536	20.817967
1774.461845	-2.985400	3.242200	-9.678200	27.426546	0.000533	20.834612
1775.462152	-3.000800	3.241900	-9.727700	27.444456	0.000534	20.804266
1776.466704	-2.987300	3.241600	-9.681500	27.407520	0.000533	20.823532
1777.463644	-3.017400	3.240300	-9.776600	27.408115	0.000534	20.813699
1778.463066	-2.977100	3.241300	-9.648300	27.420940	0.000531	20.827076
1779.462851	-2.984700	3.239800	-9.669100	27.444059	0.000532	20.822833
1780.463966	-2.973400	3.240500	-9.634200	27.422379	0.000531	20.833738
1781.463494	-2.982600	3.239000	-9.659900	27.456635	0.000531	20.826476
1782.463158	-2.985500	3.239000	-9.669600	27.480993	0.000531	20.808783
1783.465483	-2.989100	3.240000	-9.683900	27.507137	0.000528	20.820387
1784.466043	-2.974100	3.238800	-9.631200	27.540201	0.000527	20.820936
1785.464894	-2.986700	3.236700	-9.666300	27.519440	0.000526	20.810954
1786.468238	-2.988700	3.237300	-9.673600	27.570931	0.000526	20.800173
1787.465821	-3.002100	3.235900	-9.714000	27.570906	0.000527	20.837132
1788.465955	-2.970200	3.237600	-9.614900	27.605778	0.000523	20.805838
1789.466286	-2.986000	3.235600	-9.660900	27.607415	0.000524	20.829296
1790.471846	-3.017400	3.234900	-9.759500	27.610689	0.000525	20.823107
1791.469282	-2.980300	3.235400	-9.641800	27.655257	0.000521	20.817218
1792.466455	-2.999200	3.233500	-9.697100	27.678370	0.000523	20.807760
1793.467451	-2.990600	3.235300	-9.673700	27.688464	0.000521	20.820762
1794.472010	-2.997700	3.233700	-9.692600	27.696896	0.000521	20.826876
1795.470466	-2.997300	3.233400	-9.689700	27.726754	0.000517	20.819938
1796.470582	-3.002600	3.231600	-9.702600	27.713685	0.000521	20.801571
1797.472920	-3.024800	3.231900	-9.773800	27.690696	0.000518	20.828223
1798.469096	-3.015200	3.232200	-9.745200	27.649478	0.000521	20.828947
1799.470861	-3.019500	3.231400	-9.755300	27.616518	0.000518	20.828972
1800.480361	-3.032600	3.230200	-9.795000	27.600669	0.000517	20.810655
1801.474058	-3.001700	3.230900	-9.697100	27.635838	0.000514	20.821385
1802.470277	-2.993700	3.231200	-9.672400	27.645833	0.000516	20.827175
1803.474768	-2.997700	3.231200	-9.684200	27.644072	0.000514	20.812602
1804.475728	-2.998100	3.230000	-9.682900	27.625818	0.000514	20.830744
1805.471245	-3.011700	3.229900	-9.725400	27.663540	0.000513	20.828398
1806.473902	-2.997400	3.229800	-9.680000	27.711478	0.000512	20.833963
1807.474400	-3.007400	3.228500	-9.708100	27.708974	0.000510	20.833813
1808.476427	-3.000200	3.228100	-9.683200	27.705154	0.000510	20.827126
1809.474130	-3.020200	3.225700	-9.740700	27.673064	0.000512	20.852205
1810.475150	-2.986700	3.227800	-9.639600	27.676734	0.000505	20.814648
1811.473853	-2.997000	3.225700	-9.664800	27.685018	0.000509	20.823457
1812.474692	-2.978700	3.226200	-9.609300	27.705179	0.000508	20.826676
1813.475200	-3.001300	3.224100	-9.676200	27.731739	0.000507	20.827325
1814.475838	-2.981400	3.226900	-9.619100	27.749991	0.000507	20.819614
1815.475569	-3.002200	3.225200	-9.681900	27.751603	0.000506	20.826926
1816.475190	-2.997000	3.224100	-9.662000	27.739203	0.000507	20.834836
1817.476055	-3.010400	3.222900	-9.701100	27.733649	0.000504	20.838730
1818.476267	-2.996500	3.224300	-9.660800	27.743345	0.000504	20.831418
1819.476437	-3.004400	3.223400	-9.683900	27.735458	0.000504	20.842921
1820.475363	-2.989200	3.222400	-9.631200	27.683876	0.000502	20.833689
1821.477788	-3.010300	3.223400	-9.702700	27.655653	0.000503	20.836109
1822.479840	-2.995700	3.222700	-9.653400	27.637772	0.000499	20.837082
1823.476354	-3.000200	3.221700	-9.663900	27.668029	0.000499	20.832441
1824.478508	-2.999100	3.220700	-9.658400	27.678990	0.000498	20.831143
1825.481939	-3.008100	3.220800	-9.687200	27.656521	0.000500	20.837456
1826.478633	-2.988700	3.220700	-9.624300	27.657860	0.000496	20.839278
1827.478232	-3.021700	3.218200	-9.722900	27.704410	0.000497	20.848187
1828.481489	-3.010500	3.219000	-9.689700	27.688241	0.000496	20.855149
1829.481085	-2.992000	3.220300	-9.634000	27.751925	0.000495	20.840051
1830.479125	-2.999300	3.218200	-9.651700	27.737169	0.000496	20.836108
1831.482314	-2.987000	3.220100	-9.616800	27.719934	0.000494	20.823032
1832.479073	-2.992200	3.217100	-9.625600	27.764571	0.000493	20.837606
1833.478991	-2.963700	3.218400	-9.537700	27.762587	0.000491	20.848411
1834.479259	-3.001200	3.217000	-9.652900	27.771192	0.000490	20.858492
1835.479894	-2.986500	3.217700	-9.608500	27.811215	0.000488	20.855148
1836.481505	-2.984800	3.216300	-9.599000	27.848732	0.000490	20.843594
1837.480207	-2.985600	3.215800	-9.599400	27.867354	0.000489	20.853327
1838.480941	-3.007700	3.215600	-9.670700	27.881983	0.000488	20.850033
1839.481505	-3.009500	3.215600	-9.676400	27.889595	0.000488	20.842047
1840.481865	-2.989000	3.216200	-9.612200	27.873701	0.000487	20.847862
1841.483657	-3.009300	3.213900	-9.671000	27.904819	0.000484	20.848835
1842.482246	-2.996800	3.214300	-9.630800	27.873404	0.000486	20.848510
1843.481922	-3.013300	3.212200	-9.678300	27.845732	0.000485	20.854799
1844.486190	-2.970800	3.214400	-9.548800	27.875238	0.000483	20.852728
1845.484467	-2.984100	3.213300	-9.586700	27.861204	0.000484	20.852353
1846.485197	-3.014000	3.210100	-9.673900	27.822176	0.000481	20.849584
1847.486285	-2.989500	3.211700	-9.599900	27.791626	0.000479	20.863409
1848.484814	-2.978200	3.212800	-9.567600	27.757901	0.000481	20.861238
1849.482156	-2.994300	3.212100	-9.616600	27.762266	0.000482	20.868001
1850.484066	-2.990400	3.210100	-9.598500	27.769655	0.000479	20.845092
1851.484531	-2.984900	3.209900	-9.579800	27.770523	0.000481	20.850707
1852.500418	-2.994900	3.209600	-9.610900	27.779252	0.000477	20.866129
1853.483293	-3.016100	3.208700	-9.676600	27.790659	0.000477	20.843471
1854.487825	-3.011400	3.209200	-9.663500	27.823788	0.000478	20.865905
1855.489434	-2.983900	3.210200	-9.577700	27.810349	0.000472	20.854750
1856.484038	-2.998400	3.209900	-9.623200	27.802364	0.000473	20.858569
1857.487708	-2.968100	3.207600	-9.519200	27.798967	0.000474	20.870796
1858.489667	-2.997600	3.206300	-9.610100	27.816945	0.000473	20.846691
1859.485122	-2.994700	3.207600	-9.604800	27.815532	0.000474	20.856173
1860.487049	-2.993200	3.207300	-9.597800	27.804696	0.000472	20.875613
1861.484756	-3.006400	3.205300	-9.635300	27.851809	0.000473	20.860441
1862.484132	-3.011700	3.205100	-9.652000	27.908193	0.000473	20.855075
1863.486675	-2.984400	3.207300	-9.570600	27.948682	0.000468	20.860266
1864.488822	-2.971800	3.207300	-9.530800	27.974988	0.000468	20.852131
1865.489230	-3.013400	3.203000	-9.651300	27.972410	0.000469	20.869450
1866.490789	-2.996200	3.204300	-9.600100	27.989691	0.000463	20.853654
1867.488523	-3.019700	3.202500	-9.669600	28.000922	0.000465	20.864958
1868.489061	-2.999800	3.201200	-9.601300	27.947418	0.000464	20.862787
1869.490183	-3.001800	3.202500	-9.612300	27.917864	0.000465	20.871920
1870.490230	-3.007800	3.201900	-9.629400	27.896937	0.000463	20.862712
1871.489470	-3.016100	3.201100	-9.654100	27.909062	0.000462	20.849312
1872.487654	-2.994100	3.203900	-9.592200	27.936534	0.000461	20.896399
1873.487799	-3.001300	3.200100	-9.603200	27.958178	0.000458	20.887840
1874.492841	-2.989000	3.200200	-9.563500	27.993137	0.000459	20.870398
1875.492146	-2.984100	3.201100	-9.551500	28.017904	0.000457	20.882525
1876.489523	-2.983400	3.199200	-9.544400	28.026111	0.000458	20.878458
1877.489757	-3.016400	3.198200	-9.646400	28.043167	0.000456	20.878084
1878.494108	-3.006700	3.200600	-9.622500	28.071826	0.000456	20.879905
1879.491718	-3.033700	3.196700	-9.696800	28.065182	0.000458	20.894553
1880.495980	-3.031100	3.197600	-9.691400	28.098600	0.000453	20.866081
1881.495183	-3.008600	3.197300	-9.617900	28.124034	0.000453	20.874141
1882.494299	-3.015000	3.196500	-9.635200	28.106235	0.000454	20.868077
1883.494122	-2.985100	3.197300	-9.543500	28.088213	0.000453	20.880754
1884.495188	-3.003800	3.197700	-9.604000	28.098724	0.000451	20.877585
1885.497519	-2.962100	3.196400	-9.466700	28.100335	0.000451	20.862613
1886.496268	-3.022300	3.195500	-9.657000	28.127480	0.000450	20.873343
1887.500412	-3.026800	3.193700	-9.665700	28.128224	0.000446	20.876936
1888.498990	-2.968700	3.193800	-9.480700	28.130902	0.000448	20.871572
1889.497240	-2.994900	3.192900	-9.561700	28.160673	0.000449	20.899170
1890.497276	-3.003000	3.192100	-9.585100	28.164218	0.000445	20.875239
1891.494810	-3.009400	3.192600	-9.605200	28.131174	0.000447	20.890811
1892.494468	-2.993400	3.193200	-9.556900	28.124381	0.000447	20.874965
1893.499429	-2.997400	3.193100	-9.569900	28.102665	0.000445	20.874440
1894.499266	-2.994300	3.192000	-9.555700	28.131967	0.000446	20.865532
1895.495659	-3.008700	3.191100	-9.600700	28.138388	0.000442	20.878159
1896.501182	-3.013900	3.188600	-9.609700	28.195252	0.000444	20.906481
1897.499858	-2.978200	3.192100	-9.505800	28.167515	0.000442	20.893730
1898.498169	-3.011100	3.189500	-9.602400	28.166002	0.000441	20.871346
1899.497594	-2.994300	3.190500	-9.552100	28.145998	0.000438	20.891509
1900.499731	-2.979800	3.190700	-9.505300	28.137197	0.000437	20.874590
1901.496685	-3.001400	3.188400	-9.567800	28.157599	0.000441	20.888489
1902.500663	-3.003400	3.188800	-9.576300	28.199689	0.000435	20.889613
1903.498535	-3.015700	3.186300	-9.607400	28.150460	0.000436	20.898371
1904.501409	-2.998400	3.189200	-9.561700	28.078768	0.000434	20.906331
1905.505243	-2.999600	3.185600	-9.554700	28.075594	0.000433	20.887017
1906.502042	-2.992400	3.185200	-9.529400	28.066273	0.000433	20.898496
1907.507164	-3.034000	3.184700	-9.659900	28.066719	0.000434	20.936874
1908.501391	-3.005500	3.185700	-9.573800	28.024921	0.000431	20.889114
1909.504057	-2.996500	3.185900	-9.545400	28.031243	0.000432	20.904959
1910.505161	-3.014100	3.183700	-9.593900	28.096691	0.000431	20.906357
1911.501431	-3.009900	3.182900	-9.578200	28.092775	0.000432	20.908103
1912.504466	-2.986900	3.185200	-9.512900	28.114863	0.000428	20.895253
1913.506685	-2.986400	3.183000	-9.503900	28.135983	0.000432	20.908927
1914.503671	-3.001100	3.181300	-9.544900	28.166994	0.000429	20.918808
1915.507404	-2.983700	3.182100	-9.493000	28.190717	0.000426	20.911872
1916.504613	-3.015100	3.182100	-9.593000	28.183628	0.000423	20.902365
1917.506573	-2.989300	3.181600	-9.509800	28.197311	0.000424	20.903812
1918.505081	-3.015100	3.180300	-9.587100	28.182959	0.000423	20.884623
1919.503981	-2.993800	3.180400	-9.520500	28.164492	0.000422	20.910600
1920.508218	-3.008000	3.181000	-9.566200	28.162409	0.000423	20.910874
1921.504701	-2.997700	3.179400	-9.529800	28.102220	0.000421	20.897224
1922.506613	-3.003900	3.180300	-9.552600	28.077703	0.000420	20.915216
1923.504424	-3.036000	3.178600	-9.649200	28.074480	0.000417	20.899645
1924.504156	-3.007500	3.177600	-9.554700	28.073984	0.000420	20.925696
1925.507798	-2.975000	3.179400	-9.457500	28.116996	0.000416	20.900244
1926.505707	-3.038500	3.176000	-9.648700	28.122920	0.000415	20.895303
1927.504843	-2.999400	3.175100	-9.521300	28.105097	0.000414	20.911973
1928.507770	-2.989700	3.175700	-9.492700	28.063672	0.000415	20.897774
1929.509729	-2.994100	3.175700	-9.507600	28.007196	0.000414	20.922004
1930.512270	-2.987200	3.174000	-9.480800	27.941544	0.000411	20.916139
1931.507278	-3.017900	3.173700	-9.577300	27.925279	0.000413	20.927269
1932.510178	-2.985700	3.173800	-9.474600	27.910675	0.000413	20.909727
1933.507473	-3.003200	3.174200	-9.532000	27.993213	0.000412	20.915516
1934.508984	-3.006800	3.173900	-9.541700	28.028741	0.000411	20.919982
1935.508801	-2.958600	3.173400	-9.387700	28.038632	0.000410	20.930412
1936.506643	-2.999900	3.171900	-9.514700	28.010419	0.000407	20.920032
1937.507566	-3.020300	3.170500	-9.574900	28.016195	0.000403	20.920156
1938.510571	-3.014800	3.170000	-9.555500	28.039004	0.000407	20.924623
1939.507217	-2.990200	3.169400	-9.475100	28.057474	0.000406	20.908603
1940.512007	-2.992400	3.171200	-9.488600	28.062209	0.000406	20.938497
1941.509083	-2.978500	3.171200	-9.445200	28.093445	0.000404	20.916364
1942.507200	-2.995800	3.168800	-9.492100	28.119202	0.000401	20.926171
1943.511400	-2.985100	3.169300	-9.459400	28.095899	0.000400	20.915990
1944.508821	-3.008900	3.167900	-9.529500	28.071010	0.000401	20.922228
1945.510970	-2.999000	3.168500	-9.501500	28.065110	0.000400	20.925771
1946.513945	-3.008000	3.165400	-9.520100	28.032187	0.000397	20.941941
1947.508845	-2.996900	3.167800	-9.492500	28.041980	0.000396	20.944685
1948.508846	-3.031900	3.166000	-9.597900	28.047657	0.000395	20.937599
1949.510830	-3.007400	3.166400	-9.521600	28.080158	0.000397	20.939970
1950.514835	-3.010000	3.164800	-9.525000	28.122276	0.000395	20.929739
1951.513178	-3.004000	3.164400	-9.504900	28.142752	0.000394	20.938497
1952.511569	-3.009300	3.164300	-9.519700	28.180952	0.000395	20.922428
1953.512430	-2.993800	3.162700	-9.467900	28.186479	0.000394	20.936526
1954.509747	-2.988200	3.164500	-9.455000	28.241756	0.000393	20.931486
1955.513681	-2.976800	3.163100	-9.413800	28.243069	0.000391	20.937075
1956.513810	-3.002200	3.162900	-9.493900	28.284661	0.000390	20.934380
1957.513128	-2.998200	3.162800	-9.481700	28.295070	0.000390	20.950549
1958.514279	-2.993300	3.163500	-9.467900	28.339634	0.000391	20.929514
1959.511357	-2.983300	3.160500	-9.427400	28.373340	0.000390	20.948278
1960.514061	-2.997900	3.160600	-9.473800	28.365212	0.000386	20.939620
1961.519797	-3.010900	3.158500	-9.508500	28.384122	0.000386	20.944436
1962.509935	-3.000800	3.159900	-9.481300	28.423279	0.000386	20.952571
1963.513641	-2.995500	3.161300	-9.468700	28.430837	0.000384	20.956388
1964.510943	-3.006400	3.159000	-9.496200	28.408731	0.000385	20.954517
1965.515849	-2.988000	3.158300	-9.436500	28.410020	0.000383	20.935428
1966.514253	-2.977800	3.159900	-9.408400	28.408682	0.000383	20.947356
1967.514984	-3.018000	3.156900	-9.526800	28.412623	0.000383	20.948953
1968.516074	-2.997600	3.156200	-9.459800	28.402486	0.000380	20.946333
1969.516630	-2.989600	3.155400	-9.431300	28.425955	0.000379	20.949576
1970.516460	-2.992000	3.155700	-9.440100	28.422783	0.000376	20.941641
1971.518978	-2.996600	3.154200	-9.451100	28.383279	0.000378	20.952595
1972.534432	-2.967100	3.155300	-9.361000	28.377777	0.000379	20.953220
1973.516065	-3.001300	3.153000	-9.462200	28.366723	0.000373	20.934031
1974.514076	-2.968100	3.153600	-9.359400	28.413167	0.000374	20.961353
1975.514253	-3.019200	3.151600	-9.514100	28.381718	0.000373	20.953869
1976.513418	-3.020000	3.151500	-9.516700	28.399562	0.000374	20.954767
1977.513919	-2.978900	3.150900	-9.385000	28.359511	0.000373	20.969438
1978.518107	-3.009400	3.150000	-9.478200	28.341047	0.000374	20.948953
1979.518129	-3.003300	3.150000	-9.458800	28.280497	0.000372	20.952471
1980.516041	-2.990900	3.150900	-9.422700	28.260297	0.000369	20.952521
1981.518085	-3.007400	3.148100	-9.466500	28.248622	0.000371	20.942665
1982.518946	-2.963900	3.150700	-9.336700	28.238981	0.000369	20.943863
1983.516185	-3.017100	3.147800	-9.495900	28.222869	0.000368	20.930014
1984.520058	-2.972900	3.147600	-9.356000	28.247259	0.000368	20.942715
1985.519049	-3.021100	3.145500	-9.501600	28.236279	0.000366	20.943988
1986.516973	-2.997400	3.145400	-9.425800	28.246169	0.000364	20.926446
1987.521229	-2.988500	3.147000	-9.403500	28.299261	0.000363	20.938648
1988.516236	-3.034400	3.142800	-9.535300	28.336414	0.000363	20.942391
1989.518014	-2.948100	3.148400	-9.280900	28.384792	0.000363	20.937052
1990.521130	-3.001200	3.143000	-9.431800	28.422339	0.000364	20.928393
1991.521382	-3.001000	3.143300	-9.432100	28.423528	0.000360	20.915842
1992.518593	-2.946800	3.146400	-9.270800	28.437208	0.000360	20.921556
1993.520991	-2.997900	3.142300	-9.419400	28.454332	0.000358	20.943539
1994.518582	-2.982500	3.142400	-9.370500	28.449821	0.000359	20.916715
1995.520790	-3.006200	3.141000	-9.441600	28.417035	0.000358	20.920683
1996.524050	-3.025600	3.142200	-9.505600	28.364866	0.000358	20.934532
1997.522484	-3.013200	3.140500	-9.461600	28.334753	0.000355	20.935979
1998.523190	-2.998200	3.140400	-9.413700	28.317156	0.000355	20.934382
1999.520234	-2.990400	3.139900	-9.387500	28.306375	0.000354	20.910253
2000.523145	-3.003200	3.137700	-9.421900	28.328607	0.000355	20.928842
2001.523582	-2.997300	3.137700	-9.403900	28.352896	0.000353	20.935280
2002.520718	-2.981800	3.138600	-9.358100	28.372847	0.000352	20.933559
2003.525753	-2.989400	3.135600	-9.371600	28.419836	0.000351	20.921132
2004.522640	-3.003300	3.135000	-9.415100	28.467814	0.000349	20.925350
2005.524562	-3.010700	3.135000	-9.437900	28.502136	0.000351	20.908706
2006.525348	-3.000700	3.133900	-9.402600	28.486127	0.000347	20.934781
2007.526654	-3.010300	3.134300	-9.433900	28.414384	0.000349	20.932237
2008.522530	-2.989300	3.133600	-9.365600	28.362091	0.000347	20.935056
2009.525346	-2.973600	3.134800	-9.320900	28.330813	0.000347	20.909255
2010.522580	-2.982800	3.133300	-9.344500	28.294602	0.000346	20.926847
2011.526083	-3.001400	3.131700	-9.398100	28.327542	0.000344	20.902642
2012.527224	-3.022100	3.132500	-9.465400	28.388511	0.000342	20.917565
2013.529206	-3.008100	3.130800	-9.416400	28.421324	0.000343	20.930690
2014.523229	-3.011400	3.130300	-9.425500	28.460950	0.000342	20.902318
2015.523697	-3.020400	3.129000	-9.449800	28.504317	0.000340	20.901420
2016.527009	-2.999300	3.128900	-9.383500	28.548625	0.000339	20.890566
2017.528153	-3.028200	3.127000	-9.468700	28.525728	0.000338	20.914920
2018.524984	-3.015700	3.127900	-9.431800	28.509374	0.000339	20.906512
2019.530178	-2.979700	3.128700	-9.321700	28.415080	0.000337	20.891690
2020.530546	-2.990200	3.127300	-9.349600	28.378648	0.000339	20.897205
2021.526904	-2.989700	3.126300	-9.346100	28.308657	0.000336	20.909706
2022.530777	-2.998300	3.125600	-9.370400	28.300305	0.000333	20.896082
2023.530099	-3.023800	3.123600	-9.444300	28.307716	0.000332	20.904965
2024.527054	-3.011900	3.124300	-9.409400	28.233283	0.000332	20.896881
2025.529663	-3.015200	3.123300	-9.415800	28.202894	0.000332	20.882408
2026.530139	-3.009600	3.122000	-9.395000	28.178949	0.000332	20.877268
2027.529709	-2.980400	3.122300	-9.305100	28.119803	0.000328	20.892639
2028.526745	-3.024100	3.121800	-9.439900	28.126570	0.000330	20.883332
2029.529599	-2.993900	3.120200	-9.340700	28.157086	0.000329	20.881335
2030.527094	-3.004700	3.120800	-9.376200	28.232243	0.000329	20.887300
2031.528624	-2.996600	3.120300	-9.348500	28.273116	0.000327	20.895260
2032.527645	-2.990400	3.119800	-9.328500	28.355750	0.000328	20.904493
2033.531658	-2.988600	3.119700	-9.322100	28.394983	0.000325	20.886153
2034.528213	-2.981700	3.117900	-9.295500	28.420955	0.000325	20.881960
2035.535334	-2.988700	3.117700	-9.317200	28.456741	0.000324	20.903295
2036.529915	-3.006800	3.115400	-9.366100	28.492402	0.000324	20.900327
2037.530369	-2.990000	3.117200	-9.318800	28.530687	0.000323	20.892416
2038.532276	-3.009700	3.114200	-9.372300	28.534281	0.000323	20.878967
2039.532862	-2.998700	3.115100	-9.340900	28.493344	0.000319	20.879940
2040.530478	-3.007400	3.114600	-9.365600	28.479566	0.000319	20.866540
2041.533760	-2.983400	3.114300	-9.289200	28.526104	0.000320	20.883533
2042.535740	-3.028600	3.112400	-9.424800	28.542236	0.000318	20.872753
2043.533294	-2.977600	3.112600	-9.266500	28.548307	0.000318	20.892142
2044.542790	-2.992500	3.111400	-9.309900	28.577026	0.000317	20.883608
2045.533977	-3.000200	3.112300	-9.336400	28.607231	0.000317	20.883209
2046.531553	-3.013300	3.111200	-9.373900	28.650989	0.000317	20.882710
2047.531418	-2.989700	3.109700	-9.294700	28.635304	0.000314	20.869284
2048.530982	-3.025800	3.107700	-9.402500	28.603390	0.000314	20.882660
2049.535165	-3.012900	3.107800	-9.362600	28.546647	0.000315	20.879092
2050.532867	-3.009100	3.107500	-9.349300	28.581585	0.000313	20.875398
2051.534986	-2.987000	3.108400	-9.283000	28.609263	0.000310	20.866765
2052.533490	-2.997600	3.105200	-9.306700	28.635107	0.000311	20.881412
2053.534992	-3.001400	3.105000	-9.318100	28.656490	0.000311	20.888724
2054.537666	-2.975600	3.105700	-9.240000	28.642639	0.000308	20.849646
2055.533248	-2.991100	3.104200	-9.283200	28.669597	0.000309	20.867314
2056.532911	-3.005700	3.104200	-9.329100	28.708669	0.000309	20.851194
2057.536049	-3.031200	3.101200	-9.399100	28.637436	0.000309	20.876172
2058.535891	-3.019500	3.101300	-9.362500	28.607058	0.000306	20.867863
2059.533507	-3.034300	3.100800	-9.407700	28.584460	0.000305	20.866914
2060.537533	-2.990700	3.100800	-9.272800	28.547638	0.000305	20.850694
2061.536576	-3.015800	3.099700	-9.346400	28.532250	0.000304	20.860801
2062.533431	-3.012800	3.099700	-9.336900	28.515722	0.000302	20.878294
2063.539525	-3.006700	3.100300	-9.319700	28.538246	0.000303	20.873951
2064.534211	-3.004100	3.098600	-9.306600	28.563472	0.000300	20.874226
2065.539916	-3.001100	3.096900	-9.293700	28.598583	0.000301	20.890146
2066.538718	-3.001200	3.095800	-9.290300	28.609362	0.000300	20.853589
2067.532978	-2.981400	3.096800	-9.231400	28.672000	0.000297	20.870208
2068.536896	-2.981200	3.096000	-9.228700	28.714788	0.000300	20.882011
2069.545968	-3.006200	3.095200	-9.302700	28.745708	0.000299	20.861948
2070.534730	-2.989000	3.094500	-9.246800	28.743627	0.000297	20.866490
2071.535060	-3.003700	3.093800	-9.291900	28.727548	0.000296	20.850769
2072.542657	-2.966700	3.093100	-9.175800	28.747194	0.000296	20.861074
2073.536661	-3.010700	3.090100	-9.302100	28.759829	0.000297	20.847250
2074.539780	-3.006300	3.090500	-9.290400	28.815100	0.000293	20.875897
2075.539169	-2.991700	3.091100	-9.246700	28.827982	0.000294	20.857107
2076.536184	-2.988400	3.089600	-9.232100	28.854341	0.000294	20.859003
2077.537079	-3.004000	3.087500	-9.273900	28.839353	0.000293	20.864294
2078.536852	-3.000800	3.087900	-9.265200	28.824663	0.000290	20.842858
2079.539740	-3.009400	3.087300	-9.290100	28.837149	0.000292	20.866340
2080.537035	-2.998300	3.086200	-9.252900	28.853994	0.000291	20.864818
2081.542028	-3.011200	3.084900	-9.288100	28.880525	0.000289	20.881587
2082.542014	-2.996600	3.087000	-9.249900	28.909384	0.000289	20.859453
2083.543059	-3.015500	3.084300	-9.299500	28.878147	0.000287	20.851693
2084.541297	-3.020000	3.082700	-9.309100	28.858329	0.000285	20.861599
2085.544393	-2.970800	3.083700	-9.159500	28.840593	0.000288	20.852267
2086.544198	-3.018700	3.080200	-9.297600	28.866257	0.000282	20.859154
2087.544299	-2.999700	3.081200	-9.241700	28.913199	0.000284	20.854762
2088.546330	-2.994100	3.080300	-9.221600	28.915925	0.000282	20.854663
2089.543046	-2.988100	3.079900	-9.201200	28.920335	0.000281	20.851519
2090.542570	-3.024900	3.078500	-9.310600	28.901508	0.000282	20.855312
2091.546350	-2.981100	3.078500	-9.176000	28.864302	0.000281	20.841064
2092.559519	-3.013400	3.076400	-9.269400	28.823600	0.000281	20.856960
2093.547900	-2.996900	3.077100	-9.220300	28.812676	0.000281	20.864921
2094.550163	-2.977900	3.076200	-9.159300	28.794939	0.000279	20.850373
2095.544069	-2.984700	3.074300	-9.174700	28.779702	0.000279	20.867267
2096.550838	-2.977100	3.074700	-9.152500	28.807995	0.000279	20.833654
2097.547150	-2.983600	3.073600	-9.168800	28.858929	0.000276	20.847031
2098.548366	-3.036000	3.070900	-9.321200	28.813421	0.000277	20.848129
2099.548705	-3.031200	3.071200	-9.308000	28.825932	0.000275	20.850775
2100.548579	-3.038700	3.070000	-9.327000	28.754731	0.000273	20.828839
2101.547733	-3.026700	3.069400	-9.288900	28.724853	0.000275	20.838098
2102.549288	-3.005400	3.069700	-9.224200	28.693859	0.000275	20.832958
2103.544899	-2.997700	3.067200	-9.193600	28.628150	0.000273	20.832683
2104.548769	-3.024400	3.066700	-9.273400	28.647824	0.000273	20.846808
2105.545060	-3.008600	3.065800	-9.223300	28.661080	0.000271	20.849727
2106.545178	-3.024100	3.065000	-9.267200	28.704216	0.000272	20.840545
2107.544815	-2.992700	3.065600	-9.173000	28.693439	0.000272	20.820681
2108.547721	-2.986300	3.064700	-9.150700	28.738630	0.000272	20.836328
2109.546885	-3.005100	3.062900	-9.203400	28.758252	0.000272	20.837601
2110.544477	-3.040800	3.061300	-9.306900	28.768360	0.000269	20.844463
2111.548493	-2.985100	3.062600	-9.141000	28.748937	0.000268	20.834382
2112.551025	-3.009100	3.061600	-9.211500	28.727680	0.000269	20.835256
2113.545236	-3.035400	3.058600	-9.283200	28.749730	0.000266	20.829966
2114.549663	-2.991200	3.058800	-9.148200	28.781714	0.000267	20.850329
2115.544062	-3.013200	3.057400	-9.211500	28.813078	0.000268	20.833559
2116.547863	-2.985300	3.058300	-9.129200	28.800692	0.000265	20.832462
2117.550360	-2.987700	3.056100	-9.129900	28.801261	0.000269	20.841096
2118.545585	-3.011600	3.055100	-9.199800	28.834656	0.000265	20.844865
2119.548986	-2.970300	3.054500	-9.071800	28.864977	0.000263	20.832262
2120.546294	-3.049200	3.051600	-9.303900	28.918311	0.000267	20.847110
2121.553983	-2.980400	3.052500	-9.095500	28.977314	0.000268	20.826897
2122.549407	-3.024700	3.051000	-9.227400	29.013997	0.000263	20.846312
2123.546722	-3.009800	3.050900	-9.181800	28.974664	0.000263	20.815219
2124.549330	-3.000900	3.048400	-9.146200	28.949374	0.000262	20.840947
2125.551837	-3.008000	3.048200	-9.168400	28.952321	0.000265	20.829218
2126.549806	-2.980900	3.050000	-9.090000	28.974243	0.000263	20.811949
2127.547662	-3.008100	3.046600	-9.163200	29.008945	0.000263	20.817989
2128.553603	-3.004300	3.048200	-9.156500	29.038494	0.000261	20.824527
2129.552177	-3.004000	3.044600	-9.144600	29.077032	0.000262	20.816417
2130.551306	-3.010200	3.043200	-9.159900	29.125154	0.000260	20.823654
2131.553279	-2.981100	3.045100	-9.076300	29.096747	0.000259	20.817789
2132.555433	-2.988600	3.044100	-9.096800	29.038345	0.000258	20.808730
2133.551939	-2.994000	3.040800	-9.102800	29.000870	0.000258	20.813647
2134.554385	-3.013000	3.038400	-9.154500	28.986479	0.000257	20.836605
2135.553779	-3.016600	3.040000	-9.169600	28.989699	0.000261	20.820409
2136.559825	-2.993300	3.038400	-9.094200	29.002876	0.000258	20.831315
2137.551609	-2.980000	3.038000	-9.052200	29.055906	0.000257	20.816941
2138.553389	-3.028300	3.035300	-9.190200	29.094271	0.000255	20.803914
2139.553742	-3.008800	3.034800	-9.129900	29.089615	0.000256	20.817715
2140.556003	-3.023300	3.033700	-9.170400	29.041069	0.000255	20.817165
2141.553636	-2.986600	3.034300	-9.061800	28.999904	0.000254	20.819312
2142.552006	-2.969800	3.033500	-9.007800	28.941621	0.000253	20.806584
2143.554382	-2.980900	3.031700	-9.036600	28.960124	0.000254	20.823803
2144.553444	-2.999900	3.030600	-9.090700	28.932307	0.000255	20.826124
2145.552884	-3.020000	3.028900	-9.146500	28.878430	0.000252	20.827796
2146.553557	-3.031000	3.027900	-9.176000	28.862897	0.000252	20.820683
2147.553305	-3.004100	3.027200	-9.092400	28.884548	0.000253	20.836805
2148.552796	-3.000500	3.026900	-9.080600	28.899759	0.000254	20.789066
2149.552962	-3.008800	3.024700	-9.100100	28.963097	0.000253	20.828695
2150.555589	-3.042300	3.021700	-9.191800	28.943330	0.000253	20.809728
2151.557205	-3.004000	3.023300	-9.080800	28.973896	0.000249	20.823454
2152.554142	-3.005900	3.020800	-9.079500	28.989872	0.000253	20.816791
2153.561742	-2.992600	3.021900	-9.042300	28.972385	0.000250	20.821931
2154.559019	-3.030300	3.017900	-9.144800	28.920714	0.000250	20.818238
2155.556700	-3.013000	3.018000	-9.091200	28.899906	0.000249	20.808655
2156.558817	-2.988500	3.017600	-9.016700	28.882763	0.000251	20.840222
2157.560318	-2.996400	3.015600	-9.035100	28.923314	0.000247	20.801891
2158.556272	-3.004200	3.014700	-9.055700	28.960098	0.000249	20.814768
2159.563237	-2.984800	3.015200	-8.998800	28.999160	0.000249	20.831363
2160.557827	-3.001800	3.011600	-9.038500	29.048895	0.000245	20.784273
2161.561269	-3.021700	3.010500	-9.095400	29.116410	0.000248	20.803937
2162.562037	-2.999900	3.011400	-9.032700	29.148680	0.000247	20.803264
2163.560246	-2.996400	3.008800	-9.013800	29.148580	0.000246	20.806482
2164.558772	-2.990500	3.007800	-8.994000	29.155341	0.000244	20.823726
2165.559437	-2.985600	3.006700	-8.975600	29.162003	0.000247	20.798671
2166.563737	-3.013200	3.007100	-9.060100	29.200388	0.000246	20.804161
2167.561217	-3.004500	3.004400	-9.025700	29.202147	0.000245	20.812571
2168.558463	-2.987800	3.004600	-8.976100	29.212101	0.000245	20.813594
2169.562166	-2.988900	3.002500	-8.972700	29.211581	0.000243	20.809751
2170.560177	-3.018900	3.001100	-9.059200	29.210813	0.000246	20.803761
2171.558731	-2.994100	3.000400	-8.982900	29.240529	0.000246	20.818060
2172.562038	-2.984500	3.000300	-8.953600	29.230748	0.000244	20.821479
2173.563396	-2.998900	2.996900	-8.986700	29.252837	0.000245	20.816713
2174.561165	-2.977500	2.997100	-8.922500	29.268313	0.000244	20.807653
2175.560988	-3.016600	2.993800	-9.029900	29.260711	0.000243	20.807579
2176.565297	-3.024200	2.993900	-9.052400	29.276163	0.000244	20.801813
2177.565645	-3.005900	2.992500	-8.994000	29.285919	0.000245	20.826344
2178.563199	-3.006300	2.991500	-8.992400	29.261701	0.000243	20.789136
2179.565667	-3.000100	2.990300	-8.970500	29.243302	0.000242	20.793827
2180.566186	-3.002400	2.987700	-8.968700	29.233025	0.000241	20.807652
2181.564341	-2.980200	2.987900	-8.902800	29.217819	0.000241	20.794700
2182.566887	-3.000700	2.985400	-8.956800	29.239289	0.000241	20.794051
2183.565177	-3.010800	2.983600	-8.982000	29.212668	0.000241	20.783819
2184.568115	-3.018100	2.981000	-8.996300	29.175842	0.000241	20.812143
2185.565973	-2.995300	2.983300	-8.935500	29.156055	0.000238	20.786039
2186.567410	-2.995700	2.981300	-8.930800	29.116604	0.000240	20.789908
2187.569034	-2.973600	2.980700	-8.862600	29.049583	0.000238	20.814364
2188.566661	-2.993600	2.978100	-8.914600	28.996677	0.000239	20.809896
2189.566803	-2.999200	2.976000	-8.924400	28.997420	0.000240	20.796420
2190.567809	-3.009100	2.975200	-8.951700	29.043341	0.000240	20.809971
2191.567502	-3.036000	2.972500	-9.023100	29.050821	0.000239	20.805654
2192.564844	-3.019500	2.971700	-8.972000	29.100825	0.000238	20.788234
2193.567584	-3.009800	2.970400	-8.939600	29.152042	0.000240	20.791004
2194.567877	-3.020300	2.967600	-8.961300	29.169031	0.000238	20.810020
2195.563914	-3.023400	2.966800	-8.968600	29.162170	0.000238	20.802633
2196.573877	-3.020700	2.965800	-8.958000	29.154890	0.000238	20.796245
2197.568654	-2.978300	2.965600	-8.830800	29.174900	0.000237	20.794123
2198.565709	-2.962700	2.964500	-8.780800	29.184830	0.000238	20.779474
2199.568464	-2.999100	2.962200	-8.883500	29.164597	0.000237	20.833527
2200.568567	-3.016100	2.960700	-8.928500	29.135944	0.000236	20.782844
2201.569333	-3.007800	2.958500	-8.897200	29.137034	0.000235	20.789157
2202.569910	-2.994900	2.957800	-8.856900	29.142853	0.000236	20.797867
2203.565823	-2.971600	2.957400	-8.787200	29.111946	0.000236	20.787585
2204.565442	-2.963000	2.955500	-8.755800	29.135918	0.000237	20.774283
2205.566335	-2.974200	2.954100	-8.785000	29.171334	0.000236	20.778202
2206.566478	-3.014300	2.951200	-8.894200	29.192285	0.000234	20.798840
2207.570988	-3.000000	2.951000	-8.852400	29.237727	0.000235	20.799589
2208.572371	-3.001200	2.950100	-8.853200	29.253675	0.000236	20.808074
2209.572437	-3.001600	2.948700	-8.848800	29.270291	0.000235	20.764601
2210.571309	-3.020300	2.945000	-8.893500	29.328110	0.000233	20.802009
2211.568985	-2.981500	2.946100	-8.782700	29.312065	0.000233	20.789158
2212.569964	-3.024700	2.943500	-8.902400	29.310579	0.000235	20.785764
2213.567326	-3.013600	2.941600	-8.863200	29.322118	0.000234	20.782221
2214.568237	-3.021900	2.939400	-8.880800	29.294187	0.000234	20.795796
2215.568469	-3.012500	2.939100	-8.853400	29.240872	0.000233	20.780948
2216.568670	-3.008900	2.935200	-8.830600	29.222770	0.000234	20.776456
2217.572386	-3.026100	2.934700	-8.879100	29.201845	0.000234	20.781921
2218.575729	-2.990000	2.933100	-8.769300	29.250754	0.000233	20.784267
2219.570800	-2.995000	2.931300	-8.778300	29.294286	0.000234	20.793526
2220.573894	-2.998500	2.929000	-8.781600	29.343586	0.000233	20.786788
2221.573340	-3.014300	2.928100	-8.823700	29.340293	0.000232	20.790107
2222.571736	-3.006700	2.927600	-8.801400	29.317315	0.000232	20.788759
2223.573727	-2.992500	2.925800	-8.754300	29.308450	0.000234	20.797843
2224.573057	-2.995600	2.924400	-8.759500	29.272124	0.000233	20.790157
2225.570008	-3.010400	2.922300	-8.796900	29.277398	0.000232	20.777928
2226.575045	-2.997700	2.920900	-8.754100	29.287502	0.000233	20.796646
2227.575401	-2.999500	2.918900	-8.754400	29.362107	0.000232	20.790281
2228.576194	-2.984000	2.917500	-8.704600	29.376915	0.000233	20.790507
2229.575693	-2.989400	2.915700	-8.715300	29.392711	0.000232	20.799789
2230.575246	-2.991500	2.913100	-8.713700	29.435100	0.000233	20.777555
2231.574493	-3.016700	2.911900	-8.782900	29.460007	0.000233	20.776581
2232.578382	-2.997000	2.910900	-8.723000	29.478873	0.000232	20.803658
2233.574446	-2.991800	2.908800	-8.701400	29.459562	0.000232	20.788935
2234.574279	-3.012800	2.906800	-8.756500	29.419972	0.000232	20.786489
2235.583789	-2.991300	2.904400	-8.686400	29.411331	0.000233	20.789633
2236.575884	-3.029600	2.901200	-8.788400	29.353690	0.000233	20.794125
2237.574662	-3.023300	2.900400	-8.768300	29.338908	0.000231	20.804357
2238.578580	-3.000300	2.899600	-8.699000	29.303004	0.000231	20.797570
2239.576933	-3.012400	2.896500	-8.724600	29.302707	0.000230	20.809599
2240.575316	-3.030800	2.894700	-8.771800	29.270813	0.000230	20.809698
2241.575212	-3.023300	2.892100	-8.742300	29.192833	0.000229	20.798919
2242.578220	-3.011700	2.892100	-8.709200	29.232827	0.000230	20.785642
2243.580215	-2.972500	2.890700	-8.590300	29.246918	0.000229	20.802213
2244.579599	-2.954200	2.888400	-8.531400	29.253431	0.000228	20.785069
2245.581577	-3.007100	2.885600	-8.676400	29.255760	0.000229	20.788364
2246.576650	-3.007400	2.884500	-8.673800	29.279706	0.000227	20.789263
2247.580453	-3.014400	2.882700	-8.688400	29.288670	0.000228	20.791185
2248.579446	-2.999900	2.880200	-8.639300	29.314745	0.000227	20.789014
2249.581594	-3.014200	2.879600	-8.677100	29.261284	0.000228	20.795828
2250.581514	-2.999400	2.877400	-8.629400	29.215645	0.000226	20.799147
2251.579731	-3.000100	2.875800	-8.626200	29.181322	0.000228	20.805337
2252.575923	-2.979600	2.874500	-8.563200	29.159678	0.000229	20.796329
2253.581394	-3.001000	2.872000	-8.617700	29.130035	0.000227	20.784475
2254.577341	-3.023100	2.868200	-8.669000	29.117454	0.000226	20.787446
2255.580614	-3.011700	2.866300	-8.631100	29.133206	0.000226	20.795732
2256.580393	-3.017400	2.864200	-8.641700	29.125159	0.000227	20.803744
2257.578939	-2.975500	2.863400	-8.519000	29.151064	0.000225	20.799502
2258.580063	-2.991000	2.861200	-8.557000	29.176475	0.000226	20.808987
2259.577131	-2.998200	2.859700	-8.573400	29.178655	0.000226	20.804546
2260.577273	-2.996600	2.855700	-8.556800	29.175709	0.000227	20.782136
2261.581536	-2.983800	2.855100	-8.517500	29.170881	0.000228	20.809039
2262.578019	-3.003900	2.852300	-8.566500	29.139108	0.000226	20.798834
2263.577071	-2.994800	2.850800	-8.537000	29.130366	0.000226	20.801879
2264.583715	-2.969300	2.851400	-8.465600	29.121105	0.000227	20.795392
2265.580457	-2.999400	2.847400	-8.538700	29.136387	0.000225	20.782816
2266.582688	-3.009400	2.844300	-8.558500	29.191217	0.000227	20.778323
2267.578578	-3.009000	2.843500	-8.555600	29.238295	0.000226	20.796368
2268.583839	-3.001200	2.841200	-8.525400	29.332096	0.000228	20.772362
2269.579521	-2.993600	2.837400	-8.492900	29.358393	0.000226	20.814987
2270.581531	-2.960100	2.837900	-8.399100	29.387933	0.000226	20.804931
2271.580186	-2.999300	2.835200	-8.502300	29.388751	0.000225	20.789160
2272.595914	-3.025700	2.831100	-8.565600	29.396650	0.000226	20.787638
2273.581640	-3.011700	2.828200	-8.516900	29.383132	0.000227	20.793928
2274.582378	-2.986100	2.828100	-8.443500	29.425373	0.000224	20.801889
2275.584266	-3.003400	2.825100	-8.483900	29.431390	0.000226	20.807954
2276.584597	-2.998600	2.821100	-8.457800	29.459765	0.000228	20.777760
2277.582918	-3.013500	2.820100	-8.497700	29.499823	0.000227	20.783524
2278.587930	-3.005800	2.817900	-8.468400	29.532627	0.000225	20.787668
2279.583999	-2.988500	2.817400	-8.418300	29.574342	0.000226	20.784200
2280.588394	-3.006700	2.811200	-8.451000	29.617193	0.000226	20.793733
2281.584561	-3.018700	2.810700	-8.483700	29.673609	0.000227	20.797503
2282.587558	-2.994000	2.809400	-8.410000	29.649524	0.000226	20.784128
2283.588710	-3.007800	2.806100	-8.439100	29.655441	0.000226	20.790567
2284.592610	-3.020700	2.803500	-8.467100	29.579073	0.000227	20.791341
2285.591120	-2.987300	2.800300	-8.364300	29.485346	0.000225	20.813028
2286.590717	-3.033800	2.798300	-8.488900	29.464400	0.000225	20.808511
2287.592850	-3.024300	2.795200	-8.452400	29.427463	0.000225	20.802099
2288.590473	-2.999000	2.793000	-8.375200	29.420307	0.000227	20.801051
2289.588580	-2.970500	2.792200	-8.293800	29.422140	0.000226	20.787251
2290.594888	-2.995500	2.789300	-8.353700	29.430385	0.000225	20.788923
2291.592912	-2.968900	2.786700	-8.272600	29.444820	0.000225	20.784033
2292.589846	-2.985100	2.783700	-8.308900	29.463290	0.000225	20.807866
2293.593166	-2.986500	2.781300	-8.305800	29.534146	0.000226	20.806269
2294.594506	-2.974900	2.779200	-8.267300	29.544717	0.000228	20.821666
2295.593465	-2.987200	2.775400	-8.289300	29.584327	0.000229	20.796637
2296.593816	-2.982900	2.772200	-8.267600	29.640991	0.000227	20.805397
2297.588902	-2.993900	2.768500	-8.287900	29.664558	0.000227	20.812560
2298.588956	-2.980100	2.767300	-8.245600	29.704310	0.000227	20.808067
2299.593491	-2.972300	2.765200	-8.217600	29.719831	0.000227	20.803327
2300.593699	-3.004900	2.761800	-8.297800	29.738816	0.000228	20.809666
2301.589216	-2.986900	2.757300	-8.233900	29.698371	0.000226	20.802080
2302.593041	-2.997500	2.755600	-8.259400	29.719633	0.000229	20.814507
2303.591583	-2.992800	2.752800	-8.237500	29.656316	0.000227	20.796191
2304.590825	-2.996700	2.749800	-8.239100	29.640944	0.000226	20.817203
2305.593834	-2.997800	2.745800	-8.230800	29.569502	0.000226	20.831952
2306.597992	-3.011100	2.743100	-8.258000	29.522565	0.000226	20.809293
2307.594957	-2.988200	2.741700	-8.191100	29.507834	0.000224	20.805351
2308.592096	-2.994300	2.736900	-8.194500	29.560467	0.000226	20.807672
2309.593180	-3.015900	2.731800	-8.237000	29.535042	0.000227	20.797215
2310.594634	-2.983800	2.731100	-8.147500	29.493724	0.000226	20.824791
2311.595178	-2.992100	2.728500	-8.163200	29.506597	0.000227	20.785611
2312.591971	-2.938600	2.724400	-8.005400	29.535637	0.000226	20.798763
2313.594976	-2.973900	2.719900	-8.087400	29.575470	0.000228	20.820425
2314.597019	-2.991800	2.718200	-8.131300	29.558859	0.000227	20.834025
2315.592502	-3.004000	2.713800	-8.151600	29.539202	0.000225	20.799986
2316.596062	-3.009900	2.710700	-8.157900	29.569503	0.000226	20.819625
2317.598538	-3.038400	2.705800	-8.220000	29.636763	0.000227	20.825790
2318.597996	-2.994800	2.701700	-8.090500	29.685601	0.000226	20.825240
2319.597464	-3.008200	2.699300	-8.118900	29.731145	0.000226	20.817579
2320.598196	-2.983800	2.697700	-8.048500	29.757332	0.000223	20.821222
2321.594916	-2.992200	2.692100	-8.054600	29.806734	0.000225	20.824566
2322.596418	-3.037700	2.686000	-8.158100	29.831608	0.000225	20.814559
2323.595785	-2.991000	2.684300	-8.028800	29.833389	0.000227	20.815406
2324.595238	-3.014200	2.680400	-8.078300	29.848907	0.000228	20.804501
2325.595278	-3.018500	2.676500	-8.078100	29.886995	0.000224	20.825363
2326.597668	-2.994300	2.674800	-8.008000	29.930180	0.000226	20.829556
2327.597599	-3.001900	2.669300	-8.012500	29.935971	0.000228	20.824490
2328.594268	-2.995000	2.666100	-7.984300	29.964132	0.000228	20.825388
2329.598289	-2.993400	2.661000	-7.965100	30.001993	0.000226	20.850766
2330.594096	-3.020200	2.656900	-8.023900	29.994198	0.000227	20.822043
2331.599154	-3.010200	2.651900	-7.981200	30.002958	0.000227	20.819972
2332.594488	-2.989700	2.649700	-7.921400	30.021244	0.000225	20.824188
2333.598655	-2.997300	2.643200	-7.921900	30.045048	0.000226	20.831125
2334.595590	-3.001900	2.640100	-7.924600	30.023792	0.000226	20.824388
2335.595410	-2.995700	2.636500	-7.896800	30.012062	0.000225	20.831050
2336.598833	-3.024300	2.630700	-7.954600	29.977344	0.000226	20.838711
2337.596581	-2.999600	2.626100	-7.876400	29.923173	0.000225	20.829602
2338.599335	-2.981100	2.621600	-7.814100	29.928394	0.000225	20.837712
2339.595941	-3.013800	2.617000	-7.885300	29.890407	0.000226	20.813631
2340.599592	-3.008400	2.611700	-7.855700	29.896222	0.000226	20.846520
2341.597978	-3.001400	2.606700	-7.822300	29.848655	0.000225	20.845497
2342.599006	-3.000800	2.602700	-7.808900	29.798858	0.000225	20.840806
2343.601958	-2.975800	2.597800	-7.728700	29.768984	0.000223	20.839607
2344.603056	-3.007600	2.590300	-7.789300	29.816553	0.000224	20.854853
2345.599634	-2.978500	2.585800	-7.700700	29.859073	0.000226	20.848416
2346.605470	-2.999000	2.580300	-7.736900	29.887756	0.000224	20.834665
2347.603274	-2.973100	2.576900	-7.660000	29.920671	0.000226	20.837036
2348.599744	-2.949100	2.571100	-7.581500	29.914063	0.000224	20.870200
2349.602814	-3.009900	2.562800	-7.713600	29.873303	0.000223	20.848065
2350.605217	-3.016200	2.557700	-7.713800	29.847440	0.000223	20.838108
2351.599982	-2.985500	2.551400	-7.616100	29.793584	0.000223	20.840229
2352.601409	-2.995200	2.548700	-7.631900	29.777422	0.000223	20.836736
2353.602350	-3.026600	2.539400	-7.684700	29.812493	0.000223	20.852656
2354.604914	-3.010500	2.535000	-7.630500	29.881519	0.000225	20.846867
2355.606085	-2.987200	2.527200	-7.547500	29.931658	0.000225	20.872296
2356.602175	-3.024100	2.520000	-7.619500	29.927129	0.000224	20.845919
2357.605033	-3.033700	2.514200	-7.625600	30.013767	0.000226	20.856475
2358.603625	-2.978300	2.508200	-7.469300	30.030147	0.000226	20.839805
2359.605284	-2.964500	2.502200	-7.417000	30.018145	0.000223	20.841452
2360.605245	-2.974300	2.496300	-7.423200	30.036927	0.000224	20.855176
