LabVIEW Measurement	
Writer_Version	2
Reader_Version	2
Separator	Tab
Decimal_Separator	.
Multi_Headings	No
X_Columns	One
Time_Pref	Absolute
Operator	admin
Description	Clolumns are: time, Current, Voltage, Power, Battery Temp, and Chamber Temp
Date	2024/08/16
Time	13:06:06.104549407958984375
***End_of_Header***	
	
Channels	6						
Samples	1	1	1	1	1	1	
Date	2024/09/02	2024/09/02	2024/09/02	2024/09/02	2024/09/02	2024/09/02	
Time	18:49:25.7094321250915527344	18:49:25.7144265174865722656	18:49:25.7204265594482421875	18:49:25.6935248374938964844	18:49:25.6935248374938964844	18:49:25.6935248374938964844	
X_Dimension	Time	Time	Time	Time	Time	Time	
X0	0.0000000000000000E+0	0.0000000000000000E+0	0.0000000000000000E+0	0.0000000000000000E+0	0.0000000000000000E+0	0.0000000000000000E+0	
Delta_X	1.000000	1.000000	1.000000	1.000000	1.000000	1.000000	
***End_of_Header***							
X_Value	Untitled	Untitled 1	Untitled 2	Untitled 3	Untitled 4	Untitled 5	Comment
0.000000	0.015444	4.104500	0.063435	21.024249	0.000936	20.754477
0.999121	-2.990400	3.938400	-11.776000	21.031507	0.000936	20.764582
2.000453	-2.994800	3.930300	-11.770000	21.027487	0.000935	20.776682
3.001232	-2.992500	3.925200	-11.744000	21.033717	0.000934	20.763473
4.001981	-3.003300	3.921200	-11.775000	21.028681	0.000934	20.757013
5.003541	-2.993200	3.918100	-11.726000	21.018473	0.000930	20.766718
6.006539	-2.993500	3.915200	-11.719000	21.025103	0.000931	20.759599
7.001599	-3.006200	3.912400	-11.759000	21.038900	0.000931	20.774821
8.000646	-2.985700	3.909700	-11.673000	21.048037	0.000929	20.781115
9.009086	-3.002200	3.908100	-11.731000	21.046829	0.000930	20.764734
10.003194	-2.982200	3.907100	-11.650000	21.032657	0.000927	20.776163
11.001654	-2.998400	3.905100	-11.709000	21.045031	0.000929	20.774790
12.003109	-2.998100	3.902000	-11.697000	21.039909	0.000927	20.769666
13.002591	-2.981000	3.901700	-11.630000	21.067909	0.000927	20.785345
14.002978	-3.000000	3.899700	-11.699000	21.056722	0.000926	20.775103
15.007815	-3.011600	3.899100	-11.742000	21.036917	0.000926	20.755294
16.003190	-2.997200	3.898100	-11.682000	21.060834	0.000927	20.781113
17.003768	-3.001200	3.896800	-11.694000	21.070666	0.000924	20.776249
18.003423	-2.988200	3.897300	-11.645000	21.079125	0.000924	20.782339
19.002892	-2.994300	3.895300	-11.663000	21.080491	0.000922	20.778490
20.007755	-2.994400	3.894600	-11.661000	21.070062	0.000921	20.764739
21.002775	-3.006000	3.893000	-11.701000	21.077043	0.000922	20.782628
22.004821	-2.993100	3.891300	-11.646000	21.098350	0.000923	20.780706
23.003034	-2.991500	3.890600	-11.637000	21.111894	0.000924	20.782874
24.002890	-3.000000	3.889500	-11.667000	21.082276	0.000920	20.783594
25.008163	-2.983700	3.889400	-11.603000	21.110637	0.000920	20.759805
26.004168	-2.996700	3.890000	-11.657000	21.108470	0.000919	20.788458
27.008543	-3.021700	3.887200	-11.745000	21.102702	0.000918	20.776998
28.007524	-3.003400	3.887800	-11.676000	21.110809	0.000917	20.774677
29.005243	-3.006500	3.886900	-11.685000	21.119107	0.000919	20.776813
30.011201	-3.002700	3.886100	-11.667000	21.137527	0.000916	20.811833
31.005483	-2.998900	3.885100	-11.649000	21.132657	0.000918	20.788944
32.004505	-3.010900	3.884000	-11.693000	21.148391	0.000918	20.799941
33.007941	-3.006700	3.884500	-11.677000	21.141182	0.000915	20.780403
34.007474	-3.000400	3.884000	-11.653000	21.147338	0.000915	20.777077
35.008254	-2.999300	3.883600	-11.647000	21.164451	0.000915	20.797041
36.005650	-3.016500	3.882900	-11.712000	21.182987	0.000914	20.779072
37.006967	-2.991100	3.882800	-11.613000	21.176221	0.000914	20.803598
38.005100	-3.008400	3.882200	-11.678000	21.197698	0.000914	20.797108
39.004322	-3.017100	3.881700	-11.710000	21.184100	0.000913	20.790617
40.010242	-3.000000	3.880800	-11.642000	21.209320	0.000913	20.792612
41.006439	-2.971700	3.880600	-11.532000	21.188963	0.000912	20.790266
42.009930	-3.009700	3.878900	-11.673000	21.217378	0.000912	20.803518
43.010084	-2.992700	3.879100	-11.608000	21.239255	0.000911	20.799799
44.010376	-2.992300	3.880300	-11.610000	21.224432	0.000911	20.793979
45.009977	-3.012500	3.878100	-11.681000	21.232194	0.000912	20.805538
46.007462	-2.978400	3.879100	-11.553000	21.241323	0.000913	20.806135
47.008703	-2.987700	3.878000	-11.585000	21.266941	0.000912	20.798099
48.009130	-3.011200	3.877600	-11.674000	21.264873	0.000909	20.796504
49.009091	-3.001200	3.877600	-11.637000	21.261223	0.000913	20.810395
50.011558	-2.989700	3.877000	-11.590000	21.269902	0.000911	20.785887
51.008939	-2.996700	3.878500	-11.622000	21.285370	0.000911	20.817957
52.007357	-2.986000	3.876700	-11.576000	21.306020	0.000910	20.810642
53.007899	-3.001600	3.875200	-11.631000	21.279461	0.000911	20.806356
54.008346	-3.001200	3.875200	-11.630000	21.309917	0.000910	20.811695
55.009257	-2.998200	3.876100	-11.620000	21.320541	0.000910	20.809521
56.011494	-3.001800	3.875400	-11.631000	21.324683	0.000908	20.798018
57.014114	-3.012800	3.874000	-11.671000	21.329822	0.000910	20.808850
58.011728	-2.981500	3.877300	-11.559000	21.338378	0.000909	20.810771
59.009139	-2.976100	3.874100	-11.529000	21.335910	0.000910	20.814466
60.008692	-2.987300	3.874600	-11.573000	21.335078	0.000909	20.811738
61.012630	-2.995900	3.874000	-11.605000	21.355857	0.000910	20.808345
62.011349	-2.993000	3.872800	-11.589000	21.359649	0.000908	20.811190
63.010046	-3.023300	3.871800	-11.705000	21.353365	0.000909	20.823868
64.010526	-2.998600	3.872600	-11.611000	21.382348	0.000910	20.802606
65.011245	-3.024700	3.871500	-11.709000	21.381320	0.000910	20.816276
66.012283	-3.005100	3.870600	-11.631000	21.380249	0.000908	20.832273
67.012419	-3.021600	3.871000	-11.695000	21.392767	0.000910	20.813030
68.011319	-2.986100	3.872500	-11.563000	21.402221	0.000908	20.815851
69.012313	-3.005600	3.870700	-11.633000	21.408104	0.000909	20.819841
70.011727	-2.997700	3.871700	-11.605000	21.427183	0.000909	20.818541
71.011130	-2.987600	3.870100	-11.561000	21.423146	0.000909	20.810235
72.015050	-3.003600	3.870100	-11.623000	21.412794	0.000907	20.838757
73.013006	-2.982600	3.869900	-11.541000	21.439683	0.000907	20.815875
74.014427	-3.008800	3.869600	-11.641000	21.455518	0.000910	20.831719
75.012675	-3.020100	3.868000	-11.681000	21.455241	0.000909	20.813898
76.012608	-2.997900	3.869100	-11.598000	21.455918	0.000908	20.827378
77.016493	-3.024000	3.868300	-11.697000	21.463469	0.000909	20.841571
78.017066	-3.005000	3.868300	-11.623000	21.467415	0.000910	20.839354
79.017675	-2.970800	3.868900	-11.493000	21.479175	0.000909	20.816983
80.015877	-2.988900	3.868300	-11.561000	21.497311	0.000907	20.837500
81.016069	-2.983800	3.868100	-11.541000	21.492966	0.000907	20.846903
82.016608	-3.002100	3.867000	-11.608000	21.512973	0.000907	20.820456
83.018452	-3.004700	3.866700	-11.617000	21.515730	0.000909	20.849291
84.018316	-3.002400	3.866600	-11.608000	21.522739	0.000907	20.822167
85.019961	-3.036800	3.864700	-11.734000	21.526376	0.000909	20.827228
86.019587	-3.005000	3.865600	-11.614000	21.535723	0.000907	20.836582
87.020226	-3.010200	3.865800	-11.636000	21.528812	0.000908	20.813545
88.021555	-3.011100	3.865600	-11.638000	21.555477	0.000909	20.835960
89.020094	-2.982500	3.865600	-11.528000	21.547661	0.000905	20.834777
90.020526	-3.007200	3.865500	-11.623000	21.557760	0.000909	20.848674
91.018950	-3.030800	3.863200	-11.707000	21.567938	0.000908	20.824721
92.019673	-2.998400	3.864600	-11.587000	21.574614	0.000908	20.830928
93.024677	-3.000900	3.864100	-11.594000	21.587710	0.000909	20.837394
94.031250	-2.985400	3.864800	-11.537000	21.571396	0.000907	20.836242
95.020641	-2.993300	3.863800	-11.563000	21.607407	0.000907	20.846673
96.019751	-2.990500	3.863600	-11.553000	21.615831	0.000909	20.842775
97.021592	-2.998400	3.863800	-11.584000	21.628396	0.000909	20.851081
98.025233	-2.997000	3.865100	-11.582000	21.639121	0.000909	20.848064
99.026134	-2.973600	3.865200	-11.492000	21.629614	0.000908	20.841395
100.023110	-3.028000	3.863800	-11.699000	21.645274	0.000909	20.839997
101.022213	-2.975400	3.863000	-11.493000	21.649058	0.000909	20.834301
102.022068	-2.988000	3.862600	-11.539000	21.662749	0.000908	20.839467
103.023709	-3.007000	3.862600	-11.614000	21.662872	0.000908	20.835797
104.026077	-3.019700	3.862200	-11.662000	21.677455	0.000908	20.843279
105.023995	-3.030400	3.861400	-11.701000	21.662048	0.000907	20.860101
106.026330	-3.006400	3.862500	-11.612000	21.694880	0.000908	20.845544
107.022406	-2.992000	3.863400	-11.558000	21.705507	0.000909	20.857601
108.023965	-3.006000	3.862300	-11.609000	21.688198	0.000910	20.854504
109.031089	-2.987100	3.862200	-11.535000	21.704258	0.000909	20.853506
110.024575	-3.013400	3.860300	-11.631000	21.702344	0.000908	20.850169
111.025058	-2.996500	3.859100	-11.562000	21.716945	0.000910	20.863832
112.028381	-2.989000	3.861500	-11.540000	21.722033	0.000910	20.846640
113.026843	-3.005300	3.859700	-11.599000	21.720286	0.000909	20.839202
114.026223	-2.997000	3.861500	-11.571000	21.741427	0.000909	20.838549
115.031157	-3.003900	3.860000	-11.594000	21.755190	0.000911	20.870340
116.026867	-3.000500	3.860600	-11.582000	21.754717	0.000910	20.850427
117.031164	-3.001100	3.860100	-11.583000	21.783757	0.000910	20.851990
118.028313	-3.004300	3.859800	-11.594000	21.764838	0.000912	20.842539
119.028541	-3.015100	3.859400	-11.636000	21.764456	0.000912	20.849269
120.030513	-2.991200	3.858900	-11.541000	21.771408	0.000911	20.867605
121.031794	-2.989100	3.858900	-11.533000	21.789337	0.000911	20.843351
122.029627	-3.011900	3.858600	-11.621000	21.774349	0.000913	20.839730
123.030466	-2.965700	3.859000	-11.443000	21.776490	0.000912	20.831442
124.031884	-2.985700	3.858500	-11.519000	21.779701	0.000914	20.846509
125.032728	-3.007000	3.857900	-11.600000	21.797100	0.000913	20.830259
126.034585	-3.009900	3.857400	-11.610000	21.800866	0.000914	20.852519
127.031225	-3.012700	3.856800	-11.619000	21.829087	0.000913	20.842359
128.035512	-2.996200	3.857400	-11.556000	21.828606	0.000914	20.842826
129.030421	-3.016700	3.857400	-11.635000	21.840573	0.000912	20.842949
130.031035	-3.020200	3.857500	-11.649000	21.850890	0.000914	20.834310
131.037001	-2.985500	3.857200	-11.515000	21.853357	0.000914	20.839150
132.032607	-3.016000	3.856700	-11.631000	21.867334	0.000913	20.832751
133.032730	-3.013700	3.855700	-11.617000	21.850262	0.000914	20.842690
134.036707	-2.996000	3.855500	-11.550000	21.873769	0.000914	20.828761
135.034937	-3.015600	3.854100	-11.620000	21.882591	0.000914	20.846126
136.036210	-3.014800	3.855700	-11.623000	21.885458	0.000914	20.837142
137.037180	-3.012400	3.856000	-11.613000	21.879195	0.000915	20.826132
138.034720	-3.010100	3.856100	-11.607000	21.901631	0.000915	20.822985
139.036750	-3.012400	3.854900	-11.612000	21.879822	0.000916	20.819174
140.035517	-2.996100	3.855200	-11.550000	21.929204	0.000917	20.820713
141.037322	-2.979900	3.855800	-11.489000	21.904276	0.000915	20.856926
142.039281	-3.030600	3.853200	-11.676000	21.926688	0.000915	20.822462
143.035341	-3.006800	3.853200	-11.584000	21.908589	0.000916	20.831372
144.038845	-2.995900	3.854100	-11.546000	21.895006	0.000917	20.816353
145.037503	-3.015100	3.853700	-11.616000	21.911979	0.000918	20.838084
146.039052	-3.001700	3.854300	-11.568000	21.924270	0.000916	20.823361
147.040153	-2.982600	3.853900	-11.494000	21.919158	0.000916	20.821562
148.040308	-2.989500	3.853400	-11.519000	21.936161	0.000918	20.824358
149.040524	-2.998500	3.853100	-11.552000	21.949898	0.000917	20.805392
150.041838	-3.004600	3.852800	-11.576000	21.921600	0.000918	20.804567
151.037297	-2.980500	3.853000	-11.483000	21.939667	0.000919	20.801789
152.038403	-2.983500	3.853900	-11.497000	21.945758	0.000919	20.805989
153.040370	-3.003700	3.853300	-11.573000	21.944109	0.000920	20.819512
154.041309	-2.987400	3.852100	-11.506000	21.954499	0.000918	20.819955
155.047304	-3.005500	3.851200	-11.573000	21.963923	0.000920	20.813742
156.040466	-3.004000	3.851900	-11.570000	21.975544	0.000918	20.816839
157.044704	-2.997700	3.851300	-11.545000	21.999424	0.000917	20.808501
158.045026	-2.996400	3.850100	-11.535000	21.981271	0.000920	20.799813
159.042193	-3.022300	3.849700	-11.634000	21.994785	0.000923	20.788211
160.042006	-2.989700	3.850100	-11.509000	21.977039	0.000921	20.815965
161.040761	-2.990000	3.850600	-11.512000	22.021451	0.000922	20.806370
162.040733	-3.000700	3.850200	-11.551000	22.004824	0.000921	20.807269
163.048041	-2.975200	3.851000	-11.456000	22.028131	0.000924	20.787453
164.041349	-3.008500	3.849800	-11.581000	22.036116	0.000922	20.796395
165.041941	-2.998000	3.849700	-11.540000	22.034264	0.000923	20.795015
166.040956	-2.991800	3.849900	-11.516000	22.057171	0.000924	20.814154
167.041890	-2.984800	3.849400	-11.489000	22.052158	0.000925	20.824308
168.046754	-2.975500	3.848700	-11.451000	22.059539	0.000924	20.807516
169.048738	-3.008100	3.848800	-11.575000	22.073815	0.000927	20.783875
170.048602	-2.972000	3.849200	-11.439000	22.079517	0.000923	20.814239
171.043278	-2.992200	3.849100	-11.516000	22.105216	0.000924	20.817681
172.044726	-2.999000	3.847100	-11.536000	22.090484	0.000928	20.800563
173.044351	-2.972100	3.848300	-11.437000	22.088706	0.000925	20.812533
174.047886	-2.983000	3.848500	-11.478000	22.094537	0.000924	20.791818
175.048570	-2.981300	3.848400	-11.472000	22.097053	0.000926	20.820415
176.050533	-2.997700	3.848600	-11.536000	22.115794	0.000927	20.797452
177.045560	-2.998800	3.846500	-11.534000	22.100817	0.000927	20.800950
178.045422	-3.000400	3.846400	-11.540000	22.113703	0.000925	20.793936
179.047895	-3.003300	3.846000	-11.549000	22.114454	0.000927	20.795636
180.047214	-3.021700	3.847000	-11.623000	22.151290	0.000926	20.803592
181.047490	-3.012600	3.845600	-11.584000	22.170301	0.000927	20.786115
182.048207	-2.995800	3.845400	-11.518000	22.157914	0.000929	20.796473
183.049143	-3.000800	3.845100	-11.537000	22.155823	0.000930	20.790586
184.048273	-2.983900	3.846600	-11.476000	22.172398	0.000927	20.794854
185.049510	-2.991400	3.844800	-11.500000	22.179391	0.000931	20.776724
186.048930	-2.989200	3.845200	-11.493000	22.180720	0.000928	20.793702
187.048505	-2.988700	3.845400	-11.489000	22.183604	0.000931	20.795641
188.048208	-2.994300	3.845300	-11.513000	22.151203	0.000930	20.779323
189.047678	-2.988500	3.844400	-11.488000	22.162889	0.000930	20.789126
190.052495	-2.986600	3.844500	-11.481000	22.173511	0.000931	20.769415
191.048591	-2.996600	3.844200	-11.518000	22.173782	0.000933	20.782962
192.052868	-3.004200	3.844300	-11.547000	22.186267	0.000933	20.783135
193.049164	-2.998200	3.844100	-11.524000	22.195917	0.000933	20.794219
194.049411	-2.997200	3.845000	-11.524000	22.205112	0.000933	20.786355
195.052502	-3.001600	3.842600	-11.533000	22.189957	0.000932	20.776872
196.051276	-3.004900	3.844500	-11.551000	22.201951	0.000933	20.790303
197.052459	-3.019700	3.843700	-11.605000	22.195198	0.000934	20.764101
198.049750	-2.998700	3.844400	-11.525000	22.212812	0.000935	20.763718
199.051235	-3.019100	3.840900	-11.594000	22.241625	0.000936	20.773602
200.052180	-3.002300	3.843200	-11.537000	22.234497	0.000935	20.775474
201.055205	-3.000000	3.842800	-11.527000	22.247080	0.000936	20.797556
202.053719	-3.006200	3.842100	-11.549000	22.243864	0.000936	20.754980
203.054539	-3.019200	3.840000	-11.592000	22.240444	0.000935	20.767204
204.051480	-2.974300	3.843700	-11.432000	22.254909	0.000937	20.798757
205.050913	-2.987900	3.841100	-11.475000	22.239848	0.000938	20.777038
206.053372	-2.992500	3.843100	-11.500000	22.261951	0.000939	20.764081
207.052339	-3.002500	3.839900	-11.529000	22.273076	0.000939	20.765738
208.052185	-2.995500	3.841500	-11.506000	22.275228	0.000937	20.770738
209.054359	-3.007000	3.840600	-11.547000	22.293948	0.000940	20.763404
210.053942	-3.000400	3.841600	-11.525000	22.300775	0.000940	20.764549
211.054375	-2.987300	3.840700	-11.472000	22.298554	0.000941	20.749049
212.056411	-2.998200	3.840400	-11.513000	22.293868	0.000940	20.763798
213.054126	-2.980200	3.841300	-11.447000	22.303462	0.000942	20.767240
214.054462	-3.006500	3.839500	-11.542000	22.323670	0.000941	20.770405
215.053730	-2.998200	3.839400	-11.511000	22.326388	0.000944	20.769334
216.054843	-3.014400	3.837600	-11.567000	22.351355	0.000942	20.778213
217.057070	-2.988600	3.838400	-11.471000	22.329745	0.000945	20.766531
218.053983	-3.013500	3.838400	-11.566000	22.321025	0.000945	20.749739
219.055418	-2.999200	3.838500	-11.511000	22.325428	0.000945	20.766002
220.056578	-3.015400	3.837500	-11.570000	22.334400	0.000944	20.787314
221.057133	-2.997400	3.837000	-11.500000	22.351422	0.000945	20.762633
222.061942	-3.012900	3.836700	-11.559000	22.355653	0.000947	20.767818
223.057328	-2.984900	3.839100	-11.458000	22.333650	0.000946	20.765700
224.061579	-2.979200	3.839100	-11.435000	22.346379	0.000946	20.764696
225.058014	-2.999700	3.838400	-11.511000	22.360560	0.000946	20.770835
226.056958	-2.991900	3.835800	-11.474000	22.366470	0.000948	20.754942
227.059758	-3.002900	3.835800	-11.517000	22.362251	0.000948	20.739337
228.058681	-2.997400	3.837100	-11.500000	22.370669	0.000948	20.782855
229.059882	-2.980200	3.835900	-11.431000	22.393551	0.000948	20.766888
230.064665	-3.012500	3.836500	-11.556000	22.404866	0.000948	20.760200
231.061285	-3.012700	3.835300	-11.553000	22.383282	0.000948	20.754233
232.063797	-2.994200	3.836000	-11.485000	22.435519	0.000949	20.775251
233.065578	-3.018400	3.836000	-11.575000	22.396189	0.000948	20.756253
234.065810	-3.009100	3.835500	-11.540000	22.410099	0.000951	20.769234
235.063446	-3.008100	3.835100	-11.535000	22.403267	0.000951	20.754806
236.064690	-3.017200	3.834700	-11.567000	22.407639	0.000950	20.769142
237.066619	-3.002700	3.834900	-11.514000	22.415910	0.000951	20.765096
238.071585	-3.026800	3.833200	-11.602000	22.404024	0.000951	20.744183
239.064288	-2.982900	3.836400	-11.442000	22.411673	0.000952	20.761327
240.065459	-3.008500	3.834400	-11.534000	22.405389	0.000952	20.748395
241.064921	-2.986100	3.833800	-11.447000	22.415584	0.000953	20.769037
242.065265	-3.014000	3.832400	-11.549000	22.434775	0.000954	20.759806
243.070244	-2.986900	3.835000	-11.454000	22.445936	0.000952	20.752965
244.064876	-3.016500	3.833100	-11.561000	22.483241	0.000954	20.768040
245.066408	-3.014200	3.832400	-11.551000	22.463454	0.000955	20.739688
246.062900	-3.000400	3.832100	-11.496000	22.484742	0.000957	20.726867
247.065561	-3.013000	3.832300	-11.546000	22.498601	0.000956	20.748808
248.068305	-2.998200	3.831700	-11.487000	22.498822	0.000958	20.758039
249.064454	-3.011200	3.829900	-11.532000	22.518830	0.000956	20.745360
250.064821	-2.992000	3.831000	-11.462000	22.509810	0.000958	20.753396
251.064558	-2.980300	3.832400	-11.419000	22.515620	0.000959	20.741197
252.065206	-2.988600	3.830700	-11.448000	22.496455	0.000959	20.763255
253.065447	-2.994700	3.831800	-11.473000	22.493842	0.000960	20.734559
254.067978	-3.008600	3.831100	-11.524000	22.501620	0.000960	20.752781
255.065677	-3.006100	3.830300	-11.514000	22.507271	0.000962	20.737576
256.067197	-2.998000	3.829700	-11.479000	22.493116	0.000961	20.718184
257.069785	-3.019000	3.828700	-11.558000	22.544795	0.000962	20.736751
258.066907	-3.004700	3.830100	-11.506000	22.520755	0.000963	20.747287
259.073905	-3.012800	3.829100	-11.534000	22.533734	0.000962	20.738475
260.067075	-3.011300	3.830700	-11.534000	22.546640	0.000962	20.741917
261.069310	-3.001600	3.828500	-11.490000	22.544426	0.000962	20.756297
262.067506	-3.008000	3.829000	-11.516000	22.560320	0.000964	20.754197
263.068046	-3.005900	3.828800	-11.507000	22.558973	0.000964	20.731984
264.069036	-3.026700	3.827100	-11.582000	22.568786	0.000965	20.745132
265.068512	-2.998700	3.828000	-11.479000	22.607686	0.000966	20.749954
266.072093	-3.010700	3.829100	-11.527000	22.592653	0.000966	20.739639
267.070690	-3.003800	3.828500	-11.499000	22.598008	0.000964	20.745951
268.072016	-2.996100	3.828300	-11.468000	22.601322	0.000965	20.745951
269.070328	-3.013700	3.826400	-11.530000	22.604587	0.000968	20.731676
270.073283	-2.994700	3.827500	-11.461000	22.597750	0.000966	20.727199
271.071584	-3.015000	3.828700	-11.542000	22.627181	0.000969	20.726331
272.077185	-3.022800	3.826900	-11.567000	22.646393	0.000968	20.725659
273.070906	-3.021300	3.825800	-11.558000	22.613845	0.000969	20.734786
274.071490	-2.999300	3.825100	-11.472000	22.607218	0.000968	20.723879
275.074445	-3.002400	3.826700	-11.487000	22.635019	0.000967	20.727069
276.071691	-3.017400	3.826000	-11.544000	22.623092	0.000968	20.723658
277.073224	-3.003000	3.825900	-11.489000	22.645458	0.000969	20.728042
278.071573	-2.998400	3.825000	-11.467000	22.643460	0.000969	20.728411
279.071836	-3.009400	3.824100	-11.508000	22.663945	0.000970	20.735654
280.070422	-2.992100	3.824600	-11.443000	22.693589	0.000970	20.701808
281.074334	-3.011200	3.824600	-11.515000	22.686162	0.000972	20.726613
282.074210	-2.987400	3.824700	-11.424000	22.661725	0.000972	20.735801
283.072146	-2.995300	3.824500	-11.454000	22.681035	0.000972	20.733806
284.072998	-2.992100	3.824400	-11.442000	22.691769	0.000974	20.744558
285.079036	-3.011600	3.823700	-11.514000	22.716107	0.000973	20.735272
286.076490	-3.012800	3.824100	-11.520000	22.724474	0.000972	20.727531
287.075175	-2.991600	3.822700	-11.435000	22.720115	0.000974	20.727906
288.076826	-2.979400	3.823900	-11.392000	22.722777	0.000974	20.719192
289.073927	-2.996300	3.822300	-11.450000	22.708257	0.000977	20.736891
290.073437	-2.991500	3.822600	-11.434000	22.734390	0.000976	20.743154
291.080720	-2.989600	3.822100	-11.425000	22.726767	0.000975	20.726034
292.074696	-3.003500	3.821500	-11.477000	22.729527	0.000976	20.708883
293.078037	-3.003600	3.821700	-11.478000	22.744102	0.000976	20.730597
294.074524	-3.014300	3.820500	-11.515000	22.739572	0.000977	20.728430
295.075614	-2.978100	3.821200	-11.379000	22.765680	0.000979	20.728978
296.087430	-3.018200	3.820900	-11.531000	22.742160	0.000978	20.736238
297.076630	-2.994700	3.820600	-11.440000	22.725808	0.000979	20.723176
298.073769	-2.971200	3.820900	-11.351000	22.721585	0.000980	20.717998
299.075076	-2.986100	3.820500	-11.407000	22.719955	0.000980	20.716365
300.075262	-2.980400	3.821000	-11.387000	22.715474	0.000980	20.710454
301.073885	-2.998300	3.821200	-11.455000	22.743125	0.000982	20.695951
302.082736	-2.992900	3.820800	-11.435000	22.742473	0.000980	20.721852
303.075386	-2.971700	3.820300	-11.352000	22.726625	0.000980	20.723047
304.075333	-3.021500	3.818700	-11.537000	22.723514	0.000981	20.692902
305.075128	-2.988200	3.819500	-11.412000	22.741723	0.000982	20.711617
306.075922	-2.986700	3.818300	-11.402000	22.769226	0.000983	20.697915
307.074721	-3.010100	3.817800	-11.491000	22.766165	0.000982	20.716661
308.075737	-3.004000	3.817700	-11.467000	22.756593	0.000985	20.721772
309.076657	-2.979300	3.818500	-11.376000	22.759753	0.000985	20.706444
310.075344	-3.011500	3.816400	-11.493000	22.732656	0.000985	20.712966
311.075931	-2.998900	3.818500	-11.450000	22.731653	0.000984	20.704849
312.077776	-2.991800	3.818700	-11.423000	22.749813	0.000985	20.715454
313.082384	-3.001400	3.816800	-11.454000	22.757583	0.000988	20.702373
314.077384	-2.992400	3.817900	-11.424000	22.793956	0.000988	20.701825
315.076471	-3.011300	3.816700	-11.493000	22.782245	0.000988	20.706216
316.077611	-3.021700	3.816300	-11.531000	22.778760	0.000989	20.710311
317.086916	-2.996800	3.815900	-11.435000	22.777266	0.000989	20.746275
318.078605	-2.999100	3.816600	-11.444000	22.757577	0.000988	20.717541
319.081704	-3.029200	3.813900	-11.552000	22.767394	0.000989	20.712202
320.080140	-2.983700	3.816700	-11.386000	22.780573	0.000987	20.699799
321.080348	-2.971500	3.816800	-11.340000	22.795099	0.000989	20.699651
322.082865	-2.994300	3.814200	-11.419000	22.798959	0.000990	20.716796
323.085662	-2.968000	3.816300	-11.325000	22.799433	0.000990	20.694509
324.083022	-3.003900	3.814400	-11.457000	22.789892	0.000990	20.700125
325.083697	-3.016600	3.814200	-11.505000	22.845541	0.000990	20.680006
326.084658	-3.004000	3.812900	-11.450000	22.844348	0.000991	20.699676
327.085975	-2.992600	3.813200	-11.410000	22.876225	0.000991	20.722129
328.082327	-3.022600	3.813700	-11.527000	22.862874	0.000994	20.695950
329.082929	-2.994300	3.813400	-11.417000	22.876053	0.000994	20.699195
330.087664	-3.029000	3.812800	-11.548000	22.879987	0.000995	20.697921
331.083960	-3.018500	3.812600	-11.508000	22.891573	0.000993	20.700994
332.083071	-2.996300	3.812500	-11.422000	22.889372	0.000994	20.705427
333.086710	-2.978900	3.813400	-11.359000	22.903220	0.000994	20.691325
334.083918	-2.984300	3.813000	-11.378000	22.889151	0.000995	20.705680
335.086418	-3.004600	3.811100	-11.450000	22.892612	0.000996	20.707724
336.086413	-2.985800	3.811600	-11.378000	22.860705	0.000995	20.702786
337.087139	-3.013200	3.810800	-11.481000	22.857066	0.000995	20.715262
338.088888	-2.988200	3.811700	-11.388000	22.886957	0.000997	20.687833
339.087343	-2.990000	3.812000	-11.397000	22.924776	0.000996	20.698697
340.086930	-2.984600	3.810200	-11.370000	22.923375	0.000998	20.699663
341.086369	-3.002000	3.811000	-11.440000	22.934112	0.000998	20.688135
342.086617	-2.995700	3.811400	-11.417000	22.931998	0.000996	20.705458
343.086749	-2.979600	3.810600	-11.353000	22.935753	0.000998	20.692624
344.089144	-2.992100	3.810300	-11.400000	22.942778	0.000996	20.700137
345.088164	-2.986300	3.810100	-11.378000	22.924125	0.001000	20.717485
346.087850	-2.985800	3.808400	-11.371000	22.929828	0.001001	20.697594
347.090588	-3.001500	3.808900	-11.431000	22.914616	0.000999	20.704639
348.088036	-2.996900	3.808600	-11.413000	22.950160	0.000999	20.690937
349.090115	-2.995000	3.808900	-11.407000	22.953123	0.001001	20.685370
350.092186	-2.997600	3.808100	-11.414000	22.959128	0.001000	20.678583
351.093772	-3.019200	3.808700	-11.498000	22.971113	0.001001	20.699128
352.091796	-3.002200	3.807800	-11.432000	23.000675	0.001002	20.693185
353.091444	-3.010600	3.807900	-11.462000	23.012064	0.001002	20.692267
354.096740	-3.009900	3.806200	-11.455000	23.009525	0.001004	20.688776
355.090829	-2.993000	3.807500	-11.394000	22.992888	0.001002	20.676373
356.092068	-2.985400	3.807400	-11.366000	23.011345	0.001004	20.685857
357.096993	-3.001900	3.806200	-11.423000	23.016729	0.001004	20.677974
358.092296	-3.001700	3.805700	-11.422000	23.027711	0.001005	20.688979
359.096410	-3.004700	3.805700	-11.434000	23.011228	0.001004	20.686688
360.092697	-3.007700	3.804800	-11.442000	23.004855	0.001007	20.677931
361.092740	-2.999300	3.805300	-11.411000	23.012802	0.001005	20.702017
362.094512	-3.005700	3.804800	-11.434000	23.036863	0.001007	20.708107
363.094109	-2.992200	3.805500	-11.384000	23.062595	0.001006	20.675092
364.098803	-3.017300	3.803900	-11.476000	23.069275	0.001007	20.688425
365.096434	-3.000700	3.804200	-11.414000	23.071819	0.001007	20.697140
366.096604	-3.005300	3.803600	-11.430000	23.041730	0.001007	20.683111
367.095557	-3.000600	3.803700	-11.413000	23.049603	0.001008	20.691474
368.098053	-2.969900	3.805700	-11.301000	23.046592	0.001008	20.691302
369.096789	-3.013300	3.802600	-11.458000	23.033372	0.001008	20.696075
370.096418	-3.004000	3.804000	-11.426000	23.035763	0.001010	20.669070
371.097278	-3.004400	3.802900	-11.424000	23.046604	0.001009	20.672346
372.097339	-2.997700	3.801400	-11.395000	23.071906	0.001010	20.689639
373.099055	-3.018400	3.800700	-11.471000	23.064937	0.001009	20.689769
374.097572	-3.004700	3.800800	-11.419000	23.106333	0.001013	20.698058
375.098255	-3.019600	3.800300	-11.475000	23.102222	0.001013	20.696309
376.098021	-3.007900	3.802200	-11.435000	23.110918	0.001011	20.689375
377.098093	-3.010700	3.800400	-11.440000	23.113634	0.001011	20.678819
378.099450	-2.992900	3.801100	-11.375000	23.092340	0.001011	20.674551
379.098294	-3.006800	3.801400	-11.429000	23.083195	0.001012	20.698581
380.100930	-2.989600	3.801200	-11.361000	23.054115	0.001014	20.704057
381.099608	-2.998000	3.800000	-11.392000	23.070081	0.001013	20.703459
382.101373	-2.961400	3.801200	-11.256000	23.049709	0.001015	20.688260
383.099027	-2.980100	3.799900	-11.323000	23.054195	0.001016	20.709827
384.099197	-2.968900	3.800600	-11.282000	23.073093	0.001016	20.696519
385.103623	-2.994000	3.799200	-11.373000	23.102364	0.001015	20.695977
386.105057	-3.000100	3.799400	-11.397000	23.084621	0.001017	20.695268
387.100601	-2.984700	3.799800	-11.340000	23.102013	0.001016	20.695626
388.103522	-3.000200	3.798100	-11.393000	23.077106	0.001016	20.694376
389.101525	-2.999000	3.797700	-11.389000	23.076362	0.001016	20.679405
390.100747	-2.991400	3.798700	-11.362000	23.066222	0.001016	20.716663
391.104640	-2.987400	3.798800	-11.346000	23.116682	0.001017	20.695626
392.101181	-3.003600	3.797800	-11.406000	23.116731	0.001017	20.691407
393.105217	-2.978000	3.799300	-11.313000	23.121617	0.001019	20.710529
394.102174	-3.007300	3.797000	-11.417000	23.137804	0.001020	20.681228
395.102314	-2.994400	3.797200	-11.369000	23.160670	0.001020	20.696082
396.109639	-2.993000	3.796000	-11.360000	23.171263	0.001020	20.695318
397.102558	-3.006600	3.795500	-11.411000	23.199407	0.001020	20.685588
398.103394	-3.005700	3.795300	-11.406000	23.209921	0.001021	20.700867
399.106301	-3.004800	3.795300	-11.403000	23.188297	0.001020	20.701008
400.104691	-2.992700	3.795500	-11.358000	23.199124	0.001021	20.707591
401.103384	-2.973500	3.796800	-11.288000	23.195044	0.001021	20.701131
402.108164	-3.010600	3.795000	-11.422000	23.180149	0.001021	20.679564
403.106497	-3.005400	3.794000	-11.403000	23.190103	0.001023	20.708508
404.104833	-3.009600	3.794700	-11.418000	23.201711	0.001024	20.684103
405.106549	-3.014300	3.791600	-11.428000	23.198915	0.001023	20.712123
406.105640	-2.975700	3.795600	-11.293000	23.181832	0.001022	20.703064
407.112349	-2.993200	3.793300	-11.353000	23.197397	0.001022	20.724354
408.107105	-2.994600	3.792200	-11.355000	23.206885	0.001023	20.707782
409.110100	-3.005900	3.792600	-11.399000	23.233897	0.001022	20.699289
410.107602	-2.998800	3.793000	-11.373000	23.247894	0.001023	20.693402
411.109221	-3.000600	3.791600	-11.377000	23.246819	0.001024	20.689005
412.108871	-2.988600	3.792500	-11.332000	23.268460	0.001026	20.703107
413.110068	-2.999600	3.792400	-11.373000	23.267163	0.001024	20.730259
414.108747	-2.991300	3.791600	-11.341000	23.282352	0.001026	20.701857
415.108498	-2.991200	3.791300	-11.339000	23.290322	0.001025	20.715060
416.108467	-2.992100	3.790700	-11.340000	23.313049	0.001025	20.730727
417.107697	-2.985800	3.789900	-11.315000	23.290242	0.001026	20.692219
418.108995	-3.019000	3.788700	-11.437000	23.299311	0.001024	20.706051
419.108400	-3.002700	3.789000	-11.376000	23.297713	0.001026	20.703501
420.112230	-3.007300	3.788700	-11.393000	23.297787	0.001027	20.710688
421.113009	-2.999600	3.789000	-11.364000	23.318726	0.001026	20.704647
422.110997	-2.995400	3.789000	-11.349000	23.318997	0.001026	20.720566
423.112689	-2.990900	3.788600	-11.331000	23.326836	0.001027	20.725104
424.112581	-3.005900	3.787600	-11.384000	23.321387	0.001027	20.719642
425.115966	-2.975500	3.789300	-11.274000	23.345484	0.001027	20.723879
426.114886	-2.999600	3.786400	-11.357000	23.372677	0.001027	20.710829
427.115396	-2.999300	3.787400	-11.359000	23.359480	0.001028	20.744071
428.115513	-3.002100	3.787200	-11.368000	23.360721	0.001027	20.693155
429.116463	-3.010500	3.786700	-11.399000	23.404121	0.001027	20.735234
430.117812	-3.023000	3.785000	-11.441000	23.381469	0.001030	20.722487
431.115425	-3.004400	3.786000	-11.374000	23.392964	0.001030	20.725948
432.116956	-3.009200	3.785700	-11.391000	23.420776	0.001029	20.714943
433.116731	-2.992100	3.785600	-11.326000	23.412310	0.001029	20.714518
434.120550	-3.003300	3.784900	-11.366000	23.425728	0.001031	20.726545
435.120852	-3.006000	3.783600	-11.373000	23.435914	0.001032	20.732488
436.121206	-3.009600	3.784600	-11.389000	23.420475	0.001033	20.743092
437.118512	-3.034900	3.782500	-11.477000	23.395704	0.001032	20.704037
438.117548	-3.028000	3.783000	-11.454000	23.366717	0.001032	20.728565
439.121107	-2.989700	3.785500	-11.316000	23.372572	0.001031	20.721631
440.121222	-3.018800	3.782700	-11.418000	23.370403	0.001030	20.726095
441.119293	-3.027700	3.782600	-11.452000	23.363430	0.001030	20.727641
442.121140	-3.031800	3.782200	-11.466000	23.391846	0.001033	20.710601
443.121489	-2.999800	3.783100	-11.346000	23.392638	0.001032	20.703809
444.122648	-2.989700	3.781800	-11.306000	23.399709	0.001033	20.709948
445.124931	-2.972200	3.783300	-11.244000	23.418503	0.001034	20.725467
446.123518	-2.983300	3.782700	-11.283000	23.398118	0.001033	20.733011
447.124888	-2.972400	3.782100	-11.241000	23.426527	0.001033	20.736355
448.122972	-3.002900	3.781200	-11.353000	23.426103	0.001034	20.713169
449.124554	-3.012100	3.780100	-11.384000	23.411536	0.001036	20.728442
450.126626	-3.003400	3.781700	-11.357000	23.446665	0.001036	20.729039
451.125829	-3.000100	3.781200	-11.342000	23.462921	0.001036	20.719253
452.127100	-2.997700	3.781000	-11.332000	23.449006	0.001034	20.724272
453.125436	-2.997300	3.780000	-11.329000	23.459812	0.001035	20.743166
454.125628	-3.013000	3.779600	-11.387000	23.469525	0.001035	20.720658
455.128838	-3.009000	3.778600	-11.369000	23.441443	0.001032	20.733762
456.127742	-2.985100	3.780000	-11.283000	23.473106	0.001035	20.740844
457.125986	-2.986200	3.779000	-11.284000	23.451144	0.001036	20.749176
458.126770	-3.005600	3.778600	-11.356000	23.466687	0.001036	20.734409
459.126005	-2.985200	3.778100	-11.277000	23.450800	0.001034	20.739822
460.127866	-3.004200	3.777600	-11.348000	23.426748	0.001037	20.738947
461.129232	-2.997300	3.779000	-11.325000	23.459192	0.001035	20.745389
462.130154	-2.985300	3.777700	-11.277000	23.446419	0.001038	20.733535
463.131693	-3.000200	3.775900	-11.327000	23.447771	0.001037	20.735838
464.128386	-2.983900	3.777700	-11.270000	23.465151	0.001036	20.741879
465.128006	-2.993300	3.777700	-11.307000	23.471571	0.001038	20.744047
466.132333	-2.994700	3.776700	-11.308000	23.491143	0.001038	20.752760
467.129197	-3.006800	3.775900	-11.352000	23.489153	0.001037	20.736540
468.131589	-2.996900	3.776400	-11.317000	23.478525	0.001039	20.761450
469.129128	-2.989000	3.776200	-11.286000	23.486020	0.001036	20.752367
470.128907	-3.003400	3.776200	-11.340000	23.492372	0.001038	20.747828
471.131067	-3.001900	3.774400	-11.330000	23.497502	0.001037	20.725468
472.134120	-3.003200	3.775200	-11.337000	23.523346	0.001039	20.726244
473.131522	-3.013200	3.774700	-11.373000	23.518469	0.001039	20.758340
474.131563	-2.984700	3.775600	-11.267000	23.512694	0.001038	20.754922
475.130673	-2.985200	3.773400	-11.263000	23.529071	0.001040	20.766124
476.132363	-2.999700	3.773100	-11.317000	23.538440	0.001040	20.757971
477.133949	-3.001600	3.772900	-11.323000	23.541923	0.001039	20.728270
478.131284	-2.984700	3.772200	-11.258000	23.564830	0.001040	20.749811
479.132668	-3.006600	3.771100	-11.337000	23.566550	0.001040	20.735888
480.133659	-2.997500	3.773300	-11.309000	23.586262	0.001041	20.741424
481.131617	-2.988100	3.771800	-11.270000	23.600427	0.001040	20.745193
482.134331	-2.996200	3.771600	-11.299000	23.634757	0.001039	20.745470
483.133335	-2.979700	3.773400	-11.242000	23.621318	0.001040	20.744325
484.136171	-3.013400	3.770400	-11.361000	23.622135	0.001042	20.739453
485.132394	-2.972400	3.771500	-11.209000	23.648977	0.001040	20.738388
486.133681	-3.008200	3.769700	-11.339000	23.665181	0.001041	20.757953
487.144234	-3.005200	3.770200	-11.330000	23.651195	0.001040	20.748198
488.134509	-2.979300	3.770500	-11.233000	23.617522	0.001042	20.757116
489.134527	-2.993000	3.769200	-11.280000	23.596410	0.001040	20.740692
490.134600	-3.011800	3.770000	-11.353000	23.589911	0.001042	20.746031
491.134426	-2.999300	3.769100	-11.304000	23.595089	0.001041	20.765921
492.133663	-3.014700	3.768600	-11.360000	23.611797	0.001040	20.752799
493.136571	-3.007600	3.767700	-11.330000	23.622578	0.001041	20.733259
494.135179	-2.995600	3.768700	-11.288000	23.630348	0.001041	20.757645
495.135020	-3.019600	3.767500	-11.375000	23.623499	0.001042	20.758840
496.140473	-2.986600	3.768300	-11.253000	23.663283	0.001040	20.740403
497.135798	-3.008500	3.767500	-11.333000	23.665728	0.001042	20.761347
498.146260	-2.986400	3.767400	-11.250000	23.662547	0.001040	20.752467
499.138726	-3.011200	3.766600	-11.341000	23.662172	0.001042	20.760626
500.137505	-2.997600	3.766100	-11.288000	23.681121	0.001042	20.783417
501.140401	-2.994200	3.765900	-11.275000	23.686225	0.001042	20.770042
502.138810	-2.998300	3.766300	-11.291000	23.717390	0.001042	20.765251
503.137942	-2.996300	3.765500	-11.281000	23.696096	0.001043	20.782783
504.140390	-3.016500	3.764800	-11.355000	23.703068	0.001042	20.796411
505.139996	-3.015400	3.764400	-11.350000	23.723803	0.001042	20.757456
506.140369	-3.003300	3.764600	-11.306000	23.732291	0.001042	20.783510
507.141668	-2.996100	3.765400	-11.280000	23.733145	0.001042	20.752597
508.141127	-3.006400	3.763700	-11.314000	23.759260	0.001043	20.774040
509.142198	-3.012400	3.764300	-11.339000	23.778373	0.001044	20.762857
510.141633	-2.985400	3.765200	-11.238000	23.790577	0.001043	20.763713
511.145342	-3.000700	3.763200	-11.289000	23.789386	0.001043	20.776269
512.143996	-3.018600	3.760700	-11.350000	23.815567	0.001044	20.755104
513.142738	-3.004400	3.762800	-11.304000	23.817587	0.001044	20.777045
514.145928	-2.988600	3.762700	-11.244000	23.796479	0.001043	20.765838
515.148212	-3.006200	3.762300	-11.309000	23.807264	0.001042	20.778548
516.146181	-3.022100	3.761200	-11.365000	23.807761	0.001044	20.766245
517.144990	-2.992300	3.761900	-11.255000	23.781107	0.001044	20.786461
518.144315	-3.001900	3.761500	-11.290000	23.765207	0.001042	20.765777
519.147256	-2.991300	3.760600	-11.249000	23.783380	0.001043	20.772144
520.148409	-3.006900	3.760300	-11.306000	23.754932	0.001044	20.762113
521.145021	-2.987900	3.761100	-11.237000	23.750000	0.001043	20.770919
522.144926	-3.001100	3.759600	-11.281000	23.729197	0.001046	20.762390
523.144259	-2.996900	3.759000	-11.265000	23.704549	0.001046	20.784146
524.145786	-2.996700	3.759700	-11.266000	23.698881	0.001047	20.771350
525.148102	-2.992500	3.758600	-11.246000	23.732932	0.001045	20.775143
526.146248	-3.003800	3.757700	-11.286000	23.699476	0.001044	20.764835
527.149258	-2.975700	3.759300	-11.186000	23.707001	0.001045	20.789449
528.147394	-2.990700	3.760000	-11.244000	23.704783	0.001046	20.776794
529.159395	-3.000100	3.757500	-11.272000	23.723449	0.001045	20.771326
530.149166	-3.008800	3.756100	-11.300000	23.759243	0.001046	20.789670
531.147694	-3.006700	3.756400	-11.293000	23.752875	0.001047	20.783285
532.149506	-2.976800	3.758100	-11.186000	23.751431	0.001044	20.774251
533.155328	-3.008400	3.756100	-11.299000	23.718971	0.001047	20.782010
534.148788	-2.991600	3.755900	-11.235000	23.744786	0.001044	20.781813
535.150846	-2.998700	3.756900	-11.266000	23.747771	0.001046	20.809461
536.151433	-2.994100	3.756300	-11.245000	23.751130	0.001046	20.758776
537.151246	-3.007700	3.755800	-11.296000	23.763500	0.001044	20.797257
538.151580	-2.979500	3.755300	-11.187000	23.765822	0.001044	20.787257
539.152382	-3.008400	3.754400	-11.294000	23.741353	0.001047	20.792121
540.153751	-3.001900	3.753900	-11.268000	23.726391	0.001047	20.790397
541.157159	-3.002100	3.753600	-11.267000	23.751382	0.001047	20.790797
542.157031	-2.992700	3.752500	-11.229000	23.773161	0.001045	20.803624
543.158247	-3.002000	3.753500	-11.267000	23.807308	0.001047	20.794239
544.155341	-2.982300	3.753300	-11.193000	23.819708	0.001046	20.786284
545.155848	-2.994600	3.752600	-11.236000	23.816072	0.001045	20.788328
546.163173	-3.016600	3.752400	-11.319000	23.851931	0.001046	20.791567
547.156902	-3.010800	3.751400	-11.293000	23.879910	0.001046	20.794966
548.158473	-3.023200	3.751200	-11.339000	23.877147	0.001045	20.805471
549.159605	-3.030900	3.751000	-11.367000	23.924106	0.001045	20.807990
550.167145	-2.993800	3.751400	-11.230000	23.932796	0.001046	20.784461
551.158457	-3.003800	3.749800	-11.263000	23.937027	0.001047	20.797238
552.160534	-2.989200	3.751300	-11.213000	23.936879	0.001045	20.806100
553.163843	-3.007700	3.750600	-11.280000	23.935258	0.001045	20.811112
554.159701	-3.003900	3.749500	-11.262000	23.928393	0.001046	20.805650
555.160417	-3.015200	3.751600	-11.312000	23.917868	0.001048	20.804105
556.165877	-2.984300	3.749900	-11.190000	23.877644	0.001047	20.798384
557.161001	-3.028500	3.749100	-11.352000	23.878344	0.001047	20.805250
558.159491	-3.014500	3.748800	-11.300000	23.876305	0.001047	20.786610
559.159568	-3.008500	3.747900	-11.275000	23.852687	0.001047	20.812713
560.160847	-2.975500	3.749200	-11.154000	23.880561	0.001048	20.792300
561.160842	-2.995300	3.747600	-11.224000	23.865454	0.001046	20.809394
562.171548	-3.004400	3.748000	-11.258000	23.890418	0.001048	20.803132
563.162252	-3.001500	3.747100	-11.246000	23.906372	0.001048	20.821500
564.161066	-3.003700	3.746900	-11.254000	23.929087	0.001047	20.798759
565.161894	-3.002300	3.745900	-11.245000	23.940011	0.001047	20.818723
566.162417	-2.987200	3.746500	-11.190000	23.951034	0.001046	20.800853
567.168118	-2.994400	3.746300	-11.217000	23.966840	0.001046	20.832350
568.162551	-2.996800	3.746200	-11.226000	23.960644	0.001048	20.806697
569.163662	-2.990300	3.745600	-11.200000	23.966496	0.001047	20.804979
570.162603	-3.001200	3.744700	-11.237000	23.985458	0.001048	20.805977
571.161846	-2.985500	3.745300	-11.179000	23.985427	0.001047	20.835817
572.164382	-3.009800	3.746100	-11.273000	23.978685	0.001048	20.797288
573.162750	-3.006300	3.745000	-11.257000	24.012009	0.001048	20.816482
574.162695	-3.014100	3.742700	-11.279000	24.021262	0.001049	20.824813
575.163736	-3.014500	3.742300	-11.280000	24.033979	0.001048	20.814807
576.165690	-2.982400	3.744100	-11.165000	24.051405	0.001050	20.816162
577.164837	-2.976900	3.744400	-11.145000	24.062346	0.001048	20.831402
578.165507	-2.982400	3.744100	-11.165000	24.064808	0.001048	20.812060
579.165232	-2.975800	3.743500	-11.140000	24.073718	0.001048	20.820995
580.167302	-3.016200	3.742600	-11.287000	24.064213	0.001048	20.824265
581.165732	-2.996500	3.741400	-11.210000	24.033758	0.001047	20.828335
582.164382	-3.004300	3.741000	-11.237000	24.060934	0.001048	20.848003
583.165797	-3.020400	3.740800	-11.298000	24.079483	0.001048	20.845268
584.166664	-3.013500	3.739700	-11.268000	24.064305	0.001048	20.849960
585.166497	-3.012300	3.741200	-11.269000	24.083191	0.001047	20.841875
586.165257	-3.009500	3.740500	-11.256000	24.089786	0.001047	20.821937
587.166875	-3.005500	3.741000	-11.243000	24.104509	0.001048	20.854246
588.167868	-2.984400	3.741900	-11.166000	24.085923	0.001046	20.829917
589.168751	-3.006900	3.738800	-11.241000	24.080274	0.001047	20.835631
590.172090	-3.017000	3.739200	-11.280000	24.063003	0.001047	20.831111
591.163858	-3.008400	3.739100	-11.248000	24.079280	0.001050	20.825625
592.166889	-2.993100	3.739800	-11.193000	24.095747	0.001046	20.811795
593.165425	-3.006300	3.737500	-11.234000	24.081938	0.001046	20.834455
594.168600	-2.995600	3.738900	-11.199000	24.093162	0.001047	20.849504
595.166609	-3.000000	3.738100	-11.213000	24.114111	0.001047	20.844437
596.166819	-3.006000	3.737600	-11.234000	24.130234	0.001046	20.851598
597.166698	-2.984300	3.738500	-11.156000	24.107941	0.001048	20.839196
598.166422	-3.020700	3.736600	-11.286000	24.147677	0.001046	20.839695
599.168401	-2.997900	3.737700	-11.205000	24.154516	0.001048	20.841813
600.166918	-3.011800	3.736600	-11.253000	24.151403	0.001047	20.846277
601.167326	-2.995300	3.737100	-11.193000	24.133519	0.001045	20.860582
602.168835	-3.020000	3.735400	-11.279000	24.136926	0.001047	20.826542
603.175902	-2.980000	3.736700	-11.133000	24.161251	0.001045	20.862318
604.169390	-3.011200	3.734500	-11.244000	24.154915	0.001045	20.847903
605.171003	-2.990900	3.735000	-11.171000	24.152594	0.001046	20.835144
606.169137	-2.981700	3.736100	-11.140000	24.136889	0.001045	20.836462
607.169106	-2.994200	3.734300	-11.181000	24.080206	0.001047	20.850735
608.168877	-2.983100	3.734800	-11.140000	24.086819	0.001047	20.846936
609.170015	-2.980100	3.734000	-11.127000	24.051986	0.001047	20.842348
610.171965	-2.991600	3.732700	-11.166000	24.034389	0.001046	20.858364
611.169571	-2.999000	3.732400	-11.192000	24.037404	0.001045	20.829620
612.175409	-2.990600	3.733300	-11.164000	24.040142	0.001044	20.864134
613.171340	-3.005900	3.732100	-11.218000	24.054823	0.001047	20.847564
614.172880	-2.977100	3.733500	-11.113000	24.072292	0.001045	20.819091
615.174934	-3.009500	3.731300	-11.228000	24.093045	0.001045	20.844171
616.172510	-3.003600	3.732400	-11.209000	24.110341	0.001044	20.836388
617.174210	-2.988800	3.731400	-11.151000	24.094242	0.001045	20.857699
618.173694	-3.013700	3.732600	-11.248000	24.088520	0.001046	20.829202
619.174245	-3.012100	3.729200	-11.232000	24.080083	0.001044	20.843500
620.175737	-2.980300	3.731400	-11.120000	24.107424	0.001046	20.815445
621.179000	-3.021100	3.730900	-11.269000	24.096827	0.001043	20.839904
622.177142	-2.991700	3.729800	-11.158000	24.113920	0.001045	20.835236
623.181336	-3.015000	3.729700	-11.244000	24.146596	0.001046	20.834344
624.176543	-3.008700	3.729300	-11.219000	24.143483	0.001046	20.835015
625.175117	-3.019300	3.729100	-11.258000	24.179264	0.001043	20.848143
626.184669	-3.006900	3.729100	-11.213000	24.148161	0.001044	20.823586
627.176511	-3.007100	3.729000	-11.212000	24.157248	0.001043	20.824165
628.177194	-3.011600	3.726900	-11.223000	24.169410	0.001045	20.809811
629.178599	-2.998000	3.727400	-11.173000	24.171031	0.001045	20.833248
630.178004	-2.989600	3.727100	-11.141000	24.189345	0.001042	20.819849
631.182326	-3.020500	3.726000	-11.252000	24.174095	0.001045	20.827312
632.179405	-3.005200	3.725500	-11.195000	24.198075	0.001041	20.807268
633.180308	-2.978600	3.727500	-11.101000	24.217635	0.001043	20.825465
634.185304	-3.024200	3.725800	-11.266000	24.227709	0.001045	20.818026
635.182377	-3.007400	3.726400	-11.204000	24.220299	0.001043	20.807749
636.184060	-3.011100	3.725300	-11.215000	24.175089	0.001044	20.813137
637.187120	-3.030200	3.723800	-11.283000	24.162823	0.001043	20.809842
638.183275	-3.011000	3.724800	-11.213000	24.149586	0.001042	20.805575
639.186078	-3.024500	3.723900	-11.262000	24.164290	0.001043	20.798512
640.188715	-3.008300	3.725800	-11.207000	24.187601	0.001043	20.814781
641.186058	-2.988700	3.725500	-11.132000	24.173198	0.001042	20.816930
642.185864	-3.014400	3.724900	-11.227000	24.203257	0.001042	20.812940
643.184901	-2.989100	3.724200	-11.130000	24.222485	0.001042	20.805674
644.187616	-3.016100	3.721700	-11.224000	24.248084	0.001041	20.800532
645.185569	-2.998700	3.723400	-11.164000	24.255476	0.001041	20.814110
646.184784	-2.985100	3.723300	-11.113000	24.247090	0.001042	20.808069
647.188705	-3.004200	3.722400	-11.182000	24.225450	0.001043	20.809122
648.187963	-2.972300	3.723500	-11.065000	24.234333	0.001041	20.800489
649.186830	-2.998700	3.720600	-11.156000	24.216014	0.001043	20.808666
650.186778	-3.003000	3.722000	-11.176000	24.194815	0.001043	20.809214
651.185550	-2.984800	3.721600	-11.108000	24.176458	0.001041	20.810717
652.187050	-2.975200	3.722300	-11.074000	24.131320	0.001042	20.799109
653.189231	-3.012300	3.718700	-11.200000	24.132444	0.001040	20.813512
654.187754	-2.996800	3.721000	-11.149000	24.136552	0.001042	20.799140
655.191649	-3.019100	3.719700	-11.229000	24.093198	0.001042	20.821092
656.190555	-3.025100	3.719900	-11.251000	24.119250	0.001043	20.802176
657.192371	-2.992600	3.719100	-11.129000	24.120090	0.001043	20.807761
658.191627	-2.997100	3.719000	-11.144000	24.151169	0.001042	20.819491
659.188150	-3.015900	3.718700	-11.213000	24.161262	0.001043	20.784570
660.189769	-3.019400	3.718500	-11.226000	24.162607	0.001042	20.788289
661.189203	-2.997100	3.717600	-11.140000	24.188601	0.001041	20.802507
662.189325	-3.005200	3.716600	-11.168000	24.180159	0.001041	20.809687
663.192118	-2.998200	3.717700	-11.146000	24.194316	0.001042	20.823887
664.193044	-3.008400	3.718200	-11.184000	24.232275	0.001043	20.816916
665.190348	-2.988000	3.717800	-11.108000	24.257727	0.001040	20.791238
666.190673	-3.006900	3.717000	-11.176000	24.264584	0.001042	20.788159
667.191235	-2.995100	3.717100	-11.131000	24.262196	0.001039	20.811842
668.191761	-3.007800	3.716700	-11.178000	24.243300	0.001039	20.803793
669.196122	-3.023600	3.715700	-11.234000	24.262036	0.001040	20.808362
670.194438	-3.003100	3.715500	-11.158000	24.235331	0.001039	20.794852
671.193370	-3.020000	3.714800	-11.217000	24.249887	0.001039	20.788589
672.193326	-3.014800	3.714700	-11.198000	24.291306	0.001040	20.797893
673.200549	-3.025500	3.712900	-11.231000	24.272195	0.001039	20.772560
674.200461	-3.001700	3.714900	-11.150000	24.227657	0.001037	20.794266
675.198959	-2.998500	3.715000	-11.138000	24.224421	0.001038	20.813306
676.197675	-2.984000	3.715500	-11.087000	24.229719	0.001037	20.796809
677.199351	-2.994800	3.714300	-11.123000	24.252158	0.001038	20.810781
678.197348	-2.993100	3.714400	-11.117000	24.214862	0.001038	20.776691
679.197506	-2.986200	3.714000	-11.090000	24.247995	0.001038	20.782898
680.202863	-2.998400	3.712500	-11.131000	24.240334	0.001038	20.797973
681.198351	-2.992200	3.713000	-11.109000	24.226072	0.001036	20.777030
682.212617	-2.993100	3.712800	-11.111000	24.272152	0.001037	20.792431
683.198395	-3.018100	3.711200	-11.200000	24.266602	0.001037	20.773587
684.198811	-3.008000	3.711400	-11.163000	24.281679	0.001036	20.782547
685.202814	-2.991300	3.711800	-11.103000	24.276130	0.001037	20.767497
686.200415	-2.987700	3.713100	-11.093000	24.272723	0.001035	20.788262
687.197658	-3.002400	3.711700	-11.142000	24.263465	0.001037	20.800312
688.197785	-3.019800	3.709700	-11.201000	24.278659	0.001033	20.781888
689.198651	-3.011500	3.710800	-11.174000	24.329665	0.001035	20.790380
690.199163	-3.016000	3.709300	-11.186000	24.312772	0.001035	20.788132
691.205105	-3.004000	3.709400	-11.142000	24.308444	0.001035	20.787584
692.199848	-3.025100	3.708700	-11.218000	24.304589	0.001034	20.780398
693.199092	-2.990300	3.709900	-11.093000	24.334570	0.001033	20.789136
694.199671	-3.011800	3.709500	-11.172000	24.322845	0.001035	20.772158
695.200702	-3.033700	3.707700	-11.247000	24.335564	0.001034	20.774012
696.206522	-2.992800	3.708500	-11.098000	24.348848	0.001034	20.782596
697.202769	-2.998400	3.707800	-11.117000	24.340555	0.001033	20.782337
698.201547	-2.983900	3.709500	-11.067000	24.333422	0.001034	20.791778
699.202402	-2.983500	3.707600	-11.060000	24.328100	0.001034	20.788810
700.203466	-2.997200	3.708100	-11.113000	24.311329	0.001032	20.774831
701.203466	-3.001900	3.707300	-11.128000	24.273557	0.001032	20.772503
702.202502	-2.983400	3.707400	-11.059000	24.275227	0.001034	20.790774
703.209960	-3.000000	3.707700	-11.122000	24.281900	0.001032	20.784665
704.209487	-2.986000	3.706400	-11.066000	24.282495	0.001032	20.780047
705.207482	-3.003400	3.706900	-11.130000	24.322919	0.001033	20.776500
706.210713	-2.990800	3.705300	-11.081000	24.340365	0.001033	20.775034
707.203290	-3.001800	3.705100	-11.121000	24.351352	0.001030	20.789376
708.205718	-3.014800	3.705400	-11.170000	24.370289	0.001031	20.783243
709.206573	-3.000300	3.705600	-11.117000	24.403700	0.001032	20.761758
710.209143	-2.999000	3.705800	-11.111000	24.413552	0.001029	20.770219
711.209149	-3.022500	3.704700	-11.197000	24.433826	0.001032	20.771592
712.210984	-3.007900	3.704900	-11.142000	24.436367	0.001029	20.769400
713.207572	-3.001000	3.705600	-11.120000	24.426890	0.001029	20.780755
714.207666	-3.005900	3.703500	-11.131000	24.404480	0.001029	20.779136
715.205750	-3.028300	3.702300	-11.211000	24.408635	0.001029	20.779986
716.207444	-2.984700	3.703800	-11.054000	24.417419	0.001031	20.769357
717.209722	-2.992100	3.703500	-11.080000	24.396967	0.001030	20.755003
718.208362	-2.986200	3.702400	-11.055000	24.416688	0.001030	20.770521
719.209288	-3.012100	3.702600	-11.151000	24.431555	0.001026	20.771685
720.208655	-2.995000	3.702100	-11.086000	24.439264	0.001027	20.773730
721.209678	-2.996900	3.701100	-11.091000	24.429487	0.001025	20.759178
722.210734	-3.023000	3.700400	-11.185000	24.406272	0.001030	20.749165
723.209060	-3.004600	3.701700	-11.121000	24.406229	0.001026	20.788952
724.211764	-3.018200	3.699800	-11.164000	24.415658	0.001029	20.782763
725.210063	-3.017900	3.699900	-11.164000	24.422655	0.001027	20.766550
726.214908	-2.991500	3.700800	-11.070000	24.407556	0.001028	20.760410
727.211086	-2.981000	3.701100	-11.032000	24.431905	0.001028	20.773459
728.212674	-2.988700	3.700500	-11.058000	24.427326	0.001030	20.767916
729.210783	-2.988200	3.700800	-11.057000	24.405291	0.001027	20.760034
730.213573	-2.994400	3.699700	-11.076000	24.381757	0.001027	20.758236
731.217505	-2.980500	3.699400	-11.024000	24.386336	0.001026	20.751450
732.213084	-2.964100	3.699800	-10.965000	24.393751	0.001026	20.751302
733.213569	-2.998900	3.698100	-11.089000	24.388294	0.001026	20.747250
734.213727	-3.007800	3.697800	-11.121000	24.420341	0.001026	20.766125
735.217000	-2.977300	3.698000	-11.009000	24.424668	0.001026	20.776156
736.215804	-3.005800	3.697300	-11.112000	24.454419	0.001026	20.762381
737.214702	-3.006600	3.696500	-11.112000	24.474588	0.001025	20.753217
738.217561	-3.003300	3.697000	-11.103000	24.482720	0.001025	20.763273
739.218622	-2.987000	3.696700	-11.041000	24.481302	0.001024	20.754738
740.214403	-2.993200	3.696600	-11.063000	24.472396	0.001024	20.749596
741.215028	-2.994300	3.696900	-11.069000	24.448373	0.001026	20.774807
742.214585	-3.005000	3.697000	-11.107000	24.431801	0.001024	20.760551
743.217382	-3.018100	3.695500	-11.151000	24.436404	0.001025	20.765170
744.219769	-2.991200	3.694800	-11.051000	24.454437	0.001024	20.762873
745.218002	-3.014700	3.694300	-11.136000	24.440308	0.001024	20.769086
746.221809	-2.986900	3.695900	-11.038000	24.442965	0.001024	20.773175
747.217576	-3.009400	3.695700	-11.120000	24.440050	0.001022	20.760767
748.232306	-3.003400	3.694100	-11.093000	24.440571	0.001024	20.757022
749.221479	-3.005900	3.694700	-11.104000	24.447415	0.001023	20.738284
750.217570	-3.007900	3.693300	-11.108000	24.458132	0.001023	20.745716
751.217207	-2.993900	3.694500	-11.059000	24.467934	0.001021	20.754602
752.216679	-2.987500	3.693300	-11.033000	24.474489	0.001023	20.729883
753.217868	-2.985200	3.693600	-11.025000	24.499168	0.001021	20.752274
754.217594	-2.999700	3.692200	-11.074000	24.484886	0.001023	20.748376
755.221856	-2.982900	3.693200	-11.015000	24.457874	0.001025	20.753992
756.218447	-2.991700	3.691400	-11.041000	24.433242	0.001021	20.756782
757.218637	-2.995300	3.691800	-11.056000	24.425876	0.001022	20.761720
758.217988	-3.000500	3.692100	-11.076000	24.416197	0.001021	20.754380
759.217188	-3.005700	3.690500	-11.090000	24.407941	0.001020	20.743252
760.224678	-2.989900	3.690800	-11.034000	24.434107	0.001022	20.751012
761.217957	-3.030700	3.688900	-11.178000	24.420199	0.001020	20.734212
762.219937	-2.979900	3.690800	-10.998000	24.407413	0.001021	20.743671
763.218782	-2.992000	3.690900	-11.042000	24.360940	0.001019	20.741620
764.220140	-2.995700	3.689700	-11.053000	24.358878	0.001021	20.762311
765.223557	-2.993900	3.688800	-11.043000	24.359172	0.001018	20.737001
766.222743	-2.981600	3.689600	-11.000000	24.329002	0.001021	20.738504
767.220434	-2.990900	3.689400	-11.033000	24.342132	0.001018	20.747409
768.220062	-3.002900	3.689000	-11.077000	24.387335	0.001019	20.738701
769.220689	-3.001200	3.688200	-11.068000	24.411089	0.001017	20.751627
770.221053	-3.012400	3.688000	-11.109000	24.432861	0.001016	20.745494
771.221898	-2.986200	3.687000	-11.009000	24.449176	0.001016	20.734834
772.225690	-3.013000	3.688400	-11.112000	24.460021	0.001015	20.753776
773.228641	-3.022100	3.687300	-11.142000	24.475261	0.001016	20.760057
774.222010	-3.022600	3.685000	-11.138000	24.452183	0.001016	20.744490
775.221826	-2.989000	3.687400	-11.021000	24.477183	0.001017	20.739699
776.222728	-3.030300	3.684900	-11.165000	24.507306	0.001016	20.732463
777.221271	-3.008500	3.686200	-11.089000	24.536183	0.001015	20.746738
778.221862	-2.994100	3.685800	-11.035000	24.503704	0.001014	20.738332
779.222488	-2.977900	3.686600	-10.976000	24.504502	0.001015	20.738658
780.223186	-3.020100	3.684900	-11.128000	24.484996	0.001016	20.748487
781.221607	-2.997700	3.685800	-11.048000	24.472641	0.001014	20.735616
782.227661	-3.012700	3.684600	-11.101000	24.477809	0.001014	20.724205
783.224258	-3.002500	3.683000	-11.057000	24.464288	0.001015	20.726287
784.224627	-3.051900	3.681600	-11.235000	24.474163	0.001012	20.748524
785.224902	-3.000100	3.683800	-11.050000	24.491202	0.001012	20.720098
786.225326	-3.010000	3.683400	-11.085000	24.545328	0.001013	20.741688
787.226048	-2.993100	3.683200	-11.023000	24.518913	0.001011	20.723245
788.224751	-3.006300	3.683200	-11.071000	24.546378	0.001011	20.710023
789.226576	-3.003000	3.683700	-11.060000	24.547747	0.001013	20.736054
790.227232	-2.994100	3.681900	-11.021000	24.572001	0.001011	20.741424
791.226165	-3.022400	3.680100	-11.122000	24.559543	0.001010	20.717543
792.227485	-3.008100	3.681000	-11.072000	24.575211	0.001011	20.715246
793.227116	-3.028000	3.680400	-11.142000	24.539498	0.001010	20.737261
794.225742	-3.009000	3.681300	-11.074000	24.504723	0.001011	20.718491
795.229340	-3.005500	3.682300	-11.064000	24.481720	0.001010	20.732871
796.227876	-3.002300	3.681800	-11.054000	24.515771	0.001011	20.737163
797.228742	-3.011300	3.679900	-11.079000	24.534233	0.001010	20.717752
798.229169	-3.005500	3.680200	-11.060000	24.566098	0.001010	20.710369
799.228998	-3.000700	3.680700	-11.043000	24.560200	0.001009	20.726263
800.228919	-2.978100	3.682000	-10.964000	24.520209	0.001009	20.704629
801.229740	-3.007000	3.679700	-11.063000	24.479314	0.001009	20.708170
802.229897	-3.006300	3.678400	-11.058000	24.490963	0.001010	20.719385
803.231975	-3.008000	3.678600	-11.065000	24.486507	0.001009	20.724872
804.230428	-3.034800	3.677000	-11.158000	24.468076	0.001007	20.705904
805.231697	-3.009900	3.677600	-11.068000	24.463153	0.001008	20.730839
806.232433	-2.999900	3.678100	-11.032000	24.448429	0.001007	20.720333
807.233744	-2.976500	3.678500	-10.947000	24.466259	0.001007	20.714988
808.233803	-3.009200	3.677400	-11.066000	24.466234	0.001009	20.718756
809.231611	-3.010300	3.676200	-11.066000	24.479124	0.001009	20.705134
810.234022	-2.978700	3.678300	-10.955000	24.487434	0.001007	20.710628
811.232019	-2.988500	3.678300	-10.991000	24.475484	0.001005	20.710966
812.232498	-3.007300	3.676100	-11.053000	24.497727	0.001006	20.708152
813.233061	-3.001800	3.677000	-11.036000	24.499912	0.001007	20.718405
814.233153	-2.989000	3.677100	-10.990000	24.535552	0.001005	20.698686
815.232599	-3.002700	3.675700	-11.034000	24.529857	0.001006	20.698662
816.232659	-2.994200	3.675500	-11.005000	24.553633	0.001007	20.700706
817.233872	-2.943100	3.677100	-10.821000	24.547367	0.001003	20.726663
818.234183	-2.994300	3.675300	-11.003000	24.545851	0.001004	20.709494
819.234656	-2.961600	3.676600	-10.888000	24.527494	0.001004	20.703878
820.233774	-2.972400	3.675100	-10.923000	24.564011	0.001004	20.707801
821.237676	-2.982500	3.674500	-10.958000	24.590468	0.001004	20.712536
822.234462	-2.970000	3.676500	-10.918000	24.574874	0.001003	20.719175
823.233498	-3.001300	3.673200	-11.024000	24.583184	0.001003	20.690052
824.233279	-3.008100	3.672500	-11.047000	24.583257	0.001002	20.699610
825.232206	-3.004600	3.672500	-11.032000	24.576887	0.001002	20.715030
826.236609	-2.980200	3.672300	-10.943000	24.606860	0.001001	20.682989
827.233939	-2.991300	3.672100	-10.983000	24.621436	0.001001	20.699512
828.236117	-2.989800	3.672900	-10.980000	24.608782	0.001002	20.713842
829.237687	-2.981000	3.671100	-10.942000	24.634268	0.000999	20.714760
830.238314	-2.976900	3.672600	-10.931000	24.648297	0.001000	20.719354
831.239741	-2.996100	3.672700	-11.003000	24.643148	0.001000	20.693322
832.236336	-2.990500	3.670400	-10.976000	24.583509	0.000999	20.725943
833.237141	-2.985400	3.672100	-10.959000	24.551430	0.001000	20.714618
834.236901	-2.996400	3.670200	-10.996000	24.553817	0.001001	20.698520
835.238724	-2.990400	3.670300	-10.974000	24.548864	0.000999	20.702560
836.237802	-2.987000	3.671000	-10.964000	24.598312	0.000999	20.688162
837.242304	-2.977300	3.669700	-10.925000	24.597017	0.000999	20.692079
838.238825	-3.007200	3.670500	-11.037000	24.597907	0.000999	20.692497
839.238986	-3.018000	3.668100	-11.069000	24.592561	0.000998	20.720801
840.241253	-3.001000	3.668800	-11.009000	24.563189	0.000999	20.694172
841.238390	-2.999200	3.669100	-11.003000	24.562643	0.000998	20.696944
842.238730	-2.982400	3.668000	-10.938000	24.536774	0.000998	20.697541
843.240180	-2.991000	3.669000	-10.973000	24.525039	0.000998	20.696199
844.249309	-3.001500	3.666900	-11.004000	24.526979	0.000999	20.694825
845.241161	-3.009600	3.668300	-11.039000	24.531330	0.000998	20.728117
846.244658	-3.019400	3.666900	-11.070000	24.527199	0.000996	20.707850
847.241657	-2.995900	3.668200	-10.989000	24.531673	0.000996	20.705701
848.246204	-3.007000	3.667900	-11.028000	24.501968	0.000996	20.713829
849.246266	-3.007200	3.666500	-11.024000	24.532171	0.000997	20.706674
850.242667	-3.005000	3.665700	-11.015000	24.531600	0.000994	20.701833
851.247907	-3.008600	3.666000	-11.028000	24.514636	0.000995	20.709944
852.244722	-3.003300	3.666500	-11.009000	24.506829	0.000995	20.717285
853.247488	-3.005000	3.664600	-11.011000	24.517772	0.000995	20.694597
854.246972	-3.007400	3.664800	-11.020000	24.502576	0.000995	20.701162
855.241762	-2.992400	3.665000	-10.965000	24.502729	0.000993	20.703687
856.245862	-2.969800	3.666300	-10.886000	24.514943	0.000994	20.705984
857.245144	-3.013800	3.664300	-11.043000	24.515121	0.000994	20.710431
858.242515	-3.007500	3.664000	-11.018000	24.515569	0.000991	20.712777
859.243946	-3.024000	3.663400	-11.077000	24.539923	0.000992	20.702598
860.244181	-3.009000	3.664000	-11.025000	24.568627	0.000993	20.708639
861.243864	-3.007200	3.663500	-11.016000	24.596115	0.000991	20.724842
862.245932	-3.014700	3.662100	-11.039000	24.623100	0.000990	20.718252
863.244021	-2.997100	3.662700	-10.976000	24.639835	0.000990	20.716552
864.247652	-2.989200	3.661800	-10.945000	24.627353	0.000991	20.714459
865.244971	-2.986300	3.661600	-10.934000	24.664836	0.000989	20.707500
866.243015	-2.978400	3.662000	-10.906000	24.632704	0.000989	20.697068
867.246166	-2.981500	3.660600	-10.913000	24.621940	0.000989	20.720882
868.243739	-3.002600	3.660800	-10.991000	24.604873	0.000990	20.708498
869.242783	-2.986900	3.662200	-10.937000	24.610102	0.000989	20.711374
870.244174	-3.036900	3.658700	-11.110000	24.598362	0.000989	20.702438
871.245105	-2.997300	3.661100	-10.971000	24.625101	0.000989	20.701767
872.245744	-2.980800	3.660900	-10.911000	24.665861	0.000990	20.697148
873.247178	-3.000400	3.660400	-10.981000	24.692605	0.000990	20.712606
874.246046	-3.016400	3.659700	-11.038000	24.712051	0.000988	20.681857
875.246513	-3.010800	3.659200	-11.017000	24.718145	0.000988	20.716898
876.244370	-2.992800	3.658700	-10.949000	24.761718	0.000988	20.704200
877.247666	-2.971500	3.659300	-10.873000	24.748667	0.000987	20.698688
878.248343	-3.004400	3.659700	-10.994000	24.780789	0.000987	20.711959
879.246007	-3.014700	3.657600	-11.025000	24.784348	0.000986	20.714583
880.247464	-3.000700	3.657900	-10.975000	24.779771	0.000985	20.718998
881.247245	-3.029200	3.656300	-11.074000	24.799694	0.000987	20.709121
882.247509	-3.009800	3.657100	-11.006000	24.804198	0.000985	20.720279
883.249194	-2.997700	3.657400	-10.963000	24.810457	0.000986	20.696212
884.250142	-2.989300	3.657400	-10.932000	24.811163	0.000984	20.728217
885.251755	-2.998900	3.657800	-10.969000	24.814372	0.000985	20.722903
886.249360	-2.992000	3.657200	-10.941000	24.797664	0.000983	20.715618
887.250876	-2.988700	3.656600	-10.927000	24.803806	0.000984	20.721782
888.249465	-2.993900	3.655600	-10.944000	24.800677	0.000983	20.702519
889.251310	-2.999200	3.655400	-10.962000	24.811562	0.000983	20.721031
890.258754	-2.982100	3.657500	-10.905000	24.825067	0.000982	20.703763
891.255021	-3.025700	3.654100	-11.056000	24.837228	0.000983	20.714546
892.249781	-2.978800	3.656300	-10.891000	24.829840	0.000982	20.734160
893.249757	-2.985400	3.654900	-10.910000	24.800229	0.000982	20.704915
894.250333	-2.997900	3.654700	-10.955000	24.791326	0.000980	20.727276
895.249102	-3.003300	3.652800	-10.969000	24.796369	0.000981	20.731863
896.249280	-2.996400	3.655000	-10.951000	24.785380	0.000980	20.711824
897.250772	-2.993200	3.653000	-10.933000	24.818011	0.000982	20.715175
898.251209	-2.973200	3.653600	-10.862000	24.830460	0.000983	20.725299
899.258134	-3.004600	3.652500	-10.973000	24.862660	0.000981	20.717311
900.252219	-2.977800	3.654300	-10.881000	24.878158	0.000980	20.722909
901.254870	-3.003800	3.653200	-10.971000	24.907320	0.000980	20.704761
902.251761	-2.984300	3.652900	-10.900000	24.903865	0.000979	20.721210
903.252729	-2.993900	3.653200	-10.936000	24.857659	0.000978	20.726518
904.258198	-2.981900	3.653200	-10.892000	24.825312	0.000977	20.718709
905.257077	-2.990300	3.652000	-10.919000	24.812685	0.000978	20.730219
906.255913	-2.993300	3.650500	-10.926000	24.824790	0.000978	20.709650
907.254526	-2.992300	3.650200	-10.921000	24.826852	0.000978	20.728316
908.254054	-3.001800	3.650600	-10.958000	24.816500	0.000978	20.732152
909.259224	-2.962600	3.651700	-10.817000	24.820507	0.000979	20.709145
910.254051	-3.014700	3.649000	-11.000000	24.822544	0.000978	20.709293
911.255497	-2.995000	3.650200	-10.932000	24.799964	0.000978	20.736420
912.253290	-3.018800	3.648000	-11.010000	24.791043	0.000977	20.733156
913.255395	-2.993300	3.649600	-10.923000	24.750287	0.000975	20.727343
914.255619	-2.996800	3.649200	-10.935000	24.758068	0.000976	20.726142
915.256550	-2.989900	3.648500	-10.908000	24.758988	0.000975	20.739869
916.252491	-3.019200	3.647500	-11.012000	24.756368	0.000973	20.726333
917.254838	-3.010400	3.647400	-10.978000	24.764701	0.000975	20.719047
918.255893	-2.993400	3.647000	-10.916000	24.783127	0.000976	20.738963
919.254693	-3.001200	3.647400	-10.945000	24.789613	0.000975	20.737885
920.256874	-3.021400	3.646800	-11.016000	24.814279	0.000974	20.743674
921.255082	-2.995500	3.647900	-10.927000	24.838178	0.000973	20.740632
922.255546	-3.001400	3.646300	-10.942000	24.852400	0.000974	20.729301
923.254801	-2.980100	3.647600	-10.869000	24.871242	0.000975	20.754851
924.254216	-3.012500	3.646300	-10.984000	24.896827	0.000973	20.739277
925.256376	-3.018800	3.645700	-11.004000	24.884268	0.000973	20.729516
926.257202	-3.021100	3.645300	-11.012000	24.915767	0.000972	20.740268
927.258069	-2.991400	3.645800	-10.905000	24.911171	0.000972	20.747036
928.257834	-3.014300	3.646000	-10.989000	24.919374	0.000971	20.740096
929.257962	-2.990800	3.644300	-10.897000	24.868622	0.000972	20.747953
930.258349	-2.980000	3.645100	-10.861000	24.857658	0.000971	20.747855
931.261178	-3.009900	3.644800	-10.970000	24.841889	0.000971	20.748150
932.258764	-2.994400	3.643800	-10.910000	24.816230	0.000970	20.736622
933.260809	-2.993800	3.643300	-10.906000	24.784967	0.000971	20.746500
934.257350	-3.007500	3.644600	-10.960000	24.810621	0.000971	20.762763
935.256805	-3.020500	3.642300	-11.000000	24.816585	0.000971	20.750256
936.260526	-3.020000	3.643400	-11.001000	24.844042	0.000969	20.726128
937.257821	-3.015800	3.643900	-10.988000	24.851994	0.000968	20.733635
938.261115	-3.009100	3.642600	-10.961000	24.841594	0.000967	20.738370
939.257738	-2.998600	3.642400	-10.922000	24.869591	0.000968	20.754615
940.258501	-3.002700	3.640400	-10.930000	24.873413	0.000967	20.740433
941.260317	-2.959000	3.643400	-10.779000	24.867498	0.000967	20.745403
942.257532	-2.986700	3.641000	-10.872000	24.876646	0.000968	20.770232
943.258505	-2.985000	3.640400	-10.865000	24.928508	0.000966	20.735038
944.259339	-2.981200	3.641800	-10.856000	24.926747	0.000965	20.761247
945.257778	-3.009800	3.641000	-10.957000	24.944042	0.000967	20.769123
946.257654	-2.995500	3.640900	-10.905000	24.933232	0.000965	20.758747
947.266416	-2.996200	3.641800	-10.909000	24.941508	0.000966	20.747613
948.258296	-3.020100	3.638400	-10.988000	24.941778	0.000965	20.749306
949.257866	-3.008300	3.640100	-10.949000	24.941772	0.000966	20.743610
950.257703	-2.993300	3.638700	-10.890000	24.941698	0.000965	20.767244
951.258430	-3.004200	3.638700	-10.930000	24.913949	0.000964	20.778747
952.263059	-3.017500	3.637500	-10.975000	24.898880	0.000963	20.754140
953.260758	-3.004600	3.637800	-10.930000	24.895997	0.000964	20.761203
954.261278	-2.979600	3.639400	-10.842000	24.902433	0.000964	20.750593
955.260869	-2.998800	3.637900	-10.908000	24.928121	0.000964	20.764997
956.260835	-3.026800	3.635700	-11.003000	24.928513	0.000963	20.761597
957.260642	-2.989200	3.637500	-10.872000	24.932017	0.000963	20.765113
958.259952	-2.983300	3.636600	-10.848000	24.974410	0.000963	20.769258
959.261029	-3.007900	3.636500	-10.936000	24.961655	0.000964	20.762145
960.261730	-3.017100	3.635300	-10.966000	24.972723	0.000962	20.771832
961.260875	-2.990700	3.636200	-10.873000	24.948060	0.000961	20.759879
962.261416	-3.018100	3.635100	-10.970000	24.930630	0.000961	20.772731
963.262490	-3.012600	3.634600	-10.948000	24.896942	0.000961	20.774480
964.266824	-2.987000	3.634900	-10.856000	24.941416	0.000960	20.778341
965.264137	-2.998300	3.633800	-10.894000	24.954643	0.000960	20.787350
966.261646	-3.019200	3.633500	-10.969000	24.940618	0.000959	20.780859
967.261097	-3.019900	3.633300	-10.971000	24.925378	0.000958	20.790219
968.262136	-2.999200	3.633700	-10.897000	24.949324	0.000958	20.753087
969.263319	-2.998500	3.633800	-10.895000	24.945790	0.000957	20.777990
970.263643	-3.005500	3.632600	-10.917000	24.954293	0.000957	20.797904
971.263199	-3.012100	3.632500	-10.940000	24.996735	0.000956	20.754208
972.265018	-2.987300	3.633600	-10.854000	24.995520	0.000957	20.769110
973.268402	-3.019000	3.632700	-10.966000	24.993232	0.000955	20.790047
974.264562	-3.007000	3.632600	-10.922000	24.979900	0.000955	20.771450
975.269134	-2.989900	3.631300	-10.856000	24.930102	0.000955	20.782633
976.265860	-2.992900	3.632600	-10.871000	24.940213	0.000953	20.761012
977.264105	-3.002600	3.631400	-10.902000	24.957852	0.000956	20.770656
978.269622	-3.003300	3.630000	-10.900000	25.000415	0.000955	20.783981
979.269558	-2.987300	3.631400	-10.847000	24.990698	0.000953	20.772805
980.270370	-2.998600	3.631100	-10.886000	24.984330	0.000953	20.770680
981.279150	-2.994800	3.631400	-10.873000	25.020857	0.000952	20.790275
982.271466	-2.993400	3.629600	-10.864000	25.006759	0.000951	20.762847
983.268006	-3.008900	3.628900	-10.918000	25.041224	0.000952	20.767571
984.273757	-2.996000	3.628500	-10.869000	25.038187	0.000950	20.775428
985.270545	-2.980100	3.630800	-10.820000	25.012931	0.000950	20.801760
986.273884	-3.013100	3.627600	-10.929000	24.973079	0.000951	20.774560
987.269038	-2.996000	3.628200	-10.869000	24.969030	0.000951	20.763384
988.269054	-3.001200	3.628400	-10.889000	24.921219	0.000950	20.775139
989.273326	-3.021600	3.627300	-10.959000	24.913912	0.000951	20.776340
990.271906	-2.993100	3.627400	-10.855000	24.879180	0.000951	20.784629
991.270819	-2.990900	3.627800	-10.849000	24.870897	0.000948	20.801920
992.270926	-3.000100	3.627800	-10.883000	24.855761	0.000949	20.785306
993.271712	-3.003600	3.627700	-10.895000	24.849644	0.000948	20.790073
994.271706	-3.015100	3.625400	-10.930000	24.863400	0.000948	20.797715
995.274362	-3.017000	3.626100	-10.938000	24.887396	0.000948	20.789556
996.271539	-3.003800	3.625200	-10.889000	24.895151	0.000948	20.779321
997.273480	-3.004500	3.625500	-10.892000	24.928545	0.000947	20.783441
998.277558	-3.013700	3.625000	-10.924000	24.949730	0.000947	20.786686
999.274382	-2.980400	3.626100	-10.806000	24.960252	0.000949	20.794876
1000.276353	-3.010700	3.625000	-10.913000	25.028225	0.000947	20.791034
1001.273723	-2.994500	3.625500	-10.856000	25.022704	0.000945	20.777431
1002.277519	-2.999400	3.623600	-10.867000	25.022256	0.000945	20.807327
1003.273782	-3.001400	3.624300	-10.876000	25.034569	0.000946	20.797875
1004.274265	-2.985300	3.623600	-10.816000	25.027085	0.000946	20.796052
1005.277174	-3.020600	3.624200	-10.946000	25.042550	0.000944	20.804938
1006.278434	-3.009400	3.623400	-10.903000	25.039544	0.000945	20.799076
1007.274733	-3.007700	3.621800	-10.891000	25.015699	0.000944	20.796477
1008.284803	-2.993500	3.622600	-10.843000	25.004288	0.000944	20.791188
1009.274896	-3.005000	3.622500	-10.884000	25.019876	0.000943	20.815844
1010.276601	-2.998800	3.621400	-10.859000	25.057248	0.000943	20.804994
1011.278900	-3.001500	3.622300	-10.871000	25.065646	0.000943	20.806786
1012.278968	-2.980700	3.622800	-10.798000	25.076602	0.000941	20.801662
1013.282982	-3.002700	3.621600	-10.873000	25.084166	0.000940	20.784599
1014.278591	-2.970200	3.622300	-10.757000	25.102710	0.000940	20.790412
1015.277726	-2.998900	3.622100	-10.862000	25.102685	0.000940	20.816465
1016.281232	-3.003700	3.620700	-10.873000	25.082878	0.000940	20.822186
1017.279898	-2.993900	3.621800	-10.842000	25.069222	0.000939	20.812746
1018.278457	-2.991800	3.620000	-10.829000	25.089466	0.000938	20.794187
1019.278040	-3.000000	3.619200	-10.856000	25.116683	0.000941	20.819138
1020.276044	-3.008200	3.620100	-10.889000	25.147262	0.000940	20.806687
1021.279574	-3.008300	3.620200	-10.890000	25.135122	0.000940	20.807303
1022.280927	-2.988800	3.619400	-10.817000	25.137049	0.000937	20.817297
1023.280845	-3.003500	3.620100	-10.872000	25.146605	0.000937	20.783268
1024.277825	-3.008300	3.618300	-10.884000	25.135772	0.000937	20.796576
1025.278274	-2.997300	3.618700	-10.845000	25.122474	0.000939	20.828270
1026.279003	-3.027900	3.617100	-10.950000	25.151702	0.000937	20.809248
1027.280622	-2.997600	3.617300	-10.842000	25.164633	0.000937	20.816539
1028.278924	-3.004700	3.617200	-10.867000	25.178127	0.000936	20.798792
1029.277735	-2.967700	3.617500	-10.735000	25.224485	0.000935	20.814513
1030.280938	-3.010500	3.616700	-10.887000	25.216340	0.000932	20.812026
1031.283511	-2.976500	3.618200	-10.768000	25.230845	0.000932	20.809519
1032.281278	-2.993700	3.616500	-10.825000	25.281636	0.000932	20.827796
1033.279989	-2.990200	3.615000	-10.809000	25.251859	0.000932	20.814021
1034.280227	-3.009900	3.614800	-10.879000	25.228067	0.000934	20.817635
1035.283369	-2.994200	3.614300	-10.821000	25.201846	0.000931	20.822131
1036.280108	-3.008600	3.614200	-10.873000	25.152359	0.000932	20.827925
1037.283395	-2.983400	3.614900	-10.784000	25.132595	0.000933	20.808559
1038.281484	-3.018500	3.613000	-10.904000	25.135754	0.000930	20.830222
1039.285482	-3.008800	3.613000	-10.870000	25.150942	0.000930	20.823658
1040.282151	-2.989600	3.612600	-10.799000	25.156315	0.000929	20.817673
1041.280879	-3.001700	3.612500	-10.843000	25.168595	0.000929	20.832845
1042.288229	-3.009200	3.613500	-10.873000	25.182022	0.000929	20.833997
1043.282083	-2.975300	3.613400	-10.749000	25.212231	0.000927	20.843461
1044.280801	-3.002000	3.613600	-10.846000	25.209446	0.000929	20.822174
1045.282141	-2.979700	3.613200	-10.765000	25.215985	0.000928	20.841066
1046.281847	-2.995300	3.611700	-10.816000	25.246088	0.000928	20.830512
1047.284167	-2.993700	3.611000	-10.809000	25.222033	0.000927	20.827224
1048.287822	-2.998100	3.612200	-10.828000	25.230454	0.000928	20.820980
1049.283957	-2.975300	3.612800	-10.749000	25.217439	0.000927	20.834466
1050.284470	-2.993200	3.610400	-10.804000	25.235018	0.000923	20.831726
1051.283968	-2.996400	3.610700	-10.818000	25.240507	0.000926	20.827280
1052.285527	-2.977300	3.609400	-10.744000	25.218709	0.000924	20.840008
1053.289816	-2.966700	3.610400	-10.709000	25.224431	0.000925	20.820624
1054.286408	-2.996200	3.609000	-10.812000	25.251155	0.000924	20.824694
1055.288712	-2.991800	3.607500	-10.791000	25.217973	0.000922	20.851122
1056.287387	-2.977700	3.609600	-10.747000	25.196475	0.000923	20.830014
1057.288914	-3.009900	3.608700	-10.860000	25.211196	0.000923	20.829620
1058.288669	-2.968300	3.610500	-10.716000	25.197598	0.000924	20.836357
1059.287727	-2.988100	3.608800	-10.783000	25.236153	0.000923	20.839504
1060.288140	-3.009400	3.608000	-10.855000	25.204510	0.000921	20.844245
1061.289004	-2.979300	3.608100	-10.747000	25.224948	0.000923	20.832047
1062.289474	-2.979000	3.607600	-10.746000	25.211276	0.000922	20.831123
1063.288722	-2.980600	3.607100	-10.750000	25.229499	0.000924	20.852736
1064.289244	-2.986100	3.606800	-10.770000	25.255523	0.000919	20.844251
1065.289030	-2.959500	3.607600	-10.675000	25.266122	0.000920	20.817909
1066.292496	-2.974800	3.606700	-10.727000	25.254308	0.000920	20.848722
1067.289542	-2.972500	3.605100	-10.715000	25.256645	0.000921	20.847275
1068.291522	-2.991500	3.605100	-10.783000	25.251070	0.000918	20.833617
1069.292977	-2.995800	3.606900	-10.805000	25.262491	0.000918	20.842238
1070.289976	-3.008000	3.603900	-10.840000	25.227966	0.000918	20.858309
1071.292756	-3.019400	3.603600	-10.879000	25.241337	0.000917	20.849923
1072.297081	-3.012700	3.602600	-10.852000	25.232063	0.000919	20.864319
1073.289871	-3.002800	3.603600	-10.820000	25.237362	0.000917	20.847355
1074.298547	-2.980100	3.604500	-10.740000	25.238552	0.000916	20.850920
1075.292048	-2.986500	3.603000	-10.759000	25.258314	0.000916	20.849424
1076.301141	-3.006000	3.602700	-10.828000	25.277253	0.000915	20.850421
1077.296959	-2.999600	3.602300	-10.804000	25.293212	0.000916	20.845108
1078.295620	-2.967800	3.603000	-10.691000	25.291470	0.000914	20.852841
1079.294004	-2.993000	3.602900	-10.782000	25.308324	0.000915	20.849849
1080.299133	-2.995500	3.602300	-10.789000	25.344196	0.000914	20.846512
1081.300123	-3.015800	3.600400	-10.857000	25.312084	0.000913	20.849831
1082.299344	-2.995000	3.601800	-10.786000	25.300106	0.000911	20.844917
1083.299429	-3.015300	3.600900	-10.856000	25.297321	0.000912	20.837380
1084.299588	-3.032100	3.599600	-10.913000	25.267300	0.000912	20.846118
1085.305393	-3.006500	3.598800	-10.819000	25.274905	0.000911	20.853753
1086.299533	-2.990300	3.600900	-10.768000	25.249703	0.000911	20.834141
1087.297611	-3.002800	3.600100	-10.809000	25.224648	0.000908	20.843125
1088.297313	-2.978900	3.600400	-10.725000	25.236762	0.000910	20.823994
1089.297519	-3.002300	3.598900	-10.804000	25.239792	0.000910	20.833674
1090.299122	-2.996300	3.598500	-10.781000	25.254488	0.000910	20.839419
1091.302585	-3.001500	3.597800	-10.798000	25.231745	0.000909	20.854992
1092.302572	-3.007300	3.598200	-10.819000	25.221981	0.000908	20.838551
1093.301488	-3.002900	3.597300	-10.800000	25.226035	0.000908	20.826501
1094.303058	-3.016500	3.596900	-10.849000	25.238087	0.000907	20.828169
1095.302372	-2.996000	3.597100	-10.775000	25.220711	0.000910	20.834432
1096.304701	-3.003000	3.595900	-10.797000	25.220196	0.000907	20.841975
1097.303885	-3.005700	3.596000	-10.808000	25.267294	0.000907	20.828096
1098.305614	-2.996400	3.596100	-10.774000	25.273587	0.000905	20.821612
1099.302909	-2.985500	3.595900	-10.734000	25.299764	0.000905	20.832720
1100.304917	-2.999300	3.595700	-10.784000	25.308859	0.000903	20.840430
1101.310240	-3.019200	3.596000	-10.855000	25.341670	0.000905	20.818373
1102.306839	-2.995400	3.595000	-10.767000	25.336973	0.000904	20.815553
1103.316312	-2.982200	3.595800	-10.722000	25.380147	0.000903	20.822394
1104.308212	-3.000600	3.593600	-10.782000	25.387304	0.000904	20.832899
1105.311350	-2.987600	3.594600	-10.738000	25.399508	0.000903	20.811015
1106.312210	-3.001400	3.593700	-10.786000	25.405346	0.000903	20.798859
1107.310080	-3.001200	3.592800	-10.782000	25.413846	0.000903	20.808342
1108.311305	-2.982700	3.593900	-10.718000	25.398791	0.000899	20.821200
1109.310952	-3.020900	3.592900	-10.853000	25.401121	0.000901	20.818798
1110.312511	-3.034000	3.591200	-10.894000	25.387164	0.000900	20.818060
1111.311097	-3.018200	3.591700	-10.839000	25.337654	0.000900	20.792055
1112.314868	-2.990000	3.593100	-10.742000	25.325449	0.000899	20.828164
1113.310544	-2.988100	3.593300	-10.736000	25.323260	0.000897	20.816009
1114.317358	-3.004000	3.591700	-10.788000	25.264425	0.000898	20.803878
1115.311066	-3.006000	3.590700	-10.792000	25.233034	0.000901	20.804130
1116.311566	-3.004700	3.590100	-10.786000	25.228011	0.000898	20.810941
1117.314100	-2.986500	3.591300	-10.725000	25.232495	0.000898	20.806908
1118.311876	-2.996100	3.590900	-10.756000	25.276336	0.000898	20.806828
1119.312563	-2.993300	3.589900	-10.745000	25.284658	0.000897	20.804752
1120.314915	-2.986100	3.589900	-10.719000	25.295244	0.000897	20.825812
1121.313199	-2.971800	3.591200	-10.670000	25.310902	0.000897	20.798385
1122.315185	-2.994600	3.588600	-10.745000	25.282272	0.000896	20.821797
1123.314176	-2.989100	3.589400	-10.728000	25.248668	0.000895	20.794222
1124.313827	-2.991500	3.588500	-10.734000	25.213909	0.000894	20.799629
1125.312964	-3.029500	3.585900	-10.860000	25.149057	0.000895	20.813231
1126.313558	-3.001100	3.588400	-10.766000	25.120595	0.000896	20.794616
1127.313703	-2.997200	3.587900	-10.752000	25.081557	0.000893	20.807584
1128.314521	-3.012600	3.586200	-10.802000	25.070319	0.000894	20.803415
1129.315562	-3.008600	3.586700	-10.789000	25.048793	0.000893	20.783230
1130.318154	-2.979100	3.588000	-10.688000	25.035984	0.000893	20.803089
1131.318668	-2.999800	3.585700	-10.755000	25.039536	0.000892	20.796697
1132.318322	-3.001000	3.585600	-10.759000	25.051068	0.000892	20.792626
1133.319205	-2.995000	3.586000	-10.739000	25.078017	0.000892	20.795496
1134.319128	-2.993600	3.584500	-10.729000	25.149363	0.000891	20.806426
1135.321341	-2.989900	3.584700	-10.717000	25.147873	0.000893	20.795447
1136.317874	-3.007300	3.585100	-10.780000	25.145228	0.000891	20.805594
1137.320900	-2.990700	3.585200	-10.722000	25.112963	0.000888	20.799283
1138.320545	-2.982700	3.585300	-10.693000	25.135800	0.000889	20.795181
1139.321685	-3.005900	3.585100	-10.775000	25.152951	0.000887	20.783001
1140.319400	-2.991500	3.584100	-10.720000	25.197985	0.000891	20.780322
1141.319049	-3.010700	3.583900	-10.789000	25.178700	0.000888	20.792256
1142.320828	-2.992200	3.584100	-10.724000	25.233399	0.000886	20.787428
1143.320073	-2.997000	3.582700	-10.736000	25.255302	0.000887	20.775278
1144.322739	-2.973900	3.583500	-10.656000	25.271132	0.000885	20.798284
1145.320113	-3.008200	3.580700	-10.770000	25.264808	0.000886	20.793357
1146.326618	-2.998800	3.581700	-10.739000	25.236871	0.000887	20.808456
1147.324815	-2.966500	3.582900	-10.626000	25.219421	0.000886	20.793308
1148.323320	-3.023700	3.579600	-10.823000	25.236809	0.000884	20.808868
1149.328825	-3.002400	3.580600	-10.750000	25.221966	0.000884	20.771207
1150.324577	-2.976600	3.582200	-10.662000	25.247395	0.000882	20.796263
1151.324438	-3.004500	3.580200	-10.756000	25.276620	0.000882	20.792414
1152.326002	-3.011800	3.579600	-10.780000	25.285954	0.000883	20.774759
1153.327175	-3.005400	3.579800	-10.756000	25.298306	0.000880	20.777678
1154.326951	-2.991900	3.579700	-10.708000	25.282219	0.000881	20.775276
1155.330077	-2.996100	3.580000	-10.724000	25.242935	0.000882	20.789888
1156.327706	-2.974800	3.580000	-10.648000	25.234133	0.000880	20.793854
1157.329008	-3.014000	3.578900	-10.784000	25.246332	0.000880	20.789980
1158.327109	-2.996500	3.578600	-10.722000	25.248945	0.000881	20.805406
1159.330493	-2.998900	3.577800	-10.729000	25.247546	0.000880	20.800683
1160.329745	-2.991200	3.577000	-10.699000	25.294907	0.000878	20.783274
1161.328942	-2.996300	3.577700	-10.719000	25.299801	0.000879	20.754996
1162.334630	-2.995600	3.577200	-10.715000	25.336758	0.000875	20.774086
1163.330909	-3.000500	3.576900	-10.732000	25.312447	0.000876	20.794247
1164.331899	-3.009600	3.575000	-10.759000	25.312011	0.000876	20.804241
1165.340432	-3.001600	3.576000	-10.732000	25.311784	0.000876	20.780779
1166.332012	-3.005700	3.574200	-10.742000	25.340339	0.000876	20.786216
1167.332262	-2.998700	3.575500	-10.720000	25.369138	0.000875	20.782417
1168.331824	-2.996000	3.575800	-10.712000	25.387524	0.000873	20.779541
1169.332806	-3.006000	3.575700	-10.748000	25.400788	0.000871	20.771997
1170.335996	-2.998700	3.573600	-10.715000	25.427232	0.000874	20.782903
1171.334222	-2.985200	3.575100	-10.671000	25.422552	0.000873	20.775833
1172.334650	-2.999300	3.573700	-10.718000	25.387382	0.000872	20.764700
1173.336861	-3.001000	3.575000	-10.728000	25.383458	0.000873	20.784467
1174.348822	-2.987400	3.573600	-10.675000	25.411434	0.000871	20.784109
1175.340851	-3.004300	3.572900	-10.733000	25.401665	0.000870	20.782835
1176.340161	-3.010200	3.572500	-10.752000	25.420179	0.000870	20.779140
1177.337621	-3.007600	3.572300	-10.744000	25.373847	0.000870	20.781929
1178.337077	-2.994900	3.571800	-10.695000	25.398053	0.000869	20.787268
1179.336833	-3.008300	3.570500	-10.739000	25.372903	0.000868	20.790938
1180.337402	-2.992900	3.571800	-10.689000	25.353861	0.000868	20.777034
1181.336491	-3.015500	3.571000	-10.767000	25.355995	0.000869	20.781547
1182.341093	-3.003000	3.569600	-10.718000	25.367665	0.000868	20.783782
1183.338689	-2.996100	3.570100	-10.696000	25.352211	0.000866	20.769687
1184.337618	-2.981800	3.570400	-10.645000	25.349972	0.000865	20.797311
1185.338124	-2.990500	3.570700	-10.677000	25.291691	0.000867	20.785260
1186.337608	-2.977400	3.570200	-10.629000	25.273052	0.000866	20.782194
1187.343157	-2.977400	3.570000	-10.628000	25.278713	0.000864	20.769859
1188.340674	-2.983200	3.569700	-10.649000	25.291513	0.000864	20.762322
1189.341397	-2.989300	3.570100	-10.671000	25.325294	0.000864	20.768264
1190.339385	-3.011200	3.568300	-10.744000	25.337897	0.000864	20.784712
1191.340240	-3.007100	3.567700	-10.727000	25.315800	0.000863	20.783862
1192.339954	-2.967100	3.567600	-10.585000	25.307422	0.000864	20.771657
1193.339940	-2.987600	3.568200	-10.659000	25.308146	0.000862	20.784712
1194.339086	-3.023400	3.566900	-10.782000	25.339632	0.000863	20.770808
1195.340381	-3.003000	3.567100	-10.710000	25.319253	0.000863	20.773105
1196.341349	-3.008800	3.566500	-10.730000	25.320921	0.000858	20.789953
1197.341017	-2.993100	3.567500	-10.677000	25.297210	0.000859	20.757137
1198.342137	-3.001400	3.566200	-10.703000	25.303448	0.000858	20.769090
1199.346645	-3.010900	3.565100	-10.732000	25.313169	0.000861	20.769367
1200.344177	-3.005400	3.565900	-10.716000	25.334800	0.000857	20.764533
1201.342933	-2.983400	3.565700	-10.637000	25.310115	0.000857	20.748756
1202.342309	-3.012100	3.563700	-10.733000	25.290403	0.000858	20.752198
1203.347129	-3.009300	3.563400	-10.722000	25.248721	0.000856	20.750178
1204.345009	-3.006000	3.563400	-10.709000	25.235050	0.000855	20.753996
1205.350163	-2.997800	3.564200	-10.683000	25.254560	0.000856	20.775482
1206.345518	-3.001700	3.563200	-10.694000	25.246979	0.000854	20.756965
1207.345673	-2.987800	3.563300	-10.646000	25.248893	0.000853	20.768843
1208.346175	-3.002600	3.563500	-10.698000	25.248666	0.000855	20.743010
1209.349824	-3.007400	3.562600	-10.713000	25.229425	0.000853	20.763049
1210.350296	-3.002800	3.563100	-10.698000	25.228383	0.000853	20.759631
1211.347717	-3.015700	3.561000	-10.738000	25.259528	0.000853	20.766245
1212.347302	-3.030200	3.560900	-10.789000	25.232431	0.000853	20.768911
1213.348471	-3.036000	3.561000	-10.810000	25.227481	0.000851	20.765364
1214.352151	-2.971500	3.561600	-10.582000	25.219053	0.000852	20.746945
1215.348489	-2.996700	3.560000	-10.668000	25.259166	0.000851	20.766829
1216.350963	-2.999600	3.559000	-10.675000	25.290384	0.000850	20.776836
1217.348576	-3.013900	3.558800	-10.725000	25.308679	0.000850	20.757272
1218.349450	-3.016300	3.558800	-10.733000	25.329556	0.000848	20.758793
1219.350736	-3.001200	3.559000	-10.680000	25.355154	0.000848	20.748934
1220.349925	-2.990000	3.559700	-10.642000	25.376576	0.000847	20.768073
1221.347352	-3.021500	3.558300	-10.750000	25.365347	0.000847	20.753953
1222.348739	-3.024800	3.556600	-10.757000	25.405104	0.000846	20.764003
1223.350330	-2.975500	3.559300	-10.590000	25.412218	0.000848	20.750283
1224.350426	-2.999700	3.556900	-10.668000	25.445265	0.000846	20.744112
1225.353218	-2.995900	3.558500	-10.660000	25.434135	0.000845	20.764705
1226.352103	-2.988700	3.556500	-10.628000	25.440813	0.000844	20.760505
1227.351996	-2.992200	3.558100	-10.646000	25.446191	0.000844	20.751681
1228.352682	-3.023000	3.556800	-10.750000	25.442033	0.000844	20.765998
1229.352373	-3.003700	3.556500	-10.681000	25.401320	0.000843	20.756410
1230.352565	-3.002300	3.555100	-10.672000	25.350499	0.000842	20.756588
1231.354836	-2.990200	3.555500	-10.631000	25.312346	0.000843	20.738194
1232.351523	-3.007900	3.554100	-10.689000	25.303668	0.000841	20.750344
1233.353943	-2.976200	3.556200	-10.583000	25.310997	0.000840	20.759125
1234.352077	-3.022400	3.553400	-10.738000	25.313935	0.000838	20.767291
1235.354086	-2.997500	3.553400	-10.650000	25.340950	0.000838	20.767864
1236.353364	-3.004600	3.553400	-10.674000	25.359373	0.000839	20.755067
1237.354946	-2.983200	3.554700	-10.603000	25.402289	0.000838	20.737467
1238.356181	-2.992800	3.552300	-10.630000	25.379899	0.000836	20.742012
1239.357015	-2.986300	3.553900	-10.611000	25.416805	0.000837	20.755837
1240.357849	-2.983200	3.553700	-10.600000	25.399420	0.000837	20.747388
1241.355484	-2.997200	3.552300	-10.646000	25.386388	0.000837	20.737147
1242.358736	-2.968000	3.554700	-10.548000	25.362010	0.000835	20.753922
1243.356656	-2.999300	3.551500	-10.650000	25.333303	0.000837	20.742640
1244.358515	-2.994900	3.552100	-10.637000	25.326600	0.000836	20.750135
1245.360799	-3.000600	3.550400	-10.653000	25.298363	0.000835	20.732215
1246.358418	-3.005900	3.549200	-10.667000	25.276419	0.000835	20.711603
1247.358323	-3.003400	3.550200	-10.662000	25.279350	0.000835	20.735411
1248.358002	-2.994400	3.550300	-10.631000	25.258847	0.000834	20.730946
1249.358835	-2.993700	3.549100	-10.624000	25.272770	0.000833	20.752986
1250.364058	-2.998300	3.549400	-10.641000	25.341116	0.000833	20.740528
1251.358907	-2.987600	3.550100	-10.606000	25.328765	0.000833	20.745670
1252.357391	-3.002600	3.550200	-10.658000	25.312617	0.000830	20.752691
1253.357098	-3.016100	3.547300	-10.698000	25.282865	0.000831	20.725663
1254.361872	-3.010100	3.548600	-10.681000	25.279958	0.000830	20.742185
1255.360061	-2.998800	3.547300	-10.637000	25.263582	0.000829	20.734752
1256.358981	-3.019000	3.546900	-10.706000	25.249985	0.000829	20.724893
1257.359164	-3.009400	3.546200	-10.671000	25.232210	0.000830	20.722220
1258.359516	-3.011800	3.546700	-10.681000	25.207228	0.000828	20.726537
1259.360057	-3.018100	3.545800	-10.701000	25.226678	0.000828	20.735159
1260.359070	-3.006500	3.545500	-10.659000	25.241735	0.000827	20.714239
1261.360809	-3.018900	3.544200	-10.698000	25.243698	0.000825	20.736600
1262.359047	-2.986200	3.545700	-10.587000	25.223047	0.000827	20.714443
1263.361462	-3.014600	3.546000	-10.689000	25.257719	0.000827	20.724123
1264.359959	-3.020200	3.546100	-10.709000	25.307882	0.000826	20.734660
1265.360338	-3.008200	3.545600	-10.665000	25.322761	0.000823	20.733952
1266.364551	-2.976600	3.545500	-10.552000	25.324509	0.000824	20.703937
1267.362881	-2.995800	3.542300	-10.611000	25.324613	0.000823	20.713999
1268.364833	-2.990200	3.543900	-10.595000	25.291501	0.000825	20.721057
1269.361712	-2.987500	3.543500	-10.585000	25.286834	0.000823	20.705938
1270.363314	-3.023600	3.542200	-10.709000	25.255934	0.000823	20.710951
1271.365701	-2.993900	3.543200	-10.607000	25.267146	0.000822	20.718889
1272.365663	-3.001800	3.541100	-10.629000	25.278431	0.000824	20.716943
1273.362562	-2.987500	3.541500	-10.578000	25.318664	0.000820	20.725570
1274.373584	-2.987900	3.541700	-10.580000	25.371137	0.000822	20.717091
1275.364006	-3.001200	3.541300	-10.626000	25.383341	0.000819	20.722707
1276.363186	-3.008900	3.539800	-10.650000	25.434859	0.000820	20.717540
1277.367139	-3.017000	3.539800	-10.679000	25.410085	0.000820	20.703567
1278.364882	-3.011800	3.539400	-10.659000	25.403093	0.000820	20.709350
1279.368657	-3.001900	3.539700	-10.625000	25.398568	0.000817	20.708124
1280.366511	-2.972900	3.541000	-10.526000	25.415475	0.000819	20.724154
1281.365927	-2.987700	3.540300	-10.576000	25.448032	0.000816	20.715594
1282.366974	-3.005400	3.539100	-10.636000	25.421841	0.000816	20.706837
1283.368637	-3.012500	3.538900	-10.661000	25.400935	0.000815	20.696750
1284.367324	-2.989200	3.538800	-10.576000	25.343545	0.000816	20.696497
1285.369081	-3.003400	3.537500	-10.623000	25.369751	0.000814	20.710009
1286.368238	-3.011900	3.537700	-10.654000	25.366353	0.000813	20.709917
1287.369317	-2.991300	3.537400	-10.580000	25.389982	0.000811	20.700925
1288.372185	-3.007900	3.537400	-10.639000	25.381912	0.000812	20.703728
1289.367602	-2.979400	3.536800	-10.537000	25.435970	0.000812	20.729087
1290.368476	-2.997000	3.536000	-10.597000	25.430702	0.000810	20.710995
1291.369182	-3.011800	3.534800	-10.645000	25.437239	0.000812	20.709498
1292.369053	-2.991700	3.536300	-10.579000	25.423325	0.000812	20.708802
1293.371242	-2.986600	3.536200	-10.561000	25.381495	0.000811	20.698093
1294.366861	-2.999200	3.536000	-10.604000	25.384807	0.000810	20.709480
1295.370228	-2.980500	3.535000	-10.535000	25.396808	0.000809	20.708728
1296.368212	-2.988600	3.534800	-10.563000	25.388910	0.000808	20.710280
1297.368445	-3.001200	3.532700	-10.601000	25.369451	0.000808	20.707811
1298.373260	-2.999200	3.532900	-10.595000	25.378171	0.000809	20.708981
1299.369893	-3.007600	3.531900	-10.622000	25.421326	0.000808	20.709166
1300.369211	-2.997600	3.533200	-10.590000	25.403806	0.000807	20.718126
1301.370227	-2.997800	3.532500	-10.589000	25.391945	0.000806	20.700526
1302.369321	-2.992200	3.534400	-10.574000	25.411631	0.000806	20.688523
1303.371101	-2.997800	3.531200	-10.585000	25.421375	0.000806	20.706844
1304.371523	-2.999800	3.531600	-10.592000	25.445482	0.000804	20.676520
1305.370976	-3.005600	3.531000	-10.612000	25.446733	0.000803	20.704806
1306.373892	-3.010500	3.530900	-10.629000	25.425282	0.000803	20.710293
1307.372737	-3.005000	3.530200	-10.607000	25.437510	0.000803	20.696018
1308.371426	-3.006400	3.529800	-10.611000	25.453374	0.000803	20.699621
1309.374281	-2.987900	3.530400	-10.548000	25.419775	0.000801	20.710928
1310.370977	-3.010700	3.529600	-10.625000	25.417292	0.000802	20.709382
1311.371765	-3.000500	3.529000	-10.587000	25.389432	0.000801	20.708434
1312.371185	-2.986900	3.529000	-10.540000	25.391100	0.000801	20.705841
1313.371008	-2.983400	3.530400	-10.531000	25.406039	0.000798	20.691917
1314.370537	-2.989800	3.527600	-10.546000	25.454374	0.000799	20.698254
1315.373652	-3.003000	3.528400	-10.595000	25.428281	0.000797	20.721366
1316.371253	-2.994800	3.526700	-10.561000	25.407161	0.000797	20.714383
1317.372518	-2.996000	3.527400	-10.566000	25.403960	0.000796	20.697417
1318.372994	-2.988500	3.527900	-10.542000	25.383802	0.000796	20.698987
1319.373062	-3.013600	3.524700	-10.620000	25.384869	0.000796	20.715233
1320.376090	-2.977900	3.526900	-10.502000	25.434383	0.000794	20.693827
1321.372493	-2.993800	3.524900	-10.552000	25.435530	0.000797	20.716791
1322.372004	-2.999000	3.526400	-10.574000	25.423131	0.000795	20.720462
1323.374198	-3.024900	3.524400	-10.659000	25.435162	0.000794	20.696032
1324.371960	-3.026100	3.524100	-10.664000	25.439615	0.000793	20.716625
1325.374743	-3.004500	3.524400	-10.588000	25.440412	0.000794	20.685181
1326.375987	-3.007400	3.523800	-10.596000	25.435162	0.000793	20.695558
1327.373486	-2.997300	3.524600	-10.564000	25.436260	0.000792	20.690021
1328.374298	-3.012600	3.522700	-10.612000	25.493148	0.000793	20.701630
1329.373283	-3.012200	3.524000	-10.615000	25.479854	0.000792	20.693021
1330.373924	-3.007300	3.521600	-10.590000	25.486888	0.000791	20.717155
1331.375214	-3.010200	3.522800	-10.602000	25.491560	0.000791	20.715683
1332.375177	-2.996500	3.522500	-10.554000	25.473048	0.000790	20.701833
1333.378593	-3.011900	3.521100	-10.603000	25.492854	0.000790	20.726941
1334.375785	-2.993900	3.522400	-10.544000	25.541020	0.000789	20.701341
1335.375000	-2.999700	3.522700	-10.566000	25.566803	0.000789	20.712536
1336.382718	-3.000400	3.521200	-10.564000	25.534858	0.000790	20.694678
1337.374757	-3.005200	3.521200	-10.581000	25.572451	0.000789	20.689283
1338.374753	-2.989000	3.522200	-10.526000	25.576332	0.000788	20.688439
1339.375769	-2.991900	3.520200	-10.531000	25.593476	0.000788	20.707555
1340.374883	-3.002400	3.520300	-10.568000	25.600980	0.000788	20.705134
1341.375771	-2.991400	3.519600	-10.528000	25.623715	0.000787	20.718011
1342.378027	-3.008300	3.518700	-10.584000	25.587087	0.000788	20.698292
1343.373480	-3.007500	3.519900	-10.586000	25.538083	0.000786	20.710720
1344.374214	-3.005200	3.518900	-10.574000	25.492388	0.000785	20.697547
1345.375069	-2.993900	3.518800	-10.533000	25.460127	0.000786	20.714464
1346.376719	-2.991500	3.518600	-10.525000	25.437444	0.000785	20.709704
1347.378813	-3.024000	3.516600	-10.634000	25.466517	0.000784	20.689110
1348.376332	-2.998600	3.518500	-10.550000	25.480860	0.000783	20.707308
1349.375899	-2.990600	3.518700	-10.522000	25.499360	0.000785	20.708343
1350.377067	-3.012900	3.516200	-10.592000	25.484453	0.000782	20.721349
1351.376339	-3.004400	3.515900	-10.561000	25.496926	0.000783	20.722020
1352.378870	-2.997200	3.517100	-10.540000	25.492633	0.000782	20.717710
1353.375651	-3.015200	3.513400	-10.592000	25.500366	0.000781	20.709353
1354.378420	-3.011800	3.515800	-10.587000	25.510477	0.000783	20.707179
1355.376055	-3.014700	3.514300	-10.593000	25.540223	0.000782	20.695798
1356.376589	-3.011700	3.514300	-10.584000	25.513912	0.000778	20.694505
1357.380666	-3.000300	3.515700	-10.548000	25.532963	0.000777	20.714587
1358.379037	-2.990500	3.514100	-10.508000	25.513408	0.000777	20.712019
1359.378074	-3.016800	3.512700	-10.595000	25.521558	0.000778	20.721626
1360.378632	-3.017200	3.512900	-10.598000	25.519172	0.000776	20.719231
1361.381596	-2.992700	3.512900	-10.513000	25.507369	0.000777	20.729188
1362.381120	-2.989900	3.511300	-10.498000	25.488464	0.000774	20.719212
1363.382421	-2.997800	3.510800	-10.523000	25.495939	0.000777	20.718184
1364.386007	-2.980100	3.512200	-10.464000	25.484638	0.000776	20.730069
1365.382360	-3.016800	3.510600	-10.589000	25.524845	0.000774	20.725401
1366.382579	-2.975600	3.511100	-10.446000	25.533270	0.000775	20.722957
1367.383163	-3.009100	3.510500	-10.563000	25.525072	0.000771	20.720413
1368.385337	-2.968400	3.511800	-10.422000	25.523729	0.000773	20.720013
1369.384347	-3.000900	3.510800	-10.535000	25.517548	0.000772	20.722341
1370.387167	-3.016600	3.509300	-10.585000	25.499998	0.000772	20.712303
1371.384170	-3.030600	3.507400	-10.627000	25.516953	0.000771	20.715105
1372.385926	-3.010100	3.508300	-10.559000	25.530370	0.000772	20.725734
1373.386662	-3.009100	3.507900	-10.553000	25.564045	0.000772	20.729208
1374.385957	-3.019900	3.506700	-10.588000	25.600172	0.000770	20.719022
1375.385178	-3.011800	3.507600	-10.563000	25.610939	0.000768	20.726042
1376.387563	-2.999800	3.506900	-10.520000	25.595003	0.000767	20.722366
1377.387841	-3.018800	3.505700	-10.582000	25.569116	0.000768	20.722446
1378.389287	-3.003000	3.507500	-10.532000	25.572445	0.000767	20.718677
1379.389457	-3.018700	3.506700	-10.584000	25.581538	0.000768	20.737293
1380.388222	-3.023700	3.505900	-10.599000	25.608676	0.000766	20.746056
1381.389748	-3.005300	3.506400	-10.537000	25.596800	0.000769	20.722274
1382.386289	-3.001800	3.504500	-10.519000	25.622588	0.000765	20.738691
1383.388276	-3.013400	3.503600	-10.556000	25.618590	0.000768	20.724244
1384.391152	-3.008500	3.505400	-10.545000	25.564989	0.000767	20.721621
1385.389458	-3.007900	3.504100	-10.539000	25.549556	0.000764	20.742632
1386.392386	-3.009400	3.504100	-10.543000	25.506192	0.000766	20.741758
1387.391217	-2.998200	3.503600	-10.502000	25.514844	0.000762	20.719625
1388.392324	-2.988900	3.503500	-10.471000	25.545988	0.000764	20.720556
1389.395723	-2.989500	3.503400	-10.472000	25.539739	0.000762	20.750792
1390.397474	-2.971500	3.502500	-10.406000	25.537581	0.000764	20.744831
1391.395764	-2.995200	3.500400	-10.483000	25.511435	0.000763	20.693440
1392.394784	-3.018500	3.500600	-10.566000	25.492377	0.000762	20.740212
1393.393042	-3.025500	3.500600	-10.589000	25.481069	0.000761	20.741659
1394.395239	-2.991500	3.501600	-10.474000	25.486287	0.000761	20.734097
1395.396781	-3.008100	3.499000	-10.524000	25.493597	0.000760	20.731954
1396.393682	-3.014700	3.499600	-10.549000	25.449280	0.000758	20.737238
1397.400808	-2.990500	3.501700	-10.470000	25.426688	0.000762	20.734466
1398.394536	-3.026900	3.498300	-10.587000	25.442921	0.000759	20.755509
1399.395910	-3.006600	3.499600	-10.520000	25.462906	0.000760	20.730532
1400.402173	-2.980800	3.499300	-10.430000	25.475875	0.000758	20.757781
1401.397381	-3.012100	3.498100	-10.536000	25.446183	0.000759	20.747879
1402.398090	-3.022600	3.496900	-10.569000	25.430982	0.000756	20.740200
1403.396791	-3.012500	3.498500	-10.538000	25.437347	0.000758	20.743273
1404.395821	-2.996900	3.497700	-10.482000	25.487521	0.000754	20.750035
1405.402371	-3.031700	3.496300	-10.598000	25.518904	0.000755	20.744092
1406.397497	-3.012200	3.495900	-10.528000	25.560085	0.000753	20.744671
1407.399293	-3.014100	3.494800	-10.533000	25.579270	0.000754	20.762518
1408.397936	-3.015800	3.495600	-10.541000	25.599774	0.000752	20.752289
1409.397819	-2.981700	3.496300	-10.424000	25.579920	0.000754	20.734720
1410.400497	-2.988600	3.496500	-10.449000	25.551151	0.000752	20.745183
1411.399578	-2.982900	3.494800	-10.424000	25.524631	0.000753	20.769285
1412.399597	-2.992900	3.495200	-10.460000	25.521106	0.000753	20.733975
1413.399128	-3.002700	3.493800	-10.489000	25.521609	0.000750	20.764353
1414.416033	-3.010600	3.494400	-10.519000	25.551998	0.000752	20.758836
1415.399659	-3.011100	3.492800	-10.515000	25.554389	0.000750	20.760289
1416.400656	-3.003800	3.494000	-10.494000	25.589903	0.000750	20.761816
1417.402185	-2.991500	3.493100	-10.449000	25.591589	0.000750	20.752604
1418.400977	-2.988500	3.492200	-10.436000	25.608162	0.000749	20.786793
1419.400802	-2.999200	3.493200	-10.475000	25.607672	0.000749	20.749316
1420.400868	-2.991700	3.491900	-10.446000	25.633491	0.000749	20.763393
1421.402696	-3.030900	3.489500	-10.575000	25.656477	0.000749	20.762297
1422.402366	-2.999600	3.490800	-10.470000	25.672381	0.000748	20.755037
1423.403026	-2.997600	3.489900	-10.460000	25.684085	0.000748	20.763948
1424.403666	-3.004300	3.491200	-10.487000	25.706769	0.000746	20.754963
1425.403402	-3.003400	3.489600	-10.480000	25.716854	0.000748	20.754187
1426.408275	-2.987300	3.490000	-10.424000	25.755783	0.000745	20.771004
1427.404868	-3.000000	3.488500	-10.465000	25.763594	0.000745	20.745184
1428.407928	-3.000500	3.488900	-10.468000	25.736865	0.000743	20.770968
1429.406327	-3.003900	3.488600	-10.479000	25.699480	0.000745	20.751435
1430.406518	-3.020100	3.487000	-10.529000	25.695225	0.000743	20.748584
1431.408936	-3.012800	3.488000	-10.507000	25.657403	0.000744	20.765598
1432.407877	-3.025700	3.486500	-10.548000	25.639837	0.000743	20.786363
1433.407652	-3.002700	3.486800	-10.469000	25.639746	0.000744	20.758295
1434.406835	-3.009600	3.486900	-10.492000	25.643620	0.000742	20.778783
1435.413075	-2.987800	3.486900	-10.417000	25.643295	0.000742	20.753325
1436.409355	-2.986500	3.486400	-10.411000	25.669757	0.000741	20.759988
1437.409566	-2.983700	3.485900	-10.400000	25.668267	0.000741	20.773665
1438.407721	-3.003000	3.484700	-10.463000	25.719300	0.000740	20.747635
1439.409413	-2.976700	3.485900	-10.375000	25.725339	0.000741	20.770771
1440.408049	-2.985800	3.485300	-10.406000	25.702680	0.000738	20.774090
1441.408641	-2.999800	3.484300	-10.451000	25.703005	0.000738	20.763985
1442.410330	-3.006200	3.484000	-10.473000	25.666875	0.000739	20.788389
1443.408202	-2.989700	3.482900	-10.412000	25.631119	0.000741	20.787564
1444.408689	-2.990600	3.483700	-10.416000	25.622505	0.000738	20.772748
1445.412506	-2.991400	3.484100	-10.421000	25.618078	0.000737	20.757870
1446.409745	-3.009500	3.483500	-10.483000	25.643148	0.000738	20.778308
1447.409974	-3.014800	3.480900	-10.494000	25.652167	0.000736	20.776461
1448.413854	-3.000900	3.481800	-10.447000	25.626999	0.000738	20.788641
1449.409818	-3.023800	3.481300	-10.525000	25.640469	0.000736	20.780359
1450.410133	-3.004500	3.480300	-10.455000	25.665993	0.000735	20.789399
1451.408592	-2.988900	3.482500	-10.407000	25.678138	0.000734	20.793063
1452.412167	-2.983200	3.480700	-10.383000	25.716450	0.000734	20.777490
1453.415208	-2.978600	3.480800	-10.367000	25.706512	0.000734	20.767982
1454.409168	-2.990000	3.480000	-10.404000	25.738980	0.000736	20.793007
1455.410324	-3.009900	3.478500	-10.469000	25.761124	0.000731	20.771627
1456.412377	-2.972400	3.479700	-10.342000	25.753994	0.000732	20.776320
1457.408706	-2.992900	3.477000	-10.405000	25.771932	0.000734	20.793864
1458.409497	-2.981800	3.478000	-10.370000	25.796649	0.000733	20.798778
1459.409525	-2.997800	3.477100	-10.423000	25.798985	0.000731	20.794960
1460.409654	-2.995000	3.477400	-10.413000	25.786841	0.000732	20.802676
1461.409790	-2.995600	3.477800	-10.417000	25.790415	0.000730	20.797257
1462.412640	-3.005000	3.476200	-10.444000	25.780533	0.000729	20.775951
1463.408769	-3.026500	3.474500	-10.515000	25.763931	0.000730	20.802897
1464.409326	-3.011000	3.476000	-10.465000	25.740752	0.000728	20.811857
1465.408189	-2.995400	3.476900	-10.413000	25.752008	0.000727	20.798033
1466.414856	-2.999700	3.475700	-10.425000	25.727657	0.000725	20.807713
1467.411105	-3.008800	3.473200	-10.449000	25.750966	0.000727	20.790822
1468.410465	-3.003000	3.473500	-10.430000	25.758819	0.000726	20.799658
1469.413330	-2.979500	3.473800	-10.348000	25.748262	0.000725	20.810866
1470.411881	-2.989600	3.473300	-10.384000	25.729331	0.000726	20.808446
1471.412754	-2.976300	3.473500	-10.337000	25.729153	0.000727	20.808267
1472.414071	-3.015300	3.472300	-10.469000	25.714200	0.000723	20.793248
1473.412978	-3.024400	3.471800	-10.498000	25.681676	0.000725	20.790927
1474.411806	-2.989000	3.471200	-10.373000	25.676011	0.000722	20.817479
1475.417875	-3.021600	3.472000	-10.489000	25.659715	0.000722	20.802060
1476.415205	-3.014200	3.470500	-10.460000	25.680959	0.000724	20.806328
1477.413333	-3.005900	3.470300	-10.430000	25.686624	0.000724	20.815336
1478.414768	-2.985300	3.471100	-10.361000	25.722312	0.000724	20.804241
1479.415183	-3.004000	3.469300	-10.421000	25.721116	0.000724	20.807307
1480.419697	-3.005300	3.469700	-10.426000	25.688740	0.000721	20.818883
1481.416868	-3.005000	3.471500	-10.431000	25.729362	0.000721	20.789511
1482.417257	-3.020400	3.469100	-10.478000	25.738356	0.000720	20.811820
1483.416138	-3.012100	3.468500	-10.446000	25.762927	0.000720	20.833656
1484.416813	-2.991200	3.468300	-10.373000	25.738883	0.000721	20.808557
1485.418509	-2.992400	3.468200	-10.377000	25.755129	0.000720	20.812073
1486.417278	-3.013800	3.466200	-10.445000	25.723330	0.000721	20.810004
1487.417150	-3.008600	3.467000	-10.429000	25.746338	0.000718	20.797553
1488.421764	-2.986500	3.467800	-10.355000	25.740667	0.000719	20.805607
1489.418297	-3.023900	3.465700	-10.479000	25.766881	0.000719	20.812498
1490.418429	-3.015900	3.465900	-10.452000	25.773563	0.000718	20.803563
1491.423021	-2.988800	3.466800	-10.361000	25.743702	0.000717	20.828096
1492.418846	-2.983000	3.466300	-10.338000	25.731869	0.000718	20.819530
1493.421214	-3.003800	3.464500	-10.405000	25.698978	0.000716	20.807356
1494.420946	-2.981600	3.465000	-10.330000	25.667643	0.000716	20.817135
1495.422405	-2.980300	3.464900	-10.325000	25.654774	0.000715	20.799468
1496.426646	-3.012400	3.462500	-10.430000	25.676207	0.000714	20.815305
1497.422248	-3.022700	3.462400	-10.465000	25.706311	0.000714	20.828471
1498.425970	-2.988600	3.464000	-10.351000	25.714900	0.000714	20.822399
1499.422865	-3.009800	3.461900	-10.418000	25.725512	0.000714	20.833533
1500.422332	-3.011700	3.461400	-10.424000	25.732697	0.000712	20.828896
1501.426629	-2.992300	3.462300	-10.359000	25.762479	0.000712	20.842689
1502.425565	-2.993600	3.462200	-10.362000	25.815494	0.000712	20.841414
1503.428236	-2.981500	3.462600	-10.323000	25.800309	0.000712	20.826636
1504.425601	-3.002700	3.460600	-10.389000	25.829078	0.000710	20.812387
1505.426787	-2.998900	3.460700	-10.377000	25.840682	0.000710	20.830681
1506.427041	-3.011300	3.459500	-10.416000	25.849969	0.000710	20.821518
1507.427988	-3.011100	3.459500	-10.416000	25.806642	0.000711	20.859074
1508.427778	-2.985600	3.459900	-10.329000	25.779662	0.000708	20.840035
1509.425702	-2.995200	3.458400	-10.358000	25.789501	0.000710	20.829530
1510.425293	-2.966700	3.460600	-10.265000	25.807432	0.000708	20.812928
1511.428770	-3.019100	3.456700	-10.435000	25.802963	0.000708	20.833569
1512.426524	-2.987000	3.459800	-10.333000	25.765593	0.000709	20.837282
1513.428812	-2.996800	3.459300	-10.365000	25.759935	0.000706	20.825909
1514.427150	-3.010700	3.456700	-10.407000	25.784002	0.000707	20.848187
1515.427375	-3.015100	3.457200	-10.423000	25.805814	0.000706	20.853501
1516.425951	-3.004000	3.457200	-10.384000	25.823800	0.000704	20.831740
1517.429478	-3.020600	3.455600	-10.436000	25.767450	0.000705	20.848630
1518.428239	-2.983800	3.456600	-10.312000	25.780348	0.000706	20.819862
1519.426892	-2.996300	3.454900	-10.351000	25.810227	0.000703	20.848925
1520.427125	-2.983700	3.455800	-10.310000	25.820562	0.000705	20.840342
1521.426759	-3.008500	3.453500	-10.388000	25.832087	0.000704	20.849073
1522.431046	-3.004200	3.453800	-10.375000	25.841527	0.000703	20.845280
1523.428058	-2.989100	3.454200	-10.324000	25.852408	0.000702	20.854313
1524.431988	-2.991700	3.454300	-10.333000	25.882885	0.000701	20.835144
1525.432585	-2.977000	3.454100	-10.282000	25.912026	0.000700	20.827435
1526.430560	-3.001600	3.453000	-10.363000	25.907024	0.000702	20.850384
1527.432129	-2.993700	3.451700	-10.332000	25.870957	0.000702	20.843075
1528.432749	-2.980700	3.452400	-10.289000	25.838235	0.000701	20.872791
1529.432941	-2.978800	3.451600	-10.280000	25.781770	0.000701	20.853056
1530.430806	-2.994300	3.449500	-10.327000	25.775700	0.000700	20.868296
1531.431056	-3.005500	3.451000	-10.371000	25.779029	0.000700	20.860735
1532.432949	-3.000900	3.449400	-10.350000	25.788991	0.000698	20.867896
1533.434128	-2.989600	3.451400	-10.317000	25.816638	0.000698	20.861529
1534.432359	-3.007800	3.448500	-10.371000	25.825208	0.000699	20.864921
1535.434723	-2.996000	3.450700	-10.337000	25.864937	0.000697	20.865476
1536.434189	-2.993800	3.448600	-10.322000	25.900183	0.000698	20.867692
1537.435996	-3.016800	3.448300	-10.402000	25.895959	0.000696	20.865346
1538.437500	-3.019400	3.448300	-10.411000	25.882523	0.000697	20.850901
1539.435836	-3.040800	3.445500	-10.476000	25.874793	0.000696	20.869213
1540.439213	-3.017200	3.446000	-10.396000	25.837683	0.000695	20.876978
1541.435528	-3.003000	3.446800	-10.350000	25.828543	0.000694	20.860211
1542.436415	-2.999200	3.445600	-10.332000	25.826857	0.000694	20.860415
1543.439396	-2.975100	3.447900	-10.257000	25.818036	0.000694	20.890432
1544.442184	-3.025300	3.445400	-10.422000	25.793687	0.000694	20.863130
1545.438044	-2.999100	3.445400	-10.332000	25.794239	0.000693	20.867477
1546.438893	-2.999800	3.445800	-10.336000	25.816822	0.000693	20.870248
1547.439395	-3.007200	3.444300	-10.356000	25.846829	0.000694	20.865304
1548.438023	-2.993500	3.445000	-10.312000	25.869314	0.000690	20.879355
1549.441948	-2.994200	3.444600	-10.313000	25.844727	0.000689	20.875519
1550.438701	-2.992600	3.444300	-10.306000	25.830769	0.000692	20.869559
1551.443891	-3.006900	3.444700	-10.356000	25.867352	0.000690	20.855101
1552.439632	-2.998200	3.443000	-10.322000	25.870264	0.000688	20.877465
1553.440836	-3.014000	3.442500	-10.375000	25.888997	0.000691	20.860723
1554.444941	-2.990900	3.442300	-10.294000	25.915728	0.000689	20.843482
1555.441006	-2.986800	3.442000	-10.279000	25.920497	0.000688	20.873875
1556.443593	-3.002000	3.443400	-10.336000	25.941460	0.000687	20.853685
1557.444686	-3.016400	3.440400	-10.376000	25.972039	0.000687	20.860224
1558.444120	-2.999700	3.440500	-10.320000	25.958010	0.000688	20.859879
1559.444607	-2.975000	3.441500	-10.238000	25.980240	0.000687	20.864670
1560.446289	-2.997400	3.440600	-10.312000	25.943477	0.000688	20.877046
1561.444728	-3.002700	3.439100	-10.326000	25.935803	0.000690	20.858432
1562.442959	-3.004600	3.438000	-10.329000	25.909599	0.000687	20.864824
1563.444703	-3.008600	3.439300	-10.347000	25.915857	0.000685	20.843137
1564.442454	-3.001200	3.439000	-10.320000	25.950507	0.000683	20.857558
1565.444858	-3.007800	3.437500	-10.338000	25.915563	0.000684	20.855169
1566.444032	-3.004400	3.437700	-10.327000	25.934222	0.000684	20.843094
1567.443905	-2.986500	3.438800	-10.270000	25.914270	0.000684	20.854344
1568.445346	-2.995900	3.438400	-10.299000	25.890027	0.000684	20.861284
1569.443358	-2.994100	3.437200	-10.291000	25.871871	0.000682	20.846364
1570.447400	-2.993300	3.436300	-10.284000	25.901753	0.000683	20.842719
1571.445265	-3.007200	3.434900	-10.328000	25.896586	0.000681	20.850329
1572.448880	-3.027800	3.432700	-10.391000	25.922545	0.000683	20.832312
1573.447497	-3.016300	3.433900	-10.356000	25.906155	0.000682	20.833864
1574.448150	-3.023500	3.433800	-10.382000	25.893484	0.000681	20.849585
1575.447955	-3.001600	3.434400	-10.307000	25.880171	0.000681	20.836210
1576.446178	-3.025200	3.434700	-10.389000	25.875402	0.000682	20.856075
1577.447382	-3.005200	3.434800	-10.320000	25.903623	0.000681	20.848390
1578.446653	-3.025000	3.431700	-10.379000	25.910629	0.000680	20.832670
1579.447259	-3.016300	3.433900	-10.356000	25.950593	0.000679	20.827774
1580.447968	-2.988400	3.433700	-10.260000	25.947517	0.000679	20.837011
1581.450460	-3.001900	3.431300	-10.299000	25.925911	0.000678	20.834745
1582.448385	-2.957800	3.433400	-10.154000	25.909685	0.000677	20.833144
1583.450642	-2.978400	3.432700	-10.223000	25.845127	0.000677	20.830404
1584.449807	-3.008400	3.431000	-10.320000	25.858895	0.000676	20.848976
1585.452642	-2.999600	3.431700	-10.292000	25.897518	0.000676	20.827085
1586.452699	-2.995500	3.430500	-10.275000	25.883561	0.000675	20.836297
1587.449461	-2.993100	3.430000	-10.265000	25.861230	0.000676	20.830934
1588.451122	-2.979900	3.430000	-10.220000	25.831592	0.000675	20.839093
1589.451321	-3.004600	3.430600	-10.306000	25.796141	0.000674	20.831931
1590.451649	-2.987100	3.429300	-10.242000	25.800340	0.000674	20.835675
1591.455969	-2.988600	3.429500	-10.248000	25.803326	0.000673	20.834407
1592.454147	-2.999400	3.428300	-10.282000	25.807396	0.000673	20.829961
1593.452021	-2.997500	3.428300	-10.275000	25.827000	0.000671	20.828791
1594.451366	-3.034900	3.426900	-10.399000	25.854377	0.000673	20.826895
1595.453960	-2.982200	3.426700	-10.218000	25.883046	0.000671	20.834358
1596.454032	-2.972200	3.428300	-10.188000	25.896507	0.000670	20.850725
1597.454189	-3.006300	3.424900	-10.295000	25.886595	0.000671	20.821328
1598.454175	-3.001300	3.426000	-10.281000	25.860667	0.000670	20.820411
1599.456849	-2.981300	3.428000	-10.219000	25.812392	0.000669	20.826445
1600.454052	-3.032400	3.425300	-10.384000	25.808494	0.000670	20.814468
1601.456013	-3.035100	3.423200	-10.388000	25.815972	0.000668	20.815817
1602.457956	-2.997400	3.425300	-10.266000	25.825793	0.000670	20.801501
1603.455400	-2.994600	3.424600	-10.254000	25.891021	0.000669	20.818188
1604.455650	-2.997100	3.423900	-10.261000	25.906002	0.000666	20.823280
1605.456208	-2.991400	3.423900	-10.241000	25.907541	0.000668	20.813920
1606.455743	-3.000000	3.422900	-10.268000	25.937404	0.000668	20.827800
1607.457657	-3.001700	3.423700	-10.276000	25.951214	0.000667	20.812751
1608.462924	-2.989600	3.423600	-10.233000	25.930772	0.000665	20.825405
1609.461485	-3.015400	3.420500	-10.313000	25.915920	0.000665	20.812856
1610.460882	-3.024200	3.420000	-10.341000	25.931600	0.000665	20.806797
1611.459191	-3.003200	3.421700	-10.275000	25.921787	0.000663	20.799783
1612.461277	-2.970800	3.421700	-10.165000	25.914259	0.000663	20.812135
1613.464089	-3.024400	3.419400	-10.339000	25.891562	0.000665	20.820627
1614.460426	-2.979000	3.421800	-10.193000	25.852092	0.000662	20.832185
1615.462328	-3.014600	3.419000	-10.307000	25.823998	0.000662	20.798275
1616.461686	-2.980900	3.419900	-10.193000	25.774214	0.000664	20.808959
1617.461301	-2.996100	3.420400	-10.247000	25.799704	0.000662	20.815123
1618.466355	-3.004500	3.418900	-10.271000	25.816274	0.000661	20.801896
1619.470470	-2.980100	3.418500	-10.186000	25.842137	0.000659	20.817444
1620.462810	-2.991500	3.417400	-10.222000	25.893199	0.000659	20.799039
1621.460752	-2.996800	3.418300	-10.243000	25.911466	0.000661	20.792260
1622.460276	-3.006800	3.416900	-10.272000	25.929751	0.000659	20.779809
1623.461733	-3.015400	3.415300	-10.298000	25.949126	0.000659	20.803541
1624.465189	-3.009100	3.416300	-10.279000	25.979516	0.000660	20.816054
1625.461144	-3.013300	3.415700	-10.292000	25.996782	0.000658	20.794046
1626.461654	-3.027500	3.415600	-10.340000	25.968440	0.000658	20.794496
1627.462614	-2.969300	3.417800	-10.148000	25.924205	0.000657	20.809798
1628.460960	-2.998600	3.415400	-10.240000	25.906748	0.000654	20.787520
1629.464510	-2.995200	3.416500	-10.232000	25.917236	0.000656	20.775771
1630.462304	-3.016700	3.414300	-10.298000	25.930801	0.000655	20.816899
1631.468170	-3.002500	3.414600	-10.252000	25.896279	0.000655	20.790753
1632.464712	-3.006200	3.414600	-10.264000	25.908557	0.000656	20.789338
1633.464670	-3.004100	3.412300	-10.250000	25.910218	0.000655	20.797170
1634.467309	-2.985600	3.413500	-10.190000	25.910525	0.000654	20.795582
1635.468582	-3.002200	3.413700	-10.248000	25.899768	0.000652	20.795680
1636.465821	-2.998500	3.413200	-10.233000	25.941050	0.000655	20.816764
1637.468745	-2.982600	3.413200	-10.180000	25.941602	0.000652	20.790767
1638.468383	-3.004800	3.411900	-10.251000	25.953034	0.000652	20.802251
1639.466207	-2.986000	3.411000	-10.184000	25.953181	0.000652	20.789597
1640.468758	-2.998900	3.410400	-10.225000	25.975142	0.000651	20.776573
1641.467556	-2.986900	3.410600	-10.187000	26.019627	0.000650	20.785231
1642.472118	-2.999000	3.410000	-10.225000	26.042206	0.000651	20.774251
1643.467842	-3.023100	3.409200	-10.304000	26.075915	0.000651	20.769239
1644.469877	-2.994200	3.409900	-10.209000	26.069357	0.000648	20.781616
1645.476405	-3.013400	3.409800	-10.274000	26.064564	0.000649	20.800983
1646.470622	-2.989200	3.409900	-10.191000	26.070332	0.000647	20.778803
1647.470111	-2.985300	3.409300	-10.177000	26.077827	0.000646	20.794868
1648.470838	-3.002200	3.408400	-10.231000	26.027957	0.000646	20.775582
1649.473353	-3.001600	3.407400	-10.226000	26.014939	0.000646	20.803754
1650.472481	-2.998300	3.408500	-10.219000	25.948002	0.000649	20.769695
1651.478758	-3.008200	3.407300	-10.249000	25.945796	0.000648	20.780755
1652.475386	-2.976000	3.406900	-10.138000	25.940549	0.000643	20.784493
1653.476334	-2.984500	3.407600	-10.169000	25.895417	0.000645	20.758592
1654.475548	-2.977500	3.407300	-10.145000	25.898004	0.000645	20.793434
1655.481987	-2.995200	3.406300	-10.201000	25.886149	0.000643	20.772990
1656.478288	-2.986700	3.405100	-10.170000	25.886278	0.000645	20.774068
1657.475550	-3.000500	3.405400	-10.217000	25.909607	0.000645	20.769055
1658.474378	-3.013300	3.403700	-10.256000	25.917153	0.000642	20.787067
1659.476017	-3.009400	3.405100	-10.246000	25.931692	0.000643	20.767534
1660.475911	-2.998100	3.404100	-10.205000	25.938478	0.000643	20.779567
1661.479311	-2.998400	3.404200	-10.206000	25.923092	0.000641	20.747040
1662.477691	-2.990500	3.403200	-10.175000	25.944687	0.000642	20.787702
1663.479609	-2.983200	3.404200	-10.154000	25.978490	0.000641	20.769031
1664.477671	-2.981000	3.403200	-10.143000	25.991607	0.000640	20.785054
1665.478153	-3.001200	3.402300	-10.209000	25.976854	0.000640	20.764542
1666.481286	-2.994200	3.403500	-10.190000	25.969327	0.000640	20.758876
1667.477715	-2.965500	3.402300	-10.089000	25.960832	0.000640	20.778791
1668.478826	-2.980400	3.403000	-10.142000	25.922553	0.000639	20.765939
1669.478426	-2.986800	3.401200	-10.157000	25.923148	0.000637	20.776968
1670.478051	-2.978900	3.401200	-10.131000	25.925410	0.000636	20.771180
1671.479042	-3.001800	3.400300	-10.207000	25.930804	0.000635	20.759055
1672.480339	-2.992300	3.400400	-10.173000	25.925704	0.000636	20.769579
1673.477696	-2.978900	3.402000	-10.133000	25.952637	0.000634	20.779093
1674.478015	-2.990700	3.398400	-10.163000	25.951099	0.000634	20.765693
1675.476948	-2.994300	3.399600	-10.178000	25.955475	0.000633	20.755391
1676.480789	-2.991400	3.398500	-10.165000	25.967397	0.000633	20.755040
1677.481578	-3.006200	3.397800	-10.214000	25.982873	0.000634	20.775805
1678.479740	-2.994400	3.398400	-10.175000	25.957437	0.000637	20.753094
1679.479481	-3.011200	3.396600	-10.227000	25.948917	0.000634	20.780097
1680.479200	-3.007300	3.397400	-10.216000	25.920997	0.000633	20.763428
1681.479478	-3.004500	3.397700	-10.208000	25.929688	0.000632	20.755089
1682.486361	-2.990400	3.397600	-10.160000	25.914690	0.000633	20.758514
1683.484550	-3.024500	3.395600	-10.269000	25.896478	0.000634	20.771039
1684.481703	-3.008200	3.395600	-10.213000	25.895583	0.000630	20.761131
1685.481679	-3.000500	3.396100	-10.189000	25.883557	0.000631	20.769437
1686.481704	-2.992100	3.395400	-10.159000	25.881595	0.000631	20.765570
1687.482623	-3.007500	3.394400	-10.207000	25.866921	0.000628	20.778330
1688.485281	-3.011000	3.393400	-10.217000	25.869771	0.000630	20.761278
1689.484700	-2.977200	3.395900	-10.109000	25.843401	0.000629	20.765608
1690.487895	-3.007600	3.393800	-10.206000	25.833972	0.000627	20.770835
1691.485422	-3.011600	3.394300	-10.221000	25.861698	0.000627	20.754116
1692.483999	-2.991100	3.393600	-10.150000	25.875613	0.000626	20.776156
1693.489812	-2.992000	3.393500	-10.151000	25.877966	0.000627	20.762399
1694.493526	-3.021600	3.390400	-10.243000	25.868404	0.000626	20.749473
1695.485395	-2.997000	3.391300	-10.163000	25.894811	0.000625	20.763674
1696.484143	-2.993900	3.392600	-10.156000	25.915554	0.000625	20.757959
1697.484866	-2.975300	3.391800	-10.091000	25.937118	0.000624	20.773933
1698.484649	-3.007700	3.392100	-10.200000	25.916498	0.000623	20.755588
1699.489549	-3.019900	3.389500	-10.235000	25.896000	0.000624	20.751117
1700.486116	-3.001000	3.390100	-10.173000	25.931245	0.000625	20.740531
1701.488567	-3.028800	3.388700	-10.263000	25.945974	0.000625	20.770502
1702.486593	-3.008000	3.388600	-10.192000	25.920438	0.000624	20.761444
1703.486517	-3.032400	3.388600	-10.272000	25.925826	0.000623	20.766857
1704.492856	-2.989000	3.389000	-10.129000	25.883942	0.000622	20.776463
1705.488231	-2.980300	3.390200	-10.103000	25.836595	0.000622	20.764935
1706.487756	-2.989800	3.389700	-10.132000	25.849364	0.000621	20.745993
1707.487330	-2.988900	3.388800	-10.128000	25.849137	0.000620	20.736282
1708.489405	-3.002500	3.387700	-10.171000	25.869782	0.000620	20.740900
1709.490358	-3.029500	3.387000	-10.259000	25.878946	0.000618	20.747736
1710.487372	-2.999500	3.388200	-10.162000	25.889575	0.000619	20.746559
1711.491550	-2.969800	3.388800	-10.062000	25.874097	0.000619	20.770840
1712.490670	-2.970300	3.387700	-10.061000	25.871394	0.000619	20.728294
1713.489916	-2.974200	3.387300	-10.074000	25.917153	0.000617	20.751979
1714.493968	-2.994500	3.385800	-10.138000	25.921792	0.000617	20.738621
1715.490088	-3.024600	3.384900	-10.237000	25.913671	0.000618	20.740894
1716.496698	-2.991000	3.386500	-10.128000	25.909374	0.000615	20.737999
1717.492682	-2.988300	3.385000	-10.114000	25.921498	0.000615	20.750655
1718.494580	-3.015600	3.384000	-10.203000	25.949271	0.000616	20.749158
1719.493523	-2.997700	3.384000	-10.143000	25.935413	0.000616	20.757047
1720.495011	-2.985000	3.385200	-10.104000	25.938275	0.000616	20.783631
1721.490083	-3.003900	3.382800	-10.161000	25.940702	0.000616	20.755723
1722.493384	-3.024200	3.383000	-10.229000	25.955854	0.000613	20.742495
1723.496390	-2.995900	3.383700	-10.136000	25.972422	0.000615	20.751079
1724.491892	-3.007500	3.382600	-10.172000	26.000101	0.000612	20.749017
1725.500380	-3.002500	3.382200	-10.154000	26.011599	0.000611	20.775743
1726.494542	-3.022800	3.380700	-10.218000	25.954175	0.000613	20.756456
1727.491327	-2.996400	3.382400	-10.134000	25.936314	0.000612	20.720018
1728.492173	-3.007400	3.381700	-10.169000	25.899003	0.000612	20.732322
1729.491925	-3.009000	3.381300	-10.173000	25.897342	0.000610	20.734921
1730.495910	-2.997900	3.382100	-10.138000	25.876323	0.000608	20.738936
1731.491016	-3.022600	3.379600	-10.214000	25.880099	0.000610	20.728504
1732.493904	-2.998200	3.379100	-10.131000	25.855751	0.000609	20.741030
1733.491998	-2.998100	3.380300	-10.133000	25.849297	0.000607	20.735494
1734.494611	-3.001400	3.380600	-10.145000	25.883256	0.000606	20.731676
1735.494750	-3.022200	3.377600	-10.206000	25.919624	0.000607	20.741184
1736.494646	-2.992800	3.379000	-10.111000	25.933587	0.000605	20.733400
1737.500921	-3.003900	3.377200	-10.143000	25.963603	0.000606	20.743168
1738.493757	-3.012700	3.377400	-10.174000	26.000279	0.000607	20.752989
1739.494749	-3.012800	3.377700	-10.176000	26.004680	0.000603	20.751721
1740.495173	-3.011000	3.376000	-10.162000	26.001279	0.000606	20.731707
1741.494709	-3.000300	3.375800	-10.127000	26.034265	0.000605	20.724545
1742.494295	-3.029100	3.375800	-10.223000	26.023564	0.000603	20.715216
1743.496604	-3.009200	3.376700	-10.160000	25.999073	0.000602	20.732810
1744.499168	-3.011400	3.375600	-10.165000	25.985055	0.000603	20.743857
1745.495034	-3.002800	3.376300	-10.137000	26.024190	0.000602	20.720112
1746.499170	-3.002000	3.375600	-10.132000	26.029779	0.000601	20.746118
1747.496923	-3.015600	3.374000	-10.173000	26.070113	0.000603	20.704611
1748.503867	-3.015300	3.374500	-10.175000	26.086066	0.000601	20.718745
1749.498497	-3.014700	3.373200	-10.169000	26.124185	0.000599	20.723856
1750.496428	-3.037800	3.373800	-10.248000	26.122654	0.000601	20.716153
1751.500450	-3.021800	3.372800	-10.191000	26.110140	0.000598	20.710216
1752.501078	-3.009200	3.373400	-10.149000	26.130903	0.000597	20.733926
1753.502621	-2.986600	3.374500	-10.078000	26.114491	0.000599	20.732608
1754.498579	-2.997600	3.372400	-10.108000	26.102970	0.000597	20.723402
1755.503321	-2.999900	3.373400	-10.118000	26.119560	0.000599	20.721579
1756.498316	-3.031600	3.370400	-10.216000	26.114694	0.000597	20.699618
1757.506843	-2.981600	3.371900	-10.053000	26.129948	0.000598	20.714473
1758.499015	-2.991600	3.370700	-10.082000	26.134404	0.000595	20.710415
1759.501809	-3.009800	3.370300	-10.144000	26.128147	0.000597	20.716456
1760.498650	-3.009200	3.371800	-10.145000	26.155834	0.000598	20.712983
1761.501208	-3.007900	3.370400	-10.136000	26.144215	0.000593	20.715533
1762.502488	-3.005900	3.369300	-10.126000	26.141587	0.000595	20.699614
1763.502441	-2.998900	3.369400	-10.104000	26.052300	0.000595	20.712793
1764.499667	-3.015600	3.368500	-10.158000	26.015692	0.000594	20.698296
1765.500584	-3.005600	3.368600	-10.124000	25.981810	0.000594	20.720681
1766.500943	-3.019100	3.367200	-10.165000	25.946885	0.000595	20.733010
1767.499516	-2.983500	3.368300	-10.048000	25.930513	0.000593	20.706603
1768.504731	-3.004200	3.368500	-10.119000	25.918892	0.000593	20.704411
1769.502710	-2.972900	3.369000	-10.015000	25.947413	0.000593	20.706037
1770.509575	-2.982800	3.367900	-10.045000	25.968431	0.000593	20.695384
1771.505786	-3.006200	3.367600	-10.123000	25.971759	0.000591	20.720540
1772.504756	-2.991400	3.366100	-10.069000	25.957747	0.000589	20.715472
1773.506561	-3.018000	3.365600	-10.156000	25.930275	0.000591	20.696406
1774.505112	-2.993800	3.366200	-10.077000	25.912745	0.000589	20.706771
1775.506645	-3.002400	3.365100	-10.103000	25.889507	0.000589	20.699546
1776.506381	-3.007600	3.365400	-10.119000	25.880067	0.000588	20.705711
1777.506470	-2.989700	3.365000	-10.059000	25.863928	0.000588	20.729328
1778.506650	-3.019700	3.364000	-10.157000	25.868959	0.000588	20.726322
1779.504661	-2.980700	3.364700	-10.028000	25.839310	0.000585	20.698907
1780.505725	-3.019800	3.363900	-10.157000	25.852991	0.000586	20.727351
1781.505377	-3.004600	3.364300	-10.108000	25.854383	0.000585	20.704091
1782.504764	-2.987600	3.364600	-10.051000	25.855351	0.000584	20.705539
1783.506344	-3.005700	3.363500	-10.109000	25.876291	0.000585	20.707608
1784.508461	-2.980600	3.363700	-10.025000	25.912413	0.000585	20.696480
1785.506595	-2.984900	3.363200	-10.038000	25.950067	0.000584	20.720084
1786.505620	-2.993000	3.361900	-10.062000	25.960156	0.000583	20.699873
1787.506979	-3.007000	3.363500	-10.113000	25.941529	0.000582	20.703445
1788.508571	-2.999300	3.362100	-10.083000	25.919738	0.000582	20.715219
1789.506721	-3.008100	3.362800	-10.114000	25.914840	0.000580	20.718360
1790.506353	-2.993800	3.361800	-10.064000	25.936257	0.000580	20.710003
1791.506176	-2.998400	3.362200	-10.080000	25.955975	0.000580	20.699466
1792.508568	-3.011700	3.360900	-10.121000	26.000915	0.000579	20.715219
1793.508327	-2.980400	3.361000	-10.016000	26.020387	0.000579	20.697797
1794.513696	-3.008900	3.358800	-10.105000	26.065048	0.000579	20.699048
1795.510434	-2.996600	3.359600	-10.066000	26.072721	0.000578	20.694429
1796.510715	-3.020400	3.358300	-10.142000	26.086927	0.000577	20.703013
1797.511837	-2.998500	3.359000	-10.071000	26.091818	0.000576	20.705082
1798.512122	-3.000800	3.358700	-10.078000	26.100931	0.000577	20.695272
1799.516787	-2.992800	3.359300	-10.052000	26.089011	0.000575	20.719807
1800.515414	-3.016700	3.356700	-10.125000	26.099050	0.000575	20.708082
1801.515103	-2.989900	3.357600	-10.037000	26.104485	0.000574	20.714967
1802.513524	-3.003900	3.356400	-10.080000	26.113476	0.000574	20.696972
1803.513824	-3.024700	3.355900	-10.149000	26.122074	0.000576	20.698974
1804.517152	-2.985700	3.355600	-10.018000	26.141845	0.000574	20.702718
1805.515488	-2.987400	3.357200	-10.027000	26.176347	0.000575	20.696609
1806.513909	-3.009300	3.355500	-10.097000	26.145368	0.000574	20.720010
1807.514257	-2.967100	3.356600	-9.958200	26.128209	0.000573	20.698974
1808.513990	-2.972700	3.355500	-9.974900	26.138216	0.000571	20.700495
1809.514044	-2.992900	3.355000	-10.041000	26.147661	0.000571	20.718995
1810.516334	-3.016300	3.353900	-10.115000	26.174655	0.000569	20.716722
1811.515165	-2.993300	3.353500	-10.037000	26.141103	0.000570	20.709086
1812.514547	-2.994900	3.353300	-10.042000	26.101416	0.000570	20.725159
1813.516314	-2.983700	3.353800	-10.006000	26.065624	0.000570	20.693937
1814.516414	-3.018200	3.352900	-10.119000	26.062125	0.000568	20.696585
1815.518648	-3.000700	3.352200	-10.058000	26.050677	0.000568	20.713058
1816.515674	-3.010900	3.352300	-10.092000	26.042654	0.000570	20.704523
1817.518559	-3.019400	3.351600	-10.119000	26.020676	0.000568	20.698562
1818.516649	-2.973300	3.351600	-9.963800	26.004078	0.000568	20.691843
1819.518007	-3.013100	3.350700	-10.095000	26.032572	0.000565	20.726163
1820.518569	-2.992600	3.352600	-10.032000	26.060471	0.000569	20.704407
1821.518526	-3.010000	3.351500	-10.087000	26.073378	0.000567	20.725911
1822.516446	-3.007300	3.350000	-10.073000	26.070050	0.000564	20.729680
1823.515500	-2.986500	3.351300	-10.008000	26.050781	0.000566	20.716009
1824.516989	-2.985100	3.351200	-10.002000	26.000861	0.000566	20.743142
1825.520125	-3.016000	3.349600	-10.101000	25.990797	0.000565	20.726391
1826.524652	-3.010700	3.349400	-10.083000	25.987224	0.000564	20.728966
1827.518488	-3.040200	3.346900	-10.174000	26.021308	0.000561	20.721010
1828.524438	-3.003700	3.348900	-10.058000	26.069224	0.000563	20.702295
1829.518309	-2.995300	3.348600	-10.028000	26.108440	0.000564	20.713251
1830.517161	-2.985600	3.348700	-9.996400	26.116445	0.000561	20.712758
1831.518841	-3.019600	3.346200	-10.103000	26.087879	0.000560	20.735267
1832.519290	-2.997600	3.347600	-10.034000	26.072908	0.000562	20.702203
1833.520333	-2.978900	3.348000	-9.972100	26.042680	0.000561	20.695066
1834.520444	-2.992200	3.347400	-10.015000	26.024723	0.000560	20.716380
1835.520756	-3.013000	3.346500	-10.082000	26.016130	0.000559	20.728136
1836.520693	-3.014900	3.346400	-10.088000	26.083020	0.000560	20.727064
1837.525115	-2.991900	3.345600	-10.009000	26.094450	0.000560	20.711047
1838.522125	-2.990100	3.346500	-10.006000	26.138214	0.000556	20.698121
1839.522683	-2.992700	3.346100	-10.012000	26.170357	0.000559	20.721886
1840.522288	-2.983600	3.345900	-9.981800	26.196952	0.000557	20.728223
1841.523771	-3.012900	3.344200	-10.075000	26.211279	0.000557	20.734560
1842.530482	-3.000500	3.343100	-10.030000	26.233983	0.000553	20.695258
1843.523426	-2.996300	3.343900	-10.018000	26.259511	0.000556	20.722810
1844.524913	-2.992600	3.343300	-10.004000	26.246551	0.000555	20.708363
1845.523011	-2.998300	3.344600	-10.027000	26.244573	0.000555	20.724394
1846.523252	-3.000100	3.342500	-10.027000	26.255449	0.000553	20.731057
1847.525998	-2.972600	3.342700	-9.935400	26.262827	0.000554	20.718082
1848.523818	-2.992500	3.342800	-10.002000	26.204025	0.000553	20.724899
1849.523356	-2.988500	3.343000	-9.988800	26.189164	0.000553	20.748373
1850.523471	-3.006600	3.340800	-10.044000	26.168311	0.000551	20.710821
1851.524745	-2.980300	3.341100	-9.956200	26.190538	0.000552	20.721302
1852.523354	-2.995800	3.340800	-10.006000	26.201635	0.000551	20.716807
1853.524888	-2.994600	3.342700	-10.009000	26.200649	0.000549	20.731464
1854.523407	-2.995200	3.341400	-10.006000	26.234377	0.000550	20.716518
1855.524637	-2.998200	3.339400	-10.011000	26.242594	0.000549	20.727147
1856.524774	-3.014900	3.339100	-10.066000	26.208328	0.000550	20.723532
1857.530788	-3.007600	3.338800	-10.040000	26.181187	0.000550	20.735141
1858.529050	-3.022400	3.338800	-10.090000	26.152250	0.000548	20.720761
1859.525343	-3.019500	3.339000	-10.080000	26.127069	0.000548	20.725331
1860.525355	-3.000200	3.338700	-10.015000	26.130249	0.000547	20.745597
1861.525346	-3.024600	3.337100	-10.092000	26.138970	0.000548	20.729229
1862.527153	-3.004100	3.336300	-10.022000	26.187076	0.000546	20.729679
1863.530325	-3.010800	3.337700	-10.048000	26.199449	0.000544	20.734526
1864.525597	-3.029000	3.336700	-10.106000	26.211822	0.000547	20.721828
1865.529464	-3.002400	3.337700	-10.020000	26.241443	0.000545	20.727887
1866.529438	-3.022700	3.336100	-10.083000	26.221105	0.000545	20.723570
1867.525363	-2.989400	3.336400	-9.972600	26.227466	0.000547	20.743714
1868.531117	-2.995500	3.336500	-9.993500	26.209260	0.000544	20.743437
1869.538140	-2.994100	3.334900	-9.984600	26.199131	0.000542	20.719980
1870.530823	-3.008100	3.333000	-10.024000	26.203622	0.000544	20.750574
1871.529872	-3.013000	3.334000	-10.045000	26.209659	0.000540	20.728189
1872.530361	-2.992900	3.334400	-9.978000	26.202238	0.000540	20.744441
1873.529662	-2.995100	3.335000	-9.986900	26.242247	0.000539	20.728695
1874.532201	-2.992600	3.333700	-9.974500	26.233226	0.000539	20.720578
1875.530107	-2.988500	3.333700	-9.961700	26.209113	0.000541	20.724322
1876.534937	-2.987900	3.333300	-9.958100	26.225855	0.000538	20.730240
1877.532525	-3.019200	3.331700	-10.058000	26.238098	0.000538	20.752028
1878.532713	-2.993900	3.332700	-9.975300	26.267107	0.000537	20.720012
1879.537690	-3.012500	3.332500	-10.038000	26.289184	0.000536	20.750735
1880.531394	-2.986900	3.332500	-9.953000	26.313026	0.000536	20.731546
1881.532003	-3.000400	3.331000	-9.993500	26.268375	0.000535	20.745470
1882.532813	-2.995700	3.330100	-9.974900	26.206320	0.000536	20.736688
1883.533148	-2.997300	3.329700	-9.978900	26.148232	0.000536	20.757503
1884.532493	-3.008600	3.329600	-10.016000	26.118968	0.000536	20.749910
1885.536029	-2.977800	3.329900	-9.914400	26.110726	0.000535	20.759646
1886.536697	-3.008300	3.329000	-10.013000	26.134351	0.000535	20.746874
1887.534077	-3.012700	3.328500	-10.027000	26.195547	0.000534	20.759529
1888.533728	-2.997000	3.328800	-9.975300	26.253210	0.000534	20.758205
1889.534406	-3.024900	3.328300	-10.067000	26.253235	0.000533	20.759178
1890.537416	-3.025500	3.327400	-10.066000	26.268511	0.000531	20.747029
1891.533809	-2.987200	3.328600	-9.939900	26.230618	0.000531	20.747829
1892.535892	-3.003100	3.328200	-9.994100	26.191178	0.000529	20.763674
1893.537427	-3.004000	3.327000	-9.993500	26.180350	0.000530	20.736671
1894.535630	-2.994200	3.326400	-9.958700	26.175907	0.000529	20.742638
1895.541619	-2.996300	3.327900	-9.969700	26.184003	0.000529	20.733702
1896.536435	-3.005500	3.326900	-9.996200	26.227094	0.000528	20.751875
1897.537049	-2.990400	3.325300	-9.943000	26.253517	0.000529	20.753772
1898.538591	-2.994100	3.326800	-9.959200	26.279468	0.000527	20.762307
1899.538652	-2.989200	3.325100	-9.938100	26.287911	0.000528	20.770793
1900.539042	-3.007700	3.323100	-9.992900	26.268273	0.000527	20.739202
1901.536893	-2.995000	3.325600	-9.958800	26.238817	0.000527	20.750379
1902.541197	-2.973200	3.323900	-9.880000	26.221862	0.000525	20.749462
1903.537317	-3.007200	3.323000	-9.991100	26.219184	0.000524	20.741081
1904.539046	-3.003400	3.322400	-9.976500	26.208681	0.000524	20.745700
1905.542657	-3.007800	3.323200	-9.994400	26.197933	0.000525	20.742486
1906.543953	-3.003000	3.321800	-9.974400	26.193344	0.000524	20.758263
1907.543758	-2.996300	3.322700	-9.955100	26.170824	0.000523	20.763609
1908.542895	-2.991300	3.321400	-9.933300	26.151379	0.000522	20.765407
1909.543498	-3.010300	3.321300	-9.996900	26.109504	0.000524	20.756521
1910.546152	-3.014300	3.321000	-10.009000	26.098252	0.000521	20.774139
1911.548429	-3.001100	3.320500	-9.964200	26.061566	0.000520	20.767624
1912.545443	-3.006900	3.320200	-9.982100	26.025241	0.000520	20.748196
1913.550845	-3.001200	3.321100	-9.966700	26.062400	0.000520	20.765143
1914.546082	-2.996200	3.318800	-9.942100	26.089691	0.000520	20.756528
1915.547156	-3.003500	3.321200	-9.973700	26.150921	0.000520	20.749773
1916.551942	-3.001200	3.320600	-9.964500	26.198174	0.000518	20.775445
1917.549492	-3.011800	3.319400	-9.997000	26.236204	0.000520	20.763875
1918.549598	-3.015300	3.317300	-10.001000	26.272584	0.000516	20.759657
1919.553358	-3.003800	3.317200	-9.963900	26.275422	0.000517	20.762509
1920.549594	-3.002200	3.317500	-9.959200	26.260641	0.000518	20.764251
1921.553617	-3.008600	3.316700	-9.977600	26.285802	0.000517	20.745913
1922.556506	-3.014600	3.315700	-9.994500	26.279937	0.000516	20.776530
1923.549558	-2.975600	3.317000	-9.868400	26.316218	0.000515	20.767946
1924.550653	-3.002100	3.316900	-9.956100	26.332780	0.000516	20.769892
1925.553131	-3.030800	3.315300	-10.047000	26.371221	0.000515	20.778655
1926.550230	-3.003100	3.316200	-9.957300	26.396477	0.000513	20.764208
1927.554669	-2.984100	3.316000	-9.894400	26.403651	0.000512	20.767152
1928.556623	-3.006200	3.314300	-9.962400	26.417737	0.000512	20.777990
1929.569102	-3.017100	3.314100	-9.997900	26.427711	0.000512	20.787541
1930.552037	-3.015500	3.312700	-9.987800	26.418098	0.000510	20.794474
1931.554377	-3.018700	3.313300	-10.001000	26.450924	0.000512	20.771518
1932.555597	-2.996300	3.314000	-9.929000	26.450177	0.000512	20.784043
1933.552400	-2.993300	3.313300	-9.915700	26.477936	0.000510	20.773063
1934.554992	-2.989200	3.313300	-9.903000	26.486720	0.000512	20.777626
1935.552866	-2.989400	3.314600	-9.906900	26.526652	0.000509	20.777935
1936.551189	-3.004000	3.312900	-9.951000	26.505897	0.000509	20.777460
1937.557148	-2.989000	3.313700	-9.903300	26.540601	0.000509	20.802387
1938.555495	-2.992900	3.313200	-9.915300	26.541121	0.000508	20.771142
1939.554698	-3.004900	3.312700	-9.953100	26.513762	0.000508	20.785841
1940.557683	-2.998900	3.311900	-9.931400	26.525126	0.000506	20.778297
1941.555390	-2.991700	3.312400	-9.909000	26.529010	0.000507	20.783624
1942.558682	-3.001700	3.311000	-9.937200	26.549165	0.000506	20.755993
1943.557937	-3.003300	3.309100	-9.936000	26.553134	0.000506	20.777053
1944.556762	-3.006100	3.309700	-9.948300	26.555493	0.000506	20.787011
1945.553825	-2.982500	3.310400	-9.872100	26.581736	0.000504	20.804856
1946.556313	-2.986200	3.310000	-9.882900	26.594765	0.000504	20.790453
1947.558021	-2.980200	3.309800	-9.863000	26.627439	0.000503	20.779203
1948.556573	-3.014800	3.308600	-9.973700	26.648689	0.000503	20.771641
1949.560120	-3.015400	3.307200	-9.971500	26.655893	0.000502	20.795004
1950.561305	-3.013500	3.307400	-9.965900	26.586680	0.000501	20.791334
1951.558238	-3.028200	3.305700	-10.009000	26.563242	0.000502	20.783895
1952.558009	-3.009300	3.306300	-9.948700	26.567341	0.000501	20.797498
1953.558888	-2.994600	3.306400	-9.900600	26.576303	0.000501	20.783273
1954.559612	-2.985000	3.306400	-9.868800	26.554507	0.000500	20.803564
1955.560187	-2.997500	3.305600	-9.907900	26.514468	0.000499	20.805516
1956.560108	-3.008800	3.306800	-9.947500	26.502594	0.000497	20.800220
1957.559738	-3.010900	3.305700	-9.951700	26.502350	0.000498	20.789542
1958.559564	-3.006200	3.304900	-9.934200	26.512360	0.000499	20.803872
1959.563222	-2.988600	3.304400	-9.874600	26.533011	0.000496	20.789542
1960.561329	-3.012100	3.304900	-9.953900	26.541030	0.000497	20.799500
1961.561105	-3.022700	3.304600	-9.987900	26.537214	0.000495	20.788552
1962.563598	-3.009500	3.303800	-9.941800	26.536816	0.000496	20.795264
1963.561489	-3.025400	3.302600	-9.990900	26.525722	0.000495	20.791699
1964.561021	-3.003400	3.303100	-9.919100	26.564653	0.000495	20.815185
1965.562242	-3.039900	3.300200	-10.031000	26.581407	0.000493	20.822543
1966.560960	-3.014200	3.302700	-9.954200	26.591686	0.000492	20.800160
1967.560808	-3.000800	3.301800	-9.907100	26.571900	0.000492	20.804452
1968.564394	-3.009300	3.300300	-9.930000	26.569038	0.000492	20.810110
1969.563188	-2.988400	3.300900	-9.863600	26.589278	0.000492	20.802481
1970.563210	-2.975600	3.302300	-9.826100	26.584929	0.000493	20.786255
1971.563285	-3.000800	3.300100	-9.902300	26.618602	0.000491	20.820579
1972.562855	-2.997300	3.300900	-9.893300	26.596207	0.000488	20.813239
1973.567594	-3.013800	3.300200	-9.944800	26.612268	0.000490	20.809470
1974.563717	-2.984500	3.300000	-9.848100	26.586106	0.000488	20.813990
1975.567505	-3.006000	3.300200	-9.919000	26.578890	0.000488	20.812901
1976.569223	-3.015600	3.299100	-9.947300	26.582884	0.000488	20.809804
1977.565022	-3.009600	3.298400	-9.926400	26.560519	0.000487	20.801072
1978.567789	-2.984900	3.299300	-9.847400	26.520896	0.000486	20.812926
1979.565021	-2.993500	3.298600	-9.873200	26.531916	0.000487	20.817840
1980.563228	-2.980000	3.298500	-9.829200	26.592772	0.000484	20.823536
1981.568614	-2.998700	3.297800	-9.887500	26.591779	0.000486	20.798831
1982.565869	-2.996200	3.297300	-9.878300	26.590291	0.000484	20.819146
1983.568532	-3.007600	3.296800	-9.913700	26.595106	0.000484	20.812606
1984.570978	-2.987300	3.296400	-9.846300	26.568202	0.000484	20.826813
1985.566957	-2.998300	3.297800	-9.886800	26.581402	0.000481	20.817797
1986.565406	-2.994600	3.297100	-9.872600	26.599033	0.000483	20.812760
1987.565922	-2.982400	3.295500	-9.827100	26.606873	0.000481	20.841504
1988.572475	-3.017400	3.294900	-9.940900	26.577133	0.000480	20.828678
1989.568394	-3.005200	3.294600	-9.898900	26.524138	0.000480	20.825667
1990.567742	-2.998200	3.294400	-9.876200	26.508442	0.000481	20.830279
1991.570989	-2.986600	3.293400	-9.835300	26.461999	0.000481	20.810625
1992.569680	-2.996200	3.294500	-9.869300	26.425392	0.000478	20.822668
1993.570347	-2.977500	3.292500	-9.802700	26.398876	0.000479	20.832527
1994.574707	-2.986900	3.292400	-9.833300	26.366495	0.000480	20.813259
1995.571461	-3.023700	3.290700	-9.948400	26.380403	0.000477	20.813487
1996.572838	-3.017200	3.292500	-9.933500	26.396891	0.000475	20.840015
1997.578189	-2.964200	3.292800	-9.759000	26.390611	0.000478	20.815686
1998.577336	-3.017700	3.291800	-9.932700	26.389992	0.000476	20.817435
1999.572493	-3.024700	3.290700	-9.951800	26.405763	0.000473	20.820483
2000.578261	-2.992200	3.291100	-9.846600	26.460008	0.000476	20.832804
2001.576501	-2.991400	3.290300	-9.841800	26.475809	0.000472	20.835884
2002.573676	-2.986200	3.290200	-9.823900	26.508278	0.000472	20.826795
2003.575454	-2.979000	3.290800	-9.802200	26.545647	0.000472	20.835909
2004.575314	-2.991900	3.290000	-9.842200	26.559798	0.000474	20.827848
2005.574973	-2.977800	3.288500	-9.791400	26.552967	0.000471	20.837103
2006.572958	-2.988200	3.289200	-9.827700	26.553439	0.000471	20.858439
2007.576070	-3.022700	3.288600	-9.939400	26.585993	0.000469	20.822885
2008.575979	-3.025100	3.288400	-9.946700	26.574899	0.000469	20.845872
2009.575610	-2.970800	3.290000	-9.771700	26.569061	0.000468	20.830047
2010.580230	-2.987000	3.288100	-9.819800	26.570060	0.000468	20.839111
2011.576159	-3.008900	3.285500	-9.884800	26.604321	0.000469	20.832301
2012.575526	-2.993200	3.286900	-9.837000	26.621644	0.000467	20.833594
2013.575760	-3.000600	3.286600	-9.860800	26.658758	0.000468	20.847670
2014.578126	-3.015100	3.285100	-9.904200	26.697164	0.000465	20.844081
2015.578390	-3.008900	3.284500	-9.881300	26.712152	0.000464	20.850613
2016.579468	-3.004800	3.284900	-9.869600	26.718737	0.000464	20.835423
2017.577975	-3.001000	3.285400	-9.858200	26.745521	0.000464	20.835799
2018.580187	-2.993900	3.285000	-9.833200	26.744382	0.000462	20.827068
2019.578342	-3.007000	3.286100	-9.879400	26.722932	0.000464	20.846279
2020.581116	-2.994500	3.283600	-9.831900	26.700619	0.000461	20.844235
2021.582594	-3.004300	3.283200	-9.862900	26.712165	0.000461	20.849205
2022.579738	-3.012600	3.281800	-9.885100	26.750569	0.000461	20.827124
2023.582590	-2.989800	3.283500	-9.815700	26.772091	0.000460	20.841176
2024.584278	-2.997400	3.282500	-9.838100	26.788052	0.000462	20.863860
2025.579916	-2.980000	3.283300	-9.783500	26.800834	0.000459	20.860116
2026.582751	-2.990200	3.283200	-9.816400	26.785670	0.000459	20.857672
2027.581453	-3.000100	3.281600	-9.844400	26.774627	0.000460	20.874544
2028.579725	-2.976700	3.281800	-9.767400	26.718370	0.000458	20.838373
2029.579732	-2.987200	3.281100	-9.800400	26.663666	0.000458	20.847389
2030.584111	-3.011100	3.280800	-9.877900	26.620022	0.000461	20.858989
2031.581955	-3.003600	3.280400	-9.852100	26.601002	0.000456	20.856464
2032.581220	-3.009300	3.280300	-9.870400	26.603483	0.000458	20.846630
2033.580937	-3.009400	3.279300	-9.867300	26.622717	0.000459	20.884929
2034.582878	-3.010400	3.278100	-9.866600	26.660173	0.000457	20.845300
2035.581505	-2.988000	3.278800	-9.796300	26.672014	0.000458	20.860995
2036.584276	-2.998000	3.278100	-9.827200	26.718073	0.000456	20.875532
2037.585948	-2.998300	3.279000	-9.830900	26.769871	0.000457	20.859805
2038.583287	-2.998600	3.277500	-9.827500	26.759740	0.000456	20.858629
2039.582519	-3.004700	3.276500	-9.844100	26.737739	0.000454	20.860691
2040.587438	-2.989400	3.277200	-9.796100	26.728251	0.000452	20.854471
2041.584566	-3.014400	3.275800	-9.873600	26.735196	0.000453	20.860505
2042.586607	-3.021400	3.277000	-9.899000	26.717097	0.000453	20.866490
2043.588714	-3.025600	3.274800	-9.907300	26.722302	0.000452	20.834741
2044.583751	-2.994800	3.276800	-9.812100	26.749178	0.000449	20.851329
2045.584116	-3.008400	3.275400	-9.852500	26.754781	0.000449	20.864074
2046.582722	-3.018200	3.275600	-9.885300	26.784130	0.000447	20.846167
2047.583030	-2.978400	3.276100	-9.756300	26.826279	0.000448	20.860096
2048.584528	-3.017300	3.274000	-9.877900	26.856471	0.000445	20.838771
2049.584374	-2.991300	3.275000	-9.795700	26.834925	0.000445	20.845556
2050.586154	-3.011000	3.272600	-9.852300	26.840724	0.000446	20.855180
2051.584107	-2.992000	3.273800	-9.794100	26.833846	0.000447	20.849687
2052.585189	-2.986200	3.274000	-9.775800	26.822602	0.000446	20.834589
2053.584970	-2.976300	3.273700	-9.741900	26.823447	0.000444	20.865309
2054.585063	-3.002500	3.272400	-9.824200	26.761068	0.000444	20.850007
2055.584387	-2.995300	3.271500	-9.798200	26.745523	0.000442	20.849077
2056.584982	-2.998000	3.272400	-9.809900	26.728912	0.000442	20.847075
2057.587023	-2.995200	3.271200	-9.797200	26.775479	0.000440	20.858805
2058.582980	-3.030400	3.269700	-9.906800	26.744028	0.000440	20.828134
2059.584108	-3.019100	3.268400	-9.866900	26.699566	0.000439	20.840332
2060.588686	-3.011500	3.269600	-9.845500	26.726921	0.000440	20.852659
2061.587855	-2.995000	3.270100	-9.792600	26.741014	0.000438	20.830793
2062.587448	-2.998300	3.269600	-9.802200	26.766407	0.000437	20.849685
2063.584194	-2.996600	3.269800	-9.797000	26.739054	0.000439	20.841151
2064.588858	-2.994800	3.267300	-9.784200	26.688062	0.000436	20.835405
2065.588779	-3.017700	3.267100	-9.858800	26.673613	0.000436	20.831310
2066.586364	-2.991900	3.266900	-9.773200	26.640824	0.000436	20.824426
2067.586424	-3.005400	3.265900	-9.813200	26.655170	0.000434	20.834106
2068.587544	-2.991600	3.267000	-9.772300	26.698481	0.000432	20.830706
2069.588497	-2.998300	3.265600	-9.790600	26.727777	0.000435	20.820331
2070.586036	-2.995100	3.267100	-9.784300	26.692423	0.000432	20.831728
2071.586895	-3.036900	3.264700	-9.912900	26.713126	0.000433	20.851119
2072.589676	-3.013700	3.265200	-9.839100	26.713157	0.000431	20.827443
2073.587602	-3.027600	3.263700	-9.879900	26.732836	0.000431	20.842012
2074.587293	-2.994400	3.264700	-9.774600	26.749936	0.000431	20.817954
2075.592834	-2.996600	3.265100	-9.783100	26.766589	0.000429	20.832325
2076.590906	-2.987400	3.264100	-9.750300	26.802951	0.000428	20.822418
2077.589705	-2.980300	3.264000	-9.726300	26.853312	0.000427	20.851716
2078.593377	-2.996100	3.263400	-9.775500	26.882744	0.000428	20.806395
2079.588861	-3.008300	3.263100	-9.815300	26.870980	0.000427	20.826808
2080.590411	-2.999000	3.262800	-9.784400	26.843269	0.000424	20.820282
2081.594486	-3.001700	3.262500	-9.791400	26.845872	0.000426	20.832855
2082.592681	-3.000900	3.262500	-9.788900	26.865604	0.000423	20.807652
2083.591078	-2.994700	3.263200	-9.771200	26.853919	0.000425	20.812499
2084.592721	-3.006100	3.261400	-9.803400	26.834750	0.000424	20.789431
2085.592835	-2.988200	3.260400	-9.741600	26.835277	0.000421	20.797547
2086.594324	-2.996000	3.260500	-9.767900	26.844334	0.000421	20.819456
2087.594208	-2.987500	3.259500	-9.735800	26.869977	0.000420	20.804937
2088.595674	-3.011400	3.258600	-9.812500	26.855774	0.000421	20.810097
2089.595401	-3.001600	3.258700	-9.780300	26.835730	0.000420	20.804642
2090.593915	-2.998000	3.258100	-9.766500	26.837788	0.000420	20.809081
2091.596879	-3.000200	3.258700	-9.776100	26.888961	0.000418	20.803637
2092.597040	-3.019700	3.258100	-9.837300	26.911920	0.000417	20.801593
2093.595933	-3.021000	3.257300	-9.839800	26.921124	0.000418	20.819857
2094.597744	-3.007900	3.256300	-9.794200	26.894400	0.000416	20.800571
2095.598055	-3.003000	3.256200	-9.777700	26.913010	0.000417	20.830190
2096.598641	-2.962900	3.257200	-9.649400	26.920481	0.000416	20.818262
2097.601154	-3.013000	3.256200	-9.809500	26.916629	0.000413	20.821975
2098.598993	-2.996100	3.256200	-9.755300	26.869107	0.000412	20.823976
2099.598802	-3.028200	3.253200	-9.849600	26.859627	0.000415	20.796901
2100.599978	-3.018500	3.253900	-9.820700	26.845547	0.000410	20.823046
2101.596776	-2.994500	3.254700	-9.745200	26.812990	0.000410	20.798847
2102.597344	-2.995300	3.254400	-9.746500	26.810485	0.000410	20.777362
2103.602885	-2.990400	3.254700	-9.731000	26.871311	0.000407	20.811494
2104.600828	-3.000400	3.253600	-9.761100	26.905850	0.000410	20.796438
2105.603193	-3.003900	3.253900	-9.773000	26.925833	0.000409	20.802781
2106.602477	-2.973800	3.253100	-9.672400	26.980921	0.000409	20.792743
2107.600498	-2.994800	3.252200	-9.737300	26.995440	0.000406	20.809240
2108.601609	-2.993300	3.251800	-9.732500	27.023436	0.000410	20.794246
2109.603092	-2.997000	3.252100	-9.745500	26.970321	0.000407	20.799153
2110.601754	-2.988000	3.251900	-9.715800	26.948980	0.000408	20.804246
2111.603004	-3.013300	3.249800	-9.791700	26.963077	0.000406	20.805145
2112.602921	-3.008000	3.250500	-9.776100	26.988563	0.000405	20.802799
2113.603889	-3.005700	3.250700	-9.769800	27.010209	0.000405	20.807972
2114.606358	-3.013600	3.248600	-9.789200	27.044897	0.000404	20.790699
2115.603877	-3.009200	3.249000	-9.775400	27.068440	0.000403	20.800625
2116.609106	-2.982400	3.249900	-9.691900	27.061050	0.000404	20.800305
2117.608508	-2.993200	3.249500	-9.724700	27.024973	0.000403	20.791524
2118.605508	-3.002400	3.247700	-9.748700	26.980076	0.000401	20.799006
2119.608088	-2.983900	3.248900	-9.694000	26.995471	0.000402	20.781296
2120.606145	-3.016300	3.247800	-9.795300	26.985863	0.000400	20.805773
2121.604918	-3.011100	3.247100	-9.775900	26.964075	0.000398	20.786709
2122.605760	-2.986100	3.247600	-9.696900	26.947995	0.000398	20.799462
2123.607757	-2.996500	3.245900	-9.724600	26.928662	0.000398	20.787608
2124.604964	-2.998500	3.247300	-9.735800	26.946556	0.000394	20.769091
2125.605315	-2.993600	3.245500	-9.714600	26.976188	0.000396	20.782768
2126.607326	-2.984600	3.245200	-9.684300	26.987982	0.000394	20.793206
2127.607786	-2.995500	3.243800	-9.715400	26.990811	0.000395	20.800792
2128.605873	-2.978300	3.243800	-9.659800	27.026467	0.000395	20.777380
2129.608363	-2.983400	3.244000	-9.676700	27.041708	0.000394	20.790811
2130.607321	-2.986800	3.244500	-9.689000	27.030833	0.000393	20.786038
2131.607688	-3.001900	3.242100	-9.730700	26.990738	0.000390	20.778433
2132.606132	-2.994600	3.242400	-9.708200	26.958210	0.000391	20.777018
2133.606934	-2.956500	3.242900	-9.587100	26.927984	0.000391	20.786926
2134.607263	-2.975700	3.242700	-9.648600	26.919116	0.000390	20.785595
2135.605393	-3.011100	3.242100	-9.760400	26.947917	0.000390	20.795590
2136.607982	-3.000100	3.240600	-9.721600	26.955950	0.000390	20.779961
2137.608521	-2.996500	3.240200	-9.708600	26.936251	0.000387	20.767738
2138.606492	-2.983800	3.239300	-9.664700	26.939380	0.000387	20.791274
2139.608883	-2.978300	3.239900	-9.648300	26.968566	0.000386	20.770361
2140.608734	-2.998400	3.239200	-9.711500	26.997775	0.000386	20.788355
2141.607895	-2.974800	3.238900	-9.633100	26.996465	0.000386	20.789408
2142.615959	-2.980000	3.239000	-9.650600	27.008350	0.000385	20.763428
2143.613482	-3.014300	3.237400	-9.758000	26.952418	0.000382	20.797746
2144.611720	-3.009500	3.238600	-9.745400	26.932835	0.000382	20.777579
2145.611435	-2.993500	3.236200	-9.687100	26.898964	0.000383	20.764383
2146.608518	-2.998800	3.236200	-9.704800	26.915394	0.000383	20.792759
2147.611658	-3.001800	3.237700	-9.718400	26.968977	0.000381	20.755128
2148.608329	-3.022400	3.235100	-9.775700	27.024303	0.000380	20.780893
2149.615447	-2.994300	3.236300	-9.689700	27.051269	0.000379	20.789046
2150.614127	-3.005900	3.236400	-9.727200	27.055763	0.000380	20.760849
2151.609924	-3.021400	3.233500	-9.767800	27.041528	0.000378	20.774982
2152.611084	-3.002500	3.233800	-9.707900	27.042544	0.000377	20.754667
2153.609544	-3.003900	3.235700	-9.718900	26.997214	0.000377	20.782575
2154.609222	-2.985200	3.232800	-9.649400	27.008977	0.000375	20.783973
2155.611129	-3.013300	3.232700	-9.740100	27.042900	0.000377	20.749335
2156.612606	-3.029500	3.232100	-9.789200	27.061643	0.000375	20.748744
2157.610940	-2.989800	3.232800	-9.664600	27.058067	0.000373	20.771227
2158.609842	-2.999000	3.232700	-9.694000	27.072941	0.000373	20.762477
2159.613269	-3.005000	3.231200	-9.707700	27.075427	0.000374	20.782522
2160.611433	-3.005800	3.230500	-9.709300	27.094610	0.000372	20.747286
2161.609676	-3.003700	3.229600	-9.699200	27.116028	0.000370	20.753179
2162.611305	-3.015100	3.230000	-9.737200	27.118857	0.000370	20.763137
2163.614567	-3.015800	3.229000	-9.736700	27.089714	0.000369	20.765121
2164.610631	-3.020300	3.228400	-9.750000	27.066109	0.000368	20.755606
2165.614203	-2.994300	3.229600	-9.669400	27.039119	0.000369	20.773982
2166.612769	-3.012800	3.229100	-9.727600	27.020218	0.000368	20.769198
2167.613667	-2.995000	3.228100	-9.667800	26.955646	0.000370	20.759266
2168.614421	-3.010400	3.227500	-9.714500	26.916589	0.000368	20.734215
2169.620142	-2.994500	3.228100	-9.665700	26.872717	0.000367	20.769286
2170.615837	-3.003800	3.225300	-9.687400	26.852961	0.000366	20.763171
2171.614309	-2.997700	3.225500	-9.668300	26.841105	0.000366	20.764052
2172.616319	-3.002200	3.226400	-9.684500	26.852796	0.000366	20.767273
2173.616682	-3.008700	3.225900	-9.704700	26.847658	0.000364	20.734130
2174.614666	-2.995200	3.224200	-9.656300	26.890552	0.000363	20.753079
2175.615088	-2.988800	3.224900	-9.637500	26.923486	0.000364	20.741151
2176.616851	-3.001600	3.224300	-9.677200	26.899518	0.000361	20.753560
2177.616706	-3.004300	3.222400	-9.680200	26.914111	0.000362	20.745949
2178.616122	-2.977000	3.224000	-9.596500	26.948736	0.000359	20.751368
2179.617861	-3.019500	3.221500	-9.726000	26.954265	0.000359	20.755032
2180.614734	-3.020800	3.220400	-9.726500	26.996561	0.000360	20.765797
2181.614738	-2.995800	3.222200	-9.651600	27.015298	0.000360	20.763777
2182.618240	-3.004000	3.221800	-9.677700	27.032977	0.000357	20.762115
2183.614168	-3.014200	3.219700	-9.703000	27.010859	0.000358	20.745088
2184.616629	-3.015000	3.219100	-9.704300	27.064290	0.000357	20.742871
2185.619808	-3.022000	3.221000	-9.733000	27.085562	0.000355	20.720641
2186.617348	-3.002600	3.219700	-9.666700	27.088415	0.000354	20.746271
2187.615561	-3.035400	3.217800	-9.765700	27.132561	0.000352	20.737089
2188.617021	-3.015400	3.217500	-9.701300	27.132983	0.000354	20.753636
2189.620705	-3.005100	3.217700	-9.669100	27.118595	0.000353	20.739165
2190.616004	-2.978100	3.218300	-9.583900	27.087884	0.000353	20.732460
2191.618160	-3.005500	3.217600	-9.669900	27.059963	0.000350	20.761753
2192.618505	-2.978600	3.218500	-9.585300	27.041998	0.000351	20.731357
2193.621222	-2.996100	3.216300	-9.636000	26.984231	0.000350	20.742491
2194.616836	-2.995200	3.215900	-9.631000	26.936241	0.000349	20.721732
2195.620756	-3.010800	3.217300	-9.684000	26.937557	0.000350	20.740127
2196.618584	-2.989000	3.216000	-9.611500	26.977416	0.000347	20.737535
2197.616459	-2.990600	3.215100	-9.614400	27.001617	0.000346	20.740534
2198.619092	-3.011900	3.212800	-9.675700	27.052520	0.000346	20.735301
2199.617198	-3.011200	3.213700	-9.676100	27.091229	0.000346	20.743411
2200.619518	-3.015900	3.213100	-9.689500	27.162295	0.000344	20.742814
2201.619372	-2.993100	3.212600	-9.614600	27.207484	0.000345	20.728995
2202.619778	-2.989700	3.213500	-9.606500	27.227106	0.000344	20.725023
2203.621826	-3.002000	3.211500	-9.639500	27.202177	0.000343	20.737882
2204.621005	-3.003100	3.211200	-9.642600	27.168381	0.000341	20.735184
2205.621965	-2.996700	3.210300	-9.619800	27.154539	0.000341	20.727425
2206.620433	-3.003400	3.210300	-9.640600	27.176720	0.000341	20.725553
2207.618870	-2.992500	3.209800	-9.604800	27.222625	0.000341	20.724310
2208.618794	-2.982300	3.211000	-9.575200	27.267267	0.000341	20.715159
2209.619166	-3.009800	3.210000	-9.660000	27.261482	0.000339	20.739213
2210.619723	-3.008500	3.208500	-9.651200	27.276175	0.000339	20.716533
2211.618738	-3.003000	3.206900	-9.630000	27.273402	0.000337	20.716589
2212.619621	-3.000600	3.208800	-9.627100	27.309104	0.000337	20.731165
2213.618152	-2.997600	3.207800	-9.614400	27.292858	0.000336	20.708657
2214.619785	-2.991500	3.206700	-9.591700	27.304495	0.000335	20.736012
2215.620760	-3.009700	3.205600	-9.647300	27.302334	0.000335	20.737158
2216.621065	-3.033100	3.205400	-9.721300	27.315986	0.000335	20.735243
2217.621677	-2.997800	3.204800	-9.605900	27.311841	0.000334	20.712581
2218.627885	-3.000400	3.204700	-9.614100	27.268199	0.000333	20.693336
2219.622720	-3.001700	3.204700	-9.618500	27.241515	0.000331	20.719602
2220.625118	-3.014500	3.204700	-9.659700	27.292644	0.000332	20.705598
2221.628975	-2.992200	3.203700	-9.585000	27.309027	0.000330	20.724449
2222.625624	-3.017500	3.203700	-9.665800	27.311879	0.000330	20.710248
2223.626262	-2.949400	3.205500	-9.452900	27.286474	0.000330	20.689907
2224.629506	-2.968300	3.202700	-9.505200	27.260678	0.000327	20.717066
2225.626706	-2.991200	3.203300	-9.580400	27.252664	0.000329	20.709479
2226.625993	-2.971400	3.201900	-9.512400	27.281621	0.000328	20.704940
2227.625589	-2.983000	3.201900	-9.550300	27.283489	0.000326	20.717252
2228.630291	-3.027900	3.200300	-9.688800	27.281132	0.000327	20.712510
2229.628998	-2.991300	3.199400	-9.569600	27.274857	0.000326	20.706672
2230.627106	-2.990700	3.201100	-9.572500	27.301352	0.000325	20.722893
2231.628925	-2.995300	3.200900	-9.587000	27.321131	0.000325	20.723823
2232.627919	-3.013100	3.200500	-9.642600	27.359667	0.000323	20.702369
2233.628635	-3.004900	3.198200	-9.608900	27.390970	0.000325	20.720110
2234.628597	-2.980000	3.198700	-9.531100	27.386484	0.000323	20.706587
2235.635752	-3.014300	3.196600	-9.634100	27.354831	0.000323	20.712204
2236.629788	-2.971600	3.197600	-9.500700	27.326501	0.000320	20.689868
2237.632819	-2.988000	3.197600	-9.553300	27.313408	0.000319	20.699457
2238.631860	-3.010100	3.196500	-9.620600	27.338536	0.000320	20.690120
2239.632425	-3.023800	3.195200	-9.660600	27.329361	0.000320	20.703176
2240.634552	-3.009200	3.194600	-9.612100	27.305712	0.000320	20.695983
2241.635926	-3.003300	3.194500	-9.593500	27.273446	0.000318	20.691501
2242.636190	-3.008300	3.194600	-9.609500	27.258809	0.000319	20.712340
2243.633115	-3.013500	3.194000	-9.623800	27.243050	0.000319	20.696014
2244.633394	-2.991600	3.194200	-9.555300	27.240107	0.000315	20.701589
2245.634417	-2.999700	3.193300	-9.577600	27.217326	0.000317	20.705228
2246.635276	-3.012300	3.191900	-9.614100	27.217731	0.000315	20.703264
2247.640107	-2.981200	3.193200	-9.518700	27.187162	0.000316	20.697173
2248.636119	-2.997000	3.190800	-9.561000	27.155423	0.000315	20.702235
2249.639278	-3.024900	3.188800	-9.644800	27.189121	0.000314	20.707679
2250.639374	-3.002100	3.190000	-9.575500	27.192348	0.000315	20.696225
2251.644104	-2.982400	3.189200	-9.510400	27.201678	0.000312	20.697075
2252.641278	-3.024000	3.190700	-9.648100	27.219665	0.000311	20.701891
2253.640321	-3.002000	3.190100	-9.574900	27.252003	0.000311	20.697907
2254.642343	-2.997100	3.188100	-9.554500	27.311868	0.000310	20.704546
2255.642233	-2.987600	3.187500	-9.521700	27.350414	0.000311	20.702070
2256.638474	-3.033900	3.187600	-9.670100	27.366398	0.000308	20.688750
2257.639817	-2.987600	3.187600	-9.522700	27.326529	0.000308	20.687050
2258.645556	-2.979400	3.187000	-9.494600	27.303359	0.000308	20.701676
2259.640014	-3.007600	3.186500	-9.581800	27.250564	0.000307	20.702150
2260.640264	-3.000900	3.185800	-9.559700	27.200547	0.000309	20.689772
2261.640424	-3.023400	3.184200	-9.625200	27.171595	0.000307	20.700956
2262.640683	-2.982600	3.184100	-9.495100	27.152291	0.000306	20.698610
2263.639131	-3.000400	3.183300	-9.550100	27.139635	0.000306	20.693941
2264.641834	-3.010500	3.182800	-9.580400	27.113884	0.000307	20.681317
2265.643737	-3.001800	3.182000	-9.550900	27.122921	0.000304	20.684243
2266.642231	-3.017500	3.183500	-9.605100	27.129986	0.000305	20.689927
2267.646977	-2.997200	3.184400	-9.543100	27.166489	0.000306	20.694872
2268.643192	-3.021300	3.180200	-9.607200	27.193507	0.000302	20.690752
2269.642997	-3.033900	3.180300	-9.647800	27.225790	0.000302	20.705206
2270.647054	-3.013500	3.180800	-9.583800	27.229910	0.000302	20.712196
2271.643243	-3.009600	3.179900	-9.569200	27.254820	0.000299	20.705958
2272.647574	-2.995600	3.179400	-9.523300	27.270449	0.000300	20.699867
2273.647040	-3.022600	3.176900	-9.601800	27.270181	0.000299	20.689164
2274.646240	-2.987100	3.179600	-9.497200	27.293027	0.000299	20.682272
2275.645117	-3.018700	3.178200	-9.593000	27.308264	0.000298	20.697601
2276.648556	-3.031200	3.176200	-9.626800	27.320715	0.000299	20.711075
2277.645833	-2.998600	3.176700	-9.524300	27.315188	0.000297	20.680383
2278.644986	-2.989600	3.176400	-9.494400	27.299388	0.000297	20.700053
2279.646695	-2.996400	3.176100	-9.516000	27.311441	0.000295	20.692736
2280.644907	-3.002700	3.175000	-9.532500	27.346346	0.000296	20.711729
2281.645795	-3.015700	3.172800	-9.567500	27.372203	0.000296	20.710239
2282.646681	-3.014800	3.172700	-9.562500	27.406561	0.000295	20.703077
2283.646852	-2.989300	3.174400	-9.489300	27.430745	0.000293	20.685205
2284.646790	-3.009500	3.172200	-9.545700	27.469570	0.000291	20.684910
2285.649325	-2.981000	3.172400	-9.456300	27.505590	0.000291	20.704556
2286.650511	-3.032000	3.173300	-9.620600	27.554528	0.000292	20.692153
2287.650651	-2.993900	3.172400	-9.497000	27.581016	0.000291	20.699838
2288.651349	-2.992300	3.169900	-9.484500	27.563953	0.000291	20.693101
2289.651947	-3.002100	3.172000	-9.521200	27.547791	0.000290	20.708609
2290.651401	-3.019600	3.171400	-9.575400	27.512868	0.000288	20.702395
2291.652275	-2.976300	3.170400	-9.435200	27.471168	0.000291	20.696477
2292.651584	-2.978400	3.169000	-9.437300	27.480147	0.000290	20.699347
2293.651523	-2.998200	3.167500	-9.495300	27.479034	0.000289	20.696329
2294.652326	-3.000900	3.168300	-9.505800	27.428091	0.000287	20.695339
2295.651195	-3.028600	3.165300	-9.585400	27.400982	0.000288	20.717380
2296.652234	-3.003400	3.167100	-9.510300	27.347826	0.000286	20.681446
2297.652885	-2.973700	3.167300	-9.417400	27.326461	0.000288	20.705950
2298.654262	-3.004700	3.165100	-9.509100	27.310386	0.000286	20.718230
2299.654873	-3.023900	3.162800	-9.562700	27.315229	0.000284	20.706505
2300.651476	-2.999600	3.163500	-9.488200	27.350556	0.000285	20.684667
2301.653654	-3.015700	3.164600	-9.542500	27.403125	0.000284	20.703414
2302.651186	-3.023600	3.161800	-9.559200	27.387222	0.000285	20.705908
2303.652985	-2.988400	3.162600	-9.450100	27.345574	0.000283	20.695303
2304.655757	-3.003900	3.163100	-9.499000	27.324094	0.000281	20.696455
2305.653328	-3.004100	3.161300	-9.494800	27.298836	0.000282	20.708981
2306.653584	-3.022100	3.159900	-9.548400	27.307369	0.000285	20.704763
2307.654493	-3.005000	3.159600	-9.493500	27.356991	0.000282	20.715799
2308.657215	-2.976600	3.160500	-9.405900	27.406620	0.000282	20.707878
2309.656291	-2.976300	3.159300	-9.401400	27.492282	0.000279	20.711556
2310.655314	-3.014000	3.157800	-9.516600	27.534721	0.000280	20.700674
2311.658202	-2.986700	3.157300	-9.429200	27.575769	0.000280	20.717320
2312.655928	-3.033600	3.154500	-9.566800	27.591075	0.000279	20.694313
2313.654621	-2.992300	3.156600	-9.443800	27.613963	0.000277	20.716870
2314.656350	-2.996400	3.155200	-9.454000	27.631105	0.000279	20.713256
2315.655262	-2.976200	3.155400	-9.389600	27.620023	0.000274	20.719648
2316.658973	-2.996600	3.153600	-9.448800	27.635298	0.000277	20.702300
2317.656602	-2.999600	3.153700	-9.458600	27.621730	0.000275	20.698131
2318.655478	-3.010000	3.152500	-9.487900	27.597648	0.000275	20.696659
2319.657772	-2.990200	3.153700	-9.429500	27.600483	0.000275	20.720850
2320.656285	-2.991300	3.151400	-9.425400	27.620561	0.000273	20.704067
2321.659227	-3.020100	3.152800	-9.520600	27.653902	0.000273	20.727186
2322.656630	-3.048100	3.148800	-9.596200	27.691629	0.000273	20.739546
2323.656884	-3.016000	3.149000	-9.495300	27.732169	0.000273	20.729606
2324.661932	-3.012500	3.149200	-9.486200	27.771380	0.000272	20.726866
2325.660303	-2.985300	3.149900	-9.402300	27.748091	0.000273	20.705799
2326.658646	-2.986700	3.148900	-9.403900	27.679493	0.000272	20.702202
2327.664246	-2.973600	3.147400	-9.358000	27.651546	0.000271	20.713435
2328.660054	-2.986800	3.148800	-9.403700	27.619950	0.000270	20.692546
2329.659872	-2.982200	3.147800	-9.386600	27.639367	0.000270	20.698809
2330.664767	-3.014900	3.145400	-9.482600	27.672132	0.000269	20.722771
2331.660185	-3.015200	3.144900	-9.482000	27.649636	0.000269	20.729058
2332.659626	-3.003000	3.144100	-9.440900	27.665302	0.000269	20.700723
2333.661589	-2.984000	3.145100	-9.383500	27.654593	0.000267	20.720295
2334.661994	-2.985200	3.143100	-9.381000	27.684994	0.000268	20.709634
2335.660537	-2.990400	3.141800	-9.393900	27.705280	0.000268	20.723885
2336.662585	-3.008100	3.141300	-9.448100	27.647842	0.000268	20.712079
2337.665562	-2.975600	3.142500	-9.349600	27.637793	0.000267	20.733737
2338.663546	-2.995000	3.139600	-9.401600	27.612623	0.000264	20.718366
2339.666573	-2.986700	3.140200	-9.377300	27.630530	0.000265	20.734963
2340.662837	-2.992900	3.138800	-9.393300	27.627873	0.000265	20.731342
2341.664014	-3.000500	3.136600	-9.409600	27.681909	0.000264	20.711746
2342.664415	-2.998500	3.137100	-9.406300	27.733795	0.000262	20.718440
2343.663771	-2.982800	3.137800	-9.358500	27.783132	0.000265	20.733477
2344.663226	-3.005900	3.137500	-9.430300	27.816681	0.000266	20.733576
2345.667450	-3.009300	3.134300	-9.430700	27.814081	0.000265	20.730485
2346.663312	-2.997000	3.133900	-9.391300	27.872769	0.000263	20.734549
2347.664221	-2.989000	3.133000	-9.363800	27.891938	0.000264	20.711640
2348.664739	-3.006900	3.132200	-9.417600	27.887251	0.000261	20.735374
2349.667341	-3.001200	3.132000	-9.398600	27.893278	0.000263	20.731956
2350.667022	-3.008300	3.130800	-9.417700	27.885863	0.000261	20.718328
2351.666081	-2.980600	3.130900	-9.331200	27.866749	0.000261	20.747931
2352.667327	-3.005400	3.130100	-9.406300	27.849220	0.000260	20.721753
2353.664328	-2.979800	3.130800	-9.327400	27.851227	0.000259	20.752697
2354.664752	-2.977000	3.130500	-9.318000	27.828093	0.000260	20.750277
2355.666400	-2.988600	3.129000	-9.349400	27.803073	0.000261	20.743589
2356.665456	-2.997900	3.127200	-9.373300	27.735680	0.000259	20.736459
2357.666293	-3.016600	3.125100	-9.426100	27.732008	0.000259	20.713323
2358.666638	-3.003500	3.125000	-9.383900	27.698830	0.000257	20.745370
2359.664883	-3.013700	3.125400	-9.418100	27.662621	0.000258	20.735012
2360.665721	-3.008100	3.124300	-9.397200	27.670087	0.000259	20.735887
2361.668958	-2.994600	3.123100	-9.350300	27.643252	0.000256	20.718366
2362.666492	-3.004000	3.121800	-9.376900	27.622623	0.000257	20.736965
2363.670067	-3.009800	3.121500	-9.393600	27.649937	0.000256	20.752595
2364.667083	-3.001900	3.121900	-9.370200	27.670743	0.000256	20.728960
2365.671419	-3.007300	3.120400	-9.383900	27.668614	0.000257	20.729662
2366.669458	-3.008600	3.120000	-9.385700	27.666331	0.000255	20.734478
2367.667164	-2.971200	3.119300	-9.267000	27.684488	0.000257	20.734731
2368.671123	-2.981900	3.118600	-9.298000	27.702222	0.000255	20.737878
2369.670233	-2.993400	3.118100	-9.333200	27.697364	0.000256	20.731092
2370.668858	-2.986100	3.117600	-9.308200	27.731736	0.000255	20.751457
2371.670248	-2.988100	3.115000	-9.306500	27.753068	0.000255	20.744000
2372.669132	-2.992400	3.114900	-9.319900	27.751232	0.000254	20.728401
2373.670737	-3.003200	3.115000	-9.353900	27.760533	0.000256	20.739659
2374.672848	-3.001000	3.112800	-9.340800	27.793661	0.000253	20.758773
2375.671576	-3.017700	3.112900	-9.392400	27.843057	0.000253	20.742577
2376.671303	-2.996300	3.112700	-9.324600	27.852210	0.000254	20.762696
2377.674284	-3.004200	3.111400	-9.346400	27.839912	0.000254	20.726136
2378.671397	-3.021400	3.110300	-9.396500	27.827338	0.000253	20.743828
2379.670340	-2.989200	3.108300	-9.290800	27.832179	0.000250	20.761028
2380.674385	-2.972800	3.110100	-9.244400	27.760215	0.000250	20.738391
2381.672129	-3.004600	3.109400	-9.340600	27.709353	0.000252	20.757856
2382.671895	-2.975100	3.107800	-9.244500	27.667717	0.000252	20.763848
2383.676521	-2.989000	3.106900	-9.286000	27.653109	0.000250	20.757210
2384.673297	-2.997900	3.105300	-9.308700	27.660558	0.000249	20.757119
2385.672501	-3.004400	3.104000	-9.325200	27.641800	0.000248	20.775228
2386.673222	-2.992500	3.102900	-9.283700	27.649346	0.000249	20.767174
2387.674411	-3.006900	3.102800	-9.328000	27.678984	0.000250	20.762858
2388.677512	-2.972200	3.102800	-9.221200	27.679706	0.000248	20.786345
2389.677021	-3.014600	3.100400	-9.345600	27.739009	0.000247	20.764941
2390.674043	-3.000600	3.100200	-9.301600	27.800626	0.000245	20.750610
2391.673366	-2.993200	3.100400	-9.279200	27.831697	0.000249	20.755801
2392.673024	-2.983100	3.099100	-9.244400	27.831226	0.000248	20.780932
2393.678814	-2.995400	3.097600	-9.277700	27.892681	0.000245	20.777350
2394.674500	-3.003200	3.097200	-9.299500	27.875672	0.000247	20.753592
2395.676534	-2.991700	3.096100	-9.261600	27.858363	0.000245	20.770311
2396.678626	-3.008100	3.094700	-9.307300	27.848647	0.000247	20.748204
2397.677784	-3.010300	3.094300	-9.313800	27.829704	0.000245	20.763279
2398.674846	-3.026500	3.091400	-9.353800	27.809323	0.000245	20.777381
2399.678295	-3.010800	3.092100	-9.308300	27.807072	0.000245	20.764210
2400.675519	-2.983900	3.092200	-9.225700	27.834991	0.000244	20.756746
2401.675493	-2.997200	3.090400	-9.262000	27.825569	0.000243	20.766704
2402.679710	-2.988400	3.089300	-9.230800	27.827282	0.000245	20.747565
2403.675632	-3.019600	3.088800	-9.326000	27.839067	0.000244	20.766064
2404.676902	-3.015100	3.088500	-9.311400	27.869683	0.000243	20.754203
2405.684921	-2.980100	3.087400	-9.199900	27.918490	0.000244	20.755910
2406.676862	-3.015300	3.084300	-9.298800	27.897842	0.000243	20.795820
2407.676772	-3.023500	3.083900	-9.322700	27.852168	0.000242	20.787784
2408.679161	-3.003200	3.083500	-9.258800	27.835996	0.000244	20.795691
2409.682325	-3.014400	3.082500	-9.290900	27.843768	0.000242	20.758467
2410.677743	-2.999400	3.082000	-9.242800	27.893633	0.000244	20.760764
2411.678604	-2.991800	3.081600	-9.219200	27.936234	0.000241	20.786573
2412.679240	-3.027100	3.079600	-9.320900	27.947547	0.000242	20.772829
2413.678086	-3.001500	3.080200	-9.243900	27.902071	0.000241	20.770679
2414.681180	-2.973600	3.081000	-9.160500	27.872943	0.000243	20.764122
2415.682907	-2.986500	3.078300	-9.192700	27.833019	0.000240	20.775151
2416.679771	-3.004300	3.076900	-9.243200	27.778049	0.000241	20.784788
2417.686676	-2.987100	3.076000	-9.187200	27.828559	0.000241	20.769239
2418.680714	-2.977700	3.077400	-9.162400	27.832702	0.000241	20.756339
2419.680460	-2.988900	3.075100	-9.190000	27.887334	0.000240	20.771494
2420.679893	-2.999900	3.073700	-9.219700	27.909720	0.000241	20.789758
2421.683859	-3.004200	3.072700	-9.229900	27.928962	0.000240	20.788262
2422.681480	-3.003000	3.070300	-9.219200	27.934217	0.000240	20.788336
2423.679433	-3.019500	3.070900	-9.271000	27.959418	0.000240	20.779088
2424.681199	-2.998900	3.070200	-9.205900	27.961271	0.000241	20.783324
2425.679118	-3.009200	3.068500	-9.232700	28.006493	0.000240	20.790910
2426.679924	-3.013900	3.067000	-9.241700	28.039669	0.000238	20.784950
2427.680419	-3.011500	3.066100	-9.231800	28.044899	0.000239	20.787844
2428.682009	-3.002200	3.064800	-9.199700	28.014379	0.000239	20.795529
2429.681605	-3.001100	3.063000	-9.191300	28.034714	0.000237	20.776169
2430.680786	-2.964100	3.063800	-9.080200	28.034397	0.000240	20.783436
2431.681524	-2.996400	3.062100	-9.174900	28.074134	0.000237	20.769858
2432.681024	-3.004200	3.061400	-9.195700	28.016553	0.000238	20.804355
2433.683258	-3.007800	3.059200	-9.200900	28.030831	0.000239	20.793123
2434.680921	-3.007700	3.057200	-9.194100	28.018461	0.000237	20.812914
2435.682214	-2.972300	3.059200	-9.091300	28.003695	0.000236	20.799473
2436.682737	-2.981300	3.058000	-9.115500	27.979768	0.000237	20.815218
2437.683762	-2.986900	3.057400	-9.131200	27.996751	0.000236	20.790113
2438.683470	-2.992600	3.054500	-9.140100	28.042174	0.000236	20.800748
2439.689520	-3.002700	3.053400	-9.167500	28.086758	0.000234	20.804850
2440.683151	-2.952500	3.053900	-9.015100	28.103666	0.000236	20.794370
2441.683715	-2.991300	3.051200	-9.126200	28.116861	0.000237	20.803860
2442.685575	-3.019000	3.050300	-9.207900	28.151739	0.000234	20.777806
2443.685045	-3.026500	3.047600	-9.222100	28.125363	0.000236	20.792031
2444.685482	-3.019100	3.047800	-9.200200	28.102933	0.000235	20.795529
2445.684797	-3.021900	3.046900	-9.204400	28.080153	0.000235	20.788719
2446.686198	-3.006100	3.045700	-9.154100	28.035307	0.000237	20.794784
2447.693856	-3.017400	3.044900	-9.186700	28.004892	0.000235	20.801152
2448.686358	-3.025300	3.042400	-9.202800	28.002310	0.000235	20.805191
2449.685418	-3.008900	3.042300	-9.152000	28.010098	0.000235	20.803073
2450.686430	-3.004200	3.040700	-9.134500	28.052499	0.000234	20.794071
2451.685452	-3.007300	3.039800	-9.140200	28.075757	0.000234	20.789509
2452.686693	-2.986000	3.039700	-9.075700	28.058207	0.000235	20.798395
2453.691160	-3.028100	3.036200	-9.192000	28.043061	0.000234	20.782200
2454.685977	-3.003300	3.036800	-9.119800	28.057987	0.000233	20.802441
2455.690341	-3.011800	3.035000	-9.140300	28.046553	0.000234	20.789509
2456.685701	-2.966200	3.034100	-8.998300	28.085729	0.000232	20.799073
2457.687232	-3.010700	3.032900	-9.129400	28.087693	0.000233	20.829025
2458.685707	-2.994100	3.032500	-9.078600	28.095554	0.000234	20.806119
2459.688853	-3.003200	3.031000	-9.100400	28.120859	0.000235	20.823532
2460.687274	-2.995700	3.029800	-9.075400	28.149217	0.000234	20.826475
2461.686611	-3.007900	3.027300	-9.104700	28.182364	0.000233	20.798205
2462.690026	-3.025300	3.026700	-9.156100	28.172222	0.000235	20.813599
2463.687889	-3.005800	3.026900	-9.097200	28.171507	0.000234	20.808612
2464.687756	-2.993600	3.024900	-9.053900	28.199594	0.000234	20.819345
2465.690351	-2.986200	3.025300	-9.033200	28.239894	0.000232	20.820090
2466.690026	-3.009400	3.023500	-9.097800	28.250255	0.000234	20.804917
2467.688381	-2.998400	3.021500	-9.057700	28.277245	0.000232	20.809332
2468.691250	-2.995900	3.020000	-9.046300	28.274793	0.000231	20.841475
2469.692520	-2.983600	3.020600	-9.011300	28.267802	0.000233	20.811678
2470.691117	-3.000700	3.019300	-9.058500	28.227845	0.000232	20.815545
2471.693250	-2.992200	3.017400	-9.027300	28.218077	0.000233	20.814246
2472.689687	-3.012200	3.016000	-9.083800	28.189965	0.000233	20.830988
2473.690496	-2.994600	3.015900	-9.030000	28.174699	0.000232	20.817990
2474.691885	-2.980200	3.012400	-8.977000	28.177176	0.000232	20.817638
2475.698494	-3.018000	3.011100	-9.086800	28.209219	0.000232	20.812915
2476.692678	-2.984100	3.011800	-8.986000	28.200944	0.000232	20.830187
2477.694778	-2.973500	3.009600	-8.948100	28.216088	0.000233	20.826942
2478.694256	-2.984700	3.008600	-8.979000	28.174594	0.000234	20.823100
2479.692688	-2.987800	3.006400	-8.981800	28.096377	0.000232	20.822594
2480.694333	-3.009000	3.006200	-9.043900	28.038116	0.000234	20.826061
2481.695220	-3.001000	3.004300	-9.014800	28.057062	0.000232	20.825218
2482.694024	-2.994100	3.003300	-8.991200	28.070122	0.000232	20.834571
2483.693603	-2.974000	3.002700	-8.929300	28.075035	0.000233	20.859429
2484.695646	-2.982800	3.002500	-8.954800	28.063228	0.000232	20.829527
2485.694432	-2.991800	2.999200	-8.972300	28.114300	0.000233	20.832101
2486.694356	-3.004400	2.997600	-9.004800	28.170844	0.000231	20.836867
2487.694336	-3.014700	2.995900	-9.030500	28.213720	0.000231	20.839256
2488.694622	-2.965900	2.996600	-8.886100	28.201157	0.000231	20.824712
2489.695769	-2.983900	2.995100	-8.936600	28.201499	0.000230	20.853978
2490.695875	-3.017400	2.991900	-9.027200	28.235879	0.000232	20.839280
2491.695070	-3.007500	2.990800	-8.993000	28.238583	0.000233	20.828726
2492.695602	-3.017400	2.990300	-9.021700	28.264809	0.000233	20.839484
2493.696514	-3.039400	2.986200	-9.074700	28.249795	0.000231	20.837644
2494.695564	-2.990700	2.985400	-8.927400	28.240344	0.000230	20.850414
2495.695656	-2.987900	2.986700	-8.923700	28.263721	0.000231	20.816104
2496.695999	-2.994300	2.983800	-8.933500	28.225874	0.000230	20.825889
2497.701383	-2.971700	2.983000	-8.863700	28.177964	0.000231	20.836924
2498.700049	-3.019200	2.979300	-8.994100	28.165792	0.000231	20.819454
2499.698211	-2.988000	2.980800	-8.905500	28.167303	0.000231	20.850846
2500.701520	-3.016000	2.978000	-8.980700	28.208260	0.000231	20.816216
2501.700277	-2.997500	2.977800	-8.924500	28.269477	0.000229	20.838019
2502.700106	-2.998500	2.975800	-8.921700	28.263403	0.000229	20.831905
2503.700816	-2.978200	2.976100	-8.861400	28.230444	0.000232	20.805834
2504.703496	-3.012000	2.972100	-8.950900	28.247074	0.000231	20.804085
2505.699512	-3.027400	2.970800	-8.992600	28.258708	0.000230	20.844247
2506.700985	-3.009400	2.971200	-8.940000	28.317396	0.000232	20.814197
2507.702078	-2.992000	2.969100	-8.881400	28.314295	0.000231	20.810126
2508.702186	-3.004100	2.966500	-8.910500	28.342379	0.000230	20.809480
2509.701783	-2.993300	2.967300	-8.880600	28.362742	0.000230	20.800587
2510.701843	-2.984300	2.965300	-8.848200	28.340275	0.000230	20.806888
2511.702486	-2.985300	2.962800	-8.843300	28.285356	0.000229	20.803748
2512.703797	-3.017700	2.961500	-8.935300	28.260121	0.000230	20.823859
2513.701664	-2.997100	2.960100	-8.870900	28.259276	0.000231	20.820164
2514.703613	-3.017600	2.958200	-8.926200	28.282638	0.000230	20.810969
2515.704611	-2.997100	2.958700	-8.865800	28.280395	0.000232	20.814874
2516.704745	-2.987500	2.956300	-8.831100	28.244199	0.000230	20.806881
2517.706107	-3.007600	2.952900	-8.879600	28.247049	0.000231	20.796474
2518.705124	-3.012100	2.952700	-8.892600	28.251815	0.000233	20.800797
2519.706863	-2.996700	2.951700	-8.844100	28.293037	0.000230	20.801999
2520.707819	-3.001500	2.950200	-8.854000	28.346114	0.000231	20.780525
2521.707349	-3.031000	2.947600	-8.932900	28.396378	0.000231	20.804109
2522.705482	-3.005300	2.946500	-8.854000	28.418631	0.000229	20.802810
2523.705604	-3.000400	2.945800	-8.837400	28.361232	0.000228	20.809023
2524.707981	-3.011300	2.943700	-8.863300	28.329186	0.000229	20.801886
2525.710043	-3.009200	2.942000	-8.851700	28.314710	0.000227	20.808173
2526.708478	-3.008400	2.942100	-8.850100	28.336665	0.000232	20.792347
2527.709566	-3.023700	2.937600	-8.880900	28.355281	0.000230	20.786436
2528.709379	-2.984700	2.938500	-8.769100	28.350517	0.000229	20.808191
2529.709105	-2.987700	2.936200	-8.771500	28.350517	0.000231	20.802027
2530.711493	-2.992700	2.934100	-8.779900	28.300136	0.000229	20.785912
2531.710613	-2.960600	2.933700	-8.684400	28.273035	0.000230	20.798455
2532.712614	-3.008500	2.931200	-8.816900	28.297701	0.000228	20.804798
2533.710549	-3.002500	2.930100	-8.796600	28.356907	0.000228	20.808935
2534.712001	-2.981300	2.928600	-8.729900	28.372649	0.000230	20.790173
2535.712539	-3.037600	2.926000	-8.886500	28.369004	0.000231	20.787925
2536.712736	-2.985100	2.925900	-8.732400	28.414784	0.000229	20.783289
2537.713333	-3.025400	2.923200	-8.841700	28.457130	0.000229	20.794637
2538.714190	-2.988700	2.921000	-8.729300	28.491746	0.000231	20.797253
2539.714731	-2.992100	2.918900	-8.732100	28.533277	0.000230	20.797352
2540.717563	-2.998400	2.919200	-8.751700	28.551297	0.000231	20.808387
2541.717425	-3.008400	2.916700	-8.773900	28.524111	0.000228	20.780535
2542.716687	-3.004500	2.915900	-8.759700	28.514866	0.000229	20.795880
2543.721918	-2.994500	2.912900	-8.721500	28.478409	0.000229	20.798521
2544.719012	-3.002800	2.912100	-8.742400	28.413082	0.000227	20.794377
2545.718655	-2.997300	2.909800	-8.720400	28.371302	0.000229	20.782653
2546.723250	-3.011800	2.907300	-8.755700	28.369914	0.000230	20.775565
2547.718409	-3.013800	2.906400	-8.758000	28.358637	0.000230	20.751881
2548.716609	-3.024500	2.904900	-8.784800	28.368208	0.000230	20.782857
2549.718826	-3.017400	2.902200	-8.754800	28.371009	0.000227	20.785677
2550.715551	-2.994600	2.901900	-8.688100	28.406123	0.000228	20.777887
2551.716270	-2.998600	2.898900	-8.691100	28.422757	0.000230	20.785628
2552.717711	-2.980400	2.898300	-8.635500	28.408875	0.000229	20.767381
2553.721394	-3.010800	2.895400	-8.716400	28.347311	0.000229	20.785522
2554.717834	-3.014700	2.894600	-8.725000	28.261157	0.000230	20.770374
2555.717517	-2.950200	2.893200	-8.534000	28.264265	0.000229	20.785357
2556.721611	-2.986200	2.890800	-8.631000	28.311773	0.000229	20.776766
2557.718358	-2.977400	2.889000	-8.599400	28.336082	0.000228	20.785596
2558.718748	-3.027000	2.885800	-8.733500	28.420225	0.000228	20.761741
2559.722743	-3.044300	2.883400	-8.776500	28.472466	0.000228	20.789217
2560.719522	-2.996600	2.883300	-8.639400	28.483846	0.000230	20.773651
2561.721694	-3.012900	2.881000	-8.679600	28.516139	0.000228	20.764919
2562.722043	-3.009000	2.879700	-8.664400	28.496284	0.000229	20.767683
2563.721032	-3.004400	2.876400	-8.641200	28.506844	0.000229	20.781164
2564.721564	-3.004500	2.876100	-8.640100	28.486654	0.000230	20.760357
2565.725979	-2.980500	2.873700	-8.563700	28.493936	0.000229	20.788554
2566.722394	-3.008000	2.871800	-8.636700	28.502687	0.000229	20.778874
2567.721565	-2.996700	2.869800	-8.599000	28.540604	0.000227	20.764428
2568.723484	-3.027900	2.867200	-8.679300	28.519271	0.000229	20.774712
2569.724975	-3.004400	2.866000	-8.608000	28.544151	0.000230	20.767051
2570.720919	-3.044900	2.863000	-8.716700	28.560751	0.000227	20.765278
2571.725737	-3.018000	2.861800	-8.636100	28.585638	0.000227	20.776591
2572.722722	-2.986300	2.860100	-8.540500	28.555726	0.000229	20.772070
2573.721619	-2.998400	2.857300	-8.565300	28.540691	0.000228	20.767361
2574.722499	-2.964400	2.857700	-8.470300	28.542355	0.000228	20.760975
2575.723608	-3.011700	2.853900	-8.594400	28.468905	0.000227	20.773303
2576.723549	-2.976300	2.851800	-8.487100	28.443308	0.000227	20.756061
2577.721406	-2.995800	2.850800	-8.539300	28.437672	0.000228	20.759395
2578.722960	-2.993800	2.847200	-8.522800	28.450744	0.000226	20.765920
2579.723070	-3.035600	2.845600	-8.637400	28.461225	0.000227	20.766992
2580.728038	-3.005400	2.842300	-8.541300	28.409413	0.000227	20.765078
2581.723961	-2.976200	2.841700	-8.457000	28.357266	0.000227	20.764726
2582.725324	-2.999100	2.840000	-8.516300	28.367877	0.000228	20.768298
2583.725904	-2.995000	2.837700	-8.497600	28.348644	0.000227	20.744664
2584.727437	-2.995800	2.835200	-8.492800	28.327655	0.000228	20.751506
2585.727392	-3.000700	2.833600	-8.502100	28.342180	0.000228	20.759019
2586.729692	-3.019400	2.831600	-8.548100	28.405621	0.000227	20.756518
2587.729235	-3.002600	2.829600	-8.495100	28.478085	0.000228	20.749830
2588.733500	-3.001500	2.828100	-8.487100	28.549627	0.000228	20.728942
2589.735499	-3.016300	2.823200	-8.514700	28.571057	0.000227	20.749103
2590.730693	-2.988600	2.821400	-8.430200	28.558370	0.000229	20.748180
2591.733799	-2.986600	2.820700	-8.423800	28.535104	0.000228	20.752725
2592.734917	-3.022600	2.816800	-8.513000	28.523578	0.000227	20.753919
2593.732740	-3.002300	2.814400	-8.449000	28.563395	0.000227	20.752767
2594.735271	-3.008300	2.812100	-8.458800	28.597519	0.000226	20.728812
2595.731020	-2.989700	2.809300	-8.397400	28.606189	0.000227	20.746079
2596.732072	-3.028900	2.806900	-8.500800	28.632399	0.000228	20.742131
2597.735599	-2.997600	2.805700	-8.409300	28.660426	0.000228	20.747600
2598.733354	-2.992600	2.803200	-8.387800	28.716016	0.000229	20.768506
2599.732127	-2.987500	2.800600	-8.366300	28.702616	0.000227	20.763068
2600.732050	-2.992300	2.797600	-8.370900	28.705513	0.000227	20.738959
2601.733889	-3.017300	2.794800	-8.431900	28.703630	0.000226	20.739908
2602.732460	-2.997600	2.792400	-8.369900	28.692503	0.000227	20.744347
2603.731390	-2.999000	2.791800	-8.371900	28.667919	0.000226	20.746613
2604.734187	-3.000500	2.788400	-8.365300	28.663731	0.000225	20.747136
2605.732841	-2.988800	2.786600	-8.327200	28.638059	0.000228	20.751151
2606.733218	-2.991800	2.783900	-8.326900	28.577749	0.000229	20.768646
2607.732473	-2.998300	2.779500	-8.332400	28.583026	0.000228	20.762106
2608.733757	-3.004800	2.776900	-8.343200	28.538989	0.000228	20.743360
2609.733078	-2.981900	2.774300	-8.271500	28.487278	0.000228	20.769046
2610.734567	-3.003800	2.771200	-8.322600	28.477977	0.000230	20.756834
2611.742499	-2.967200	2.769600	-8.217700	28.421278	0.000230	20.745731
2612.734248	-2.995200	2.765700	-8.282600	28.400780	0.000230	20.754488
2613.733734	-3.003900	2.762400	-8.297100	28.391209	0.000227	20.725882
2614.736313	-2.998000	2.759600	-8.272600	28.427790	0.000229	20.738538
2615.739026	-2.993900	2.757600	-8.254500	28.452722	0.000228	20.737565
2616.734506	-2.995900	2.755100	-8.252100	28.491826	0.000227	20.740909
2617.736046	-3.020300	2.750600	-8.306800	28.519435	0.000229	20.739788
2618.733839	-3.009900	2.747100	-8.266600	28.529535	0.000228	20.730519
2619.734309	-2.994800	2.745700	-8.222100	28.523341	0.000226	20.737558
2620.736293	-3.011200	2.741900	-8.253700	28.600706	0.000229	20.724909
2621.740177	-3.029300	2.737700	-8.291700	28.646756	0.000226	20.730512
2622.736658	-3.008600	2.735100	-8.228000	28.635140	0.000228	20.726399
2623.733570	-3.019300	2.730900	-8.243900	28.634198	0.000226	20.760539
2624.739112	-3.003000	2.729400	-8.194600	28.657283	0.000228	20.730684
2625.733615	-2.993800	2.724600	-8.155700	28.730469	0.000226	20.750821
2626.734010	-2.957600	2.723200	-8.053200	28.772200	0.000229	20.737853
2627.738739	-3.003000	2.718100	-8.159600	28.840517	0.000228	20.731755
2628.734270	-2.999100	2.713800	-8.137800	28.884809	0.000228	20.740340
2629.735013	-2.998400	2.711000	-8.127600	28.924790	0.000227	20.745531
2630.737200	-2.975400	2.709000	-8.059000	28.912229	0.000227	20.737617
2631.734864	-2.994200	2.704800	-8.097800	28.866007	0.000227	20.735622
2632.737000	-2.965400	2.701500	-8.010300	28.820424	0.000228	20.739490
2633.737092	-2.989200	2.697700	-8.062500	28.790404	0.000227	20.741492
2634.736619	-2.999700	2.693900	-8.080500	28.823848	0.000228	20.741042
2635.735648	-3.031000	2.689600	-8.150900	28.903311	0.000227	20.724365
2636.738186	-3.008200	2.685600	-8.077800	28.883000	0.000227	20.755113
2637.736101	-2.988800	2.683100	-8.018100	28.835071	0.000228	20.735752
2638.739418	-2.981500	2.679400	-7.987400	28.820839	0.000227	20.743227
2639.739687	-2.997800	2.674800	-8.017200	28.821261	0.000226	20.721365
2640.738184	-2.980300	2.671200	-7.960200	28.818761	0.000229	20.741133
2641.734716	-2.981100	2.665600	-7.944300	28.831494	0.000227	20.745426
2642.734301	-3.014800	2.661600	-8.023500	28.867802	0.000227	20.737905
2643.736678	-2.972000	2.659900	-7.903700	28.921433	0.000225	20.725552
2644.734632	-2.985100	2.653500	-7.920500	28.954232	0.000227	20.723508
2645.738155	-3.002000	2.649100	-7.951200	28.966712	0.000227	20.743195
2646.737286	-2.967200	2.647800	-7.855300	28.934353	0.000227	20.731931
2647.738877	-2.986700	2.642400	-7.891200	28.938491	0.000228	20.736100
2648.738602	-3.027300	2.637000	-7.982500	28.954688	0.000228	20.727762
2649.739607	-2.999600	2.632700	-7.896200	28.991617	0.000228	20.727983
2650.740134	-3.011800	2.627900	-7.913400	28.964687	0.000226	20.734042
2651.738783	-2.986900	2.623200	-7.833800	28.963006	0.000227	20.721443
2652.741889	-2.974200	2.619000	-7.789100	28.967608	0.000228	20.721337
2653.739809	-3.026700	2.612700	-7.906800	28.986855	0.000227	20.742152
2654.739289	-3.005700	2.609300	-7.841600	28.933245	0.000228	20.725598
2655.746669	-3.002600	2.602400	-7.812900	28.856991	0.000226	20.718952
2656.742128	-3.024700	2.598400	-7.858300	28.847853	0.000229	20.719704
2657.741840	-3.039200	2.591900	-7.876000	28.874357	0.000229	20.739293
2658.741263	-3.001700	2.587500	-7.766000	28.836947	0.000229	20.728158
2659.742494	-2.995300	2.583400	-7.737300	28.786356	0.000227	20.699479
2660.742789	-3.017700	2.575600	-7.771800	28.822551	0.000227	20.686626
2661.742227	-3.070400	2.569200	-7.886200	28.844935	0.000229	20.726248
2662.740984	-2.985900	2.566100	-7.661000	28.875107	0.000229	20.725823
2663.741481	-3.004000	2.560200	-7.690000	28.910894	0.000229	20.713511
2664.740605	-2.995400	2.554400	-7.651000	28.966980	0.000229	20.724024
2665.742712	-2.984600	2.550100	-7.609900	29.013199	0.000229	20.716062
2666.743119	-3.017600	2.543500	-7.674900	29.030060	0.000228	20.699858
2667.742587	-3.004000	2.536400	-7.616900	29.093387	0.000226	20.738538
2668.742597	-2.947600	2.531600	-7.461200	29.134179	0.000230	20.715155
2669.742664	-3.005000	2.525700	-7.588800	29.132639	0.000229	20.706016
2670.742715	-2.995200	2.519900	-7.546600	29.076042	0.000229	20.729121
2671.745118	-3.017300	2.512800	-7.581000	29.079109	0.000227	20.736954
2672.745909	-3.005900	2.507700	-7.536300	29.089811	0.000230	20.723080
2673.741505	-3.013200	2.499300	-7.530500	29.128439	0.000229	20.714112
