LabVIEW Measurement	
Writer_Version	2
Reader_Version	2
Separator	Tab
Decimal_Separator	.
Multi_Headings	No
X_Columns	One
Time_Pref	Absolute
Operator	admin
Description	Clolumns are: time, Current, Voltage, Power, Battery Temp, and Chamber Temp
Date	2024/08/16
Time	13:06:06.104549407958984375
***End_of_Header***	
	
Channels	6						
Samples	1	1	1	1	1	1	
Date	2024/08/30	2024/08/30	2024/08/30	2024/08/30	2024/08/30	2024/08/30	
Time	17:14:55.1957125663757324219	17:14:55.2007470130920410156	17:14:55.2056965827941894531	17:14:55.1804246902465820312	17:14:55.1804246902465820312	17:14:55.1804246902465820312	
X_Dimension	Time	Time	Time	Time	Time	Time	
X0	0.0000000000000000E+0	0.0000000000000000E+0	0.0000000000000000E+0	0.0000000000000000E+0	0.0000000000000000E+0	0.0000000000000000E+0	
Delta_X	1.000000	1.000000	1.000000	1.000000	1.000000	1.000000	
***End_of_Header***							
X_Value	Untitled	Untitled 1	Untitled 2	Untitled 3	Untitled 4	Untitled 5	Comment
0.000000	3.400000E+38	4.105700	0.217540	20.969672	0.000945	20.671910
1.001043	-2.988400	3.941200	-11.777000	20.966034	0.000945	20.669219
2.001170	-2.997000	3.934700	-11.791000	20.996572	0.000942	20.658509
3.001507	-3.006400	3.929900	-11.814000	21.003707	0.000942	20.670389
4.001447	-2.989600	3.925900	-11.735000	20.973398	0.000941	20.691759
5.002931	-2.981100	3.922000	-11.691000	20.977092	0.000943	20.683125
6.002845	-2.992900	3.918700	-11.726000	20.972418	0.000942	20.677976
7.003254	-2.997800	3.917400	-11.743000	20.980836	0.000938	20.656995
8.007016	-3.019100	3.914000	-11.815000	20.961177	0.000938	20.666732
9.003647	-3.022400	3.913000	-11.825000	20.990668	0.000938	20.675366
10.009828	-3.010100	3.909600	-11.767000	20.981815	0.000939	20.670304
11.002923	-3.010700	3.907600	-11.762000	20.993070	0.000935	20.672078
12.003044	-3.003900	3.906100	-11.733000	21.003032	0.000935	20.668765
13.005521	-2.987400	3.906300	-11.669000	21.017918	0.000936	20.682233
14.006131	-3.007400	3.904500	-11.742000	21.016299	0.000934	20.690572
15.004329	-3.000800	3.902000	-11.707000	21.018104	0.000934	20.668667
16.004617	-3.007200	3.901300	-11.730000	21.018104	0.000936	20.666770
17.003638	-2.998600	3.899600	-11.692000	21.019631	0.000934	20.689163
18.004280	-3.000200	3.899000	-11.696000	21.020530	0.000932	20.671094
19.005730	-3.000800	3.899100	-11.699000	21.024428	0.000933	20.677364
20.005342	-2.988800	3.897800	-11.649000	21.019835	0.000932	20.684150
21.008285	-3.008600	3.896000	-11.721000	21.030264	0.000932	20.678934
22.005694	-3.017500	3.895000	-11.751000	21.022760	0.000931	20.682808
23.005638	-3.010000	3.895500	-11.724000	21.029175	0.000930	20.689225
24.011359	-3.017600	3.893600	-11.749000	21.061116	0.000930	20.667591
25.007381	-2.983200	3.894000	-11.616000	21.071699	0.000929	20.671539
26.008046	-2.976500	3.894400	-11.591000	21.072198	0.000928	20.675832
27.008195	-3.012900	3.892400	-11.726000	21.082904	0.000929	20.661409
28.009830	-3.009000	3.890600	-11.706000	21.088999	0.000928	20.665609
29.010235	-3.010100	3.890300	-11.709000	21.077942	0.000927	20.668775
30.013673	-2.994200	3.891200	-11.650000	21.088975	0.000926	20.660843
31.009183	-3.015700	3.889200	-11.728000	21.097809	0.000926	20.673948
32.011472	-2.991700	3.889600	-11.635000	21.110755	0.000926	20.688796
33.011229	-2.998900	3.888600	-11.660000	21.102883	0.000925	20.682817
34.012510	-2.985400	3.889100	-11.610000	21.135436	0.000925	20.687405
35.016886	-3.013100	3.887000	-11.710000	21.114291	0.000926	20.685220
36.012800	-2.994700	3.887600	-11.641000	21.117830	0.000925	20.665999
37.014107	-3.027400	3.885000	-11.761000	21.119782	0.000923	20.693559
38.012238	-3.001100	3.885400	-11.659000	21.153504	0.000923	20.701213
39.012216	-2.999800	3.884900	-11.653000	21.149220	0.000924	20.687917
40.014044	-3.004600	3.885200	-11.673000	21.164592	0.000924	20.675792
41.017004	-2.995300	3.885600	-11.637000	21.164013	0.000922	20.686593
42.012798	-2.997700	3.883900	-11.642000	21.146537	0.000923	20.675275
43.013450	-3.000600	3.883900	-11.654000	21.159329	0.000923	20.684278
44.014630	-2.997800	3.884100	-11.643000	21.168767	0.000922	20.663845
45.012866	-2.992200	3.882600	-11.616000	21.185535	0.000921	20.706702
46.018174	-3.008600	3.881500	-11.676000	21.151081	0.000921	20.692150
47.015780	-3.024000	3.881600	-11.737000	21.186385	0.000920	20.676729
48.016306	-3.002100	3.881200	-11.650000	21.204927	0.000922	20.669198
49.015984	-3.005500	3.880400	-11.661000	21.188811	0.000922	20.694805
50.014031	-2.988000	3.881400	-11.596000	21.197602	0.000921	20.677045
51.017212	-2.995000	3.880800	-11.622000	21.209673	0.000920	20.690544
52.014070	-3.004500	3.879500	-11.653000	21.210695	0.000920	20.699627
53.020419	-2.991900	3.880100	-11.608000	21.233527	0.000920	20.699708
54.016084	-2.995100	3.878700	-11.615000	21.212752	0.000918	20.687934
55.016241	-2.992400	3.878900	-11.606000	21.239572	0.000920	20.718085
56.015569	-2.980300	3.880200	-11.563000	21.239123	0.000919	20.685865
57.017104	-3.000700	3.879400	-11.638000	21.251428	0.000918	20.694382
58.016317	-2.998800	3.877900	-11.629000	21.251010	0.000919	20.676893
59.016905	-2.979500	3.878400	-11.555000	21.242676	0.000917	20.686100
60.014976	-2.996100	3.878200	-11.619000	21.261216	0.000919	20.691372
61.015482	-3.004200	3.876100	-11.644000	21.289580	0.000919	20.685134
62.018345	-2.977400	3.878100	-11.546000	21.286989	0.000917	20.691551
63.016935	-2.988800	3.877400	-11.588000	21.277836	0.000918	20.687610
64.017048	-3.001200	3.874600	-11.627000	21.311919	0.000919	20.689938
65.018941	-2.999400	3.876100	-11.625000	21.298272	0.000918	20.697150
66.017302	-2.995900	3.875600	-11.610000	21.302545	0.000917	20.697157
67.022095	-3.001900	3.875200	-11.631000	21.317304	0.000918	20.690585
68.019117	-3.013000	3.875300	-11.674000	21.338189	0.000918	20.698678
69.021100	-2.977900	3.876000	-11.541000	21.334127	0.000917	20.692242
70.019600	-2.997400	3.874000	-11.611000	21.356359	0.000919	20.706426
71.020188	-2.983300	3.875900	-11.562000	21.349029	0.000915	20.703359
72.022151	-2.986600	3.874700	-11.571000	21.378338	0.000917	20.691905
73.020298	-2.999500	3.874000	-11.618000	21.380136	0.000920	20.685168
74.019639	-2.984100	3.874900	-11.563000	21.354298	0.000917	20.708632
75.020190	-2.985500	3.874600	-11.567000	21.382832	0.000917	20.702091
76.019772	-2.999400	3.873600	-11.618000	21.387325	0.000917	20.694732
77.022589	-3.001400	3.872900	-11.623000	21.401223	0.000918	20.711958
78.022411	-3.011900	3.871800	-11.660000	21.376481	0.000916	20.706169
79.020546	-2.980400	3.872900	-11.542000	21.405962	0.000918	20.697732
80.021078	-3.015300	3.870200	-11.669000	21.417139	0.000917	20.711287
81.020927	-2.988400	3.871300	-11.568000	21.423503	0.000918	20.726664
82.022831	-2.994200	3.871300	-11.589000	21.409662	0.000918	20.714711
83.024644	-3.012200	3.869700	-11.655000	21.428094	0.000918	20.688107
84.021415	-2.994600	3.871200	-11.592000	21.459403	0.000916	20.689562
85.031718	-2.994100	3.870500	-11.588000	21.469656	0.000916	20.710728
86.022174	-3.002500	3.869600	-11.617000	21.462148	0.000916	20.694205
87.023593	-2.989800	3.871500	-11.574000	21.462751	0.000918	20.710932
88.025596	-2.995600	3.871200	-11.595000	21.452382	0.000916	20.711936
89.026944	-3.007800	3.869100	-11.637000	21.479590	0.000914	20.700278
90.022721	-3.024200	3.867200	-11.694000	21.481018	0.000917	20.723046
91.022996	-2.995300	3.868900	-11.588000	21.479270	0.000917	20.701855
92.022682	-2.998500	3.867300	-11.596000	21.478403	0.000918	20.718058
93.023972	-3.016000	3.868400	-11.665000	21.505708	0.000917	20.712663
94.028018	-2.979600	3.869000	-11.528000	21.500619	0.000916	20.724167
95.025204	-2.980300	3.868900	-11.530000	21.507014	0.000917	20.708754
96.030711	-2.984300	3.869000	-11.545000	21.513322	0.000918	20.728817
97.028717	-3.003200	3.868300	-11.616000	21.517063	0.000917	20.724500
98.027303	-3.017100	3.866000	-11.663000	21.540314	0.000918	20.731170
99.030094	-2.994800	3.867900	-11.583000	21.511661	0.000917	20.722888
100.028593	-2.970300	3.868000	-11.488000	21.559348	0.000917	20.675296
101.032857	-2.997600	3.866500	-11.589000	21.557428	0.000915	20.722217
102.028101	-3.031300	3.864500	-11.714000	21.559502	0.000918	20.715283
103.027564	-3.015800	3.866700	-11.658000	21.578586	0.000919	20.711619
104.028642	-3.009900	3.865700	-11.634000	21.595644	0.000917	20.718732
105.028109	-3.025400	3.865300	-11.694000	21.583503	0.000917	20.752578
106.028863	-2.998900	3.866300	-11.593000	21.601975	0.000917	20.721275
107.035932	-2.993100	3.866100	-11.571000	21.623655	0.000917	20.737281
108.028174	-3.020000	3.865000	-11.672000	21.631710	0.000917	20.723530
109.029533	-3.017800	3.864600	-11.662000	21.624985	0.000917	20.715852
110.034410	-2.974700	3.866500	-11.500000	21.623890	0.000919	20.723765
111.029630	-3.012400	3.864100	-11.639000	21.646110	0.000918	20.719449
112.030654	-2.999000	3.863300	-11.585000	21.633822	0.000916	20.737025
113.030540	-3.020600	3.862200	-11.664000	21.633693	0.000918	20.731205
114.032648	-2.999300	3.863100	-11.584000	21.650634	0.000919	20.731563
115.032907	-3.007500	3.863200	-11.616000	21.643755	0.000917	20.727524
116.034357	-3.013700	3.863500	-11.642000	21.626519	0.000917	20.721654
117.030671	-3.003500	3.862400	-11.599000	21.659397	0.000920	20.732746
118.031855	-3.010900	3.862900	-11.630000	21.651515	0.000918	20.731022
119.031806	-3.003600	3.863600	-11.604000	21.663858	0.000919	20.732943
120.031264	-2.995800	3.862800	-11.570000	21.655459	0.000918	20.729280
121.034471	-3.014600	3.862600	-11.644000	21.647184	0.000918	20.746603
122.031637	-3.005200	3.862100	-11.605000	21.692268	0.000918	20.725339
123.035931	-2.995200	3.863000	-11.569000	21.658678	0.000918	20.727759
124.032749	-2.983700	3.862900	-11.524000	21.666739	0.000921	20.733930
125.032489	-3.008500	3.861100	-11.615000	21.697430	0.000918	20.738092
126.034311	-3.010600	3.861800	-11.626000	21.700077	0.000919	20.730309
127.031927	-2.994800	3.861900	-11.565000	21.728805	0.000921	20.727291
128.033435	-2.997800	3.861800	-11.576000	21.732904	0.000919	20.730446
129.032731	-3.006000	3.860100	-11.602000	21.739031	0.000921	20.765503
130.032769	-3.003100	3.861300	-11.594000	21.745671	0.000920	20.728524
131.034703	-2.997700	3.860900	-11.573000	21.767292	0.000921	20.757277
132.036235	-3.005100	3.858700	-11.595000	21.742909	0.000920	20.740934
133.034522	-3.020200	3.859200	-11.653000	21.764906	0.000924	20.743982
134.037419	-2.997400	3.860300	-11.570000	21.751739	0.000922	20.729381
135.034207	-2.982100	3.860300	-11.511000	21.764505	0.000919	20.742159
136.036539	-3.004000	3.859000	-11.591000	21.784729	0.000923	20.746754
137.040465	-3.018300	3.858600	-11.645000	21.791934	0.000922	20.746378
138.036748	-3.017400	3.858300	-11.642000	21.817639	0.000922	20.764993
139.040545	-3.010200	3.858900	-11.615000	21.805753	0.000924	20.734604
140.038285	-2.978800	3.859400	-11.496000	21.834903	0.000922	20.739125
141.037640	-3.011800	3.859000	-11.622000	21.826801	0.000924	20.746188
142.040360	-3.000800	3.857800	-11.576000	21.847318	0.000923	20.757716
143.041642	-2.985500	3.858300	-11.518000	21.835223	0.000924	20.753195
144.037536	-3.004100	3.857000	-11.585000	21.832005	0.000924	20.776054
145.038177	-3.004400	3.858000	-11.589000	21.843971	0.000925	20.775228
146.037880	-2.993700	3.858700	-11.550000	21.855512	0.000925	20.753589
147.039224	-2.998200	3.858700	-11.568000	21.868050	0.000924	20.753336
148.038613	-3.018000	3.855700	-11.635000	21.877124	0.000926	20.751987
149.038723	-2.983800	3.858500	-11.511000	21.873015	0.000927	20.750719
150.041511	-2.999600	3.857900	-11.571000	21.862144	0.000927	20.747425
151.040931	-3.018800	3.856300	-11.640000	21.873131	0.000927	20.755103
152.041986	-3.000400	3.857600	-11.573000	21.896718	0.000926	20.755478
153.045115	-2.997200	3.857000	-11.559000	21.892897	0.000927	20.757344
154.041704	-3.011800	3.857000	-11.614000	21.870861	0.000927	20.759469
155.043288	-3.004700	3.857000	-11.588000	21.894939	0.000928	20.776458
156.041670	-2.985500	3.856100	-11.511000	21.897627	0.000929	20.756863
157.045048	-3.002400	3.855900	-11.576000	21.909396	0.000928	20.777652
158.045213	-3.010600	3.855300	-11.605000	21.918870	0.000929	20.766272
159.043767	-3.005800	3.855200	-11.586000	21.910410	0.000930	20.768236
160.042905	-2.995300	3.854900	-11.545000	21.924115	0.000930	20.754453
161.042787	-2.977700	3.856500	-11.483000	21.946582	0.000929	20.773624
162.043072	-3.007200	3.854400	-11.589000	21.937200	0.000932	20.768025
163.044383	-3.025600	3.854200	-11.660000	21.965466	0.000931	20.760758
164.041932	-3.009500	3.854800	-11.599000	21.990921	0.000931	20.757316
165.046339	-3.014300	3.854700	-11.618000	21.980181	0.000931	20.792558
166.042901	-3.023000	3.854000	-11.648000	21.987697	0.000931	20.769736
167.043974	-3.012900	3.852900	-11.605000	21.999612	0.000932	20.778818
168.047460	-2.988000	3.854400	-11.515000	21.977571	0.000931	20.753435
169.044357	-3.002000	3.851700	-11.561000	22.006415	0.000932	20.771404
170.044240	-3.002200	3.854000	-11.569000	22.014289	0.000933	20.784501
171.044068	-2.992100	3.852300	-11.525000	22.007380	0.000932	20.766680
172.043324	-2.990200	3.853000	-11.520000	22.002718	0.000934	20.776711
173.043173	-3.019100	3.853300	-11.632000	22.030565	0.000934	20.781829
174.045811	-3.006500	3.851800	-11.578000	22.049559	0.000933	20.783774
175.046233	-2.991300	3.852500	-11.522000	22.034347	0.000934	20.789408
176.045596	-2.982600	3.851900	-11.487000	22.072101	0.000935	20.786901
177.046482	-2.996200	3.852100	-11.540000	22.045560	0.000934	20.781667
178.044658	-3.006700	3.852200	-11.581000	22.063035	0.000935	20.792050
179.047217	-3.011300	3.851100	-11.596000	22.053335	0.000936	20.779967
180.045516	-2.988000	3.852000	-11.508000	22.093691	0.000935	20.810412
181.049523	-2.990400	3.850700	-11.514000	22.095888	0.000937	20.801705
182.045303	-2.999300	3.851900	-11.551000	22.103311	0.000936	20.779739
183.045334	-2.995900	3.850400	-11.534000	22.082767	0.000938	20.787621
184.047966	-3.028500	3.848800	-11.654000	22.126967	0.000939	20.812905
185.049416	-2.992300	3.849300	-11.517000	22.115551	0.000938	20.810011
186.045684	-2.995500	3.851400	-11.536000	22.131051	0.000938	20.793760
187.046456	-2.998800	3.848500	-11.540000	22.133173	0.000939	20.817696
188.045984	-3.018000	3.849100	-11.615000	22.129735	0.000938	20.794340
189.045178	-2.999000	3.849000	-11.543000	22.127539	0.000940	20.804943
190.047854	-3.012100	3.849100	-11.593000	22.121031	0.000939	20.787997
191.046152	-3.018000	3.847300	-11.610000	22.124175	0.000941	20.791618
192.045780	-3.018100	3.847700	-11.611000	22.150272	0.000941	20.817271
193.047852	-3.020900	3.847500	-11.622000	22.159245	0.000942	20.803970
194.047276	-2.997500	3.847300	-11.530000	22.173828	0.000942	20.800079
195.049935	-2.984700	3.847700	-11.483000	22.176965	0.000941	20.799900
196.048352	-3.004000	3.846900	-11.555000	22.180164	0.000943	20.816379
197.050739	-2.999800	3.846500	-11.537000	22.202945	0.000941	20.809316
198.048749	-2.998400	3.847700	-11.537000	22.194666	0.000944	20.815726
199.052290	-3.003400	3.846300	-11.551000	22.208554	0.000944	20.815406
200.051625	-3.010600	3.846200	-11.578000	22.209575	0.000946	20.810738
201.050411	-3.010700	3.846100	-11.579000	22.190762	0.000945	20.828411
202.052002	-3.010900	3.845300	-11.577000	22.202324	0.000946	20.821970
203.051528	-3.009000	3.846000	-11.572000	22.211248	0.000945	20.818577
204.052325	-3.008200	3.845700	-11.568000	22.207828	0.000947	20.833170
205.053689	-2.989500	3.846000	-11.496000	22.207859	0.000947	20.809021
206.054807	-2.998700	3.846700	-11.534000	22.232558	0.000948	20.815258
207.050652	-2.984900	3.845900	-11.479000	22.216587	0.000946	20.812543
208.052166	-3.007700	3.844400	-11.562000	22.223315	0.000947	20.817857
209.051176	-3.018300	3.845000	-11.604000	22.230745	0.000946	20.819606
210.052209	-2.981800	3.846000	-11.467000	22.245948	0.000946	20.821552
211.058155	-2.997200	3.844500	-11.520000	22.237775	0.000949	20.808153
212.052844	-2.994500	3.845000	-11.512000	22.260277	0.000947	20.812192
213.057072	-2.984700	3.845700	-11.477000	22.253353	0.000948	20.818535
214.051919	-3.002500	3.843900	-11.539000	22.256717	0.000948	20.813843
215.051696	-3.010000	3.844100	-11.570000	22.262171	0.000951	20.829735
216.057920	-2.999300	3.843500	-11.526000	22.264318	0.000951	20.823824
217.053303	-3.004600	3.843700	-11.547000	22.276735	0.000953	20.815395
218.053854	-2.971800	3.843700	-11.421000	22.298290	0.000951	20.817063
219.054402	-2.994400	3.842900	-11.506000	22.309802	0.000950	20.812470
220.054691	-3.001300	3.843100	-11.533000	22.315663	0.000953	20.803640
221.054999	-2.982400	3.842900	-11.459000	22.326523	0.000952	20.801712
222.058600	-3.022200	3.840800	-11.605000	22.351619	0.000954	20.810721
223.055195	-2.989000	3.842100	-11.484000	22.339259	0.000954	20.813516
224.056064	-3.001500	3.842800	-11.533000	22.363545	0.000954	20.800377
225.055675	-2.994700	3.841900	-11.504000	22.389335	0.000953	20.816245
226.056742	-3.016200	3.841500	-11.586000	22.377897	0.000955	20.792464
227.059968	-2.985900	3.841100	-11.468000	22.366656	0.000954	20.809656
228.057442	-3.008500	3.839500	-11.550000	22.395448	0.000954	20.821418
229.058824	-2.988300	3.842200	-11.481000	22.387251	0.000955	20.799934
230.059608	-2.983100	3.841300	-11.458000	22.418617	0.000956	20.812378
231.058865	-3.010100	3.838800	-11.553000	22.410077	0.000955	20.796714
232.060649	-2.999400	3.839800	-11.516000	22.397465	0.000957	20.822964
233.060270	-3.016800	3.838200	-11.577000	22.399783	0.000959	20.817225
234.059976	-2.996600	3.839400	-11.503000	22.380296	0.000957	20.798185
235.059865	-2.999000	3.839900	-11.515000	22.371128	0.000958	20.790901
236.059539	-3.007700	3.838600	-11.544000	22.386704	0.000958	20.792748
237.065164	-3.019600	3.837900	-11.588000	22.376687	0.000957	20.777027
238.060674	-3.000000	3.839300	-11.517000	22.366221	0.000958	20.813014
239.061648	-2.989800	3.838200	-11.474000	22.381127	0.000961	20.802811
240.063720	-2.990400	3.838600	-11.477000	22.403087	0.000958	20.796826
241.061374	-2.976900	3.838900	-11.427000	22.431545	0.000960	20.809677
242.065155	-2.985800	3.839300	-11.461000	22.433242	0.000960	20.782454
243.066862	-3.005100	3.837200	-11.531000	22.445128	0.000961	20.784399
244.065250	-3.017300	3.836600	-11.575000	22.451062	0.000963	20.804567
245.068067	-2.995000	3.838400	-11.495000	22.463576	0.000963	20.795287
246.063009	-2.974500	3.838400	-11.415000	22.477731	0.000963	20.796186
247.064991	-3.015800	3.837100	-11.571000	22.482914	0.000962	20.799955
248.065333	-2.995100	3.837500	-11.492000	22.500334	0.000963	20.766666
249.070084	-3.002100	3.837800	-11.521000	22.482195	0.000964	20.789278
250.065694	-2.985900	3.836100	-11.453000	22.502147	0.000966	20.802621
251.066555	-3.008700	3.836200	-11.539000	22.488971	0.000966	20.788003
252.066284	-3.009600	3.836500	-11.543000	22.523680	0.000968	20.799530
253.064928	-3.003100	3.836600	-11.520000	22.494179	0.000965	20.785158
254.068153	-2.992100	3.837300	-11.480000	22.518251	0.000968	20.776075
255.066291	-2.991400	3.836000	-11.473000	22.507916	0.000967	20.779475
256.066611	-3.003400	3.835100	-11.517000	22.524251	0.000967	20.776395
257.065763	-3.002900	3.834700	-11.514000	22.545360	0.000969	20.762921
258.066344	-3.014200	3.834200	-11.556000	22.526219	0.000971	20.785478
259.068022	-2.995100	3.834500	-11.484000	22.529508	0.000969	20.775021
260.067501	-2.979900	3.834700	-11.425000	22.553524	0.000973	20.793384
261.070537	-3.023100	3.833000	-11.587000	22.561056	0.000970	20.767737
262.068831	-2.997200	3.833400	-11.487000	22.565514	0.000975	20.762718
263.069106	-3.011200	3.833200	-11.541000	22.573513	0.000972	20.759824
264.071673	-3.001900	3.834100	-11.508000	22.578566	0.000974	20.775316
265.069384	-3.002400	3.832500	-11.506000	22.576248	0.000974	20.777736
266.070645	-2.989300	3.832800	-11.456000	22.587831	0.000975	20.776535
267.070343	-3.001600	3.831600	-11.499000	22.607584	0.000975	20.790156
268.069219	-3.005900	3.832500	-11.519000	22.599789	0.000976	20.762433
269.071670	-3.002400	3.831700	-11.502000	22.583016	0.000977	20.779774
270.073365	-3.011100	3.831200	-11.535000	22.589939	0.000975	20.763947
271.069073	-2.985100	3.833100	-11.440000	22.590184	0.000976	20.785056
272.070098	-3.012100	3.831000	-11.539000	22.587368	0.000977	20.767063
273.069436	-2.994800	3.832100	-11.475000	22.578735	0.000978	20.772166
274.069405	-3.004600	3.830300	-11.507000	22.575438	0.000978	20.775029
275.072938	-3.010800	3.830900	-11.533000	22.575593	0.000979	20.761433
276.069859	-3.005900	3.829800	-11.510000	22.568737	0.000980	20.786335
277.074636	-3.016800	3.829100	-11.550000	22.576077	0.000981	20.781358
278.070915	-2.989100	3.829400	-11.445000	22.570967	0.000981	20.769603
279.072134	-3.010300	3.830400	-11.529000	22.590371	0.000982	20.773863
280.071819	-3.013800	3.828500	-11.536000	22.609601	0.000981	20.767046
281.071781	-2.995700	3.829000	-11.469000	22.607203	0.000982	20.778394
282.071666	-2.993400	3.828500	-11.459000	22.634695	0.000981	20.765627
283.071620	-3.000700	3.828200	-11.486000	22.622952	0.000981	20.747226
284.070724	-2.997400	3.829900	-11.477000	22.630071	0.000983	20.771427
285.071684	-3.017000	3.827700	-11.547000	22.650868	0.000982	20.749583
286.074340	-3.015900	3.827500	-11.542000	22.660704	0.000984	20.792153
287.072851	-3.006100	3.829000	-11.510000	22.672858	0.000983	20.781093
288.073368	-3.003000	3.828200	-11.495000	22.687151	0.000983	20.760795
289.072641	-3.008700	3.828400	-11.518000	22.678697	0.000984	20.771768
290.073115	-2.995900	3.827400	-11.466000	22.691422	0.000984	20.777402
291.075646	-2.985400	3.827700	-11.426000	22.659618	0.000985	20.773995
292.074393	-2.991200	3.827600	-11.448000	22.658321	0.000986	20.783127
293.075391	-2.995900	3.827400	-11.465000	22.685247	0.000985	20.795874
294.073451	-2.982000	3.827900	-11.413000	22.671144	0.000985	20.757565
295.075179	-2.986000	3.827800	-11.429000	22.682726	0.000987	20.781969
296.076136	-3.014700	3.826000	-11.533000	22.717521	0.000988	20.754706
297.078143	-3.006300	3.825600	-11.499000	22.708022	0.000988	20.766055
298.075416	-3.007300	3.825200	-11.503000	22.719905	0.000989	20.769897
299.076941	-3.016100	3.826200	-11.538000	22.734653	0.000988	20.773290
300.075458	-3.007200	3.824300	-11.499000	22.726796	0.000988	20.760204
301.078530	-2.996400	3.825000	-11.460000	22.774523	0.000992	20.769132
302.075920	-3.002600	3.824000	-11.480000	22.777486	0.000989	20.763565
303.075783	-3.000800	3.825000	-11.477000	22.773520	0.000991	20.770973
304.078834	-3.006600	3.825600	-11.501000	22.786774	0.000991	20.776663
305.075625	-2.978100	3.825400	-11.391000	22.778229	0.000991	20.776164
306.077904	-3.016400	3.824700	-11.536000	22.766291	0.000992	20.781749
307.076050	-3.021100	3.823300	-11.549000	22.750344	0.000994	20.783319
308.077250	-3.003100	3.825600	-11.487000	22.751463	0.000992	20.770689
309.075248	-2.998400	3.822500	-11.461000	22.710502	0.000992	20.782764
310.077833	-3.014400	3.823600	-11.524000	22.753041	0.000993	20.795029
311.078841	-3.029200	3.821700	-11.576000	22.754671	0.000994	20.778644
312.081322	-3.001800	3.823500	-11.477000	22.776943	0.000994	20.760651
313.078538	-3.017100	3.821800	-11.529000	22.789225	0.000995	20.772480
314.075967	-2.998400	3.823000	-11.461000	22.803474	0.000993	20.784857
315.077401	-2.995600	3.824000	-11.454000	22.807180	0.000995	20.778139
316.078268	-3.015900	3.822200	-11.526000	22.815472	0.000998	20.769376
317.079866	-3.001000	3.820900	-11.464000	22.835400	0.000996	20.768951
318.077721	-3.025100	3.821500	-11.559000	22.815103	0.000999	20.757152
319.082882	-3.003000	3.821800	-11.475000	22.821699	0.000998	20.754750
320.078908	-3.001200	3.820900	-11.466000	22.816418	0.000999	20.783126
321.079097	-2.984400	3.821800	-11.403000	22.817242	0.001001	20.755028
322.084925	-3.008800	3.820400	-11.494000	22.848905	0.001000	20.780583
323.080414	-2.978400	3.821500	-11.380000	22.832627	0.001000	20.757163
324.079906	-3.013700	3.818900	-11.507000	22.862925	0.001002	20.768076
325.080035	-3.006300	3.819400	-11.482000	22.863023	0.001003	20.766278
326.081448	-2.996200	3.819600	-11.443000	22.884167	0.001003	20.768494
327.081068	-2.991600	3.818600	-11.422000	22.898937	0.001003	20.774283
328.086491	-2.983200	3.818000	-11.389000	22.892753	0.001004	20.751017
329.082739	-2.989100	3.819000	-11.415000	22.890418	0.001003	20.755790
330.083471	-2.996900	3.818700	-11.442000	22.895071	0.001004	20.765667
331.082292	-3.002100	3.818100	-11.461000	22.924340	0.001004	20.753739
332.083990	-2.991700	3.818300	-11.422000	22.938156	0.001004	20.749563
333.088002	-3.005900	3.817200	-11.473000	22.923110	0.001005	20.747291
334.082246	-2.984500	3.817400	-11.392000	22.929108	0.001004	20.747136
335.085108	-2.973300	3.817900	-11.349000	22.934486	0.001005	20.756792
336.087927	-3.001800	3.817600	-11.459000	22.936453	0.001006	20.753072
337.086075	-3.031000	3.816100	-11.565000	22.935899	0.001006	20.753466
338.087606	-3.011200	3.815500	-11.488000	22.941456	0.001006	20.752869
339.086081	-2.991500	3.815100	-11.411000	22.955377	0.001005	20.779619
340.086074	-2.998000	3.816900	-11.443000	22.967822	0.001007	20.767906
341.087106	-3.005700	3.815600	-11.467000	22.939679	0.001008	20.742079
342.089524	-3.008000	3.813800	-11.470000	22.960649	0.001007	20.763090
343.088557	-2.998000	3.815400	-11.438000	22.968344	0.001009	20.751359
344.090062	-2.999400	3.816100	-11.445000	22.957256	0.001008	20.758268
345.088376	-3.003800	3.813800	-11.455000	22.952352	0.001006	20.759518
346.091392	-3.000100	3.813500	-11.440000	22.978367	0.001008	20.762824
347.089764	-3.003300	3.813700	-11.453000	22.965694	0.001009	20.760558
348.089447	-3.017000	3.812900	-11.503000	22.991145	0.001008	20.765195
349.091299	-3.009600	3.812900	-11.475000	22.974311	0.001008	20.773933
350.088872	-3.002400	3.814000	-11.450000	22.952664	0.001009	20.747029
351.089560	-2.984300	3.815000	-11.385000	22.957821	0.001013	20.744134
352.091716	-2.997100	3.812700	-11.424000	22.962196	0.001011	20.751363
353.090791	-3.010300	3.812500	-11.476000	22.965516	0.001012	20.760853
354.089998	-2.979500	3.813200	-11.360000	22.968103	0.001011	20.749695
355.092939	-3.004600	3.811600	-11.451000	22.977039	0.001011	20.752958
356.090943	-3.003900	3.811700	-11.449000	22.988821	0.001013	20.744374
357.091339	-2.986800	3.811700	-11.384000	22.997647	0.001013	20.751795
358.090827	-2.997300	3.810300	-11.420000	23.022999	0.001014	20.744005
359.091575	-2.988800	3.810300	-11.388000	23.045769	0.001013	20.758760
360.094740	-2.991600	3.811300	-11.401000	23.031124	0.001014	20.762104
361.089568	-2.998000	3.811000	-11.423000	23.056205	0.001013	20.719902
362.091372	-2.960800	3.811100	-11.283000	23.065571	0.001016	20.744935
363.090225	-2.998600	3.809800	-11.423000	23.045973	0.001014	20.741893
364.090059	-3.006300	3.811000	-11.456000	23.061336	0.001016	20.745434
365.091800	-3.031600	3.807500	-11.541000	23.038801	0.001016	20.739449
366.090915	-3.030800	3.809200	-11.544000	23.023633	0.001017	20.738950
367.090724	-2.990800	3.810200	-11.393000	23.034615	0.001018	20.761334
368.091207	-2.998700	3.809700	-11.423000	23.049839	0.001019	20.736284
369.090395	-2.970200	3.809700	-11.315000	23.039323	0.001016	20.728118
370.091870	-3.002600	3.808700	-11.434000	23.045653	0.001017	20.716916
371.091891	-3.003300	3.808900	-11.437000	23.061263	0.001020	20.729712
372.093356	-3.025300	3.807600	-11.518000	23.063408	0.001019	20.738974
373.096456	-3.008200	3.807300	-11.452000	23.048321	0.001020	20.753256
374.094160	-2.967200	3.809000	-11.300000	23.058553	0.001021	20.744542
375.092936	-3.008600	3.806200	-11.451000	23.046004	0.001020	20.756624
376.097844	-3.003600	3.807300	-11.434000	23.051749	0.001020	20.738198
377.095712	-2.987300	3.806500	-11.368000	23.036760	0.001021	20.747836
378.097006	-3.001000	3.805400	-11.419000	23.041714	0.001022	20.741893
379.094684	-3.012400	3.806000	-11.465000	23.027419	0.001022	20.733734
380.095355	-3.007700	3.805100	-11.443000	23.035390	0.001022	20.727970
381.096003	-3.023500	3.804200	-11.500000	23.045051	0.001022	20.725322
382.098936	-3.002400	3.805100	-11.424000	23.028733	0.001022	20.733155
383.101160	-3.001200	3.805800	-11.421000	23.046618	0.001024	20.732108
384.094971	-3.007000	3.805200	-11.441000	23.060839	0.001022	20.749203
385.096154	-3.017800	3.804300	-11.480000	23.081604	0.001024	20.740137
386.099238	-3.011500	3.803700	-11.454000	23.112018	0.001023	20.743112
387.097334	-3.005700	3.804400	-11.434000	23.113080	0.001024	20.714304
388.097905	-3.005600	3.804200	-11.433000	23.117770	0.001023	20.736548
389.099075	-2.996700	3.801900	-11.393000	23.141079	0.001025	20.733351
390.097227	-3.001400	3.803200	-11.414000	23.185010	0.001026	20.740390
391.097775	-3.013900	3.803500	-11.462000	23.152540	0.001027	20.737724
392.101214	-2.985900	3.805000	-11.360000	23.166132	0.001026	20.721946
393.096843	-3.006200	3.802900	-11.431000	23.131812	0.001026	20.704149
394.099042	-3.001400	3.802500	-11.412000	23.141422	0.001029	20.723738
395.098372	-3.013400	3.802000	-11.457000	23.160847	0.001026	20.733246
396.103948	-3.001600	3.802100	-11.412000	23.168663	0.001027	20.710731
397.098419	-3.009900	3.801200	-11.440000	23.146007	0.001029	20.738290
398.099986	-3.001200	3.801700	-11.408000	23.147770	0.001029	20.736264
399.099062	-3.013000	3.801500	-11.452000	23.144409	0.001028	20.706341
400.099258	-3.007400	3.800300	-11.427000	23.182735	0.001029	20.731473
401.100959	-3.007200	3.801000	-11.429000	23.174538	0.001030	20.719464
402.100656	-2.996300	3.800500	-11.386000	23.199443	0.001030	20.739207
403.101666	-3.012500	3.799100	-11.444000	23.220010	0.001028	20.707184
404.101927	-2.998100	3.800000	-11.391000	23.222123	0.001029	20.725424
405.102671	-3.005900	3.798200	-11.416000	23.243796	0.001029	20.719168
406.105392	-2.993400	3.798500	-11.369000	23.241823	0.001029	20.733787
407.103121	-3.001700	3.799400	-11.404000	23.228803	0.001030	20.720264
408.106684	-2.999000	3.797600	-11.387000	23.251489	0.001030	20.731146
409.104824	-2.995400	3.798100	-11.375000	23.255821	0.001031	20.709407
410.105316	-2.993600	3.798100	-11.369000	23.293001	0.001031	20.708736
411.104433	-2.996600	3.797500	-11.379000	23.276768	0.001031	20.701950
412.108102	-2.999700	3.797700	-11.390000	23.283889	0.001032	20.726158
413.104553	-2.998600	3.798000	-11.388000	23.260934	0.001034	20.706945
414.104521	-3.014900	3.796800	-11.446000	23.268332	0.001034	20.746130
415.104655	-3.014400	3.797100	-11.444000	23.252719	0.001034	20.702505
416.105254	-2.995800	3.797700	-11.376000	23.285217	0.001034	20.711841
417.109168	-3.010300	3.794500	-11.421000	23.259546	0.001035	20.727840
418.105493	-2.968900	3.796100	-11.269000	23.270901	0.001036	20.709347
419.108963	-3.013200	3.794900	-11.434000	23.285942	0.001033	20.704507
420.106460	-2.969700	3.796700	-11.273000	23.280142	0.001037	20.718609
421.110759	-3.001300	3.794200	-11.387000	23.265132	0.001035	20.721110
422.109778	-3.014700	3.793700	-11.435000	23.254950	0.001036	20.709483
423.106632	-2.993500	3.793000	-11.353000	23.254372	0.001037	20.684246
424.105974	-2.982700	3.794300	-11.316000	23.257015	0.001038	20.682152
425.107083	-3.020200	3.792500	-11.454000	23.277692	0.001036	20.694341
426.108756	-2.982400	3.793700	-11.314000	23.267830	0.001037	20.682085
427.107476	-3.009100	3.793800	-11.415000	23.266361	0.001037	20.690572
428.109397	-2.992700	3.794000	-11.352000	23.291338	0.001036	20.696638
429.108727	-2.985900	3.794100	-11.328000	23.299812	0.001037	20.708450
430.109227	-2.971700	3.794300	-11.275000	23.278687	0.001037	20.688225
431.109908	-3.006300	3.791400	-11.396000	23.268488	0.001039	20.693178
432.110021	-3.012500	3.791400	-11.421000	23.264857	0.001039	20.711351
433.111731	-2.985900	3.791000	-11.318000	23.276949	0.001040	20.695018
434.111536	-3.016200	3.789800	-11.430000	23.298540	0.001039	20.710020
435.113012	-3.005300	3.791700	-11.393000	23.294061	0.001039	20.692254
436.112669	-2.989900	3.791400	-11.333000	23.266049	0.001040	20.707330
437.113669	-2.986000	3.791500	-11.320000	23.295382	0.001040	20.695949
438.114499	-3.010200	3.790100	-11.408000	23.280863	0.001039	20.690406
439.115037	-3.009500	3.790300	-11.406000	23.303849	0.001041	20.690209
440.114182	-2.996100	3.789600	-11.352000	23.304396	0.001042	20.696448
441.115495	-3.013500	3.789500	-11.418000	23.331191	0.001040	20.692008
442.115272	-3.005600	3.789900	-11.389000	23.327609	0.001041	20.690315
443.115272	-3.002100	3.788700	-11.372000	23.349298	0.001042	20.663686
444.115988	-3.009600	3.787400	-11.397000	23.339394	0.001042	20.690272
445.115070	-2.992300	3.788200	-11.334000	23.359405	0.001042	20.679981
446.118514	-2.997700	3.787900	-11.354000	23.376043	0.001041	20.682906
447.114463	-3.011500	3.786400	-11.401000	23.396262	0.001042	20.682309
448.114718	-3.012400	3.787700	-11.408000	23.400895	0.001042	20.686953
449.122111	-3.011600	3.785500	-11.399000	23.394517	0.001043	20.664911
450.115888	-3.020800	3.785700	-11.435000	23.393904	0.001041	20.708871
451.115276	-3.010100	3.785700	-11.395000	23.409417	0.001042	20.692176
452.115263	-2.999500	3.786200	-11.355000	23.394654	0.001044	20.705829
453.118337	-2.998100	3.786800	-11.353000	23.404914	0.001043	20.681497
454.116843	-3.015000	3.785300	-11.412000	23.401984	0.001043	20.671922
455.121774	-3.010000	3.785400	-11.391000	23.430515	0.001046	20.663059
456.116856	-2.996700	3.785800	-11.344000	23.409129	0.001045	20.693784
457.117079	-3.006100	3.784500	-11.375000	23.387361	0.001045	20.689984
458.115705	-3.004100	3.784600	-11.369000	23.376960	0.001045	20.687145
459.116552	-2.999800	3.782800	-11.345000	23.333265	0.001045	20.685551
460.118632	-3.009500	3.783100	-11.385000	23.336275	0.001047	20.697578
461.116058	-3.011300	3.784100	-11.394000	23.338917	0.001045	20.687897
462.118710	-3.000600	3.783100	-11.349000	23.342327	0.001046	20.709808
463.117837	-2.996500	3.784400	-11.338000	23.349571	0.001044	20.690040
464.117910	-3.011500	3.782000	-11.387000	23.360385	0.001047	20.680963
465.118146	-3.001500	3.780900	-11.347000	23.351365	0.001046	20.684251
466.118713	-3.028200	3.780800	-11.449000	23.350738	0.001047	20.684097
467.119079	-2.991700	3.781700	-11.312000	23.373046	0.001047	20.703612
468.119442	-3.006500	3.781200	-11.366000	23.364026	0.001046	20.698839
469.119907	-3.014900	3.781900	-11.401000	23.340568	0.001048	20.701881
470.123665	-2.988900	3.780600	-11.297000	23.357323	0.001048	20.689749
471.121795	-3.000100	3.779600	-11.338000	23.374354	0.001049	20.679791
472.123395	-3.018600	3.779600	-11.408000	23.428596	0.001050	20.709978
473.121954	-3.016000	3.778100	-11.393000	23.419657	0.001048	20.702914
474.122286	-3.006100	3.778700	-11.358000	23.427667	0.001050	20.688657
475.123137	-3.020800	3.779200	-11.414000	23.456892	0.001050	20.680965
476.131495	-2.986800	3.781000	-11.291000	23.480715	0.001051	20.707692
477.125040	-2.995200	3.778800	-11.317000	23.498260	0.001051	20.684499
478.122049	-3.002200	3.778800	-11.343000	23.485537	0.001050	20.702567
479.121955	-3.021000	3.777700	-11.412000	23.513421	0.001049	20.712027
480.125510	-3.020500	3.777400	-11.408000	23.496109	0.001050	20.712217
481.125179	-3.016900	3.778900	-11.400000	23.495187	0.001050	20.685686
482.122973	-3.025100	3.776400	-11.422000	23.492987	0.001051	20.687275
483.122485	-3.010100	3.776600	-11.368000	23.507522	0.001050	20.711803
484.123072	-3.005200	3.776700	-11.349000	23.517897	0.001051	20.703710
485.123459	-3.014700	3.777000	-11.385000	23.498534	0.001052	20.703742
486.125539	-3.004400	3.775300	-11.340000	23.489743	0.001054	20.675961
487.123746	-3.013300	3.775500	-11.375000	23.487346	0.001051	20.686362
488.126802	-2.993900	3.775200	-11.302000	23.478279	0.001052	20.700981
489.124291	-3.005100	3.775500	-11.344000	23.473376	0.001050	20.700335
490.125208	-3.009200	3.775400	-11.360000	23.503748	0.001051	20.680991
491.130296	-3.008700	3.773900	-11.354000	23.505991	0.001054	20.720226
492.129080	-2.995900	3.775000	-11.307000	23.513682	0.001052	20.696640
493.125203	-3.020000	3.772400	-11.391000	23.545626	0.001051	20.702109
494.126253	-3.018600	3.774400	-11.392000	23.546596	0.001051	20.692175
495.127563	-3.013500	3.772700	-11.368000	23.548058	0.001052	20.715927
496.127542	-2.993600	3.773900	-11.297000	23.505063	0.001053	20.711235
497.130441	-2.999100	3.772700	-11.313000	23.539004	0.001053	20.688831
498.127764	-2.988500	3.773000	-11.274000	23.555903	0.001051	20.684908
499.127572	-3.007200	3.772300	-11.342000	23.548587	0.001052	20.701758
500.127461	-3.010800	3.770800	-11.351000	23.538776	0.001053	20.705200
501.127050	-2.995200	3.773900	-11.302000	23.562777	0.001053	20.704129
502.129719	-3.017300	3.772000	-11.380000	23.539298	0.001053	20.702878
503.128220	-2.994300	3.771100	-11.291000	23.565751	0.001054	20.699523
504.129473	-3.006900	3.770300	-11.335000	23.553169	0.001052	20.715836
505.129113	-3.012800	3.769800	-11.357000	23.592975	0.001053	20.702632
506.129429	-2.988000	3.771000	-11.267000	23.598713	0.001052	20.724033
507.128730	-2.980600	3.770900	-11.239000	23.632171	0.001052	20.692614
508.128508	-2.999000	3.770200	-11.305000	23.651710	0.001053	20.714574
509.128113	-3.001500	3.770400	-11.315000	23.626072	0.001054	20.709260
510.130419	-2.995200	3.769900	-11.290000	23.624506	0.001053	20.720018
511.133066	-3.015100	3.768700	-11.361000	23.609507	0.001053	20.736277
512.133971	-3.005700	3.767900	-11.324000	23.631859	0.001051	20.727391
513.131109	-3.026000	3.767300	-11.400000	23.634697	0.001053	20.712217
514.130026	-3.011500	3.767100	-11.344000	23.631621	0.001052	20.702968
515.136129	-3.007800	3.767700	-11.332000	23.629207	0.001053	20.708135
516.130785	-3.013200	3.766800	-11.349000	23.636725	0.001055	20.699076
517.132524	-3.017300	3.766800	-11.365000	23.632205	0.001054	20.718728
518.134456	-2.993100	3.767200	-11.274000	23.623225	0.001055	20.707354
519.132994	-3.004500	3.766800	-11.317000	23.610129	0.001054	20.714615
520.135462	-3.019500	3.765100	-11.367000	23.603311	0.001054	20.720108
521.134835	-3.022300	3.765100	-11.378000	23.592790	0.001054	20.725208
522.134755	-3.026500	3.765200	-11.394000	23.607403	0.001054	20.712830
523.136997	-3.011200	3.764900	-11.336000	23.611120	0.001054	20.722247
524.133832	-3.002400	3.765400	-11.303000	23.628522	0.001055	20.715510
525.135134	-3.011300	3.762700	-11.329000	23.650839	0.001056	20.700897
526.135615	-3.006600	3.763400	-11.315000	23.658676	0.001057	20.698322
527.134666	-3.008200	3.764400	-11.323000	23.702765	0.001053	20.709808
528.136007	-3.002800	3.763500	-11.300000	23.700228	0.001056	20.723862
529.136835	-3.009900	3.763600	-11.327000	23.685875	0.001052	20.700935
530.136007	-2.996700	3.763100	-11.275000	23.669998	0.001054	20.721529
531.136727	-2.990200	3.763200	-11.252000	23.700617	0.001055	20.715716
532.136223	-3.007300	3.763400	-11.316000	23.697183	0.001053	20.714644
533.136255	-2.992000	3.762200	-11.255000	23.691435	0.001055	20.725951
534.139752	-3.014500	3.760100	-11.334000	23.697246	0.001055	20.724191
535.139987	-3.021900	3.760600	-11.363000	23.665012	0.001053	20.733126
536.138047	-3.020900	3.759400	-11.355000	23.663404	0.001054	20.717763
537.138607	-3.011500	3.759700	-11.321000	23.673907	0.001054	20.706955
538.138096	-2.996200	3.761700	-11.269000	23.643742	0.001055	20.720811
539.142789	-3.002900	3.761100	-11.293000	23.662717	0.001055	20.710435
540.140901	-2.983400	3.761100	-11.220000	23.661722	0.001057	20.730776
541.140345	-2.981100	3.759900	-11.208000	23.672859	0.001057	20.721552
542.141636	-2.986200	3.759700	-11.226000	23.701039	0.001057	20.750280
543.142190	-2.995600	3.759900	-11.263000	23.722223	0.001056	20.710825
544.145336	-2.987200	3.760100	-11.230000	23.749978	0.001057	20.716842
545.143086	-2.991400	3.759600	-11.246000	23.766082	0.001056	20.721134
546.145498	-2.978200	3.758700	-11.192000	23.772611	0.001056	20.712033
547.144322	-2.995000	3.758600	-11.256000	23.767157	0.001057	20.727428
548.144484	-2.996500	3.758700	-11.262000	23.750753	0.001059	20.716195
549.145647	-2.982200	3.757900	-11.206000	23.770401	0.001056	20.720248
550.144046	-2.978200	3.756900	-11.187000	23.765966	0.001057	20.712008
551.146886	-3.011400	3.756300	-11.311000	23.735160	0.001056	20.717157
552.143910	-3.010200	3.757700	-11.311000	23.728097	0.001056	20.745165
553.144689	-3.002500	3.756100	-11.277000	23.741707	0.001056	20.732257
554.144501	-2.997000	3.755800	-11.255000	23.744569	0.001057	20.736075
555.145351	-2.994700	3.755500	-11.245000	23.747438	0.001057	20.721407
556.144738	-2.989900	3.754700	-11.225000	23.759587	0.001056	20.735011
557.145701	-2.979200	3.755500	-11.187000	23.749091	0.001058	20.734445
558.144805	-3.008700	3.753800	-11.292000	23.789811	0.001056	20.737339
559.144826	-3.013900	3.753600	-11.312000	23.758746	0.001059	20.732271
560.147817	-2.989800	3.755300	-11.227000	23.740530	0.001057	20.756682
561.146812	-2.987600	3.754300	-11.216000	23.749687	0.001059	20.735517
562.149374	-3.000400	3.755400	-11.267000	23.760252	0.001055	20.725246
563.147780	-3.014500	3.753800	-11.314000	23.778892	0.001056	20.719278
564.146227	-3.002100	3.753400	-11.266000	23.781834	0.001058	20.742144
565.149183	-3.001400	3.752700	-11.262000	23.791446	0.001059	20.721435
566.148626	-2.998800	3.753700	-11.255000	23.789824	0.001058	20.748733
567.146664	-2.990500	3.752300	-11.220000	23.792318	0.001058	20.718990
568.147010	-3.001400	3.751500	-11.258000	23.833884	0.001055	20.727002
569.146696	-3.007700	3.750400	-11.280000	23.850508	0.001055	20.728024
570.148062	-3.009500	3.751100	-11.288000	23.853475	0.001057	20.748543
571.149613	-3.003000	3.750700	-11.262000	23.872494	0.001057	20.728259
572.146547	-2.997900	3.751400	-11.245000	23.867612	0.001058	20.738062
573.149986	-3.005200	3.750400	-11.270000	23.902579	0.001057	20.743254
574.147226	-2.988600	3.750300	-11.207000	23.905287	0.001057	20.765884
575.145888	-2.989900	3.750500	-11.213000	23.866789	0.001057	20.736289
576.147784	-3.007600	3.749200	-11.274000	23.853867	0.001056	20.737083
577.149403	-2.984400	3.750100	-11.190000	23.861531	0.001058	20.739552
578.149166	-2.998500	3.747500	-11.236000	23.888190	0.001058	20.766284
579.146296	-3.000900	3.748300	-11.246000	23.895977	0.001057	20.744220
580.147494	-3.003600	3.747800	-11.255000	23.884278	0.001057	20.740549
581.146345	-3.018900	3.747300	-11.311000	23.869017	0.001057	20.757964
582.150408	-3.003500	3.747600	-11.255000	23.890492	0.001057	20.751048
583.147902	-2.997500	3.746800	-11.230000	23.878922	0.001054	20.748930
584.147077	-2.997900	3.747900	-11.235000	23.900569	0.001055	20.750247
585.149447	-3.006300	3.746400	-11.262000	23.908061	0.001057	20.750648
586.147684	-2.978900	3.747300	-11.161000	23.893574	0.001057	20.767416
587.151143	-2.993300	3.745700	-11.211000	23.897928	0.001057	20.756608
588.149377	-2.983200	3.747000	-11.177000	23.888096	0.001055	20.761923
589.150879	-3.011300	3.746400	-11.280000	23.864477	0.001055	20.739661
590.150187	-2.998400	3.745700	-11.230000	23.849044	0.001058	20.768758
591.149820	-3.003500	3.744300	-11.244000	23.878706	0.001057	20.756300
592.149913	-2.998200	3.744800	-11.225000	23.887340	0.001055	20.761638
593.153716	-2.979500	3.744700	-11.156000	23.889077	0.001054	20.765277
594.149940	-2.997300	3.744400	-11.222000	23.927574	0.001056	20.780173
595.150474	-3.004000	3.743000	-11.243000	23.956190	0.001056	20.744857
596.150651	-2.978600	3.743200	-11.149000	23.962466	0.001056	20.768221
597.152325	-2.991100	3.744300	-11.199000	23.921574	0.001056	20.765147
598.153329	-3.000800	3.741600	-11.227000	23.934611	0.001056	20.759254
599.152125	-3.031800	3.741400	-11.343000	23.946702	0.001055	20.762369
600.153683	-3.000400	3.741500	-11.225000	23.932142	0.001056	20.771003
601.152858	-2.993200	3.742800	-11.201000	23.960088	0.001055	20.784328
602.152617	-2.981300	3.741900	-11.154000	23.967058	0.001054	20.785154
603.157479	-3.004600	3.741900	-11.241000	23.969569	0.001056	20.767757
604.154562	-3.021200	3.740600	-11.300000	23.988857	0.001053	20.777616
605.152596	-3.007600	3.740700	-11.250000	23.989796	0.001057	20.776187
606.153655	-3.004500	3.739800	-11.236000	24.009850	0.001055	20.763107
607.154563	-2.991300	3.739900	-11.186000	24.006792	0.001055	20.779482
608.154674	-3.012400	3.739400	-11.263000	24.002316	0.001054	20.753655
609.158510	-3.006100	3.739600	-11.240000	24.005570	0.001056	20.770195
610.155505	-3.006800	3.738500	-11.239000	24.031826	0.001054	20.757171
611.154489	-2.980600	3.740800	-11.149000	24.040109	0.001056	20.778281
612.154990	-2.992400	3.738900	-11.187000	24.050885	0.001057	20.776285
613.154912	-3.044600	3.736400	-11.374000	24.053501	0.001056	20.762313
614.158238	-3.012700	3.736700	-11.256000	24.084950	0.001056	20.787690
615.154487	-3.029700	3.737700	-11.323000	24.058149	0.001054	20.782622
616.157985	-2.988100	3.737200	-11.167000	24.060064	0.001055	20.780276
617.156426	-2.996000	3.737200	-11.195000	24.073547	0.001055	20.781470
618.155561	-2.993900	3.737100	-11.188000	24.060880	0.001055	20.767818
619.157707	-2.986000	3.737900	-11.161000	24.092238	0.001054	20.777929
620.157908	-2.990100	3.736600	-11.171000	24.088333	0.001053	20.790134
621.157185	-3.019100	3.734900	-11.276000	24.059536	0.001055	20.780220
622.156688	-3.004800	3.734700	-11.221000	24.044487	0.001055	20.797844
623.156407	-3.008500	3.734300	-11.234000	24.079897	0.001054	20.773139
624.157557	-3.006700	3.734100	-11.227000	24.073173	0.001055	20.810492
625.158959	-3.004200	3.735000	-11.220000	24.077029	0.001055	20.770262
626.158963	-3.005300	3.734800	-11.222000	24.089720	0.001055	20.770188
627.158321	-2.987300	3.735100	-11.157000	24.100317	0.001053	20.798835
628.158183	-2.985000	3.734100	-11.145000	24.094269	0.001053	20.780441
629.160121	-2.982900	3.734600	-11.139000	24.090592	0.001054	20.774382
630.158020	-3.002200	3.733800	-11.208000	24.100096	0.001053	20.797665
631.161254	-2.983600	3.733400	-11.138000	24.059567	0.001054	20.785467
632.160970	-2.983400	3.733200	-11.136000	24.051775	0.001055	20.784764
633.160602	-2.999400	3.733000	-11.195000	24.063987	0.001053	20.788003
634.172030	-2.978400	3.732900	-11.117000	24.078846	0.001055	20.790103
635.165902	-2.993500	3.732500	-11.171000	24.064319	0.001052	20.798294
636.161143	-3.003400	3.731700	-11.207000	24.098979	0.001054	20.788010
637.161596	-2.975600	3.731500	-11.102000	24.098457	0.001055	20.811194
638.161709	-3.014000	3.730200	-11.242000	24.059143	0.001054	20.811120
639.163758	-3.001700	3.730900	-11.197000	24.061385	0.001053	20.801040
640.165908	-3.010500	3.730400	-11.228000	24.063349	0.001054	20.798743
641.163017	-2.993200	3.730500	-11.165000	24.048392	0.001052	20.781846
642.163909	-2.992200	3.729700	-11.158000	24.044161	0.001053	20.795621
643.162238	-3.010400	3.729500	-11.226000	24.057970	0.001053	20.803780
644.163608	-3.007900	3.728500	-11.214000	24.070213	0.001052	20.806575
645.164182	-3.020400	3.729500	-11.263000	24.072276	0.001052	20.801058
646.163970	-3.007800	3.728400	-11.214000	24.080215	0.001053	20.809494
647.163527	-3.016400	3.728600	-11.245000	24.068403	0.001050	20.808553
648.164439	-2.994700	3.728400	-11.165000	24.084053	0.001053	20.803860
649.166887	-2.997800	3.728300	-11.175000	24.113733	0.001054	20.800436
650.167105	-3.024100	3.727900	-11.273000	24.121574	0.001051	20.799765
651.168235	-3.022100	3.725700	-11.258000	24.143530	0.001052	20.813726
652.165425	-3.010700	3.726900	-11.219000	24.155055	0.001051	20.827655
653.166393	-3.000100	3.727200	-11.181000	24.167567	0.001051	20.788996
654.165552	-2.989200	3.727400	-11.141000	24.179864	0.001051	20.799434
655.166600	-3.007400	3.725600	-11.203000	24.160262	0.001051	20.816283
656.170030	-3.011000	3.725400	-11.216000	24.133634	0.001052	20.826085
657.167343	-3.015200	3.724000	-11.228000	24.113263	0.001050	20.834577
658.169458	-3.014900	3.723700	-11.225000	24.100351	0.001050	20.812145
659.167103	-3.004700	3.723500	-11.187000	24.096649	0.001049	20.807958
660.166691	-3.001900	3.724800	-11.181000	24.072047	0.001051	20.812208
661.169375	-3.011900	3.723300	-11.212000	24.061394	0.001052	20.810533
662.169263	-3.023500	3.723800	-11.258000	24.069788	0.001050	20.817529
663.167202	-3.010300	3.722800	-11.206000	24.104528	0.001051	20.814438
664.169164	-3.003300	3.724000	-11.183000	24.116078	0.001048	20.819857
665.169190	-3.009100	3.723100	-11.202000	24.161770	0.001049	20.821588
666.168554	-3.010300	3.722500	-11.205000	24.173171	0.001050	20.831601
667.171550	-2.986700	3.722200	-11.116000	24.170335	0.001049	20.841558
668.171112	-2.966600	3.723600	-11.046000	24.174947	0.001050	20.833382
669.173761	-3.009900	3.722600	-11.204000	24.177986	0.001048	20.819835
670.172262	-2.987600	3.720800	-11.115000	24.209113	0.001048	20.813598
671.173038	-2.990100	3.721700	-11.127000	24.197504	0.001048	20.831826
672.173316	-2.968600	3.722300	-11.050000	24.212491	0.001050	20.818409
673.172755	-3.006300	3.720500	-11.184000	24.198464	0.001048	20.828995
674.172912	-2.984100	3.720800	-11.102000	24.200207	0.001046	20.830270
675.172935	-2.992900	3.718400	-11.128000	24.238854	0.001050	20.819722
676.173503	-3.007800	3.718500	-11.183000	24.205022	0.001049	20.811866
677.173495	-2.977000	3.721400	-11.077000	24.241519	0.001047	20.821447
678.175959	-3.006900	3.718200	-11.180000	24.190749	0.001048	20.822205
679.173732	-2.998200	3.719000	-11.149000	24.181823	0.001049	20.824632
680.173135	-3.026300	3.718800	-11.254000	24.180363	0.001046	20.844504
681.175245	-2.987500	3.718000	-11.106000	24.168250	0.001046	20.823347
682.173713	-2.993000	3.718500	-11.129000	24.166643	0.001046	20.839277
683.177415	-3.002100	3.717200	-11.159000	24.156764	0.001047	20.826525
684.175608	-3.002400	3.718200	-11.162000	24.162444	0.001047	20.817997
685.177583	-3.001500	3.718600	-11.160000	24.185037	0.001046	20.826433
686.174936	-3.011100	3.716900	-11.190000	24.202689	0.001046	20.819483
687.173788	-3.006800	3.717400	-11.175000	24.230628	0.001046	20.816687
688.177037	-3.012000	3.716100	-11.191000	24.255535	0.001045	20.832660
689.176132	-3.018800	3.717000	-11.220000	24.270318	0.001045	20.840376
690.175304	-3.004700	3.716700	-11.167000	24.287146	0.001044	20.818376
691.174826	-2.985300	3.717100	-11.096000	24.315076	0.001046	20.821737
692.174458	-2.997900	3.715500	-11.138000	24.294653	0.001045	20.816898
693.175314	-2.984900	3.716500	-11.092000	24.322947	0.001045	20.807822
694.174263	-3.002100	3.714600	-11.151000	24.317894	0.001046	20.821720
695.174386	-2.999700	3.715200	-11.144000	24.339098	0.001043	20.818334
696.178923	-3.008900	3.715800	-11.180000	24.311560	0.001046	20.831961
697.175714	-3.023800	3.713300	-11.227000	24.293028	0.001044	20.807682
698.174927	-3.000900	3.713700	-11.143000	24.312979	0.001046	20.813470
699.178638	-3.000000	3.713100	-11.138000	24.329897	0.001045	20.818587
700.174657	-3.008700	3.713000	-11.170000	24.302383	0.001044	20.836980
701.174453	-3.020800	3.712600	-11.214000	24.299155	0.001045	20.811931
702.174313	-3.020300	3.711300	-11.209000	24.293900	0.001043	20.815194
703.176455	-3.001300	3.712000	-11.139000	24.267566	0.001044	20.838090
704.175509	-3.001800	3.712800	-11.144000	24.277142	0.001045	20.824937
705.179370	-3.007700	3.712200	-11.163000	24.284159	0.001042	20.816803
706.176203	-3.009900	3.710800	-11.168000	24.258798	0.001043	20.806537
707.177721	-2.994000	3.712800	-11.116000	24.253164	0.001042	20.809420
708.175869	-2.996200	3.710900	-11.117000	24.243906	0.001043	20.828108
709.176669	-2.970800	3.711800	-11.025000	24.238909	0.001043	20.819777
710.183094	-2.991700	3.710300	-11.099000	24.259757	0.001042	20.797542
711.177412	-3.007400	3.710500	-11.157000	24.287426	0.001045	20.824821
712.177452	-2.996300	3.708600	-11.111000	24.310741	0.001043	20.804587
713.177011	-2.988300	3.710500	-11.086000	24.307719	0.001041	20.800134
714.177092	-3.008800	3.708700	-11.158000	24.336062	0.001042	20.823349
715.179532	-2.976300	3.710600	-11.042000	24.343243	0.001040	20.794043
716.177590	-2.990800	3.708500	-11.089000	24.357185	0.001042	20.821305
717.178914	-3.006900	3.708700	-11.151000	24.356257	0.001042	20.803779
718.180274	-3.018700	3.707200	-11.190000	24.335632	0.001042	20.795417
719.180519	-3.010100	3.708700	-11.163000	24.325674	0.001041	20.804868
720.181669	-2.988200	3.711000	-11.087000	24.302324	0.001040	20.790928
721.183188	-3.015400	3.706800	-11.176000	24.295633	0.001040	20.807450
722.185770	-2.998400	3.707100	-11.115000	24.274729	0.001041	20.795016
723.183748	-2.986800	3.706600	-11.070000	24.283490	0.001040	20.790053
724.182596	-2.987500	3.707200	-11.075000	24.272741	0.001040	20.810091
725.183119	-2.995300	3.707100	-11.103000	24.297075	0.001040	20.767645
726.186685	-2.988500	3.705600	-11.073000	24.325608	0.001039	20.795318
727.184675	-2.997400	3.704900	-11.104000	24.330261	0.001040	20.789555
728.185559	-2.982900	3.706100	-11.054000	24.315828	0.001038	20.785983
729.186300	-2.986900	3.706000	-11.068000	24.336227	0.001039	20.797910
730.186539	-3.005500	3.705500	-11.136000	24.337081	0.001040	20.795922
731.185696	-3.018500	3.703800	-11.178000	24.338713	0.001038	20.792344
732.187399	-3.012900	3.704400	-11.160000	24.329788	0.001037	20.777701
733.185338	-2.989300	3.703800	-11.071000	24.303147	0.001038	20.794124
734.185566	-2.984700	3.705800	-11.060000	24.276505	0.001037	20.792055
735.186165	-2.993200	3.705100	-11.088000	24.255860	0.001036	20.793632
736.185924	-3.005300	3.703100	-11.127000	24.241045	0.001036	20.774505
737.190238	-3.002500	3.703000	-11.117000	24.204629	0.001036	20.799617
738.187001	-3.009400	3.703200	-11.143000	24.215648	0.001037	20.784592
739.192150	-3.011800	3.702500	-11.150000	24.220628	0.001036	20.797647
740.187739	-3.003300	3.703000	-11.120000	24.226822	0.001037	20.799593
741.188097	-3.002500	3.702200	-11.115000	24.255079	0.001037	20.777676
742.189340	-2.988200	3.702000	-11.061000	24.296904	0.001036	20.784543
743.187388	-3.008600	3.701500	-11.135000	24.293448	0.001036	20.763532
744.187281	-3.008900	3.701800	-11.137000	24.339143	0.001035	20.797517
745.188097	-3.000400	3.701700	-11.105000	24.370069	0.001035	20.779229
746.187283	-2.988200	3.702100	-11.062000	24.351905	0.001037	20.777602
747.188118	-3.009500	3.700200	-11.135000	24.334816	0.001035	20.799340
748.188991	-3.002600	3.700200	-11.109000	24.367920	0.001036	20.776124
749.187996	-3.010200	3.699800	-11.136000	24.345663	0.001035	20.785565
750.190619	-2.989100	3.699800	-11.057000	24.348450	0.001034	20.761807
751.189482	-2.985700	3.699800	-11.046000	24.336258	0.001033	20.773286
752.190042	-2.985900	3.699600	-11.046000	24.340414	0.001034	20.778877
753.194341	-3.030500	3.697700	-11.205000	24.374551	0.001033	20.769974
754.191007	-3.004700	3.699500	-11.115000	24.359800	0.001034	20.765608
755.194064	-2.990700	3.699500	-11.062000	24.347032	0.001030	20.770342
756.191347	-3.009400	3.698700	-11.130000	24.322435	0.001033	20.782179
757.192552	-3.019700	3.696100	-11.159000	24.302804	0.001034	20.774339
758.194969	-2.996300	3.697300	-11.077000	24.292454	0.001030	20.764905
759.194828	-3.007500	3.696300	-11.114000	24.287278	0.001034	20.756395
760.194540	-3.002800	3.696900	-11.099000	24.303903	0.001032	20.752682
761.197658	-2.995800	3.696600	-11.074000	24.283952	0.001032	20.760645
762.195949	-2.997900	3.696900	-11.080000	24.275615	0.001031	20.767455
763.196246	-3.006000	3.696800	-11.111000	24.269820	0.001030	20.759746
764.197442	-2.985000	3.695000	-11.027000	24.236290	0.001031	20.755036
765.196162	-3.028300	3.694800	-11.187000	24.237554	0.001030	20.767209
766.201121	-3.011700	3.696200	-11.130000	24.263602	0.001029	20.780061
767.196412	-2.971900	3.696700	-10.985000	24.252282	0.001030	20.762541
768.196580	-2.979000	3.696100	-11.010000	24.270325	0.001029	20.755984
769.200865	-3.007400	3.694400	-11.110000	24.313234	0.001030	20.769629
770.197526	-3.009000	3.693200	-11.112000	24.336199	0.001028	20.760898
771.199172	-2.986400	3.694700	-11.033000	24.364233	0.001029	20.758674
772.197884	-2.996500	3.694800	-11.070000	24.409134	0.001030	20.770054
773.198023	-2.995000	3.693800	-11.061000	24.424860	0.001027	20.746950
774.198133	-3.022400	3.691500	-11.156000	24.405685	0.001027	20.764224
775.203260	-2.981400	3.694700	-11.014000	24.390309	0.001029	20.774877
776.200450	-2.975500	3.691600	-10.982000	24.399166	0.001027	20.766693
777.202484	-3.017500	3.692000	-11.140000	24.403224	0.001027	20.773135
778.202702	-2.983600	3.692000	-11.014000	24.385645	0.001028	20.761663
779.209470	-3.010800	3.690700	-11.110000	24.381539	0.001026	20.760862
780.201465	-2.990700	3.690900	-11.037000	24.354345	0.001027	20.764877
781.201145	-3.005800	3.690000	-11.090000	24.354198	0.001026	20.771368
782.205916	-3.009600	3.690400	-11.106000	24.374652	0.001027	20.745893
783.201681	-3.002400	3.691300	-11.082000	24.386290	0.001025	20.752352
784.201908	-2.990400	3.690500	-11.035000	24.365623	0.001024	20.775242
785.212111	-3.005900	3.690600	-11.093000	24.356828	0.001023	20.751720
786.202152	-3.002700	3.688900	-11.075000	24.338958	0.001025	20.735689
787.202809	-2.991300	3.689400	-11.036000	24.340253	0.001025	20.741730
788.204495	-3.003300	3.688900	-11.079000	24.322397	0.001025	20.746103
789.203903	-3.019800	3.688100	-11.137000	24.323121	0.001024	20.750624
790.205599	-2.989900	3.688200	-11.026000	24.341328	0.001023	20.749921
791.206375	-3.003700	3.689600	-11.081000	24.303693	0.001023	20.751049
792.206024	-2.998500	3.687900	-11.057000	24.306732	0.001022	20.735605
793.206710	-3.005200	3.687700	-11.082000	24.313486	0.001023	20.749019
794.204379	-2.977800	3.687800	-10.981000	24.298238	0.001021	20.744628
795.205043	-2.985800	3.688600	-11.012000	24.311375	0.001024	20.744530
796.204549	-2.965100	3.688700	-10.937000	24.338919	0.001022	20.745608
797.207764	-2.970400	3.688700	-10.956000	24.339287	0.001021	20.737916
798.207297	-3.000200	3.686500	-11.059000	24.351264	0.001021	20.733336
799.208106	-3.013000	3.686300	-11.106000	24.367293	0.001022	20.734242
800.208542	-3.010300	3.685500	-11.092000	24.323790	0.001022	20.740389
801.208273	-3.017000	3.685500	-11.117000	24.323325	0.001021	20.754147
802.208776	-2.989300	3.685600	-11.017000	24.296056	0.001021	20.735327
803.209788	-2.997800	3.686800	-11.051000	24.280489	0.001019	20.731091
804.208820	-3.001200	3.685200	-11.059000	24.299201	0.001019	20.734688
805.208582	-3.019400	3.684400	-11.124000	24.311602	0.001019	20.747129
806.210236	-3.002600	3.684900	-11.063000	24.318945	0.001018	20.739321
807.210554	-2.997400	3.685200	-11.045000	24.338527	0.001019	20.725774
808.210241	-3.004400	3.684300	-11.068000	24.350253	0.001019	20.741330
809.211908	-2.998200	3.682400	-11.040000	24.365752	0.001019	20.727955
810.209583	-3.018000	3.682400	-11.112000	24.385586	0.001018	20.744534
811.211232	-3.007800	3.682500	-11.075000	24.425995	0.001015	20.737656
812.214058	-2.995400	3.682700	-11.029000	24.428586	0.001017	20.729350
813.211550	-3.008000	3.681500	-11.073000	24.408522	0.001016	20.740042
814.211624	-2.983900	3.682100	-10.985000	24.414568	0.001018	20.725718
815.213146	-2.985000	3.682600	-10.992000	24.423278	0.001016	20.719283
816.211946	-3.000900	3.681600	-11.047000	24.459971	0.001016	20.736656
817.212987	-2.982300	3.681700	-10.979000	24.477293	0.001013	20.748345
818.212326	-2.984700	3.681400	-10.987000	24.480518	0.001016	20.710801
819.212265	-3.011800	3.680700	-11.084000	24.508408	0.001015	20.731198
820.213531	-2.999100	3.680400	-11.037000	24.532860	0.001014	20.739610
821.213542	-3.025000	3.680400	-11.132000	24.542588	0.001015	20.726136
822.215034	-3.010500	3.679500	-11.076000	24.550832	0.001014	20.734882
823.215480	-2.987900	3.680000	-10.994000	24.584808	0.001013	20.725350
824.215115	-2.990200	3.679400	-11.000000	24.577685	0.001013	20.707770
825.215030	-3.006300	3.680100	-11.062000	24.569683	0.001014	20.726769
826.214959	-2.979400	3.681400	-10.968000	24.554291	0.001014	20.729818
827.215376	-2.987800	3.679600	-10.992000	24.581284	0.001014	20.736513
828.214523	-3.005400	3.677700	-11.051000	24.559455	0.001014	20.734051
829.215908	-2.994700	3.679500	-11.018000	24.579684	0.001014	20.719734
830.215320	-3.000700	3.678600	-11.038000	24.541959	0.001013	20.708435
831.215536	-3.007400	3.677300	-11.058000	24.524407	0.001011	20.727810
832.215122	-2.996000	3.677400	-11.016000	24.515558	0.001012	20.727940
833.214258	-2.988100	3.677600	-10.989000	24.469023	0.001013	20.713493
834.214560	-3.003100	3.676100	-11.039000	24.447013	0.001013	20.719861
835.215265	-3.000000	3.677400	-11.031000	24.435334	0.001011	20.721895
836.214468	-2.994000	3.675700	-11.005000	24.424177	0.001011	20.728720
837.216280	-2.979500	3.678000	-10.956000	24.443653	0.001012	20.698470
838.216790	-3.007000	3.674600	-11.048000	24.454124	0.001011	20.731737
839.215294	-3.004400	3.675800	-11.041000	24.452720	0.001009	20.720371
840.217142	-2.987500	3.675200	-10.979000	24.454887	0.001008	20.723494
841.216721	-3.007500	3.674400	-11.049000	24.480163	0.001010	20.678200
842.217271	-3.019200	3.673700	-11.090000	24.503727	0.001009	20.713224
843.218348	-3.014200	3.674100	-11.073000	24.497167	0.001009	20.696209
844.218016	-2.992800	3.674200	-10.995000	24.495756	0.001007	20.713761
845.219762	-2.996000	3.673400	-11.004000	24.504393	0.001009	20.717211
846.218527	-2.970500	3.674400	-10.913000	24.518774	0.001008	20.715518
847.218398	-3.004200	3.673500	-11.035000	24.503878	0.001007	20.711479
848.219284	-2.985800	3.673500	-10.967000	24.508065	0.001008	20.711886
849.217217	-2.994600	3.673200	-10.999000	24.529584	0.001005	20.701233
850.220791	-2.997900	3.672400	-11.008000	24.516457	0.001008	20.698968
851.220066	-3.017700	3.672100	-11.080000	24.515893	0.001003	20.691764
852.220062	-2.975700	3.673200	-10.929000	24.535245	0.001006	20.690791
853.221787	-2.994900	3.671500	-10.995000	24.528342	0.001005	20.698564
854.219945	-2.992700	3.671700	-10.987000	24.550284	0.001004	20.686913
855.222183	-2.991600	3.672400	-10.985000	24.583363	0.001003	20.696871
856.223921	-2.998600	3.669000	-11.000000	24.594247	0.001003	20.682660
857.222193	-2.998900	3.670000	-11.004000	24.620611	0.001004	20.692046
858.222254	-3.013900	3.669400	-11.058000	24.628204	0.001002	20.695397
859.228734	-2.998300	3.670200	-11.003000	24.624066	0.001004	20.695513
860.225080	-3.024700	3.668000	-11.093000	24.628383	0.001004	20.688463
861.225315	-2.989000	3.670700	-10.970000	24.623185	0.001002	20.690834
862.228111	-2.998000	3.669400	-10.999000	24.646868	0.001002	20.675242
863.223655	-3.021200	3.667500	-11.080000	24.630361	0.001001	20.678593
864.226588	-3.017900	3.668700	-11.069000	24.656847	0.001002	20.690947
865.227086	-3.013500	3.667500	-11.050000	24.649171	0.001001	20.697944
866.227217	-2.986000	3.668500	-10.953000	24.657285	0.001001	20.673841
867.225082	-2.974000	3.669200	-10.910000	24.657212	0.000999	20.670448
868.226799	-2.976000	3.669700	-10.920000	24.665847	0.001000	20.675320
869.224604	-3.003400	3.667000	-11.012000	24.640257	0.001000	20.685679
870.229481	-3.010100	3.667200	-11.036000	24.663744	0.001000	20.697394
871.227945	-3.013100	3.666200	-11.045000	24.657755	0.001000	20.682374
872.228194	-2.994200	3.667300	-10.979000	24.670587	0.000999	20.692406
873.231634	-2.999800	3.665800	-10.996000	24.695368	0.001000	20.699730
874.231530	-3.004000	3.666200	-11.012000	24.693103	0.000999	20.672325
875.229720	-2.974200	3.666800	-10.905000	24.651350	0.000998	20.688276
876.229169	-2.993100	3.666200	-10.973000	24.634461	0.001000	20.673699
877.231085	-3.004700	3.664200	-11.009000	24.633124	0.000999	20.674728
878.228951	-2.985500	3.666100	-10.944000	24.650469	0.000998	20.684546
879.231102	-3.003900	3.664800	-11.008000	24.670062	0.000997	20.677180
880.229965	-3.020700	3.664500	-11.068000	24.628316	0.000998	20.693138
881.228638	-2.978800	3.664600	-10.915000	24.633408	0.000998	20.663158
882.230427	-2.991200	3.664500	-10.961000	24.576090	0.000998	20.657801
883.229459	-3.001000	3.663300	-10.991000	24.559159	0.000995	20.668315
884.229473	-3.005900	3.663000	-11.010000	24.543221	0.000995	20.683620
885.230144	-3.007200	3.662400	-11.012000	24.544590	0.000996	20.684519
886.230057	-3.023800	3.662000	-11.072000	24.545878	0.000996	20.663524
887.232291	-2.998000	3.662700	-10.980000	24.553772	0.000997	20.676187
888.231882	-3.000300	3.664100	-10.992000	24.565439	0.000994	20.664659
889.234564	-3.004800	3.661900	-11.002000	24.569048	0.000994	20.657374
890.229503	-3.000900	3.662100	-10.989000	24.584373	0.000996	20.667536
891.232239	-3.003700	3.663300	-11.002000	24.612335	0.000995	20.661927
892.231732	-3.026000	3.660000	-11.074000	24.606689	0.000994	20.663848
893.229455	-3.009100	3.661100	-11.015000	24.622503	0.000996	20.676399
894.231859	-2.992900	3.662000	-10.959000	24.626469	0.000994	20.671369
895.230685	-2.995700	3.660100	-10.963000	24.643187	0.000993	20.654951
896.231205	-3.035500	3.659000	-11.105000	24.659554	0.000993	20.664737
897.233360	-3.000800	3.659400	-10.979000	24.623960	0.000994	20.668851
898.233175	-2.967800	3.660600	-10.864000	24.596031	0.000992	20.657895
899.232671	-2.983000	3.661400	-10.920000	24.576695	0.000992	20.672634
900.233344	-3.004300	3.658400	-10.990000	24.558314	0.000991	20.657983
901.232187	-2.989300	3.659100	-10.937000	24.543444	0.000992	20.672462
902.232750	-2.987000	3.659300	-10.930000	24.529739	0.000992	20.643061
903.232011	-2.991700	3.658600	-10.944000	24.555006	0.000991	20.649921
904.233516	-3.021600	3.657800	-11.052000	24.544438	0.000991	20.642636
905.234286	-2.995400	3.659400	-10.960000	24.578169	0.000991	20.669371
906.236288	-2.997000	3.659400	-10.966000	24.569663	0.000989	20.654197
907.236110	-3.028400	3.657300	-11.074000	24.589209	0.000991	20.679502
908.235672	-3.009700	3.657300	-11.006000	24.603963	0.000989	20.649258
909.237335	-3.016400	3.656200	-11.027000	24.603018	0.000988	20.666804
910.236211	-3.008300	3.656700	-10.999000	24.599238	0.000987	20.659217
911.236094	-3.012300	3.655700	-11.011000	24.621822	0.000989	20.666706
912.237011	-3.013200	3.654900	-11.011000	24.616477	0.000988	20.663239
913.236986	-3.013600	3.656200	-11.016000	24.647021	0.000988	20.649315
914.238075	-2.991500	3.655800	-10.935000	24.659307	0.000985	20.666860
915.239722	-3.023300	3.654600	-11.048000	24.655135	0.000990	20.658880
916.239463	-3.032200	3.653500	-11.077000	24.666752	0.000984	20.651570
917.236813	-3.012700	3.653900	-11.007000	24.646874	0.000986	20.651538
918.238122	-2.995600	3.655500	-10.949000	24.629177	0.000987	20.651799
919.236983	-2.991500	3.654500	-10.932000	24.648544	0.000986	20.651791
920.236712	-2.999300	3.654900	-10.961000	24.651386	0.000982	20.645160
921.239735	-3.015400	3.653000	-11.014000	24.621771	0.000985	20.659541
922.236197	-3.002000	3.654200	-10.969000	24.600531	0.000983	20.643442
923.235875	-3.028300	3.652500	-11.061000	24.584219	0.000984	20.681133
924.240786	-2.991300	3.653400	-10.927000	24.597507	0.000982	20.639459
925.237110	-3.009800	3.651300	-10.989000	24.590394	0.000982	20.643228
926.242374	-2.980200	3.653100	-10.886000	24.592040	0.000982	20.659580
927.239282	-2.969900	3.653600	-10.850000	24.586019	0.000982	20.672032
928.238185	-2.996700	3.651600	-10.941000	24.616318	0.000982	20.672089
929.238859	-2.993500	3.651900	-10.930000	24.597644	0.000980	20.641020
930.244089	-3.017200	3.652100	-11.018000	24.604960	0.000982	20.645990
931.241505	-2.991600	3.651800	-10.924000	24.629932	0.000981	20.685276
932.242679	-3.025800	3.651000	-11.045000	24.639537	0.000980	20.657927
933.244037	-2.985100	3.650600	-10.896000	24.664571	0.000981	20.650804
934.243017	-2.995900	3.650500	-10.935000	24.683244	0.000979	20.643936
935.242064	-2.999600	3.649500	-10.945000	24.707073	0.000980	20.646986
936.245599	-3.005200	3.648500	-10.963000	24.710356	0.000979	20.646961
937.245266	-3.004700	3.650100	-10.967000	24.722722	0.000978	20.663639
938.247314	-3.025100	3.649000	-11.036000	24.750672	0.000979	20.649013
939.248914	-2.989300	3.650000	-10.909000	24.756325	0.000978	20.662748
940.246594	-3.010200	3.650000	-10.986000	24.769733	0.000980	20.664350
941.249315	-3.004400	3.648600	-10.960000	24.788241	0.000976	20.646411
942.249351	-2.992100	3.647800	-10.914000	24.767476	0.000978	20.646910
943.247583	-3.008000	3.647100	-10.970000	24.764901	0.000977	20.672777
944.247548	-2.997600	3.647500	-10.933000	24.722254	0.000976	20.649893
945.249967	-3.015100	3.647700	-10.997000	24.701244	0.000977	20.643032
946.251673	-3.018500	3.645800	-11.003000	24.665911	0.000976	20.653571
947.248646	-2.993200	3.646700	-10.914000	24.636092	0.000976	20.654944
948.252817	-3.004300	3.646200	-10.953000	24.642071	0.000977	20.660470
949.250420	-3.012600	3.645000	-10.980000	24.612529	0.000974	20.667812
950.251112	-3.011300	3.644900	-10.974000	24.620969	0.000972	20.656839
951.253377	-3.003600	3.644000	-10.944000	24.646843	0.000975	20.639178
952.252203	-3.009200	3.644000	-10.964000	24.652790	0.000974	20.640878
953.251952	-2.995000	3.645100	-10.916000	24.691341	0.000975	20.676721
954.252691	-2.978700	3.645300	-10.856000	24.699822	0.000972	20.662471
955.250678	-2.996300	3.644400	-10.919000	24.768138	0.000974	20.655635
956.252143	-3.012700	3.644200	-10.978000	24.793855	0.000974	20.648252
957.254930	-3.026700	3.643900	-11.027000	24.802033	0.000973	20.666419
958.253215	-3.016200	3.643200	-10.987000	24.820695	0.000973	20.641048
959.253876	-2.996300	3.643600	-10.917000	24.827586	0.000974	20.644645
960.255017	-3.026600	3.642200	-11.022000	24.802871	0.000972	20.652085
961.253346	-2.979400	3.643000	-10.852000	24.811326	0.000970	20.652036
962.254171	-3.004200	3.642600	-10.942000	24.804964	0.000970	20.648970
963.256605	-2.982800	3.642700	-10.864000	24.771810	0.000970	20.662641
964.254861	-3.014400	3.641000	-10.974000	24.797478	0.000971	20.655682
965.254591	-2.985000	3.641900	-10.869000	24.803326	0.000969	20.656336
966.256668	-2.998000	3.641400	-10.916000	24.818428	0.000971	20.640670
967.256388	-2.984400	3.642200	-10.868000	24.825809	0.000971	20.665624
968.257523	-2.985300	3.642500	-10.872000	24.857845	0.000969	20.659842
969.257797	-3.003000	3.639700	-10.929000	24.850293	0.000968	20.655108
970.257368	-2.997200	3.640500	-10.911000	24.863000	0.000968	20.644152
971.257854	-2.989000	3.640200	-10.878000	24.882712	0.000968	20.642599
972.259792	-3.019300	3.639400	-10.986000	24.881628	0.000968	20.646727
973.257858	-3.010700	3.639400	-10.955000	24.854080	0.000969	20.653693
974.258018	-3.020300	3.639300	-10.991000	24.842741	0.000966	20.664125
975.257130	-3.005200	3.638600	-10.934000	24.850829	0.000964	20.656120
976.262799	-2.996400	3.638500	-10.901000	24.845314	0.000966	20.662914
977.258043	-3.000700	3.638100	-10.916000	24.825219	0.000967	20.658393
978.258540	-3.021000	3.638100	-10.990000	24.861874	0.000965	20.644444
979.261985	-3.002000	3.638200	-10.921000	24.866704	0.000966	20.658777
980.260356	-2.988600	3.638000	-10.872000	24.851593	0.000967	20.663052
981.260695	-2.986800	3.637900	-10.864000	24.820958	0.000963	20.661229
982.260159	-2.995900	3.636500	-10.894000	24.807981	0.000965	20.650101
983.259270	-3.016400	3.637400	-10.971000	24.800845	0.000965	20.662855
984.259931	-2.985200	3.637400	-10.856000	24.763275	0.000964	20.668300
985.259490	-2.992300	3.638400	-10.886000	24.793195	0.000961	20.670826
986.259397	-2.995000	3.636300	-10.889000	24.800167	0.000962	20.658856
987.259252	-3.002800	3.635500	-10.915000	24.793553	0.000963	20.675927
988.260956	-3.023300	3.634400	-10.986000	24.773937	0.000962	20.659084
989.261644	-2.997500	3.635000	-10.894000	24.758328	0.000961	20.668552
990.260254	-3.004700	3.634300	-10.917000	24.759900	0.000962	20.670603
991.261476	-3.019300	3.634600	-10.972000	24.767354	0.000960	20.655797
992.263939	-2.989500	3.635800	-10.868000	24.768030	0.000963	20.665011
993.262578	-3.024800	3.633700	-10.990000	24.782082	0.000961	20.647342
994.264043	-2.993500	3.634000	-10.876000	24.770970	0.000959	20.658004
995.262655	-2.998000	3.633600	-10.892000	24.777438	0.000959	20.683463
996.263554	-3.001000	3.632900	-10.901000	24.759085	0.000958	20.657930
997.264248	-3.003800	3.632700	-10.911000	24.780704	0.000958	20.658289
998.264686	-3.007000	3.632700	-10.921000	24.775874	0.000961	20.669090
999.262282	-3.014200	3.632700	-10.949000	24.792516	0.000960	20.676783
1000.264007	-2.979300	3.633000	-10.822000	24.814347	0.000958	20.663604
1001.263395	-3.017000	3.631200	-10.954000	24.853634	0.000957	20.678378
1002.262917	-3.018900	3.631200	-10.961000	24.854033	0.000957	20.661232
1003.266449	-3.008700	3.630900	-10.924000	24.866813	0.000953	20.675483
1004.265698	-2.972900	3.631100	-10.794000	24.857095	0.000956	20.645338
1005.265686	-2.979300	3.630500	-10.816000	24.889245	0.000957	20.666702
1006.264500	-2.988800	3.630000	-10.849000	24.890312	0.000955	20.679628
1007.265301	-2.998700	3.630600	-10.886000	24.910284	0.000955	20.659842
1008.267136	-3.000600	3.630100	-10.892000	24.889448	0.000954	20.662638
1009.266325	-2.994700	3.629900	-10.869000	24.896160	0.000954	20.666056
1010.269094	-2.982700	3.630200	-10.826000	24.909762	0.000954	20.676864
1011.268405	-2.993400	3.629400	-10.863000	24.911831	0.000954	20.676570
1012.267855	-3.001500	3.628900	-10.890000	24.887510	0.000953	20.690093
1013.268159	-3.011400	3.628100	-10.925000	24.915064	0.000954	20.691196
1014.267610	-2.998700	3.628800	-10.881000	24.909892	0.000950	20.653284
1015.273865	-3.019900	3.628000	-10.956000	24.900069	0.000953	20.666660
1016.267858	-3.011300	3.627600	-10.922000	24.887013	0.000952	20.665884
1017.268302	-2.988900	3.627600	-10.842000	24.896395	0.000952	20.682415
1018.275949	-3.005000	3.627000	-10.899000	24.926671	0.000952	20.692889
1019.268230	-3.016900	3.626500	-10.940000	24.925636	0.000950	20.692324
1020.270297	-2.996800	3.626700	-10.867000	24.942325	0.000950	20.694850
1021.271128	-2.990800	3.626900	-10.846000	24.914396	0.000952	20.655908
1022.270110	-2.998400	3.626000	-10.870000	24.879412	0.000950	20.675801
1023.269665	-3.007600	3.625400	-10.902000	24.868994	0.000949	20.680992
1024.270728	-2.993600	3.625200	-10.851000	24.830230	0.000949	20.674803
1025.269613	-2.982800	3.626000	-10.815000	24.855171	0.000949	20.666169
1026.270535	-3.008800	3.623900	-10.903000	24.884812	0.000949	20.694498
1027.270829	-2.998900	3.624200	-10.867000	24.867105	0.000948	20.699960
1028.271079	-3.002300	3.623000	-10.876000	24.915047	0.000947	20.677427
1029.272108	-2.985200	3.624600	-10.819000	24.919096	0.000947	20.700459
1030.271802	-2.997700	3.623100	-10.860000	24.929269	0.000946	20.695022
1031.271969	-3.003000	3.624200	-10.882000	24.961930	0.000945	20.681810
1032.273883	-2.990500	3.624800	-10.839000	24.961490	0.000945	20.696068
1033.272645	-2.979700	3.622800	-10.794000	24.951342	0.000943	20.701056
1034.275395	-3.007600	3.623000	-10.894000	24.964114	0.000944	20.695383
1035.274997	-3.002000	3.623500	-10.876000	24.924855	0.000944	20.719991
1036.275313	-2.992000	3.623800	-10.841000	24.924554	0.000944	20.691712
1037.276330	-3.001400	3.622100	-10.870000	24.900909	0.000942	20.691687
1038.275250	-3.021200	3.621700	-10.941000	24.927063	0.000941	20.702766
1039.288065	-2.983700	3.621500	-10.804000	24.913779	0.000944	20.704132
1040.275106	-3.000400	3.622700	-10.868000	24.960173	0.000944	20.691427
1041.276177	-2.988700	3.620800	-10.819000	24.948982	0.000942	20.702480
1042.276387	-2.989400	3.620600	-10.823000	24.942980	0.000942	20.709259
1043.275649	-2.999700	3.619800	-10.858000	24.904470	0.000942	20.713281
1044.277377	-2.992500	3.620200	-10.833000	24.910863	0.000941	20.702628
1045.276348	-2.991900	3.619100	-10.827000	24.926250	0.000940	20.691517
1046.276359	-3.001900	3.620400	-10.866000	24.922691	0.000939	20.709283
1047.276852	-2.979600	3.618700	-10.781000	24.952526	0.000940	20.701770
1048.275775	-2.991500	3.618800	-10.825000	24.961225	0.000939	20.716192
1049.276335	-2.997000	3.618900	-10.845000	24.995807	0.000938	20.685468
1050.276318	-2.996600	3.618500	-10.841000	24.991279	0.000937	20.701313
1051.277216	-2.991600	3.618400	-10.823000	25.004579	0.000939	20.704706
1052.278021	-3.006100	3.617700	-10.873000	25.025835	0.000939	20.702335
1053.278347	-3.014600	3.617800	-10.905000	25.018351	0.000939	20.713315
1054.277909	-3.009000	3.616300	-10.880000	25.004074	0.000936	20.721745
1055.278679	-3.008100	3.615400	-10.875000	25.008749	0.000937	20.714583
1056.279403	-2.964000	3.618700	-10.726000	25.025054	0.000934	20.708190
1057.280342	-2.984500	3.616100	-10.791000	25.047728	0.000936	20.715302
1058.281194	-3.007700	3.615100	-10.872000	25.059985	0.000936	20.709113
1059.280592	-2.975900	3.615000	-10.756000	25.069750	0.000936	20.727452
1060.279987	-3.021200	3.613400	-10.916000	25.079148	0.000935	20.718393
1061.281326	-2.995600	3.614100	-10.825000	25.107334	0.000936	20.691209
1062.281004	-3.005400	3.614400	-10.862000	25.131569	0.000933	20.721231
1063.282688	-2.976200	3.615600	-10.760000	25.112830	0.000933	20.706686
1064.283904	-2.991700	3.614300	-10.812000	25.142481	0.000932	20.730763
1065.281514	-3.029500	3.613100	-10.944000	25.146813	0.000933	20.718516
1066.282456	-3.010600	3.613500	-10.878000	25.100966	0.000932	20.729390
1067.281230	-3.012100	3.612900	-10.882000	25.049456	0.000933	20.718459
1068.282736	-2.992900	3.613500	-10.814000	25.040757	0.000931	20.723953
1069.285756	-2.994900	3.612400	-10.818000	25.039658	0.000930	20.721901
1070.282896	-2.991200	3.611700	-10.802000	25.041988	0.000930	20.732301
1071.284415	-3.002600	3.612100	-10.843000	25.052209	0.000930	20.733078
1072.286550	-3.018600	3.610900	-10.898000	25.092481	0.000930	20.756435
1073.284847	-3.009800	3.610700	-10.866000	25.069116	0.000930	20.721125
1074.284723	-3.010500	3.610600	-10.867000	25.101178	0.000929	20.724388
1075.285591	-3.002200	3.611000	-10.840000	25.119144	0.000931	20.727724
1076.286497	-2.996100	3.611300	-10.817000	25.127971	0.000929	20.728051
1077.285443	-2.995400	3.609700	-10.812000	25.135993	0.000928	20.713343
1078.285471	-2.995100	3.611500	-10.815000	25.152133	0.000926	20.727650
1079.284513	-2.988000	3.610200	-10.787000	25.180919	0.000924	20.721461
1080.284661	-2.994400	3.608500	-10.804000	25.184592	0.000926	20.728468
1081.285900	-3.014500	3.609100	-10.878000	25.188094	0.000924	20.742416
1082.292007	-2.988600	3.609300	-10.786000	25.168607	0.000926	20.730913
1083.284790	-3.006800	3.608100	-10.847000	25.180464	0.000923	20.739971
1084.286092	-2.978400	3.608000	-10.746000	25.173477	0.000924	20.742440
1085.287247	-3.010700	3.607300	-10.859000	25.144023	0.000923	20.717611
1086.284835	-3.028000	3.605700	-10.916000	25.120154	0.000922	20.718781
1087.286391	-3.012100	3.607000	-10.863000	25.057235	0.000925	20.747607
1088.287690	-3.009100	3.607000	-10.853000	25.014804	0.000923	20.739628
1089.285693	-3.016700	3.606300	-10.878000	24.967827	0.000922	20.738468
1090.290914	-3.001500	3.606700	-10.825000	24.959454	0.000922	20.741917
1091.286672	-2.982800	3.608300	-10.761000	24.950796	0.000921	20.755039
1092.284578	-3.019600	3.604000	-10.882000	24.964104	0.000921	20.744214
1093.290419	-2.990100	3.606000	-10.781000	24.976054	0.000921	20.745303
1094.287361	-3.013400	3.603900	-10.859000	25.006293	0.000919	20.767122
1095.286458	-2.998700	3.603500	-10.805000	25.037291	0.000922	20.733750
1096.289574	-2.992100	3.606200	-10.787000	25.062872	0.000921	20.742359
1097.286279	-2.988500	3.604800	-10.771000	25.071472	0.000918	20.738664
1098.286639	-3.008900	3.604200	-10.843000	25.057505	0.000918	20.754042
1099.289908	-3.003800	3.603600	-10.824000	25.020751	0.000919	20.759822
1100.285349	-3.006100	3.605500	-10.837000	25.045541	0.000920	20.751990
1101.285768	-2.988400	3.603300	-10.768000	25.049719	0.000916	20.760926
1102.289505	-2.999200	3.603500	-10.807000	25.065185	0.000917	20.744681
1103.291029	-3.045700	3.601400	-10.967000	25.047903	0.000919	20.770009
1104.286468	-3.006900	3.602300	-10.829000	25.049117	0.000916	20.761744
1105.288942	-3.007000	3.601500	-10.829000	25.046584	0.000916	20.759675
1106.290400	-3.008600	3.602800	-10.839000	25.026745	0.000914	20.752563
1107.288531	-2.997000	3.601900	-10.794000	25.009039	0.000916	20.763714
1108.293143	-2.986800	3.601900	-10.757000	25.018137	0.000915	20.741551
1109.292970	-3.018500	3.600400	-10.866000	25.026762	0.000913	20.763011
1110.287857	-3.007200	3.601100	-10.827000	25.014015	0.000915	20.750216
1111.289587	-2.992900	3.600200	-10.774000	25.041934	0.000914	20.746472
1112.292333	-3.019000	3.599400	-10.865000	25.024057	0.000913	20.765038
1113.288446	-2.999500	3.600600	-10.798000	25.042455	0.000913	20.768333
1114.292619	-3.009100	3.598800	-10.828000	25.057636	0.000911	20.788788
1115.294492	-2.986100	3.600200	-10.748000	25.093217	0.000912	20.767606
1116.286284	-3.012100	3.597300	-10.833000	25.114951	0.000911	20.766191
1117.291128	-2.976800	3.599700	-10.715000	25.121141	0.000912	20.767662
1118.291972	-2.997700	3.598100	-10.785000	25.114968	0.000910	20.748189
1119.287127	-2.999800	3.597500	-10.791000	25.155987	0.000911	20.751435
1120.289489	-2.995300	3.597500	-10.775000	25.188348	0.000913	20.769699
1121.292476	-2.995700	3.597000	-10.774000	25.176166	0.000910	20.755572
1122.288441	-2.995900	3.597500	-10.775000	25.188666	0.000911	20.759112
1123.294526	-2.983800	3.598000	-10.735000	25.217280	0.000910	20.772667
1124.293992	-3.003900	3.596300	-10.802000	25.184978	0.000909	20.775799
1125.288720	-2.990400	3.596100	-10.752000	25.200238	0.000909	20.774524
1126.295853	-2.997600	3.597600	-10.783000	25.193846	0.000909	20.767632
1127.293712	-2.981100	3.595700	-10.717000	25.221655	0.000907	20.778007
1128.289936	-2.990600	3.596300	-10.754000	25.236540	0.000910	20.791529
1129.293210	-2.975800	3.595600	-10.698000	25.240164	0.000906	20.765296
1130.292683	-2.993300	3.594900	-10.759000	25.245971	0.000907	20.774445
1131.289884	-2.990200	3.594300	-10.746000	25.258575	0.000906	20.784729
1132.293548	-2.987400	3.593200	-10.733000	25.287449	0.000907	20.790485
1133.297351	-3.006800	3.592900	-10.802000	25.312300	0.000906	20.786038
1134.290703	-2.968000	3.593400	-10.665000	25.331500	0.000904	20.779238
1135.293849	-2.999100	3.592100	-10.772000	25.307163	0.000903	20.783726
1136.293393	-2.997700	3.591700	-10.765000	25.334448	0.000903	20.791681
1137.291899	-2.989000	3.593100	-10.738000	25.310413	0.000902	20.773712
1138.293330	-2.985500	3.591300	-10.720000	25.305162	0.000903	20.793096
1139.297528	-2.997100	3.591400	-10.762000	25.260868	0.000902	20.790349
1140.290905	-3.011500	3.590600	-10.812000	25.261381	0.000899	20.797978
1141.296368	-3.001800	3.590300	-10.777000	25.268710	0.000901	20.793008
1142.295392	-2.977700	3.592100	-10.695000	25.272912	0.000900	20.798648
1143.291670	-3.035400	3.587900	-10.889000	25.289856	0.000899	20.789583
1144.295928	-3.018400	3.588400	-10.830000	25.318583	0.000898	20.780018
1145.293430	-3.021600	3.588700	-10.842000	25.318509	0.000900	20.813610
1146.292582	-3.003000	3.589000	-10.777000	25.325512	0.000899	20.797407
1147.295743	-3.012100	3.588100	-10.806000	25.310327	0.000898	20.776945
1148.294249	-3.014500	3.588200	-10.815000	25.291479	0.000897	20.799272
1149.294598	-2.985500	3.589600	-10.715000	25.289638	0.000898	20.791735
1150.298218	-2.987700	3.587700	-10.718000	25.333004	0.000896	20.805404
1151.294576	-2.997700	3.587900	-10.754000	25.314244	0.000894	20.782301
1152.296532	-3.000800	3.588200	-10.767000	25.341252	0.000898	20.804203
1153.305398	-3.006800	3.587400	-10.786000	25.309987	0.000896	20.812639
1154.297241	-3.005800	3.585400	-10.774000	25.319896	0.000894	20.812158
1155.296663	-2.996100	3.585200	-10.740000	25.302259	0.000893	20.819105
1156.299600	-3.006700	3.585500	-10.779000	25.340846	0.000894	20.824657
1157.296282	-2.983500	3.586900	-10.701000	25.355541	0.000892	20.808593
1158.298084	-3.005500	3.585600	-10.775000	25.365703	0.000891	20.805994
1159.299907	-3.004500	3.584400	-10.768000	25.365727	0.000892	20.807441
1160.298085	-3.005200	3.585000	-10.773000	25.364440	0.000892	20.802829
1161.299947	-3.009600	3.584700	-10.787000	25.356706	0.000890	20.820193
1162.300678	-3.015300	3.584000	-10.806000	25.354834	0.000891	20.823530
1163.299197	-3.011800	3.585300	-10.796000	25.360158	0.000888	20.826031
1164.300669	-3.029700	3.581800	-10.851000	25.309727	0.000888	20.812379
1165.303095	-3.001800	3.583100	-10.753000	25.271475	0.000888	20.803370
1166.299913	-3.018600	3.583200	-10.815000	25.218678	0.000887	20.818167
1167.300528	-2.991200	3.582600	-10.715000	25.245973	0.000888	20.827551
1168.301923	-2.984000	3.583700	-10.692000	25.215495	0.000886	20.799324
1169.300943	-2.988800	3.582300	-10.706000	25.242341	0.000885	20.827699
1170.300869	-2.997800	3.582300	-10.738000	25.246795	0.000885	20.808937
1171.302559	-3.024100	3.579500	-10.824000	25.235551	0.000885	20.811873
1172.303204	-2.988800	3.582100	-10.705000	25.263911	0.000886	20.815690
1173.304016	-3.015400	3.580800	-10.795000	25.279097	0.000884	20.837574
1174.303209	-2.999900	3.580900	-10.740000	25.297987	0.000884	20.824773
1175.306697	-2.984600	3.580700	-10.686000	25.280465	0.000884	20.820456
1176.303329	-3.007100	3.579100	-10.760000	25.261029	0.000883	20.820857
1177.303388	-2.979600	3.579600	-10.664000	25.239630	0.000884	20.848683
1178.302302	-2.980100	3.579500	-10.666000	25.229117	0.000884	20.816793
1179.303532	-2.996200	3.579100	-10.723000	25.233441	0.000882	20.816393
1180.309446	-2.994800	3.580400	-10.721000	25.231535	0.000881	20.845298
1181.303626	-2.995400	3.578300	-10.718000	25.256957	0.000882	20.823407
1182.305842	-3.012800	3.576800	-10.775000	25.271426	0.000880	20.834614
1183.306994	-2.996700	3.578900	-10.724000	25.259644	0.000879	20.824682
1184.306554	-3.013300	3.577800	-10.780000	25.289607	0.000881	20.838169
1185.306211	-3.014000	3.577300	-10.781000	25.299639	0.000880	20.823586
1186.305919	-2.991900	3.577500	-10.702000	25.321663	0.000878	20.838587
1187.305071	-2.983100	3.576500	-10.667000	25.336359	0.000878	20.817781
1188.308123	-3.020100	3.576800	-10.801000	25.325441	0.000880	20.821044
1189.308092	-2.995900	3.576300	-10.713000	25.330220	0.000879	20.831531
1190.308812	-3.001000	3.576700	-10.733000	25.317347	0.000878	20.828089
1191.308427	-3.006900	3.574800	-10.747000	25.341805	0.000877	20.824198
1192.308626	-2.995800	3.575700	-10.710000	25.327166	0.000878	20.837474
1193.312731	-2.982000	3.575200	-10.660000	25.327345	0.000875	20.819636
1194.315726	-2.998700	3.576000	-10.722000	25.305394	0.000877	20.831735
1195.312118	-3.020100	3.574700	-10.795000	25.237910	0.000876	20.825146
1196.314371	-3.041400	3.573300	-10.866000	25.208555	0.000876	20.822228
1197.313044	-2.998500	3.573400	-10.714000	25.204206	0.000873	20.810276
1198.309663	-2.994800	3.573700	-10.702000	25.233016	0.000875	20.807905
1199.315047	-3.030800	3.573600	-10.830000	25.257322	0.000873	20.794850
1200.319428	-3.016100	3.572200	-10.773000	25.285682	0.000872	20.806254
1201.310339	-3.014700	3.571300	-10.765000	25.295973	0.000872	20.819432
1202.314554	-3.000600	3.571500	-10.715000	25.290502	0.000870	20.807775
1203.316760	-2.985300	3.572300	-10.663000	25.337328	0.000871	20.799788
1204.312675	-3.022700	3.571700	-10.795000	25.306884	0.000871	20.797670
1205.316912	-3.028500	3.570500	-10.812000	25.341683	0.000872	20.807480
1206.318020	-3.041400	3.569000	-10.854000	25.338402	0.000869	20.813194
1207.312272	-3.003900	3.570500	-10.724000	25.348588	0.000869	20.810620
1208.318083	-3.012700	3.568200	-10.749000	25.320009	0.000868	20.795201
1209.316772	-2.985000	3.570100	-10.656000	25.325049	0.000867	20.804529
1210.314505	-3.004500	3.568200	-10.719000	25.319187	0.000868	20.794850
1211.318025	-2.990600	3.570800	-10.678000	25.346601	0.000869	20.785391
1212.316249	-2.998800	3.570000	-10.704000	25.335886	0.000868	20.800238
1213.315408	-2.996100	3.568700	-10.691000	25.334925	0.000866	20.789315
1214.323942	-2.996300	3.568600	-10.692000	25.323762	0.000867	20.787116
1215.316583	-2.981400	3.569600	-10.641000	25.293416	0.000866	20.782252
1216.316081	-3.013600	3.567600	-10.751000	25.303701	0.000864	20.794000
1217.316649	-2.999800	3.566800	-10.699000	25.303407	0.000864	20.781377
1218.316359	-3.002200	3.566700	-10.707000	25.334323	0.000862	20.803883
1219.317201	-3.013900	3.566900	-10.748000	25.329104	0.000863	20.774461
1220.316519	-3.006800	3.566900	-10.724000	25.346853	0.000862	20.802240
1221.317446	-3.023600	3.564600	-10.777000	25.362737	0.000862	20.800171
1222.318377	-3.006300	3.565600	-10.718000	25.379387	0.000862	20.805036
1223.318473	-2.993300	3.565500	-10.672000	25.389979	0.000860	20.795282
1224.320328	-2.962700	3.567000	-10.567000	25.404250	0.000861	20.800130
1225.319944	-2.997400	3.564200	-10.683000	25.381300	0.000860	20.803164
1226.320498	-3.000200	3.565200	-10.695000	25.372962	0.000861	20.784834
1227.320651	-3.006700	3.563200	-10.711000	25.430970	0.000861	20.801355
1228.322694	-2.985300	3.564600	-10.640000	25.392917	0.000859	20.787802
1229.324156	-2.994200	3.564800	-10.673000	25.415265	0.000859	20.784163
1230.323393	-2.982700	3.563900	-10.629000	25.388643	0.000858	20.772130
1231.323140	-2.995100	3.563000	-10.670000	25.375771	0.000858	20.797137
1232.326237	-2.978300	3.563400	-10.611000	25.394016	0.000856	20.778947
1233.326037	-2.992800	3.563800	-10.665000	25.423195	0.000855	20.781694
1234.324616	-2.993500	3.562500	-10.663000	25.429162	0.000855	20.773461
1235.328121	-2.988000	3.563300	-10.646000	25.443279	0.000855	20.777680
1236.325151	-2.986600	3.561100	-10.635000	25.467164	0.000854	20.789337
1237.325979	-2.983900	3.561300	-10.625000	25.457070	0.000853	20.792951
1238.329052	-2.979600	3.561800	-10.611000	25.474296	0.000853	20.779429
1239.327203	-2.988200	3.561300	-10.641000	25.502234	0.000852	20.784726
1240.327444	-2.974900	3.560800	-10.591000	25.481889	0.000851	20.761450
1241.329735	-2.993400	3.558900	-10.653000	25.475688	0.000852	20.775137
1242.328019	-3.039000	3.558800	-10.814000	25.436781	0.000853	20.749817
1243.326786	-2.995300	3.558100	-10.656000	25.393069	0.000849	20.786057
1244.328964	-2.986500	3.558900	-10.628000	25.359249	0.000851	20.791927
1245.329175	-2.998800	3.558500	-10.670000	25.330117	0.000849	20.755089
1246.327872	-3.023800	3.558300	-10.758000	25.288095	0.000849	20.770270
1247.327833	-3.016800	3.557900	-10.733000	25.269669	0.000851	20.767418
1248.332354	-2.998200	3.557500	-10.666000	25.268578	0.000850	20.770115
1249.329243	-3.006700	3.555600	-10.690000	25.248376	0.000848	20.761686
1250.331291	-3.018600	3.558000	-10.739000	25.227743	0.000846	20.754247
1251.330701	-3.003700	3.557000	-10.683000	25.246690	0.000848	20.739130
1252.329298	-3.003500	3.556500	-10.681000	25.264612	0.000845	20.766607
1253.330875	-3.006900	3.555900	-10.691000	25.262772	0.000847	20.756699
1254.339915	-3.002800	3.554600	-10.673000	25.250794	0.000844	20.768381
1255.330617	-2.992200	3.555700	-10.639000	25.232375	0.000844	20.763165
1256.330453	-3.006100	3.555700	-10.688000	25.262128	0.000843	20.756053
1257.332035	-2.996500	3.555200	-10.652000	25.249874	0.000845	20.752758
1258.330567	-2.984100	3.554800	-10.607000	25.308668	0.000843	20.764848
1259.331021	-3.016500	3.554100	-10.720000	25.336677	0.000843	20.770211
1260.332318	-2.995600	3.555100	-10.648000	25.360614	0.000843	20.743036
1261.330331	-3.005300	3.553400	-10.678000	25.367998	0.000841	20.770366
1262.332351	-3.001300	3.553000	-10.662000	25.361030	0.000840	20.759102
1263.331303	-2.996400	3.553200	-10.646000	25.344135	0.000839	20.764423
1264.331785	-3.017500	3.553100	-10.720000	25.392725	0.000841	20.737820
1265.332227	-3.006900	3.551300	-10.677000	25.400711	0.000838	20.746788
1266.333126	-3.005000	3.551400	-10.671000	25.382312	0.000837	20.766720
1267.332671	-3.010100	3.552000	-10.691000	25.376481	0.000837	20.767030
1268.333461	-3.038300	3.549200	-10.781000	25.393089	0.000838	20.754783
1269.333242	-3.006300	3.550000	-10.670000	25.403926	0.000837	20.750017
1270.333335	-2.991000	3.550300	-10.618000	25.401484	0.000838	20.763212
1271.333880	-3.009600	3.549000	-10.679000	25.351485	0.000836	20.768959
1272.337934	-2.999100	3.551100	-10.649000	25.339606	0.000838	20.750867
1273.335130	-3.009500	3.549200	-10.680000	25.307176	0.000836	20.745331
1274.335727	-3.006100	3.550200	-10.671000	25.297154	0.000835	20.761347
1275.335474	-3.008100	3.549600	-10.677000	25.311720	0.000833	20.746574
1276.336009	-2.978800	3.550400	-10.574000	25.328182	0.000832	20.729438
1277.335384	-3.005200	3.549200	-10.665000	25.327669	0.000833	20.750734
1278.341626	-2.996400	3.547700	-10.628000	25.336064	0.000832	20.751577
1279.337983	-2.997000	3.547400	-10.630000	25.348618	0.000832	20.767976
1280.336321	-2.996800	3.548300	-10.632000	25.338009	0.000831	20.744521
1281.340777	-3.009800	3.548400	-10.679000	25.318525	0.000831	20.744872
1282.339652	-3.008400	3.546200	-10.668000	25.336967	0.000832	20.737310
1283.337735	-3.009200	3.545700	-10.669000	25.362393	0.000830	20.742926
1284.341426	-2.984100	3.547700	-10.585000	25.352704	0.000830	20.742207
1285.340524	-3.029600	3.542700	-10.732000	25.333644	0.000829	20.739190
1286.340219	-3.010500	3.545700	-10.672000	25.322384	0.000829	20.728831
1287.341754	-2.989700	3.546800	-10.602000	25.309934	0.000829	20.740040
1288.339540	-3.005500	3.544800	-10.653000	25.309983	0.000828	20.753840
1289.340263	-3.014500	3.543500	-10.681000	25.322391	0.000827	20.739745
1290.341136	-2.978900	3.544800	-10.559000	25.340035	0.000828	20.757935
1291.342767	-3.000600	3.544600	-10.636000	25.314118	0.000826	20.740922
1292.341540	-3.019000	3.542000	-10.691000	25.302931	0.000826	20.732060
1293.343172	-3.007300	3.543200	-10.654000	25.322748	0.000826	20.739155
1294.346873	-2.979300	3.543200	-10.556000	25.322927	0.000825	20.736016
1295.342622	-2.985600	3.543900	-10.580000	25.355959	0.000824	20.741207
1296.342622	-2.984300	3.544400	-10.576000	25.354070	0.000827	20.729827
1297.344810	-2.977400	3.543400	-10.548000	25.366128	0.000824	20.710164
1298.351870	-2.983000	3.542800	-10.568000	25.372217	0.000822	20.736669
1299.344560	-2.970400	3.542100	-10.521000	25.391635	0.000824	20.726294
1300.344907	-3.015300	3.540500	-10.674000	25.416067	0.000823	20.738026
1301.345825	-3.029600	3.539800	-10.723000	25.415049	0.000823	20.729891
1302.345412	-2.989500	3.541000	-10.584000	25.432691	0.000819	20.734330
1303.345182	-2.987600	3.541500	-10.580000	25.436273	0.000820	20.735556
1304.348427	-3.022600	3.540300	-10.700000	25.426389	0.000819	20.740804
1305.347029	-3.004000	3.539500	-10.631000	25.406777	0.000819	20.726326
1306.345144	-2.970200	3.540400	-10.515000	25.413395	0.000822	20.735343
1307.347610	-2.988600	3.539400	-10.577000	25.395501	0.000819	20.737289
1308.345252	-3.001100	3.538800	-10.620000	25.404798	0.000818	20.740461
1309.347313	-3.013400	3.536900	-10.656000	25.437534	0.000816	20.724493
1310.347118	-2.972700	3.539200	-10.520000	25.465490	0.000816	20.729808
1311.347138	-2.981700	3.537100	-10.545000	25.490092	0.000815	20.735547
1312.345952	-2.989700	3.536700	-10.572000	25.500577	0.000818	20.741809
1313.347552	-2.982000	3.537300	-10.548000	25.451895	0.000814	20.727061
1314.346353	-2.979800	3.537600	-10.540000	25.444291	0.000813	20.722744
1315.345701	-2.984000	3.536600	-10.552000	25.419842	0.000816	20.725695
1316.347229	-2.992100	3.536300	-10.581000	25.404333	0.000813	20.729088
1317.354137	-3.009300	3.534300	-10.634000	25.399090	0.000814	20.730461
1318.348212	-3.010700	3.535000	-10.641000	25.398373	0.000812	20.714568
1319.348379	-3.012200	3.534700	-10.645000	25.450836	0.000812	20.717462
1320.353511	-3.017600	3.535100	-10.666000	25.451552	0.000811	20.722449
1321.350717	-2.998800	3.535600	-10.602000	25.447384	0.000810	20.732014
1322.350191	-2.991600	3.534300	-10.572000	25.434040	0.000811	20.726675
1323.354612	-3.011400	3.534000	-10.640000	25.443403	0.000809	20.742716
1324.350894	-2.991900	3.533500	-10.571000	25.430833	0.000811	20.712548
1325.352039	-3.008000	3.533100	-10.626000	25.446716	0.000809	20.728973
1326.351796	-3.023300	3.532100	-10.678000	25.451007	0.000811	20.734230
1327.354742	-3.003300	3.532400	-10.607000	25.441130	0.000807	20.730476
1328.352473	-2.978800	3.533100	-10.523000	25.464805	0.000808	20.712523
1329.353032	-3.016300	3.532900	-10.655000	25.486728	0.000806	20.712727
1330.357232	-3.015400	3.531200	-10.647000	25.494975	0.000809	20.694455
1331.356812	-3.005000	3.531600	-10.611000	25.512225	0.000807	20.692337
1332.355073	-3.031800	3.530300	-10.702000	25.533349	0.000806	20.709285
1333.359440	-2.990000	3.531700	-10.559000	25.533528	0.000805	20.721794
1334.360117	-3.014400	3.530400	-10.642000	25.552854	0.000807	20.696155
1335.358164	-3.026200	3.529700	-10.680000	25.557005	0.000805	20.706489
1336.360183	-2.987700	3.529800	-10.545000	25.543688	0.000804	20.713504
1337.357931	-2.995700	3.528700	-10.569000	25.507234	0.000803	20.702499
1338.358760	-2.981900	3.530500	-10.527000	25.476869	0.000803	20.721319
1339.361767	-2.991000	3.528100	-10.552000	25.469958	0.000801	20.698730
1340.363537	-3.011500	3.528300	-10.625000	25.503685	0.000802	20.704150
1341.360972	-2.978900	3.528500	-10.510000	25.507283	0.000801	20.731474
1342.359908	-3.007000	3.527200	-10.605000	25.472050	0.000800	20.712212
1343.360621	-2.963100	3.530100	-10.459000	25.459252	0.000803	20.709792
1344.360914	-3.000900	3.527200	-10.583000	25.408557	0.000799	20.704878
1345.361002	-2.996300	3.524900	-10.560000	25.374680	0.000799	20.709268
1346.360495	-2.975500	3.527500	-10.495000	25.330770	0.000800	20.689360
1347.361712	-2.979400	3.526400	-10.506000	25.340631	0.000799	20.714909
1348.360911	-2.987800	3.526300	-10.535000	25.351394	0.000799	20.704853
1349.367055	-2.987000	3.526500	-10.533000	25.362385	0.000797	20.696448
1350.363334	-2.964200	3.528200	-10.456000	25.386664	0.000796	20.695696
1351.362551	-2.997500	3.525400	-10.567000	25.395164	0.000797	20.691428
1352.363078	-3.012500	3.523100	-10.612000	25.425336	0.000796	20.725995
1353.362731	-2.995100	3.525900	-10.560000	25.430522	0.000798	20.713659
1354.363696	-2.980900	3.524600	-10.505000	25.430351	0.000795	20.716806
1355.371837	-3.007400	3.522900	-10.593000	25.422356	0.000795	20.695026
1356.364896	-2.998100	3.523500	-10.562000	25.442212	0.000792	20.689834
1357.364788	-3.021600	3.522600	-10.642000	25.468272	0.000794	20.691347
1358.364924	-3.006700	3.522200	-10.590000	25.477422	0.000794	20.697217
1359.364810	-2.994400	3.522700	-10.547000	25.485963	0.000793	20.686352
1360.365369	-2.997000	3.522900	-10.557000	25.460057	0.000792	20.701116
1361.366000	-2.992400	3.521900	-10.538000	25.431401	0.000791	20.713118
1362.364228	-2.986600	3.522200	-10.518000	25.407889	0.000792	20.699465
1363.366948	-3.012500	3.520500	-10.604000	25.349562	0.000791	20.687839
1364.366804	-2.992100	3.520200	-10.532000	25.335615	0.000791	20.688060
1365.367055	-2.995300	3.520200	-10.543000	25.320088	0.000790	20.700920
1366.366973	-3.004400	3.520700	-10.575000	25.307142	0.000789	20.687920
1367.366291	-3.010200	3.518600	-10.590000	25.331152	0.000790	20.698279
1368.369777	-2.989400	3.518700	-10.518000	25.369948	0.000787	20.696456
1369.371758	-3.006000	3.517700	-10.572000	25.399453	0.000787	20.694787
1370.366086	-3.012600	3.518000	-10.596000	25.391971	0.000787	20.700551
1371.368788	-2.999600	3.517500	-10.549000	25.442650	0.000786	20.685532
1372.371130	-3.012400	3.515900	-10.590000	25.396343	0.000787	20.671274
1373.368347	-3.005600	3.517600	-10.572000	25.365503	0.000786	20.693414
1374.372070	-2.986500	3.518200	-10.506000	25.363271	0.000785	20.691173
1375.370496	-2.997800	3.516000	-10.539000	25.345547	0.000785	20.694240
1376.371670	-3.013400	3.515900	-10.594000	25.343893	0.000783	20.694950
1377.372426	-3.003900	3.515500	-10.559000	25.327350	0.000784	20.702048
1378.370758	-2.987600	3.516200	-10.505000	25.376420	0.000782	20.679245
1379.370280	-3.018600	3.515400	-10.611000	25.404581	0.000783	20.670063
1380.373599	-3.000600	3.514600	-10.545000	25.422850	0.000782	20.665648
1381.371006	-2.989900	3.514700	-10.507000	25.407512	0.000783	20.684387
1382.370491	-2.959400	3.516300	-10.406000	25.420734	0.000780	20.668739
1383.372414	-3.001300	3.513000	-10.543000	25.441510	0.000781	20.679645
1384.371134	-2.983400	3.514800	-10.485000	25.479928	0.000781	20.671282
1385.372721	-2.996100	3.513700	-10.526000	25.497609	0.000780	20.702316
1386.373890	-3.005300	3.514000	-10.560000	25.512434	0.000779	20.677372
1387.372751	-2.973700	3.514400	-10.450000	25.547380	0.000776	20.663628
1388.373451	-3.015900	3.512300	-10.592000	25.569375	0.000778	20.687616
1389.374219	-3.013700	3.510900	-10.580000	25.575879	0.000777	20.690355
1390.377564	-3.004100	3.511500	-10.548000	25.591785	0.000778	20.688785
1391.375186	-2.987500	3.513000	-10.494000	25.570123	0.000776	20.688842
1392.374842	-2.990700	3.510500	-10.498000	25.581577	0.000777	20.683274
1393.374552	-2.998400	3.511800	-10.529000	25.554836	0.000778	20.680127
1394.374715	-2.972600	3.511300	-10.436000	25.543537	0.000773	20.665933
1395.374315	-2.980700	3.509400	-10.460000	25.479747	0.000774	20.663513
1396.376264	-3.007500	3.508800	-10.552000	25.482556	0.000775	20.669179
1397.375669	-3.023100	3.509200	-10.607000	25.466779	0.000773	20.680837
1398.377543	-3.020000	3.507700	-10.592000	25.484762	0.000772	20.692734
1399.378207	-3.036400	3.506700	-10.647000	25.446702	0.000773	20.675376
1400.381989	-2.985500	3.508700	-10.474000	25.452630	0.000773	20.680854
1401.384578	-2.994100	3.506300	-10.497000	25.395135	0.000771	20.660577
1402.379376	-2.982300	3.507800	-10.460000	25.390511	0.000772	20.669211
1403.383814	-3.022200	3.506100	-10.594000	25.415888	0.000773	20.677150
1404.380347	-3.010100	3.506900	-10.555000	25.414089	0.000770	20.686250
1405.379701	-2.990600	3.507900	-10.489000	25.421204	0.000768	20.655933
1406.380021	-2.998800	3.505700	-10.512000	25.427416	0.000768	20.666914
1407.379982	-3.021200	3.505400	-10.590000	25.416059	0.000769	20.672105
1408.380418	-3.014700	3.505700	-10.567000	25.463155	0.000768	20.666292
1409.380812	-3.002000	3.504100	-10.518000	25.471948	0.000770	20.675597
1410.382819	-3.001500	3.505700	-10.520000	25.498194	0.000767	20.684884
1411.385679	-3.013300	3.504200	-10.556000	25.474512	0.000766	20.656358
1412.382327	-2.998400	3.503600	-10.504000	25.444325	0.000767	20.644061
1413.383169	-2.960100	3.505800	-10.376000	25.404457	0.000766	20.666145
1414.383602	-2.995800	3.502400	-10.491000	25.368391	0.000766	20.678294
1415.384344	-3.008700	3.502100	-10.535000	25.358229	0.000765	20.675204
1416.387282	-3.004300	3.503000	-10.523000	25.354207	0.000764	20.676381
1417.385507	-3.000000	3.503700	-10.509000	25.368520	0.000766	20.650921
1418.385698	-3.003600	3.502500	-10.518000	25.410547	0.000763	20.657086
1419.387299	-2.985500	3.501400	-10.452000	25.394849	0.000763	20.661712
1420.388025	-2.993600	3.500700	-10.479000	25.356568	0.000763	20.666422
1421.389112	-2.988900	3.501400	-10.464000	25.334251	0.000762	20.668196
1422.387682	-2.987100	3.501200	-10.458000	25.302692	0.000762	20.659268
1423.389008	-2.994200	3.500300	-10.479000	25.292824	0.000762	20.669749
1424.389139	-3.006500	3.499300	-10.520000	25.265164	0.000760	20.657624
1425.388321	-3.012100	3.497600	-10.533000	25.265213	0.000761	20.661941
1426.391843	-2.994900	3.498700	-10.478000	25.251094	0.000760	20.667206
1427.389919	-3.010600	3.497600	-10.528000	25.267899	0.000759	20.648516
1428.390287	-3.003700	3.498300	-10.507000	25.298222	0.000759	20.658098
1429.391175	-2.993500	3.497700	-10.469000	25.333786	0.000760	20.661091
1430.394804	-3.004600	3.496700	-10.505000	25.321614	0.000758	20.645073
1431.392954	-3.000400	3.497100	-10.492000	25.341895	0.000756	20.668759
1432.393339	-2.988500	3.496500	-10.448000	25.331628	0.000756	20.660346
1433.393965	-3.005500	3.495300	-10.505000	25.361973	0.000755	20.658572
1434.390715	-3.015200	3.495100	-10.538000	25.403910	0.000756	20.663224
1435.394898	-3.024500	3.495000	-10.570000	25.428432	0.000755	20.668882
1436.390267	-3.004600	3.494300	-10.497000	25.440978	0.000754	20.656823
1437.390775	-3.016900	3.493700	-10.538000	25.389166	0.000755	20.668334
1438.394042	-2.992900	3.494600	-10.457000	25.361127	0.000755	20.655825
1439.394926	-3.020700	3.492500	-10.550000	25.317860	0.000755	20.659324
1440.391712	-3.024300	3.493200	-10.563000	25.336855	0.000754	20.645678
1441.393436	-3.002900	3.493900	-10.491000	25.341895	0.000754	20.674450
1442.391116	-2.989300	3.492800	-10.441000	25.362624	0.000754	20.661597
1443.390140	-2.998100	3.492100	-10.469000	25.350948	0.000753	20.681170
1444.393861	-3.037300	3.490800	-10.602000	25.343231	0.000751	20.668204
1445.391011	-3.014700	3.491300	-10.524000	25.350542	0.000752	20.659897
1446.389929	-3.005500	3.493600	-10.498000	25.351095	0.000753	20.661875
1447.391221	-2.994900	3.492900	-10.458000	25.327190	0.000751	20.670590
1448.393979	-2.995600	3.492200	-10.460000	25.332353	0.000749	20.657754
1449.390543	-3.018600	3.489800	-10.532000	25.363520	0.000752	20.663445
1450.389951	-2.998700	3.492400	-10.472000	25.374552	0.000750	20.678317
1451.395319	-2.993200	3.489800	-10.444000	25.347912	0.000748	20.666740
1452.389964	-2.990700	3.489800	-10.436000	25.383629	0.000749	20.667042
1453.390236	-2.999600	3.488500	-10.462000	25.410489	0.000748	20.678840
1454.393854	-2.981500	3.489500	-10.404000	25.413867	0.000747	20.669904
1455.390933	-3.006500	3.487300	-10.483000	25.446806	0.000747	20.668841
1456.391823	-3.017100	3.488900	-10.526000	25.460467	0.000747	20.679241
1457.393083	-3.006700	3.486800	-10.482000	25.433032	0.000747	20.691047
1458.393619	-2.994700	3.487800	-10.444000	25.446375	0.000747	20.666511
1459.396267	-2.987100	3.490100	-10.424000	25.458498	0.000744	20.659717
1460.395978	-2.999700	3.487300	-10.460000	25.508922	0.000746	20.687597
1461.396589	-2.998000	3.486200	-10.449000	25.498314	0.000744	20.668408
1462.394584	-3.020600	3.484900	-10.523000	25.484068	0.000745	20.665007
1463.398096	-3.000500	3.485800	-10.458000	25.479599	0.000743	20.682806
1464.396975	-3.001500	3.485000	-10.459000	25.460516	0.000744	20.672651
1465.395040	-2.976500	3.486600	-10.376000	25.444332	0.000744	20.667779
1466.396608	-2.984800	3.485700	-10.403000	25.405612	0.000742	20.679160
1467.395438	-2.992300	3.484500	-10.425000	25.432576	0.000743	20.687744
1468.396327	-3.006000	3.484800	-10.474000	25.436200	0.000742	20.689486
1469.396908	-2.995300	3.482800	-10.431000	25.467853	0.000740	20.697565
1470.396547	-3.002300	3.482800	-10.455000	25.513457	0.000740	20.676029
1471.397995	-3.026200	3.481300	-10.534000	25.496785	0.000740	20.678727
1472.397180	-2.993600	3.482100	-10.423000	25.478468	0.000739	20.656538
1473.402131	-3.020100	3.481900	-10.515000	25.497184	0.000739	20.691457
1474.400382	-3.006700	3.481200	-10.466000	25.457416	0.000739	20.701783
1475.396870	-2.980200	3.481600	-10.375000	25.436884	0.000738	20.690648
1476.399241	-2.998600	3.480900	-10.435000	25.425177	0.000738	20.685056
1477.398308	-3.004900	3.481200	-10.459000	25.406818	0.000738	20.656186
1478.398836	-3.006200	3.479800	-10.460000	25.436689	0.000735	20.683339
1479.400161	-3.023800	3.478800	-10.518000	25.457929	0.000737	20.674321
1480.399865	-3.008400	3.479200	-10.465000	25.499033	0.000738	20.675294
1481.399260	-3.019900	3.478000	-10.501000	25.501963	0.000735	20.665434
1482.398863	-3.017800	3.477400	-10.493000	25.469132	0.000734	20.696952
1483.399398	-3.021000	3.478500	-10.508000	25.471322	0.000734	20.682555
1484.404103	-3.040100	3.476300	-10.566000	25.430861	0.000733	20.685547
1485.399737	-3.000100	3.478600	-10.433000	25.459786	0.000734	20.669073
1486.403440	-3.000300	3.476900	-10.431000	25.485039	0.000733	20.690166
1487.403416	-2.996500	3.478100	-10.421000	25.510252	0.000734	20.684191
1488.402420	-2.979400	3.477400	-10.360000	25.542309	0.000732	20.701213
1489.404602	-3.011800	3.476200	-10.469000	25.531425	0.000732	20.696920
1490.407144	-3.004700	3.476200	-10.444000	25.564321	0.000731	20.679220
1491.401403	-3.001400	3.475400	-10.430000	25.559232	0.000731	20.700665
1492.403041	-2.973200	3.474900	-10.330000	25.546534	0.000730	20.692653
1493.408060	-2.998000	3.475900	-10.419000	25.529407	0.000731	20.683038
1494.402964	-2.988100	3.474400	-10.380000	25.498196	0.000729	20.684412
1495.405129	-2.979300	3.475300	-10.354000	25.499482	0.000731	20.701827
1496.404064	-2.979800	3.475600	-10.355000	25.514689	0.000729	20.683905
1497.403155	-2.981200	3.473700	-10.354000	25.550597	0.000729	20.703846
1498.407056	-3.014400	3.472400	-10.466000	25.563613	0.000726	20.704591
1499.404943	-2.982700	3.472300	-10.356000	25.572591	0.000729	20.671879
1500.404220	-3.004100	3.472400	-10.430000	25.555277	0.000728	20.682940
1501.408441	-2.996000	3.473100	-10.405000	25.519183	0.000725	20.701222
1502.403470	-2.990300	3.471100	-10.379000	25.485684	0.000727	20.674217
1503.405478	-3.004400	3.471100	-10.428000	25.461726	0.000725	20.690937
1504.404798	-3.003000	3.471100	-10.423000	25.473026	0.000725	20.715563
1505.406572	-3.007500	3.469800	-10.434000	25.503717	0.000726	20.699915
1506.407330	-3.003800	3.470400	-10.423000	25.531647	0.000724	20.708050
1507.407790	-2.993500	3.470100	-10.386000	25.521081	0.000725	20.710241
1508.410062	-2.994000	3.468100	-10.382000	25.552348	0.000726	20.689008
1509.407335	-3.006900	3.469700	-10.432000	25.527219	0.000724	20.705974
1510.407861	-2.980300	3.469400	-10.339000	25.514447	0.000722	20.715433
1511.407944	-3.028400	3.466900	-10.498000	25.498613	0.000721	20.698583
1512.409441	-3.000400	3.467200	-10.402000	25.484367	0.000723	20.706089
1513.410372	-2.997500	3.468600	-10.396000	25.438696	0.000722	20.708590
1514.411071	-3.029200	3.466000	-10.497000	25.436572	0.000721	20.703138
1515.412222	-2.975800	3.466300	-10.313000	25.467614	0.000721	20.711550
1516.413443	-2.987900	3.467300	-10.359000	25.464106	0.000719	20.697595
1517.414111	-3.004400	3.464700	-10.408000	25.455851	0.000719	20.714437
1518.416669	-3.004400	3.465700	-10.412000	25.466589	0.000720	20.707676
1519.415051	-2.992600	3.465400	-10.369000	25.496206	0.000719	20.713236
1520.415840	-3.028500	3.464200	-10.490000	25.525976	0.000718	20.725115
1521.422472	-3.019200	3.463400	-10.455000	25.504200	0.000718	20.714152
1522.419914	-3.028700	3.463500	-10.488000	25.506512	0.000716	20.708413
1523.416726	-3.002700	3.464900	-10.402000	25.535233	0.000717	20.721609
1524.420801	-3.006500	3.462700	-10.410000	25.564456	0.000716	20.743846
1525.418456	-2.987500	3.463200	-10.344000	25.577798	0.000718	20.712199
1526.422119	-3.001100	3.462900	-10.392000	25.572898	0.000716	20.729564
1527.419732	-3.011800	3.461500	-10.424000	25.552043	0.000716	20.709093
1528.420172	-2.991700	3.461000	-10.353000	25.509330	0.000713	20.719778
1529.417598	-3.005100	3.461500	-10.402000	25.519881	0.000712	20.725159
1530.418928	-3.002900	3.462000	-10.395000	25.490338	0.000714	20.709240
1531.419854	-3.004100	3.460100	-10.393000	25.470507	0.000713	20.713982
1532.419076	-3.000600	3.460500	-10.382000	25.456058	0.000712	20.713697
1533.420973	-2.976500	3.460600	-10.300000	25.461529	0.000711	20.729623
1534.418675	-2.989400	3.460700	-10.343000	25.471094	0.000713	20.727375
1535.418288	-3.008800	3.461200	-10.411000	25.505090	0.000711	20.710778
1536.421166	-3.010200	3.458900	-10.411000	25.497951	0.000710	20.730637
1537.420707	-2.991600	3.460100	-10.350000	25.481646	0.000711	20.719004
1538.419948	-2.996500	3.460200	-10.365000	25.503333	0.000712	20.727507
1539.422438	-2.998700	3.458100	-10.369000	25.465641	0.000711	20.715734
1540.419817	-3.003500	3.458700	-10.386000	25.469264	0.000709	20.729804
1541.420231	-2.989700	3.457600	-10.336000	25.507152	0.000708	20.736558
1542.419799	-3.000900	3.456800	-10.373000	25.519313	0.000710	20.742607
1543.421515	-2.994300	3.455900	-10.347000	25.504148	0.000708	20.732118
1544.427049	-2.989300	3.455900	-10.330000	25.523824	0.000709	20.736705
1545.421413	-3.020200	3.455700	-10.436000	25.526510	0.000707	20.726600
1546.423193	-3.003300	3.455300	-10.376000	25.524345	0.000706	20.735332
1547.421137	-3.015600	3.454400	-10.416000	25.518557	0.000704	20.730942
1548.420825	-3.003800	3.454900	-10.376000	25.555091	0.000705	20.735389
1549.424212	-3.027600	3.453700	-10.455000	25.598519	0.000706	20.740597
1550.424443	-3.001400	3.453800	-10.365000	25.608637	0.000705	20.758820
1551.421884	-2.997300	3.453700	-10.351000	25.629182	0.000704	20.758117
1552.422065	-3.009800	3.453000	-10.392000	25.646006	0.000702	20.720959
1553.425847	-2.998000	3.453600	-10.353000	25.670775	0.000703	20.739199
1554.425951	-2.981000	3.452300	-10.291000	25.670954	0.000705	20.752181
1555.425349	-2.979800	3.453200	-10.289000	25.708916	0.000702	20.733885
1556.424760	-2.981000	3.453900	-10.295000	25.729809	0.000703	20.735904
1557.426992	-2.986100	3.451200	-10.305000	25.774157	0.000703	20.740622
1558.424885	-2.992300	3.450900	-10.325000	25.751303	0.000700	20.724303
1559.428492	-2.995700	3.451400	-10.338000	25.722703	0.000702	20.741096
1560.424548	-2.984600	3.450000	-10.296000	25.701908	0.000701	20.756719
1561.424866	-3.004700	3.448400	-10.361000	25.686728	0.000702	20.733411
1562.425636	-3.000300	3.449500	-10.349000	25.692295	0.000701	20.748012
1563.429427	-3.018400	3.448800	-10.410000	25.699743	0.000697	20.711868
1564.426395	-2.999700	3.448800	-10.343000	25.707597	0.000699	20.764330
1565.426419	-3.003600	3.448200	-10.356000	25.741334	0.000698	20.739420
1566.429514	-3.013100	3.448300	-10.389000	25.732568	0.000700	20.751953
1567.428944	-2.974300	3.448300	-10.255000	25.717535	0.000699	20.724050
1568.426987	-2.983600	3.447200	-10.284000	25.723648	0.000697	20.742518
1569.428680	-2.998300	3.446400	-10.332000	25.750775	0.000695	20.748904
1570.429975	-2.959700	3.448700	-10.206000	25.753363	0.000696	20.749132
1571.426910	-2.989000	3.448500	-10.306000	25.800770	0.000696	20.746491
1572.430708	-2.978200	3.448200	-10.268000	25.791378	0.000696	20.737531
1573.429233	-3.013900	3.444600	-10.381000	25.790930	0.000695	20.753203
1574.427288	-2.994200	3.445300	-10.315000	25.776265	0.000693	20.749378
1575.430295	-2.991900	3.445500	-10.307000	25.798231	0.000694	20.768598
1576.430006	-3.017000	3.443900	-10.389000	25.796115	0.000693	20.769318
1577.430167	-2.986700	3.444100	-10.285000	25.772871	0.000693	20.763512
1578.432570	-3.038900	3.442900	-10.462000	25.787178	0.000692	20.748012
1579.429867	-3.021800	3.443200	-10.403000	25.768395	0.000693	20.745739
1580.429859	-2.989200	3.443200	-10.291000	25.765041	0.000692	20.751380
1581.431181	-2.984500	3.442200	-10.272000	25.771056	0.000691	20.759793
1582.432322	-2.997700	3.441500	-10.316000	25.772367	0.000691	20.757316
1583.432808	-3.001200	3.441300	-10.327000	25.809762	0.000690	20.759793
1584.433389	-3.020500	3.440300	-10.390000	25.787895	0.000690	20.758215
1585.435181	-3.007400	3.442100	-10.350000	25.780457	0.000689	20.781565
1586.432930	-2.999900	3.440400	-10.320000	25.786829	0.000689	20.754773
1587.432770	-2.990200	3.441400	-10.289000	25.778731	0.000689	20.753751
1588.431698	-2.995400	3.440000	-10.304000	25.784265	0.000688	20.767372
1589.431774	-2.997300	3.439500	-10.308000	25.804913	0.000686	20.760611
1590.432232	-2.994400	3.439400	-10.299000	25.806468	0.000688	20.785407
1591.433272	-2.997700	3.438800	-10.308000	25.815493	0.000686	20.755117
1592.434206	-3.012800	3.438300	-10.358000	25.847492	0.000687	20.756441
1593.439129	-2.988600	3.438700	-10.277000	25.832453	0.000686	20.756982
1594.433770	-2.997300	3.438700	-10.306000	25.845726	0.000685	20.766522
1595.435923	-2.997000	3.437600	-10.302000	25.826943	0.000687	20.758085
1596.436208	-2.992900	3.436400	-10.284000	25.849226	0.000686	20.770986
1597.434685	-2.997200	3.437000	-10.300000	25.845719	0.000685	20.764618
1598.450092	-3.010700	3.435800	-10.342000	25.845222	0.000685	20.771705
1599.434769	-2.979600	3.437800	-10.241000	25.833422	0.000684	20.772180
1600.434649	-3.000900	3.435300	-10.307000	25.825478	0.000685	20.766571
1601.436725	-3.025100	3.433300	-10.385000	25.823478	0.000682	20.768354
1602.435439	-2.980500	3.434700	-10.237000	25.829450	0.000683	20.773406
1603.436455	-2.979500	3.435800	-10.235000	25.822639	0.000682	20.767037
1604.436516	-2.989700	3.434600	-10.268000	25.845369	0.000682	20.763792
1605.437437	-2.991600	3.434200	-10.273000	25.823779	0.000680	20.781459
1606.436246	-2.986100	3.435000	-10.256000	25.793569	0.000680	20.778614
1607.435987	-2.981600	3.434100	-10.237000	25.779058	0.000680	20.758822
1608.439235	-2.997300	3.433100	-10.289000	25.730542	0.000679	20.765566
1609.436110	-2.979500	3.434000	-10.230000	25.749222	0.000680	20.764414
1610.435768	-2.976700	3.432700	-10.217000	25.743907	0.000679	20.777567
1611.438794	-2.996000	3.431800	-10.281000	25.750232	0.000678	20.779179
1612.435844	-2.983500	3.431500	-10.237000	25.740977	0.000680	20.773202
1613.436847	-3.005400	3.431400	-10.311000	25.761023	0.000676	20.774371
1614.441048	-2.950500	3.432200	-10.125000	25.775225	0.000679	20.779154
1615.440763	-2.983800	3.430900	-10.235000	25.765271	0.000678	20.777216
1616.438791	-3.000000	3.429300	-10.287000	25.766981	0.000678	20.774192
1617.442391	-3.001500	3.430200	-10.294000	25.707030	0.000675	20.789365
1618.441572	-2.997700	3.429300	-10.279000	25.672169	0.000675	20.789913
1619.438354	-3.007700	3.429800	-10.315000	25.680544	0.000674	20.789790
1620.441495	-3.000300	3.427600	-10.283000	25.699924	0.000675	20.776064
1621.442874	-3.004600	3.428600	-10.301000	25.688692	0.000676	20.788016
1622.438980	-3.008800	3.427600	-10.312000	25.680146	0.000673	20.784648
1623.439129	-2.992500	3.427100	-10.255000	25.692518	0.000674	20.780478
1624.439422	-2.986300	3.427100	-10.233000	25.696025	0.000671	20.793485
1625.438696	-2.999100	3.427600	-10.277000	25.679722	0.000673	20.789913
1626.439432	-3.012000	3.426200	-10.319000	25.705711	0.000672	20.785196
1627.440921	-3.024700	3.425300	-10.360000	25.711872	0.000671	20.782375
1628.441126	-2.993200	3.426100	-10.254000	25.741913	0.000671	20.773194
1629.442106	-3.007900	3.425000	-10.301000	25.766355	0.000671	20.776408
1630.442678	-2.994100	3.425500	-10.255000	25.741336	0.000671	20.786839
1631.441667	-2.991300	3.424200	-10.242000	25.732318	0.000672	20.794376
1632.441668	-2.976700	3.426000	-10.197000	25.739651	0.000669	20.794630
1633.446880	-2.989200	3.423900	-10.233000	25.743728	0.000671	20.802518
1634.442000	-3.003500	3.422200	-10.277000	25.775568	0.000669	20.793723
1635.443817	-3.009800	3.424000	-10.303000	25.793473	0.000671	20.792268
1636.443573	-3.002700	3.422200	-10.274000	25.828053	0.000670	20.790020
1637.445575	-3.005800	3.423000	-10.287000	25.852004	0.000667	20.797958
1638.444550	-3.001800	3.422600	-10.273000	25.872324	0.000666	20.794664
1639.444549	-3.016400	3.421500	-10.320000	25.906926	0.000665	20.810458
1640.445458	-2.987600	3.422200	-10.223000	25.904119	0.000668	20.819017
1641.445220	-3.007300	3.421100	-10.288000	25.900993	0.000665	20.804972
1642.444627	-3.001100	3.420600	-10.264000	25.924812	0.000665	20.787175
1643.446435	-2.991800	3.420400	-10.232000	25.900066	0.000665	20.828223
1644.444927	-2.997100	3.419600	-10.248000	25.890725	0.000664	20.813148
1645.444560	-2.991800	3.418900	-10.226000	25.889553	0.000665	20.807230
1646.448073	-2.997500	3.420300	-10.252000	25.902818	0.000665	20.811546
1647.444436	-2.994300	3.418700	-10.234000	25.869925	0.000664	20.812168
1648.443790	-2.968200	3.420600	-10.151000	25.823546	0.000664	20.801140
1649.446947	-2.975600	3.419900	-10.176000	25.803542	0.000663	20.817081
1650.446617	-2.999400	3.418400	-10.252000	25.819217	0.000662	20.811490
1651.445588	-3.002300	3.418300	-10.263000	25.823962	0.000661	20.821946
1652.445582	-3.004600	3.418500	-10.269000	25.830594	0.000662	20.814384
1653.446961	-2.980300	3.417300	-10.183000	25.821423	0.000661	20.802326
1654.445547	-3.014100	3.416400	-10.296000	25.802794	0.000661	20.821071
1655.445971	-3.009900	3.416100	-10.281000	25.785028	0.000661	20.815079
1656.449242	-2.993200	3.415500	-10.222000	25.748998	0.000660	20.824407
1657.445980	-2.995600	3.416100	-10.232000	25.784475	0.000659	20.832067
1658.447232	-2.984400	3.416600	-10.195000	25.806066	0.000659	20.821513
1659.448720	-3.001600	3.415300	-10.251000	25.776793	0.000657	20.812497
1660.448081	-2.997600	3.414500	-10.234000	25.761369	0.000659	20.806014
1661.447360	-2.985400	3.413700	-10.190000	25.759621	0.000658	20.805205
1662.450035	-3.006300	3.412400	-10.256000	25.728465	0.000659	20.830809
1663.449737	-3.020200	3.412300	-10.305000	25.716908	0.000657	20.838641
1664.448388	-2.998400	3.414500	-10.237000	25.727497	0.000655	20.827940
1665.448167	-3.005500	3.412600	-10.256000	25.746599	0.000656	20.837644
1666.446953	-2.977600	3.412900	-10.161000	25.777974	0.000654	20.816054
1667.447929	-3.015600	3.411200	-10.286000	25.786096	0.000656	20.808092
1668.452158	-2.979700	3.411900	-10.166000	25.762673	0.000652	20.817280
1669.453159	-2.998400	3.410600	-10.225000	25.792876	0.000653	20.839557
1670.449761	-2.993100	3.410400	-10.207000	25.837075	0.000653	20.814256
1671.448906	-3.008300	3.410900	-10.260000	25.892813	0.000655	20.815246
1672.452355	-3.007700	3.409900	-10.254000	25.877611	0.000654	20.843596
1673.449740	-2.987200	3.409400	-10.183000	25.881957	0.000654	20.825677
1674.449916	-3.023900	3.408800	-10.307000	25.845882	0.000654	20.811249
1675.457136	-2.994300	3.409100	-10.207000	25.844938	0.000652	20.827844
1676.449766	-3.002300	3.408700	-10.231000	25.833944	0.000651	20.800206
1677.451282	-3.001200	3.408700	-10.230000	25.887704	0.000651	20.820545
1678.454485	-2.988700	3.407900	-10.183000	25.867782	0.000650	20.820447
1679.451502	-2.988600	3.408600	-10.186000	25.875750	0.000651	20.831769
1680.451953	-3.006700	3.406800	-10.241000	25.843475	0.000650	20.828271
1681.457932	-2.998700	3.406700	-10.215000	25.851622	0.000650	20.802790
1682.452930	-3.009300	3.405700	-10.248000	25.859533	0.000650	20.801729
1683.454348	-2.990600	3.407200	-10.188000	25.882507	0.000649	20.803470
1684.452473	-2.996300	3.406200	-10.205000	25.857728	0.000650	20.791855
1685.453676	-2.994100	3.406400	-10.198000	25.851015	0.000651	20.811189
1686.452737	-2.997600	3.406100	-10.209000	25.824127	0.000651	20.816896
1687.452708	-2.986300	3.405200	-10.168000	25.835238	0.000650	20.805772
1688.453413	-3.010300	3.403100	-10.244000	25.819304	0.000648	20.801146
1689.455852	-3.003000	3.405200	-10.225000	25.811062	0.000649	20.804721
1690.452797	-3.052500	3.402500	-10.383000	25.851323	0.000646	20.806758
1691.456213	-2.980700	3.404200	-10.146000	25.833617	0.000648	20.822161
1692.454873	-3.038700	3.402700	-10.338000	25.854769	0.000648	20.809745
1693.454487	-2.997900	3.403300	-10.202000	25.869167	0.000647	20.797656
1694.455219	-2.995200	3.402600	-10.191000	25.853593	0.000648	20.802874
1695.454844	-3.000700	3.401200	-10.204000	25.851446	0.000649	20.810200
1696.454890	-3.002300	3.402300	-10.213000	25.911350	0.000646	20.790247
1697.455599	-3.007400	3.399800	-10.224000	25.924006	0.000645	20.821452
1698.454596	-2.996400	3.401700	-10.192000	25.914674	0.000645	20.797853
1699.455336	-2.993600	3.401800	-10.183000	25.934864	0.000643	20.811972
1700.454641	-2.997600	3.402100	-10.196000	25.913415	0.000644	20.786631
1701.456694	-2.999700	3.401000	-10.201000	25.952151	0.000643	20.809899
1702.459936	-3.013000	3.399700	-10.242000	25.962852	0.000644	20.791727
1703.456099	-2.991600	3.400100	-10.170000	25.957622	0.000641	20.808283
1704.461001	-3.018600	3.398500	-10.258000	25.951406	0.000641	20.796348
1705.458204	-3.005800	3.397300	-10.210000	25.942903	0.000641	20.795867
1706.458517	-2.985200	3.398800	-10.145000	25.937753	0.000643	20.812978
1707.458297	-3.006800	3.396800	-10.212000	25.915759	0.000640	20.807004
1708.462149	-3.005400	3.397700	-10.211000	25.892404	0.000639	20.806775
1709.459220	-3.023500	3.396700	-10.269000	25.878954	0.000639	20.778090
1710.457911	-3.007000	3.397900	-10.216000	25.849683	0.000638	20.784721
1711.461086	-3.013900	3.396600	-10.236000	25.812768	0.000637	20.804063
1712.461144	-2.988800	3.397300	-10.153000	25.780484	0.000638	20.803877
1713.457848	-2.985000	3.397500	-10.141000	25.738496	0.000636	20.802479
1714.460567	-3.021000	3.396000	-10.259000	25.705193	0.000636	20.784201
1715.460632	-3.019900	3.395000	-10.252000	25.708669	0.000635	20.805710
1716.459026	-3.009600	3.394400	-10.215000	25.720023	0.000633	20.798148
1717.461011	-2.984900	3.395300	-10.133000	25.690146	0.000633	20.779993
1718.458105	-2.976600	3.395800	-10.108000	25.716257	0.000635	20.791520
1719.457559	-2.992700	3.395400	-10.160000	25.700647	0.000634	20.774893
1720.456985	-2.979400	3.393800	-10.110000	25.667104	0.000634	20.792886
1721.458060	-2.998200	3.394300	-10.176000	25.644745	0.000632	20.797930
1722.457772	-2.984500	3.393800	-10.127000	25.665038	0.000630	20.784172
1723.458586	-2.966400	3.393500	-10.066000	25.687355	0.000631	20.787147
1724.458560	-3.005500	3.393300	-10.198000	25.708339	0.000632	20.789732
1725.458304	-3.001700	3.391700	-10.180000	25.723600	0.000633	20.758118
1726.461342	-3.006200	3.391800	-10.196000	25.752143	0.000630	20.801488
1727.459739	-3.010200	3.392400	-10.210000	25.794595	0.000629	20.801930
1728.465912	-3.006300	3.391500	-10.195000	25.814518	0.000630	20.776898
1729.459835	-2.994600	3.391500	-10.155000	25.802791	0.000630	20.785507
1730.463542	-2.980500	3.390900	-10.106000	25.810987	0.000629	20.801326
1731.462604	-3.000000	3.390100	-10.168000	25.769521	0.000629	20.785752
1732.461948	-2.985800	3.390300	-10.121000	25.782462	0.000626	20.792587
1733.465044	-2.987000	3.390800	-10.127000	25.776423	0.000627	20.787944
1734.461236	-2.994000	3.390300	-10.149000	25.791154	0.000626	20.785197
1735.461805	-2.980000	3.389500	-10.100000	25.788095	0.000625	20.775012
1736.462683	-2.983700	3.388500	-10.109000	25.796756	0.000625	20.785134
1737.461999	-2.995500	3.389000	-10.151000	25.802168	0.000623	20.782510
1738.461049	-2.994100	3.390100	-10.149000	25.829073	0.000625	20.786304
1739.464587	-3.001600	3.386900	-10.165000	25.825143	0.000625	20.790416
1740.464096	-3.027300	3.386800	-10.251000	25.852642	0.000620	20.795281
1741.462048	-3.003400	3.386800	-10.171000	25.856321	0.000623	20.807510
1742.461589	-3.024900	3.386300	-10.243000	25.853586	0.000622	20.787220
1743.464111	-3.010300	3.385900	-10.191000	25.835073	0.000621	20.769097
1744.462651	-3.002700	3.385700	-10.164000	25.782108	0.000621	20.783223
1745.462779	-3.014800	3.384000	-10.201000	25.741089	0.000621	20.777582
1746.462934	-3.031300	3.384000	-10.255000	25.714678	0.000620	20.783771
1747.462562	-2.989600	3.385900	-10.121000	25.661187	0.000619	20.777459
1748.462471	-2.976000	3.385800	-10.075000	25.650175	0.000621	20.771615
1749.464355	-3.004400	3.384700	-10.168000	25.635141	0.000620	20.781646
1750.464419	-3.019500	3.382300	-10.211000	25.620880	0.000616	20.776332
1751.462889	-2.980600	3.385100	-10.088000	25.653651	0.000618	20.782693
1752.466049	-2.991800	3.383100	-10.120000	25.674618	0.000615	20.784786
1753.463639	-2.996700	3.382400	-10.135000	25.732333	0.000619	20.771158
1754.462523	-3.002900	3.383400	-10.159000	25.739211	0.000617	20.775222
1755.463483	-3.003200	3.381800	-10.155000	25.770000	0.000616	20.749248
1756.462523	-2.988200	3.381500	-10.104000	25.798825	0.000615	20.756392
1757.462996	-3.008500	3.381600	-10.172000	25.799713	0.000614	20.758233
1758.463989	-2.990300	3.380000	-10.105000	25.810741	0.000617	20.773104
1759.463508	-3.002200	3.380000	-10.147000	25.834888	0.000613	20.774126
1760.464284	-2.999100	3.380600	-10.138000	25.833576	0.000615	20.757636
1761.466332	-3.007000	3.380100	-10.162000	25.869019	0.000613	20.774748
1762.467660	-2.980200	3.381200	-10.076000	25.877969	0.000613	20.773308
1763.469649	-3.044900	3.379200	-10.287000	25.860247	0.000614	20.750762
1764.464687	-3.019500	3.378500	-10.200000	25.838031	0.000613	20.761162
1765.467159	-3.027200	3.379300	-10.229000	25.872015	0.000613	20.770645
1766.468084	-2.998400	3.377900	-10.126000	25.901345	0.000613	20.759806
1767.466117	-2.999800	3.379300	-10.135000	25.905886	0.000614	20.749669
1768.470260	-3.016900	3.378300	-10.189000	25.911641	0.000611	20.767779
1769.468995	-3.020500	3.377900	-10.202000	25.839971	0.000610	20.758369
1770.466005	-3.004100	3.378300	-10.148000	25.823321	0.000610	20.756817
1771.470118	-3.009500	3.376300	-10.160000	25.794618	0.000608	20.726087
1772.469384	-2.998600	3.376700	-10.125000	25.769170	0.000605	20.762640
1773.467317	-3.003800	3.376600	-10.141000	25.784398	0.000607	20.767030
1774.471606	-2.997200	3.375600	-10.116000	25.779775	0.000609	20.752904
1775.468037	-2.994500	3.375100	-10.106000	25.800335	0.000607	20.762650
1776.468393	-2.998800	3.375700	-10.122000	25.846219	0.000606	20.749472
1777.466021	-2.989300	3.374600	-10.086000	25.859372	0.000606	20.752728
1778.470500	-2.988000	3.375300	-10.085000	25.850330	0.000604	20.753128
1779.468112	-3.003100	3.374400	-10.132000	25.874745	0.000606	20.746360
1780.469871	-2.989300	3.374500	-10.087000	25.834041	0.000604	20.741032
1781.473452	-3.011800	3.374700	-10.163000	25.873046	0.000604	20.746075
1782.470742	-2.993100	3.374900	-10.100000	25.894603	0.000603	20.745921
1783.470695	-3.005300	3.374000	-10.139000	25.907511	0.000603	20.734231
1784.473427	-3.007300	3.371900	-10.139000	25.933494	0.000603	20.753697
1785.471805	-3.018700	3.372100	-10.178000	25.951177	0.000601	20.740642
1786.472819	-2.976100	3.373500	-10.038000	25.930404	0.000600	20.753911
1787.474243	-2.988300	3.370600	-10.072000	25.975964	0.000600	20.760329
1788.473054	-2.992400	3.372200	-10.090000	25.971636	0.000599	20.732272
1789.473620	-2.991600	3.371600	-10.085000	25.968528	0.000600	20.772299
1790.477816	-3.000800	3.370600	-10.113000	26.006675	0.000598	20.736181
1791.477632	-3.003700	3.371600	-10.126000	25.992003	0.000597	20.766960
1792.473570	-2.999500	3.370900	-10.109000	26.031086	0.000596	20.742215
1793.474044	-3.009800	3.368800	-10.139000	26.060737	0.000598	20.765843
1794.475244	-2.985000	3.370500	-10.060000	26.070605	0.000598	20.746834
1795.476223	-2.973900	3.370200	-10.021000	26.086570	0.000596	20.769987
1796.476631	-2.989700	3.368700	-10.071000	26.112077	0.000596	20.746304
1797.476790	-2.996600	3.368700	-10.094000	26.081428	0.000595	20.747277
1798.476996	-3.001100	3.368900	-10.108000	26.048939	0.000595	20.742609
1799.481259	-3.017700	3.366700	-10.159000	26.027629	0.000593	20.726413
1800.476468	-2.995700	3.368500	-10.088000	26.006742	0.000592	20.759956
1801.477284	-2.990800	3.367800	-10.071000	26.016474	0.000593	20.749820
1802.478440	-2.956000	3.369400	-9.958800	26.023179	0.000594	20.731425
1803.477538	-3.008400	3.366100	-10.126000	25.999037	0.000592	20.736093
1804.478188	-2.965000	3.367800	-9.984200	25.966123	0.000593	20.734793
1805.478027	-2.998000	3.365800	-10.090000	25.973122	0.000591	20.740403
1806.479079	-3.048700	3.364900	-10.257000	25.999907	0.000589	20.727958
1807.485548	-3.004700	3.366000	-10.112000	25.989598	0.000591	20.737990
1808.480335	-3.015200	3.365400	-10.146000	26.020917	0.000591	20.727256
1809.479378	-2.989900	3.366100	-10.063000	26.062079	0.000590	20.733051
1810.479667	-2.974800	3.364900	-10.009000	26.038581	0.000589	20.740262
1811.483915	-2.979800	3.365500	-10.028000	26.072266	0.000590	20.747080
1812.481512	-3.017400	3.362100	-10.143000	26.025969	0.000589	20.729960
1813.484159	-2.986000	3.364900	-10.046000	26.036498	0.000587	20.716357
1814.486497	-3.001800	3.363300	-10.096000	26.033894	0.000587	20.717533
1815.483508	-2.988800	3.363100	-10.051000	26.040948	0.000589	20.740743
1816.482410	-2.995400	3.363100	-10.073000	26.063960	0.000586	20.721664
1817.485856	-2.977100	3.363100	-10.011000	26.063146	0.000590	20.729381
1818.483772	-3.005200	3.362000	-10.102000	26.082347	0.000590	20.738243
1819.484081	-3.018900	3.362100	-10.149000	26.080924	0.000588	20.711207
1820.488437	-2.998500	3.361100	-10.077000	26.090834	0.000588	20.714526
1821.486475	-2.986900	3.361800	-10.040000	26.080868	0.000587	20.726799
1822.486392	-2.980300	3.362300	-10.019000	26.077981	0.000587	20.733856
1823.495471	-2.988000	3.361200	-10.042000	26.065019	0.000587	20.728418
1824.489182	-2.996000	3.362000	-10.072000	26.074971	0.000584	20.746479
1825.487800	-3.032000	3.358800	-10.183000	26.055120	0.000584	20.733171
1826.495016	-3.000700	3.359700	-10.080000	26.041776	0.000584	20.712177
1827.491106	-3.010500	3.358600	-10.109000	25.996635	0.000584	20.739370
1828.490036	-3.003600	3.358100	-10.086000	25.939001	0.000582	20.712286
1829.492255	-2.983800	3.359200	-10.022000	25.921132	0.000584	20.733691
1830.489880	-3.014800	3.357600	-10.121000	25.897495	0.000584	20.707572
1831.491750	-2.996800	3.358600	-10.064000	25.867183	0.000583	20.705096
1832.490359	-3.002500	3.357000	-10.078000	25.855166	0.000581	20.709146
1833.492367	-2.977200	3.358100	-9.996200	25.897020	0.000582	20.722268
1834.491558	-2.987800	3.356800	-10.028000	25.913735	0.000579	20.712981
1835.491505	-3.020200	3.356300	-10.136000	25.953440	0.000580	20.704032
1836.494188	-3.008400	3.356000	-10.095000	25.993574	0.000580	20.699782
1837.494703	-3.006300	3.357200	-10.090000	26.004568	0.000580	20.705138
1838.494198	-3.001400	3.355200	-10.069000	26.041445	0.000578	20.728915
1839.497131	-2.997500	3.356300	-10.060000	26.057232	0.000579	20.686926
1840.494755	-2.985600	3.356900	-10.022000	26.079276	0.000577	20.728518
1841.493800	-2.980000	3.355200	-9.997600	26.099788	0.000578	20.713091
1842.495554	-3.008400	3.355000	-10.092000	26.099984	0.000574	20.724194
1843.499190	-2.999500	3.355700	-10.064000	26.146043	0.000574	20.705989
1844.501658	-2.981300	3.354500	-9.999200	26.107360	0.000575	20.720700
1845.499009	-2.967300	3.353300	-9.949100	26.070373	0.000573	20.717201
1846.501644	-3.006700	3.353500	-10.082000	26.060854	0.000574	20.713327
1847.498047	-2.986500	3.353300	-10.014000	26.061019	0.000574	20.709225
1848.497077	-2.987500	3.354500	-10.020000	26.020231	0.000573	20.711866
1849.500559	-2.990800	3.353200	-10.028000	26.043845	0.000570	20.711410
1850.500371	-2.992900	3.351300	-10.029000	26.050868	0.000569	20.706612
1851.500348	-2.997500	3.351400	-10.045000	26.066637	0.000570	20.705386
1852.501663	-3.000500	3.351000	-10.054000	26.069510	0.000569	20.754269
1853.504582	-2.994400	3.352500	-10.038000	26.037990	0.000571	20.711217
1854.499475	-3.012300	3.349300	-10.088000	26.028128	0.000570	20.699411
1855.500694	-2.996000	3.350100	-10.036000	26.034907	0.000570	20.709067
1856.502234	-3.027500	3.349900	-10.140000	26.017211	0.000569	20.704090
1857.501383	-3.012500	3.349500	-10.089000	26.027440	0.000566	20.707255
1858.500454	-3.001300	3.349400	-10.051000	26.009335	0.000568	20.721783
1859.504178	-3.016200	3.349100	-10.101000	26.019956	0.000566	20.711590
1860.503871	-3.003500	3.347800	-10.054000	25.995317	0.000567	20.716708
1861.502193	-3.005500	3.348000	-10.062000	25.961281	0.000566	20.701478
1862.501119	-3.005200	3.347800	-10.059000	25.932914	0.000566	20.709964
1863.505419	-3.000600	3.348000	-10.045000	25.941274	0.000565	20.710776
1864.502671	-2.990600	3.347300	-10.010000	25.965455	0.000564	20.715629
1865.502028	-3.005200	3.346000	-10.055000	25.972577	0.000564	20.704766
1866.505609	-2.981700	3.347700	-9.980300	25.964130	0.000563	20.715247
1867.503366	-3.013400	3.347000	-10.085000	25.923076	0.000564	20.712883
1868.502501	-2.980500	3.346100	-9.971800	25.941948	0.000564	20.684899
1869.511471	-2.986800	3.347400	-9.996800	25.960054	0.000561	20.708780
1870.503098	-3.009800	3.346100	-10.069000	25.945025	0.000562	20.683248
1871.503128	-2.999700	3.346200	-10.037000	25.978541	0.000560	20.699851
1872.505623	-2.999400	3.344500	-10.030000	26.003473	0.000560	20.704513
1873.505723	-3.000800	3.344000	-10.033000	25.997744	0.000560	20.694962
1874.503589	-3.014000	3.343700	-10.076000	26.007550	0.000559	20.718566
1875.506342	-3.018500	3.343800	-10.093000	25.936505	0.000558	20.702191
1876.503963	-3.003100	3.343200	-10.039000	25.942039	0.000558	20.700639
1877.505052	-3.022200	3.342500	-10.101000	25.914476	0.000557	20.721313
1878.508094	-2.996400	3.344300	-10.020000	25.902725	0.000557	20.700972
1879.506599	-3.012500	3.342900	-10.069000	25.936089	0.000557	20.703195
1880.505759	-3.004200	3.342600	-10.040000	25.932061	0.000555	20.680655
1881.509367	-2.991000	3.341300	-9.992500	25.939913	0.000555	20.688070
1882.506348	-3.010900	3.342000	-10.059000	25.934624	0.000555	20.684178
1883.507343	-2.989200	3.341300	-9.986800	25.893188	0.000554	20.704667
1884.507645	-3.007100	3.340200	-10.044000	25.843995	0.000554	20.695552
1885.508825	-3.002300	3.339900	-10.027000	25.802384	0.000555	20.691211
1886.509284	-3.006400	3.339200	-10.038000	25.788677	0.000553	20.701151
1887.509193	-2.997500	3.339200	-10.008000	25.751834	0.000550	20.694488
1888.510924	-2.981000	3.341000	-9.958800	25.731675	0.000551	20.702690
1889.507985	-3.000500	3.339500	-10.019000	25.765719	0.000553	20.700849
1890.510095	-2.984700	3.340600	-9.969900	25.822607	0.000551	20.686395
1891.510346	-2.996400	3.339400	-10.005000	25.855900	0.000551	20.709409
1892.508547	-2.997200	3.339200	-10.007000	25.898502	0.000551	20.670174
1893.510470	-3.006400	3.337200	-10.032000	25.953447	0.000551	20.683648
1894.510612	-2.991500	3.338600	-9.986500	25.955831	0.000550	20.686044
1895.511101	-3.019000	3.337500	-10.074000	25.997087	0.000546	20.701889
1896.511094	-3.005300	3.336300	-10.026000	26.034866	0.000548	20.693378
1897.511867	-3.003400	3.336800	-10.020000	26.054638	0.000548	20.693329
1898.514919	-3.011900	3.335300	-10.045000	26.063083	0.000547	20.693280
1899.513815	-2.991600	3.337300	-9.983500	26.127513	0.000546	20.707284
1900.512976	-3.021600	3.336100	-10.079000	26.131767	0.000547	20.683581
1901.515736	-2.989100	3.335600	-9.969700	26.135210	0.000545	20.688938
1902.512705	-2.993600	3.335500	-9.984200	26.149268	0.000547	20.684572
1903.512876	-3.009400	3.334400	-10.033000	26.139212	0.000543	20.700073
1904.516371	-2.970600	3.335400	-9.906600	26.108491	0.000543	20.688169
1905.514219	-2.984900	3.335200	-9.953700	26.024116	0.000542	20.681628
1906.513663	-3.025400	3.333700	-10.085000	26.002407	0.000543	20.696328
1907.524879	-2.989600	3.333900	-9.965400	25.992601	0.000543	20.687898
1908.516821	-3.006400	3.332400	-10.017000	26.021861	0.000541	20.695011
1909.515804	-2.998600	3.334400	-9.997700	26.043423	0.000539	20.705770
1910.516565	-3.008000	3.331900	-10.021000	26.020526	0.000542	20.703627
1911.518462	-3.027200	3.332200	-10.086000	26.012251	0.000542	20.705745
1912.515418	-2.970600	3.332400	-9.898200	26.013723	0.000539	20.706276
1913.516751	-3.026100	3.331300	-10.079000	26.033568	0.000539	20.700136
1914.519400	-3.004000	3.331200	-10.006000	26.042462	0.000538	20.692475
1915.517994	-2.998100	3.331800	-9.987800	26.040109	0.000538	20.692007
1916.517962	-2.977100	3.331600	-9.917600	26.083438	0.000535	20.692394
1917.521367	-3.013000	3.328500	-10.028000	26.055130	0.000536	20.685288
1918.519173	-2.978800	3.330600	-9.920300	26.053934	0.000535	20.690251
1919.518753	-2.975700	3.331000	-9.910200	26.068945	0.000538	20.692057
1920.518919	-2.969100	3.330100	-9.886000	26.081392	0.000536	20.680855
1921.525576	-2.967300	3.330300	-9.881100	26.092938	0.000535	20.683921
1922.519699	-2.999800	3.327900	-9.982000	26.084941	0.000536	20.675410
1923.520751	-3.012100	3.329100	-10.027000	26.071758	0.000535	20.690616
1924.520749	-2.987300	3.328600	-9.943300	26.075527	0.000533	20.668796
1925.521989	-3.000200	3.328600	-9.985800	26.093399	0.000532	20.675375
1926.521398	-2.986800	3.326800	-9.935300	26.100251	0.000533	20.692218
1927.522324	-3.007000	3.327500	-10.004000	26.110769	0.000534	20.698519
1928.521142	-2.986300	3.328400	-9.938300	26.117840	0.000529	20.683338
1929.521001	-2.983500	3.326400	-9.923400	26.122265	0.000531	20.690156
1930.523970	-3.020000	3.325500	-10.041000	26.137341	0.000531	20.708625
1931.525828	-3.001300	3.327400	-9.984200	26.167957	0.000531	20.685333
1932.523614	-3.002700	3.325300	-9.982900	26.190571	0.000531	20.689565
1933.525099	-3.010800	3.326000	-10.012000	26.176237	0.000531	20.696025
1934.527996	-3.009100	3.325600	-10.005000	26.203759	0.000529	20.703767
1935.522080	-2.996600	3.324800	-9.961400	26.217711	0.000528	20.677008
1936.526999	-3.010200	3.324200	-10.006000	26.190603	0.000529	20.673948
1937.525449	-2.995200	3.324300	-9.956800	26.218190	0.000529	20.664211
1938.523019	-3.015200	3.322700	-10.018000	26.223674	0.000529	20.687742
1939.523434	-3.008900	3.322200	-9.995500	26.224030	0.000527	20.691420
1940.529041	-3.002100	3.322100	-9.971100	26.217100	0.000528	20.702000
1941.525095	-3.015000	3.322000	-10.013000	26.213625	0.000526	20.707992
1942.526142	-3.036500	3.321400	-10.083000	26.229441	0.000525	20.690219
1943.527956	-3.017300	3.322300	-10.024000	26.219434	0.000525	20.680162
1944.527322	-2.989300	3.322900	-9.932000	26.245962	0.000524	20.687380
1945.524233	-3.000800	3.322000	-9.967200	26.246176	0.000523	20.675740
1946.527743	-3.000100	3.321800	-9.964400	26.252114	0.000523	20.685976
1947.528631	-2.999700	3.321100	-9.961000	26.251446	0.000523	20.714230
1948.524421	-3.008800	3.321300	-9.992000	26.259712	0.000521	20.686973
1949.528027	-3.005300	3.318300	-9.971000	26.249803	0.000519	20.707838
1950.525220	-3.014000	3.318400	-10.001000	26.266814	0.000522	20.702172
1951.525328	-3.000700	3.319600	-9.960300	26.240790	0.000519	20.686450
1952.526317	-2.988500	3.319800	-9.920700	26.227805	0.000521	20.697584
1953.527123	-3.012100	3.319300	-9.996400	26.239657	0.000520	20.685311
1954.527331	-3.005700	3.317900	-9.971000	26.213283	0.000518	20.679670
1955.526254	-3.008700	3.316900	-9.978500	26.196995	0.000518	20.684640
1956.526708	-3.028000	3.316400	-10.041000	26.231709	0.000517	20.694395
1957.525727	-3.007300	3.317900	-9.976600	26.259670	0.000518	20.696415
1958.527129	-3.017100	3.315500	-10.002000	26.256293	0.000515	20.702031
1959.526852	-3.007500	3.316900	-9.974000	26.285155	0.000516	20.700689
1960.531135	-2.988100	3.318000	-9.913900	26.329788	0.000516	20.700025
1961.531855	-3.017200	3.316600	-10.005000	26.340240	0.000517	20.701996
1962.527267	-3.018800	3.315400	-10.008000	26.378381	0.000515	20.688645
1963.530673	-3.007600	3.315900	-9.971100	26.382757	0.000514	20.707268
1964.532019	-2.988300	3.315500	-9.906700	26.394802	0.000515	20.685234
1965.530587	-3.007100	3.313700	-9.963100	26.383829	0.000513	20.716882
1966.532178	-2.988500	3.315300	-9.907000	26.397909	0.000515	20.699263
1967.529541	-3.008600	3.312800	-9.965900	26.409067	0.000513	20.709530
1968.530301	-2.981000	3.314300	-9.878600	26.413680	0.000511	20.698992
1969.530008	-3.001000	3.314900	-9.947200	26.391734	0.000512	20.692582
1970.530942	-3.015100	3.313700	-9.990300	26.418649	0.000511	20.688813
1971.531928	-2.993000	3.313700	-9.916600	26.416542	0.000510	20.703292
1972.529946	-3.011300	3.311500	-9.970300	26.393572	0.000511	20.701068
1973.533284	-2.990900	3.312000	-9.904900	26.355260	0.000510	20.712350
1974.529552	-2.998400	3.312200	-9.930100	26.330807	0.000509	20.708163
1975.529220	-3.002000	3.310500	-9.937200	26.276071	0.000510	20.731391
1976.531371	-3.035900	3.309600	-10.045000	26.238933	0.000508	20.686954
1977.531923	-2.993800	3.311600	-9.912700	26.264876	0.000508	20.720141
1978.531459	-2.996300	3.310400	-9.918300	26.272205	0.000505	20.695262
1979.531436	-2.997200	3.310500	-9.920900	26.283945	0.000505	20.720338
1980.532587	-2.998300	3.310400	-9.923300	26.311439	0.000507	20.710035
1981.532553	-2.979800	3.309700	-9.862000	26.310569	0.000506	20.682606
1982.533277	-2.989000	3.308700	-9.888900	26.310618	0.000503	20.711107
1983.532502	-2.995100	3.308500	-9.908000	26.330458	0.000504	20.703070
1984.533710	-2.985400	3.309000	-9.876900	26.369120	0.000501	20.711107
1985.533132	-2.992200	3.307200	-9.894300	26.394131	0.000502	20.720597
1986.532694	-2.992800	3.306900	-9.895900	26.401330	0.000503	20.703175
1987.532727	-2.978900	3.308000	-9.853100	26.401655	0.000502	20.709667
1988.532598	-2.975700	3.308600	-9.845200	26.416898	0.000502	20.697485
1989.535691	-3.001900	3.306700	-9.925700	26.378342	0.000502	20.726066
1990.532651	-3.000800	3.304900	-9.916800	26.348963	0.000499	20.708866
1991.533969	-2.982100	3.306100	-9.857800	26.340299	0.000499	20.718177
1992.537234	-2.983400	3.305900	-9.861300	26.319467	0.000500	20.704826
1993.536256	-2.995800	3.305700	-9.902200	26.364360	0.000499	20.735722
1994.534449	-2.990100	3.305500	-9.882700	26.370665	0.000498	20.703175
1995.536646	-2.995100	3.303500	-9.893600	26.384989	0.000500	20.715202
1996.532750	-2.997200	3.304700	-9.904200	26.401526	0.000498	20.712382
1997.533257	-2.988000	3.303800	-9.871100	26.427399	0.000497	20.721792
1998.539479	-2.994300	3.303400	-9.890700	26.440566	0.000495	20.717482
1999.536846	-3.007500	3.301600	-9.928400	26.411439	0.000496	20.720924
2000.535395	-2.999100	3.303800	-9.907500	26.417597	0.000495	20.714310
2001.542430	-2.989800	3.302500	-9.872700	26.419037	0.000493	20.699161
2002.539386	-3.022500	3.301600	-9.978100	26.412334	0.000492	20.706175
2003.536283	-3.000200	3.302300	-9.906300	26.408008	0.000493	20.732175
2004.542675	-2.997800	3.301100	-9.894100	26.422321	0.000492	20.691082
2005.540336	-3.019500	3.301300	-9.967600	26.426731	0.000493	20.732027
2006.558111	-3.013200	3.299800	-9.942000	26.428975	0.000493	20.710573
2007.543346	-2.998900	3.300300	-9.896000	26.407389	0.000490	20.733924
2008.539693	-2.987000	3.300000	-9.855800	26.442184	0.000490	20.740920
2009.541028	-2.979400	3.300900	-9.833600	26.394708	0.000488	20.719280
2010.543136	-2.996900	3.299900	-9.888300	26.405485	0.000488	20.740070
2011.540292	-3.001100	3.299100	-9.900200	26.393771	0.000488	20.718813
2012.543541	-3.006300	3.298200	-9.914400	26.370500	0.000487	20.715813
2013.547494	-3.005400	3.297800	-9.910700	26.366279	0.000487	20.735279
2014.541966	-3.004100	3.297700	-9.905400	26.365164	0.000488	20.728943
2015.542682	-3.010900	3.297300	-9.926600	26.386492	0.000486	20.731886
2016.542931	-3.025800	3.295600	-9.970300	26.408200	0.000484	20.733316
2017.542260	-3.023100	3.297100	-9.966900	26.434894	0.000484	20.710832
2018.542128	-2.993400	3.297700	-9.869900	26.419417	0.000484	20.729891
2019.542742	-3.019500	3.296000	-9.951700	26.446265	0.000485	20.729375
2020.547147	-3.033600	3.295000	-9.993100	26.470771	0.000484	20.746895
2021.544024	-2.977600	3.296200	-9.813600	26.491932	0.000484	20.717429
2022.543616	-3.004700	3.295200	-9.899800	26.520106	0.000485	20.731999
2023.543680	-3.022100	3.294700	-9.955000	26.540690	0.000484	20.745578
2024.544364	-2.993400	3.294700	-9.861400	26.548531	0.000483	20.743028
2025.544289	-2.959500	3.296200	-9.754100	26.538559	0.000482	20.741064
2026.544600	-2.992100	3.293800	-9.855200	26.564691	0.000482	20.728925
2027.544689	-3.004300	3.295200	-9.898200	26.564488	0.000480	20.734412
2028.544634	-3.024000	3.292000	-9.952600	26.562993	0.000480	20.753298
2029.544948	-2.973500	3.293200	-9.791500	26.536057	0.000479	20.746136
2030.546112	-2.988100	3.292900	-9.838600	26.477435	0.000480	20.748377
2031.546883	-2.962800	3.293100	-9.755400	26.442250	0.000479	20.734349
2032.546008	-2.980500	3.292300	-9.811200	26.401868	0.000478	20.761566
2033.548229	-2.981900	3.291600	-9.813900	26.387960	0.000479	20.740475
2034.546526	-2.970600	3.291400	-9.777000	26.370155	0.000477	20.729217
2035.549048	-2.983600	3.291400	-9.819000	26.371839	0.000477	20.748455
2036.548245	-3.002600	3.291300	-9.881500	26.359217	0.000477	20.756158
2037.548374	-3.005300	3.290400	-9.887700	26.398765	0.000474	20.756551
2038.549728	-2.995100	3.290400	-9.853700	26.397840	0.000474	20.748508
2039.550287	-2.993700	3.290600	-9.850100	26.393227	0.000472	20.755726
2040.550884	-3.025400	3.288700	-9.947900	26.406111	0.000472	20.760615
2041.552539	-3.000800	3.288700	-9.867700	26.387656	0.000472	20.743963
2042.551802	-2.994900	3.288400	-9.848000	26.389844	0.000471	20.771293
2043.552330	-2.993700	3.287900	-9.841800	26.372186	0.000470	20.758287
2044.553395	-3.006400	3.288000	-9.883900	26.401159	0.000471	20.770812
2045.552039	-3.003500	3.288700	-9.876100	26.408481	0.000469	20.772954
2046.551136	-3.000600	3.287600	-9.863500	26.416378	0.000469	20.766667
2047.553983	-3.002900	3.287000	-9.869000	26.430353	0.000468	20.766014
2048.551824	-2.990800	3.286200	-9.827100	26.461813	0.000468	20.754012
2049.551950	-3.005300	3.286700	-9.876500	26.499796	0.000469	20.766112
2050.553445	-2.982800	3.286300	-9.799700	26.545625	0.000467	20.747694
2051.555684	-3.007500	3.285500	-9.880200	26.570926	0.000468	20.766488
2052.555597	-2.968100	3.286000	-9.752000	26.610620	0.000464	20.754708
2053.553983	-2.978400	3.285600	-9.784400	26.586355	0.000465	20.761136
2054.556808	-3.018600	3.283500	-9.910300	26.546936	0.000464	20.762762
2055.557795	-3.005200	3.283400	-9.865500	26.506564	0.000465	20.753949
2056.553755	-2.984100	3.283900	-9.798700	26.535216	0.000465	20.776112
2057.557061	-3.010000	3.283900	-9.883800	26.556565	0.000463	20.754423
2058.555820	-2.986300	3.283600	-9.804000	26.577215	0.000462	20.761431
2059.553399	-2.971200	3.284700	-9.758800	26.611924	0.000461	20.773562
2060.558221	-2.989000	3.282500	-9.811100	26.598472	0.000461	20.764781
2061.558432	-2.996200	3.282300	-9.833500	26.582729	0.000461	20.771241
2062.555335	-2.977000	3.282100	-9.770000	26.616235	0.000461	20.782164
2063.558501	-3.043000	3.279800	-9.979500	26.611770	0.000459	20.780046
2064.561597	-3.002600	3.280400	-9.848200	26.617308	0.000458	20.771388
2065.555720	-2.977700	3.282000	-9.771500	26.595212	0.000461	20.778574
2066.559934	-2.995800	3.279900	-9.824100	26.603580	0.000460	20.773236
2067.557336	-3.024100	3.278200	-9.912900	26.589014	0.000457	20.779456
2068.556160	-3.008000	3.279600	-9.864100	26.573938	0.000457	20.781844
2069.559040	-3.019500	3.278300	-9.897800	26.614202	0.000458	20.755463
2070.557443	-3.007100	3.278000	-9.855900	26.620131	0.000459	20.775175
2071.558167	-3.011900	3.277700	-9.869900	26.644602	0.000459	20.778912
2072.557273	-3.000100	3.278400	-9.834800	26.607983	0.000459	20.766282
2073.561972	-3.016400	3.277900	-9.886300	26.604032	0.000460	20.786017
2074.557451	-2.994700	3.276900	-9.811700	26.601104	0.000458	20.753676
2075.557138	-3.008100	3.277100	-9.857300	26.641507	0.000459	20.790974
2076.557950	-2.996300	3.276700	-9.816500	26.657113	0.000459	20.765885
2077.557791	-2.997200	3.275300	-9.816600	26.684253	0.000456	20.781790
2078.558170	-3.009900	3.275200	-9.857000	26.705990	0.000458	20.753856
2079.558424	-3.010400	3.274500	-9.856300	26.692624	0.000456	20.790206
2080.558335	-3.011200	3.274900	-9.860500	26.649593	0.000455	20.790094
2081.557209	-3.004800	3.274100	-9.837300	26.610278	0.000454	20.801305
2082.559020	-2.998200	3.276000	-9.820700	26.561596	0.000452	20.796465
2083.559652	-2.981500	3.274300	-9.761600	26.581467	0.000451	20.796526
2084.560296	-3.005200	3.273500	-9.835800	26.606557	0.000450	20.790927
2085.560754	-3.006400	3.272400	-9.837100	26.596038	0.000451	20.779878
2086.559888	-3.008200	3.273000	-9.844600	26.643100	0.000447	20.800162
2087.560355	-3.012200	3.271600	-9.852800	26.684421	0.000448	20.808511
2088.560914	-3.001600	3.271200	-9.817600	26.706182	0.000447	20.815690
2089.562943	-3.043500	3.271300	-9.953900	26.703500	0.000445	20.810148
2090.563215	-3.011200	3.271600	-9.850700	26.729719	0.000447	20.809007
2091.560422	-2.991000	3.271100	-9.783000	26.760790	0.000445	20.809900
2092.566202	-3.003100	3.270000	-9.819100	26.735868	0.000445	20.789111
2093.562104	-3.002400	3.269500	-9.815000	26.754058	0.000443	20.795545
2094.563531	-2.996800	3.270000	-9.798400	26.757842	0.000442	20.800772
2095.561576	-2.989800	3.269000	-9.772300	26.720861	0.000442	20.820490
2096.561065	-2.998000	3.269100	-9.800000	26.729067	0.000441	20.787015
2097.560783	-2.991200	3.270100	-9.781100	26.719230	0.000441	20.806522
2098.562405	-3.005900	3.268100	-9.820900	26.746577	0.000440	20.823585
2099.564915	-3.002900	3.268400	-9.813600	26.769141	0.000439	20.805019
2100.563329	-2.986500	3.268300	-9.760500	26.803065	0.000437	20.832014
2101.561649	-2.973200	3.269600	-9.720200	26.770996	0.000436	20.823954
2102.563583	-3.005600	3.266500	-9.816800	26.736391	0.000436	20.797223
2103.562086	-2.983400	3.266500	-9.744600	26.787789	0.000436	20.812863
2104.561468	-3.005000	3.265600	-9.812600	26.763762	0.000436	20.812414
2105.561880	-2.981300	3.265600	-9.733400	26.778057	0.000432	20.819673
2106.566834	-2.983600	3.266200	-9.743500	26.779961	0.000433	20.829174
2107.576324	-2.975700	3.266800	-9.720000	26.802101	0.000434	20.838158
2108.564712	-3.012600	3.263900	-9.832000	26.793815	0.000432	20.828879
2109.570553	-3.000300	3.264200	-9.792800	26.827291	0.000433	20.834088
2110.568832	-3.001500	3.263900	-9.794900	26.813762	0.000433	20.804364
2111.567072	-2.959500	3.265800	-9.663800	26.860490	0.000430	20.828588
2112.569160	-2.994300	3.263300	-9.770100	26.880124	0.000429	20.827468
2113.569221	-2.983300	3.263600	-9.735700	26.901142	0.000432	20.814462
2114.567236	-2.973600	3.264800	-9.706000	26.879206	0.000431	20.822277
2115.571407	-2.993300	3.262800	-9.766300	26.857636	0.000429	20.844684
2116.569059	-2.998000	3.262300	-9.779000	26.855474	0.000428	20.804579
2117.568011	-2.986200	3.262100	-9.740100	26.845002	0.000428	20.810170
2118.571891	-2.990800	3.261000	-9.752300	26.842613	0.000425	20.840010
2119.569759	-3.007300	3.260600	-9.805000	26.866841	0.000426	20.842085
2120.569372	-2.996400	3.260400	-9.768500	26.839018	0.000425	20.834025
2121.570363	-3.002000	3.259500	-9.783700	26.848988	0.000424	20.835989
2122.571131	-3.008100	3.260400	-9.805400	26.883087	0.000421	20.841826
2123.569905	-2.975400	3.260400	-9.699500	26.881470	0.000423	20.853950
2124.571245	-3.006700	3.257600	-9.794000	26.901600	0.000423	20.855225
2125.570695	-2.993600	3.258500	-9.752900	26.898722	0.000421	20.838581
2126.571702	-2.994000	3.258100	-9.753900	26.889242	0.000421	20.862238
2127.573322	-2.986100	3.259000	-9.730800	26.840053	0.000422	20.836488
2128.572552	-3.001500	3.257400	-9.777200	26.818881	0.000421	20.839382
2129.573688	-2.999900	3.258000	-9.772700	26.814630	0.000418	20.847909
2130.574959	-2.986200	3.257400	-9.725200	26.820791	0.000418	20.839880
2131.574824	-3.001800	3.257100	-9.776300	26.850427	0.000417	20.838858
2132.575156	-3.003200	3.256000	-9.777100	26.874477	0.000417	20.852608
2133.574604	-3.004900	3.255200	-9.780700	26.883859	0.000416	20.846869
2134.574857	-3.031200	3.255100	-9.865000	26.868787	0.000417	20.839301
2135.574908	-3.005400	3.254500	-9.780600	26.873031	0.000417	20.835508
2136.573960	-2.982500	3.256400	-9.711100	26.899235	0.000416	20.817761
2137.577425	-2.991400	3.254600	-9.733700	26.888984	0.000414	20.842540
2138.574478	-3.011100	3.251900	-9.790100	26.941796	0.000416	20.839695
2139.574451	-3.002400	3.253900	-9.768300	26.914392	0.000414	20.829208
2140.578878	-2.984300	3.252400	-9.704800	26.905010	0.000415	20.804127
2141.575182	-2.988500	3.252400	-9.718300	26.904930	0.000415	20.815426
2142.578414	-3.014500	3.252900	-9.804400	26.869483	0.000412	20.836208
2143.577260	-3.011400	3.251800	-9.791000	26.843516	0.000411	20.832384
2144.575887	-3.019300	3.251500	-9.816700	26.823501	0.000411	20.826484
2145.575304	-3.015100	3.251000	-9.799700	26.853577	0.000409	20.849612
2146.577535	-3.022100	3.250300	-9.821500	26.822821	0.000407	20.820110
2147.575137	-3.013100	3.250700	-9.793600	26.862573	0.000408	20.843010
2148.575459	-3.011200	3.248600	-9.779700	26.871281	0.000408	20.831852
2149.578094	-3.019400	3.247900	-9.805900	26.830468	0.000408	20.837756
2150.576662	-2.994500	3.249700	-9.730400	26.820706	0.000407	20.814190
2151.574984	-3.006500	3.248000	-9.764500	26.810747	0.000406	20.809393
2152.579579	-2.999800	3.250400	-9.749400	26.819505	0.000406	20.823888
2153.577919	-3.018400	3.246400	-9.798200	26.789114	0.000405	20.817040
2154.574780	-2.972300	3.248600	-9.655400	26.809386	0.000404	20.824146
2155.578868	-2.985400	3.247500	-9.692800	26.828298	0.000403	20.813290
2156.576635	-3.008600	3.248600	-9.772500	26.855594	0.000403	20.821294
2157.575782	-2.997100	3.246000	-9.727800	26.815999	0.000403	20.806140
2158.578098	-2.975100	3.247400	-9.660700	26.832774	0.000402	20.820161
2159.579440	-2.988400	3.245500	-9.698200	26.866475	0.000400	20.816589
2160.577019	-3.002600	3.245400	-9.743100	26.870321	0.000400	20.824249
2161.579637	-2.989500	3.245900	-9.702700	26.911762	0.000399	20.825141
2162.579916	-3.015000	3.245100	-9.782700	26.899575	0.000398	20.806724
2163.575671	-3.015000	3.244800	-9.781300	26.919551	0.000397	20.828232
2164.578496	-2.995700	3.243900	-9.717300	26.916716	0.000397	20.815898
2165.578484	-3.003400	3.244300	-9.743300	26.922123	0.000396	20.801421
2166.576876	-3.004300	3.242000	-9.738600	26.954156	0.000395	20.808028
2167.578805	-2.986800	3.242900	-9.683900	26.960659	0.000396	20.815042
2168.576912	-3.010300	3.242900	-9.760700	27.000535	0.000393	20.811045
2169.579011	-2.993300	3.241700	-9.702000	26.973366	0.000394	20.823552
2170.584991	-2.983500	3.242800	-9.673400	26.979171	0.000391	20.809001
2171.579023	-2.986300	3.241300	-9.678000	26.976604	0.000392	20.815429
2172.578793	-3.000800	3.239900	-9.721600	26.982838	0.000393	20.790878
2173.581823	-2.998400	3.240600	-9.715000	27.028769	0.000391	20.819050
2174.578715	-3.016000	3.239300	-9.769300	27.027135	0.000389	20.804604
2175.578106	-3.021700	3.237700	-9.782100	27.022738	0.000388	20.787854
2176.579805	-3.005500	3.237400	-9.729000	27.013810	0.000390	20.805903
2177.579180	-3.001500	3.237300	-9.716700	27.018746	0.000387	20.799961
2178.579117	-2.983100	3.237900	-9.658000	26.963255	0.000386	20.822393
2179.580161	-3.016600	3.235500	-9.759600	26.969783	0.000385	20.814259
2180.581165	-3.001800	3.237500	-9.717300	26.974480	0.000386	20.808551
2181.581081	-3.001300	3.236800	-9.714000	26.953782	0.000384	20.792005
2182.581414	-2.990100	3.236900	-9.677400	26.966139	0.000388	20.793526
2183.582373	-3.000000	3.235600	-9.704500	27.006138	0.000384	20.785385
2184.581044	-2.990200	3.235000	-9.672000	27.003322	0.000383	20.800571
2185.580880	-3.002400	3.235600	-9.714000	27.025929	0.000382	20.801021
2186.582901	-3.007700	3.233800	-9.725600	27.039204	0.000381	20.790663
2187.582236	-2.993800	3.236000	-9.686700	27.039057	0.000380	20.816594
2188.581686	-3.024200	3.233400	-9.777200	27.011459	0.000380	20.783150
2189.589897	-2.998100	3.233600	-9.693400	27.057916	0.000380	20.781981
2190.581302	-3.013900	3.233200	-9.743500	27.083253	0.000379	20.779013
2191.581196	-2.998800	3.234000	-9.697100	27.108320	0.000379	20.784309
2192.584966	-2.957000	3.232800	-9.557300	27.071197	0.000378	20.784432
2193.582347	-3.017700	3.231900	-9.751500	27.058884	0.000378	20.775367
2194.582948	-2.991700	3.231500	-9.666000	27.096877	0.000378	20.814999
2195.582460	-2.985500	3.232100	-9.647600	27.089536	0.000377	20.788176
2196.586363	-3.012300	3.231400	-9.732400	27.111247	0.000374	20.793890
2197.586367	-2.966200	3.231000	-9.582100	27.102656	0.000374	20.774819
2198.584904	-3.016600	3.229800	-9.741700	27.108865	0.000374	20.763994
2199.585778	-2.994800	3.228800	-9.668800	27.048713	0.000374	20.756130
2200.584146	-2.980500	3.229200	-9.623100	27.009133	0.000373	20.783656
2201.584559	-2.990700	3.229100	-9.655600	27.026505	0.000373	20.786901
2202.586017	-3.013300	3.227300	-9.724300	27.052405	0.000373	20.787818
2203.585101	-2.984000	3.227900	-9.631500	27.039657	0.000372	20.788748
2204.586268	-3.010400	3.226700	-9.712700	27.027570	0.000371	20.791766
2205.585359	-2.993400	3.226000	-9.656200	27.035316	0.000369	20.778693
2206.589178	-3.036400	3.226800	-9.796100	27.047942	0.000368	20.787597
2207.588829	-2.994100	3.226000	-9.658100	27.098064	0.000368	20.776839
2208.585527	-3.016200	3.224000	-9.722900	27.110395	0.000366	20.790663
2209.586153	-3.001100	3.224600	-9.676900	27.144144	0.000366	20.771026
2210.587111	-3.025000	3.223300	-9.749500	27.161140	0.000364	20.775318
2211.587262	-2.991500	3.224500	-9.645100	27.163846	0.000366	20.778514
2212.587892	-3.005100	3.223600	-9.686700	27.141511	0.000366	20.767429
2213.589071	-3.013700	3.222700	-9.711100	27.068264	0.000363	20.762041
2214.587791	-3.008000	3.222300	-9.691400	27.055786	0.000363	20.749017
2215.586718	-3.002300	3.221200	-9.669700	27.030050	0.000364	20.776716
2216.588888	-3.006600	3.221900	-9.686400	27.041617	0.000363	20.776020
2217.589504	-2.991000	3.221700	-9.634200	27.078189	0.000362	20.755902
2218.588060	-2.983100	3.220100	-9.604500	27.101511	0.000362	20.763710
2219.589841	-2.983600	3.221000	-9.608800	27.102436	0.000361	20.776968
2220.587299	-2.953900	3.220000	-9.510500	27.099803	0.000359	20.754405
2221.588454	-2.984200	3.220600	-9.609500	27.075912	0.000358	20.766888
2222.589436	-3.002300	3.219800	-9.665900	27.069011	0.000358	20.763741
2223.591250	-2.995200	3.219000	-9.640700	27.074369	0.000358	20.760120
2224.598889	-3.002400	3.216800	-9.657100	27.106404	0.000358	20.774320
2225.588893	-2.993200	3.217300	-9.628600	27.095511	0.000357	20.769055
2226.587264	-3.006300	3.216900	-9.669800	27.128415	0.000358	20.782707
2227.590291	-3.007100	3.218400	-9.676700	27.178565	0.000356	20.753488
2228.591617	-2.996600	3.216800	-9.638200	27.219847	0.000355	20.756604
2229.588260	-3.013800	3.216600	-9.693800	27.245676	0.000353	20.750341
2230.590282	-3.010700	3.215500	-9.679900	27.205093	0.000353	20.764998
2231.590663	-2.988900	3.216300	-9.612600	27.185905	0.000352	20.755181
2232.597230	-3.017700	3.214400	-9.698900	27.172038	0.000353	20.747398
2233.594738	-2.988100	3.214500	-9.604600	27.116709	0.000352	20.751493
2234.590479	-2.983600	3.213900	-9.588100	27.114603	0.000351	20.767393
2235.592636	-3.017000	3.213300	-9.693900	27.131470	0.000351	20.764917
2236.591297	-2.998000	3.212600	-9.630100	27.142069	0.000349	20.758033
2237.594200	-2.994600	3.211900	-9.616800	27.126242	0.000350	20.761081
2238.591171	-3.005700	3.211600	-9.652100	27.094948	0.000349	20.768489
2239.592921	-2.981500	3.212300	-9.575400	27.083407	0.000349	20.766839
2240.594133	-3.032200	3.211800	-9.737300	27.122121	0.000349	20.737496
2241.596323	-3.006900	3.209800	-9.650500	27.159861	0.000348	20.753642
2242.595185	-2.988100	3.210700	-9.591900	27.200899	0.000347	20.751296
2243.593629	-2.998800	3.209200	-9.622600	27.238709	0.000346	20.742859
2244.593544	-2.999800	3.208800	-9.624500	27.270365	0.000346	20.740088
2245.596691	-3.011500	3.209500	-9.664000	27.287782	0.000346	20.759979
2246.598078	-3.007900	3.207900	-9.647900	27.295293	0.000344	20.759948
2247.595260	-2.961200	3.209200	-9.502400	27.291951	0.000344	20.733825
2248.595026	-2.994600	3.207200	-9.603400	27.257167	0.000343	20.749097
2249.594619	-2.978600	3.209200	-9.558400	27.252575	0.000342	20.757756
2250.595263	-3.009500	3.206200	-9.648000	27.256389	0.000343	20.744047
2251.595083	-3.010500	3.205500	-9.648800	27.254038	0.000342	20.753063
2252.596386	-3.000200	3.205100	-9.614500	27.201640	0.000338	20.734971
2253.595305	-3.022600	3.206200	-9.690400	27.194886	0.000338	20.738610
2254.595778	-3.014000	3.203100	-9.652900	27.183523	0.000340	20.739035
2255.594822	-3.014600	3.203900	-9.657100	27.152948	0.000337	20.738628
2256.599207	-3.009300	3.202800	-9.635500	27.148062	0.000338	20.759793
2257.595664	-3.003700	3.202900	-9.618200	27.101187	0.000337	20.737778
2258.597356	-3.010600	3.203100	-9.642400	27.050991	0.000336	20.747040
2259.596907	-2.977300	3.202700	-9.534700	27.041910	0.000336	20.736011
2260.597031	-3.006900	3.201100	-9.624400	26.999274	0.000333	20.751929
2261.602942	-2.995700	3.202100	-9.591000	26.985600	0.000333	20.744817
2262.597885	-2.996300	3.200600	-9.588800	27.004338	0.000332	20.742797
2263.597648	-2.982400	3.201300	-9.546500	27.052699	0.000333	20.727420
2264.598093	-2.977200	3.199200	-9.522500	27.084790	0.000333	20.734090
2265.597798	-2.994600	3.199800	-9.581500	27.043447	0.000330	20.722857
2266.598820	-2.998800	3.198800	-9.591200	27.048162	0.000330	20.738031
2267.598405	-3.003000	3.199900	-9.608800	27.071117	0.000329	20.754005
2268.599174	-2.998800	3.199100	-9.592400	27.086204	0.000328	20.750212
2269.599195	-3.002800	3.196300	-9.597200	27.126425	0.000331	20.715270
2270.599823	-2.982300	3.197700	-9.534600	27.101015	0.000330	20.743296
2271.599428	-2.985900	3.197200	-9.545600	27.088904	0.000328	20.742969
2272.599949	-3.022500	3.194800	-9.655400	27.057745	0.000328	20.716373
2273.600435	-3.004000	3.194300	-9.595000	27.039878	0.000327	20.726380
2274.600416	-2.987100	3.195900	-9.545200	27.076108	0.000325	20.732470
2275.600246	-3.022000	3.193600	-9.649500	27.096087	0.000326	20.729804
2276.600176	-2.999000	3.194300	-9.578400	27.102779	0.000328	20.727999
2277.603541	-3.004400	3.194100	-9.594400	27.094795	0.000324	20.730401
2278.602657	-3.031500	3.191700	-9.675200	27.133454	0.000326	20.735143
2279.601560	-3.009500	3.191900	-9.604700	27.180842	0.000325	20.715473
2280.602522	-3.001500	3.192000	-9.579000	27.212451	0.000325	20.718343
2281.600620	-2.995400	3.191600	-9.559700	27.245529	0.000324	20.721269
2282.601423	-3.004400	3.191500	-9.588000	27.259946	0.000323	20.734349
2283.601561	-3.008100	3.190400	-9.596500	27.285719	0.000322	20.717598
2284.606944	-2.973300	3.191800	-9.489300	27.287262	0.000321	20.727211
2285.602376	-3.012400	3.191100	-9.611900	27.317423	0.000322	20.722463
2286.603118	-3.013200	3.188400	-9.606100	27.336944	0.000319	20.741627
2287.606815	-2.989400	3.188800	-9.531900	27.345159	0.000320	20.713380
2288.604385	-2.974000	3.189200	-9.483200	27.350717	0.000318	20.705694
2289.603496	-2.972400	3.188500	-9.476500	27.300754	0.000318	20.720394
2290.608032	-3.013400	3.187500	-9.603800	27.256462	0.000318	20.725628
2291.606657	-2.990200	3.186600	-9.527600	27.232470	0.000318	20.721410
2292.603710	-2.985900	3.187200	-9.515800	27.228521	0.000317	20.727395
2293.607259	-3.004200	3.185700	-9.569900	27.237104	0.000316	20.717062
2294.606094	-3.018100	3.186000	-9.614700	27.237778	0.000315	20.710152
2295.606063	-3.013500	3.185400	-9.598500	27.263030	0.000315	20.698094
2296.604524	-3.016700	3.183000	-9.601100	27.251619	0.000313	20.717437
2297.607068	-3.024700	3.182500	-9.625300	27.281365	0.000313	20.709900
2298.606597	-3.006400	3.182300	-9.565900	27.296069	0.000314	20.720898
2299.607527	-2.988500	3.183600	-9.513000	27.259431	0.000312	20.719605
2300.605891	-3.018800	3.182400	-9.605900	27.294857	0.000311	20.695021
2301.607222	-2.990100	3.180700	-9.508900	27.279504	0.000313	20.700440
2302.604635	-2.983800	3.181200	-9.490100	27.278726	0.000310	20.727161
2303.606599	-2.999500	3.180600	-9.539000	27.277288	0.000312	20.714807
2304.605899	-2.994900	3.180600	-9.524400	27.251735	0.000309	20.701906
2305.606403	-3.015000	3.180900	-9.589200	27.262681	0.000309	20.711494
2306.605833	-3.030900	3.179200	-9.634900	27.231986	0.000310	20.708119
2307.605678	-3.019900	3.177400	-9.594100	27.219582	0.000307	20.720775
2308.607868	-3.004800	3.179100	-9.551300	27.234140	0.000309	20.696535
2309.607847	-2.995500	3.177600	-9.517300	27.221168	0.000304	20.711937
2310.606815	-3.012500	3.176900	-9.569500	27.248086	0.000303	20.721470
2311.605114	-3.010200	3.176500	-9.561000	27.226573	0.000306	20.700304
2312.606845	-2.994700	3.175400	-9.508800	27.204546	0.000303	20.718453
2313.607186	-2.981400	3.175400	-9.465700	27.214813	0.000303	20.702700
2314.608307	-2.997100	3.176700	-9.520400	27.179341	0.000305	20.702583
2315.606702	-2.981100	3.175100	-9.463800	27.152114	0.000305	20.701751
2316.608168	-2.991000	3.175000	-9.494700	27.139336	0.000302	20.722092
2317.607035	-3.018100	3.172900	-9.574500	27.147424	0.000303	20.691344
2318.606642	-3.005400	3.171800	-9.531800	27.188138	0.000300	20.729925
2319.611556	-3.003300	3.171600	-9.524000	27.165021	0.000301	20.704301
2320.607693	-2.979900	3.172900	-9.453900	27.177253	0.000298	20.692896
2321.611024	-3.007600	3.169200	-9.529600	27.138676	0.000298	20.699141
2322.612912	-2.985800	3.170300	-9.465100	27.113138	0.000298	20.686731
2323.607662	-3.003600	3.169800	-9.520200	27.152561	0.000298	20.693191
2324.607460	-3.012200	3.169600	-9.546700	27.224517	0.000297	20.698235
2325.611770	-3.029700	3.168300	-9.597500	27.230749	0.000297	20.689805
2326.612740	-3.031000	3.167000	-9.598000	27.214519	0.000298	20.682014
2327.609550	-2.993200	3.169500	-9.485300	27.225606	0.000295	20.709289
2328.610660	-2.991400	3.168200	-9.476500	27.272109	0.000295	20.680198
2329.614877	-3.014700	3.167000	-9.545600	27.282075	0.000294	20.710613
2330.608902	-3.006000	3.165100	-9.513000	27.296792	0.000294	20.694122
2331.610208	-3.009500	3.165400	-9.525500	27.352032	0.000293	20.671452
2332.613244	-3.004300	3.166600	-9.512800	27.374607	0.000293	20.689422
2333.612379	-3.009500	3.164700	-9.523100	27.412767	0.000292	20.687033
2334.614575	-2.997000	3.163700	-9.480900	27.467763	0.000292	20.695421
2335.613245	-2.998000	3.164600	-9.486900	27.509603	0.000294	20.676348
2336.614095	-3.010300	3.160900	-9.513600	27.516843	0.000292	20.690272
2337.611432	-2.992800	3.162800	-9.464200	27.503256	0.000289	20.669962
2338.614588	-3.012700	3.160500	-9.520900	27.450765	0.000290	20.693019
2339.611897	-3.003200	3.161300	-9.493100	27.449902	0.000289	20.690254
2340.614637	-2.973100	3.159500	-9.392500	27.425841	0.000289	20.695446
2341.613979	-2.966100	3.160100	-9.372100	27.432709	0.000289	20.669161
2342.616730	-2.993300	3.159300	-9.456100	27.433976	0.000290	20.685137
2343.614536	-2.977300	3.158500	-9.402800	27.426502	0.000288	20.687575
2344.613533	-3.001900	3.158300	-9.480100	27.406217	0.000289	20.678547
2345.616748	-2.991800	3.157500	-9.445800	27.432984	0.000287	20.701210
2346.616977	-3.002000	3.157500	-9.477600	27.455056	0.000287	20.673626
2347.614180	-3.014800	3.155600	-9.511500	27.514591	0.000286	20.686110
2348.615534	-3.023300	3.154100	-9.534700	27.528056	0.000285	20.684483
2349.617617	-3.022300	3.154500	-9.532800	27.547677	0.000285	20.672456
2350.614014	-3.008300	3.154200	-9.488000	27.551748	0.000287	20.678923
2351.615148	-3.001800	3.153700	-9.465400	27.471980	0.000285	20.702035
2352.614793	-3.002900	3.153500	-9.468900	27.439062	0.000282	20.667493
2353.616461	-2.991600	3.152400	-9.429300	27.388307	0.000282	20.676650
2354.615851	-2.985000	3.152600	-9.409200	27.380674	0.000283	20.683671
2355.616485	-3.012100	3.150800	-9.489200	27.384292	0.000283	20.686362
2356.623800	-2.991000	3.152200	-9.426400	27.425425	0.000285	20.678905
2357.616267	-3.018000	3.150600	-9.508400	27.460155	0.000282	20.676860
2358.620350	-2.983900	3.148600	-9.394300	27.464201	0.000281	20.666705
2359.620450	-2.992600	3.148300	-9.419800	27.505276	0.000280	20.684324
2360.618740	-3.012600	3.147400	-9.481300	27.530327	0.000280	20.676811
2361.621080	-2.971400	3.147300	-9.351100	27.498305	0.000280	20.669248
2362.617339	-2.999600	3.147600	-9.440500	27.480574	0.000277	20.688395
2363.618758	-2.996300	3.145300	-9.423700	27.422629	0.000278	20.685575
2364.619787	-2.982100	3.146200	-9.382000	27.418589	0.000279	20.677242
2365.619843	-3.005800	3.144900	-9.451400	27.405790	0.000277	20.686178
2366.618525	-2.996900	3.143700	-9.420300	27.413264	0.000279	20.654814
2367.620840	-3.020100	3.141700	-9.487000	27.445956	0.000278	20.698138
2368.618968	-3.011500	3.142300	-9.460100	27.489584	0.000278	20.684657
2369.619744	-2.994800	3.141600	-9.407700	27.503582	0.000278	20.676455
2370.619281	-2.987600	3.141900	-9.385400	27.511000	0.000278	20.673487
2371.619211	-3.001100	3.140300	-9.423900	27.535328	0.000275	20.667617
2372.618157	-3.013600	3.140000	-9.461300	27.573727	0.000275	20.684917
2373.618968	-2.993300	3.140400	-9.399400	27.589742	0.000275	20.688704
2374.620811	-3.005800	3.137600	-9.429900	27.589278	0.000273	20.689184
2375.630228	-2.972500	3.137900	-9.325600	27.572515	0.000272	20.668523
2376.625716	-2.980900	3.136200	-9.346500	27.605104	0.000274	20.678081
2377.622454	-2.980900	3.138400	-9.352900	27.609327	0.000273	20.670001
2378.624633	-2.981600	3.136500	-9.350600	27.629932	0.000274	20.676511
2379.624537	-2.961300	3.137000	-9.288700	27.674184	0.000272	20.662716
2380.627155	-3.029600	3.132900	-9.490400	27.691961	0.000273	20.683926
2381.624740	-2.973500	3.135400	-9.321500	27.718623	0.000271	20.671399
2382.627073	-2.996300	3.133600	-9.388900	27.751978	0.000271	20.687898
2383.627527	-3.003900	3.131000	-9.404400	27.721205	0.000269	20.669731
2384.624889	-2.996800	3.131700	-9.383800	27.728328	0.000272	20.680219
2385.625068	-3.014900	3.129000	-9.432200	27.662037	0.000269	20.677047
2386.627626	-2.996500	3.130300	-9.378500	27.617700	0.000270	20.691231
2387.625131	-3.005100	3.128200	-9.399300	27.601525	0.000269	20.672108
2388.629256	-3.011500	3.128400	-9.420100	27.618765	0.000269	20.684241
2389.626693	-2.980600	3.128000	-9.322900	27.638630	0.000270	20.685737
2390.629006	-3.013000	3.126600	-9.419500	27.621048	0.000269	20.675631
2391.630379	-2.999100	3.126600	-9.374800	27.598037	0.000269	20.681876
2392.628116	-2.977000	3.125800	-9.304000	27.626036	0.000269	20.683022
2393.632948	-2.997300	3.125800	-9.367600	27.650961	0.000270	20.685818
2394.633167	-3.016000	3.122700	-9.417600	27.637265	0.000269	20.693374
2395.629167	-3.016900	3.121800	-9.417300	27.585485	0.000268	20.687739
2396.631948	-3.002100	3.122100	-9.371900	27.561323	0.000270	20.680496
2397.635557	-2.973900	3.122100	-9.282900	27.513432	0.000267	20.675459
2398.630134	-2.977100	3.120300	-9.288600	27.506380	0.000267	20.688755
2399.632543	-2.996900	3.120000	-9.349300	27.483368	0.000267	20.677454
2400.633007	-3.006800	3.117300	-9.371300	27.465110	0.000265	20.672361
2401.629730	-2.996500	3.118700	-9.344300	27.481972	0.000267	20.684111
2402.633499	-2.988800	3.117400	-9.316400	27.534650	0.000267	20.688274
2403.633620	-3.026600	3.115200	-9.427500	27.572382	0.000265	20.682140
2404.632929	-2.984300	3.117300	-9.301400	27.633917	0.000264	20.674831
2405.632291	-3.015000	3.113900	-9.387100	27.661321	0.000265	20.673482
2406.630375	-2.967100	3.117300	-9.248600	27.625680	0.000263	20.685035
2407.631151	-3.009200	3.112200	-9.363600	27.610503	0.000263	20.686833
2408.634116	-2.986400	3.114100	-9.299200	27.646787	0.000264	20.691101
2409.634652	-2.995600	3.111300	-9.319400	27.658323	0.000262	20.684216
2410.643151	-2.976800	3.111700	-9.261500	27.710968	0.000263	20.690251
2411.633541	-2.983800	3.109100	-9.276200	27.712382	0.000261	20.680293
2412.636474	-3.004500	3.109400	-9.341600	27.732324	0.000264	20.685663
2413.633236	-2.989500	3.109900	-9.296100	27.700308	0.000261	20.677627
2414.635174	-2.998200	3.109400	-9.320700	27.662717	0.000262	20.693380
2415.634828	-3.001700	3.106100	-9.322600	27.652270	0.000262	20.672909
2416.635654	-3.002200	3.105400	-9.322000	27.655251	0.000262	20.689660
2417.632987	-2.996600	3.106200	-9.307100	27.670281	0.000260	20.689611
2418.632948	-3.001100	3.104900	-9.316400	27.669687	0.000260	20.679530
2419.633408	-2.995700	3.104400	-9.297400	27.720698	0.000260	20.690085
2420.638184	-3.009200	3.103000	-9.335800	27.731340	0.000259	20.686095
2421.635105	-3.018000	3.101600	-9.360300	27.744264	0.000259	20.699102
2422.635119	-3.007300	3.101400	-9.325000	27.740421	0.000260	20.691915
2423.635749	-3.013000	3.100100	-9.339700	27.691565	0.000259	20.696330
2424.636547	-3.027200	3.097800	-9.376900	27.689778	0.000258	20.709706
2425.637187	-2.974700	3.099000	-9.217100	27.669327	0.000258	20.691022
2426.646396	-3.018500	3.098000	-9.350000	27.651121	0.000258	20.698308
2427.635918	-2.994900	3.097100	-9.274100	27.602561	0.000258	20.689273
2428.636628	-3.005200	3.095900	-9.302700	27.564494	0.000258	20.703130
2429.647438	-3.000000	3.095000	-9.284000	27.544237	0.000256	20.687014
2430.637184	-3.026500	3.093900	-9.362500	27.606741	0.000257	20.707706
2431.640698	-2.999500	3.092200	-9.274000	27.631239	0.000258	20.700112
2432.637479	-2.986700	3.091700	-9.233000	27.674872	0.000256	20.703716
2433.635247	-2.986400	3.091100	-9.228700	27.710738	0.000256	20.678639
2434.639122	-3.006400	3.089600	-9.287800	27.759043	0.000257	20.674617
2435.640247	-2.999700	3.089600	-9.266800	27.786694	0.000256	20.698654
2436.638608	-2.992000	3.088400	-9.238700	27.825279	0.000254	20.701924
2437.638831	-2.985200	3.087100	-9.214600	27.850598	0.000254	20.691843
2438.639295	-3.003500	3.087300	-9.271800	27.815612	0.000255	20.668958
2439.642928	-3.005400	3.086500	-9.275100	27.764410	0.000256	20.702781
2440.644614	-2.999200	3.084600	-9.249900	27.777627	0.000254	20.700908
2441.640090	-2.994200	3.084700	-9.235500	27.785985	0.000252	20.692250
2442.639783	-3.022800	3.083200	-9.318400	27.803822	0.000253	20.713521
2443.638179	-3.033400	3.080400	-9.342300	27.746941	0.000253	20.705590
2444.637631	-3.030400	3.079900	-9.332700	27.742645	0.000253	20.730192
2445.640613	-3.002400	3.079900	-9.246100	27.753091	0.000251	20.683327
2446.637086	-3.004600	3.079000	-9.250400	27.772011	0.000253	20.713275
2447.637039	-3.006200	3.077600	-9.249700	27.740945	0.000254	20.709987
2448.638117	-2.996600	3.076800	-9.218600	27.700625	0.000253	20.709716
2449.641667	-2.987200	3.077000	-9.189600	27.715183	0.000254	20.694967
2450.642980	-3.000900	3.075500	-9.227900	27.755460	0.000253	20.689505
2451.639143	-3.017300	3.072300	-9.268900	27.793819	0.000253	20.689702
2452.639103	-2.978300	3.073500	-9.153200	27.853758	0.000253	20.705930
2453.639953	-2.995400	3.072500	-9.202400	27.861369	0.000253	20.712642
2454.642089	-2.969100	3.071800	-9.119900	27.877289	0.000250	20.709224
2455.647346	-2.992700	3.070100	-9.187200	27.875160	0.000252	20.699969
2456.639095	-2.971800	3.070400	-9.123200	27.864600	0.000252	20.700246
2457.643360	-3.001700	3.069500	-9.211400	27.845560	0.000250	20.706688
2458.641786	-3.004900	3.068000	-9.218400	27.816000	0.000252	20.724356
2459.645269	-3.015300	3.065800	-9.243200	27.806309	0.000252	20.705592
2460.640254	-3.028900	3.064700	-9.281900	27.847126	0.000253	20.700678
2461.641483	-3.005400	3.064200	-9.207600	27.832570	0.000251	20.708314
2462.644077	-3.014200	3.064200	-9.235000	27.878642	0.000252	20.699206
2463.645553	-3.060600	3.061100	-9.367300	27.916722	0.000250	20.712403
2464.640626	-3.030700	3.062000	-9.279200	27.877742	0.000251	20.693084
2465.644684	-3.013200	3.059300	-9.217000	27.866767	0.000251	20.723765
2466.643095	-3.015900	3.059600	-9.226900	27.902264	0.000252	20.728673
2467.643187	-3.013700	3.057700	-9.214500	27.892971	0.000249	20.721215
2468.644348	-3.003600	3.056900	-9.180600	27.904100	0.000250	20.717243
2469.640892	-3.009800	3.056200	-9.197300	27.934030	0.000249	20.723186
2470.640967	-2.968600	3.056300	-9.071800	27.901720	0.000248	20.702518
2471.648221	-2.999600	3.054900	-9.161800	27.931472	0.000250	20.735311
2472.648063	-2.990400	3.051000	-9.121900	27.944436	0.000251	20.718012
2473.642216	-3.052900	3.050300	-9.310800	27.970101	0.000248	20.706386
2474.645000	-3.002300	3.051800	-9.161200	27.986337	0.000248	20.709927
2475.648040	-3.000200	3.049900	-9.149700	28.018540	0.000248	20.729540
2476.644928	-2.975100	3.048200	-9.067700	28.038868	0.000248	20.724872
2477.647503	-2.964500	3.049700	-9.039100	28.046607	0.000248	20.721757
2478.646168	-3.036600	3.045700	-9.248000	28.050002	0.000248	20.725649
2479.644047	-2.995700	3.046200	-9.124200	28.037706	0.000248	20.731764
2480.646068	-2.980000	3.045100	-9.072500	28.042961	0.000248	20.734683
2481.644456	-3.020700	3.043000	-9.191700	28.047249	0.000249	20.735206
2482.645859	-2.960400	3.042600	-9.006100	28.069852	0.000247	20.723345
2483.651572	-2.973100	3.042000	-9.043200	28.097373	0.000248	20.742990
2484.646286	-3.000800	3.039500	-9.120500	28.146633	0.000247	20.713394
2485.647988	-2.969800	3.040300	-9.028400	28.131163	0.000248	20.715838
2486.655356	-2.971700	3.038200	-9.027900	28.108751	0.000247	20.726941
2487.651722	-2.993000	3.036700	-9.088200	28.107093	0.000247	20.728118
2488.649118	-3.008500	3.035000	-9.129200	28.144229	0.000248	20.738476
2489.655011	-2.989100	3.033600	-9.067700	28.139299	0.000247	20.703639
2490.659804	-2.996700	3.033100	-9.088400	28.125965	0.000247	20.750435
2491.649253	-2.993600	3.031000	-9.072400	28.094107	0.000247	20.717889
2492.655103	-2.992500	3.032100	-9.072700	28.062646	0.000247	20.734110
2493.651227	-2.991000	3.030400	-9.063200	28.056034	0.000247	20.728876
2494.650864	-3.015800	3.026900	-9.128700	28.032231	0.000245	20.749487
2495.656781	-3.009600	3.027700	-9.109900	27.979302	0.000249	20.745047
2496.649476	-2.987000	3.026300	-9.039100	28.000409	0.000247	20.740214
2497.650393	-2.993600	3.024600	-9.052900	27.997778	0.000247	20.742781
2498.655064	-3.019100	3.023100	-9.125900	27.994156	0.000247	20.742929
2499.652608	-2.998500	3.022000	-9.060800	27.918961	0.000246	20.744531
2500.651616	-2.973800	3.022400	-8.987100	27.878527	0.000246	20.728015
2501.651997	-2.980100	3.020400	-9.000300	27.855191	0.000245	20.754316
2502.652147	-2.990700	3.019100	-9.028600	27.874604	0.000246	20.735922
2503.651147	-2.997600	3.018100	-9.046600	27.904144	0.000248	20.732461
2504.650620	-2.976100	3.017500	-8.978700	27.918326	0.000245	20.739623
2505.653709	-3.016800	3.013600	-9.090500	27.969949	0.000245	20.733262
2506.653223	-3.026300	3.012900	-9.116200	27.966027	0.000246	20.759661
2507.651747	-2.981000	3.012700	-8.979800	27.980613	0.000245	20.752057
2508.654403	-3.012900	3.010400	-9.067900	27.979224	0.000243	20.757297
2509.657404	-3.012800	3.009200	-9.064800	27.969063	0.000247	20.747543
2510.664544	-3.010300	3.007600	-9.053200	28.021675	0.000249	20.752137
2511.653919	-3.004400	3.007500	-9.034800	28.051968	0.000246	20.742801
2512.655353	-2.989900	3.006100	-8.987000	28.040216	0.000245	20.763215
2513.667225	-2.994200	3.005200	-8.997800	27.988872	0.000245	20.743300
2514.657826	-3.002300	3.003500	-9.016000	27.978093	0.000245	20.741459
2515.656715	-3.014800	3.001200	-9.047700	27.969436	0.000245	20.734168
2516.665829	-2.999800	3.000900	-9.000800	28.030307	0.000244	20.766991
2517.670067	-3.006200	3.000100	-9.018000	28.066901	0.000247	20.757834
2518.658395	-2.993400	2.998700	-8.976100	28.087210	0.000246	20.757890
2519.669523	-2.991300	2.996800	-8.963300	28.119435	0.000247	20.748129
2520.664855	-3.010800	2.996200	-9.019600	28.126280	0.000246	20.758339
2521.662655	-3.017200	2.994400	-9.033300	28.133020	0.000246	20.787411
2522.671414	-3.002600	2.992900	-8.985100	28.116071	0.000246	20.754700
2523.691995	-2.995700	2.991500	-8.960600	28.085553	0.000244	20.761911
2524.659494	-3.009300	2.989900	-8.996900	28.030020	0.000245	20.743942
2525.663191	-2.986600	2.988900	-8.925700	27.993187	0.000245	20.775620
2526.665600	-2.998700	2.986900	-8.956000	27.979477	0.000245	20.762294
2527.663511	-2.988500	2.986300	-8.923500	27.975538	0.000245	20.748371
2528.664035	-2.996900	2.985500	-8.946600	28.039154	0.000242	20.751714
2529.672457	-2.980200	2.983800	-8.891500	28.101483	0.000244	20.777948
2530.666852	-3.016200	2.982100	-8.992900	28.136411	0.000245	20.772332
2531.661894	-3.001400	2.980900	-8.945600	28.183785	0.000244	20.776877
2532.664742	-2.990500	2.980100	-8.911500	28.185253	0.000245	20.746586
2533.661572	-2.989900	2.977800	-8.902500	28.171197	0.000245	20.774161
2534.661980	-3.000700	2.977500	-8.933500	28.120679	0.000245	20.763133
2535.668535	-2.976800	2.976300	-8.857400	28.136399	0.000244	20.760466
2536.665212	-2.978600	2.975100	-8.860000	28.155215	0.000244	20.762338
2537.664680	-2.968500	2.971400	-8.819600	28.149447	0.000243	20.779766
2538.662557	-3.025000	2.970600	-8.984900	28.173241	0.000243	20.780012
2539.670415	-3.010800	2.968500	-8.937000	28.214686	0.000244	20.763417
2540.663526	-3.012200	2.967500	-8.937400	28.245347	0.000243	20.777691
2541.669513	-2.996100	2.966000	-8.886000	28.297872	0.000243	20.766563
2542.666931	-2.996800	2.965400	-8.885800	28.326672	0.000244	20.777069
2543.665062	-3.034300	2.962400	-8.987800	28.363360	0.000244	20.782242
2544.669606	-2.999200	2.962300	-8.882800	28.317009	0.000246	20.764495
2545.667829	-3.003000	2.962000	-8.893400	28.329455	0.000242	20.774656
2546.664857	-3.012500	2.959700	-8.915400	28.334879	0.000245	20.773953
2547.664104	-2.994500	2.957900	-8.855800	28.326574	0.000244	20.771755
2548.669327	-3.000100	2.955600	-8.865800	28.297732	0.000246	20.764052
2549.673892	-2.987400	2.955500	-8.827000	28.311145	0.000244	20.775660
2550.669355	-3.018600	2.953400	-8.914300	28.329730	0.000242	20.770665
2551.668710	-3.006200	2.952100	-8.873500	28.351343	0.000242	20.784367
2552.664420	-3.022100	2.950000	-8.913600	28.339595	0.000244	20.778227
2553.663877	-3.014000	2.946800	-8.880400	28.351374	0.000243	20.793881
2554.669885	-3.015000	2.947100	-8.884300	28.350157	0.000244	20.782698
2555.665527	-3.008000	2.946300	-8.861100	28.352585	0.000245	20.776134
2556.668809	-3.007000	2.943300	-8.849800	28.341632	0.000244	20.776485
2557.668328	-2.995700	2.943000	-8.815400	28.304025	0.000245	20.787932
2558.668609	-3.008500	2.941300	-8.848100	28.252854	0.000243	20.789990
2559.672737	-3.008200	2.939200	-8.840200	28.224363	0.000243	20.778375
2560.667292	-3.032700	2.936400	-8.904000	28.173596	0.000243	20.796491
2561.671288	-3.001700	2.935600	-8.810800	28.183958	0.000244	20.796017
2562.671040	-2.987600	2.937500	-8.775200	28.203885	0.000244	20.807545
2563.667132	-2.996300	2.933400	-8.788100	28.239483	0.000244	20.790752
2564.669991	-2.996300	2.932300	-8.785300	28.248400	0.000245	20.794988
2565.668666	-2.966800	2.931400	-8.694900	28.235740	0.000243	20.796467
2566.671558	-3.027200	2.927200	-8.859900	28.165687	0.000245	20.819349
2567.671625	-3.012400	2.926400	-8.814900	28.144842	0.000243	20.813062
2568.678884	-2.968900	2.924900	-8.681300	28.105107	0.000244	20.785863
2569.671103	-3.000600	2.923400	-8.770600	28.127139	0.000245	20.794767
2570.671968	-2.983000	2.923500	-8.720200	28.161149	0.000243	20.815254
2571.671227	-2.979900	2.920800	-8.702800	28.222382	0.000241	20.794398
2572.674533	-3.017100	2.918600	-8.804500	28.236430	0.000245	20.788153
2573.678513	-3.006000	2.917800	-8.770000	28.270223	0.000243	20.816960
2574.670884	-2.998800	2.916800	-8.746000	28.285391	0.000243	20.782446
2575.671104	-3.010200	2.915000	-8.773500	28.289580	0.000242	20.807527
2576.673639	-2.972800	2.914200	-8.662400	28.330825	0.000242	20.818709
2577.676134	-3.001700	2.910900	-8.736400	28.379621	0.000244	20.811418
2578.675782	-2.988800	2.910000	-8.696900	28.412816	0.000243	20.788894
2579.676289	-2.999900	2.909000	-8.725400	28.424313	0.000242	20.816591
2580.679116	-2.994900	2.906100	-8.702600	28.423102	0.000243	20.814424
2581.675128	-3.006400	2.904700	-8.732200	28.406353	0.000241	20.807515
2582.672278	-3.015300	2.902400	-8.750300	28.386074	0.000242	20.822657
2583.677473	-3.004100	2.901100	-8.714500	28.397137	0.000241	20.809141
2584.675588	-2.999800	2.897900	-8.691300	28.384221	0.000243	20.816524
2585.674341	-3.009700	2.897200	-8.718400	28.378993	0.000243	20.821691
2586.675172	-3.005900	2.895200	-8.701500	28.374566	0.000243	20.792103
2587.676358	-3.032600	2.893000	-8.772600	28.331536	0.000242	20.820373
2588.674321	-3.025300	2.890800	-8.744900	28.330050	0.000243	20.811765
2589.675329	-3.021700	2.890100	-8.732000	28.348747	0.000244	20.826323
2590.675250	-2.983700	2.889100	-8.618300	28.429634	0.000244	20.817209
2591.676657	-2.996200	2.886200	-8.646400	28.408152	0.000245	20.815491
2592.674551	-2.994200	2.884100	-8.634600	28.360439	0.000241	20.834302
2593.675294	-2.990100	2.882700	-8.617900	28.314866	0.000245	20.824925
2594.676737	-3.008300	2.880900	-8.666000	28.285644	0.000243	20.824900
2595.674457	-3.002600	2.879000	-8.643100	28.262177	0.000243	20.813127
2596.680208	-3.011500	2.876500	-8.661900	28.323471	0.000243	20.823632
2597.676129	-3.001200	2.874900	-8.627400	28.372371	0.000241	20.816920
2598.680184	-3.013100	2.873700	-8.656700	28.377405	0.000243	20.809186
2599.680586	-2.984300	2.871700	-8.569000	28.371154	0.000240	20.824703
2600.676680	-3.020800	2.868500	-8.664800	28.383655	0.000240	20.807419
2601.676053	-3.013000	2.867300	-8.637800	28.372727	0.000242	20.808743
2602.679794	-2.992600	2.865700	-8.575500	28.381081	0.000241	20.810517
2603.677065	-2.982200	2.863900	-8.538200	28.370794	0.000242	20.816281
2604.677386	-3.016200	2.859600	-8.624000	28.406435	0.000242	20.815185
2605.677968	-3.003600	2.859700	-8.588700	28.454910	0.000242	20.819427
2606.683112	-2.995900	2.858000	-8.560600	28.509870	0.000242	20.825936
2607.677921	-3.002100	2.854600	-8.568900	28.519733	0.000244	20.809316
2608.679448	-2.985700	2.854100	-8.520400	28.520308	0.000243	20.818904
2609.678405	-3.007300	2.852700	-8.578200	28.534788	0.000241	20.804089
2610.678577	-2.989500	2.849400	-8.517800	28.580010	0.000244	20.813123
2611.680668	-3.009800	2.847600	-8.569900	28.601196	0.000244	20.807907
2612.679467	-3.010200	2.845400	-8.563700	28.574531	0.000241	20.789113
2613.680985	-3.012700	2.843700	-8.566700	28.535088	0.000241	20.810081
2614.679467	-2.998400	2.840800	-8.516800	28.488102	0.000243	20.806860
2615.683235	-3.009200	2.839100	-8.541300	28.511351	0.000241	20.790444
2616.679410	-2.980000	2.837400	-8.454500	28.525427	0.000240	20.799878
2617.679860	-3.025300	2.833300	-8.570100	28.550203	0.000242	20.798751
2618.680832	-2.994200	2.833400	-8.482100	28.579424	0.000243	20.800204
2619.680049	-2.989800	2.830900	-8.463100	28.557596	0.000241	20.799558
2620.680175	-3.003200	2.828500	-8.493300	28.543025	0.000240	20.804798
2621.679364	-3.000900	2.824500	-8.474600	28.541410	0.000242	20.779465
2622.681083	-3.012000	2.822800	-8.501500	28.522284	0.000240	20.789601
2623.680611	-3.001300	2.821900	-8.467900	28.471825	0.000239	20.783830
2624.688725	-2.975500	2.820000	-8.389500	28.479365	0.000240	20.782415
2625.683143	-2.998100	2.818000	-8.447700	28.487840	0.000243	20.794743
2626.689975	-2.968400	2.815300	-8.355400	28.480045	0.000242	20.788315
2627.685863	-3.007400	2.810900	-8.452400	28.484196	0.000243	20.789650
2628.680704	-2.997500	2.809600	-8.420800	28.471434	0.000242	20.792920
2629.680169	-3.000100	2.807400	-8.421500	28.453890	0.000241	20.813660
2630.685555	-3.012900	2.804400	-8.448000	28.447867	0.000241	20.791473
2631.682807	-3.042300	2.800200	-8.517800	28.478204	0.000240	20.792625
2632.689601	-3.023700	2.800200	-8.466200	28.477042	0.000242	20.795722
2633.682900	-3.014200	2.798000	-8.433000	28.487028	0.000241	20.771639
2634.685479	-3.028200	2.793800	-8.459000	28.487352	0.000240	20.788087
2635.687619	-2.989800	2.793200	-8.349900	28.517974	0.000241	20.793320
2636.685055	-3.004100	2.789200	-8.378100	28.533144	0.000242	20.762131
2637.685777	-3.014600	2.787300	-8.401700	28.539907	0.000242	20.799762
2638.687296	-2.973900	2.785600	-8.282800	28.526577	0.000241	20.761681
2639.687068	-3.012500	2.781100	-8.376500	28.517283	0.000242	20.777452
2640.686029	-2.993000	2.779600	-8.318600	28.485217	0.000242	20.784041
2641.689896	-3.007500	2.776000	-8.348000	28.466059	0.000243	20.778498
2642.691873	-2.993400	2.774300	-8.304000	28.430818	0.000242	20.769089
2643.692854	-2.975000	2.771700	-8.244800	28.475654	0.000240	20.760659
2644.686882	-3.004200	2.768800	-8.316100	28.537626	0.000240	20.781343
2645.697000	-2.990600	2.766500	-8.272500	28.597199	0.000241	20.775432
2646.690680	-3.015700	2.761300	-8.325800	28.675665	0.000241	20.767217
2647.690918	-3.008900	2.759200	-8.301300	28.709492	0.000241	20.779952
2648.690555	-2.993000	2.757400	-8.251400	28.740529	0.000242	20.773283
2649.698534	-2.992600	2.754500	-8.242000	28.693009	0.000241	20.778049
2650.691777	-3.000800	2.749900	-8.250300	28.714492	0.000242	20.748004
2651.689403	-3.011800	2.746300	-8.270700	28.705249	0.000241	20.769514
2652.688811	-3.002400	2.745000	-8.239800	28.696953	0.000241	20.784866
2653.694157	-2.996100	2.740600	-8.210400	28.667246	0.000242	20.773437
2654.687025	-2.986400	2.738800	-8.177800	28.583661	0.000241	20.760849
2655.688705	-2.977600	2.734700	-8.141600	28.616072	0.000244	20.756508
2656.689920	-2.999800	2.731200	-8.192500	28.579553	0.000241	20.760979
2657.697263	-2.980500	2.729100	-8.132200	28.591420	0.000241	20.772457
2658.696413	-3.021900	2.723400	-8.229200	28.603936	0.000242	20.763251
2659.689632	-3.038100	2.719600	-8.261500	28.582255	0.000242	20.778874
2660.694222	-3.016700	2.716300	-8.193500	28.628124	0.000242	20.777655
2661.704086	-2.978000	2.715800	-8.086700	28.655153	0.000242	20.777852
2662.691763	-3.017400	2.709100	-8.172900	28.717195	0.000243	20.790556
2663.699225	-2.988100	2.706700	-8.087400	28.774947	0.000239	20.773813
2664.697759	-3.021500	2.702700	-8.165300	28.774483	0.000242	20.767181
2665.704307	-2.989300	2.700800	-8.071700	28.739099	0.000241	20.746237
2666.704665	-3.021400	2.696100	-8.144000	28.713631	0.000242	20.750930
2667.698652	-3.020800	2.691900	-8.130800	28.742119	0.000242	20.786264
2668.694652	-2.995300	2.689400	-8.055200	28.798612	0.000243	20.743596
2669.698273	-2.984800	2.685700	-8.015400	28.804584	0.000239	20.775217
2670.699815	-3.037800	2.679300	-8.138100	28.827924	0.000243	20.760796
2671.695635	-2.990200	2.677400	-8.005100	28.810452	0.000241	20.753153
2672.697493	-3.024900	2.671900	-8.081300	28.828063	0.000241	20.750505
2673.695250	-3.001200	2.670900	-8.015200	28.843878	0.000241	20.756479
2674.695550	-2.993500	2.665100	-7.977200	28.922754	0.000242	20.769085
2675.695131	-2.997700	2.661100	-7.976700	28.897865	0.000241	20.750174
2676.699400	-2.987700	2.656900	-7.936900	28.857155	0.000241	20.770328
2677.704735	-3.000300	2.653800	-7.959800	28.835876	0.000242	20.764066
2678.696716	-3.005100	2.649200	-7.959800	28.827135	0.000243	20.743880
2679.698332	-3.010900	2.643800	-7.959200	28.824897	0.000242	20.733564
2680.706227	-3.003000	2.641500	-7.931600	28.810839	0.000242	20.751171
2681.705477	-3.028900	2.635600	-7.981200	28.785487	0.000242	20.738436
2682.702039	-2.980700	2.632600	-7.846500	28.804078	0.000244	20.746732
2683.699745	-2.987400	2.627300	-7.847500	28.805417	0.000241	20.767047
2684.699878	-2.974300	2.622900	-7.800400	28.841367	0.000242	20.754424
2685.700119	-3.021400	2.615800	-7.901700	28.838323	0.000242	20.746615
2686.707501	-2.982200	2.612400	-7.790200	28.799573	0.000244	20.767324
2687.710251	-3.032200	2.605900	-7.900600	28.757032	0.000241	20.748179
2688.709687	-3.022300	2.600600	-7.858900	28.777426	0.000243	20.748333
2689.700911	-2.977200	2.598200	-7.734400	28.830095	0.000242	20.738800
2690.700780	-2.966600	2.592700	-7.689800	28.867059	0.000241	20.758494
2691.701381	-3.008900	2.585800	-7.779200	28.914896	0.000242	20.737458
2692.708647	-3.007500	2.580700	-7.759900	28.963493	0.000243	20.750858
2693.702043	-3.002100	2.575600	-7.730100	29.019155	0.000242	20.766636
2694.704276	-3.039900	2.569500	-7.809400	29.073451	0.000242	20.754012
2695.713341	-3.029600	2.563800	-7.766500	29.060146	0.000244	20.752934
2696.702717	-3.025700	2.558600	-7.739700	29.032534	0.000243	20.742657
2697.702609	-2.984200	2.554100	-7.621100	28.983298	0.000243	20.743310
2698.707561	-2.986200	2.547200	-7.605500	28.948660	0.000242	20.737335
2699.708862	-2.994000	2.542600	-7.611100	28.991713	0.000243	20.735667
2700.704637	-2.986700	2.536500	-7.575000	29.013759	0.000242	20.729903
2701.703278	-2.983100	2.529800	-7.545600	29.071917	0.000240	20.750570
2702.707863	-3.008700	2.523600	-7.592200	29.096411	0.000244	20.743956
2703.705152	-2.989100	2.517500	-7.524300	29.138451	0.000244	20.731789
2704.705591	-2.991200	2.511400	-7.511100	29.153526	0.000243	20.735600
2705.706717	-2.996800	2.505000	-7.506100	29.104484	0.000241	20.726485
2706.707265	-3.043600	2.496800	-7.598300	29.066081	0.000243	20.737577
