LabVIEW Measurement	
Writer_Version	2
Reader_Version	2
Separator	Tab
Decimal_Separator	.
Multi_Headings	No
X_Columns	One
Time_Pref	Absolute
Operator	admin
Description	Clolumns are: time, Current, Voltage, Power, Battery Temp, and Chamber Temp
Date	2024/08/16
Time	13:06:06.104549407958984375
***End_of_Header***	
	
Channels	6						
Samples	1	1	1	1	1	1	
Date	2024/08/28	2024/08/28	2024/08/28	2024/08/28	2024/08/28	2024/08/28	
Time	07:04:49.9920253753662109375	07:04:49.9984278678894042969	07:04:50.0095582008361816406	07:04:49.9748334884643554688	07:04:49.9748334884643554688	07:04:49.9748334884643554688	
X_Dimension	Time	Time	Time	Time	Time	Time	
X0	0.0000000000000000E+0	0.0000000000000000E+0	0.0000000000000000E+0	0.0000000000000000E+0	0.0000000000000000E+0	0.0000000000000000E+0	
Delta_X	1.000000	1.000000	1.000000	1.000000	1.000000	1.000000	
***End_of_Header***							
X_Value	Untitled	Untitled 1	Untitled 2	Untitled 3	Untitled 4	Untitled 5	Comment
0.000000	0.030008	4.104900	0.123210	21.072972	0.000957	20.906097
0.998960	-2.991600	3.944200	-11.797000	21.082901	0.000956	20.897064
2.001785	-3.001100	3.937200	-11.816000	21.053738	0.000956	20.916255
2.998328	-2.996800	3.931500	-11.781000	21.065084	0.000955	20.885408
3.999991	-2.974800	3.928600	-11.684000	21.066708	0.000951	20.897462
5.001291	-2.989800	3.924900	-11.734000	21.086391	0.000953	20.914303
5.998792	-2.990500	3.922100	-11.728000	21.084318	0.000952	20.891370
7.002140	-2.982300	3.919600	-11.687000	21.063314	0.000951	20.884112
8.004314	-2.996300	3.916700	-11.734000	21.080874	0.000950	20.898829
9.003800	-2.993600	3.916700	-11.725000	21.066683	0.000950	20.894593
10.002811	-2.994200	3.912200	-11.713000	21.090904	0.000952	20.880414
11.010133	-2.957300	3.913000	-11.570000	21.080778	0.000950	20.901578
12.003619	-3.007300	3.910400	-11.759000	21.097566	0.000948	20.909835
13.005570	-2.992600	3.908000	-11.694000	21.099987	0.000948	20.894714
14.004667	-2.995300	3.906700	-11.701000	21.087732	0.000946	20.907585
15.004667	-3.000900	3.906400	-11.720000	21.102629	0.000948	20.898779
16.016725	-3.001700	3.905500	-11.722000	21.112760	0.000946	20.906067
17.009347	-3.011900	3.904400	-11.757000	21.111111	0.000945	20.917693
18.007591	-2.979100	3.903100	-11.626000	21.122533	0.000946	20.907308
19.006488	-3.023200	3.901100	-11.792000	21.125201	0.000943	20.877736
20.009840	-3.028200	3.899600	-11.808000	21.142966	0.000943	20.898824
21.006275	-3.008700	3.899500	-11.730000	21.133834	0.000943	20.908654
22.010479	-3.010900	3.901200	-11.746000	21.122508	0.000941	20.926721
23.014045	-2.999900	3.897900	-11.691000	21.170403	0.000942	20.919629
24.009423	-3.005600	3.898300	-11.716000	21.156904	0.000940	20.923195
25.006841	-3.005100	3.896500	-11.709000	21.140914	0.000940	20.915736
26.007543	-3.025900	3.894800	-11.784000	21.169405	0.000941	20.921001
27.014902	-3.009600	3.895900	-11.723000	21.162466	0.000941	20.910268
28.008981	-3.038700	3.893600	-11.830000	21.167579	0.000940	20.910167
29.007946	-2.991100	3.894500	-11.647000	21.193977	0.000938	20.901013
30.014402	-3.029500	3.893200	-11.792000	21.171043	0.000937	20.924537
31.007853	-2.991000	3.893700	-11.644000	21.193871	0.000937	20.925086
32.008330	-3.009800	3.892900	-11.715000	21.221559	0.000938	20.925283
33.013092	-2.986600	3.892200	-11.623000	21.202271	0.000937	20.925429
34.012930	-2.991600	3.891800	-11.641000	21.190881	0.000936	20.930629
35.017836	-2.982400	3.891300	-11.605000	21.219758	0.000938	20.938654
36.017566	-2.999700	3.888200	-11.661000	21.205695	0.000935	20.914157
37.014863	-2.988500	3.889600	-11.623000	21.195066	0.000934	20.931023
38.014388	-2.985000	3.890300	-11.611000	21.226868	0.000934	20.918741
39.014971	-2.986800	3.890100	-11.617000	21.214741	0.000933	20.926050
40.012300	-2.968800	3.889000	-11.545000	21.227019	0.000933	20.904670
41.012172	-2.995200	3.888600	-11.647000	21.238264	0.000935	20.915443
42.011338	-2.999400	3.886900	-11.657000	21.245126	0.000933	20.919463
43.014357	-3.010700	3.886000	-11.698000	21.260621	0.000932	20.921213
44.013995	-3.011700	3.886100	-11.703000	21.270372	0.000934	20.927174
45.027240	-3.008100	3.885900	-11.688000	21.279131	0.000931	20.929772
46.018252	-2.978500	3.886400	-11.575000	21.284294	0.000932	20.932566
47.015679	-2.996300	3.885200	-11.641000	21.294337	0.000929	20.939294
48.025635	-2.977100	3.887200	-11.570000	21.282620	0.000932	20.920461
49.012709	-3.014900	3.884900	-11.711000	21.287929	0.000929	20.933358
50.019197	-2.990100	3.885300	-11.617000	21.299132	0.000930	20.948357
51.022237	-3.019900	3.884400	-11.729000	21.296984	0.000930	20.945261
52.013832	-3.006300	3.883600	-11.674000	21.312120	0.000929	20.960875
53.017209	-2.982000	3.882600	-11.577000	21.314888	0.000928	20.949422
54.018322	-2.981300	3.883700	-11.578000	21.337612	0.000929	20.935173
55.016026	-3.009100	3.881400	-11.677000	21.330206	0.000930	20.957632
56.017522	-2.994400	3.881400	-11.620000	21.335989	0.000926	20.941135
57.015945	-3.001100	3.882900	-11.650000	21.335510	0.000927	20.945397
58.018464	-2.998800	3.882300	-11.641000	21.359609	0.000928	20.972349
59.020218	-3.000700	3.881500	-11.647000	21.362599	0.000928	20.951636
60.014587	-3.022400	3.880000	-11.725000	21.359756	0.000928	20.950687
61.020018	-3.004200	3.880100	-11.656000	21.366592	0.000929	20.929081
62.015901	-3.005300	3.879300	-11.657000	21.354769	0.000928	20.949966
63.016541	-2.985200	3.880500	-11.583000	21.390656	0.000929	20.939879
64.020009	-2.993600	3.880100	-11.614000	21.395773	0.000930	20.962540
65.017195	-3.013800	3.878300	-11.687000	21.400386	0.000927	20.942502
66.020499	-3.006600	3.879700	-11.663000	21.419665	0.000926	20.955625
67.020460	-3.000100	3.878500	-11.635000	21.418571	0.000928	20.957849
68.018726	-3.010700	3.879800	-11.680000	21.390636	0.000928	20.956452
69.016691	-3.014100	3.877800	-11.687000	21.409794	0.000929	20.944802
70.043067	-3.001300	3.877600	-11.637000	21.425105	0.000929	20.961067
71.016416	-2.988000	3.878000	-11.586000	21.436705	0.000929	20.947071
72.028696	-2.993400	3.878300	-11.608000	21.434462	0.000927	20.937715
73.024923	-3.017100	3.877500	-11.698000	21.458156	0.000927	20.951464
74.019069	-3.005900	3.877100	-11.653000	21.467634	0.000926	20.960946
75.021120	-3.016200	3.876800	-11.690000	21.474470	0.000929	20.936969
76.019153	-3.018400	3.876200	-11.699000	21.452444	0.000927	20.975143
77.029759	-3.011400	3.875300	-11.670000	21.480877	0.000927	20.962343
78.017037	-2.995800	3.876600	-11.612000	21.469554	0.000927	20.956230
79.022856	-2.993500	3.874800	-11.598000	21.491080	0.000927	20.944106
80.021879	-2.997200	3.873800	-11.610000	21.476864	0.000926	20.944106
81.024072	-2.989400	3.874800	-11.582000	21.496711	0.000928	20.928405
82.027524	-2.969700	3.875500	-11.508000	21.482475	0.000928	20.952090
83.020269	-2.995500	3.873900	-11.603000	21.487884	0.000926	20.957027
84.021179	-3.014900	3.873800	-11.677000	21.514426	0.000927	20.952291
85.023523	-3.001600	3.873000	-11.624000	21.520959	0.000928	20.933701
86.024376	-3.010800	3.873600	-11.662000	21.513649	0.000927	20.927810
87.021352	-3.008300	3.872900	-11.649000	21.530008	0.000928	20.936117
88.021316	-3.005500	3.873900	-11.642000	21.535467	0.000926	20.940631
89.021234	-3.003600	3.873300	-11.632000	21.552304	0.000926	20.909592
90.021496	-2.967600	3.873800	-11.495000	21.546068	0.000927	20.930851
91.024267	-2.996500	3.872900	-11.602000	21.552702	0.000927	20.943178
92.023090	-3.002300	3.872100	-11.624000	21.580240	0.000928	20.920950
93.026392	-2.992000	3.873700	-11.589000	21.580109	0.000927	20.948317
94.022752	-2.989500	3.871400	-11.573000	21.576968	0.000927	20.934745
95.021873	-3.009800	3.871200	-11.650000	21.582281	0.000926	20.913985
96.026778	-3.012700	3.870600	-11.659000	21.596491	0.000928	20.929625
97.023471	-2.982100	3.873000	-11.549000	21.593351	0.000929	20.939758
98.027462	-2.996700	3.872000	-11.602000	21.582256	0.000929	20.912063
99.023796	-2.996800	3.871500	-11.601000	21.617717	0.000925	20.916729
100.022786	-2.996300	3.871400	-11.599000	21.619512	0.000928	20.934644
101.027158	-3.006100	3.869600	-11.630000	21.620858	0.000925	20.924612
102.024022	-3.011100	3.869400	-11.650000	21.646816	0.000926	20.941579
103.024749	-3.006300	3.869800	-11.633000	21.644624	0.000925	20.919473
104.028756	-3.004900	3.869400	-11.625000	21.637542	0.000926	20.919024
105.026892	-2.998800	3.870300	-11.605000	21.642401	0.000928	20.923886
106.026767	-2.981300	3.871900	-11.542000	21.643475	0.000929	20.908841
107.025548	-2.986000	3.869600	-11.554000	21.650652	0.000929	20.901325
108.027211	-2.991200	3.868900	-11.572000	21.653445	0.000928	20.931144
109.027692	-2.972000	3.869800	-11.500000	21.673042	0.000928	20.918514
110.029905	-3.016000	3.867800	-11.664000	21.666691	0.000927	20.908841
111.029165	-2.997700	3.867400	-11.591000	21.677432	0.000928	20.917692
112.036499	-3.008800	3.869300	-11.639000	21.671026	0.000927	20.922186
113.029284	-2.998300	3.867700	-11.595000	21.681973	0.000929	20.929348
114.029614	-2.992000	3.867400	-11.569000	21.675884	0.000929	20.918514
115.030856	-2.999600	3.868300	-11.602000	21.695587	0.000930	20.904094
116.039324	-3.017500	3.865800	-11.664000	21.701146	0.000929	20.902072
117.038059	-2.996700	3.867800	-11.589000	21.712996	0.000928	20.902551
118.034273	-3.005000	3.865400	-11.615000	21.724740	0.000927	20.890597
119.033515	-3.006800	3.866000	-11.624000	21.723464	0.000929	20.893114
120.030502	-3.015400	3.866700	-11.659000	21.725561	0.000930	20.920814
121.031570	-2.999800	3.866600	-11.599000	21.732295	0.000930	20.918545
122.034763	-3.009400	3.866800	-11.636000	21.742687	0.000930	20.918988
123.033508	-3.014400	3.865100	-11.650000	21.746230	0.000927	20.902147
124.031896	-2.998000	3.866100	-11.589000	21.755308	0.000931	20.897008
125.033781	-2.990900	3.866300	-11.561000	21.739996	0.000929	20.903494
126.033789	-3.014900	3.865300	-11.652000	21.742138	0.000931	20.908482
127.032764	-2.984300	3.864700	-11.532000	21.753135	0.000930	20.912376
128.036981	-2.986900	3.863900	-11.540000	21.747319	0.000932	20.906556
129.032059	-3.001600	3.865000	-11.600000	21.755096	0.000930	20.890158
130.040529	-2.987700	3.864900	-11.545000	21.754642	0.000932	20.896816
131.032193	-2.993500	3.863700	-11.564000	21.768603	0.000931	20.894668
132.033788	-2.999300	3.862600	-11.585000	21.774762	0.000932	20.888030
133.039293	-2.999700	3.864000	-11.590000	21.789075	0.000930	20.883390
134.031672	-2.994500	3.863500	-11.568000	21.790617	0.000932	20.900579
135.032952	-3.008600	3.863500	-11.622000	21.800359	0.000930	20.916492
136.033007	-2.988600	3.864000	-11.547000	21.779217	0.000933	20.911927
137.032268	-3.016800	3.862500	-11.650000	21.799961	0.000931	20.902818
138.036220	-3.000100	3.862800	-11.587000	21.820926	0.000933	20.894879
139.036851	-2.975600	3.863700	-11.496000	21.805464	0.000931	20.897421
140.033891	-2.993700	3.860900	-11.557000	21.809627	0.000934	20.878356
141.034577	-2.991400	3.862800	-11.553000	21.806956	0.000933	20.882320
142.033840	-2.976700	3.863200	-11.498000	21.819248	0.000933	20.895096
143.033879	-2.991600	3.861800	-11.551000	21.825654	0.000933	20.890602
144.035355	-2.990200	3.860600	-11.543000	21.864000	0.000935	20.900059
145.035311	-3.001000	3.860500	-11.584000	21.840833	0.000935	20.881140
146.032948	-2.975300	3.861000	-11.487000	21.856642	0.000937	20.902178
147.033603	-3.000600	3.861200	-11.584000	21.869528	0.000934	20.905592
148.033454	-2.989400	3.860800	-11.541000	21.882943	0.000934	20.905270
149.037035	-2.991100	3.859600	-11.543000	21.871967	0.000934	20.891440
150.038473	-3.004100	3.860200	-11.596000	21.880096	0.000935	20.905264
151.036885	-3.022800	3.860200	-11.667000	21.874533	0.000936	20.879783
152.039311	-2.999400	3.859500	-11.576000	21.891586	0.000935	20.874094
153.036510	-3.007500	3.859300	-11.606000	21.886995	0.000938	20.900791
154.037757	-2.982600	3.859500	-11.508000	21.902552	0.000937	20.878906
155.038292	-3.017600	3.858700	-11.642000	21.915684	0.000937	20.878301
156.037055	-3.015200	3.858400	-11.631000	21.938295	0.000935	20.888131
157.037963	-3.013500	3.857800	-11.624000	21.949487	0.000935	20.889851
158.035908	-3.014900	3.858900	-11.634000	21.949089	0.000938	20.873332
159.042243	-2.976400	3.859800	-11.487000	21.933876	0.000937	20.873751
160.043004	-3.002500	3.858900	-11.585000	21.927013	0.000937	20.899596
161.040258	-2.998900	3.858900	-11.571000	21.938306	0.000936	20.878659
162.041089	-3.020300	3.857000	-11.649000	21.934289	0.000937	20.879854
163.040332	-3.011800	3.858000	-11.619000	21.958069	0.000937	20.897966
164.040501	-3.008500	3.857300	-11.604000	21.955877	0.000936	20.875860
165.042902	-3.010000	3.858600	-11.613000	21.967160	0.000938	20.897583
166.047222	-2.993200	3.857500	-11.545000	21.988495	0.000937	20.876268
167.042199	-2.998500	3.858000	-11.567000	21.999656	0.000938	20.868950
168.043858	-2.979700	3.857700	-11.493000	22.005663	0.000938	20.865954
169.043909	-2.998100	3.856500	-11.562000	21.984494	0.000938	20.910667
170.044775	-2.990900	3.855600	-11.530000	22.032354	0.000938	20.867543
171.045353	-3.002000	3.855700	-11.574000	22.023702	0.000938	20.873580
172.044166	-2.978000	3.856600	-11.484000	22.025168	0.000939	20.864617
173.046264	-3.004200	3.855900	-11.583000	21.994472	0.000940	20.870398
174.045671	-2.990300	3.856800	-11.531000	22.023516	0.000941	20.882876
175.046176	-3.016800	3.855700	-11.631000	21.999551	0.000941	20.856991
176.048174	-2.999800	3.854800	-11.563000	22.006898	0.000940	20.870509
177.046668	-3.006900	3.854000	-11.587000	22.016668	0.000940	20.885979
178.049719	-2.982000	3.855800	-11.497000	22.050247	0.000942	20.847524
179.045002	-3.000000	3.853900	-11.561000	22.062753	0.000941	20.865259
180.047598	-3.006100	3.854400	-11.586000	22.041737	0.000943	20.847539
181.050917	-2.990000	3.853600	-11.521000	22.059009	0.000942	20.870045
182.047993	-3.009700	3.852900	-11.595000	22.084056	0.000945	20.878524
183.045823	-2.994600	3.854500	-11.542000	22.085921	0.000943	20.868538
184.051584	-2.997700	3.854100	-11.552000	22.069863	0.000942	20.880910
185.048345	-3.003400	3.852800	-11.571000	22.103133	0.000944	20.858743
186.046879	-3.001200	3.853100	-11.563000	22.109214	0.000945	20.855822
187.053426	-2.992600	3.852500	-11.529000	22.104599	0.000944	20.861159
188.050307	-3.004100	3.851900	-11.570000	22.093056	0.000946	20.868568
189.049808	-3.002400	3.851600	-11.563000	22.131464	0.000948	20.851545
190.050334	-3.029200	3.852500	-11.668000	22.124602	0.000946	20.854158
191.054015	-2.984000	3.852000	-11.493000	22.131827	0.000947	20.846693
192.056984	-2.987500	3.852800	-11.509000	22.119710	0.000948	20.861114
193.056333	-2.991000	3.852100	-11.521000	22.118037	0.000945	20.869396
194.055197	-3.001200	3.851700	-11.558000	22.114370	0.000946	20.850078
195.056397	-3.001300	3.851400	-11.558000	22.120224	0.000947	20.848353
196.055194	-3.016900	3.851800	-11.620000	22.163372	0.000947	20.857886
197.059619	-3.000800	3.850400	-11.553000	22.145769	0.000949	20.864918
198.056048	-2.999100	3.850200	-11.546000	22.142005	0.000950	20.856883
199.056476	-3.003800	3.851000	-11.565000	22.160969	0.000949	20.852636
200.055917	-2.998000	3.851700	-11.545000	22.159448	0.000949	20.871500
201.056267	-3.030200	3.850400	-11.666000	22.175570	0.000952	20.858719
202.055940	-2.993300	3.850000	-11.524000	22.178487	0.000951	20.850735
203.061665	-3.020500	3.848400	-11.623000	22.202015	0.000951	20.842997
204.057883	-3.017300	3.849100	-11.613000	22.202212	0.000950	20.847936
205.056505	-3.009400	3.848900	-11.582000	22.219281	0.000952	20.842266
206.058934	-3.007900	3.848100	-11.574000	22.196348	0.000954	20.849651
207.058379	-2.994700	3.849400	-11.527000	22.205467	0.000952	20.852617
208.058861	-3.006500	3.848500	-11.569000	22.209734	0.000953	20.850725
209.057262	-3.020200	3.846800	-11.618000	22.201305	0.000953	20.842287
210.059360	-3.008400	3.849100	-11.579000	22.202444	0.000954	20.854332
211.056040	-3.011300	3.849400	-11.590000	22.221659	0.000954	20.851286
212.058695	-3.007300	3.846900	-11.568000	22.223332	0.000954	20.834469
213.059343	-3.011700	3.849000	-11.591000	22.213931	0.000954	20.827428
214.062402	-3.020800	3.848100	-11.624000	22.214153	0.000957	20.872218
215.057207	-3.017400	3.847600	-11.609000	22.222007	0.000956	20.845944
216.056972	-3.017400	3.848100	-11.610000	22.263353	0.000954	20.844668
217.056303	-3.004300	3.847300	-11.557000	22.251685	0.000958	20.847210
218.060512	-3.003600	3.846600	-11.553000	22.276355	0.000960	20.850575
219.059752	-3.012500	3.846300	-11.586000	22.286547	0.000958	20.841814
220.058084	-3.029500	3.844500	-11.646000	22.283509	0.000959	20.834979
221.057790	-3.007600	3.844800	-11.562000	22.264542	0.000958	20.839695
222.059906	-3.004800	3.846900	-11.558000	22.264265	0.000959	20.849849
223.058147	-3.001600	3.844300	-11.538000	22.268476	0.000962	20.821824
224.062301	-2.974400	3.845300	-11.436000	22.257484	0.000958	20.848275
225.059745	-2.991000	3.845900	-11.502000	22.244200	0.000959	20.825965
226.059106	-3.011300	3.845900	-11.580000	22.243525	0.000962	20.824816
227.059062	-3.021200	3.845500	-11.617000	22.258623	0.000961	20.849415
228.058982	-2.988100	3.845900	-11.490000	22.235892	0.000962	20.845622
229.063064	-3.024900	3.843100	-11.625000	22.267344	0.000962	20.841078
230.063538	-2.985000	3.844600	-11.475000	22.252764	0.000963	20.822213
231.061226	-2.997900	3.844000	-11.522000	22.251716	0.000965	20.831121
232.060395	-3.003200	3.844900	-11.545000	22.277510	0.000964	20.836559
233.062108	-2.988900	3.844300	-11.489000	22.315690	0.000964	20.841124
234.064510	-2.988100	3.843900	-11.485000	22.311504	0.000967	20.841673
235.063375	-3.004600	3.843400	-11.546000	22.345345	0.000965	20.835257
236.066282	-2.993700	3.843200	-11.504000	22.347667	0.000966	20.826677
237.064460	-3.003300	3.842300	-11.538000	22.339386	0.000965	20.833084
238.063815	-2.979600	3.843500	-11.450000	22.350554	0.000967	20.842844
239.069707	-3.034600	3.842500	-11.658000	22.357929	0.000969	20.825573
240.065660	-3.003600	3.841700	-11.538000	22.356655	0.000968	20.829987
241.066847	-3.010300	3.841300	-11.563000	22.370009	0.000968	20.829609
242.066303	-2.992000	3.842100	-11.495000	22.360171	0.000969	20.814068
243.064871	-3.001600	3.841800	-11.531000	22.382450	0.000969	20.825946
244.066041	-3.013000	3.841800	-11.573000	22.403204	0.000970	20.823969
245.068634	-3.002800	3.840700	-11.532000	22.394631	0.000970	20.825816
246.066913	-3.010200	3.840400	-11.559000	22.422244	0.000969	20.826441
247.069197	-2.998200	3.841100	-11.515000	22.432212	0.000970	20.821251
248.066194	-3.012500	3.840700	-11.569000	22.441012	0.000970	20.825795
249.068608	-3.011200	3.839700	-11.561000	22.425458	0.000969	20.814961
250.069376	-3.022900	3.838900	-11.604000	22.426405	0.000971	20.823021
251.068325	-3.001200	3.841500	-11.527000	22.418079	0.000972	20.826063
252.073492	-2.992600	3.841300	-11.494000	22.411404	0.000972	20.821750
253.070679	-3.006400	3.838400	-11.538000	22.422290	0.000972	20.801831
254.072727	-2.988000	3.840000	-11.473000	22.452587	0.000972	20.817947
255.070928	-2.994300	3.840300	-11.499000	22.464101	0.000972	20.803874
256.072122	-2.990200	3.839100	-11.479000	22.475540	0.000974	20.837140
257.069493	-2.976500	3.838800	-11.425000	22.484853	0.000973	20.809958
258.070345	-3.002800	3.838500	-11.526000	22.509599	0.000974	20.824308
259.070904	-2.994900	3.839200	-11.498000	22.502094	0.000974	20.811103
260.070443	-3.015800	3.838500	-11.575000	22.509891	0.000975	20.812273
261.073282	-3.027100	3.835900	-11.611000	22.474080	0.000975	20.804858
262.069166	-2.976300	3.839000	-11.425000	22.499198	0.000975	20.802513
263.074861	-3.005300	3.837700	-11.531000	22.486713	0.000978	20.798543
264.070002	-2.997600	3.837500	-11.503000	22.473501	0.000978	20.829883
265.070235	-2.995800	3.836300	-11.491000	22.470434	0.000978	20.799785
266.073434	-2.999000	3.836900	-11.505000	22.471683	0.000979	20.827588
267.070300	-3.000700	3.838300	-11.516000	22.496197	0.000979	20.818947
268.072701	-2.985100	3.836900	-11.453000	22.504196	0.000977	20.791870
269.074247	-2.988000	3.836300	-11.461000	22.509882	0.000979	20.798513
270.072420	-2.977200	3.836300	-11.420000	22.520615	0.000981	20.807366
271.073884	-2.998200	3.835800	-11.499000	22.525798	0.000979	20.801651
272.076210	-3.006000	3.835000	-11.527000	22.507530	0.000981	20.810857
273.072166	-3.014100	3.835300	-11.558000	22.534516	0.000982	20.796632
274.073989	-3.000000	3.835000	-11.502000	22.530875	0.000981	20.809107
275.074723	-3.013200	3.833800	-11.551000	22.544957	0.000982	20.796658
276.072469	-2.996600	3.834500	-11.489000	22.521553	0.000984	20.828219
277.074043	-3.001400	3.833400	-11.505000	22.569847	0.000984	20.796456
278.072328	-3.024800	3.833700	-11.594000	22.540117	0.000984	20.805561
279.075976	-3.003600	3.834100	-11.515000	22.578293	0.000983	20.806812
280.072072	-3.019300	3.834200	-11.576000	22.575972	0.000984	20.784572
281.073055	-2.990300	3.833000	-11.460000	22.582227	0.000986	20.800320
282.076430	-2.995700	3.832500	-11.481000	22.576420	0.000985	20.802565
283.078539	-3.009100	3.833200	-11.533000	22.566705	0.000988	20.784300
284.073596	-3.003800	3.832400	-11.511000	22.559075	0.000986	20.818383
285.075801	-2.999300	3.831400	-11.489000	22.579160	0.000988	20.792033
286.074796	-3.007600	3.832600	-11.526000	22.585888	0.000989	20.804936
287.080015	-2.991200	3.833800	-11.466000	22.598151	0.000990	20.790665
288.077203	-3.001900	3.832500	-11.504000	22.624239	0.000989	20.798776
289.083621	-3.006100	3.831000	-11.515000	22.626404	0.000990	20.788143
290.077765	-3.005400	3.833100	-11.518000	22.623292	0.000990	20.794509
291.077783	-2.992500	3.832100	-11.465000	22.632382	0.000992	20.785596
292.079715	-2.995600	3.832600	-11.479000	22.611139	0.000992	20.781389
293.075895	-2.993300	3.831000	-11.466000	22.586915	0.000991	20.793162
294.078907	-3.001700	3.830600	-11.498000	22.583979	0.000991	20.789747
295.079079	-3.003100	3.830000	-11.501000	22.593346	0.000992	20.795336
296.077922	-2.983300	3.829400	-11.422000	22.581667	0.000993	20.798811
297.076749	-2.965300	3.830500	-11.358000	22.601449	0.000994	20.787331
298.079051	-3.018300	3.827900	-11.553000	22.606305	0.000993	20.788400
299.076776	-2.995200	3.830300	-11.472000	22.637775	0.000994	20.779618
300.078004	-2.993700	3.831000	-11.468000	22.621353	0.000994	20.790196
301.076687	-2.980700	3.829200	-11.412000	22.652219	0.000994	20.790292
302.076897	-2.995200	3.830000	-11.471000	22.652475	0.000997	20.798135
303.080383	-2.996900	3.828000	-11.469000	22.652743	0.000997	20.798403
304.078198	-2.979000	3.828100	-11.403000	22.672030	0.000995	20.788325
305.083528	-3.005300	3.827500	-11.502000	22.663832	0.000996	20.803820
306.079160	-3.018500	3.827200	-11.551000	22.704663	0.000996	20.793984
307.078476	-2.999600	3.828600	-11.483000	22.715822	0.000999	20.774342
308.081667	-3.018400	3.825700	-11.546000	22.739213	0.001000	20.806308
309.083171	-3.012800	3.827000	-11.527000	22.728029	0.000999	20.770448
310.078378	-2.987300	3.826300	-11.429000	22.720627	0.001002	20.788164
311.079944	-2.989200	3.826000	-11.435000	22.690800	0.001001	20.792427
312.080817	-2.987900	3.826100	-11.431000	22.713673	0.001000	20.782146
313.081440	-2.968800	3.827100	-11.360000	22.681207	0.001000	20.784240
314.086060	-3.000300	3.826500	-11.480000	22.681429	0.001002	20.779246
315.081378	-3.001800	3.824900	-11.480000	22.678014	0.001002	20.777723
316.085211	-2.996000	3.825500	-11.460000	22.695005	0.001000	20.803751
317.085547	-3.021100	3.824200	-11.552000	22.730533	0.001003	20.790974
318.083760	-2.991700	3.824500	-11.441000	22.726791	0.001005	20.784856
319.089524	-3.009400	3.824900	-11.509000	22.772736	0.001004	20.801007
320.083052	-3.041600	3.824100	-11.630000	22.740297	0.001007	20.793168
321.084080	-3.019400	3.823400	-11.542000	22.768270	0.001007	20.802223
322.084371	-3.025500	3.823900	-11.569000	22.782197	0.001006	20.782036
323.085632	-2.999100	3.823000	-11.463000	22.794454	0.001006	20.790046
324.083519	-2.996800	3.824000	-11.458000	22.792828	0.001006	20.794582
325.087117	-3.018000	3.824300	-11.541000	22.803643	0.001009	20.791666
326.084039	-3.012300	3.822800	-11.514000	22.786377	0.001008	20.796655
327.085823	-3.003500	3.823000	-11.481000	22.787349	0.001008	20.772972
328.085783	-2.967600	3.823800	-11.346000	22.789514	0.001008	20.796004
329.085895	-3.000100	3.822200	-11.467000	22.775264	0.001011	20.787893
330.089345	-3.005500	3.822500	-11.488000	22.790214	0.001011	20.791963
331.085000	-3.003200	3.821500	-11.476000	22.798457	0.001009	20.796902
332.089866	-3.018800	3.823100	-11.539000	22.803856	0.001012	20.785240
333.089390	-3.003000	3.822200	-11.477000	22.786121	0.001011	20.782173
334.088019	-3.004600	3.821100	-11.480000	22.809636	0.001013	20.778703
335.087194	-3.004100	3.823200	-11.483000	22.788931	0.001012	20.796368
336.088023	-3.006800	3.821300	-11.489000	22.807642	0.001013	20.789508
337.087279	-3.016600	3.820400	-11.523000	22.825498	0.001014	20.777523
338.088207	-2.997400	3.821900	-11.454000	22.821737	0.001015	20.797463
339.090806	-3.008400	3.820200	-11.492000	22.849113	0.001012	20.796913
340.089620	-3.003000	3.820100	-11.471000	22.825543	0.001014	20.798906
341.089656	-3.009900	3.820000	-11.497000	22.823550	0.001016	20.803072
342.088499	-3.006600	3.820100	-11.484000	22.847986	0.001014	20.789620
343.088975	-3.021500	3.818300	-11.535000	22.859768	0.001016	20.797630
344.087926	-3.000800	3.819700	-11.461000	22.850050	0.001016	20.802119
345.087811	-3.011500	3.819300	-11.500000	22.855609	0.001016	20.802472
346.092049	-3.021100	3.817300	-11.530000	22.871449	0.001017	20.791315
347.092384	-3.019000	3.817900	-11.526000	22.865171	0.001019	20.795456
348.088439	-3.013300	3.818100	-11.505000	22.883700	0.001018	20.793156
349.089302	-2.974100	3.818400	-11.356000	22.882486	0.001020	20.799526
350.091290	-3.003000	3.817700	-11.463000	22.881685	0.001018	20.784026
351.093310	-2.993700	3.818200	-11.430000	22.862381	0.001018	20.797877
352.096225	-3.018100	3.815400	-11.514000	22.856304	0.001018	20.794634
353.092485	-3.001300	3.816200	-11.453000	22.868458	0.001019	20.803491
354.094489	-3.011300	3.814800	-11.486000	22.890008	0.001021	20.811804
355.093880	-3.009100	3.815000	-11.479000	22.917483	0.001021	20.808510
356.098067	-3.012700	3.816500	-11.496000	22.908617	0.001022	20.820964
357.101979	-2.986400	3.815700	-11.394000	22.934023	0.001020	20.801847
358.098093	-3.001800	3.814700	-11.449000	22.948371	0.001020	20.801050
359.098145	-2.984200	3.815400	-11.384000	22.954679	0.001022	20.802628
360.095812	-2.997000	3.815100	-11.433000	22.923615	0.001023	20.814179
361.096951	-2.985200	3.815100	-11.388000	22.921299	0.001023	20.816600
362.098826	-3.009000	3.814800	-11.478000	22.924386	0.001024	20.803572
363.108342	-3.006400	3.813500	-11.464000	22.917438	0.001023	20.782386
364.101012	-2.982800	3.814100	-11.375000	22.941403	0.001024	20.822517
365.097178	-2.971400	3.815000	-11.334000	22.930820	0.001023	20.777775
366.100475	-3.010400	3.814100	-11.481000	22.945239	0.001023	20.814981
367.098112	-3.005800	3.814600	-11.464000	22.968610	0.001024	20.808998
368.100221	-2.952300	3.814200	-11.259000	22.961259	0.001027	20.801634
369.100077	-3.010500	3.812300	-11.476000	22.973136	0.001025	20.814482
370.100594	-3.008400	3.812600	-11.469000	23.012994	0.001026	20.824544
371.102395	-3.003900	3.812800	-11.452000	23.021512	0.001028	20.799889
372.100336	-3.008900	3.811100	-11.467000	23.019765	0.001027	20.817105
373.101234	-2.996800	3.812700	-11.425000	23.020314	0.001028	20.809120
374.101007	-2.982700	3.812600	-11.370000	23.017575	0.001028	20.820600
375.105573	-3.000300	3.811500	-11.435000	22.998595	0.001028	20.830507
376.102384	-3.017600	3.810700	-11.498000	23.010099	0.001027	20.815480
377.104522	-3.009700	3.810700	-11.467000	23.038468	0.001027	20.822093
378.103315	-3.029300	3.809500	-11.537000	23.043774	0.001030	20.808918
379.106465	-2.998700	3.810700	-11.426000	23.056279	0.001029	20.816232
380.104357	-3.019200	3.810500	-11.502000	23.069776	0.001032	20.821221
381.101027	-2.995800	3.809200	-11.411000	23.065638	0.001028	20.821816
382.105603	-2.997100	3.810200	-11.419000	23.074750	0.001030	20.821937
383.104168	-3.022000	3.809400	-11.511000	23.057095	0.001031	20.833170
384.106878	-3.023000	3.808100	-11.511000	23.061898	0.001030	20.836560
385.103721	-3.004000	3.807800	-11.438000	23.059854	0.001032	20.843995
386.107868	-2.999200	3.808200	-11.421000	23.032499	0.001032	20.803784
387.103722	-3.025600	3.809000	-11.524000	23.030213	0.001032	20.800546
388.106420	-3.022900	3.807400	-11.509000	23.048664	0.001033	20.819981
389.104866	-3.013300	3.805900	-11.467000	23.067094	0.001033	20.825646
390.102821	-2.989300	3.806700	-11.378000	23.084003	0.001032	20.826942
391.103774	-2.978800	3.808400	-11.344000	23.088907	0.001032	20.836122
392.103732	-2.981500	3.806600	-11.349000	23.107483	0.001036	20.809692
393.104734	-3.013500	3.807200	-11.472000	23.090694	0.001035	20.830801
394.104051	-2.975400	3.805900	-11.323000	23.082428	0.001034	20.826786
395.106508	-3.017300	3.806700	-11.485000	23.079065	0.001035	20.831477
396.105005	-3.002700	3.805100	-11.425000	23.068605	0.001034	20.827634
397.105989	-3.002400	3.805800	-11.425000	23.069869	0.001035	20.819891
398.104898	-2.984000	3.805900	-11.355000	23.075824	0.001036	20.836764
399.105416	-2.990300	3.805300	-11.379000	23.079433	0.001037	20.819518
400.109752	-3.001600	3.804300	-11.418000	23.104060	0.001036	20.838030
401.104666	-2.997000	3.804800	-11.402000	23.118830	0.001037	20.826752
402.109842	-3.033300	3.803400	-11.536000	23.109558	0.001039	20.832634
403.106419	-2.990500	3.805400	-11.379000	23.104277	0.001037	20.826868
404.105645	-2.988400	3.802300	-11.362000	23.103004	0.001037	20.829860
405.108162	-2.991200	3.803600	-11.377000	23.127756	0.001037	20.822894
406.108780	-2.976800	3.804000	-11.322000	23.154451	0.001037	20.828781
407.105909	-2.983500	3.802900	-11.345000	23.142194	0.001038	20.823137
408.106484	-2.994900	3.802600	-11.387000	23.168093	0.001038	20.836287
409.107336	-3.005900	3.800900	-11.423000	23.165052	0.001038	20.830396
410.109988	-3.002500	3.800700	-11.410000	23.178895	0.001040	20.831465
411.108002	-2.990500	3.801800	-11.367000	23.185862	0.001040	20.830860
412.107892	-2.998500	3.802000	-11.399000	23.186784	0.001041	20.838422
413.112510	-2.984400	3.801600	-11.345000	23.155379	0.001041	20.837771
414.106298	-2.987900	3.801500	-11.358000	23.170118	0.001042	20.852540
415.107591	-2.968900	3.803300	-11.290000	23.205751	0.001042	20.824713
416.111962	-3.001600	3.800100	-11.404000	23.187691	0.001041	20.827477
417.109058	-2.992600	3.799200	-11.369000	23.182360	0.001041	20.838257
418.113534	-2.976900	3.800000	-11.311000	23.211621	0.001043	20.843396
419.106709	-2.990600	3.799700	-11.362000	23.251410	0.001044	20.848658
420.107458	-3.006300	3.800700	-11.423000	23.250983	0.001042	20.809824
421.109034	-2.998100	3.798700	-11.388000	23.255040	0.001041	20.841864
422.110703	-2.998900	3.798500	-11.390000	23.271498	0.001044	20.834177
423.111373	-3.019700	3.797800	-11.467000	23.259122	0.001044	20.839791
424.108652	-2.976100	3.799900	-11.307000	23.273759	0.001044	20.853037
425.109790	-2.995100	3.798200	-11.375000	23.237675	0.001044	20.828256
426.110189	-3.003900	3.798100	-11.408000	23.248528	0.001046	20.845769
427.116992	-3.023000	3.796900	-11.478000	23.257099	0.001045	20.867634
428.111368	-3.034400	3.795600	-11.514000	23.289941	0.001045	20.832271
429.110890	-2.996300	3.797000	-11.374000	23.262943	0.001046	20.844095
430.109902	-2.982200	3.798100	-11.325000	23.287571	0.001047	20.830370
431.112136	-3.023800	3.795600	-11.476000	23.252263	0.001047	20.837185
432.115343	-2.990100	3.797200	-11.354000	23.258288	0.001048	20.850808
433.111204	-3.015000	3.795000	-11.441000	23.278924	0.001046	20.851102
434.114519	-3.013500	3.794600	-11.433000	23.281416	0.001047	20.861184
435.117253	-2.996800	3.795500	-11.374000	23.276211	0.001046	20.846486
436.112533	-2.995200	3.796500	-11.369000	23.289258	0.001049	20.868095
437.118427	-2.963500	3.795000	-11.244000	23.273524	0.001048	20.857068
438.114854	-3.014500	3.794700	-11.438000	23.285669	0.001049	20.832732
439.115577	-3.001200	3.795000	-11.389000	23.274314	0.001049	20.833206
440.112354	-2.991100	3.793200	-11.345000	23.296848	0.001048	20.842512
441.114415	-2.995700	3.794000	-11.364000	23.314353	0.001049	20.850573
442.113887	-3.010700	3.793700	-11.421000	23.342961	0.001051	20.860752
443.115107	-2.974600	3.794300	-11.286000	23.372121	0.001051	20.847304
444.114229	-3.003500	3.791800	-11.387000	23.370077	0.001049	20.871808
445.119001	-2.987800	3.792800	-11.331000	23.353817	0.001052	20.852192
446.113311	-3.020600	3.791400	-11.451000	23.339071	0.001052	20.855905
447.115823	-2.992900	3.793500	-11.352000	23.336333	0.001050	20.854109
448.120089	-3.003100	3.792100	-11.388000	23.316216	0.001050	20.860025
449.114842	-2.995700	3.791300	-11.355000	23.306850	0.001050	20.859648
450.115550	-2.999300	3.791500	-11.370000	23.316483	0.001051	20.847018
451.116115	-3.013500	3.790800	-11.422000	23.331899	0.001054	20.847295
452.116492	-2.994900	3.790900	-11.352000	23.323731	0.001052	20.859022
453.123878	-2.980800	3.790800	-11.298000	23.335684	0.001054	20.864364
454.122964	-2.990400	3.790600	-11.334000	23.334461	0.001052	20.859819
455.119094	-3.013300	3.789200	-11.417000	23.327833	0.001053	20.857444
456.120442	-3.010000	3.788100	-11.401000	23.304731	0.001052	20.863214
457.118793	-3.000400	3.789000	-11.366000	23.346686	0.001054	20.861166
458.119085	-3.002700	3.789300	-11.377000	23.357391	0.001055	20.868576
459.124671	-2.989500	3.787600	-11.322000	23.396933	0.001054	20.857000
460.120374	-3.003200	3.789000	-11.378000	23.401492	0.001055	20.862992
461.126353	-2.979100	3.789500	-11.289000	23.376838	0.001055	20.889013
462.124635	-2.986700	3.789300	-11.316000	23.396657	0.001054	20.845343
463.123481	-2.991600	3.788300	-11.332000	23.399072	0.001055	20.866256
464.124904	-2.979700	3.787100	-11.283000	23.401236	0.001056	20.881700
465.124856	-3.003200	3.787100	-11.372000	23.401291	0.001057	20.867531
466.126108	-3.026300	3.786500	-11.459000	23.392550	0.001056	20.878684
467.126656	-3.010900	3.785900	-11.397000	23.389394	0.001056	20.864616
468.128261	-2.988300	3.786600	-11.314000	23.389988	0.001056	20.889391
469.136698	-3.008100	3.785100	-11.385000	23.399052	0.001059	20.883303
470.127305	-3.008600	3.784900	-11.387000	23.417375	0.001056	20.875591
471.126425	-3.002900	3.783400	-11.359000	23.446705	0.001056	20.887919
472.128413	-2.987400	3.785100	-11.307000	23.439559	0.001059	20.887868
473.129635	-3.008800	3.784600	-11.386000	23.445114	0.001057	20.889169
474.135016	-3.006100	3.782900	-11.370000	23.463165	0.001058	20.884503
475.126202	-3.019400	3.783700	-11.422000	23.425568	0.001058	20.892337
476.127942	-3.001300	3.784100	-11.356000	23.436876	0.001058	20.877593
477.128554	-3.020800	3.782100	-11.423000	23.460226	0.001058	20.888670
478.129992	-2.991800	3.784300	-11.321000	23.489333	0.001057	20.901249
479.133426	-3.003400	3.782900	-11.361000	23.499468	0.001057	20.891020
480.133513	-2.993500	3.782400	-11.321000	23.519234	0.001055	20.893764
481.132226	-3.006700	3.782600	-11.373000	23.534240	0.001056	20.907856
482.132931	-2.993000	3.781800	-11.317000	23.550000	0.001057	20.896155
483.131119	-3.013400	3.781500	-11.393000	23.557121	0.001058	20.896180
484.134549	-3.011900	3.781600	-11.389000	23.563244	0.001059	20.902792
485.128595	-3.013000	3.781100	-11.391000	23.559205	0.001057	20.898269
486.135435	-3.009400	3.780600	-11.376000	23.540012	0.001059	20.880454
487.129296	-2.984700	3.780800	-11.283000	23.538271	0.001057	20.886769
488.130336	-3.004600	3.780400	-11.357000	23.521490	0.001061	20.904558
489.129268	-2.982100	3.781100	-11.275000	23.510631	0.001059	20.878977
490.131038	-2.988900	3.780100	-11.297000	23.501362	0.001060	20.909513
491.130378	-2.997100	3.777900	-11.322000	23.502237	0.001059	20.913234
492.129289	-2.984000	3.779400	-11.277000	23.541946	0.001059	20.911787
493.130876	-3.010900	3.778100	-11.374000	23.521752	0.001060	20.903399
494.131285	-2.982600	3.778200	-11.267000	23.517621	0.001058	20.893095
495.136352	-2.995500	3.777500	-11.314000	23.524762	0.001062	20.909261
496.134790	-3.009000	3.777900	-11.367000	23.530267	0.001059	20.904822
497.135528	-3.014300	3.776500	-11.383000	23.532703	0.001060	20.911056
498.132850	-3.004800	3.776800	-11.348000	23.552619	0.001062	20.893565
499.132508	-2.996500	3.776400	-11.314000	23.548262	0.001062	20.908635
500.135652	-3.004400	3.777900	-11.349000	23.555402	0.001060	20.921482
501.133924	-3.008900	3.776100	-11.360000	23.573849	0.001062	20.903466
502.135939	-3.020600	3.776100	-11.405000	23.589010	0.001062	20.907284
503.133250	-3.002400	3.775300	-11.334000	23.580697	0.001061	20.907486
504.134785	-3.010400	3.776500	-11.368000	23.585871	0.001062	20.930213
505.133523	-3.010100	3.775400	-11.363000	23.603915	0.001061	20.889985
506.138809	-3.016700	3.772900	-11.381000	23.617460	0.001062	20.887917
507.135277	-2.998600	3.776200	-11.322000	23.624826	0.001063	20.914265
508.138492	-3.039100	3.772700	-11.465000	23.639790	0.001063	20.934480
509.136242	-3.011600	3.774000	-11.365000	23.645642	0.001061	20.915692
510.136853	-3.027000	3.773100	-11.420000	23.649572	0.001062	20.939544
511.137570	-3.009700	3.773800	-11.356000	23.654502	0.001063	20.925048
512.136523	-3.037400	3.772700	-11.458000	23.643126	0.001064	20.926919
513.140921	-3.005800	3.772000	-11.336000	23.668092	0.001064	20.902639
514.140531	-2.985300	3.773600	-11.261000	23.662040	0.001065	20.940190
515.144265	-2.996000	3.772300	-11.299000	23.638744	0.001066	20.913519
516.139834	-3.008600	3.772300	-11.348000	23.667766	0.001064	20.917957
517.142831	-2.999600	3.772000	-11.313000	23.672797	0.001066	20.925845
518.138113	-3.008000	3.770800	-11.341000	23.685863	0.001065	20.932306
519.137324	-3.042300	3.770800	-11.470000	23.645043	0.001067	20.916988
520.140731	-2.999400	3.772300	-11.313000	23.631825	0.001065	20.950675
521.138612	-3.004800	3.771200	-11.331000	23.611286	0.001066	20.929139
522.142576	-2.989500	3.771100	-11.273000	23.622139	0.001065	20.928165
523.139896	-2.979500	3.771300	-11.236000	23.630431	0.001064	20.923202
524.147076	-3.023700	3.768300	-11.394000	23.607749	0.001066	20.929860
525.140862	-3.016100	3.769100	-11.368000	23.609863	0.001065	20.930557
526.144087	-2.998900	3.769300	-11.302000	23.590395	0.001065	20.952763
527.145227	-2.997600	3.768100	-11.294000	23.595422	0.001065	20.944053
528.142082	-2.992000	3.770100	-11.279000	23.620289	0.001067	20.950015
529.145213	-2.998900	3.769600	-11.304000	23.650307	0.001067	20.928903
530.143461	-2.996800	3.767800	-11.290000	23.669000	0.001067	20.921091
531.144890	-3.002400	3.766900	-11.309000	23.674554	0.001068	20.939459
532.144426	-2.990100	3.768300	-11.265000	23.682318	0.001067	20.941078
533.150637	-3.018600	3.767400	-11.371000	23.677785	0.001065	20.930845
534.147841	-2.968700	3.768200	-11.185000	23.640819	0.001066	20.933614
535.145029	-2.991400	3.767600	-11.269000	23.608803	0.001067	20.938028
536.144639	-3.008100	3.765600	-11.326000	23.620929	0.001067	20.932641
537.145579	-3.018900	3.765800	-11.367000	23.606091	0.001067	20.940524
538.152134	-2.980200	3.765700	-11.221000	23.603972	0.001067	20.953098
539.149742	-3.011900	3.765200	-11.340000	23.612059	0.001066	20.946033
540.149501	-3.010200	3.764500	-11.330000	23.612934	0.001067	20.958288
541.153536	-3.019000	3.763000	-11.359000	23.625131	0.001067	20.973358
542.151390	-3.032400	3.764300	-11.414000	23.633363	0.001067	20.936097
543.154541	-3.005700	3.764300	-11.313000	23.665801	0.001066	20.933530
544.150970	-2.987400	3.763600	-11.241000	23.666672	0.001066	20.935351
545.153645	-2.992100	3.763400	-11.259000	23.680609	0.001067	20.928935
546.150577	-3.002100	3.763600	-11.297000	23.714288	0.001069	20.953215
547.152643	-2.997700	3.762400	-11.278000	23.716628	0.001069	20.932804
548.152664	-3.028000	3.761700	-11.389000	23.731485	0.001066	20.951490
549.154584	-3.020000	3.761300	-11.358000	23.709961	0.001067	20.941292
550.152150	-2.996900	3.762500	-11.275000	23.709504	0.001068	20.954108
551.154074	-3.004800	3.761100	-11.300000	23.704900	0.001068	20.941908
552.157514	-2.983700	3.761300	-11.222000	23.718268	0.001067	20.935871
553.154902	-3.009800	3.760000	-11.316000	23.737055	0.001069	20.950437
554.158941	-2.978700	3.761700	-11.203000	23.735737	0.001067	20.936315
555.154031	-2.980100	3.761000	-11.207000	23.726776	0.001068	20.925436
556.159484	-2.996600	3.760700	-11.268000	23.745246	0.001067	20.908393
557.153820	-2.981000	3.760200	-11.208000	23.739022	0.001068	20.923489
558.157320	-2.998900	3.759600	-11.273000	23.747288	0.001069	20.932250
559.161397	-3.016900	3.759600	-11.341000	23.732326	0.001069	20.925310
560.162235	-3.013000	3.758500	-11.323000	23.774294	0.001068	20.905276
561.159461	-3.000000	3.759300	-11.277000	23.786560	0.001068	20.921366
562.163094	-3.016600	3.758600	-11.337000	23.788105	0.001069	20.912958
563.161915	-3.000600	3.757100	-11.272000	23.782953	0.001070	20.941929
564.156989	-3.007300	3.758400	-11.301000	23.776156	0.001066	20.913780
565.162562	-2.990500	3.758200	-11.237000	23.795500	0.001069	20.911364
566.158171	-2.992600	3.758300	-11.246000	23.816206	0.001071	20.921219
567.161451	-2.992800	3.757200	-11.244000	23.821881	0.001069	20.911263
568.160363	-3.016600	3.757300	-11.333000	23.830610	0.001067	20.891094
569.160098	-3.015600	3.756200	-11.326000	23.819265	0.001068	20.910063
570.164738	-3.000700	3.757000	-11.273000	23.832933	0.001069	20.912862
571.160056	-3.014400	3.756200	-11.322000	23.855204	0.001068	20.910063
572.165947	-3.018400	3.755200	-11.333000	23.875638	0.001069	20.917275
573.165618	-2.977400	3.755500	-11.180000	23.864193	0.001069	20.913386
574.164727	-2.999100	3.754000	-11.257000	23.858565	0.001069	20.877874
575.167077	-3.013100	3.753000	-11.308000	23.840298	0.001069	20.911238
576.163418	-3.008000	3.753400	-11.289000	23.836566	0.001069	20.899910
577.174453	-2.980300	3.755400	-11.191000	23.828154	0.001068	20.909967
578.162979	-2.980100	3.754500	-11.187000	23.842818	0.001068	20.888162
579.166343	-3.029800	3.751500	-11.365000	23.838311	0.001069	20.916831
580.167860	-2.992200	3.754100	-11.232000	23.860762	0.001069	20.895249
581.168440	-3.008200	3.753600	-11.290000	23.871291	0.001069	20.903435
582.164632	-3.002900	3.754500	-11.272000	23.893244	0.001069	20.887042
583.167716	-3.020400	3.752800	-11.333000	23.869897	0.001068	20.906304
584.166015	-3.020000	3.752100	-11.330000	23.879234	0.001069	20.905709
585.164751	-2.988300	3.753300	-11.214000	23.874032	0.001070	20.918510
586.171623	-3.011200	3.751600	-11.295000	23.882690	0.001070	20.893529
587.171274	-2.979400	3.751800	-11.177000	23.896629	0.001069	20.917461
588.174235	-3.004400	3.750700	-11.268000	23.891674	0.001068	20.894951
589.170792	-2.995700	3.752100	-11.239000	23.882142	0.001069	20.883022
590.167259	-3.012000	3.749700	-11.293000	23.879003	0.001070	20.905478
591.173681	-3.005200	3.749300	-11.266000	23.862603	0.001069	20.897095
592.167103	-2.980100	3.749700	-11.174000	23.855807	0.001068	20.894548
593.167337	-3.007300	3.750200	-11.276000	23.847099	0.001069	20.891032
594.169894	-2.995500	3.748400	-11.228000	23.819944	0.001069	20.889882
595.170556	-2.992200	3.748900	-11.217000	23.838160	0.001069	20.893923
596.170115	-2.984500	3.749600	-11.189000	23.863248	0.001068	20.900111
597.168316	-3.012700	3.746800	-11.287000	23.889753	0.001069	20.900136
598.166442	-2.986100	3.748100	-11.191000	23.870215	0.001069	20.897615
599.179122	-3.004500	3.746800	-11.256000	23.858071	0.001070	20.888284
600.171719	-2.993900	3.747500	-11.219000	23.854937	0.001070	20.891779
601.170104	-2.993900	3.746800	-11.217000	23.858222	0.001068	20.880849
602.170835	-3.005300	3.746900	-11.259000	23.843906	0.001069	20.899683
603.167792	-2.965300	3.747300	-11.111000	23.869717	0.001068	20.879573
604.168776	-2.994100	3.746400	-11.216000	23.890327	0.001069	20.893600
605.168419	-2.992800	3.745400	-11.208000	23.909864	0.001069	20.895173
606.173884	-2.996600	3.745100	-11.221000	23.884903	0.001067	20.909497
607.171003	-3.015400	3.745500	-11.294000	23.937139	0.001067	20.856144
608.171288	-2.989600	3.745400	-11.197000	23.907847	0.001066	20.886987
609.170034	-2.990900	3.744800	-11.198000	23.928381	0.001069	20.885766
610.168269	-2.995500	3.744000	-11.213000	23.941323	0.001069	20.870771
611.171162	-3.016500	3.742700	-11.289000	23.929674	0.001068	20.876632
612.173282	-2.986400	3.743800	-11.179000	23.955901	0.001069	20.910042
613.171470	-3.028600	3.741600	-11.329000	23.973894	0.001067	20.883517
614.173696	-2.997100	3.742800	-11.216000	23.982254	0.001068	20.897590
615.176753	-2.991000	3.743300	-11.195000	23.996514	0.001066	20.873011
616.174394	-2.992900	3.742600	-11.200000	24.006024	0.001065	20.878281
617.174209	-3.015600	3.742000	-11.284000	24.001986	0.001067	20.880870
618.183898	-2.985700	3.741700	-11.171000	24.021769	0.001066	20.879372
619.175716	-2.992500	3.740900	-11.194000	24.039911	0.001066	20.892349
620.175318	-2.992200	3.740600	-11.191000	24.027447	0.001067	20.883169
621.174447	-3.016800	3.741300	-11.286000	24.042426	0.001065	20.883492
622.172786	-3.010900	3.740500	-11.262000	24.053843	0.001065	20.894942
623.173135	-3.003200	3.740400	-11.232000	24.084620	0.001067	20.873178
624.176737	-2.993500	3.739000	-11.192000	24.061579	0.001066	20.876623
625.173504	-2.974700	3.740300	-11.125000	24.071885	0.001067	20.868941
626.181324	-2.995900	3.739100	-11.201000	24.070064	0.001067	20.880391
627.180113	-3.001300	3.740300	-11.225000	24.074642	0.001065	20.868387
628.177120	-3.017700	3.738800	-11.282000	24.048140	0.001065	20.882111
629.186722	-2.977100	3.739900	-11.133000	24.005559	0.001065	20.868806
630.182230	-2.996800	3.738700	-11.203000	23.989709	0.001066	20.852438
631.183236	-3.006300	3.738300	-11.238000	23.985328	0.001064	20.859424
632.181387	-2.993700	3.737500	-11.187000	23.962629	0.001064	20.863687
633.179087	-3.003600	3.736800	-11.222000	23.947720	0.001065	20.857271
634.182356	-3.018400	3.736200	-11.276000	23.959469	0.001064	20.870950
635.178947	-2.996500	3.738000	-11.200000	23.971733	0.001064	20.879929
636.181335	-2.997400	3.737500	-11.202000	24.016923	0.001065	20.876408
637.180207	-2.993300	3.735900	-11.181000	24.029286	0.001064	20.876954
638.186227	-3.001400	3.734400	-11.208000	24.012014	0.001066	20.847780
639.183380	-2.998000	3.735600	-11.198000	23.986482	0.001064	20.863900
640.184845	-3.008500	3.736300	-11.239000	23.977197	0.001063	20.875451
641.187770	-2.984700	3.735500	-11.149000	23.966916	0.001063	20.872254
642.192639	-2.989700	3.735200	-11.166000	23.943668	0.001066	20.861743
643.187217	-3.006800	3.734700	-11.229000	23.938814	0.001064	20.874893
644.185278	-3.008300	3.733400	-11.229000	23.929650	0.001064	20.872815
645.195848	-3.008100	3.734300	-11.231000	23.914820	0.001062	20.876911
646.186431	-2.980900	3.735100	-11.133000	23.948760	0.001065	20.858315
647.186490	-2.997400	3.732900	-11.189000	23.956124	0.001062	20.900310
648.190583	-2.988400	3.732600	-11.154000	23.988719	0.001061	20.868514
649.187448	-3.014700	3.731800	-11.249000	23.997950	0.001063	20.860702
650.191196	-3.011200	3.731800	-11.236000	23.988539	0.001062	20.835144
651.194112	-2.968300	3.732900	-11.079000	23.987941	0.001062	20.850191
652.191956	-2.991800	3.733000	-11.166000	23.972605	0.001061	20.860416
653.189491	-2.995600	3.732800	-11.181000	23.981715	0.001060	20.838732
654.190990	-2.979200	3.733000	-11.120000	24.008112	0.001062	20.854298
655.187502	-2.996000	3.730700	-11.176000	24.015974	0.001061	20.851751
656.195003	-3.007200	3.729300	-11.214000	24.001212	0.001061	20.852120
657.191564	-3.021800	3.729600	-11.269000	24.010593	0.001062	20.829760
658.188026	-3.008700	3.730100	-11.221000	24.016957	0.001061	20.854633
659.193535	-3.011300	3.728500	-11.226000	24.025367	0.001063	20.859748
660.199044	-2.965700	3.730400	-11.062000	24.030513	0.001062	20.852581
661.192564	-3.004800	3.729600	-11.206000	24.060098	0.001060	20.850957
662.196064	-2.994600	3.729600	-11.167000	24.067909	0.001060	20.857842
663.194308	-2.975700	3.729300	-11.096000	24.120027	0.001058	20.853688
664.191075	-3.004000	3.727400	-11.196000	24.104848	0.001058	20.846052
665.195027	-2.992700	3.728800	-11.158000	24.138832	0.001060	20.842204
666.195453	-2.991200	3.727100	-11.147000	24.145848	0.001060	20.853982
667.194548	-3.021400	3.727300	-11.261000	24.168887	0.001060	20.841054
668.193713	-3.011100	3.726500	-11.220000	24.136635	0.001059	20.829096
669.197713	-2.993400	3.726400	-11.153000	24.108412	0.001058	20.850100
670.193645	-2.992500	3.727300	-11.153000	24.078355	0.001060	20.836077
671.196954	-2.991500	3.727200	-11.148000	24.084794	0.001059	20.847750
672.197554	-2.994500	3.726500	-11.159000	24.078945	0.001058	20.850419
673.202579	-3.014900	3.724500	-11.227000	24.057641	0.001060	20.836639
674.198444	-3.022500	3.725400	-11.259000	24.044549	0.001060	20.850062
675.193899	-3.000500	3.725200	-11.176000	24.021181	0.001060	20.857921
676.198393	-2.993600	3.724200	-11.148000	24.047950	0.001060	20.843990
677.202998	-2.985400	3.724900	-11.120000	24.054494	0.001059	20.850553
678.197867	-2.996900	3.724700	-11.160000	24.081911	0.001059	20.833005
679.198154	-3.008700	3.724000	-11.203000	24.050707	0.001058	20.827316
680.197618	-3.013100	3.723600	-11.218000	24.085220	0.001059	20.832057
681.195590	-3.008300	3.724200	-11.202000	24.105667	0.001059	20.832174
682.198207	-3.007500	3.723700	-11.197000	24.119577	0.001059	20.861298
683.200096	-3.005700	3.723500	-11.189000	24.153193	0.001057	20.840012
684.194586	-3.029000	3.722300	-11.273000	24.160134	0.001059	20.837491
685.195395	-2.999200	3.723200	-11.166000	24.161573	0.001057	20.829451
686.197764	-3.031800	3.721000	-11.281000	24.163685	0.001058	20.802647
687.204512	-3.000300	3.721100	-11.164000	24.157117	0.001057	20.821663
688.201366	-3.028300	3.720400	-11.265000	24.161443	0.001057	20.818416
689.198580	-3.006700	3.720800	-11.186000	24.156619	0.001057	20.830647
690.201366	-2.960000	3.722500	-11.017000	24.142930	0.001057	20.827823
691.198056	-3.001800	3.720800	-11.168000	24.127225	0.001057	20.808752
692.207621	-2.982900	3.719900	-11.095000	24.161982	0.001057	20.817060
693.203130	-2.996800	3.721500	-11.152000	24.161606	0.001056	20.828536
694.208253	-2.971500	3.720000	-11.052000	24.167651	0.001055	20.808995
695.201534	-3.001100	3.718600	-11.158000	24.185167	0.001055	20.824193
696.203602	-3.006600	3.719100	-11.181000	24.177424	0.001055	20.822590
697.204744	-2.994100	3.718300	-11.132000	24.194065	0.001054	20.817945
698.205401	-2.965200	3.719400	-11.028000	24.197822	0.001055	20.805592
699.211226	-3.010800	3.717700	-11.192000	24.166316	0.001054	20.813346
700.206339	-2.998900	3.719100	-11.152000	24.144716	0.001053	20.838623
701.207527	-2.993900	3.718800	-11.133000	24.157602	0.001054	20.814089
702.206589	-2.993200	3.718800	-11.130000	24.135575	0.001052	20.817601
703.209730	-3.005100	3.716900	-11.168000	24.148636	0.001055	20.811261
704.204785	-3.015200	3.718300	-11.210000	24.111682	0.001053	20.821612
705.209101	-2.987000	3.717000	-11.101000	24.105482	0.001055	20.797850
706.205512	-2.973600	3.718200	-11.055000	24.122275	0.001052	20.801417
707.210642	-3.004300	3.715800	-11.162000	24.089303	0.001053	20.814815
708.210180	-2.994700	3.716200	-11.127000	24.098528	0.001054	20.805101
709.210592	-3.014700	3.715500	-11.200000	24.126538	0.001053	20.800003
710.208823	-3.007500	3.715800	-11.175000	24.144704	0.001052	20.837188
711.211003	-2.993400	3.715000	-11.119000	24.125915	0.001052	20.811231
712.210588	-2.994100	3.714600	-11.120000	24.158334	0.001052	20.808659
713.214324	-2.977500	3.715700	-11.063000	24.120710	0.001053	20.826400
714.209656	-3.006400	3.713200	-11.163000	24.123020	0.001052	20.800267
715.212378	-2.999900	3.713300	-11.138000	24.111372	0.001052	20.778628
716.211092	-2.985400	3.714100	-11.087000	24.118183	0.001053	20.805848
717.209763	-3.023000	3.712300	-11.221000	24.100218	0.001053	20.806796
718.212083	-3.010200	3.711800	-11.171000	24.137119	0.001051	20.800183
719.209797	-3.011600	3.713700	-11.183000	24.152569	0.001051	20.804300
720.213035	-3.006200	3.711700	-11.157000	24.147143	0.001051	20.796961
721.216198	-2.995200	3.711700	-11.117000	24.156275	0.001051	20.797586
722.216313	-3.017000	3.712000	-11.198000	24.120443	0.001050	20.784880
723.216975	-2.980700	3.713300	-11.067000	24.086378	0.001051	20.805718
724.216671	-2.984500	3.713000	-11.080000	24.108222	0.001051	20.802970
725.220947	-3.011400	3.710500	-11.172000	24.147607	0.001049	20.808332
726.216471	-2.993500	3.711600	-11.109000	24.169433	0.001051	20.800825
727.214200	-3.019400	3.710200	-11.201000	24.184535	0.001050	20.793214
728.212665	-3.006300	3.712100	-11.158000	24.163358	0.001050	20.791414
729.218295	-2.995800	3.710300	-11.113000	24.161593	0.001050	20.791539
730.216747	-2.988300	3.710700	-11.088000	24.130663	0.001050	20.796554
731.222842	-3.001500	3.711000	-11.138000	24.101402	0.001049	20.799449
732.218604	-2.994900	3.709200	-11.107000	24.095779	0.001048	20.792387
733.215544	-2.991000	3.708500	-11.092000	24.101227	0.001048	20.800695
734.216937	-3.003100	3.708300	-11.136000	24.126731	0.001047	20.796877
735.223646	-3.005500	3.707900	-11.143000	24.108916	0.001049	20.783752
736.217896	-2.996600	3.706900	-11.107000	24.138700	0.001048	20.793235
737.221899	-2.986200	3.707400	-11.070000	24.120535	0.001049	20.785447
738.221024	-3.007100	3.706400	-11.144000	24.102691	0.001049	20.799793
739.216367	-3.007600	3.705600	-11.144000	24.119589	0.001046	20.794930
740.220962	-2.999200	3.706700	-11.115000	24.096223	0.001047	20.786194
741.220315	-3.042600	3.705700	-11.274000	24.125308	0.001047	20.807304
742.218964	-2.993000	3.707000	-11.094000	24.107268	0.001048	20.793952
743.218515	-2.976200	3.707600	-11.033000	24.136060	0.001047	20.801967
744.218584	-3.013500	3.705900	-11.167000	24.172060	0.001049	20.777856
745.221194	-3.007700	3.706300	-11.146000	24.207264	0.001046	20.772389
746.221660	-2.995700	3.705600	-11.099000	24.204950	0.001044	20.792828
747.216486	-3.016600	3.703700	-11.172000	24.219751	0.001046	20.780647
748.222838	-2.982800	3.704800	-11.049000	24.241567	0.001046	20.785934
749.217378	-2.996600	3.704900	-11.102000	24.252042	0.001047	20.792173
750.219722	-2.993800	3.704900	-11.091000	24.282244	0.001046	20.778372
751.231398	-3.014900	3.704400	-11.167000	24.253882	0.001044	20.784536
752.222409	-2.980200	3.705100	-11.041000	24.248976	0.001044	20.784356
753.227235	-2.990400	3.703200	-11.073000	24.266118	0.001045	20.762196
754.224555	-2.996300	3.704500	-11.099000	24.279898	0.001047	20.777915
755.223341	-3.013000	3.702000	-11.152000	24.281989	0.001046	20.789970
756.226258	-2.992800	3.703200	-11.081000	24.287636	0.001045	20.803222
757.232834	-2.998100	3.703500	-11.102000	24.308501	0.001045	20.766304
758.220786	-3.018400	3.702100	-11.174000	24.317708	0.001043	20.786920
759.222535	-2.982300	3.702200	-11.040000	24.311739	0.001043	20.799898
760.224638	-2.993900	3.702100	-11.083000	24.312781	0.001043	20.774390
761.226810	-3.003600	3.701300	-11.116000	24.351217	0.001044	20.783550
762.225271	-3.003000	3.701500	-11.114000	24.357337	0.001043	20.784948
763.225712	-3.011300	3.700300	-11.142000	24.376490	0.001044	20.794679
764.228281	-3.010600	3.699400	-11.136000	24.383730	0.001041	20.780131
765.226311	-3.007700	3.699900	-11.127000	24.387954	0.001041	20.790533
766.224496	-2.982700	3.700100	-11.035000	24.400318	0.001042	20.792031
767.226845	-2.999500	3.699700	-11.096000	24.432282	0.001043	20.770043
768.227873	-2.988900	3.698600	-11.053000	24.421784	0.001043	20.785590
769.229296	-2.989100	3.699100	-11.056000	24.447527	0.001043	20.781071
770.228297	-3.008600	3.698400	-11.126000	24.436853	0.001042	20.782690
771.228966	-3.021400	3.698800	-11.174000	24.439639	0.001041	20.787856
772.229158	-2.996200	3.699000	-11.082000	24.451454	0.001039	20.791649
773.231023	-2.984100	3.699700	-11.038000	24.454290	0.001041	20.790227
774.228420	-3.001100	3.697100	-11.095000	24.450706	0.001040	20.779992
775.231003	-3.020300	3.697000	-11.165000	24.448916	0.001041	20.786731
776.230312	-3.003100	3.697300	-11.101000	24.440187	0.001040	20.780819
777.229210	-2.983500	3.697100	-11.029000	24.444612	0.001039	20.773405
778.233523	-2.974300	3.696500	-10.993000	24.461952	0.001040	20.796966
779.230558	-3.005500	3.697300	-11.111000	24.433491	0.001041	20.771256
780.229448	-2.988400	3.696900	-11.047000	24.435582	0.001040	20.799433
781.227664	-2.977200	3.695100	-10.999000	24.428250	0.001038	20.788758
782.230891	-2.993200	3.695800	-11.061000	24.426154	0.001038	20.790449
783.231702	-3.007600	3.695700	-11.113000	24.413992	0.001040	20.783937
784.229993	-2.988000	3.695200	-11.040000	24.412055	0.001039	20.772511
785.235793	-2.972400	3.695000	-10.981000	24.385437	0.001038	20.777101
786.233175	-2.999900	3.694300	-11.082000	24.374415	0.001039	20.759406
787.233446	-3.000500	3.695300	-11.086000	24.377004	0.001038	20.783341
788.232820	-3.005900	3.693200	-11.099000	24.380685	0.001037	20.791775
789.232072	-3.013400	3.694600	-11.132000	24.398620	0.001037	20.786534
790.232837	-3.019800	3.692100	-11.148000	24.401209	0.001039	20.784864
791.232190	-3.002000	3.693000	-11.086000	24.390908	0.001036	20.776900
792.232650	-2.987700	3.692300	-11.030000	24.386131	0.001038	20.795342
793.232343	-2.997300	3.692400	-11.065000	24.390435	0.001039	20.797763
794.237058	-2.998600	3.692200	-11.070000	24.400557	0.001037	20.800805
795.233857	-2.994900	3.691600	-11.055000	24.429066	0.001035	20.784835
796.236248	-3.004900	3.692000	-11.093000	24.445858	0.001035	20.796466
797.235637	-2.992500	3.691200	-11.044000	24.486503	0.001036	20.792673
798.237216	-3.005300	3.690500	-11.091000	24.489138	0.001034	20.795317
799.236814	-2.993200	3.690600	-11.045000	24.483395	0.001033	20.808521
800.236472	-3.015300	3.690300	-11.127000	24.473592	0.001034	20.779245
801.236927	-2.991400	3.690400	-11.038000	24.465110	0.001035	20.799659
802.241184	-3.018000	3.689600	-11.135000	24.438740	0.001033	20.793118
803.238731	-3.027700	3.688700	-11.167000	24.421575	0.001034	20.783958
804.241036	-2.987000	3.689200	-11.018000	24.411403	0.001033	20.815953
805.238480	-2.979300	3.689400	-10.989000	24.403393	0.001035	20.813607
806.243984	-2.967900	3.689600	-10.950000	24.397646	0.001032	20.795040
807.238569	-2.965100	3.690200	-10.942000	24.444386	0.001032	20.803998
808.236677	-3.001300	3.688600	-11.069000	24.461743	0.001033	20.787747
809.239448	-2.996000	3.687800	-11.047000	24.433637	0.001033	20.787999
810.239479	-3.004600	3.688600	-11.081000	24.407960	0.001031	20.784050
811.240378	-3.002100	3.687200	-11.069000	24.403159	0.001031	20.780656
812.237821	-2.992000	3.686900	-11.030000	24.390669	0.001032	20.797050
813.242322	-2.991300	3.687500	-11.030000	24.390870	0.001029	20.788242
814.239333	-2.998500	3.686200	-11.052000	24.436519	0.001030	20.802744
815.245704	-3.028500	3.685800	-11.161000	24.435168	0.001031	20.811346
816.243231	-3.001000	3.686400	-11.061000	24.428401	0.001030	20.789384
817.242007	-2.998900	3.686200	-11.054000	24.431237	0.001031	20.813091
818.242336	-2.993900	3.685600	-11.033000	24.480761	0.001029	20.807775
819.243290	-3.016000	3.684600	-11.111000	24.465533	0.001028	20.786807
820.248034	-2.990100	3.686500	-11.022000	24.477495	0.001028	20.804024
821.240370	-3.008300	3.685100	-11.085000	24.466574	0.001029	20.785956
822.241404	-3.015500	3.685100	-11.111000	24.507243	0.001029	20.808266
823.244469	-2.999300	3.684400	-11.049000	24.521120	0.001028	20.819344
824.245621	-3.005300	3.684000	-11.070000	24.523805	0.001027	20.766561
825.247031	-3.018500	3.684400	-11.120000	24.552134	0.001030	20.821538
826.244633	-2.992700	3.683700	-11.024000	24.519493	0.001027	20.812022
827.241379	-2.980300	3.684300	-10.979000	24.531462	0.001026	20.818815
828.244859	-3.022200	3.683900	-11.132000	24.497357	0.001025	20.809727
829.241511	-3.010700	3.682000	-11.084000	24.462781	0.001027	20.804436
830.244986	-3.021600	3.682100	-11.125000	24.444847	0.001027	20.801616
831.251032	-3.002200	3.683100	-11.057000	24.440594	0.001025	20.800193
832.246906	-3.012800	3.682000	-11.091000	24.461410	0.001025	20.810172
833.252462	-3.014000	3.682200	-11.097000	24.472802	0.001023	20.800739
834.247339	-2.990200	3.682300	-11.010000	24.465387	0.001025	20.820326
835.247408	-3.009300	3.681400	-11.077000	24.483125	0.001026	20.809672
836.254306	-3.009800	3.680700	-11.077000	24.497520	0.001023	20.811787
837.245414	-3.012100	3.680400	-11.085000	24.498097	0.001023	20.810470
838.254451	-3.021100	3.679300	-11.114000	24.511823	0.001023	20.798163
839.244135	-2.981600	3.682300	-10.978000	24.505801	0.001021	20.797336
840.247744	-2.997200	3.680800	-11.032000	24.461130	0.001022	20.800882
841.245908	-3.018500	3.680200	-11.108000	24.456299	0.001021	20.792242
842.252266	-3.001900	3.679800	-11.046000	24.488194	0.001022	20.816655
843.249739	-2.998600	3.679600	-11.033000	24.516269	0.001019	20.814477
844.248324	-2.980800	3.680000	-10.968000	24.482171	0.001020	20.802078
845.247684	-2.991200	3.679700	-11.006000	24.471648	0.001021	20.811435
846.246531	-3.000000	3.678100	-11.031000	24.446818	0.001020	20.828723
847.249995	-3.004400	3.679500	-11.054000	24.439979	0.001020	20.810008
848.245883	-2.994100	3.678100	-11.012000	24.448215	0.001020	20.821589
849.247704	-2.975900	3.678300	-10.946000	24.461816	0.001021	20.812476
850.247438	-2.998500	3.677200	-11.024000	24.461021	0.001021	20.804566
851.247766	-3.003100	3.676800	-11.041000	24.481640	0.001019	20.812925
852.247952	-3.000800	3.677000	-11.033000	24.482335	0.001019	20.799871
853.248825	-3.031000	3.675900	-11.140000	24.512581	0.001018	20.811725
854.248848	-3.001700	3.677700	-11.039000	24.521284	0.001019	20.828043
855.248588	-2.993500	3.676700	-11.005000	24.492603	0.001020	20.811121
856.247204	-3.020600	3.674900	-11.099000	24.480666	0.001019	20.802938
857.246243	-3.007500	3.676100	-11.055000	24.505141	0.001020	20.812321
858.250407	-3.008900	3.676300	-11.061000	24.497031	0.001018	20.822676
859.248954	-3.006300	3.674600	-11.047000	24.482452	0.001018	20.839817
860.250320	-2.986300	3.674100	-10.971000	24.503840	0.001017	20.800585
861.248831	-2.984900	3.675400	-10.969000	24.515559	0.001018	20.813764
862.250538	-2.996900	3.674900	-11.011000	24.514463	0.001017	20.824044
863.253942	-3.021300	3.673100	-11.097000	24.501528	0.001018	20.813911
864.249521	-3.010300	3.673900	-11.058000	24.471754	0.001017	20.834774
865.253915	-3.010600	3.674000	-11.060000	24.467500	0.001013	20.815808
866.251433	-2.999300	3.672600	-11.014000	24.487622	0.001015	20.808494
867.253538	-2.982200	3.674900	-10.957000	24.469362	0.001014	20.822417
868.255223	-2.988200	3.674500	-10.978000	24.505677	0.001014	20.819970
869.257211	-3.014800	3.672200	-11.067000	24.522418	0.001016	20.820646
870.251146	-2.984600	3.673300	-10.962000	24.541965	0.001015	20.827456
871.262251	-2.999200	3.673100	-11.015000	24.549330	0.001015	20.810190
872.255243	-3.007400	3.671600	-11.041000	24.553976	0.001016	20.848990
873.252392	-2.993900	3.673700	-10.997000	24.563675	0.001016	20.835961
874.266979	-2.997000	3.672700	-11.005000	24.564323	0.001014	20.824284
875.255147	-2.980700	3.671200	-10.941000	24.535496	0.001012	20.820017
876.264107	-3.011400	3.669300	-11.048000	24.534124	0.001011	20.844244
877.257655	-2.999600	3.671200	-11.012000	24.511620	0.001011	20.855804
878.258507	-3.015200	3.671200	-11.068000	24.508876	0.001012	20.834560
879.260736	-3.006700	3.669600	-11.032000	24.540485	0.001013	20.833558
880.261980	-3.011600	3.669500	-11.050000	24.540690	0.001011	20.835659
881.259164	-3.000200	3.668900	-11.007000	24.539293	0.001011	20.827620
882.255408	-2.997400	3.669200	-10.996000	24.561680	0.001011	20.838227
883.259068	-3.005900	3.669200	-11.028000	24.569237	0.001009	20.835853
884.257030	-3.017700	3.668400	-11.069000	24.584162	0.001009	20.829492
885.260788	-3.015600	3.668100	-11.061000	24.578864	0.001014	20.856417
886.258869	-3.009300	3.669400	-11.041000	24.550109	0.001011	20.837523
887.256532	-3.023000	3.667500	-11.086000	24.521160	0.001010	20.839298
888.258879	-2.972700	3.668000	-10.903000	24.482930	0.001010	20.846460
889.260561	-2.998200	3.668200	-10.997000	24.472783	0.001009	20.848134
890.264634	-3.017700	3.666600	-11.063000	24.462980	0.001009	20.851575
891.256320	-2.977000	3.666600	-10.915000	24.496460	0.001008	20.851499
892.263018	-3.024400	3.666100	-11.086000	24.523201	0.001007	20.826173
893.259644	-3.008100	3.666600	-11.028000	24.512975	0.001009	20.859060
894.259698	-3.019200	3.665100	-11.064000	24.530243	0.001008	20.830868
895.259838	-3.004000	3.666200	-11.012000	24.503724	0.001008	20.844089
896.262627	-3.009500	3.665300	-11.029000	24.517329	0.001007	20.861057
897.261589	-2.999600	3.664900	-10.991000	24.548971	0.001008	20.860562
898.263080	-2.990000	3.664700	-10.957000	24.570709	0.001006	20.844442
899.262475	-2.988700	3.666200	-10.956000	24.572269	0.001006	20.853593
900.258700	-2.984800	3.664900	-10.938000	24.602391	0.001005	20.866273
901.262336	-3.016300	3.663600	-11.050000	24.568961	0.001004	20.877299
902.263722	-2.976600	3.665000	-10.908000	24.557870	0.001006	20.869017
903.263372	-2.982300	3.664800	-10.929000	24.532870	0.001003	20.861951
904.260099	-2.997900	3.663400	-10.981000	24.526576	0.001003	20.858955
905.259828	-3.009800	3.663400	-11.026000	24.494361	0.001003	20.847023
906.263757	-3.016500	3.661500	-11.045000	24.463470	0.001004	20.858230
907.263759	-2.986000	3.663600	-10.939000	24.447275	0.001000	20.857630
908.263974	-3.011900	3.661600	-11.027000	24.482517	0.001000	20.871648
909.259564	-3.017900	3.663200	-11.055000	24.519751	0.001001	20.867280
910.261572	-2.987200	3.663800	-10.943000	24.526614	0.001002	20.850934
911.261868	-2.980100	3.662000	-10.912000	24.530219	0.001001	20.864981
912.262136	-3.008300	3.661900	-11.015000	24.513725	0.001000	20.861235
913.260763	-2.972800	3.662300	-10.886000	24.495963	0.000999	20.865225
914.266674	-2.996700	3.660400	-10.968000	24.485290	0.001000	20.873482
915.266210	-3.003100	3.660100	-10.990000	24.460020	0.001001	20.871838
916.266041	-2.993300	3.661400	-10.958000	24.458021	0.000998	20.871255
917.267972	-2.977100	3.661100	-10.897000	24.442253	0.000999	20.859230
918.263788	-3.003300	3.660400	-10.993000	24.418794	0.000997	20.889271
919.267929	-2.995300	3.659300	-10.959000	24.462501	0.000999	20.870533
920.277966	-3.010500	3.658400	-11.013000	24.460656	0.000997	20.866786
921.273038	-3.010400	3.659300	-11.016000	24.510154	0.000997	20.860971
922.267787	-3.022900	3.660000	-11.062000	24.531772	0.000996	20.881711
923.269983	-3.000500	3.659500	-10.980000	24.546790	0.000996	20.869753
924.267906	-2.998000	3.658000	-10.966000	24.553331	0.000995	20.881056
925.266550	-3.004800	3.658200	-10.991000	24.536511	0.000996	20.870345
926.268031	-2.992000	3.656700	-10.940000	24.527109	0.000995	20.881300
927.266160	-3.006300	3.657200	-10.994000	24.501840	0.000995	20.885345
928.280037	-3.008100	3.657200	-11.001000	24.516788	0.000994	20.867152
929.267771	-3.028500	3.656100	-11.071000	24.548200	0.000993	20.866900
930.272899	-2.999500	3.656500	-10.967000	24.524445	0.000994	20.881947
931.266600	-3.000300	3.656600	-10.970000	24.569959	0.000993	20.885886
932.267839	-2.970000	3.658200	-10.864000	24.602917	0.000993	20.890506
933.272729	-2.999600	3.656100	-10.966000	24.607538	0.000993	20.892298
934.268631	-2.986900	3.656900	-10.921000	24.655633	0.000992	20.878444
935.269066	-3.015600	3.653400	-11.015000	24.615618	0.000992	20.888551
936.266630	-2.996500	3.656100	-10.954000	24.625340	0.000991	20.878393
937.271538	-2.969600	3.655200	-10.852000	24.651874	0.000991	20.881784
938.269537	-2.998000	3.654600	-10.955000	24.656946	0.000990	20.869331
939.269785	-2.992900	3.653500	-10.932000	24.657716	0.000994	20.879111
940.268531	-3.000800	3.652400	-10.959000	24.655303	0.000991	20.881906
941.273371	-2.995300	3.653600	-10.942000	24.647742	0.000989	20.895655
942.269046	-2.989100	3.652600	-10.917000	24.620038	0.000990	20.888719
943.266994	-3.011300	3.652200	-10.997000	24.655177	0.000989	20.895055
944.272068	-2.994900	3.653200	-10.939000	24.671565	0.000988	20.905809
945.267950	-3.001800	3.652900	-10.964000	24.689797	0.000992	20.917938
946.271296	-2.990400	3.653600	-10.924000	24.691118	0.000987	20.887972
947.270191	-3.001700	3.652400	-10.963000	24.711185	0.000990	20.891988
948.270219	-2.998200	3.651700	-10.948000	24.714468	0.000986	20.889118
949.274038	-2.982900	3.653100	-10.894000	24.668956	0.000987	20.894656
950.275210	-3.007000	3.651400	-10.979000	24.667066	0.000988	20.897501
951.272011	-3.034400	3.650100	-11.075000	24.680522	0.000986	20.886823
952.269828	-3.022700	3.651900	-11.038000	24.652146	0.000986	20.913348
953.273085	-3.004000	3.649800	-10.962000	24.650778	0.000988	20.885900
954.271759	-3.017100	3.649500	-11.010000	24.647671	0.000988	20.897006
955.277921	-3.006500	3.649700	-10.971000	24.673309	0.000987	20.918937
956.274716	-2.995800	3.651300	-10.937000	24.696462	0.000985	20.917514
957.275048	-3.004000	3.648300	-10.958000	24.700539	0.000987	20.887469
958.277707	-2.987500	3.650700	-10.906000	24.730608	0.000986	20.906262
959.277584	-2.998700	3.649400	-10.943000	24.747718	0.000987	20.906836
960.276006	-3.003900	3.649800	-10.963000	24.752095	0.000985	20.899850
961.274216	-2.976500	3.650200	-10.864000	24.717127	0.000985	20.915966
962.273540	-2.974200	3.650800	-10.858000	24.736052	0.000985	20.924525
963.275293	-3.005000	3.647300	-10.958000	24.737917	0.000982	20.896054
964.277160	-2.992700	3.647700	-10.915000	24.737198	0.000983	20.912400
965.275620	-2.985700	3.648900	-10.894000	24.713870	0.000983	20.896104
966.276506	-2.993200	3.646800	-10.915000	24.694647	0.000981	20.905737
967.277694	-3.002000	3.647100	-10.946000	24.690073	0.000980	20.894509
968.277122	-3.011400	3.645100	-10.976000	24.698699	0.000981	20.924026
969.279418	-2.988100	3.646900	-10.895000	24.669056	0.000981	20.902343
970.274844	-3.031800	3.645500	-11.051000	24.621384	0.000981	20.905716
971.281260	-2.996900	3.646800	-10.928000	24.627875	0.000981	20.913176
972.281758	-3.013800	3.645100	-10.985000	24.624195	0.000981	20.917543
973.278581	-2.975000	3.647600	-10.850000	24.625165	0.000981	20.918043
974.278470	-3.018400	3.645100	-11.002000	24.652622	0.000979	20.925679
975.276179	-2.988800	3.645400	-10.894000	24.641285	0.000980	20.911934
976.280482	-3.003400	3.644700	-10.946000	24.651183	0.000981	20.915701
977.282176	-2.999700	3.644300	-10.931000	24.657548	0.000980	20.909760
978.277226	-3.017900	3.643400	-10.994000	24.636656	0.000979	20.903022
979.277815	-3.004200	3.643100	-10.944000	24.670202	0.000977	20.915345
980.280759	-2.994300	3.644200	-10.910000	24.683984	0.000977	20.936285
981.278327	-2.973000	3.643500	-10.831000	24.718620	0.000976	20.914145
982.297283	-2.983800	3.642300	-10.867000	24.727100	0.000976	20.926447
983.286249	-2.996800	3.642900	-10.916000	24.731975	0.000978	20.916642
984.282514	-3.002400	3.642400	-10.935000	24.750850	0.000976	20.934632
985.280791	-2.991300	3.641400	-10.891000	24.721505	0.000976	20.914196
986.281022	-3.010500	3.642200	-10.963000	24.698724	0.000976	20.910776
987.285036	-3.007500	3.641300	-10.951000	24.695241	0.000975	20.922927
988.280267	-3.007600	3.640800	-10.949000	24.710633	0.000977	20.927941
989.281082	-3.002300	3.642300	-10.933000	24.722124	0.000974	20.929514
990.282767	-2.994200	3.641200	-10.901000	24.749303	0.000973	20.944459
991.282196	-3.004700	3.639600	-10.935000	24.754626	0.000973	20.924198
992.282920	-3.019600	3.639100	-10.987000	24.750767	0.000974	20.910844
993.282420	-3.019300	3.639000	-10.986000	24.741593	0.000974	20.909224
994.282357	-3.013600	3.639600	-10.966000	24.758845	0.000973	20.913735
995.280384	-2.996700	3.640400	-10.907000	24.768617	0.000971	20.897938
996.282278	-2.999000	3.639900	-10.915000	24.776603	0.000970	20.913538
997.281149	-3.000900	3.638200	-10.917000	24.767593	0.000971	20.921564
998.282467	-2.996700	3.637400	-10.899000	24.793675	0.000970	20.907912
999.285460	-3.008800	3.637100	-10.941000	24.773555	0.000970	20.891990
1000.282360	-2.963100	3.639600	-10.783000	24.787358	0.000970	20.911055
1001.281495	-2.997800	3.637000	-10.902000	24.828508	0.000970	20.904464
1002.284984	-2.985000	3.637600	-10.857000	24.822588	0.000969	20.913220
1003.288773	-2.982100	3.638000	-10.847000	24.783817	0.000968	20.910820
1004.284566	-2.992600	3.637000	-10.882000	24.777349	0.000969	20.900063
1005.286008	-2.992900	3.637800	-10.886000	24.731790	0.000969	20.896069
1006.281701	-2.979500	3.637400	-10.836000	24.744568	0.000968	20.891823
1007.287626	-3.021800	3.636200	-10.986000	24.721065	0.000967	20.899057
1008.292546	-2.995400	3.635300	-10.888000	24.769430	0.000968	20.895910
1009.287516	-2.997400	3.634900	-10.894000	24.797181	0.000967	20.900051
1010.290111	-3.013000	3.634700	-10.950000	24.783379	0.000967	20.894736
1011.287915	-2.996600	3.634600	-10.891000	24.762937	0.000966	20.888920
1012.287480	-3.000200	3.633900	-10.901000	24.768628	0.000964	20.884675
1013.289456	-2.982800	3.635300	-10.842000	24.777032	0.000967	20.888367
1014.288510	-2.990400	3.633100	-10.863000	24.770188	0.000965	20.859689
1015.285716	-3.013500	3.632600	-10.945000	24.754124	0.000966	20.876284
1016.286966	-2.995800	3.633700	-10.885000	24.789184	0.000965	20.864527
1017.286470	-2.995000	3.633800	-10.881000	24.800523	0.000964	20.877803
1018.287044	-2.993100	3.632500	-10.871000	24.839114	0.000965	20.897091
1019.297012	-2.996000	3.632500	-10.882000	24.839282	0.000965	20.873553
1020.290368	-2.994600	3.632200	-10.876000	24.818147	0.000964	20.861826
1021.290478	-2.989300	3.634700	-10.863000	24.829085	0.000962	20.872328
1022.290771	-2.987800	3.633600	-10.855000	24.829582	0.000961	20.880888
1023.290386	-2.990200	3.632100	-10.861000	24.812423	0.000964	20.875047
1024.288684	-2.999500	3.632200	-10.893000	24.826597	0.000963	20.879788
1025.293484	-3.004100	3.630900	-10.906000	24.802920	0.000963	20.894432
1026.289519	-2.987800	3.631300	-10.848000	24.795987	0.000960	20.866614
1027.292762	-2.995900	3.630300	-10.875000	24.811077	0.000963	20.859947
1028.293466	-2.986500	3.630600	-10.842000	24.805583	0.000961	20.878140
1029.295150	-2.986500	3.631200	-10.844000	24.788596	0.000960	20.875316
1030.302499	-2.994000	3.629700	-10.865000	24.780890	0.000960	20.886548
1031.296289	-3.030200	3.628600	-10.994000	24.766586	0.000958	20.863661
1032.297898	-2.998400	3.628300	-10.878000	24.753929	0.000959	20.864235
1033.295664	-3.002900	3.628100	-10.894000	24.776687	0.000958	20.872849
1034.300904	-3.021000	3.627900	-10.959000	24.801256	0.000959	20.881857
1035.293070	-3.005600	3.628300	-10.905000	24.821095	0.000959	20.860044
1036.299407	-2.973800	3.629700	-10.793000	24.853963	0.000957	20.860787
1037.296624	-2.994600	3.627900	-10.864000	24.880448	0.000959	20.857971
1038.294749	-2.991000	3.626900	-10.847000	24.900436	0.000958	20.866652
1039.296831	-3.004100	3.627100	-10.894000	24.884997	0.000955	20.863959
1040.298778	-3.009900	3.626500	-10.915000	24.874081	0.000955	20.856322
1041.297630	-2.997200	3.627900	-10.873000	24.868834	0.000956	20.865280
1042.296649	-3.019700	3.625300	-10.946000	24.847051	0.000954	20.865704
1043.297095	-2.988200	3.627300	-10.838000	24.853937	0.000956	20.859339
1044.294984	-3.008600	3.625200	-10.905000	24.854059	0.000954	20.865151
1045.297239	-2.994000	3.625600	-10.853000	24.834320	0.000953	20.876160
1046.299024	-3.003500	3.625000	-10.885000	24.816811	0.000954	20.851002
1047.300545	-2.988200	3.624100	-10.828000	24.795153	0.000954	20.849181
1048.297810	-2.969100	3.625700	-10.763000	24.770383	0.000953	20.857040
1049.297937	-3.003700	3.625200	-10.889000	24.772721	0.000953	20.842791
1050.298075	-3.018800	3.624800	-10.941000	24.797285	0.000951	20.845632
1051.297172	-3.024900	3.623400	-10.960000	24.834066	0.000949	20.852673
1052.298510	-2.994000	3.622800	-10.845000	24.878049	0.000951	20.847978
1053.298934	-2.985900	3.623000	-10.816000	24.875440	0.000951	20.860057
1054.301673	-2.997400	3.622100	-10.857000	24.876707	0.000950	20.863699
1055.294770	-3.003200	3.622300	-10.878000	24.889162	0.000949	20.841588
1056.301595	-2.990000	3.622700	-10.830000	24.860047	0.000950	20.857410
1057.298630	-2.997900	3.620700	-10.853000	24.888790	0.000949	20.874877
1058.297976	-2.999500	3.622000	-10.862000	24.907461	0.000948	20.855212
1059.297863	-2.979300	3.620800	-10.785000	24.888861	0.000946	20.853613
1060.297833	-2.997100	3.620300	-10.850000	24.895253	0.000947	20.845804
1061.300656	-3.007900	3.619900	-10.887000	24.880658	0.000947	20.859605
1062.295087	-2.971700	3.622300	-10.764000	24.898335	0.000947	20.857905
1063.301719	-3.006400	3.619600	-10.881000	24.916888	0.000948	20.845234
1064.299970	-2.973700	3.620900	-10.766000	24.922954	0.000947	20.850848
1065.298991	-3.010200	3.619700	-10.895000	24.940212	0.000945	20.846832
1066.300890	-3.008600	3.619300	-10.888000	24.917733	0.000946	20.852719
1067.305088	-2.979600	3.621700	-10.790000	24.894638	0.000945	20.860359
1068.300287	-3.002400	3.619400	-10.866000	24.848536	0.000947	20.836376
1069.300816	-3.009500	3.617900	-10.887000	24.859206	0.000944	20.848032
1070.299474	-2.997900	3.618200	-10.845000	24.845948	0.000944	20.848951
1071.296452	-3.013500	3.617500	-10.900000	24.808478	0.000944	20.851175
1072.299430	-3.005200	3.618100	-10.872000	24.855623	0.000943	20.859608
1073.299624	-3.004600	3.615900	-10.863000	24.866414	0.000942	20.848628
1074.304298	-3.007100	3.615900	-10.872000	24.881929	0.000943	20.834328
1075.301682	-2.996900	3.616900	-10.838000	24.848637	0.000944	20.826520
1076.302680	-2.981300	3.619000	-10.789000	24.868429	0.000943	20.850650
1077.306562	-2.996700	3.618600	-10.842000	24.922733	0.000941	20.859634
1078.301785	-2.987700	3.616400	-10.804000	24.951997	0.000940	20.837324
1079.301072	-3.010600	3.615300	-10.883000	24.978426	0.000939	20.854842
1080.298765	-2.993100	3.616700	-10.825000	24.992200	0.000941	20.850650
1081.306169	-3.007000	3.616100	-10.872000	24.955429	0.000940	20.850726
1082.304554	-2.993100	3.614800	-10.819000	24.930764	0.000940	20.848729
1083.305644	-3.002500	3.614200	-10.851000	24.933870	0.000940	20.837622
1084.299501	-2.999900	3.613700	-10.840000	24.958610	0.000940	20.844436
1085.303475	-2.980800	3.613700	-10.770000	24.965650	0.000935	20.849605
1086.302459	-2.975600	3.614000	-10.753000	24.990411	0.000936	20.834156
1087.301160	-3.011300	3.612700	-10.877000	24.977556	0.000937	20.849702
1088.306927	-3.012900	3.612300	-10.883000	24.969726	0.000936	20.842791
1089.302710	-2.987300	3.614800	-10.796000	24.948447	0.000935	20.858416
1090.300965	-2.999200	3.613500	-10.837000	24.961549	0.000935	20.851653
1091.304495	-3.023600	3.611900	-10.920000	24.984595	0.000935	20.852026
1092.306080	-2.975700	3.612800	-10.748000	24.982208	0.000934	20.831139
1093.307205	-2.979100	3.612900	-10.763000	25.003766	0.000934	20.845191
1094.309241	-3.003700	3.610400	-10.843000	25.015346	0.000936	20.831211
1095.306809	-3.002300	3.611100	-10.839000	25.058665	0.000935	20.824433
1096.305790	-3.002100	3.610000	-10.837000	25.042479	0.000933	20.814825
1097.306242	-3.021800	3.610700	-10.910000	25.006977	0.000933	20.837034
1098.305059	-3.004300	3.609700	-10.843000	25.001634	0.000932	20.826930
1099.313731	-3.004200	3.610600	-10.846000	24.963965	0.000933	20.828948
1100.308738	-3.015900	3.610300	-10.885000	24.951808	0.000930	20.836660
1101.311065	-3.019900	3.609300	-10.899000	24.966774	0.000929	20.848837
1102.306069	-3.010000	3.607500	-10.856000	24.963295	0.000929	20.838234
1103.308556	-3.004400	3.609400	-10.844000	24.938831	0.000930	20.830274
1104.312740	-3.008900	3.608100	-10.855000	24.997834	0.000930	20.832598
1105.310386	-2.989900	3.609200	-10.790000	25.035523	0.000930	20.828704
1106.309211	-2.957700	3.609100	-10.674000	25.056432	0.000930	20.835468
1107.305978	-3.005800	3.608200	-10.844000	25.062501	0.000928	20.848672
1108.309498	-3.014600	3.607100	-10.873000	25.062723	0.000928	20.840834
1109.307011	-2.988600	3.607200	-10.779000	25.051587	0.000927	20.845303
1110.309927	-2.973200	3.608800	-10.729000	25.042362	0.000924	20.840310
1111.312218	-2.992200	3.608000	-10.794000	25.055906	0.000926	20.844422
1112.308211	-3.002800	3.606300	-10.828000	25.058268	0.000924	20.832569
1113.307515	-2.996500	3.606500	-10.805000	25.036711	0.000925	20.841276
1114.310828	-3.004400	3.606000	-10.832000	25.063735	0.000923	20.846118
1115.306689	-2.970300	3.607400	-10.714000	25.058858	0.000922	20.833635
1116.309844	-2.996100	3.604400	-10.798000	25.006919	0.000920	20.814217
1117.308751	-3.003300	3.605100	-10.826000	25.021086	0.000922	20.842662
1118.309117	-3.002100	3.603100	-10.816000	25.023695	0.000922	20.829634
1119.308558	-3.012600	3.604200	-10.856000	25.029936	0.000921	20.839691
1120.311442	-3.011100	3.603500	-10.849000	25.043602	0.000922	20.843451
1121.312150	-3.007900	3.603600	-10.838000	25.040266	0.000919	20.832517
1122.308353	-3.015400	3.603100	-10.862000	25.051549	0.000920	20.814446
1123.307451	-3.010500	3.603600	-10.847000	25.091623	0.000919	20.830491
1124.308223	-3.014100	3.602000	-10.855000	25.109694	0.000919	20.808328
1125.312295	-3.011300	3.602800	-10.848000	25.132608	0.000920	20.838917
1126.312641	-2.969700	3.603600	-10.701000	25.116843	0.000919	20.826410
1127.313738	-3.015500	3.601400	-10.859000	25.126561	0.000918	20.849442
1128.311612	-2.994000	3.600600	-10.779000	25.073906	0.000919	20.819344
1129.310926	-3.001900	3.601000	-10.809000	25.036490	0.000916	20.820666
1130.314563	-3.010500	3.600700	-10.837000	24.998371	0.000916	20.836930
1131.313947	-2.986500	3.599700	-10.749000	24.979472	0.000917	20.804211
1132.313048	-3.007400	3.600000	-10.825000	24.983222	0.000917	20.827889
1133.312956	-2.985800	3.599700	-10.747000	25.022079	0.000917	20.819951
1134.312491	-2.998800	3.599800	-10.794000	25.038662	0.000916	20.821898
1135.311551	-3.005000	3.600400	-10.818000	25.047407	0.000916	20.822616
1136.315106	-3.004600	3.598600	-10.812000	25.088101	0.000913	20.813205
1137.313653	-2.985300	3.599000	-10.743000	25.098338	0.000913	20.810679
1138.314879	-3.036000	3.597000	-10.919000	25.080933	0.000913	20.806010
1139.315203	-3.026800	3.597800	-10.889000	25.054084	0.000912	20.822680
1140.314501	-3.009500	3.596300	-10.822000	25.065242	0.000913	20.808750
1141.314069	-3.009700	3.596900	-10.824000	25.074563	0.000912	20.797719
1142.313205	-2.990800	3.596500	-10.755000	25.087706	0.000913	20.814705
1143.314801	-2.994800	3.596600	-10.770000	25.111992	0.000913	20.819644
1144.326078	-2.992200	3.597200	-10.763000	25.101404	0.000911	20.792420
1145.310621	-2.962500	3.597500	-10.656000	25.074155	0.000910	20.798257
1146.316020	-2.995700	3.595200	-10.768000	25.090161	0.000908	20.799626
1147.314651	-2.998600	3.595200	-10.780000	25.078775	0.000909	20.798153
1148.313146	-3.003200	3.595700	-10.797000	25.072806	0.000907	20.797851
1149.314861	-3.018400	3.594700	-10.849000	25.070118	0.000907	20.797524
1150.313259	-3.004900	3.595200	-10.802000	25.050176	0.000908	20.812593
1151.318582	-2.996600	3.594700	-10.771000	25.072158	0.000906	20.800994
1152.316283	-2.990000	3.594800	-10.747000	25.112675	0.000908	20.777182
1153.315450	-2.991500	3.593600	-10.748000	25.113369	0.000906	20.800164
1154.314185	-2.977600	3.594800	-10.702000	25.074187	0.000905	20.788332
1155.318336	-3.001300	3.594000	-10.785000	25.096265	0.000905	20.819030
1156.318332	-2.987800	3.594400	-10.738000	25.090647	0.000905	20.778777
1157.322074	-3.005100	3.592100	-10.794000	25.129303	0.000904	20.802409
1158.320271	-3.018200	3.592400	-10.842000	25.154683	0.000906	20.791852
1159.318695	-3.016000	3.592300	-10.833000	25.182846	0.000903	20.794995
1160.317140	-2.985000	3.593600	-10.726000	25.186728	0.000904	20.805057
1161.317853	-3.019400	3.590800	-10.840000	25.182574	0.000902	20.784765
1162.319011	-3.013300	3.590900	-10.819000	25.184714	0.000902	20.809673
1163.322119	-2.996700	3.590300	-10.758000	25.199230	0.000902	20.797219
1164.327903	-3.001700	3.590900	-10.777000	25.227220	0.000902	20.802086
1165.318978	-3.007600	3.590800	-10.799000	25.251953	0.000902	20.792305
1166.320154	-2.991900	3.589100	-10.737000	25.232293	0.000900	20.783472
1167.319923	-3.003700	3.588800	-10.779000	25.181808	0.000899	20.787790
1168.318058	-2.983700	3.589400	-10.709000	25.130527	0.000900	20.778034
1169.316349	-2.980200	3.589300	-10.696000	25.105619	0.000899	20.789539
1170.326001	-2.991400	3.589700	-10.737000	25.096097	0.000898	20.808904
1171.320451	-2.990800	3.589300	-10.734000	25.128169	0.000897	20.772822
1172.320885	-3.011500	3.586800	-10.799000	25.134284	0.000896	20.782280
1173.323445	-2.993400	3.587000	-10.735000	25.161557	0.000896	20.796856
1174.320766	-3.039400	3.585900	-10.898000	25.179751	0.000896	20.791889
1175.321525	-2.993500	3.587500	-10.737000	25.169239	0.000897	20.807413
1176.321687	-3.009200	3.585900	-10.790000	25.172570	0.000894	20.782783
1177.323131	-3.002100	3.584900	-10.760000	25.181970	0.000895	20.812133
1178.321141	-3.001400	3.584700	-10.758000	25.188085	0.000893	20.801677
1179.324256	-2.976300	3.587200	-10.675000	25.156959	0.000892	20.797930
1180.320374	-3.016800	3.584000	-10.811000	25.147638	0.000892	20.812755
1181.323183	-3.015700	3.583100	-10.804000	25.135809	0.000892	20.801828
1182.323055	-3.029700	3.585100	-10.861000	25.119048	0.000892	20.794960
1183.324010	-3.005000	3.585500	-10.773000	25.146668	0.000891	20.783332
1184.331331	-2.988300	3.584400	-10.710000	25.138142	0.000891	20.790419
1185.323380	-2.993600	3.583900	-10.727000	25.083673	0.000890	20.791217
1186.322114	-3.003000	3.584500	-10.762000	25.074548	0.000891	20.783479
1187.322978	-3.001600	3.583900	-10.756000	25.030716	0.000889	20.786421
1188.324586	-2.997300	3.582400	-10.736000	25.008336	0.000889	20.791931
1189.326088	-3.006600	3.583200	-10.772000	24.989465	0.000889	20.772042
1190.325644	-2.971400	3.584300	-10.649000	24.976539	0.000887	20.779456
1191.325331	-2.994800	3.582800	-10.728000	24.977359	0.000887	20.785969
1192.327302	-3.004800	3.580900	-10.759000	25.019894	0.000888	20.777929
1193.327396	-2.981100	3.583600	-10.682000	24.999582	0.000888	20.791680
1194.327235	-3.025200	3.580600	-10.831000	25.029166	0.000887	20.776805
1195.325989	-3.017200	3.581500	-10.804000	25.086267	0.000886	20.775329
1196.331448	-3.015000	3.581400	-10.797000	25.098355	0.000886	20.795523
1197.334664	-3.005200	3.580400	-10.759000	25.066708	0.000886	20.804532
1198.330668	-3.012900	3.580400	-10.786000	25.101164	0.000884	20.787438
1199.333066	-2.999400	3.578900	-10.734000	25.105311	0.000886	20.780221
1200.343114	-2.972900	3.580800	-10.644000	25.122215	0.000882	20.791026
1201.332452	-2.984400	3.579500	-10.682000	25.145537	0.000884	20.787887
1202.332375	-2.997300	3.579100	-10.726000	25.174992	0.000884	20.784266
1203.331684	-3.007000	3.577900	-10.758000	25.143995	0.000882	20.778752
1204.331632	-2.991600	3.578200	-10.703000	25.129471	0.000883	20.761326
1205.337045	-2.982700	3.578500	-10.673000	25.107945	0.000882	20.797564
1206.329606	-2.982800	3.578400	-10.672000	25.118984	0.000882	20.802481
1207.334050	-3.034800	3.575800	-10.851000	25.072516	0.000881	20.775749
1208.333181	-2.978500	3.576300	-10.652000	25.088922	0.000881	20.782261
1209.332040	-2.988200	3.577600	-10.689000	25.087130	0.000880	20.795635
1210.336777	-2.989400	3.576200	-10.690000	25.109401	0.000878	20.783378
1211.336812	-2.977200	3.576900	-10.648000	25.113823	0.000878	20.791137
1212.334544	-3.015900	3.575000	-10.780000	25.122819	0.000876	20.774089
1213.332108	-2.994700	3.574600	-10.703000	25.137858	0.000876	20.778755
1214.335119	-2.999600	3.575000	-10.722000	25.173349	0.000875	20.773608
1215.333560	-2.985700	3.574100	-10.671000	25.166930	0.000875	20.775698
1216.339304	-3.004500	3.572900	-10.732000	25.147959	0.000876	20.764713
1217.336562	-3.009600	3.573800	-10.754000	25.165034	0.000873	20.786597
1218.335146	-2.964300	3.574300	-10.594000	25.137489	0.000874	20.777911
1219.334113	-2.999000	3.573300	-10.716000	25.179142	0.000873	20.774681
1220.333553	-3.017800	3.572100	-10.780000	25.197333	0.000874	20.782986
1221.340684	-2.988500	3.573500	-10.679000	25.205680	0.000872	20.798953
1222.333888	-3.019300	3.573100	-10.787000	25.151480	0.000870	20.778205
1223.336159	-2.980500	3.572100	-10.644000	25.147895	0.000874	20.799262
1224.338312	-2.982900	3.573000	-10.656000	25.149505	0.000870	20.768636
1225.340836	-3.004300	3.571000	-10.727000	25.163245	0.000871	20.773895
1226.337348	-2.992800	3.571400	-10.688000	25.142556	0.000870	20.767350
1227.339943	-3.003300	3.570500	-10.722000	25.095692	0.000868	20.776255
1228.336132	-3.013800	3.570900	-10.761000	25.097224	0.000867	20.782060
1229.339633	-3.015800	3.569500	-10.763000	25.091975	0.000868	20.758298
1230.337915	-2.975400	3.570600	-10.622000	25.043341	0.000869	20.779654
1231.338725	-2.989800	3.569600	-10.671000	25.049947	0.000867	20.781543
1232.344887	-3.038600	3.567600	-10.839000	25.080689	0.000867	20.772574
1233.340210	-3.005600	3.569200	-10.727000	25.075640	0.000867	20.768928
1234.338484	-2.995300	3.569700	-10.691000	25.077595	0.000867	20.777054
1235.341887	-3.003200	3.568700	-10.715000	25.112666	0.000867	20.760103
1236.341504	-2.990000	3.569100	-10.670000	25.134311	0.000867	20.771400
1237.344534	-2.986100	3.568500	-10.655000	25.120707	0.000866	20.778607
1238.343459	-2.983900	3.566400	-10.641000	25.087139	0.000865	20.772885
1239.348202	-3.023500	3.566900	-10.783000	25.103864	0.000864	20.774027
1240.338892	-2.993400	3.566900	-10.676000	25.111615	0.000863	20.795084
1241.353214	-2.992000	3.567400	-10.672000	25.119116	0.000865	20.763259
1242.348596	-3.006800	3.566600	-10.722000	25.150157	0.000863	20.755065
1243.347408	-2.989400	3.565700	-10.657000	25.163275	0.000864	20.759700
1244.349470	-2.994400	3.566200	-10.678000	25.171551	0.000863	20.780337
1245.343743	-3.004300	3.564600	-10.709000	25.175222	0.000863	20.772643
1246.347278	-3.012700	3.565100	-10.739000	25.181255	0.000860	20.759733
1247.350444	-3.012200	3.566400	-10.741000	25.190047	0.000861	20.764292
1248.352430	-3.043200	3.562600	-10.841000	25.228990	0.000863	20.775888
1249.345098	-3.019700	3.563200	-10.758000	25.280467	0.000862	20.769724
1250.345458	-2.994900	3.564500	-10.675000	25.259431	0.000860	20.792226
1251.349996	-2.991400	3.563600	-10.659000	25.261589	0.000860	20.791547
1252.347605	-3.010600	3.563400	-10.727000	25.262355	0.000861	20.780937
1253.353095	-3.001200	3.563700	-10.695000	25.287603	0.000858	20.777363
1254.349291	-3.020400	3.562700	-10.760000	25.247830	0.000857	20.780578
1255.347728	-3.012400	3.561700	-10.729000	25.224435	0.000857	20.776056
1256.353572	-2.971500	3.563400	-10.588000	25.217516	0.000855	20.782387
1257.349962	-2.991000	3.561400	-10.650000	25.185028	0.000854	20.776797
1258.351590	-2.981800	3.561300	-10.618000	25.150894	0.000856	20.769082
1259.354362	-3.010700	3.561100	-10.720000	25.141419	0.000855	20.777114
1260.354098	-2.991000	3.561100	-10.651000	25.162945	0.000856	20.783077
1261.355086	-3.013400	3.561100	-10.730000	25.151256	0.000854	20.775136
1262.351725	-2.987500	3.560400	-10.636000	25.198383	0.000855	20.757013
1263.356264	-3.000000	3.559900	-10.678000	25.183617	0.000854	20.775380
1264.358669	-3.006500	3.558900	-10.699000	25.231518	0.000852	20.770840
1265.354052	-3.000900	3.559500	-10.681000	25.225547	0.000854	20.807519
1266.353779	-2.988800	3.560000	-10.640000	25.226814	0.000852	20.763272
1267.354279	-2.997800	3.560100	-10.672000	25.260817	0.000851	20.790773
1268.353050	-2.997400	3.557700	-10.662000	25.275851	0.000851	20.775996
1269.357094	-2.998200	3.558500	-10.668000	25.273090	0.000850	20.787922
1270.351824	-2.990900	3.558900	-10.644000	25.269437	0.000847	20.785677
1271.357273	-2.994900	3.558300	-10.656000	25.253649	0.000847	20.781679
1272.353293	-3.011600	3.557300	-10.712000	25.263691	0.000847	20.770899
1273.353690	-3.013700	3.556100	-10.716000	25.264858	0.000849	20.773967
1274.357552	-2.997400	3.555000	-10.655000	25.274819	0.000849	20.802934
1275.355381	-2.992800	3.556600	-10.644000	25.272036	0.000847	20.798243
1276.352118	-3.006700	3.556100	-10.691000	25.279220	0.000846	20.784119
1277.355356	-2.988700	3.555400	-10.625000	25.281227	0.000845	20.796092
1278.355583	-2.991100	3.555300	-10.632000	25.281778	0.000846	20.787636
1279.355677	-2.991400	3.554200	-10.630000	25.314907	0.000842	20.786760
1280.355212	-2.999100	3.554300	-10.659000	25.327007	0.000843	20.781365
1281.354281	-2.989500	3.555500	-10.627000	25.350991	0.000842	20.781738
1282.357443	-3.006500	3.553800	-10.684000	25.300033	0.000842	20.790791
1283.351694	-2.995900	3.553700	-10.645000	25.309431	0.000844	20.791693
1284.354891	-2.998400	3.554200	-10.656000	25.325008	0.000842	20.793109
1285.356262	-3.000900	3.553300	-10.662000	25.333187	0.000841	20.788044
1286.355439	-2.991900	3.553700	-10.631000	25.341161	0.000840	20.786568
1287.353100	-2.989400	3.552800	-10.619000	25.348864	0.000841	20.797621
1288.354805	-2.987200	3.553200	-10.613000	25.359503	0.000840	20.791234
1289.353695	-2.990500	3.552400	-10.623000	25.356867	0.000840	20.790958
1290.356797	-3.020900	3.550600	-10.724000	25.373541	0.000839	20.804856
1291.357698	-3.005500	3.551300	-10.672000	25.376700	0.000840	20.809450
1292.355196	-3.000900	3.550300	-10.654000	25.401352	0.000838	20.783943
1293.357458	-3.022200	3.550500	-10.729000	25.396257	0.000838	20.781672
1294.355990	-3.016000	3.549100	-10.703000	25.364841	0.000841	20.804181
1295.357606	-3.025500	3.548800	-10.735000	25.337055	0.000838	20.799514
1296.359823	-2.988600	3.549500	-10.606000	25.299820	0.000838	20.788207
1297.357221	-2.984700	3.549700	-10.594000	25.296020	0.000835	20.800987
1298.361184	-3.015000	3.548000	-10.697000	25.289956	0.000836	20.789209
1299.356832	-2.990400	3.547900	-10.609000	25.320105	0.000836	20.799090
1300.359733	-2.964300	3.549500	-10.520000	25.286725	0.000833	20.806828
1301.357431	-2.977800	3.547500	-10.563000	25.302435	0.000835	20.816436
1302.358411	-3.007200	3.547200	-10.666000	25.302059	0.000835	20.800887
1303.360830	-2.995200	3.548000	-10.626000	25.312402	0.000834	20.794201
1304.359381	-3.003600	3.547800	-10.655000	25.262740	0.000831	20.794126
1305.359674	-2.990000	3.546300	-10.602000	25.276135	0.000831	20.792402
1306.359603	-3.011200	3.544500	-10.672000	25.262915	0.000830	20.805207
1307.361093	-3.003500	3.546300	-10.651000	25.250980	0.000832	20.815036
1308.359231	-3.009600	3.546000	-10.672000	25.265148	0.000830	20.819303
1309.365051	-2.987400	3.545500	-10.592000	25.312521	0.000829	20.820399
1310.361483	-2.975300	3.545100	-10.547000	25.317690	0.000828	20.821322
1311.362133	-2.990200	3.544800	-10.599000	25.333649	0.000829	20.829285
1312.363919	-2.991800	3.544400	-10.603000	25.321965	0.000829	20.813287
1313.364101	-3.002900	3.544300	-10.642000	25.303798	0.000827	20.806900
1314.362469	-3.001300	3.544500	-10.637000	25.263828	0.000828	20.834573
1315.364107	-3.030800	3.542100	-10.734000	25.273174	0.000827	20.806498
1316.361187	-2.995800	3.544300	-10.617000	25.278841	0.000827	20.798437
1317.363429	-2.984600	3.544100	-10.576000	25.255400	0.000826	20.837964
1318.368921	-3.001600	3.543800	-10.634000	25.253013	0.000826	20.819447
1319.360432	-2.990500	3.542900	-10.595000	25.261342	0.000825	20.820697
1320.368132	-3.012700	3.541200	-10.666000	25.284007	0.000824	20.809314
1321.361076	-2.990700	3.543500	-10.597000	25.288086	0.000824	20.824314
1322.363303	-2.978200	3.542500	-10.549000	25.308217	0.000824	20.824613
1323.364767	-2.988200	3.541200	-10.581000	25.327529	0.000823	20.841631
1324.360885	-3.023600	3.539500	-10.701000	25.357279	0.000822	20.827407
1325.367316	-3.005800	3.540700	-10.641000	25.370355	0.000821	20.830105
1326.360881	-2.984400	3.539500	-10.561000	25.372616	0.000822	20.843754
1327.361390	-2.986100	3.540100	-10.571000	25.339535	0.000820	20.833298
1328.362524	-2.993700	3.540300	-10.597000	25.316445	0.000821	20.854210
1329.360836	-3.019000	3.538000	-10.679000	25.314184	0.000820	20.841983
1330.360640	-2.992400	3.540400	-10.592000	25.335038	0.000819	20.849171
1331.363297	-2.998900	3.539200	-10.611000	25.337124	0.000820	20.840360
1332.365693	-3.014200	3.537500	-10.662000	25.334215	0.000817	20.843129
1333.364282	-2.989600	3.537900	-10.575000	25.356885	0.000818	20.841236
1334.365558	-2.998900	3.537600	-10.608000	25.372390	0.000817	20.843054
1335.365279	-3.016000	3.535600	-10.663000	25.397815	0.000816	20.838237
1336.369632	-3.015900	3.535600	-10.662000	25.395851	0.000817	20.849541
1337.361966	-2.992800	3.537700	-10.587000	25.380068	0.000815	20.840806
1338.365440	-3.001800	3.535800	-10.612000	25.353749	0.000815	20.835716
1339.373383	-3.005800	3.535100	-10.624000	25.367762	0.000815	20.833665
1340.368813	-2.980600	3.537400	-10.542000	25.363715	0.000815	20.841930
1341.369102	-2.991900	3.535400	-10.576000	25.361626	0.000816	20.836987
1342.366726	-3.000300	3.535100	-10.604000	25.364585	0.000813	20.853234
1343.364707	-3.010300	3.534500	-10.639000	25.351438	0.000814	20.839085
1344.365215	-3.017300	3.533900	-10.662000	25.326706	0.000812	20.842702
1345.369861	-3.012600	3.533900	-10.645000	25.344254	0.000813	20.867432
1346.365905	-2.992000	3.534100	-10.573000	25.320890	0.000813	20.842551
1347.366105	-3.018300	3.532800	-10.663000	25.330209	0.000813	20.848590
1348.366357	-3.034100	3.531600	-10.714000	25.276401	0.000813	20.846721
1349.368080	-2.974100	3.534100	-10.510000	25.248363	0.000814	20.847968
1350.370649	-2.998700	3.531900	-10.590000	25.270612	0.000811	20.858452
1351.385013	-3.000500	3.532700	-10.599000	25.263403	0.000810	20.847422
1352.375206	-3.005400	3.531400	-10.611000	25.242920	0.000811	20.842030
1353.376666	-2.991600	3.533200	-10.568000	25.262237	0.000808	20.843880
1354.369884	-3.006800	3.530300	-10.613000	25.246949	0.000807	20.869307
1355.370192	-2.996100	3.530000	-10.575000	25.251052	0.000809	20.856832
1356.369224	-2.994400	3.531400	-10.573000	25.235095	0.000808	20.854562
1357.368698	-2.994800	3.529400	-10.568000	25.200790	0.000809	20.872751
1358.378548	-3.012800	3.530200	-10.635000	25.182918	0.000808	20.862870
1359.368571	-3.030800	3.528600	-10.692000	25.220254	0.000808	20.837292
1360.371154	-2.996700	3.530300	-10.579000	25.259384	0.000805	20.871360
1361.371607	-2.961300	3.532400	-10.458000	25.260204	0.000806	20.844209
1362.368823	-2.983400	3.530300	-10.531000	25.304496	0.000804	20.870660
1363.371096	-3.002200	3.527300	-10.589000	25.350897	0.000804	20.858929
1364.369510	-3.003000	3.528600	-10.595000	25.361439	0.000803	20.874729
1365.372342	-3.000200	3.529000	-10.587000	25.344192	0.000804	20.861680
1366.373127	-3.004700	3.527200	-10.597000	25.358305	0.000802	20.859730
1367.373415	-2.978700	3.528400	-10.509000	25.385447	0.000803	20.877973
1368.372399	-3.004100	3.526600	-10.592000	25.364097	0.000803	20.875028
1369.373528	-2.994400	3.527000	-10.560000	25.393055	0.000801	20.837251
1370.374511	-2.999700	3.525600	-10.574000	25.384903	0.000803	20.875056
1371.374799	-2.992000	3.526400	-10.550000	25.377028	0.000802	20.859564
1372.375113	-2.991300	3.526100	-10.547000	25.407447	0.000802	20.879675
1373.377470	-3.003700	3.523100	-10.582000	25.427951	0.000802	20.875609
1374.374487	-2.988200	3.525000	-10.532000	25.420696	0.000800	20.877807
1375.374367	-2.976400	3.525800	-10.494000	25.413964	0.000800	20.882899
1376.373336	-3.016300	3.522200	-10.621000	25.453627	0.000799	20.891434
1377.372699	-3.004500	3.522600	-10.583000	25.479050	0.000798	20.865756
1378.374511	-3.011000	3.523800	-10.609000	25.484769	0.000798	20.873869
1379.378771	-3.009100	3.522400	-10.598000	25.499581	0.000797	20.871675
1380.377584	-3.015200	3.522900	-10.620000	25.505819	0.000797	20.891214
1381.375710	-3.028100	3.521300	-10.662000	25.500107	0.000797	20.894960
1382.378015	-3.005000	3.520800	-10.579000	25.459897	0.000797	20.883506
1383.376038	-3.030900	3.521300	-10.671000	25.464075	0.000795	20.875848
1384.376884	-2.974900	3.521400	-10.475000	25.432617	0.000794	20.899258
1385.376969	-2.993500	3.520900	-10.539000	25.453590	0.000795	20.886181
1386.375672	-2.978300	3.521700	-10.488000	25.458512	0.000794	20.889701
1387.379548	-3.008800	3.520900	-10.593000	25.444622	0.000794	20.897089
1388.374518	-2.986600	3.519300	-10.510000	25.443008	0.000793	20.905425
1389.375822	-2.999400	3.519100	-10.554000	25.462840	0.000793	20.902580
1390.376721	-2.972100	3.521100	-10.463000	25.472162	0.000791	20.900087
1391.376572	-3.009100	3.520100	-10.591000	25.436770	0.000792	20.900109
1392.380957	-3.005500	3.517500	-10.570000	25.432774	0.000792	20.895148
1393.379894	-3.003200	3.518300	-10.565000	25.477903	0.000790	20.893051
1394.376259	-2.997500	3.517400	-10.541000	25.482799	0.000792	20.889908
1395.379179	-3.006100	3.517200	-10.571000	25.501439	0.000790	20.908624
1396.378049	-2.992800	3.517900	-10.527000	25.486805	0.000790	20.895827
1397.378593	-3.017200	3.515600	-10.605000	25.491627	0.000791	20.908728
1398.378375	-3.010200	3.516000	-10.583000	25.494263	0.000790	20.906634
1399.377342	-2.986500	3.516100	-10.500000	25.460814	0.000788	20.894382
1400.383142	-3.005900	3.514700	-10.563000	25.437555	0.000788	20.908483
1401.376832	-3.004000	3.516200	-10.562000	25.469588	0.000787	20.911253
1402.378475	-2.991100	3.517800	-10.520000	25.482043	0.000788	20.917121
1403.385573	-2.992700	3.515800	-10.521000	25.459107	0.000786	20.913055
1404.385243	-3.027400	3.514500	-10.639000	25.445016	0.000786	20.913130
1405.381367	-3.012200	3.514400	-10.585000	25.431473	0.000786	20.923237
1406.379945	-2.990800	3.514900	-10.511000	25.412513	0.000786	20.919847
1407.379810	-3.006900	3.514200	-10.565000	25.397231	0.000786	20.925837
1408.380334	-2.991100	3.513100	-10.507000	25.345613	0.000783	20.897243
1409.390612	-3.010500	3.512200	-10.572000	25.333607	0.000783	20.914584
1410.382407	-2.985900	3.513000	-10.489000	25.327915	0.000784	20.918352
1411.384912	-3.017300	3.512400	-10.597000	25.361468	0.000780	20.934971
1412.383178	-2.990100	3.513900	-10.504000	25.386223	0.000780	20.917630
1413.386149	-3.019600	3.511400	-10.602000	25.385107	0.000779	20.909398
1414.386359	-3.007900	3.510200	-10.557000	25.391368	0.000781	20.938914
1415.381028	-3.022100	3.510800	-10.609000	25.372229	0.000780	20.926336
1416.382472	-3.017500	3.509700	-10.587000	25.363532	0.000779	20.937991
1417.387503	-3.005000	3.510000	-10.546000	25.434062	0.000780	20.959498
1418.384083	-3.000000	3.511700	-10.534000	25.432818	0.000775	20.916528
1419.386806	-2.982800	3.511800	-10.473000	25.483616	0.000777	20.914908
1420.383768	-2.989200	3.509400	-10.489000	25.502324	0.000776	20.928478
1421.391186	-3.000600	3.508300	-10.525000	25.514650	0.000775	20.931847
1422.385240	-2.996100	3.508600	-10.511000	25.545809	0.000775	20.941799
1423.385674	-3.008100	3.507100	-10.549000	25.558707	0.000774	20.912082
1424.389640	-3.010500	3.508300	-10.560000	25.548392	0.000774	20.931592
1425.383664	-3.026600	3.506800	-10.612000	25.504303	0.000772	20.939947
1426.386978	-2.994400	3.508400	-10.503000	25.465908	0.000773	20.912772
1427.385871	-3.008900	3.506400	-10.550000	25.417717	0.000772	20.928389
1428.384334	-3.019500	3.505700	-10.584000	25.388036	0.000772	20.932251
1429.386149	-3.015200	3.505500	-10.569000	25.381454	0.000772	20.940813
1430.387086	-3.016200	3.506300	-10.574000	25.376453	0.000770	20.922992
1431.386491	-3.001900	3.505500	-10.523000	25.369117	0.000770	20.938383
1432.385240	-3.004000	3.503900	-10.525000	25.396580	0.000770	20.910012
1433.383665	-3.008500	3.503100	-10.537000	25.421181	0.000770	20.911481
1434.384721	-2.978500	3.504300	-10.437000	25.460670	0.000770	20.928373
1435.389524	-2.984100	3.504600	-10.457000	25.489766	0.000770	20.904489
1436.387666	-3.009300	3.503700	-10.541000	25.541077	0.000768	20.901965
1437.388449	-2.985900	3.504000	-10.461000	25.556458	0.000768	20.912668
1438.386715	-2.992000	3.503600	-10.481000	25.537819	0.000768	20.903434
1439.387087	-2.995700	3.502100	-10.491000	25.558468	0.000768	20.925591
1440.390056	-2.981200	3.503700	-10.445000	25.545542	0.000769	20.913086
1441.387794	-3.003900	3.501800	-10.519000	25.560601	0.000767	20.902131
1442.391384	-3.004600	3.500600	-10.517000	25.582416	0.000768	20.917400
1443.389036	-2.982300	3.502800	-10.445000	25.580649	0.000766	20.893343
1444.389326	-2.992600	3.501600	-10.478000	25.559331	0.000764	20.897063
1445.396299	-3.005300	3.500600	-10.519000	25.589791	0.000764	20.899205
1446.389586	-3.005100	3.500900	-10.518000	25.582337	0.000765	20.910684
1447.390196	-3.012900	3.499700	-10.543000	25.584004	0.000764	20.886281
1448.418063	-3.014600	3.500200	-10.550000	25.563227	0.000764	20.909509
1449.388938	-3.012400	3.497800	-10.536000	25.568940	0.000764	20.873998
1450.391468	-2.990400	3.500300	-10.465000	25.551618	0.000764	20.901170
1451.392765	-2.990000	3.498800	-10.460000	25.527316	0.000762	20.906162
1452.389187	-2.989600	3.498100	-10.457000	25.521575	0.000763	20.894708
1453.393501	-3.009200	3.497900	-10.525000	25.470257	0.000762	20.873521
1454.400870	-3.003900	3.498500	-10.508000	25.430947	0.000762	20.881461
1455.406125	-2.981100	3.497200	-10.425000	25.456514	0.000760	20.885797
1456.397411	-2.986500	3.496500	-10.442000	25.462630	0.000761	20.876293
1457.398028	-3.010200	3.494900	-10.519000	25.500475	0.000759	20.880632
1458.398298	-2.988100	3.497600	-10.450000	25.516829	0.000761	20.905114
1459.398649	-2.981400	3.496400	-10.423000	25.479206	0.000758	20.886774
1460.395934	-2.990100	3.496000	-10.452000	25.457136	0.000759	20.865561
1461.399967	-2.991600	3.496700	-10.460000	25.429602	0.000758	20.874422
1462.397865	-2.986700	3.495600	-10.440000	25.414889	0.000757	20.884303
1463.401673	-3.002300	3.494000	-10.489000	25.406615	0.000759	20.885477
1464.398623	-2.983800	3.493200	-10.423000	25.407706	0.000758	20.866186
1465.396893	-3.009800	3.493300	-10.513000	25.399457	0.000755	20.893462
1466.397056	-3.001500	3.493000	-10.483000	25.434549	0.000755	20.872751
1467.398118	-2.991900	3.493400	-10.450000	25.449959	0.000755	20.887276
1468.400981	-2.995100	3.492100	-10.458000	25.456542	0.000756	20.897204
1469.400565	-2.976900	3.492600	-10.395000	25.481148	0.000754	20.879241
1470.401629	-2.997200	3.492100	-10.464000	25.477890	0.000756	20.881185
1471.405416	-2.987800	3.490700	-10.429000	25.512307	0.000752	20.866437
1472.397320	-3.012100	3.490800	-10.513000	25.520434	0.000752	20.854684
1473.401327	-2.973200	3.492000	-10.381000	25.475504	0.000752	20.872152
1474.401301	-3.003800	3.489700	-10.481000	25.491214	0.000751	20.872280
1475.402191	-3.018700	3.489900	-10.533000	25.514421	0.000751	20.887524
1476.405934	-3.001600	3.490100	-10.475000	25.489869	0.000751	20.866663
1477.402344	-2.990300	3.489500	-10.433000	25.499212	0.000750	20.868459
1478.404957	-3.010800	3.489100	-10.504000	25.490216	0.000751	20.867960
1479.400105	-2.999900	3.488800	-10.465000	25.424136	0.000750	20.855184
1480.403178	-3.000900	3.487700	-10.465000	25.410889	0.000752	20.851839
1481.404197	-2.975800	3.487700	-10.377000	25.416756	0.000751	20.864368
1482.403664	-3.013600	3.487100	-10.507000	25.434602	0.000750	20.889399
1483.405694	-3.002800	3.485800	-10.465000	25.438630	0.000749	20.874004
1484.401919	-3.036800	3.486500	-10.586000	25.425956	0.000747	20.856537
1485.405207	-2.976000	3.486600	-10.375000	25.444972	0.000748	20.863778
1486.407655	-3.000400	3.486500	-10.459000	25.470817	0.000747	20.880720
1487.405409	-2.995400	3.485600	-10.439000	25.459015	0.000746	20.864603
1488.406084	-2.989300	3.487500	-10.424000	25.454791	0.000746	20.851827
1489.402471	-2.987500	3.484700	-10.410000	25.491448	0.000746	20.850232
1490.402127	-3.005300	3.483300	-10.468000	25.507727	0.000745	20.853777
1491.405039	-2.994400	3.486200	-10.438000	25.507480	0.000745	20.844995
1492.408520	-3.021500	3.483600	-10.523000	25.522867	0.000746	20.866136
1493.407151	-2.992100	3.482300	-10.419000	25.556164	0.000747	20.864487
1494.406712	-2.989400	3.483800	-10.413000	25.570181	0.000741	20.881408
1495.403922	-2.993600	3.481500	-10.420000	25.605765	0.000742	20.856930
1496.408240	-2.984600	3.484000	-10.397000	25.596273	0.000743	20.859724
1497.410392	-2.994700	3.482600	-10.428000	25.584251	0.000745	20.880366
1498.408666	-3.025500	3.481600	-10.532000	25.552368	0.000743	20.857831
1499.409333	-2.997900	3.482500	-10.439000	25.555426	0.000742	20.857583
1500.409815	-3.035200	3.479600	-10.560000	25.521160	0.000740	20.863947
1501.408611	-3.013500	3.480600	-10.488000	25.568549	0.000740	20.859382
1502.416782	-3.016200	3.478900	-10.492000	25.522580	0.000741	20.860158
1503.407520	-2.991000	3.479700	-10.407000	25.489382	0.000739	20.862381
1504.408896	-2.996200	3.478800	-10.422000	25.479916	0.000740	20.872789
1505.408020	-2.962800	3.480000	-10.309000	25.461902	0.000739	20.871295
1506.411844	-3.003500	3.478300	-10.446000	25.508818	0.000739	20.865304
1507.414719	-2.986600	3.478700	-10.389000	25.498234	0.000740	20.867477
1508.415213	-2.994800	3.478400	-10.416000	25.530788	0.000738	20.867926
1509.411422	-3.018100	3.477400	-10.493000	25.510785	0.000736	20.854952
1510.407223	-3.014600	3.478000	-10.485000	25.525050	0.000737	20.856949
1511.411026	-3.018600	3.476100	-10.491000	25.536657	0.000737	20.863389
1512.408797	-2.968300	3.479800	-10.327000	25.536406	0.000737	20.861241
1513.410722	-3.005600	3.476900	-10.449000	25.582107	0.000736	20.855928
1514.409904	-3.008800	3.474500	-10.453000	25.556415	0.000738	20.863791
1515.411388	-2.995600	3.477300	-10.416000	25.525353	0.000735	20.873374
1516.409278	-3.014600	3.475800	-10.477000	25.486142	0.000734	20.851542
1517.409271	-3.005900	3.474500	-10.443000	25.449954	0.000735	20.860720
1518.408513	-3.011800	3.475300	-10.466000	25.423343	0.000735	20.852964
1519.412503	-2.992900	3.474800	-10.399000	25.450830	0.000734	20.865866
1520.409765	-3.005500	3.474000	-10.440000	25.475158	0.000733	20.864218
1521.409040	-3.016000	3.472500	-10.472000	25.515914	0.000732	20.867213
1522.408608	-3.002000	3.473600	-10.426000	25.529156	0.000732	20.857279
1523.409670	-2.998300	3.473000	-10.413000	25.572918	0.000733	20.850493
1524.409982	-2.978800	3.472200	-10.341000	25.574903	0.000731	20.871452
1525.410330	-3.006600	3.471500	-10.437000	25.559051	0.000730	20.855533
1526.409983	-3.022200	3.470900	-10.487000	25.570582	0.000730	20.861423
1527.410177	-2.993900	3.471700	-10.392000	25.549658	0.000731	20.867436
1528.409853	-3.003100	3.470400	-10.420000	25.588845	0.000730	20.837092
1529.410220	-2.999100	3.470300	-10.407000	25.598584	0.000728	20.840235
1530.414147	-3.009700	3.468600	-10.438000	25.605841	0.000728	20.864117
1531.412603	-2.993300	3.468800	-10.382000	25.585418	0.000729	20.852616
1532.413389	-2.997100	3.468700	-10.395000	25.581394	0.000728	20.865643
1533.414022	-3.000000	3.466800	-10.399000	25.596946	0.000727	20.843805
1534.413647	-3.008100	3.467900	-10.430000	25.587729	0.000726	20.835971
1535.416920	-3.002300	3.469700	-10.416000	25.596871	0.000727	20.862221
1536.413646	-2.994000	3.469200	-10.385000	25.594213	0.000725	20.843432
1537.414793	-2.993800	3.466300	-10.375000	25.587528	0.000723	20.856632
1538.414493	-3.012000	3.466100	-10.440000	25.591234	0.000724	20.834275
1539.413890	-3.000000	3.467300	-10.401000	25.533286	0.000725	20.848151
1540.417561	-2.998800	3.465700	-10.392000	25.532317	0.000724	20.860927
1541.416872	-3.011700	3.465800	-10.437000	25.544199	0.000722	20.854842
1542.414914	-2.967000	3.465600	-10.281000	25.484332	0.000723	20.826491
1543.415277	-2.992400	3.465100	-10.368000	25.462859	0.000721	20.849498
1544.414507	-2.976100	3.464400	-10.309000	25.441289	0.000723	20.839692
1545.414663	-2.972200	3.464500	-10.296000	25.428593	0.000721	20.860607
1546.417298	-2.976900	3.463800	-10.311000	25.424988	0.000721	20.853668
1547.414445	-3.000100	3.463700	-10.390000	25.467162	0.000723	20.844810
1548.418827	-2.989200	3.464600	-10.355000	25.495070	0.000721	20.833007
1549.417051	-3.003600	3.462100	-10.397000	25.560026	0.000721	20.832806
1550.414759	-3.009600	3.462300	-10.419000	25.577245	0.000719	20.858158
1551.415336	-3.002200	3.462300	-10.394000	25.585328	0.000717	20.830241
1552.419518	-3.016600	3.461500	-10.440000	25.617281	0.000718	20.833883
1553.416765	-3.001900	3.462100	-10.392000	25.651076	0.000717	20.837953
1554.414824	-2.984700	3.463200	-10.336000	25.637110	0.000720	20.847633
1555.414480	-3.008800	3.461300	-10.413000	25.603193	0.000718	20.837277
1556.414625	-2.986000	3.460400	-10.331000	25.599988	0.000717	20.844490
1557.416003	-3.003800	3.460100	-10.392000	25.609731	0.000718	20.823929
1558.415755	-2.983400	3.460600	-10.324000	25.628987	0.000715	20.844691
1559.415003	-2.992300	3.460700	-10.354000	25.658160	0.000715	20.842223
1560.416232	-2.982200	3.459400	-10.316000	25.653565	0.000714	20.830021
1561.415061	-2.991500	3.459000	-10.347000	25.638289	0.000713	20.839809
1562.417699	-2.998300	3.458200	-10.367000	25.656922	0.000714	20.832919
1563.416147	-3.012700	3.458500	-10.418000	25.666146	0.000715	20.834122
1564.418388	-3.000300	3.458700	-10.377000	25.620399	0.000711	20.825161
1565.416451	-3.017000	3.457000	-10.428000	25.628009	0.000715	20.835648
1566.416839	-3.001800	3.457300	-10.377000	25.628288	0.000712	20.823126
1567.418752	-2.981100	3.456000	-10.301000	25.624783	0.000710	20.843313
1568.420210	-2.997500	3.456700	-10.360000	25.608731	0.000713	20.834305
1569.416408	-3.006400	3.456000	-10.389000	25.578494	0.000711	20.833809
1570.416201	-2.978700	3.457400	-10.297000	25.566869	0.000710	20.824031
1571.415998	-3.012600	3.455100	-10.408000	25.555316	0.000711	20.838981
1572.416422	-2.997700	3.455500	-10.358000	25.523113	0.000710	20.830349
1573.420272	-2.967800	3.454200	-10.250000	25.478508	0.000709	20.821591
1574.416867	-2.995500	3.454000	-10.345000	25.463052	0.000709	20.812708
1575.418242	-2.989100	3.453600	-10.322000	25.474934	0.000708	20.808994
1576.417146	-3.022900	3.452100	-10.434000	25.499562	0.000708	20.826613
1577.418015	-3.004700	3.453600	-10.376000	25.500385	0.000707	20.823645
1578.421772	-3.025100	3.453100	-10.444000	25.508665	0.000709	20.844762
1579.417175	-2.996200	3.452900	-10.344000	25.531228	0.000707	20.825696
1580.420473	-3.004500	3.452700	-10.373000	25.550064	0.000707	20.835129
1581.416984	-2.983400	3.451200	-10.294000	25.595663	0.000706	20.828767
1582.417150	-3.023700	3.449100	-10.428000	25.615692	0.000706	20.818537
1583.417871	-3.002700	3.451000	-10.362000	25.597355	0.000705	20.832837
1584.421361	-3.016900	3.450800	-10.410000	25.567292	0.000706	20.832991
1585.417403	-3.008600	3.449400	-10.377000	25.529650	0.000707	20.850189
1586.418294	-2.990400	3.450100	-10.317000	25.545180	0.000704	20.823587
1587.419321	-2.977200	3.449700	-10.269000	25.531144	0.000703	20.828457
1588.418682	-3.004100	3.448100	-10.357000	25.531892	0.000703	20.825889
1589.422218	-2.988400	3.448300	-10.304000	25.498072	0.000704	20.829858
1590.419357	-2.990800	3.447500	-10.310000	25.491737	0.000701	20.822074
1591.423411	-3.004000	3.447800	-10.356000	25.548595	0.000702	20.840766
1592.418949	-2.994200	3.446600	-10.317000	25.512340	0.000701	20.826643
1593.419840	-2.997800	3.446900	-10.331000	25.516443	0.000700	20.822702
1594.422016	-2.978700	3.448600	-10.269000	25.519351	0.000699	20.837476
1595.420687	-2.982900	3.446700	-10.280000	25.524670	0.000699	20.821007
1596.421171	-3.007000	3.444700	-10.356000	25.549224	0.000698	20.822906
1597.421082	-2.984100	3.445500	-10.280000	25.557154	0.000699	20.810956
1598.422514	-3.018000	3.445400	-10.397000	25.563045	0.000699	20.832044
1599.421280	-3.004600	3.444500	-10.348000	25.566500	0.000698	20.822238
1600.423279	-3.006500	3.445400	-10.357000	25.554625	0.000699	20.816002
1601.422854	-3.017200	3.445600	-10.395000	25.551567	0.000697	20.821466
1602.422954	-2.999900	3.444100	-10.331000	25.526697	0.000696	20.822094
1603.424060	-2.994100	3.442300	-10.306000	25.513054	0.000696	20.799385
1604.423444	-3.005800	3.441600	-10.343000	25.520434	0.000696	20.818649
1605.426150	-3.005000	3.443800	-10.348000	25.561088	0.000696	20.810639
1606.424166	-3.002100	3.442900	-10.335000	25.582112	0.000696	20.808520
1607.425760	-2.988100	3.442100	-10.284000	25.563627	0.000693	20.835474
1608.424877	-2.986600	3.441100	-10.276000	25.544541	0.000694	20.815833
1609.425094	-3.007200	3.442000	-10.348000	25.527394	0.000693	20.805251
1610.424453	-2.981000	3.443600	-10.264000	25.562604	0.000692	20.818800
1611.425761	-2.987700	3.442100	-10.282000	25.565162	0.000691	20.831325
1612.424725	-2.983700	3.440600	-10.265000	25.600546	0.000693	20.812335
1613.424851	-3.007200	3.441500	-10.349000	25.640747	0.000692	20.806243
1614.425206	-3.012300	3.439700	-10.361000	25.638308	0.000690	20.814224
1615.426218	-2.996100	3.439500	-10.304000	25.657042	0.000691	20.813125
1616.428952	-3.008100	3.439600	-10.345000	25.679752	0.000690	20.806063
1617.426329	-2.995400	3.440300	-10.304000	25.662256	0.000690	20.790862
1618.429264	-2.998500	3.437700	-10.307000	25.617182	0.000687	20.818137
1619.426653	-3.013000	3.437500	-10.356000	25.576455	0.000690	20.815640
1620.427359	-3.026400	3.435900	-10.397000	25.513556	0.000690	20.798467
1621.429887	-3.006900	3.438100	-10.337000	25.481643	0.000688	20.816679
1622.428742	-3.000900	3.437400	-10.313000	25.463353	0.000688	20.794045
1623.426757	-2.991100	3.436600	-10.278000	25.481439	0.000687	20.805569
1624.426651	-3.002500	3.436300	-10.316000	25.514691	0.000687	20.799606
1625.426381	-3.015600	3.435300	-10.358000	25.511758	0.000685	20.797609
1626.426834	-2.999900	3.436300	-10.308000	25.524753	0.000686	20.796909
1627.428328	-2.971600	3.435600	-10.207000	25.525769	0.000686	20.786075
1628.427412	-2.991300	3.435700	-10.276000	25.532254	0.000684	20.796855
1629.426545	-2.985300	3.434800	-10.253000	25.571016	0.000685	20.804963
1630.427122	-2.989900	3.433200	-10.264000	25.589132	0.000682	20.791388
1631.426528	-2.988900	3.435000	-10.266000	25.574418	0.000683	20.794154
1632.430024	-3.002800	3.432400	-10.306000	25.588803	0.000683	20.801490
1633.427548	-2.990500	3.432700	-10.265000	25.590070	0.000682	20.795175
1634.428802	-3.011200	3.431800	-10.331000	25.648361	0.000681	20.796346
1635.427580	-3.004400	3.432100	-10.311000	25.652459	0.000681	20.802359
1636.428165	-2.997400	3.432200	-10.287000	25.668407	0.000681	20.785186
1637.432221	-2.973900	3.431800	-10.205000	25.668929	0.000680	20.809892
1638.433737	-3.000300	3.431500	-10.294000	25.693427	0.000679	20.803678
1639.432438	-2.997800	3.430600	-10.282000	25.650511	0.000679	20.779539
1640.432159	-3.005000	3.430500	-10.307000	25.626562	0.000677	20.773978
1641.431907	-3.013000	3.430200	-10.333000	25.569708	0.000679	20.787528
1642.430703	-2.997500	3.430500	-10.282000	25.591251	0.000678	20.774076
1643.435616	-2.985500	3.429300	-10.237000	25.619528	0.000678	20.773551
1644.432044	-3.000000	3.430500	-10.289000	25.602106	0.000676	20.790668
1645.435873	-3.007400	3.428200	-10.309000	25.654360	0.000677	20.785301
1646.432534	-2.994400	3.428300	-10.265000	25.652865	0.000674	20.789016
1647.433084	-2.990200	3.428300	-10.250000	25.644196	0.000677	20.788369
1648.434516	-2.990900	3.427500	-10.250000	25.621706	0.000675	20.806086
1649.434176	-3.011700	3.427300	-10.322000	25.598126	0.000676	20.792360
1650.433557	-3.000000	3.428600	-10.285000	25.590047	0.000675	20.779979
1651.433784	-2.996100	3.427500	-10.268000	25.598248	0.000672	20.790586
1652.433566	-2.993900	3.428300	-10.263000	25.596931	0.000673	20.773143
1653.438400	-2.994000	3.425800	-10.256000	25.584728	0.000673	20.795026
1654.435575	-3.017000	3.425400	-10.333000	25.622969	0.000673	20.761835
1655.439677	-2.995400	3.425700	-10.261000	25.618792	0.000673	20.772338
1656.435308	-2.980900	3.424700	-10.208000	25.636882	0.000674	20.770593
1657.434950	-2.995600	3.424900	-10.258000	25.666152	0.000672	20.774860
1658.435706	-3.004200	3.424300	-10.287000	25.667243	0.000672	20.761257
1659.437824	-2.993300	3.424800	-10.250000	25.675494	0.000670	20.765276
1660.436530	-3.012200	3.422200	-10.308000	25.695371	0.000673	20.778603
1661.437324	-3.002500	3.423300	-10.278000	25.729310	0.000670	20.779975
1662.435494	-3.005800	3.422900	-10.288000	25.744312	0.000669	20.767543
1663.436748	-3.014400	3.422500	-10.316000	25.759446	0.000671	20.767098
1664.438828	-2.997400	3.421500	-10.255000	25.773136	0.000668	20.768994
1665.438175	-3.016800	3.421700	-10.322000	25.755395	0.000668	20.772985
1666.436824	-3.008300	3.421000	-10.290000	25.714970	0.000668	20.781693
1667.436819	-2.993200	3.420800	-10.239000	25.663914	0.000667	20.762180
1668.438848	-2.988400	3.422900	-10.227000	25.618220	0.000667	20.778876
1669.437440	-2.992700	3.421100	-10.237000	25.597200	0.000667	20.792853
1670.439066	-3.010900	3.418500	-10.291000	25.567950	0.000665	20.790504
1671.439888	-3.008000	3.419700	-10.286000	25.567653	0.000665	20.754169
1672.440022	-2.975700	3.420900	-10.178000	25.580251	0.000665	20.775830
1673.439514	-2.990700	3.419500	-10.225000	25.584678	0.000664	20.764629
1674.439803	-3.012800	3.418400	-10.298000	25.576821	0.000665	20.782817
1675.440120	-3.003500	3.417800	-10.264000	25.615859	0.000662	20.784566
1676.440427	-2.998300	3.417400	-10.245000	25.627615	0.000662	20.782148
1677.440760	-3.002200	3.417400	-10.259000	25.633699	0.000663	20.784466
1678.442022	-2.997500	3.416600	-10.240000	25.704934	0.000664	20.773510
1679.442822	-3.004900	3.416800	-10.266000	25.716489	0.000661	20.768046
1680.442550	-2.991500	3.416200	-10.219000	25.733880	0.000663	20.789782
1681.444898	-2.996800	3.416600	-10.238000	25.708983	0.000660	20.775205
1682.442911	-3.003700	3.415300	-10.257000	25.721307	0.000661	20.779523
1683.443284	-2.992400	3.415900	-10.221000	25.730079	0.000660	20.767471
1684.443515	-2.994700	3.413900	-10.222000	25.744191	0.000657	20.767895
1685.444391	-2.996100	3.414200	-10.228000	25.760659	0.000658	20.795817
1686.446918	-2.984000	3.415600	-10.192000	25.771769	0.000658	20.756716
1687.444488	-3.003000	3.413200	-10.249000	25.794724	0.000659	20.784042
1688.445364	-2.992500	3.413800	-10.214000	25.784017	0.000657	20.766648
1689.444855	-2.990300	3.412600	-10.204000	25.769409	0.000657	20.783269
1690.444782	-3.000000	3.412800	-10.237000	25.725483	0.000655	20.780399
1691.447859	-3.014600	3.412300	-10.286000	25.715023	0.000656	20.777953
1692.448475	-2.993100	3.411800	-10.211000	25.728538	0.000656	20.775880
1693.443565	-3.001400	3.413900	-10.246000	25.694524	0.000655	20.781071
1694.444595	-2.977200	3.413000	-10.159000	25.694899	0.000655	20.781448
1695.444784	-3.017100	3.410800	-10.290000	25.690203	0.000654	20.778628
1696.444523	-2.964100	3.412200	-10.113000	25.643016	0.000654	20.782918
1697.448952	-2.999700	3.410800	-10.230000	25.608975	0.000653	20.770065
1698.445948	-2.992500	3.412400	-10.210000	25.584078	0.000653	20.789157
1699.451434	-2.989400	3.411100	-10.196000	25.583455	0.000653	20.789480
1700.446513	-3.003300	3.409800	-10.239000	25.538506	0.000652	20.791754
1701.446395	-3.001800	3.409700	-10.235000	25.499586	0.000651	20.782541
1702.447189	-3.021200	3.407200	-10.292000	25.502669	0.000655	20.790853
1703.447190	-3.012900	3.409000	-10.270000	25.510023	0.000650	20.775004
1704.446476	-2.997800	3.408000	-10.216000	25.545760	0.000652	20.778650
1705.448170	-3.006100	3.407300	-10.242000	25.566731	0.000651	20.787383
1706.448691	-3.011200	3.407100	-10.259000	25.581467	0.000651	20.789380
1707.447919	-3.002800	3.407600	-10.231000	25.574907	0.000649	20.790853
1708.448935	-3.006600	3.406600	-10.241000	25.565021	0.000651	20.802261
1709.448599	-3.010500	3.407000	-10.255000	25.570386	0.000651	20.792476
1710.449092	-2.990800	3.405600	-10.184000	25.533340	0.000651	20.798420
1711.449975	-2.991300	3.406100	-10.187000	25.553789	0.000650	20.782447
1712.449691	-2.990800	3.406400	-10.187000	25.542183	0.000648	20.785489
1713.453204	-3.009400	3.405200	-10.246000	25.549787	0.000648	20.800238
1714.450451	-3.000900	3.404900	-10.217000	25.520192	0.000648	20.772414
1715.452943	-3.024400	3.404300	-10.294000	25.526577	0.000647	20.776929
1716.450758	-2.987100	3.405400	-10.170000	25.583283	0.000646	20.795472
1717.450874	-3.005700	3.402900	-10.227000	25.581123	0.000646	20.785715
1718.454496	-2.998200	3.403800	-10.204000	25.601249	0.000645	20.771315
1719.454293	-3.007400	3.403100	-10.233000	25.628134	0.000644	20.785989
1720.452547	-3.006000	3.402500	-10.227000	25.654772	0.000645	20.808001
1721.452597	-2.982500	3.403500	-10.149000	25.646549	0.000644	20.815863
1722.451958	-2.993000	3.401600	-10.180000	25.700045	0.000645	20.781401
1723.453242	-3.022200	3.400400	-10.276000	25.728441	0.000642	20.786689
1724.455718	-2.983300	3.402800	-10.151000	25.747273	0.000641	20.786165
1725.454329	-2.994000	3.401200	-10.182000	25.759299	0.000643	20.823849
1726.455483	-2.978500	3.400600	-10.128000	25.758902	0.000642	20.810174
1727.453801	-2.989800	3.400300	-10.166000	25.736369	0.000640	20.797023
1728.453648	-2.988900	3.399800	-10.161000	25.715845	0.000640	20.787314
1729.454421	-2.983100	3.401100	-10.145000	25.700739	0.000639	20.800590
1730.453378	-3.008600	3.397700	-10.220000	25.713935	0.000637	20.804836
1731.456286	-2.992400	3.400200	-10.173000	25.728075	0.000637	20.819987
1732.454167	-2.991500	3.400600	-10.171000	25.759256	0.000638	20.797727
1733.454364	-2.985200	3.398700	-10.145000	25.763082	0.000639	20.801570
1734.453475	-3.000300	3.399100	-10.197000	25.768300	0.000637	20.797328
1735.455203	-3.004300	3.396800	-10.204000	25.759581	0.000637	20.807536
1736.454202	-3.002500	3.398100	-10.202000	25.716202	0.000638	20.806164
1737.455023	-2.997000	3.396700	-10.178000	25.721420	0.000637	20.799077
1738.452981	-3.009800	3.396000	-10.221000	25.761548	0.000637	20.792916
1739.454531	-3.010300	3.396300	-10.222000	25.731286	0.000637	20.808513
1740.455820	-2.991700	3.396700	-10.160000	25.785997	0.000636	20.830751
1741.453716	-3.005300	3.397000	-10.208000	25.775290	0.000636	20.811936
1742.453593	-3.001800	3.396400	-10.193000	25.765402	0.000635	20.800582
1743.453679	-2.990000	3.394800	-10.149000	25.745455	0.000635	20.818951
1744.453274	-3.013100	3.395100	-10.228000	25.768360	0.000634	20.799285
1745.454971	-3.030000	3.393100	-10.279000	25.775519	0.000634	20.821174
1746.457188	-3.004500	3.394000	-10.196000	25.781008	0.000633	20.815309
1747.454379	-2.993300	3.392700	-10.155000	25.811697	0.000633	20.811522
1748.455335	-2.999500	3.394300	-10.181000	25.780146	0.000632	20.794054
1749.455179	-3.016700	3.393500	-10.236000	25.786232	0.000634	20.809651
1750.456686	-3.005500	3.392400	-10.195000	25.793610	0.000633	20.824173
1751.459805	-2.989500	3.392300	-10.140000	25.794479	0.000630	20.820305
1752.456666	-3.019100	3.391500	-10.238000	25.753790	0.000631	20.821159
1753.458272	-2.980700	3.390900	-10.107000	25.723431	0.000632	20.815322
1754.456718	-2.988300	3.390800	-10.132000	25.676371	0.000631	20.820211
1755.456997	-2.980400	3.390700	-10.105000	25.639923	0.000630	20.804941
1756.462086	-2.988500	3.390200	-10.130000	25.638954	0.000629	20.809657
1757.457287	-3.001300	3.389500	-10.172000	25.648568	0.000628	20.824528
1758.459242	-3.005000	3.389900	-10.184000	25.621858	0.000629	20.813350
1759.460178	-2.986100	3.389700	-10.121000	25.567196	0.000627	20.802548
1760.456562	-3.016500	3.388200	-10.220000	25.586428	0.000627	20.826130
1761.456878	-2.985400	3.390000	-10.120000	25.594279	0.000629	20.823109
1762.458739	-3.022200	3.388800	-10.240000	25.637716	0.000626	20.810311
1763.456657	-3.037800	3.386900	-10.288000	25.670269	0.000626	20.829729
1764.457819	-2.984700	3.389100	-10.114000	25.717476	0.000625	20.823565
1765.457519	-3.012700	3.386500	-10.201000	25.714469	0.000625	20.817699
1766.457572	-3.009800	3.388300	-10.197000	25.682046	0.000628	20.837290
1767.461387	-3.020500	3.386800	-10.228000	25.705131	0.000625	20.840088
1768.458011	-2.991000	3.386900	-10.129000	25.639139	0.000625	20.841611
1769.461082	-2.982100	3.386700	-10.099000	25.636210	0.000623	20.823970
1770.457880	-2.978100	3.387900	-10.088000	25.620180	0.000623	20.840113
1771.457717	-3.001800	3.386900	-10.166000	25.619961	0.000622	20.828514
1772.461999	-3.000600	3.386900	-10.162000	25.606492	0.000622	20.838220
1773.462573	-2.990000	3.386100	-10.123000	25.633280	0.000623	20.834304
1774.459432	-2.966400	3.385400	-10.041000	25.647518	0.000624	20.837699
1775.459692	-2.991700	3.385900	-10.129000	25.661434	0.000622	20.831761
1776.458538	-3.008100	3.383600	-10.177000	25.665289	0.000619	20.828995
1777.459739	-2.992600	3.384300	-10.127000	25.695377	0.000621	20.822231
1778.461093	-3.002600	3.381800	-10.154000	25.715605	0.000620	20.820737
1779.458827	-2.988500	3.383900	-10.112000	25.742962	0.000619	20.848689
1780.462605	-3.016100	3.383200	-10.203000	25.777497	0.000621	20.831696
1781.460907	-2.983200	3.383100	-10.092000	25.795756	0.000617	20.851933
1782.461084	-2.992200	3.381300	-10.116000	25.824828	0.000617	20.850790
1783.462277	-3.007200	3.381300	-10.167000	25.798720	0.000620	20.832626
1784.463027	-3.020500	3.381300	-10.212000	25.787913	0.000618	20.858753
1785.464798	-2.995300	3.382200	-10.128000	25.767122	0.000617	20.839766
1786.463490	-2.988500	3.381400	-10.103000	25.747221	0.000616	20.843958
1787.464634	-3.010900	3.378900	-10.173000	25.768116	0.000614	20.844084
1788.463062	-3.000700	3.381100	-10.145000	25.790852	0.000615	20.849852
1789.468245	-3.046300	3.378500	-10.290000	25.778683	0.000615	20.840473
1790.464436	-3.016500	3.380000	-10.194000	25.769811	0.000614	20.840096
1791.466211	-3.015600	3.379700	-10.191000	25.767404	0.000614	20.852377
1792.467452	-2.997800	3.379300	-10.130000	25.762784	0.000614	20.856745
1793.466737	-3.017100	3.378300	-10.192000	25.723453	0.000614	20.840947
1794.469088	-2.980800	3.377900	-10.067000	25.694660	0.000614	20.850908
1795.466907	-2.985400	3.379400	-10.089000	25.693738	0.000613	20.839550
1796.466794	-2.991400	3.377900	-10.103000	25.694338	0.000612	20.871920
1797.465959	-2.976600	3.378500	-10.056000	25.714938	0.000613	20.840455
1798.468155	-3.016600	3.375800	-10.183000	25.747832	0.000611	20.848839
1799.471348	-2.987100	3.377500	-10.088000	25.747581	0.000611	20.848587
1800.468657	-3.006100	3.375900	-10.145000	25.775586	0.000610	20.873396
1801.467895	-3.015200	3.375100	-10.176000	25.787730	0.000610	20.856198
1802.466990	-3.010500	3.375300	-10.161000	25.814811	0.000610	20.865383
1803.467932	-2.994500	3.375800	-10.107000	25.819706	0.000607	20.851335
1804.468102	-3.006800	3.373700	-10.143000	25.862187	0.000609	20.850387
1805.469708	-2.998300	3.377100	-10.123000	25.879651	0.000608	20.841852
1806.467298	-3.010300	3.374900	-10.159000	25.843207	0.000609	20.853131
1807.468818	-2.992600	3.374200	-10.096000	25.800232	0.000607	20.871126
1808.467615	-3.002800	3.374200	-10.131000	25.767236	0.000606	20.864535
1809.466568	-3.024300	3.372700	-10.198000	25.766270	0.000605	20.855979
1810.472881	-2.988800	3.374500	-10.085000	25.788578	0.000606	20.857998
1811.468117	-2.997500	3.373800	-10.112000	25.788134	0.000604	20.870354
1812.471593	-3.007300	3.371600	-10.139000	25.822442	0.000606	20.862143
1813.466938	-2.999600	3.372800	-10.117000	25.855236	0.000603	20.864740
1814.467791	-2.984300	3.371900	-10.062000	25.840257	0.000602	20.858227
1815.468451	-2.996800	3.372000	-10.104000	25.830298	0.000602	20.872879
1816.471453	-2.997300	3.371400	-10.103000	25.879561	0.000602	20.876373
1817.466424	-2.980600	3.371500	-10.047000	25.883984	0.000602	20.874653
1818.466877	-2.984900	3.371000	-10.061000	25.881424	0.000600	20.871607
1819.466522	-2.981300	3.371300	-10.049000	25.860706	0.000601	20.865019
1820.469586	-3.016900	3.370400	-10.167000	25.872059	0.000599	20.879268
1821.472944	-3.001900	3.370200	-10.117000	25.880609	0.000601	20.885011
1822.469809	-3.009900	3.369200	-10.140000	25.876983	0.000598	20.878999
1823.473703	-2.986200	3.370400	-10.063000	25.884885	0.000602	20.878876
1824.471674	-2.993000	3.369100	-10.083000	25.907394	0.000600	20.871143
1825.471828	-2.979400	3.369500	-10.038000	25.933950	0.000597	20.900664
1826.472875	-2.998100	3.367300	-10.095000	25.952657	0.000600	20.878208
1827.472595	-3.014600	3.367300	-10.149000	25.962196	0.000598	20.882576
1828.472132	-3.005400	3.366900	-10.118000	25.974370	0.000598	20.889116
1829.473271	-2.992000	3.366600	-10.071000	25.978896	0.000598	20.887974
1830.473336	-2.991000	3.367200	-10.070000	25.966379	0.000595	20.884881
1831.473550	-3.007400	3.366400	-10.122000	25.950232	0.000596	20.892367
1832.474555	-2.995300	3.366900	-10.084000	25.920726	0.000595	20.908716
1833.480559	-3.012900	3.366300	-10.141000	25.892976	0.000596	20.892219
1834.474497	-3.011500	3.365200	-10.133000	25.876135	0.000595	20.871983
1835.473514	-3.011900	3.365300	-10.135000	25.893205	0.000594	20.877277
1836.473551	-3.013000	3.364400	-10.136000	25.924656	0.000593	20.884216
1837.479185	-3.006700	3.364000	-10.114000	25.905730	0.000595	20.886066
1838.475704	-2.989100	3.364700	-10.057000	25.930920	0.000593	20.898095
1839.476777	-3.002100	3.364200	-10.099000	25.923841	0.000593	20.884346
1840.475677	-2.993700	3.364400	-10.071000	25.955738	0.000592	20.888415
1841.475548	-2.972000	3.365200	-9.999800	25.961651	0.000593	20.891985
1842.478771	-3.011000	3.364300	-10.129000	25.971391	0.000592	20.884701
1843.477281	-3.006600	3.363100	-10.111000	25.950006	0.000592	20.897355
1844.476423	-2.999500	3.361300	-10.081000	25.966725	0.000590	20.900875
1845.477210	-2.985500	3.362700	-10.038000	25.987319	0.000590	20.895961
1846.477542	-2.995700	3.362800	-10.073000	25.991173	0.000590	20.897462
1847.477863	-3.007600	3.361900	-10.109000	25.959552	0.000588	20.892721
1848.480065	-2.977900	3.362500	-10.012000	25.942987	0.000589	20.921121
1849.479678	-3.014900	3.361100	-10.132000	25.943037	0.000589	20.886561
1850.482150	-3.003600	3.361300	-10.095000	25.901882	0.000587	20.913018
1851.480276	-2.996000	3.361000	-10.069000	25.920139	0.000589	20.906704
1852.479386	-2.977400	3.360300	-10.005000	25.935543	0.000586	20.907954
1853.482786	-2.977800	3.361200	-10.008000	25.942179	0.000587	20.896604
1854.479221	-3.010900	3.359200	-10.112000	25.954274	0.000585	20.909229
1855.481783	-2.983500	3.360700	-10.025000	25.937609	0.000585	20.915719
1856.480364	-2.991600	3.358800	-10.048000	25.932646	0.000585	20.905518
1857.481357	-2.996400	3.357700	-10.060000	25.937019	0.000583	20.916074
1858.480709	-3.021500	3.357000	-10.142000	25.908654	0.000587	20.929776
1859.481657	-3.020800	3.358000	-10.143000	25.883810	0.000583	20.909562
1860.480882	-2.984500	3.357200	-10.019000	25.922366	0.000581	20.904674
1861.480800	-2.984500	3.358600	-10.023000	25.927612	0.000582	20.898564
1862.481251	-2.987500	3.357700	-10.030000	25.938220	0.000582	20.904954
1863.481761	-2.987100	3.357400	-10.029000	25.938946	0.000581	20.904261
1864.483112	-3.010400	3.356900	-10.104000	25.988426	0.000584	20.911771
1865.482401	-2.988100	3.357800	-10.033000	25.995355	0.000581	20.901190
1866.483518	-3.007200	3.354900	-10.088000	25.979488	0.000581	20.932186
1867.482383	-2.999000	3.355500	-10.063000	25.997972	0.000579	20.928472
1868.483614	-3.002700	3.355100	-10.074000	25.997450	0.000579	20.937904
1869.482295	-2.997400	3.355400	-10.057000	25.988759	0.000579	20.913527
1870.485260	-2.999200	3.353800	-10.058000	25.979692	0.000579	20.937606
1871.482448	-3.004300	3.354200	-10.076000	25.989234	0.000578	20.925858
1872.484318	-2.984200	3.355600	-10.013000	25.995173	0.000580	20.941779
1873.483513	-2.995400	3.353500	-10.044000	26.007272	0.000577	20.929280
1874.483768	-2.994800	3.353800	-10.043000	26.026471	0.000577	20.940982
1875.485536	-3.013800	3.352900	-10.103000	26.038991	0.000575	20.945974
1876.484471	-3.015800	3.352900	-10.111000	26.055634	0.000574	20.941359
1877.488202	-2.999300	3.351600	-10.051000	26.092496	0.000577	20.947102
1878.485229	-2.987000	3.352200	-10.012000	26.087927	0.000577	20.946305
1879.486013	-2.978200	3.353700	-9.987000	26.058794	0.000574	20.945008
1880.492302	-3.002200	3.350700	-10.058000	26.046428	0.000573	20.915517
1881.486924	-2.981000	3.351800	-9.990300	26.025141	0.000572	20.948654
1882.486699	-3.020600	3.350100	-10.119000	25.998544	0.000572	20.935210
1883.485750	-2.986300	3.349400	-10.001000	25.964961	0.000571	20.955521
1884.486907	-2.995800	3.349100	-10.031000	25.939976	0.000571	20.951757
1885.486617	-3.015200	3.348900	-10.097000	25.934512	0.000573	20.927779
1886.488719	-3.021900	3.348400	-10.118000	25.957120	0.000569	20.951437
1887.489018	-2.985000	3.350100	-9.998400	25.964325	0.000570	20.950141
1888.489666	-3.011300	3.348400	-10.082000	25.999152	0.000570	20.960474
1889.489563	-2.995200	3.348400	-10.028000	25.988898	0.000569	20.952543
1890.489787	-2.979700	3.349800	-9.980100	25.984054	0.000569	20.938195
1891.493259	-2.978800	3.349800	-9.976400	25.957578	0.000568	20.962801
1892.491197	-2.994700	3.346500	-10.021000	25.927547	0.000567	20.964399
1893.492624	-2.983100	3.347000	-9.983200	25.965977	0.000569	20.964126
1894.490025	-3.014200	3.348100	-10.091000	25.985577	0.000567	20.969593
1895.491426	-2.983900	3.347000	-9.986500	26.020797	0.000568	20.944764
1896.493361	-2.987000	3.345200	-9.990600	26.038484	0.000568	20.942146
1897.492429	-2.997200	3.346500	-10.028000	26.033171	0.000568	20.951980
1898.491248	-3.009100	3.345600	-10.066000	26.058183	0.000564	20.968573
1899.491202	-3.009900	3.344100	-10.065000	26.043235	0.000566	20.942652
1900.493566	-2.979500	3.345700	-9.965800	26.065662	0.000563	20.947167
1901.491074	-2.991700	3.345200	-10.006000	26.062137	0.000564	20.942203
1902.494205	-3.021200	3.344200	-10.102000	26.095045	0.000563	20.943026
1903.491262	-3.021600	3.344300	-10.104000	26.104608	0.000562	20.945048
1904.493395	-3.005000	3.343800	-10.047000	26.094874	0.000563	20.936216
1905.493501	-3.013300	3.344000	-10.075000	26.086605	0.000564	20.940235
1906.494422	-2.998600	3.343400	-10.025000	26.021133	0.000562	20.945102
1907.498656	-2.989700	3.342000	-9.990600	25.977246	0.000563	20.955536
1908.494751	-3.013500	3.342000	-10.070000	25.953749	0.000562	20.938095
1909.499682	-2.986400	3.342100	-9.979700	25.936089	0.000561	20.954490
1910.499517	-2.992000	3.342300	-9.998500	25.903673	0.000561	20.937100
1911.497102	-3.015000	3.341100	-10.073000	25.897984	0.000559	20.934704
1912.496706	-3.014800	3.339700	-10.068000	25.952412	0.000558	20.935329
1913.500670	-2.980800	3.341400	-9.959200	25.965008	0.000559	20.960783
1914.497265	-3.013700	3.338600	-10.060000	26.018563	0.000557	20.933038
1915.498842	-2.995000	3.340700	-10.004000	26.043475	0.000557	20.932463
1916.498287	-2.988400	3.341200	-9.984300	26.051945	0.000557	20.936231
1917.499873	-3.002500	3.340700	-10.029000	26.069209	0.000555	20.928448
1918.503116	-3.007000	3.339500	-10.040000	26.090745	0.000553	20.915475
1919.499950	-3.033700	3.338500	-10.127000	26.072641	0.000555	20.915776
1920.502051	-2.988700	3.339800	-9.980100	26.090080	0.000554	20.916703
1921.503664	-3.015300	3.339400	-10.068000	26.066610	0.000553	20.922044
1922.502026	-2.990700	3.337700	-9.981400	26.072945	0.000553	20.918452
1923.505001	-2.992100	3.340300	-9.993700	26.113503	0.000555	20.927909
1924.503577	-2.994400	3.337600	-9.993400	26.097287	0.000551	20.912091
1925.502335	-3.003400	3.337900	-10.024000	26.081497	0.000551	20.913769
1926.504469	-2.986700	3.336600	-9.963900	26.056857	0.000549	20.930262
1927.502838	-2.972000	3.336900	-9.916700	26.045134	0.000549	20.935552
1928.502077	-3.019700	3.335400	-10.071000	26.075888	0.000549	20.931839
1929.504655	-3.001500	3.335200	-10.009000	26.125537	0.000549	20.928147
1930.503846	-2.989200	3.336300	-9.971600	26.134581	0.000548	20.933915
1931.504503	-2.994900	3.336600	-9.991700	26.161754	0.000549	20.927554
1932.511183	-3.003800	3.335600	-10.018000	26.172060	0.000547	20.912307
1933.505206	-2.978100	3.334600	-9.929700	26.180507	0.000547	20.904201
1934.506486	-2.998000	3.333000	-9.989400	26.188382	0.000547	20.914010
1935.505268	-2.993900	3.333700	-9.979900	26.194345	0.000547	20.922372
1936.504248	-3.002500	3.333600	-10.008000	26.213394	0.000548	20.923496
1937.510438	-2.985300	3.332200	-9.945800	26.219406	0.000546	20.934278
1938.505537	-3.021600	3.332600	-10.069000	26.257901	0.000544	20.899471
1939.504751	-3.020500	3.331000	-10.061000	26.245908	0.000546	20.935780
1940.506414	-3.023900	3.331300	-10.072000	26.226416	0.000544	20.921884
1941.505307	-3.010500	3.332500	-10.032000	26.204715	0.000545	20.913827
1942.506407	-3.023600	3.330400	-10.069000	26.173401	0.000543	20.904173
1943.506667	-3.015700	3.330700	-10.042000	26.134833	0.000543	20.906669
1944.506774	-3.006200	3.331400	-10.014000	26.146655	0.000542	20.909539
1945.509940	-2.995800	3.331100	-9.976700	26.146058	0.000541	20.916525
1946.507408	-2.986200	3.331200	-9.946800	26.198342	0.000542	20.902209
1947.511550	-2.988700	3.330400	-9.952200	26.218778	0.000542	20.915157
1948.507253	-2.986400	3.330800	-9.946300	26.241526	0.000541	20.919524
1949.506699	-2.997500	3.328400	-9.974600	26.264671	0.000539	20.915757
1950.511327	-2.996300	3.329500	-9.975100	26.237848	0.000540	20.895916
1951.511789	-2.986000	3.329100	-9.939800	26.215454	0.000539	20.906601
1952.508292	-2.993300	3.329300	-9.964400	26.202067	0.000538	20.895521
1953.507825	-2.988200	3.329400	-9.946700	26.124384	0.000537	20.912291
1954.507355	-2.981300	3.328800	-9.923400	26.087225	0.000537	20.902456
1955.506643	-2.984400	3.327000	-9.928400	26.045225	0.000535	20.898189
1956.510868	-2.988800	3.328400	-9.947800	26.032633	0.000536	20.889806
1957.506992	-3.015300	3.326700	-10.030000	26.039416	0.000536	20.894249
1958.512829	-3.004600	3.327300	-9.995000	26.036309	0.000535	20.910092
1959.510760	-2.988300	3.328100	-9.944300	26.076643	0.000535	20.885187
1960.510984	-2.986300	3.327400	-9.935500	26.120283	0.000533	20.895370
1961.514466	-3.018900	3.325400	-10.039000	26.153064	0.000532	20.882791
1962.511739	-2.994900	3.325200	-9.957600	26.145017	0.000534	20.902679
1963.514519	-3.007500	3.324000	-9.995000	26.213959	0.000533	20.883765
1964.513553	-2.992200	3.325300	-9.948200	26.236136	0.000532	20.892299
1965.513926	-2.988900	3.325000	-9.936700	26.242495	0.000531	20.895370
1966.513330	-3.007400	3.324300	-9.996600	26.288312	0.000531	20.885464
1967.517842	-3.002100	3.324500	-9.979300	26.274008	0.000530	20.883416
1968.514827	-2.985300	3.323900	-9.922400	26.310183	0.000530	20.884684
1969.515414	-3.012500	3.322700	-10.009000	26.307999	0.000527	20.902876
1970.516770	-3.009100	3.321200	-9.993000	26.317657	0.000530	20.888402
1971.516411	-2.976000	3.322600	-9.887100	26.305490	0.000527	20.906044
1972.519751	-3.014800	3.322300	-10.014000	26.323390	0.000529	20.878991
1973.517446	-3.010800	3.321800	-9.999800	26.297416	0.000527	20.892715
1974.517372	-3.006700	3.320600	-9.983500	26.313257	0.000526	20.882083
1975.516895	-3.023400	3.319900	-10.036000	26.306108	0.000525	20.902399
1976.530581	-2.977500	3.321200	-9.887500	26.279508	0.000525	20.862867
1977.520020	-2.984400	3.321800	-9.912400	26.307198	0.000526	20.886426
1978.522264	-2.984800	3.322000	-9.913900	26.285817	0.000523	20.866836
1979.519890	-2.990800	3.320700	-9.929100	26.311169	0.000525	20.876193
1980.519558	-2.987200	3.320600	-9.918000	26.312581	0.000524	20.868603
1981.522270	-2.997000	3.320300	-9.949200	26.334334	0.000521	20.875765
1982.520847	-3.014400	3.318800	-10.003000	26.281885	0.000521	20.897495
1983.524084	-3.009400	3.318200	-9.984700	26.257897	0.000520	20.871020
1984.520562	-3.003700	3.319000	-9.968600	26.249872	0.000521	20.875284
1985.522454	-2.986000	3.317500	-9.905700	26.259906	0.000521	20.894848
1986.521430	-2.999100	3.317000	-9.946300	26.266808	0.000520	20.879500
1987.521962	-2.983500	3.318100	-9.898800	26.258090	0.000522	20.883067
1988.523580	-3.016300	3.316200	-10.001000	26.281159	0.000520	20.852199
1989.523956	-2.993500	3.317300	-9.929400	26.290942	0.000517	20.888106
1990.526231	-3.003800	3.315200	-9.956900	26.332457	0.000518	20.885258
1991.521334	-2.987500	3.315700	-9.904900	26.334494	0.000516	20.884461
1992.523677	-2.994900	3.315400	-9.928400	26.335684	0.000517	20.864321
1993.522034	-2.999800	3.314000	-9.939000	26.368088	0.000515	20.880290
1994.524538	-2.975600	3.315300	-9.864400	26.397459	0.000516	20.873775
1995.522589	-2.994700	3.314200	-9.924600	26.397580	0.000513	20.871052
1996.523514	-2.965600	3.317000	-9.835300	26.426057	0.000512	20.867431
1997.521899	-2.987700	3.313700	-9.899300	26.445299	0.000514	20.875391
1998.522574	-2.984400	3.314900	-9.892100	26.445867	0.000513	20.877858
1999.526567	-3.012300	3.313300	-9.979500	26.456642	0.000514	20.879679
2000.522970	-2.993800	3.313300	-9.918700	26.411501	0.000513	20.864181
2001.527535	-3.021200	3.312700	-10.008000	26.350270	0.000513	20.853376
2002.523859	-2.987000	3.314000	-9.897600	26.300009	0.000512	20.864978
2003.529600	-2.999300	3.312300	-9.933200	26.268244	0.000511	20.857237
2004.523612	-3.000300	3.311200	-9.933200	26.301693	0.000508	20.872359
2005.528407	-2.987000	3.312900	-9.894400	26.294015	0.000511	20.868437
2006.524407	-3.015300	3.310400	-9.980500	26.276983	0.000509	20.874080
2007.525707	-3.018200	3.311600	-9.994300	26.235484	0.000509	20.864619
2008.526702	-2.985600	3.311500	-9.885700	26.200989	0.000507	20.856508
2009.527865	-3.000000	3.310700	-9.931200	26.158275	0.000506	20.848200
2010.532099	-2.991800	3.309800	-9.901300	26.120346	0.000507	20.848494
2011.528968	-3.030100	3.309000	-10.026000	26.126705	0.000507	20.851091
2012.534704	-3.002400	3.309500	-9.935300	26.164030	0.000506	20.885275
2013.529876	-2.996200	3.309200	-9.913300	26.215066	0.000506	20.855481
2014.530484	-2.943700	3.309700	-9.740200	26.273841	0.000504	20.859543
2015.532252	-2.990100	3.307600	-9.888500	26.284421	0.000505	20.859270
2016.531211	-3.012400	3.307700	-9.962700	26.300810	0.000504	20.856300
2017.530726	-3.008000	3.308100	-9.948300	26.306371	0.000504	20.858095
2018.530190	-2.986900	3.308600	-9.882100	26.318270	0.000502	20.856303
2019.531923	-3.010200	3.306700	-9.953200	26.311336	0.000503	20.851231
2020.531184	-3.012300	3.305000	-9.955200	26.306990	0.000503	20.844493
2021.531898	-3.008900	3.306500	-9.947400	26.258250	0.000503	20.834867
2022.531610	-3.000300	3.304000	-9.911400	26.261152	0.000499	20.831619
2023.533140	-2.992200	3.306000	-9.889900	26.301553	0.000501	20.831918
2024.532288	-3.001300	3.304400	-9.916100	26.353354	0.000501	20.837984
2025.533060	-2.998800	3.305100	-9.909900	26.365517	0.000502	20.842622
2026.533303	-2.998500	3.304300	-9.907100	26.367905	0.000501	20.854029
2027.533395	-2.982000	3.304100	-9.851900	26.355438	0.000500	20.859992
2028.535476	-3.010300	3.303500	-9.943300	26.359488	0.000500	20.862165
2029.532768	-3.008300	3.302600	-9.933300	26.391793	0.000499	20.831099
2030.532495	-3.024400	3.301800	-9.984900	26.352014	0.000497	20.843749
2031.533529	-3.025600	3.302100	-9.989900	26.346649	0.000497	20.853530
2032.536571	-3.020000	3.301800	-9.970200	26.324203	0.000496	20.841404
2033.533687	-3.019700	3.300800	-9.966200	26.314792	0.000495	20.847593
2034.532544	-3.020800	3.301300	-9.971300	26.308584	0.000496	20.849414
2035.536186	-2.976400	3.301400	-9.824900	26.331480	0.000495	20.831648
2036.533658	-3.020400	3.300000	-9.966100	26.350849	0.000495	20.824561
2037.534674	-2.999500	3.301000	-9.900100	26.367186	0.000493	20.855678
2038.533184	-2.988500	3.300400	-9.861900	26.335655	0.000494	20.835370
2039.532164	-3.000100	3.299400	-9.897100	26.342135	0.000494	20.844252
2040.537807	-2.983000	3.301200	-9.846300	26.295602	0.000492	20.825463
2041.534110	-2.984300	3.301500	-9.852000	26.275861	0.000490	20.852564
2042.534475	-2.986200	3.299800	-9.853600	26.273330	0.000488	20.838642
2043.534832	-3.014600	3.297800	-9.940800	26.223166	0.000489	20.846551
2044.534404	-3.000900	3.298300	-9.896500	26.198108	0.000490	20.828958
2045.539963	-2.986600	3.298900	-9.851600	26.210701	0.000491	20.834026
2046.535120	-2.990100	3.296600	-9.856400	26.249814	0.000489	20.845355
2047.536355	-3.020300	3.296300	-9.955100	26.233546	0.000489	20.841810
2048.538064	-2.985000	3.297700	-9.842200	26.267322	0.000488	20.838293
2049.536430	-3.006700	3.296000	-9.908800	26.240131	0.000489	20.848426
2050.536851	-3.002100	3.295000	-9.891500	26.224907	0.000489	20.837396
2051.537359	-3.013100	3.295000	-9.925900	26.211177	0.000486	20.816013
2052.537158	-2.981900	3.296200	-9.828200	26.255630	0.000486	20.845036
2053.547276	-2.990100	3.295000	-9.851100	26.284536	0.000485	20.844213
2054.538746	-2.988600	3.296100	-9.848900	26.327721	0.000483	20.838775
2055.538394	-2.986000	3.294900	-9.837500	26.384656	0.000484	20.828193
2056.538065	-3.022600	3.292500	-9.951200	26.417137	0.000483	20.819587
2057.537152	-3.012600	3.294700	-9.924500	26.426150	0.000483	20.815370
2058.539680	-3.003300	3.292000	-9.886200	26.471684	0.000481	20.829842
2059.539516	-2.994500	3.293900	-9.862300	26.489539	0.000484	20.841623
2060.540906	-2.971700	3.293900	-9.788100	26.523306	0.000480	20.829573
2061.537800	-2.976600	3.293200	-9.801200	26.528645	0.000480	20.840154
2062.540320	-2.988200	3.294100	-9.842300	26.539640	0.000481	20.826552
2063.540462	-3.009100	3.292000	-9.905300	26.574892	0.000479	20.835909
2064.542550	-3.006600	3.291100	-9.893900	26.564019	0.000477	20.828297
2065.539349	-2.983300	3.292200	-9.821000	26.510948	0.000478	20.818100
2066.540666	-2.995500	3.292600	-9.861900	26.445199	0.000477	20.829774
2067.543021	-2.998500	3.290500	-9.865800	26.398274	0.000476	20.828129
2068.542512	-3.001600	3.289700	-9.873400	26.364878	0.000478	20.822065
2069.541978	-3.005200	3.289600	-9.884000	26.375704	0.000474	20.817299
2070.541927	-2.984800	3.289200	-9.816600	26.373670	0.000475	20.827583
2071.543914	-3.004300	3.289000	-9.880100	26.336599	0.000474	20.823991
2072.542096	-3.007600	3.288600	-9.890700	26.321452	0.000473	20.825837
2073.542919	-3.006700	3.287600	-9.883900	26.342011	0.000475	20.820894
2074.543911	-2.999000	3.286900	-9.855900	26.355993	0.000473	20.819774
2075.545688	-3.025900	3.286600	-9.944200	26.388996	0.000473	20.837296
2076.543103	-3.005600	3.287400	-9.878200	26.410250	0.000471	20.813139
2077.546582	-2.979900	3.287700	-9.795800	26.455042	0.000470	20.826865
2078.543517	-3.010600	3.285800	-9.891300	26.470284	0.000469	20.807572
2079.544896	-2.994800	3.287900	-9.845600	26.497548	0.000471	20.809371
2080.545471	-3.005100	3.285900	-9.873200	26.500103	0.000470	20.808147
2081.545161	-2.980800	3.285800	-9.793600	26.524661	0.000466	20.825719
2082.554121	-2.997600	3.285300	-9.846500	26.577612	0.000466	20.827737
2083.545340	-2.992000	3.285000	-9.827600	26.576372	0.000466	20.818905
2084.546665	-2.983600	3.285100	-9.800100	26.565674	0.000465	20.818581
2085.546234	-3.000400	3.284600	-9.854000	26.518132	0.000465	20.812992
2086.549316	-2.987100	3.285500	-9.813300	26.526397	0.000468	20.813714
2087.546183	-3.008300	3.285200	-9.881800	26.472946	0.000464	20.817834
2088.549096	-3.012100	3.283200	-9.888400	26.434957	0.000463	20.805729
2089.547259	-2.964000	3.284800	-9.734800	26.431554	0.000462	20.811318
2090.549324	-2.991700	3.283000	-9.820600	26.420954	0.000462	20.820579
2091.551368	-3.016800	3.281900	-9.900000	26.397513	0.000462	20.801760
2092.554995	-2.988600	3.283500	-9.811400	26.376233	0.000460	20.814512
2093.550153	-3.021200	3.281000	-9.911600	26.392002	0.000460	20.801437
2094.549318	-3.000400	3.281000	-9.843500	26.457447	0.000461	20.811264
2095.550640	-2.972100	3.281900	-9.753300	26.471402	0.000463	20.813912
2096.553440	-3.012200	3.280200	-9.878500	26.480340	0.000460	20.803929
2097.556436	-3.008600	3.280500	-9.867400	26.501839	0.000458	20.801357
2098.550787	-2.995600	3.280200	-9.825200	26.475373	0.000457	20.792772
2099.551701	-2.988400	3.280600	-9.803400	26.491537	0.000459	20.791476
2100.550662	-3.011400	3.279600	-9.875400	26.485129	0.000457	20.804475
2101.551908	-2.998800	3.277800	-9.828700	26.497047	0.000456	20.822619
2102.559520	-3.008500	3.279300	-9.865100	26.498316	0.000454	20.806351
2103.552805	-3.017800	3.278300	-9.892000	26.490868	0.000455	20.803606
2104.553382	-3.003800	3.277200	-9.843500	26.491486	0.000454	20.788580
2105.551978	-2.979000	3.278000	-9.764500	26.538007	0.000451	20.800255
2106.552499	-2.995800	3.277100	-9.816300	26.547149	0.000451	20.798538
2107.556074	-3.000700	3.277700	-9.834300	26.580882	0.000451	20.811584
2108.554530	-3.001500	3.275600	-9.831000	26.592348	0.000452	20.791817
2109.556785	-3.020400	3.275500	-9.892200	26.597708	0.000449	20.799101
2110.554516	-2.998100	3.276900	-9.823700	26.603644	0.000449	20.793688
2111.554802	-3.003700	3.275300	-9.836000	26.608378	0.000448	20.779955
2112.554318	-2.995400	3.274000	-9.806100	26.634888	0.000448	20.784320
2113.558102	-2.968700	3.274600	-9.720400	26.617383	0.000446	20.763403
2114.553257	-3.002300	3.273900	-9.827500	26.571826	0.000447	20.793946
2115.553959	-2.998300	3.274100	-9.814600	26.577980	0.000446	20.795865
2116.554355	-2.982400	3.275500	-9.768400	26.538475	0.000444	20.795035
2117.556068	-2.978400	3.272400	-9.745500	26.554484	0.000445	20.788368
2118.558410	-2.996000	3.274000	-9.807700	26.557957	0.000443	20.791859
2119.554902	-3.004100	3.272200	-9.828900	26.562246	0.000442	20.779100
2120.558753	-3.009800	3.270900	-9.843500	26.546451	0.000442	20.787879
2121.558577	-2.997000	3.271300	-9.802100	26.514568	0.000442	20.795185
2122.558032	-2.997600	3.270400	-9.802700	26.484645	0.000440	20.791187
2123.559983	-2.988100	3.270500	-9.771600	26.478113	0.000437	20.767077
2124.559617	-3.005900	3.270700	-9.830800	26.475722	0.000440	20.777476
2125.558034	-2.996700	3.270600	-9.800700	26.508067	0.000438	20.789599
2126.557431	-2.995900	3.269500	-9.793000	26.543613	0.000438	20.782656
2127.558936	-3.005100	3.270600	-9.826900	26.591000	0.000438	20.781453
2128.560706	-2.988700	3.270100	-9.772100	26.610407	0.000438	20.809022
2129.561966	-2.988100	3.270900	-9.773300	26.621373	0.000436	20.768837
2130.561239	-2.993600	3.268200	-9.782900	26.630828	0.000434	20.790196
2131.560513	-2.978500	3.268900	-9.734900	26.679902	0.000435	20.764139
2132.561486	-3.013000	3.266700	-9.841000	26.660904	0.000434	20.750729
2133.561464	-2.997400	3.266600	-9.790400	26.649977	0.000434	20.776729
2134.565898	-2.995500	3.267000	-9.785500	26.647294	0.000434	20.766445
2135.565046	-3.004700	3.266600	-9.813900	26.666628	0.000432	20.774028
2136.565216	-2.997400	3.266400	-9.789500	26.668114	0.000433	20.765565
2137.563770	-2.993900	3.266100	-9.777800	26.689878	0.000431	20.767530
2138.564151	-2.999100	3.265800	-9.793100	26.682078	0.000431	20.774862
2139.565523	-3.010000	3.265300	-9.827800	26.658146	0.000430	20.765975
2140.565400	-2.994800	3.264000	-9.772800	26.618716	0.000429	20.788451
2141.565618	-3.016100	3.263600	-9.842300	26.619902	0.000429	20.773997
2142.565705	-3.012600	3.263900	-9.832000	26.643332	0.000428	20.776687
2143.567220	-2.994000	3.266200	-9.778200	26.629801	0.000427	20.768300
2144.567341	-3.020800	3.261900	-9.853200	26.648513	0.000429	20.770990
2145.571832	-2.976600	3.263400	-9.713100	26.653495	0.000428	20.777895
2146.571261	-3.005000	3.262000	-9.800900	26.627003	0.000424	20.769755
2147.573319	-2.981200	3.262700	-9.725400	26.606765	0.000426	20.777385
2148.576751	-2.982700	3.262800	-9.731100	26.603781	0.000424	20.785766
2149.569326	-2.994500	3.262900	-9.769800	26.602038	0.000425	20.762202
2150.571084	-2.995000	3.261600	-9.767800	26.664415	0.000424	20.775597
2151.569632	-2.997400	3.260900	-9.772600	26.658899	0.000422	20.755352
2152.570685	-2.994600	3.260800	-9.763700	26.675725	0.000420	20.773216
2153.571207	-2.984300	3.260700	-9.729800	26.652632	0.000419	20.759009
2154.571464	-3.018700	3.258600	-9.835400	26.636493	0.000420	20.762225
2155.570340	-2.997900	3.261100	-9.775700	26.605506	0.000420	20.768059
2156.573264	-2.988700	3.259100	-9.739500	26.579185	0.000419	20.743496
2157.571432	-3.025300	3.257800	-9.854500	26.529700	0.000419	20.755868
2158.572243	-2.985700	3.257900	-9.725900	26.507201	0.000417	20.777823
2159.570799	-3.012000	3.257700	-9.811300	26.502577	0.000416	20.771279
2160.572969	-3.006300	3.257900	-9.792200	26.502774	0.000416	20.771951
2161.574120	-2.991600	3.257500	-9.744500	26.474311	0.000416	20.782222
2162.574148	-3.004800	3.256200	-9.782700	26.500552	0.000415	20.756915
2163.575456	-2.984800	3.257000	-9.719900	26.521126	0.000414	20.779967
2164.573512	-2.978300	3.256300	-9.697600	26.503794	0.000411	20.746897
2165.573427	-2.985400	3.256500	-9.720700	26.475606	0.000414	20.747961
2166.577903	-2.993900	3.256000	-9.747300	26.447248	0.000411	20.763081
2167.577250	-3.014500	3.253700	-9.807400	26.459982	0.000411	20.761181
2168.573596	-3.022700	3.253900	-9.834400	26.464268	0.000411	20.760273
2169.575194	-3.008500	3.253800	-9.787300	26.519110	0.000409	20.746645
2170.572644	-2.995900	3.255000	-9.750100	26.549021	0.000409	20.747314
2171.574419	-3.011900	3.253000	-9.796900	26.589930	0.000408	20.763781
2172.577860	-3.043200	3.250800	-9.890800	26.615469	0.000407	20.750099
2173.575447	-3.013400	3.251200	-9.796200	26.645477	0.000409	20.736643
2174.577055	-2.986000	3.252300	-9.709300	26.696209	0.000406	20.744496
2175.575040	-2.987000	3.252000	-9.712100	26.689331	0.000408	20.753703
2176.582908	-2.989500	3.251100	-9.718800	26.676415	0.000406	20.756366
2177.577956	-2.997300	3.251800	-9.744800	26.676187	0.000403	20.760404
2178.576570	-2.992500	3.250500	-9.725900	26.676231	0.000404	20.749542
2179.579170	-2.996600	3.249900	-9.738100	26.656418	0.000404	20.749065
2180.577263	-3.006900	3.250200	-9.771100	26.631139	0.000404	20.761585
2181.577796	-2.999000	3.250500	-9.747200	26.635628	0.000403	20.736698
2182.577690	-2.996200	3.248600	-9.732400	26.604988	0.000401	20.745727
2183.583213	-2.982000	3.250200	-9.691100	26.577874	0.000403	20.745972
2184.578970	-2.996700	3.247600	-9.730500	26.584125	0.000401	20.761739
2185.579746	-2.998900	3.247200	-9.736300	26.579827	0.000400	20.753150
2186.580712	-3.010500	3.247500	-9.775800	26.607874	0.000400	20.734403
2187.579656	-3.006500	3.244200	-9.752500	26.622068	0.000398	20.765268
2188.583510	-2.992900	3.247900	-9.719900	26.630455	0.000399	20.738137
2189.581059	-3.002900	3.246200	-9.745700	26.679951	0.000398	20.764188
2190.584566	-2.990400	3.246400	-9.707000	26.720580	0.000400	20.758093
2191.581358	-2.998200	3.245900	-9.731200	26.761804	0.000398	20.748330
2192.580765	-2.986400	3.244100	-9.686600	26.779922	0.000397	20.744735
2193.584660	-2.984700	3.244400	-9.682300	26.839292	0.000396	20.745633
2194.581058	-2.988700	3.244600	-9.696000	26.853979	0.000395	20.754237
2195.581018	-3.003500	3.242100	-9.737100	26.884849	0.000397	20.761570
2196.581848	-2.999300	3.244600	-9.730500	26.924730	0.000395	20.760894
2197.580364	-2.986200	3.243100	-9.682600	26.935301	0.000396	20.739755
2198.581255	-2.993500	3.242700	-9.706100	26.939891	0.000394	20.759070
2199.582506	-3.003200	3.242500	-9.736600	26.955049	0.000393	20.747759
2200.582339	-3.001600	3.241300	-9.727500	26.913854	0.000392	20.747112
2201.581423	-2.998300	3.239900	-9.713100	26.880246	0.000391	20.770692
2202.581912	-2.990100	3.241100	-9.690000	26.875556	0.000391	20.760286
2203.580763	-2.971000	3.241100	-9.628300	26.850413	0.000390	20.733581
2204.588554	-3.013500	3.239500	-9.761100	26.884091	0.000391	20.753220
2205.581827	-2.999200	3.239900	-9.716300	26.886545	0.000390	20.740041
2206.584940	-3.012300	3.238700	-9.754300	26.911137	0.000390	20.764770
2207.585170	-3.010500	3.238400	-9.748700	26.917146	0.000387	20.746155
2208.585447	-3.011800	3.238600	-9.752400	26.937172	0.000388	20.744007
2209.586551	-2.984600	3.237600	-9.662700	26.947371	0.000385	20.763272
2210.589175	-2.997700	3.236900	-9.701900	26.948585	0.000388	20.748846
2211.585219	-2.977300	3.237100	-9.636400	26.913170	0.000385	20.755908
2212.585342	-2.995700	3.237500	-9.696300	26.923719	0.000385	20.769835
2213.585085	-2.983000	3.237100	-9.655400	26.982906	0.000384	20.735469
2214.585821	-2.982300	3.236400	-9.650600	26.962781	0.000384	20.782088
2215.589323	-2.995300	3.235500	-9.690700	26.985910	0.000383	20.753189
2216.585259	-3.007300	3.236200	-9.731200	26.949057	0.000382	20.766865
2217.586894	-3.005000	3.233500	-9.715600	26.901457	0.000381	20.756932
2218.586483	-2.984200	3.235100	-9.652700	26.883310	0.000380	20.773299
2219.584732	-2.992900	3.233600	-9.676300	26.840576	0.000380	20.760675
2220.586941	-3.003200	3.232500	-9.706300	26.789520	0.000379	20.758653
2221.588570	-2.991400	3.232600	-9.669500	26.769713	0.000379	20.774301
2222.586782	-2.970000	3.234400	-9.604600	26.745639	0.000378	20.777598
2223.587081	-3.010900	3.233400	-9.734300	26.725606	0.000378	20.754137
2224.586599	-2.982100	3.233400	-9.640800	26.704158	0.000379	20.749170
2225.587711	-3.017500	3.231400	-9.749500	26.709196	0.000378	20.763244
2226.588004	-3.017200	3.229600	-9.742800	26.702744	0.000376	20.772404
2227.586998	-3.002600	3.230000	-9.697600	26.701304	0.000375	20.771430
2228.588229	-2.999100	3.230900	-9.688300	26.746180	0.000375	20.780038
2229.586719	-3.007000	3.229800	-9.711400	26.742757	0.000376	20.786553
2230.587106	-2.989900	3.230500	-9.657600	26.795379	0.000374	20.759328
2231.591888	-3.003900	3.228400	-9.697200	26.846529	0.000372	20.772825
2232.588403	-2.981300	3.229600	-9.627700	26.876755	0.000370	20.788045
2233.593517	-2.998600	3.228400	-9.679100	26.889709	0.000371	20.767879
2234.590928	-2.987300	3.228400	-9.641900	26.916959	0.000372	20.754502
2235.589854	-3.004800	3.226500	-9.693800	26.905070	0.000369	20.777636
2236.590530	-2.989800	3.226800	-9.646300	26.888713	0.000369	20.795327
2237.594401	-2.982600	3.226400	-9.621900	26.897173	0.000368	20.761159
2238.592956	-2.995900	3.226200	-9.663600	26.839590	0.000367	20.778176
2239.592519	-2.986900	3.225300	-9.630900	26.813378	0.000368	20.757985
2240.592061	-3.007600	3.226100	-9.702200	26.814022	0.000366	20.783763
2241.600307	-3.006000	3.224300	-9.691100	26.853631	0.000365	20.781389
2242.596442	-2.990800	3.225000	-9.644000	26.890806	0.000364	20.769457
2243.592629	-2.998400	3.223200	-9.662800	26.877897	0.000362	20.773071
2244.595634	-2.975000	3.223100	-9.587200	26.908766	0.000362	20.771394
2245.594072	-3.000900	3.222000	-9.666800	26.968151	0.000363	20.780375
2246.593554	-3.006200	3.222100	-9.685200	26.992913	0.000360	20.790578
2247.593122	-3.018000	3.221200	-9.720700	26.998443	0.000363	20.785234
2248.593728	-2.996500	3.221400	-9.652300	27.045714	0.000359	20.766864
2249.593308	-2.977000	3.220200	-9.584400	27.039011	0.000361	20.790943
2250.594059	-3.040000	3.219300	-9.784700	27.003968	0.000358	20.800272
2251.593085	-3.017500	3.218700	-9.711300	26.977835	0.000360	20.786795
2252.593629	-3.015700	3.218100	-9.703600	26.916038	0.000359	20.817587
2253.595450	-3.009400	3.218500	-9.684100	26.928145	0.000357	20.780924
2254.594244	-3.019500	3.218500	-9.717600	26.943952	0.000360	20.788284
2255.593760	-3.018300	3.217500	-9.710800	26.941467	0.000357	20.793846
2256.592706	-3.009800	3.218000	-9.684900	26.911338	0.000357	20.781094
2257.593550	-3.007700	3.216700	-9.673900	26.869021	0.000357	20.772681
2258.598183	-3.000500	3.218200	-9.655300	26.866167	0.000357	20.791623
2259.593687	-3.005800	3.218100	-9.671200	26.877828	0.000355	20.801925
2260.599818	-2.991800	3.215000	-9.617600	26.885173	0.000354	20.816897
2261.596114	-2.981200	3.216200	-9.586100	26.900063	0.000353	20.778764
2262.594797	-2.983400	3.216000	-9.592300	26.872810	0.000355	20.785026
2263.597114	-3.004000	3.215000	-9.656200	26.916614	0.000353	20.795407
2264.598706	-3.010100	3.215900	-9.679600	26.930882	0.000352	20.791262
2265.595477	-3.020200	3.213200	-9.703400	26.996123	0.000351	20.812298
2266.597099	-3.003800	3.212700	-9.649400	27.039822	0.000353	20.774215
2267.595490	-2.998100	3.214600	-9.636800	27.024809	0.000351	20.781403
2268.598333	-2.997300	3.213200	-9.630000	27.016322	0.000350	20.798472
2269.606696	-2.995100	3.211500	-9.618000	26.992001	0.000349	20.814317
2270.598303	-2.977500	3.211100	-9.560300	26.979792	0.000348	20.805359
2271.605873	-2.982900	3.211200	-9.577500	27.023445	0.000348	20.805161
2272.599078	-3.003400	3.210100	-9.640400	27.029399	0.000349	20.799295
2273.598475	-2.997000	3.211700	-9.625000	27.057563	0.000346	20.797747
2274.600057	-2.993700	3.209200	-9.606400	27.049077	0.000347	20.789212
2275.600658	-3.002700	3.207600	-9.630800	27.029224	0.000348	20.780627
2276.597988	-2.982500	3.209000	-9.570000	26.981054	0.000345	20.787661
2277.598446	-3.014300	3.207200	-9.666700	26.991901	0.000343	20.805682
2278.598228	-3.006200	3.207500	-9.641400	27.020610	0.000342	20.805629
2279.597547	-3.001300	3.206400	-9.622000	27.058928	0.000341	20.816189
2280.600874	-3.001100	3.206300	-9.622200	27.107857	0.000342	20.790955
2281.599051	-2.984600	3.207100	-9.570700	27.115847	0.000342	20.808474
2282.600360	-2.983200	3.205700	-9.562000	27.104779	0.000340	20.806351
2283.600147	-3.021100	3.203600	-9.676700	27.094482	0.000340	20.805478
2284.601126	-3.032700	3.204400	-9.717500	27.083064	0.000339	20.824815
2285.606224	-3.015300	3.203500	-9.658800	27.076317	0.000339	20.792899
2286.600536	-2.989600	3.203600	-9.576100	27.083785	0.000339	20.827911
2287.603154	-3.007800	3.203400	-9.634000	27.123931	0.000339	20.818501
2288.599739	-3.005200	3.203300	-9.625800	27.113734	0.000338	20.821047
2289.600401	-3.018200	3.202700	-9.665700	27.167403	0.000340	20.830454
2290.601039	-2.986100	3.201800	-9.559700	27.189634	0.000336	20.821047
2291.602685	-2.988900	3.202300	-9.569300	27.219902	0.000338	20.825412
2292.600955	-2.990800	3.202500	-9.577600	27.275781	0.000337	20.813815
2293.601282	-3.019500	3.201200	-9.664700	27.293690	0.000335	20.805277
2294.602595	-2.982000	3.200300	-9.542300	27.316194	0.000335	20.842138
2295.602477	-3.025900	3.198900	-9.678500	27.308006	0.000337	20.804031
2296.605772	-3.005700	3.200100	-9.617800	27.325796	0.000334	20.814339
2297.603793	-2.990100	3.199800	-9.566100	27.331009	0.000336	20.827169
2298.607630	-2.997500	3.200200	-9.592000	27.367649	0.000332	20.835578
2299.602997	-2.999800	3.199100	-9.595800	27.326373	0.000331	20.826773
2300.603514	-3.004100	3.197800	-9.605900	27.319128	0.000330	20.834184
2301.606219	-3.015000	3.195600	-9.633800	27.344806	0.000332	20.815444
2302.606624	-3.007500	3.196700	-9.613100	27.371400	0.000332	20.825128
2303.605287	-3.019900	3.196000	-9.650400	27.366715	0.000330	20.834639
2304.604819	-3.006900	3.194400	-9.604400	27.372346	0.000330	20.836510
2305.611796	-3.009500	3.194900	-9.612300	27.331860	0.000332	20.835612
2306.606609	-2.976400	3.194400	-9.506200	27.265198	0.000328	20.844894
2307.605744	-2.992200	3.193900	-9.555100	27.263165	0.000327	20.842375
2308.611281	-3.009800	3.192300	-9.607000	27.256072	0.000327	20.826233
2309.605248	-2.965900	3.195300	-9.475600	27.288769	0.000326	20.829250
2310.612028	-3.004900	3.192000	-9.589800	27.273042	0.000325	20.857051
2311.607336	-3.001600	3.190800	-9.576600	27.319877	0.000324	20.862437
2312.610661	-2.986800	3.191100	-9.530600	27.316777	0.000325	20.833715
2313.608048	-2.991500	3.192400	-9.549100	27.346893	0.000323	20.858794
2314.608154	-2.996300	3.191700	-9.562500	27.361405	0.000323	20.851108
2315.607203	-2.984100	3.191100	-9.521100	27.388590	0.000324	20.845739
2316.617651	-2.995000	3.187900	-9.547300	27.365888	0.000321	20.848505
2317.608022	-3.007300	3.188200	-9.586900	27.329048	0.000320	20.852697
2318.613747	-3.001700	3.189800	-9.573500	27.248865	0.000323	20.844587
2319.610419	-3.012400	3.188800	-9.604000	27.187752	0.000320	20.831481
2320.611513	-3.001400	3.187900	-9.567000	27.204398	0.000318	20.864818
2321.610556	-3.004100	3.185700	-9.568400	27.234168	0.000317	20.832649
2322.610523	-3.001100	3.185900	-9.560200	27.198835	0.000319	20.856853
2323.614181	-2.986700	3.185800	-9.514100	27.226274	0.000317	20.857898
2324.618564	-2.996000	3.188000	-9.549900	27.223396	0.000316	20.865434
2325.615193	-2.988000	3.185200	-9.515400	27.200441	0.000317	20.846614
2326.613538	-3.011300	3.184500	-9.588400	27.232172	0.000318	20.868098
2327.614411	-2.992300	3.183400	-9.523900	27.225594	0.000314	20.869542
2328.613552	-3.023400	3.183200	-9.622500	27.233156	0.000315	20.863398
2329.613900	-2.984400	3.184000	-9.501600	27.255783	0.000314	20.866717
2330.613516	-3.009400	3.182900	-9.577500	27.258461	0.000313	20.857558
2331.614708	-2.980200	3.184200	-9.488600	27.263841	0.000312	20.840684
2332.616076	-3.024100	3.183200	-9.625200	27.266120	0.000313	20.873321
2333.615658	-3.013700	3.180800	-9.585500	27.227169	0.000314	20.866859
2334.619909	-3.010300	3.180000	-9.570300	27.187942	0.000314	20.854905
2335.616476	-3.017300	3.178200	-9.588600	27.186376	0.000312	20.859493
2336.616459	-3.024700	3.179400	-9.615300	27.203541	0.000311	20.844990
2337.616523	-2.992600	3.178700	-9.511500	27.253506	0.000311	20.860160
2338.621806	-3.004600	3.180700	-9.556100	27.252439	0.000313	20.852448
2339.620572	-2.997300	3.176900	-9.521400	27.273476	0.000312	20.869341
2340.615728	-2.986600	3.178700	-9.491000	27.287096	0.000309	20.860283
2341.616652	-2.989300	3.176400	-9.494000	27.242337	0.000310	20.859357
2342.620408	-3.006400	3.176000	-9.547300	27.268632	0.000308	20.872055
2343.617815	-3.011600	3.176100	-9.564200	27.296246	0.000307	20.860952
2344.621448	-2.994300	3.175900	-9.508000	27.310484	0.000308	20.864843
2345.622459	-3.010600	3.177900	-9.566200	27.299344	0.000307	20.862645
2346.617137	-3.000000	3.175000	-9.523900	27.311000	0.000308	20.892386
2347.619858	-3.007500	3.174400	-9.545200	27.317649	0.000305	20.880583
2348.628454	-3.014000	3.173100	-9.562900	27.363642	0.000304	20.863314
2349.618274	-3.011400	3.172600	-9.553400	27.364260	0.000304	20.873419
2350.621582	-3.019400	3.172300	-9.576700	27.368699	0.000305	20.878832
2351.619545	-2.993300	3.171700	-9.493200	27.367729	0.000304	20.884968
2352.622460	-2.972100	3.173200	-9.430400	27.373138	0.000301	20.875711
2353.620488	-2.974600	3.171000	-9.430600	27.393330	0.000300	20.875162
2354.621984	-2.989400	3.171700	-9.480800	27.375863	0.000301	20.892202
2355.621926	-3.015800	3.168100	-9.553100	27.339323	0.000301	20.878205
2356.621068	-2.980800	3.169000	-9.444000	27.350234	0.000302	20.868318
2357.621013	-3.012700	3.167400	-9.541500	27.352662	0.000302	20.894941
2358.624400	-2.997000	3.166600	-9.489400	27.347353	0.000298	20.869213
2359.621942	-3.013900	3.165700	-9.540300	27.368932	0.000298	20.879067
2360.622711	-3.021600	3.166600	-9.566100	27.363451	0.000301	20.895362
2361.624423	-3.008500	3.169000	-9.532900	27.360542	0.000295	20.872050
2362.622865	-3.008500	3.165100	-9.521200	27.365528	0.000298	20.890814
2363.623884	-3.005100	3.164200	-9.507500	27.404249	0.000297	20.891360
2364.623854	-2.995900	3.164200	-9.479000	27.380009	0.000297	20.896372
2365.625743	-2.990200	3.163000	-9.455900	27.395191	0.000297	20.883197
2366.626064	-3.012000	3.161300	-9.520900	27.425450	0.000296	20.881870
2367.626563	-2.994000	3.162200	-9.466900	27.432342	0.000298	20.886433
2368.626349	-3.002400	3.163400	-9.496500	27.450870	0.000298	20.883736
2369.624220	-3.008600	3.161700	-9.511000	27.461361	0.000297	20.870583
2370.626213	-3.002300	3.159300	-9.483600	27.413634	0.000296	20.896060
2371.629638	-2.993000	3.162900	-9.465900	27.407976	0.000296	20.893687
2372.627047	-3.002900	3.159800	-9.487800	27.410280	0.000295	20.905487
2373.626318	-2.978200	3.160700	-9.411800	27.447785	0.000295	20.875417
2374.626159	-3.020900	3.156700	-9.534800	27.473157	0.000295	20.896674
2375.638661	-2.995700	3.158700	-9.462200	27.494961	0.000292	20.892533
2376.626176	-2.995100	3.155700	-9.451400	27.543081	0.000293	20.876937
2377.629994	-2.976400	3.157400	-9.396100	27.515770	0.000292	20.889286
2378.626170	-2.985700	3.156300	-9.422200	27.508798	0.000292	20.912141
2379.631951	-3.012200	3.154400	-9.500400	27.490914	0.000294	20.911218
2380.634698	-2.992500	3.154400	-9.439000	27.490789	0.000294	20.887861
2381.638949	-3.016200	3.153600	-9.510900	27.511947	0.000290	20.893501
2382.629651	-2.987200	3.155200	-9.424200	27.539228	0.000291	20.899137
2383.645315	-2.996400	3.152100	-9.443700	27.565022	0.000290	20.908020
2384.633769	-2.987000	3.151600	-9.412600	27.566386	0.000292	20.895168
2385.631291	-2.966300	3.150800	-9.345200	27.610805	0.000290	20.894343
2386.631152	-3.008100	3.148800	-9.470600	27.643419	0.000289	20.893495
2387.641002	-3.005400	3.150200	-9.466000	27.648974	0.000289	20.906196
2388.632574	-3.006000	3.148900	-9.463000	27.655967	0.000287	20.903750
2389.630433	-3.004500	3.148900	-9.460200	27.610334	0.000288	20.911411
2390.641959	-2.991300	3.147500	-9.414100	27.551426	0.000288	20.905719
2391.631082	-3.003500	3.148100	-9.454500	27.526199	0.000290	20.897882
2392.633899	-3.007800	3.147000	-9.464700	27.434498	0.000285	20.902824
2393.636784	-3.012000	3.144900	-9.470200	27.429707	0.000285	20.912228
2394.632195	-3.002300	3.146900	-9.446600	27.442183	0.000284	20.905340
2395.649752	-3.018200	3.144200	-9.489000	27.403435	0.000285	20.904766
2396.633363	-3.027700	3.144600	-9.519000	27.358434	0.000284	20.929667
2397.635514	-3.030700	3.142900	-9.524200	27.358232	0.000284	20.913344
2398.642942	-3.004100	3.141700	-9.436400	27.375966	0.000284	20.918381
2399.640098	-2.983000	3.144000	-9.377600	27.344882	0.000282	20.899442
2400.634929	-2.992300	3.141200	-9.396900	27.336892	0.000281	20.895672
2401.641134	-2.989800	3.139200	-9.384500	27.331036	0.000281	20.923917
2402.632318	-3.010600	3.140800	-9.454200	27.316965	0.000281	20.897437
2403.636327	-2.996400	3.139900	-9.406900	27.307410	0.000279	20.903473
2404.641866	-2.986800	3.138600	-9.373300	27.349782	0.000281	20.908638
2405.638241	-2.992400	3.138700	-9.391000	27.371930	0.000281	20.898202
2406.636286	-2.988800	3.138100	-9.378300	27.383711	0.000279	20.911475
2407.637476	-2.989100	3.136500	-9.373700	27.423472	0.000277	20.917335
2408.647045	-3.014600	3.135900	-9.452100	27.460131	0.000280	20.909646
2409.642874	-3.031500	3.133600	-9.498500	27.450924	0.000278	20.926460
2410.637465	-2.998300	3.134300	-9.396400	27.490907	0.000276	20.910263
2411.637859	-3.034400	3.132200	-9.502500	27.492191	0.000278	20.900650
2412.634743	-2.995000	3.133200	-9.382400	27.502385	0.000277	20.894785
2413.634656	-3.039400	3.131300	-9.515600	27.531870	0.000277	20.893157
2414.637361	-2.988400	3.132200	-9.359700	27.540103	0.000277	20.918508
2415.638036	-2.973300	3.132700	-9.312600	27.551558	0.000275	20.911068
2416.647375	-2.998000	3.130100	-9.383000	27.542176	0.000276	20.899732
2417.647712	-2.989100	3.128500	-9.350200	27.570149	0.000274	20.885679
2418.636611	-3.000800	3.127700	-9.385000	27.541250	0.000275	20.877466
2419.640471	-3.005300	3.127300	-9.397700	27.503644	0.000277	20.879932
2420.636611	-2.992200	3.127800	-9.358600	27.429374	0.000276	20.891507
2421.639633	-2.990500	3.126100	-9.347800	27.380379	0.000276	20.896744
2422.638057	-2.998100	3.125600	-9.369600	27.350009	0.000275	20.869988
2423.637382	-2.986200	3.124600	-9.329400	27.317979	0.000274	20.868588
2424.637274	-3.013600	3.121900	-9.406700	27.290663	0.000275	20.872404
2425.642595	-3.001100	3.124500	-9.375800	27.299217	0.000274	20.892387
2426.647870	-3.017800	3.122400	-9.421200	27.280138	0.000274	20.897377
2427.639661	-3.000300	3.120700	-9.361400	27.265670	0.000273	20.889937
2428.640743	-2.998400	3.120600	-9.354700	27.255644	0.000274	20.888387
2429.647140	-3.041900	3.118700	-9.485000	27.239542	0.000274	20.863183
2430.643567	-3.008900	3.118500	-9.381500	27.275065	0.000274	20.882319
2431.644119	-2.974000	3.119900	-9.276900	27.290940	0.000274	20.866520
2432.643032	-2.979800	3.118600	-9.290800	27.266207	0.000273	20.866296
2433.642674	-3.000600	3.116900	-9.351200	27.280670	0.000273	20.864723
2434.643846	-2.973900	3.116500	-9.267100	27.322170	0.000272	20.872330
2435.645841	-3.007300	3.115800	-9.369100	27.355486	0.000271	20.860326
2436.647754	-3.011000	3.114200	-9.376300	27.398350	0.000271	20.865040
2437.654286	-3.002000	3.114200	-9.346600	27.435432	0.000272	20.868680
2438.660552	-2.993900	3.113600	-9.321000	27.461429	0.000268	20.852161
2439.647236	-3.029400	3.112500	-9.426300	27.437812	0.000270	20.858746
2440.645541	-3.043700	3.109800	-9.462300	27.440041	0.000268	20.868575
2441.654775	-2.994300	3.110300	-9.312400	27.435894	0.000269	20.874360
2442.645443	-3.003700	3.109900	-9.339900	27.386728	0.000270	20.878951
2443.649431	-2.959200	3.110400	-9.203500	27.360627	0.000268	20.867868
2444.648286	-2.992400	3.108300	-9.300000	27.333287	0.000267	20.854116
2445.647875	-3.004500	3.106100	-9.331300	27.344026	0.000269	20.869185
2446.651479	-2.993400	3.106100	-9.296400	27.392125	0.000268	20.859726
2447.654907	-2.960300	3.106200	-9.193500	27.421095	0.000266	20.861369
2448.654385	-2.997300	3.103400	-9.300800	27.445028	0.000265	20.868376
2449.647890	-2.990200	3.103500	-9.278100	27.487569	0.000267	20.872768
2450.648335	-2.987800	3.103500	-9.271100	27.570258	0.000266	20.868246
2451.649267	-2.987700	3.102200	-9.266600	27.556068	0.000266	20.840694
2452.648150	-2.959200	3.101700	-9.177600	27.575113	0.000267	20.869338
2453.657611	-2.987200	3.099900	-9.258600	27.575729	0.000265	20.838191
2454.653983	-2.992100	3.099800	-9.274400	27.579843	0.000264	20.842331
2455.647306	-2.972900	3.098500	-9.210400	27.606255	0.000266	20.843302
2456.648159	-3.017400	3.097000	-9.343600	27.598761	0.000266	20.838606
2457.662089	-2.992500	3.095700	-9.262800	27.557686	0.000264	20.842321
2458.656098	-2.996200	3.095400	-9.273000	27.576012	0.000266	20.841795
2459.654385	-2.989900	3.093800	-9.249100	27.607855	0.000266	20.854394
2460.663896	-3.003600	3.092300	-9.286900	27.662417	0.000263	20.849078
2461.655126	-3.009600	3.091700	-9.303900	27.672135	0.000263	20.830883
2462.648965	-2.971300	3.092200	-9.187300	27.678012	0.000267	20.815460
2463.660539	-2.993200	3.090000	-9.248200	27.635723	0.000264	20.816055
2464.653454	-3.001700	3.090600	-9.275800	27.668955	0.000265	20.835269
2465.656091	-3.005700	3.089000	-9.282300	27.685395	0.000265	20.846122
2466.658203	-2.988000	3.088500	-9.227900	27.703792	0.000264	20.827651
2467.652801	-2.987300	3.087100	-9.220100	27.664732	0.000263	20.825805
2468.661324	-3.012300	3.086100	-9.295100	27.664234	0.000263	20.856122
2469.653645	-2.984100	3.085900	-9.207800	27.649996	0.000266	20.842744
2470.651120	-3.019800	3.082900	-9.308400	27.632509	0.000263	20.833683
2471.650491	-2.987500	3.083400	-9.210400	27.622341	0.000262	20.825823
2472.653755	-2.994200	3.081500	-9.225500	27.589899	0.000262	20.827793
2473.649735	-3.007700	3.080900	-9.265200	27.549594	0.000263	20.823749
2474.663350	-3.009600	3.081400	-9.271900	27.560455	0.000263	20.842737
2475.667368	-3.000200	3.079300	-9.237700	27.571045	0.000262	20.836797
2476.658703	-2.981400	3.078400	-9.177200	27.576847	0.000263	20.834574
2477.661326	-3.002200	3.076100	-9.234100	27.565981	0.000261	20.825064
2478.659971	-3.014100	3.077100	-9.274300	27.559334	0.000260	20.846825
2479.653356	-2.979500	3.075800	-9.163000	27.534804	0.000262	20.830679
2480.655235	-3.014700	3.075200	-9.270000	27.553998	0.000260	20.835767
2481.654150	-2.972900	3.075600	-9.142400	27.562107	0.000260	20.814529
2482.654199	-2.994100	3.072000	-9.196600	27.550498	0.000261	20.810435
2483.663458	-2.962400	3.073900	-9.104800	27.539136	0.000261	20.842624
2484.657218	-2.977600	3.071800	-9.145700	27.557613	0.000260	20.843196
2485.654890	-2.995700	3.069100	-9.192800	27.561356	0.000259	20.827996
2486.654391	-2.995900	3.068800	-9.192900	27.569763	0.000260	20.846413
2487.661451	-2.978200	3.067400	-9.134600	27.626087	0.000260	20.839075
2488.656242	-2.986600	3.067500	-9.159500	27.630054	0.000259	20.820308
2489.661938	-3.000800	3.066200	-9.197700	27.679330	0.000261	20.834803
2490.676494	-2.978900	3.064800	-9.129500	27.711990	0.000260	20.823572
2491.655183	-3.021100	3.063000	-9.252600	27.711045	0.000261	20.821200
2492.656896	-3.016300	3.061600	-9.233500	27.697159	0.000260	20.833778
2493.660284	-2.995000	3.060900	-9.166600	27.690560	0.000260	20.828086
2494.658198	-3.003800	3.059500	-9.188700	27.740231	0.000259	20.827810
2495.665652	-3.008800	3.058900	-9.202500	27.748885	0.000256	20.834147
2496.668666	-2.998000	3.057800	-9.166100	27.770406	0.000258	20.813607
2497.657571	-2.999300	3.058000	-9.170500	27.782109	0.000258	20.832969
2498.658888	-2.982000	3.057200	-9.115300	27.812237	0.000262	20.799754
2499.666300	-2.996800	3.054300	-9.152000	27.854191	0.000259	20.818743
2500.662027	-3.003800	3.054400	-9.172700	27.880274	0.000258	20.816546
2501.668683	-3.032800	3.051600	-9.253800	27.891284	0.000256	20.832368
2502.666428	-3.024900	3.050500	-9.225900	27.921829	0.000259	20.819489
2503.662159	-2.976900	3.052600	-9.085700	27.932985	0.000258	20.786622
2504.660554	-2.975000	3.051400	-9.076900	27.938391	0.000259	20.819090
2505.666399	-2.974000	3.050400	-9.070800	27.975407	0.000258	20.818415
2506.661648	-2.967000	3.047600	-9.041300	27.994298	0.000259	20.806609
2507.670907	-2.984200	3.046300	-9.089700	27.998191	0.000259	20.811002
2508.673559	-3.011300	3.044000	-9.165800	28.029104	0.000259	20.812247
2509.665487	-2.994200	3.043700	-9.112500	28.043162	0.000256	20.826872
2510.668511	-3.002100	3.042400	-9.131400	28.033739	0.000258	20.809801
2511.662101	-2.977000	3.042400	-9.055900	28.020079	0.000258	20.831612
2512.666512	-2.982100	3.041300	-9.067800	27.998730	0.000258	20.821502
2513.663570	-3.005900	3.040600	-9.138900	28.001579	0.000256	20.825793
2514.666363	-2.984200	3.039300	-9.068800	27.976140	0.000256	20.837170
2515.674576	-3.003900	3.038600	-9.126800	27.939394	0.000255	20.821995
2516.671434	-2.987700	3.036900	-9.072500	27.891739	0.000257	20.821920
2517.666080	-3.009300	3.034000	-9.128800	27.889431	0.000258	20.807744
2518.667063	-2.999200	3.033900	-9.098200	27.834260	0.000256	20.829504
2519.669027	-2.977700	3.032200	-9.027100	27.866097	0.000255	20.812235
2520.679284	-2.995000	3.031800	-9.078800	27.881146	0.000255	20.819794
2521.669788	-2.997400	3.030100	-9.081100	27.924660	0.000257	20.824235
2522.669577	-2.953800	3.031700	-8.953600	27.956818	0.000255	20.816299
2523.668654	-2.997200	3.027700	-9.073700	27.972882	0.000255	20.813028
2524.669852	-2.988400	3.026300	-9.043000	27.951582	0.000258	20.829047
2525.674365	-3.003000	3.024600	-9.081400	27.981579	0.000254	20.816093
2526.670040	-2.998700	3.023800	-9.066700	27.944985	0.000257	20.824778
2527.672195	-2.968400	3.024800	-8.977100	27.962934	0.000256	20.833834
2528.671938	-3.013200	3.021700	-9.104200	27.963824	0.000254	20.816713
2529.671469	-2.981000	3.022000	-9.008100	27.880192	0.000256	20.796548
2530.672266	-2.985900	3.020300	-9.017900	27.870072	0.000255	20.809597
2531.676098	-2.978500	3.018400	-8.989200	27.855640	0.000256	20.796968
2532.673513	-3.018300	3.017700	-9.106600	27.876564	0.000255	20.832252
2533.670687	-2.993100	3.017500	-9.030900	27.865108	0.000255	20.815032
2534.672548	-2.999100	3.016100	-9.045000	27.864214	0.000255	20.820770
2535.673816	-2.992400	3.013300	-9.015600	27.854219	0.000255	20.797909
2536.672754	-3.013500	3.012200	-9.076500	27.874302	0.000255	20.805320
2537.673075	-3.000100	3.011000	-9.033300	27.859075	0.000254	20.794736
2538.673070	-2.981500	3.011800	-8.978000	27.877646	0.000255	20.797779
2539.672145	-3.018700	3.008000	-9.079300	27.867574	0.000252	20.814195
2540.673082	-2.988800	3.009300	-8.993100	27.922567	0.000254	20.803637
2541.674176	-3.000400	3.004400	-9.012700	27.959386	0.000255	20.810350
2542.672945	-2.983700	3.005800	-8.967600	27.982490	0.000252	20.802785
2543.674231	-2.989500	3.004300	-8.980800	28.013130	0.000252	20.793323
2544.672497	-3.002100	3.002100	-9.010900	27.969419	0.000252	20.793421
2545.672223	-3.007300	3.001700	-9.026300	27.959078	0.000254	20.792496
2546.678353	-2.996500	3.000400	-8.990200	27.966784	0.000253	20.810209
2547.674184	-3.006800	2.998800	-9.015600	27.964897	0.000253	20.800250
2548.677701	-2.987800	2.997700	-8.955200	27.975085	0.000254	20.799125
2549.676397	-3.010200	2.996100	-9.018500	27.944735	0.000255	20.783749
2550.677106	-3.036200	2.994100	-9.090200	27.974733	0.000253	20.785019
2551.679882	-3.005600	2.993400	-8.996200	28.022851	0.000255	20.804057
2552.678454	-2.998400	2.993000	-8.973400	28.025452	0.000254	20.791976
2553.675463	-2.989700	2.991100	-8.941900	28.049821	0.000253	20.787583
2554.677774	-3.008600	2.991300	-8.998700	28.073170	0.000251	20.795914
2555.678190	-2.999100	2.988100	-8.961100	28.086950	0.000254	20.789397
2556.674930	-3.019500	2.986100	-9.015300	28.096838	0.000252	20.804092
2557.679122	-2.970800	2.986500	-8.870700	28.124825	0.000253	20.782480
2558.679175	-3.023200	2.983000	-9.017400	28.160990	0.000251	20.797076
2559.679007	-2.991900	2.983900	-8.926400	28.137561	0.000253	20.788663
2560.675851	-3.004300	2.980400	-8.952500	28.148168	0.000251	20.781798
2561.675548	-2.980400	2.981100	-8.883500	28.099257	0.000252	20.788035
2562.676795	-2.987400	2.980000	-8.901200	28.078182	0.000253	20.790053
2563.678411	-3.036900	2.977400	-9.040600	28.034995	0.000252	20.793995
2564.676799	-3.002400	2.976200	-8.933800	27.986572	0.000251	20.793618
2565.677327	-2.978100	2.975000	-8.858700	28.004991	0.000253	20.789399
2566.675194	-3.001900	2.973500	-8.924600	28.009897	0.000254	20.810458
2567.678315	-2.975000	2.973900	-8.846400	28.002037	0.000253	20.795434
2568.676531	-2.989300	2.971100	-8.879600	28.019736	0.000254	20.777688
2569.680834	-3.002000	2.970800	-8.917700	28.021322	0.000252	20.770275
2570.679223	-3.012300	2.966400	-8.934700	28.070756	0.000252	20.788742
2571.679135	-2.958500	2.967100	-8.776800	28.094501	0.000252	20.769971
2572.678748	-3.021000	2.963600	-8.951800	28.114306	0.000254	20.776158
2573.686369	-3.023200	2.963000	-8.955900	28.123627	0.000252	20.777480
2574.679672	-2.992100	2.962100	-8.861900	28.139763	0.000254	20.761482
2575.679472	-3.015000	2.960100	-8.924000	28.143034	0.000252	20.773310
2576.689268	-3.009000	2.959200	-8.903500	28.098461	0.000253	20.772061
2577.680196	-2.984600	2.958400	-8.827300	28.059563	0.000253	20.774156
2578.682149	-3.004300	2.956000	-8.879100	28.012509	0.000252	20.778473
2579.679892	-3.012500	2.955000	-8.899900	27.983449	0.000252	20.771982
2580.681875	-2.992700	2.953300	-8.837400	27.982978	0.000253	20.767240
2581.680674	-2.980700	2.951700	-8.795400	28.003381	0.000251	20.775924
2582.681418	-2.986100	2.951000	-8.810300	28.072649	0.000253	20.750344
2583.682789	-2.994100	2.949500	-8.830300	28.143573	0.000252	20.774326
2584.682778	-2.993300	2.946700	-8.819600	28.128474	0.000252	20.762919
2585.682874	-2.980900	2.945600	-8.779100	28.107528	0.000253	20.772179
2586.684636	-3.024000	2.944500	-8.902600	28.050954	0.000252	20.760273
2587.685007	-2.991500	2.942800	-8.802600	28.012426	0.000253	20.752311
2588.684368	-3.004900	2.940300	-8.833200	27.982154	0.000251	20.778739
2589.685636	-3.017900	2.937700	-8.864100	27.971764	0.000252	20.775867
2590.683640	-2.985600	2.938900	-8.773200	28.013142	0.000251	20.764412
2591.684868	-3.012300	2.936800	-8.845500	28.075689	0.000251	20.775690
2592.685494	-2.987800	2.934500	-8.766900	28.132111	0.000251	20.767055
2593.682491	-2.993600	2.933500	-8.780500	28.173185	0.000252	20.743445
2594.696696	-2.994800	2.932500	-8.781200	28.163938	0.000251	20.753576
2595.702707	-2.992100	2.930000	-8.766100	28.158060	0.000252	20.767574
2596.688749	-2.972800	2.929800	-8.708600	28.129082	0.000250	20.745039
2597.684440	-2.994200	2.926800	-8.763100	28.113216	0.000251	20.740446
2598.687431	-2.989200	2.924900	-8.741800	28.145464	0.000250	20.761058
2599.687264	-3.004900	2.923300	-8.782800	28.132897	0.000251	20.747931
2600.684562	-3.003300	2.921600	-8.773900	28.139192	0.000249	20.741940
2601.685566	-3.007000	2.920800	-8.781200	28.124417	0.000249	20.743662
2602.693367	-3.002200	2.917800	-8.759100	28.124094	0.000249	20.769416
2603.686648	-2.973500	2.918200	-8.676100	28.160261	0.000251	20.750823
2604.688659	-2.980400	2.916400	-8.691700	28.173374	0.000252	20.746954
2605.685826	-2.972100	2.914200	-8.659800	28.177042	0.000251	20.770088
2606.690351	-2.960500	2.913800	-8.623900	28.176992	0.000251	20.764822
2607.692382	-3.009600	2.911000	-8.759000	28.150667	0.000249	20.758234
2608.688372	-3.002900	2.909200	-8.735500	28.136809	0.000248	20.752818
2609.694379	-3.049700	2.906400	-8.861700	28.163085	0.000249	20.763150
2610.688245	-2.983400	2.906700	-8.668900	28.193201	0.000249	20.747475
2611.688178	-3.019400	2.903800	-8.767200	28.199324	0.000250	20.757433
2612.688632	-3.012600	2.903000	-8.744700	28.193573	0.000250	20.739788
2613.689515	-3.002700	2.900100	-8.706500	28.184079	0.000250	20.764844
2614.689399	-3.009400	2.898600	-8.721200	28.177632	0.000251	20.741758
2615.692207	-3.008400	2.897900	-8.717400	28.138242	0.000252	20.761847
2616.690505	-2.999200	2.895000	-8.681900	28.159113	0.000250	20.744452
2617.699028	-3.013200	2.893900	-8.718800	28.204871	0.000249	20.757328
2618.688838	-3.006500	2.891800	-8.692800	28.230129	0.000250	20.748143
2619.693443	-3.003900	2.889600	-8.678500	28.245397	0.000249	20.731746
2620.698222	-2.990800	2.889200	-8.640100	28.264208	0.000251	20.762540
2621.690720	-3.009400	2.886000	-8.684000	28.308351	0.000249	20.747242
2622.694938	-3.008400	2.883900	-8.674400	28.317025	0.000251	20.765933
2623.688967	-2.990700	2.883600	-8.621700	28.357546	0.000249	20.738929
2624.689599	-2.990700	2.881300	-8.615900	28.357372	0.000249	20.722157
2625.690817	-3.024200	2.879100	-8.704500	28.377470	0.000251	20.732911
2626.689130	-3.001100	2.877100	-8.633800	28.415586	0.000252	20.755172
2627.691856	-2.980100	2.876500	-8.570800	28.429860	0.000249	20.743941
2628.693502	-2.987700	2.873300	-8.583400	28.458037	0.000250	20.740547
2629.703859	-2.988400	2.871600	-8.579400	28.490548	0.000252	20.757640
2630.692035	-2.979400	2.869300	-8.547100	28.505887	0.000251	20.725670
2631.693555	-3.004100	2.867400	-8.613600	28.492405	0.000250	20.738647
2632.693409	-2.995300	2.866700	-8.585700	28.487770	0.000250	20.753894
2633.694245	-2.994500	2.863900	-8.575100	28.471363	0.000249	20.727413
2634.693500	-2.990800	2.861600	-8.557400	28.455079	0.000249	20.724765
2635.694675	-3.008700	2.858200	-8.597600	28.381103	0.000248	20.744631
2636.701653	-2.987400	2.858500	-8.537900	28.378647	0.000249	20.735520
2637.696424	-2.995300	2.855800	-8.552700	28.376538	0.000250	20.723913
2638.698564	-2.996800	2.853600	-8.550800	28.387467	0.000249	20.743927
2639.696507	-3.031900	2.850200	-8.640800	28.338366	0.000249	20.729573
2640.697044	-2.996200	2.850100	-8.538700	28.299181	0.000248	20.736111
2641.699654	-3.023100	2.845100	-8.599400	28.290281	0.000249	20.719564
2642.706312	-2.982400	2.843800	-8.480500	28.269212	0.000249	20.743396
2643.697406	-3.012400	2.841900	-8.559600	28.272481	0.000250	20.719185
2644.696603	-3.004800	2.840100	-8.533400	28.246851	0.000249	20.726097
2645.697750	-3.002100	2.837700	-8.518000	28.226871	0.000249	20.742966
2646.698656	-3.018100	2.836700	-8.560300	28.183986	0.000249	20.731559
2647.700357	-2.990200	2.835100	-8.476400	28.206293	0.000249	20.725093
2648.699432	-3.013000	2.832800	-8.533500	28.224015	0.000249	20.736298
2649.700991	-2.999300	2.829800	-8.486900	28.194343	0.000250	20.748151
2650.699666	-2.994900	2.828000	-8.468900	28.240521	0.000249	20.703601
2651.699183	-3.031400	2.825700	-8.564100	28.239750	0.000250	20.707567
2652.702783	-2.982500	2.823900	-8.421100	28.225049	0.000249	20.712681
2653.700222	-3.007200	2.820500	-8.480900	28.236971	0.000248	20.718046
2654.699950	-2.997500	2.819900	-8.452000	28.222592	0.000247	20.752409
2655.700004	-3.013600	2.815400	-8.483200	28.154300	0.000251	20.729173
2656.700311	-2.997500	2.813800	-8.432900	28.102339	0.000250	20.714796
2657.699943	-2.991500	2.811600	-8.410200	28.090091	0.000249	20.713846
2658.702961	-2.987100	2.810100	-8.392700	28.092047	0.000251	20.731937
2659.702285	-2.982100	2.807100	-8.369000	28.149607	0.000248	20.714017
2660.700406	-2.992800	2.804500	-8.392600	28.170948	0.000247	20.718432
2661.701966	-3.018200	2.801100	-8.453600	28.193330	0.000249	20.714886
2662.702949	-3.035700	2.798400	-8.493800	28.228871	0.000249	20.722220
2663.704829	-3.019400	2.796900	-8.444000	28.283102	0.000247	20.730827
2664.714220	-3.004100	2.794400	-8.393800	28.327541	0.000249	20.719147
2665.705371	-3.023800	2.792300	-8.441100	28.352496	0.000248	20.727205
2666.704421	-3.014600	2.787200	-8.400800	28.344117	0.000246	20.721612
2667.703222	-2.998800	2.786200	-8.354300	28.309614	0.000247	20.712950
2668.704897	-2.996300	2.784600	-8.342500	28.265120	0.000249	20.728370
2669.703827	-3.028900	2.780200	-8.419300	28.274612	0.000249	20.719435
2670.704435	-2.999600	2.778500	-8.333600	28.323684	0.000247	20.736601
2671.705631	-2.995900	2.775500	-8.314800	28.383139	0.000248	20.720127
2672.706124	-2.988000	2.772500	-8.283600	28.406085	0.000248	20.711938
2673.708086	-3.018600	2.769300	-8.357000	28.379094	0.000247	20.720322
2674.705235	-3.015200	2.767400	-8.342700	28.354879	0.000248	20.716327
2675.710800	-3.006500	2.763500	-8.307400	28.357057	0.000247	20.709985
2676.711187	-3.006100	2.762300	-8.302900	28.396534	0.000248	20.711330
2677.706787	-3.006300	2.757200	-8.287800	28.442776	0.000247	20.723756
2678.711956	-2.984400	2.755600	-8.222800	28.481855	0.000247	20.717589
2679.708024	-3.008700	2.751300	-8.276600	28.491071	0.000248	20.703636
2680.707252	-2.983100	2.750200	-8.203000	28.503186	0.000249	20.708250
2681.707936	-3.013200	2.744100	-8.267300	28.466607	0.000249	20.720727
2682.707163	-2.976800	2.744600	-8.168800	28.477980	0.000246	20.708945
2683.713071	-2.991900	2.739000	-8.193700	28.472501	0.000247	20.725240
2684.711947	-2.986800	2.738100	-8.177300	28.496116	0.000246	20.709666
2685.711592	-3.027400	2.733600	-8.275200	28.535292	0.000249	20.732998
2686.709309	-3.007400	2.730100	-8.208800	28.546516	0.000248	20.725335
2687.709186	-3.006300	2.726900	-8.196500	28.608213	0.000249	20.732944
2688.709335	-3.027400	2.722700	-8.241300	28.625606	0.000249	20.691664
2689.709869	-3.016800	2.719900	-8.204700	28.573942	0.000247	20.723084
2690.708621	-3.008400	2.716700	-8.172000	28.560883	0.000247	20.710879
2691.712105	-2.981600	2.714300	-8.091500	28.539521	0.000248	20.737732
2692.711427	-2.970100	2.709600	-8.046900	28.536398	0.000247	20.738854
2693.711369	-3.000000	2.707000	-8.119500	28.546804	0.000248	20.715668
2694.716500	-2.999500	2.704100	-8.110000	28.582783	0.000250	20.721557
2695.714775	-3.019200	2.698500	-8.146200	28.616803	0.000249	20.712197
2696.710997	-2.994800	2.694700	-8.068600	28.675327	0.000250	20.730839
2697.716988	-2.975800	2.692900	-8.013100	28.652877	0.000251	20.731935
2698.711990	-2.969600	2.689600	-7.985400	28.627133	0.000249	20.704583
2699.716856	-2.961500	2.684800	-7.947700	28.600323	0.000250	20.703659
2700.715395	-3.003500	2.680200	-8.049800	28.545066	0.000250	20.717710
2701.712876	-3.003500	2.676900	-8.039000	28.487030	0.000252	20.709998
2702.718909	-3.005800	2.672700	-8.032400	28.473053	0.000250	20.712519
2703.713887	-3.008300	2.667800	-8.024200	28.515948	0.000250	20.750028
2704.713686	-3.002000	2.663500	-7.995400	28.547072	0.000250	20.747707
2705.717626	-3.005800	2.661500	-7.999100	28.590187	0.000249	20.723798
2706.715481	-2.990300	2.656400	-7.942400	28.648639	0.000251	20.728141
2707.724824	-2.991600	2.651800	-7.931900	28.687637	0.000249	20.729962
2708.712255	-3.015100	2.646700	-7.979600	28.724951	0.000249	20.707328
2709.715702	-3.004400	2.642700	-7.938100	28.696210	0.000250	20.743814
2710.716086	-3.038200	2.637300	-8.010800	28.695393	0.000250	20.720230
2711.718091	-2.974000	2.635400	-7.837100	28.685829	0.000250	20.718657
2712.719914	-3.015000	2.630200	-7.929200	28.707731	0.000250	20.737875
2713.723250	-2.996300	2.626800	-7.869400	28.741576	0.000249	20.726920
2714.723790	-3.017300	2.621200	-7.907500	28.777103	0.000250	20.707703
2715.713870	-2.984800	2.616700	-7.808500	28.800541	0.000250	20.725623
2716.721470	-3.009200	2.611100	-7.856000	28.815281	0.000251	20.720557
2717.718743	-3.013500	2.605600	-7.849700	28.831358	0.000248	20.719683
2718.716689	-3.003800	2.600800	-7.811600	28.887146	0.000249	20.724201
2719.715302	-3.029100	2.596100	-7.861300	28.866214	0.000249	20.746263
2720.719903	-3.005700	2.589400	-7.781300	28.869683	0.000249	20.737429
2721.723434	-2.993200	2.585500	-7.738100	28.918385	0.000249	20.739552
2722.717440	-3.017600	2.579000	-7.781400	28.892795	0.000248	20.735582
2723.721479	-3.026500	2.572300	-7.783200	28.883605	0.000249	20.738652
2724.715643	-2.962200	2.569500	-7.610200	28.860741	0.000249	20.743594
2725.720675	-3.010400	2.561900	-7.711300	28.853903	0.000250	20.752354
2726.717616	-2.993500	2.557800	-7.655500	28.852268	0.000248	20.749757
2727.722399	-2.987800	2.551700	-7.622200	28.846422	0.000251	20.734385
2728.717484	-3.021900	2.546300	-7.693000	28.917293	0.000249	20.744615
2729.719062	-3.021200	2.539500	-7.671600	28.932874	0.000249	20.731863
2730.720115	-2.996200	2.533300	-7.589100	28.943004	0.000251	20.733534
2731.719856	-2.999200	2.527000	-7.578400	28.872703	0.000250	20.735730
2732.723408	-2.971100	2.523100	-7.495500	28.814314	0.000251	20.724799
2733.730065	-2.987500	2.517100	-7.518900	28.811663	0.000249	20.741570
2734.731964	-3.012000	2.509300	-7.557000	28.814511	0.000249	20.732111
2735.721178	-3.001700	2.502000	-7.509500	28.841241	0.000251	20.746710
2736.731998	-2.979400	2.497000	-7.438700	28.880604	0.000252	20.736577
