LabVIEW Measurement	
Writer_Version	2
Reader_Version	2
Separator	Tab
Decimal_Separator	.
Multi_Headings	No
X_Columns	One
Time_Pref	Absolute
Operator	admin
Description	Clolumns are: time, Current, Voltage, Power, Battery Temp, and Chamber Temp
Date	2024/08/16
Time	13:06:06.104549407958984375
***End_of_Header***	
	
Channels	6						
Samples	1	1	1	1	1	1	
Date	2024/09/14	2024/09/14	2024/09/14	2024/09/14	2024/09/14	2024/09/14	
Time	01:24:01.5067234039306640625	01:24:01.519863128662109375	01:24:01.5256991386413574219	01:24:01.4836192131042480469	01:24:01.4836192131042480469	01:24:01.4836192131042480469	
X_Dimension	Time	Time	Time	Time	Time	Time	
X0	0.0000000000000000E+0	0.0000000000000000E+0	0.0000000000000000E+0	0.0000000000000000E+0	0.0000000000000000E+0	0.0000000000000000E+0	
Delta_X	1.000000	1.000000	1.000000	1.000000	1.000000	1.000000	
***End_of_Header***							
X_Value	Untitled	Untitled 1	Untitled 2	Untitled 3	Untitled 4	Untitled 5	Comment
0.000000	0.027032	4.090600	0.110600	21.040354	0.000919	20.732652
1.008138	-3.001500	3.912300	-11.741000	21.039707	0.000923	20.750023
2.004870	-3.006100	3.906100	-11.742000	21.052306	0.000919	20.744607
3.004986	-2.971300	3.902300	-11.594000	21.032794	0.000917	20.740738
4.002787	-2.988500	3.896300	-11.642000	21.040254	0.000923	20.724017
5.001740	-2.991100	3.893700	-11.645000	21.053728	0.000918	20.734175
5.999115	-2.996400	3.889500	-11.654000	21.042524	0.000917	20.735771
6.997973	-2.996600	3.886800	-11.646000	21.062535	0.000919	20.724017
8.001213	-3.011100	3.884100	-11.693000	21.048812	0.000917	20.739216
9.004880	-2.995500	3.883700	-11.632000	21.062859	0.000916	20.743783
10.003598	-2.974300	3.882500	-11.546000	21.069122	0.000915	20.753841
11.001035	-3.004500	3.880300	-11.657000	21.052555	0.000915	20.734899
12.008103	-2.982300	3.878000	-11.564000	21.061312	0.000914	20.729907
13.002609	-3.000600	3.877700	-11.634000	21.081071	0.000916	20.712686
14.003033	-2.999200	3.875700	-11.622000	21.075283	0.000913	20.721596
15.007000	-3.010000	3.874600	-11.662000	21.080298	0.000911	20.739415
16.006686	-3.006100	3.872600	-11.641000	21.095492	0.000911	20.734223
17.005430	-3.016500	3.871700	-11.678000	21.088331	0.000912	20.728957
18.007462	-2.986700	3.870300	-11.558000	21.075408	0.000908	20.731678
19.015472	-2.999500	3.870800	-11.608000	21.084563	0.000911	20.749845
20.004012	-2.999200	3.869300	-11.602000	21.095391	0.000909	20.723691
21.014804	-2.986500	3.868900	-11.552000	21.121238	0.000907	20.730578
22.010364	-2.999700	3.868100	-11.602000	21.126153	0.000908	20.735495
23.001750	-3.004500	3.865600	-11.614000	21.131218	0.000909	20.735820
24.004254	-2.976000	3.867300	-11.509000	21.129570	0.000909	20.744604
25.007346	-2.994100	3.865300	-11.572000	21.114601	0.000906	20.739588
26.013805	-2.999200	3.863000	-11.586000	21.119216	0.000906	20.742782
27.006007	-2.992800	3.863900	-11.563000	21.136456	0.000908	20.748647
28.003065	-3.027800	3.862200	-11.693000	21.141195	0.000907	20.722092
29.006928	-3.010900	3.861700	-11.626000	21.147058	0.000903	20.730328
30.007277	-3.012500	3.861200	-11.630000	21.176546	0.000907	20.730901
31.010622	-2.998500	3.861400	-11.577000	21.165518	0.000906	20.730302
32.010142	-2.991300	3.861900	-11.550000	21.160703	0.000905	20.739236
33.005865	-2.998900	3.862000	-11.579000	21.186823	0.000904	20.725061
34.013711	-3.016800	3.859000	-11.639000	21.194931	0.000906	20.749294
35.006701	-3.003600	3.858000	-11.588000	21.178340	0.000904	20.739809
36.004539	-2.991100	3.859800	-11.544000	21.203362	0.000905	20.734494
37.005033	-3.005600	3.858100	-11.595000	21.204335	0.000904	20.727880
38.009346	-3.002600	3.858500	-11.583000	21.220575	0.000905	20.749817
39.005734	-3.004200	3.857900	-11.588000	21.216159	0.000904	20.740183
40.016707	-2.998900	3.856500	-11.564000	21.227609	0.000903	20.743103
41.007692	-3.000500	3.857000	-11.570000	21.230803	0.000904	20.746772
42.007952	-2.986200	3.856300	-11.515000	21.209622	0.000905	20.749291
43.018595	-3.022800	3.854700	-11.651000	21.265776	0.000904	20.731023
44.014466	-2.998700	3.855000	-11.559000	21.269642	0.000905	20.713553
45.009888	-3.049300	3.852500	-11.746000	21.261385	0.000900	20.729475
46.010966	-3.012100	3.852800	-11.604000	21.280318	0.000904	20.741305
47.008201	-3.016600	3.853500	-11.623000	21.270614	0.000903	20.726380
48.010620	-3.025600	3.851500	-11.652000	21.299476	0.000905	20.730598
49.012203	-3.002500	3.852000	-11.563000	21.300947	0.000906	20.753408
50.010516	-3.006100	3.852100	-11.579000	21.286529	0.000902	20.733767
51.010799	-2.995500	3.851500	-11.534000	21.283560	0.000902	20.747868
52.021648	-3.005400	3.851500	-11.572000	21.313893	0.000903	20.731746
53.016969	-3.010000	3.851100	-11.591000	21.331877	0.000903	20.737410
54.013462	-2.983800	3.850300	-11.488000	21.336367	0.000904	20.727203
55.011721	-3.018700	3.850400	-11.621000	21.322923	0.000904	20.753109
56.017259	-3.010500	3.849400	-11.586000	21.341230	0.000902	20.742027
57.012669	-2.983700	3.849900	-11.485000	21.340033	0.000902	20.743200
58.018648	-3.002100	3.849300	-11.554000	21.380491	0.000901	20.730572
59.017843	-3.015400	3.848500	-11.604000	21.357794	0.000903	20.746270
60.018680	-2.979200	3.848300	-11.464000	21.366050	0.000903	20.731296
61.012887	-3.009500	3.850300	-11.587000	21.387899	0.000902	20.737509
62.014045	-2.979200	3.849100	-11.466000	21.387226	0.000903	20.738258
63.012644	-2.998300	3.848000	-11.536000	21.406331	0.000900	20.742675
64.013037	-2.983000	3.847800	-11.476000	21.420623	0.000903	20.724731
65.017663	-3.001900	3.846100	-11.544000	21.404759	0.000904	20.742051
66.017361	-3.005100	3.846700	-11.558000	21.428305	0.000904	20.732892
67.019492	-3.019400	3.845800	-11.610000	21.426758	0.000903	20.739879
68.017488	-3.003700	3.845200	-11.549000	21.411270	0.000902	20.767057
69.015721	-3.001100	3.845200	-11.539000	21.447684	0.000903	20.750860
70.023385	-3.008400	3.845300	-11.567000	21.441848	0.000903	20.745969
71.015379	-2.984600	3.845100	-11.475000	21.439278	0.000904	20.742449
72.017309	-3.010100	3.845400	-11.574000	21.454418	0.000905	20.751908
73.016361	-3.015600	3.844000	-11.590000	21.474096	0.000904	20.739828
74.027549	-3.023900	3.844600	-11.625000	21.486990	0.000903	20.761266
75.024056	-3.019400	3.842700	-11.599000	21.477188	0.000903	20.728697
76.016026	-3.017000	3.843600	-11.594000	21.495768	0.000903	20.764359
77.025156	-2.993600	3.842600	-11.502000	21.490082	0.000904	20.771472
78.022386	-3.014100	3.842400	-11.580000	21.530335	0.000904	20.767653
79.027162	-3.011500	3.841800	-11.568000	21.514872	0.000905	20.750758
80.019957	-3.019100	3.841400	-11.595000	21.539438	0.000906	20.745941
81.022693	-3.015400	3.842400	-11.585000	21.545048	0.000906	20.753452
82.022019	-2.990500	3.841100	-11.486000	21.549936	0.000904	20.746964
83.020280	-3.009300	3.840500	-11.556000	21.563603	0.000905	20.777236
84.024747	-2.988200	3.841800	-11.478000	21.563103	0.000905	20.765830
85.023059	-2.990200	3.841100	-11.484000	21.575448	0.000904	20.753526
86.033717	-3.009500	3.840500	-11.557000	21.593204	0.000906	20.767027
87.020589	-3.014800	3.839700	-11.575000	21.596097	0.000904	20.777035
88.020366	-2.987300	3.839200	-11.468000	21.616420	0.000905	20.761811
89.022595	-2.994000	3.840700	-11.498000	21.600235	0.000908	20.776434
90.019887	-2.976400	3.841200	-11.431000	21.609337	0.000908	20.757093
91.021111	-2.995200	3.839400	-11.499000	21.627842	0.000906	20.753800
92.029276	-2.993600	3.840100	-11.495000	21.649637	0.000904	20.757593
93.019903	-2.997900	3.837500	-11.504000	21.631930	0.000907	20.772116
94.024617	-3.006200	3.838700	-11.539000	21.663750	0.000907	20.764604
95.039712	-3.022700	3.837200	-11.597000	21.672727	0.000907	20.764579
96.034492	-3.002800	3.837900	-11.523000	21.658962	0.000908	20.767400
97.026512	-2.975500	3.839900	-11.425000	21.653152	0.000909	20.763482
98.025232	-3.015400	3.838600	-11.574000	21.677814	0.000908	20.761610
99.035203	-3.013600	3.837800	-11.565000	21.702949	0.000908	20.751676
100.032328	-3.021400	3.836400	-11.589000	21.687788	0.000909	20.785342
101.030361	-2.998900	3.836600	-11.503000	21.700680	0.000910	20.771691
102.026546	-2.985600	3.837800	-11.457000	21.715717	0.000909	20.765877
103.029144	-3.008700	3.835300	-11.537000	21.725266	0.000909	20.777805
104.029505	-2.993500	3.836000	-11.483000	21.735115	0.000912	20.754471
105.036575	-2.994200	3.837000	-11.488000	21.742945	0.000910	20.792654
106.037702	-2.997500	3.836600	-11.500000	21.732422	0.000911	20.776432
107.029132	-2.999000	3.835700	-11.502000	21.751996	0.000912	20.779427
108.027107	-2.995200	3.835300	-11.486000	21.772766	0.000910	20.774610
109.031699	-3.000700	3.835400	-11.508000	21.752769	0.000909	20.773088
110.037235	-3.001300	3.834700	-11.507000	21.760374	0.000910	20.747982
111.035530	-3.012200	3.834700	-11.549000	21.759252	0.000910	20.781473
112.027601	-2.989900	3.834100	-11.463000	21.770248	0.000911	20.764503
113.034050	-3.011500	3.833000	-11.541000	21.791043	0.000912	20.774410
114.028079	-3.029900	3.832100	-11.610000	21.799147	0.000912	20.763081
115.031796	-2.991900	3.833400	-11.469000	21.799470	0.000912	20.789009
116.034430	-3.014900	3.832700	-11.554000	21.820015	0.000914	20.770691
117.028064	-3.007100	3.833200	-11.526000	21.812436	0.000914	20.793925
118.033755	-2.993800	3.832800	-11.474000	21.823381	0.000913	20.793975
119.030760	-2.976300	3.833800	-11.409000	21.836496	0.000915	20.781971
120.028859	-3.003100	3.831800	-11.506000	21.831160	0.000915	20.802235
121.030018	-3.003700	3.831700	-11.508000	21.830137	0.000914	20.792202
122.042721	-2.987000	3.831500	-11.444000	21.850482	0.000916	20.772263
123.033646	-2.980600	3.831700	-11.420000	21.845072	0.000914	20.787711
124.032347	-2.991400	3.832100	-11.462000	21.850332	0.000917	20.782070
125.030787	-3.001500	3.830700	-11.497000	21.865591	0.000915	20.782169
126.032038	-3.004200	3.831100	-11.509000	21.866214	0.000917	20.803656
127.037694	-2.999000	3.829900	-11.485000	21.889924	0.000916	20.829759
128.034101	-2.985800	3.832200	-11.441000	21.923656	0.000915	20.779598
129.032413	-3.018700	3.828800	-11.557000	21.896307	0.000917	20.783517
130.038586	-3.023700	3.829500	-11.578000	21.925525	0.000919	20.798065
131.033587	-2.994600	3.830100	-11.468000	21.930412	0.000917	20.797740
132.037324	-2.973800	3.832300	-11.395000	21.974713	0.000918	20.792300
133.035736	-2.990200	3.828900	-11.447000	21.941830	0.000918	20.783091
134.040725	-3.018700	3.829000	-11.557000	21.963619	0.000914	20.803006
135.033687	-2.995800	3.827900	-11.467000	21.986604	0.000919	20.784289
136.036714	-2.998000	3.829400	-11.479000	21.999418	0.000919	20.801383
137.038088	-3.004000	3.828800	-11.501000	21.969876	0.000920	20.788880
138.039284	-2.994500	3.827900	-11.462000	21.980670	0.000918	20.798737
139.038376	-2.988500	3.828200	-11.440000	21.994755	0.000919	20.809518
140.038733	-2.965700	3.827500	-11.350000	21.980869	0.000920	20.813635
141.042650	-2.988400	3.827500	-11.437000	21.993084	0.000920	20.798362
142.040262	-2.986900	3.828600	-11.435000	22.005474	0.000922	20.796066
143.045742	-2.996800	3.826400	-11.466000	22.010335	0.000921	20.811364
144.041261	-3.013500	3.825800	-11.528000	22.012554	0.000920	20.790826
145.041645	-3.006500	3.826200	-11.501000	22.049075	0.000922	20.808893
146.042840	-3.023800	3.825900	-11.568000	22.043939	0.000922	20.811813
147.041577	-2.991000	3.827500	-11.446000	22.074651	0.000921	20.792772
148.042353	-2.995300	3.825200	-11.457000	22.078141	0.000925	20.792473
149.040176	-2.991700	3.825700	-11.443000	22.056677	0.000924	20.798486
150.064011	-2.988400	3.826000	-11.433000	22.097708	0.000923	20.801631
151.039487	-2.999800	3.824500	-11.472000	22.113786	0.000925	20.820572
152.044180	-3.009000	3.824500	-11.506000	22.110496	0.000926	20.810640
153.042761	-2.993600	3.824600	-11.447000	22.103665	0.000923	20.815655
154.040428	-3.004100	3.822700	-11.483000	22.125676	0.000925	20.814932
155.043294	-3.020700	3.823700	-11.550000	22.119519	0.000926	20.801656
156.042995	-2.998100	3.823400	-11.462000	22.145070	0.000928	20.816330
157.044734	-3.024800	3.822500	-11.561000	22.141230	0.000926	20.810590
158.051438	-2.989700	3.824300	-11.430000	22.152472	0.000930	20.828483
159.045902	-3.007600	3.822900	-11.497000	22.173584	0.000924	20.812162
160.044416	-3.016500	3.821100	-11.526000	22.162318	0.000926	20.812736
161.046384	-2.972500	3.823800	-11.364000	22.166855	0.000928	20.816804
162.042780	-3.005800	3.821900	-11.487000	22.186247	0.000928	20.833849
163.043435	-3.026000	3.821400	-11.560000	22.195495	0.000930	20.817029
164.049407	-3.000500	3.822900	-11.468000	22.177623	0.000929	20.841809
165.050383	-3.011400	3.821000	-11.504000	22.210425	0.000930	20.811115
166.048591	-2.985900	3.821700	-11.411000	22.227897	0.000930	20.818651
167.045443	-2.976200	3.822300	-11.374000	22.229642	0.000928	20.809020
168.042726	-3.014500	3.820900	-11.516000	22.220421	0.000931	20.839140
169.051624	-2.989300	3.821400	-11.423000	22.245270	0.000936	20.824667
170.046002	-2.987100	3.819900	-11.410000	22.257582	0.000932	20.824666
171.045949	-2.975300	3.821500	-11.369000	22.271838	0.000933	20.806699
172.044731	-2.995100	3.820500	-11.442000	22.264685	0.000935	20.821821
173.043406	-3.011900	3.820100	-11.505000	22.294445	0.000934	20.817480
174.050762	-2.990500	3.818900	-11.419000	22.284898	0.000935	20.815508
175.055068	-3.010800	3.819300	-11.497000	22.270394	0.000936	20.820425
176.048834	-3.008900	3.819700	-11.492000	22.291179	0.000935	20.828435
177.050956	-3.031200	3.817600	-11.570000	22.290706	0.000934	20.816108
178.049694	-3.004900	3.817800	-11.471000	22.302295	0.000936	20.822022
179.051473	-2.999600	3.819900	-11.457000	22.303392	0.000937	20.834499
180.047290	-3.013800	3.817800	-11.504000	22.353336	0.000938	20.820499
181.048094	-3.012300	3.817900	-11.500000	22.344364	0.000937	20.824792
182.046600	-2.989400	3.818100	-11.413000	22.342271	0.000939	20.812739
183.051062	-2.995100	3.817500	-11.433000	22.353037	0.000939	20.849597
184.049809	-2.993700	3.816900	-11.425000	22.379752	0.000939	20.848848
185.050429	-3.015400	3.817400	-11.510000	22.383989	0.000941	20.851668
186.047910	-3.005500	3.815300	-11.465000	22.388973	0.000941	20.831530
187.057172	-2.989700	3.817000	-11.411000	22.400985	0.000942	20.819851
188.054661	-2.989300	3.816200	-11.406000	22.398817	0.000939	20.837593
189.048374	-2.977600	3.816800	-11.363000	22.408311	0.000939	20.851842
190.050131	-3.003500	3.816400	-11.461000	22.402006	0.000943	20.836520
191.050550	-2.978000	3.816900	-11.365000	22.430140	0.000943	20.832926
192.052151	-2.987800	3.815100	-11.399000	22.433355	0.000945	20.849421
193.050932	-2.983300	3.816100	-11.383000	22.426776	0.000943	20.846625
194.052118	-2.998600	3.814800	-11.439000	22.445790	0.000946	20.825839
195.053628	-3.003500	3.813700	-11.452000	22.439933	0.000943	20.842733
196.048754	-2.989000	3.814700	-11.401000	22.427075	0.000947	20.852141
197.053022	-2.990100	3.814300	-11.402000	22.455981	0.000945	20.855958
198.051731	-2.984400	3.815100	-11.383000	22.456181	0.000947	20.845727
199.051064	-2.984800	3.814900	-11.386000	22.470135	0.000945	20.857330
200.057175	-2.979900	3.812900	-11.361000	22.491266	0.000946	20.849569
201.053804	-2.977100	3.814700	-11.356000	22.507388	0.000946	20.862870
202.049882	-2.973500	3.814500	-11.341000	22.506117	0.000947	20.856855
203.059597	-3.012300	3.812900	-11.483000	22.510951	0.000949	20.850791
204.051309	-3.022400	3.811900	-11.520000	22.506664	0.000949	20.857404
205.052806	-2.989400	3.812400	-11.395000	22.541151	0.000950	20.853062
206.059097	-2.999200	3.812400	-11.433000	22.540578	0.000951	20.871927
207.051762	-2.992700	3.811100	-11.405000	22.554331	0.000952	20.860572
208.062598	-3.009800	3.812100	-11.472000	22.560910	0.000951	20.843454
209.054494	-3.024700	3.809700	-11.522000	22.533725	0.000951	20.842780
210.050381	-2.999800	3.812000	-11.434000	22.560710	0.000952	20.868383
211.060848	-2.986000	3.812000	-11.381000	22.537638	0.000952	20.878465
212.060585	-3.026400	3.811300	-11.533000	22.542545	0.000953	20.860148
213.063342	-2.986200	3.811200	-11.379000	22.556823	0.000956	20.863542
214.056051	-3.009700	3.808400	-11.460000	22.554256	0.000954	20.879936
215.057347	-3.004800	3.809800	-11.447000	22.559363	0.000953	20.889318
216.054157	-3.005400	3.809500	-11.447000	22.561881	0.000958	20.848219
217.059506	-3.010000	3.809600	-11.466000	22.594795	0.000955	20.861270
218.059985	-3.006200	3.808200	-11.447000	22.578350	0.000955	20.856653
219.063051	-3.010700	3.808500	-11.464000	22.609047	0.000957	20.886922
220.066469	-3.008100	3.808900	-11.457000	22.613232	0.000956	20.878787
221.056315	-2.998400	3.808300	-11.418000	22.646992	0.000959	20.843851
222.057389	-3.004000	3.808900	-11.441000	22.622626	0.000958	20.860221
223.055473	-2.991800	3.807900	-11.391000	22.620931	0.000959	20.886023
224.054670	-2.994300	3.808000	-11.400000	22.628032	0.000958	20.857576
225.059856	-3.008000	3.807100	-11.450000	22.632367	0.000961	20.869504
226.058264	-3.003600	3.808200	-11.435000	22.647640	0.000959	20.885748
227.064658	-2.983700	3.807100	-11.359000	22.636229	0.000962	20.913671
228.062247	-2.991600	3.807200	-11.388000	22.653793	0.000958	20.887644
229.062607	-2.990600	3.807700	-11.386000	22.658701	0.000959	20.885448
230.055806	-2.971400	3.806700	-11.311000	22.679754	0.000960	20.883302
231.061475	-2.998900	3.806700	-11.415000	22.681996	0.000958	20.862316
232.057677	-3.007200	3.805300	-11.442000	22.681398	0.000963	20.884000
233.065494	-3.006300	3.805000	-11.437000	22.681772	0.000963	20.884375
234.062085	-2.987900	3.806500	-11.372000	22.697045	0.000964	20.886396
235.058155	-2.991100	3.806200	-11.384000	22.697019	0.000964	20.873569
236.070932	-3.017300	3.803900	-11.476000	22.689520	0.000962	20.874118
237.065973	-2.995700	3.805900	-11.400000	22.721135	0.000966	20.871647
238.058957	-3.016100	3.803300	-11.470000	22.698812	0.000967	20.872046
239.058467	-2.999600	3.803800	-11.408000	22.747219	0.000965	20.871223
240.059725	-3.005000	3.803500	-11.428000	22.742734	0.000967	20.888066
241.061204	-2.993600	3.802800	-11.383000	22.750333	0.000967	20.868178
242.059070	-3.010000	3.804100	-11.449000	22.778982	0.000968	20.905883
243.060738	-3.008400	3.803600	-11.441000	22.783864	0.000965	20.898921
244.061890	-3.000800	3.802900	-11.410000	22.768494	0.000968	20.888740
245.061595	-2.992800	3.802500	-11.379000	22.771159	0.000970	20.913219
246.063622	-3.002700	3.802900	-11.417000	22.771533	0.000968	20.914067
247.060137	-2.984500	3.804000	-11.351000	22.765030	0.000970	20.899020
248.064686	-3.002200	3.801200	-11.410000	22.765504	0.000971	20.894279
249.064559	-2.986800	3.802500	-11.356000	22.756037	0.000971	20.899494
250.066018	-2.999000	3.801300	-11.398000	22.762962	0.000974	20.899319
251.069157	-3.011100	3.799700	-11.439000	22.787850	0.000973	20.910024
252.061466	-3.008900	3.801100	-11.437000	22.779653	0.000973	20.894229
253.062969	-2.992400	3.801200	-11.373000	22.808501	0.000973	20.875713
254.066124	-2.991600	3.802400	-11.373000	22.818740	0.000972	20.882176
255.066330	-3.007600	3.799200	-11.425000	22.842978	0.000977	20.899818
256.065065	-3.016800	3.799100	-11.460000	22.855558	0.000975	20.894403
257.065226	-3.004600	3.800100	-11.417000	22.859070	0.000975	20.892706
258.065593	-2.987200	3.800300	-11.351000	22.860415	0.000976	20.903062
259.070759	-2.983500	3.799600	-11.334000	22.849753	0.000976	20.886692
260.066673	-3.008400	3.799500	-11.430000	22.856080	0.000975	20.908675
261.066463	-3.009700	3.799300	-11.434000	22.848333	0.000979	20.895225
262.068954	-3.007000	3.799600	-11.423000	22.844845	0.000977	20.926816
263.068256	-3.004100	3.797200	-11.406000	22.845941	0.000978	20.894726
264.067482	-3.020300	3.797000	-11.467000	22.851620	0.000976	20.887140
265.070303	-3.023300	3.796000	-11.475000	22.853141	0.000979	20.890560
266.067389	-3.005200	3.797200	-11.410000	22.860115	0.000979	20.881900
267.068203	-3.003100	3.797300	-11.401000	22.866019	0.000981	20.878806
268.070105	-3.000100	3.797900	-11.393000	22.865445	0.000979	20.902411
269.068763	-3.030500	3.796000	-11.502000	22.860638	0.000982	20.906603
270.071507	-3.015600	3.796400	-11.448000	22.857897	0.000983	20.891531
271.070485	-2.976900	3.796700	-11.301000	22.855905	0.000981	20.884320
272.072045	-3.001600	3.798200	-11.398000	22.850848	0.000982	20.889211
273.072542	-2.968200	3.797200	-11.269000	22.881239	0.000982	20.882673
274.069801	-3.007900	3.795300	-11.414000	22.883531	0.000984	20.866004
275.073621	-2.989900	3.795300	-11.346000	22.892672	0.000985	20.902660
276.075078	-3.003300	3.794100	-11.393000	22.912575	0.000983	20.882299
277.070396	-3.003500	3.794600	-11.396000	22.947397	0.000988	20.873091
278.071550	-3.000500	3.795100	-11.386000	22.949614	0.000983	20.857769
279.073112	-2.985700	3.793700	-11.325000	22.961222	0.000986	20.870346
280.073489	-2.991200	3.795100	-11.351000	22.990886	0.000987	20.864981
281.072220	-3.014200	3.793400	-11.433000	23.011361	0.000985	20.862261
282.074697	-2.986800	3.793000	-11.327000	23.000028	0.000990	20.855174
283.071017	-2.994000	3.794500	-11.359000	22.994026	0.000986	20.873341
284.072248	-3.009600	3.792300	-11.412000	23.010489	0.000988	20.868974
285.075121	-2.996200	3.791600	-11.359000	22.975320	0.000987	20.870247
286.071662	-3.005500	3.791400	-11.394000	22.948868	0.000986	20.857021
287.076840	-3.009100	3.792400	-11.410000	22.979653	0.000987	20.861313
288.070944	-3.009100	3.791300	-11.406000	22.991386	0.000992	20.870222
289.072662	-3.022600	3.789100	-11.452000	22.990463	0.000989	20.862186
290.075166	-3.025000	3.792100	-11.470000	23.000278	0.000991	20.849735
291.071126	-3.024600	3.790400	-11.464000	23.021922	0.000989	20.872843
292.072403	-2.996400	3.789100	-11.352000	23.035546	0.000991	20.852829
293.072613	-3.006100	3.790700	-11.394000	23.021897	0.000994	20.859542
294.075170	-2.979300	3.791500	-11.295000	23.017987	0.000992	20.869848
295.074831	-2.994400	3.789300	-11.345000	23.042420	0.000993	20.854975
296.076707	-2.997600	3.790600	-11.361000	23.040951	0.000993	20.848288
297.073802	-2.985900	3.789200	-11.312000	23.039033	0.000993	20.853478
298.075309	-2.995800	3.790100	-11.352000	23.051661	0.000992	20.851433
299.073121	-2.978000	3.790500	-11.287000	23.050939	0.000992	20.840278
300.074283	-2.988900	3.789300	-11.325000	23.048722	0.000995	20.857022
301.077327	-2.984500	3.789400	-11.309000	23.043940	0.000991	20.860291
302.076151	-3.001900	3.788900	-11.373000	23.046305	0.000995	20.842748
303.075937	-2.989600	3.787900	-11.323000	23.049046	0.000997	20.836959
304.074869	-2.993900	3.787400	-11.338000	23.072159	0.000995	20.858220
305.075303	-3.003600	3.786200	-11.371000	23.073479	0.000994	20.838681
306.079429	-2.992900	3.786800	-11.332000	23.068273	0.000997	20.826354
307.076527	-3.008500	3.786700	-11.392000	23.087077	0.000997	20.851358
308.079941	-3.024200	3.787600	-11.453000	23.080402	0.000999	20.843722
309.076549	-3.000300	3.785600	-11.357000	23.078709	0.000999	20.837284
310.078587	-3.011000	3.786000	-11.398000	23.091087	0.000999	20.827876
311.080611	-3.008500	3.786200	-11.389000	23.101447	0.000998	20.842524
312.076630	-3.027500	3.784000	-11.454000	23.091859	0.000999	20.846193
313.078488	-3.009800	3.784200	-11.389000	23.119802	0.001002	20.838631
314.077645	-2.976500	3.784300	-11.263000	23.135218	0.001001	20.828475
315.078074	-2.984500	3.783800	-11.292000	23.136015	0.000999	20.855351
316.080746	-2.996300	3.786000	-11.343000	23.125381	0.001002	20.836161
317.081663	-2.998100	3.784200	-11.345000	23.152676	0.001001	20.847391
318.081049	-3.006100	3.784200	-11.373000	23.158405	0.001003	20.826579
319.079735	-2.991900	3.784100	-11.320000	23.170035	0.001003	20.830647
320.079190	-3.015800	3.782300	-11.405000	23.178178	0.001005	20.837859
321.081820	-2.983700	3.784200	-11.290000	23.183507	0.001001	20.817121
322.081596	-2.995300	3.781800	-11.326000	23.188289	0.001005	20.839931
323.080932	-2.979000	3.782500	-11.268000	23.194914	0.001005	20.839456
324.079355	-2.995700	3.783400	-11.333000	23.194789	0.001006	20.813254
325.078779	-3.005700	3.781100	-11.363000	23.201687	0.001004	20.834390
326.081121	-3.001500	3.781300	-11.348000	23.229828	0.001006	20.807590
327.082485	-2.964700	3.781600	-11.210000	23.226789	0.001007	20.836787
328.082271	-2.994400	3.780600	-11.319000	23.265735	0.001007	20.834565
329.084130	-3.005200	3.780300	-11.360000	23.278933	0.001007	20.823610
330.080852	-3.014200	3.779400	-11.391000	23.282794	0.001008	20.822738
331.081969	-3.014700	3.779100	-11.391000	23.302440	0.001006	20.806867
332.082376	-3.012000	3.780200	-11.385000	23.326195	0.001008	20.829725
333.081150	-3.000100	3.780000	-11.338000	23.287027	0.001009	20.821765
334.083935	-2.989700	3.779300	-11.298000	23.323681	0.001007	20.821516
335.081838	-3.012400	3.778400	-11.381000	23.318402	0.001007	20.827605
336.083755	-2.996200	3.777900	-11.318000	23.319946	0.001008	20.818721
337.084649	-2.978600	3.779200	-11.256000	23.281101	0.001008	20.836214
338.082294	-2.989700	3.778700	-11.295000	23.287476	0.001011	20.838336
339.085161	-2.994500	3.778200	-11.313000	23.261479	0.001010	20.818447
340.082767	-2.985900	3.778600	-11.282000	23.274180	0.001009	20.835442
341.083494	-2.990000	3.778700	-11.297000	23.313149	0.001011	20.832771
342.086353	-3.005800	3.777700	-11.354000	23.293478	0.001010	20.817799
343.087422	-3.010600	3.777000	-11.370000	23.302219	0.001010	20.825610
344.083881	-3.011300	3.775400	-11.367000	23.295047	0.001012	20.820794
345.083496	-3.020900	3.775200	-11.403000	23.284042	0.001012	20.811187
346.083537	-2.991300	3.775600	-11.292000	23.299555	0.001014	20.817725
347.083867	-2.982900	3.776400	-11.264000	23.278912	0.001014	20.812684
348.084589	-2.991900	3.775900	-11.295000	23.270470	0.001013	20.802801
349.087317	-2.980600	3.775800	-11.253000	23.268554	0.001016	20.821743
350.091193	-3.012600	3.775700	-11.372000	23.252317	0.001015	20.817800
351.085072	-3.004800	3.775400	-11.343000	23.259191	0.001015	20.819472
352.085088	-2.999200	3.774700	-11.320000	23.244175	0.001015	20.793044
353.092997	-2.989700	3.774900	-11.285000	23.247263	0.001016	20.817002
354.086415	-2.994800	3.773400	-11.299000	23.276248	0.001017	20.802902
355.086279	-2.992500	3.772300	-11.287000	23.284839	0.001017	20.801080
356.085888	-2.994800	3.773000	-11.298000	23.309042	0.001016	20.798310
357.086110	-2.989500	3.774300	-11.282000	23.339993	0.001016	20.798510
358.090656	-2.996100	3.772700	-11.301000	23.360286	0.001017	20.812210
359.090886	-3.015400	3.770800	-11.370000	23.374453	0.001018	20.800331
360.087481	-3.004000	3.770400	-11.325000	23.385732	0.001019	20.771807
361.087484	-2.992700	3.771700	-11.287000	23.382894	0.001017	20.817800
362.087166	-2.998600	3.772800	-11.311000	23.368055	0.001016	20.785384
363.090218	-2.986700	3.771700	-11.264000	23.390712	0.001019	20.815205
364.090624	-3.010500	3.770300	-11.349000	23.396016	0.001018	20.807245
365.091088	-3.002600	3.769600	-11.318000	23.397659	0.001018	20.807943
366.091193	-3.021300	3.769000	-11.387000	23.396016	0.001018	20.782114
367.089833	-2.980900	3.770200	-11.238000	23.408191	0.001021	20.799059
368.091481	-2.997400	3.770200	-11.300000	23.431769	0.001016	20.816527
369.090322	-2.998100	3.769600	-11.301000	23.418598	0.001018	20.809490
370.089293	-2.980400	3.770300	-11.234000	23.409809	0.001018	20.793568
371.088571	-2.998400	3.769000	-11.300000	23.419196	0.001018	20.802028
372.088924	-3.009700	3.768200	-11.340000	23.426491	0.001017	20.797013
373.092759	-3.010000	3.767100	-11.338000	23.409784	0.001021	20.797337
374.089875	-2.996100	3.767000	-11.285000	23.443670	0.001021	20.789101
375.090693	-2.999700	3.767500	-11.299000	23.462493	0.001021	20.792321
376.092508	-3.008700	3.767500	-11.334000	23.460800	0.001018	20.796788
377.095856	-3.005700	3.765800	-11.318000	23.461173	0.001022	20.801429
378.092233	-2.976100	3.768300	-11.214000	23.464733	0.001022	20.790299
379.097250	-2.982700	3.766100	-11.231000	23.476385	0.001023	20.785383
380.096012	-3.004500	3.765300	-11.313000	23.501380	0.001023	20.801429
381.093413	-2.991900	3.766400	-11.268000	23.491671	0.001024	20.812085
382.101110	-2.994700	3.764100	-11.271000	23.509546	0.001025	20.784484
383.094364	-2.991700	3.764600	-11.261000	23.519803	0.001022	20.793343
384.095733	-3.028700	3.764400	-11.400000	23.525505	0.001025	20.798585
385.098444	-2.998500	3.764400	-11.286000	23.522716	0.001024	20.793419
386.097534	-3.019400	3.763900	-11.364000	23.564814	0.001021	20.782987
387.092567	-3.006500	3.765600	-11.320000	23.574721	0.001025	20.791971
388.095337	-3.013300	3.763600	-11.340000	23.567851	0.001025	20.787928
389.094569	-3.001400	3.764100	-11.297000	23.572108	0.001025	20.784609
390.093680	-3.008100	3.761600	-11.313000	23.576140	0.001025	20.782487
391.099654	-3.010900	3.761500	-11.324000	23.597027	0.001024	20.814805
392.094294	-3.030100	3.761000	-11.394000	23.580521	0.001024	20.788776
393.098606	-3.021100	3.760800	-11.361000	23.546939	0.001026	20.777870
394.097571	-2.978300	3.761600	-11.203000	23.541412	0.001024	20.780391
395.094928	-3.003500	3.762400	-11.299000	23.570389	0.001028	20.790473
396.095891	-2.986700	3.761400	-11.234000	23.588986	0.001030	20.780191
397.095822	-2.992100	3.761200	-11.253000	23.600387	0.001031	20.793043
398.095517	-2.983600	3.761000	-11.219000	23.618012	0.001029	20.804548
399.097029	-2.996900	3.759600	-11.265000	23.622966	0.001027	20.785807
400.097083	-2.985500	3.761200	-11.228000	23.633720	0.001030	20.776199
401.097511	-3.016900	3.759500	-11.341000	23.628367	0.001030	20.792170
402.098177	-2.999700	3.759200	-11.275000	23.647037	0.001029	20.778644
403.097662	-2.994100	3.759900	-11.257000	23.631105	0.001029	20.779268
404.095408	-2.996000	3.759000	-11.261000	23.597648	0.001029	20.776548
405.099436	-3.004100	3.757600	-11.287000	23.579426	0.001028	20.775350
406.098656	-3.003400	3.758000	-11.285000	23.575667	0.001029	20.787229
407.100982	-3.027500	3.758100	-11.376000	23.566232	0.001030	20.779193
408.098843	-2.983900	3.759000	-11.214000	23.581767	0.001029	20.778645
409.102025	-3.003500	3.756900	-11.283000	23.580397	0.001027	20.765892
410.099370	-3.019100	3.755400	-11.337000	23.588687	0.001028	20.775625
411.101588	-3.014200	3.757200	-11.324000	23.598820	0.001032	20.765393
412.098860	-2.978100	3.755600	-11.184000	23.603425	0.001029	20.760527
413.098886	-2.996600	3.756900	-11.258000	23.636907	0.001029	20.771807
414.099351	-2.988100	3.756500	-11.224000	23.630634	0.001028	20.778795
415.099187	-3.023300	3.754600	-11.349000	23.633123	0.001031	20.771807
416.099738	-3.005900	3.754300	-11.284000	23.638525	0.001030	20.790026
417.101099	-2.994300	3.753500	-11.238000	23.632725	0.001034	20.770460
418.102066	-3.013300	3.754300	-11.311000	23.641313	0.001031	20.781441
419.104758	-3.010700	3.753000	-11.299000	23.657668	0.001032	20.761327
420.101770	-3.014700	3.753800	-11.316000	23.649926	0.001031	20.760203
421.101091	-2.970100	3.754800	-11.151000	23.673301	0.001030	20.761352
422.102477	-2.989600	3.753800	-11.222000	23.668546	0.001032	20.764646
423.099842	-2.999500	3.753000	-11.257000	23.686295	0.001035	20.768689
424.100901	-2.999900	3.752200	-11.254000	23.671060	0.001033	20.786133
425.105129	-2.984700	3.752800	-11.201000	23.658664	0.001034	20.777972
426.099051	-3.000700	3.751700	-11.256000	23.677059	0.001032	20.767491
427.103394	-2.989900	3.752800	-11.220000	23.666480	0.001036	20.757833
428.102119	-2.993900	3.750700	-11.228000	23.678827	0.001033	20.764047
429.101053	-2.987900	3.752300	-11.210000	23.719599	0.001035	20.761302
430.100989	-3.001500	3.750700	-11.256000	23.737993	0.001033	20.754613
431.105367	-2.993700	3.749600	-11.224000	23.737420	0.001034	20.757358
432.106427	-3.003800	3.749300	-11.261000	23.746431	0.001033	20.758331
433.102269	-3.001800	3.748900	-11.253000	23.748248	0.001033	20.775327
434.108834	-3.004100	3.749400	-11.262000	23.750438	0.001033	20.784161
435.103020	-3.000000	3.748200	-11.243000	23.777170	0.001032	20.747425
436.105571	-2.998100	3.748200	-11.237000	23.771694	0.001034	20.774178
437.107988	-2.984300	3.748100	-11.184000	23.798177	0.001035	20.770859
438.103899	-2.988700	3.748000	-11.201000	23.792328	0.001036	20.756934
439.103966	-2.992600	3.747100	-11.213000	23.794220	0.001032	20.751718
440.103818	-3.008000	3.746900	-11.268000	23.788196	0.001033	20.764645
441.106632	-3.017700	3.746200	-11.303000	23.766143	0.001036	20.731153
442.104002	-2.981400	3.749000	-11.175000	23.777419	0.001035	20.749571
443.109538	-3.003600	3.746900	-11.252000	23.750613	0.001035	20.736919
444.102996	-3.016500	3.746000	-11.299000	23.747052	0.001035	20.765593
445.105025	-2.981900	3.746300	-11.170000	23.730899	0.001037	20.755561
446.116004	-2.996200	3.746100	-11.223000	23.734085	0.001036	20.745479
447.107798	-2.985500	3.744800	-11.179000	23.736997	0.001038	20.756460
448.109766	-3.000600	3.744100	-11.234000	23.749617	0.001037	20.761052
449.103925	-2.985100	3.744500	-11.177000	23.750687	0.001037	20.756909
450.109050	-2.988000	3.745000	-11.189000	23.789814	0.001039	20.759629
451.111511	-2.984200	3.744600	-11.174000	23.774184	0.001036	20.775252
452.110722	-2.991000	3.743700	-11.196000	23.793050	0.001036	20.754339
453.110193	-2.995200	3.743400	-11.211000	23.817864	0.001037	20.750295
454.113423	-2.996600	3.743400	-11.216000	23.830234	0.001037	20.748948
455.113203	-2.988700	3.744200	-11.189000	23.845067	0.001038	20.749596
456.110343	-2.986400	3.742600	-11.176000	23.810571	0.001036	20.751992
457.110297	-3.011000	3.740800	-11.262000	23.793723	0.001038	20.755961
458.112274	-3.009800	3.742100	-11.262000	23.793996	0.001036	20.736320
459.109171	-3.003000	3.740500	-11.232000	23.778788	0.001036	20.744306
460.111724	-3.007200	3.741400	-11.251000	23.787599	0.001039	20.742709
461.112086	-3.014800	3.740100	-11.275000	23.805220	0.001039	20.729082
462.112554	-2.992300	3.740700	-11.193000	23.818437	0.001041	20.736170
463.110096	-3.015200	3.738400	-11.270000	23.839019	0.001038	20.742109
464.114769	-3.008100	3.738900	-11.245000	23.855769	0.001040	20.732826
465.113263	-2.981000	3.740900	-11.151000	23.847631	0.001038	20.746951
466.113335	-2.993800	3.738800	-11.192000	23.860349	0.001039	20.726986
467.111140	-3.000000	3.740000	-11.219000	23.838447	0.001037	20.739639
468.110782	-3.011300	3.738600	-11.256000	23.841359	0.001039	20.726911
469.115304	-3.003400	3.738500	-11.227000	23.869258	0.001041	20.757258
470.111966	-3.019300	3.736400	-11.280000	23.839294	0.001039	20.743807
471.117846	-2.992400	3.737800	-11.184000	23.849149	0.001039	20.723342
472.113179	-2.991700	3.737500	-11.181000	23.865501	0.001036	20.738791
473.117037	-3.013200	3.736500	-11.258000	23.870453	0.001038	20.741860
474.122291	-2.987000	3.738200	-11.164000	23.889990	0.001039	20.751494
475.116710	-3.014200	3.735500	-11.259000	23.877846	0.001038	20.716555
476.116220	-3.000100	3.735300	-11.206000	23.897581	0.001038	20.741087
477.113751	-3.012000	3.734400	-11.247000	23.943223	0.001038	20.729956
478.117363	-3.003200	3.735300	-11.216000	23.942278	0.001038	20.737069
479.114437	-2.997300	3.735400	-11.195000	23.919955	0.001038	20.745980
480.115922	-3.018300	3.734000	-11.268000	23.946085	0.001038	20.722394
481.116501	-3.006700	3.733200	-11.224000	23.953278	0.001040	20.726288
482.119822	-2.978900	3.733500	-11.121000	23.965521	0.001039	20.730505
483.116129	-3.008400	3.734100	-11.233000	23.989835	0.001041	20.725490
484.115199	-2.995500	3.733500	-11.182000	23.973360	0.001038	20.749273
485.121943	-3.024900	3.731600	-11.286000	23.976820	0.001040	20.731879
486.116301	-2.969400	3.733200	-11.084000	24.004865	0.001039	20.700258
487.118345	-2.997300	3.733400	-11.189000	24.016959	0.001040	20.724716
488.117387	-3.016500	3.731100	-11.253000	24.006782	0.001042	20.716880
489.119125	-2.996000	3.731300	-11.176000	24.025694	0.001040	20.729209
490.122033	-2.993000	3.731400	-11.167000	24.020917	0.001039	20.720624
491.119352	-3.000600	3.731500	-11.195000	24.063144	0.001041	20.734525
492.119353	-2.994400	3.731800	-11.173000	24.052867	0.001040	20.741288
493.119121	-3.012300	3.729600	-11.234000	24.027237	0.001039	20.732179
494.119055	-2.992500	3.731300	-11.165000	24.016014	0.001040	20.713811
495.122625	-2.995400	3.730300	-11.172000	23.986128	0.001040	20.739792
496.120653	-2.998600	3.731300	-11.187000	23.970027	0.001042	20.703728
497.126000	-2.990700	3.731000	-11.157000	23.947506	0.001042	20.713387
498.118876	-3.017500	3.729400	-11.252000	23.949571	0.001042	20.722571
499.122709	-3.006500	3.728000	-11.207000	23.959401	0.001038	20.715833
500.123157	-3.015300	3.728500	-11.241000	23.961666	0.001039	20.724743
501.122134	-3.017900	3.727700	-11.249000	23.976846	0.001041	20.699186
502.122691	-3.002100	3.729000	-11.194000	23.997127	0.001040	20.723794
503.119242	-2.981400	3.729300	-11.116000	23.980379	0.001040	20.710316
504.121140	-2.987700	3.729600	-11.141000	23.996778	0.001040	20.731505
505.122754	-3.003500	3.726600	-11.192000	23.998745	0.001041	20.725416
506.124125	-2.995200	3.727900	-11.164000	24.023754	0.001041	20.695492
507.124056	-3.001100	3.727200	-11.184000	24.015144	0.001041	20.729534
508.124564	-3.001700	3.726200	-11.184000	24.011062	0.001040	20.718328
509.121169	-3.019400	3.726500	-11.251000	24.027585	0.001040	20.719725
510.125832	-3.016900	3.726000	-11.240000	23.997674	0.001040	20.719601
511.125619	-2.985800	3.725200	-11.121000	23.967886	0.001038	20.719601
512.123054	-2.986700	3.725000	-11.125000	23.952905	0.001042	20.708844
513.126395	-3.008700	3.724600	-11.205000	23.990284	0.001040	20.725940
514.122457	-2.992100	3.722800	-11.138000	23.946633	0.001040	20.705873
515.124341	-3.013100	3.724100	-11.220000	23.964650	0.001041	20.718726
516.127799	-3.029000	3.723300	-11.277000	23.950018	0.001042	20.719226
517.129206	-2.983500	3.723000	-11.106000	23.977640	0.001040	20.723692
518.126165	-3.030400	3.722000	-11.278000	23.996129	0.001041	20.730854
519.124955	-3.005700	3.722600	-11.188000	24.008869	0.001041	20.714232
520.125718	-3.000100	3.722500	-11.167000	24.024273	0.001043	20.722094
521.128995	-2.985400	3.722800	-11.112000	24.042065	0.001042	20.726661
522.128160	-3.012800	3.720600	-11.207000	24.049704	0.001040	20.722942
523.127676	-3.015000	3.720900	-11.217000	24.051247	0.001040	20.719273
524.132919	-2.990800	3.720600	-11.127000	24.049679	0.001041	20.723391
525.127564	-2.996400	3.720800	-11.147000	24.036391	0.001042	20.715754
526.127279	-3.004800	3.720800	-11.179000	24.036116	0.001039	20.734446
527.133594	-3.004300	3.719900	-11.175000	24.026487	0.001043	20.732375
528.128845	-3.000000	3.720000	-11.159000	24.027680	0.001039	20.721243
529.130662	-2.998700	3.718400	-11.149000	24.041865	0.001039	20.728831
530.128520	-2.998500	3.719100	-11.151000	24.086629	0.001040	20.728206
531.132613	-3.017400	3.718400	-11.218000	24.083842	0.001040	20.735842
532.131663	-2.994000	3.719000	-11.134000	24.088769	0.001040	20.735094
533.133054	-3.014600	3.716800	-11.204000	24.066149	0.001040	20.726633
534.128285	-3.014300	3.718000	-11.207000	24.081228	0.001039	20.736067
535.129302	-3.007500	3.718000	-11.181000	24.073515	0.001042	20.732598
536.130006	-2.990500	3.718200	-11.117000	24.065079	0.001040	20.724611
537.134942	-3.001500	3.716600	-11.154000	24.041887	0.001040	20.740708
538.137931	-2.992400	3.717000	-11.122000	24.044649	0.001039	20.719295
539.132344	-2.978000	3.717800	-11.070000	24.035566	0.001040	20.727256
540.138145	-3.014200	3.716500	-11.201000	24.033153	0.001039	20.726258
541.132566	-2.992600	3.717100	-11.123000	24.058882	0.001038	20.718870
542.137134	-2.984000	3.716700	-11.088000	24.083218	0.001038	20.730949
543.136737	-2.983400	3.714700	-11.082000	24.060922	0.001040	20.724710
544.141320	-2.984900	3.714500	-11.087000	24.064854	0.001037	20.734344
545.139926	-2.993700	3.714100	-11.117000	24.068960	0.001036	20.754109
546.133335	-2.997800	3.715000	-11.136000	24.058982	0.001038	20.737463
547.136697	-2.989500	3.715700	-11.106000	24.082844	0.001039	20.713030
548.136045	-2.999200	3.715000	-11.140000	24.097350	0.001040	20.736114
549.133603	-2.997800	3.713600	-11.131000	24.124348	0.001040	20.741855
550.134925	-3.009700	3.713500	-11.175000	24.152514	0.001038	20.739284
551.138455	-3.003900	3.713000	-11.152000	24.148309	0.001038	20.739808
552.134596	-2.987700	3.712000	-11.089000	24.138481	0.001041	20.747495
553.137491	-2.987900	3.711600	-11.088000	24.137933	0.001039	20.742204
554.136560	-2.983700	3.711900	-11.074000	24.107626	0.001038	20.744998
555.134495	-2.997100	3.711400	-11.122000	24.133380	0.001041	20.748068
556.135257	-3.008100	3.710100	-11.159000	24.140496	0.001039	20.748093
557.134929	-3.008900	3.710800	-11.164000	24.144303	0.001039	20.757128
558.137796	-3.024100	3.708600	-11.214000	24.189262	0.001037	20.738685
559.139634	-2.971600	3.711700	-11.028000	24.202896	0.001042	20.759473
560.135413	-3.013600	3.708600	-11.175000	24.196776	0.001039	20.746696
561.141105	-2.988200	3.709800	-11.085000	24.252706	0.001037	20.739258
562.137414	-2.987900	3.710100	-11.084000	24.260169	0.001038	20.746745
563.136687	-3.015400	3.709500	-11.185000	24.288059	0.001038	20.747220
564.140205	-2.998600	3.710100	-11.123000	24.285421	0.001039	20.746471
565.137488	-2.982000	3.709600	-11.061000	24.274649	0.001038	20.730448
566.136925	-3.008200	3.707300	-11.151000	24.271290	0.001038	20.767384
567.137289	-3.001200	3.708000	-11.128000	24.248253	0.001038	20.741430
568.141137	-2.996800	3.708400	-11.111000	24.215884	0.001038	20.726031
569.140498	-2.993100	3.708100	-11.097000	24.188665	0.001036	20.743775
570.137383	-3.025100	3.707100	-11.213000	24.166471	0.001036	20.743800
571.141737	-3.004400	3.707200	-11.138000	24.149303	0.001038	20.739383
572.139119	-3.019200	3.705000	-11.184000	24.135021	0.001038	20.732171
573.143141	-2.993100	3.706300	-11.093000	24.177742	0.001038	20.738035
574.143223	-2.986900	3.705100	-11.066000	24.169307	0.001038	20.750912
575.145125	-3.000800	3.704800	-11.116000	24.162937	0.001039	20.740729
576.143802	-2.997000	3.704400	-11.101000	24.163360	0.001038	20.756802
577.140408	-3.017100	3.704400	-11.175000	24.152586	0.001038	20.764488
578.144147	-3.017700	3.703800	-11.176000	24.178064	0.001035	20.770127
579.143844	-3.002300	3.705500	-11.122000	24.210334	0.001038	20.759346
580.144546	-3.004800	3.703600	-11.127000	24.214713	0.001036	20.760420
581.140194	-3.012600	3.703500	-11.156000	24.225461	0.001036	20.760294
582.140725	-3.005300	3.703100	-11.128000	24.276114	0.001036	20.747567
583.143069	-2.997600	3.702400	-11.095000	24.251161	0.001035	20.755727
584.143923	-2.985300	3.702900	-11.053000	24.264147	0.001038	20.763063
585.142087	-2.984500	3.702500	-11.049000	24.260987	0.001039	20.761791
586.143605	-3.012200	3.699500	-11.142000	24.283651	0.001036	20.766033
587.145507	-2.992200	3.700100	-11.070000	24.292806	0.001036	20.773794
588.141443	-2.996200	3.701700	-11.090000	24.309948	0.001035	20.758746
589.145077	-2.989500	3.701000	-11.063000	24.293925	0.001035	20.763537
590.147473	-2.987800	3.702000	-11.059000	24.333854	0.001037	20.758071
591.143886	-3.012200	3.700500	-11.146000	24.313031	0.001035	20.757097
592.142448	-3.006200	3.699900	-11.121000	24.318181	0.001036	20.776488
593.142516	-2.979200	3.700400	-11.023000	24.327882	0.001035	20.767254
594.145382	-2.977800	3.700400	-11.017000	24.352311	0.001035	20.762836
595.143598	-2.997300	3.698600	-11.084000	24.369152	0.001032	20.758868
596.146460	-2.981700	3.699200	-11.029000	24.347111	0.001036	20.765206
597.143299	-3.009800	3.698400	-11.131000	24.341738	0.001034	20.769773
598.147359	-3.004100	3.698200	-11.108000	24.347360	0.001035	20.778258
599.144175	-2.980600	3.697900	-11.020000	24.364748	0.001036	20.753027
600.144773	-2.999100	3.698000	-11.090000	24.384425	0.001034	20.770870
601.148692	-2.995400	3.697400	-11.075000	24.406390	0.001035	20.771095
602.146296	-2.985000	3.698000	-11.038000	24.414076	0.001034	20.759365
603.147331	-2.996800	3.697000	-11.078000	24.397012	0.001035	20.766902
604.146336	-2.985500	3.697200	-11.037000	24.374125	0.001035	20.770495
605.146196	-2.995200	3.695000	-11.066000	24.365543	0.001033	20.791284
606.150327	-3.006000	3.695300	-11.108000	24.370617	0.001033	20.779779
607.152524	-3.007800	3.694200	-11.110000	24.385518	0.001034	20.783821
608.147175	-3.003400	3.695300	-11.097000	24.378552	0.001034	20.773988
609.147128	-3.002000	3.694000	-11.089000	24.366388	0.001035	20.778380
610.150550	-3.009100	3.694800	-11.117000	24.371363	0.001033	20.752551
611.150420	-3.011400	3.693400	-11.122000	24.367880	0.001036	20.803585
612.151342	-3.022700	3.694000	-11.164000	24.381985	0.001032	20.802088
613.150685	-3.030500	3.691600	-11.186000	24.343799	0.001033	20.782273
614.151165	-3.006100	3.693100	-11.101000	24.335987	0.001032	20.800989
615.150881	-3.008900	3.692200	-11.108000	24.317454	0.001032	20.792355
616.155487	-3.006600	3.692100	-11.099000	24.298173	0.001031	20.782971
617.150999	-3.000000	3.691900	-11.074000	24.319667	0.001034	20.794101
618.147534	-2.989100	3.691500	-11.033000	24.330589	0.001032	20.782771
619.155081	-3.015000	3.691100	-11.127000	24.323871	0.001033	20.792628
620.148801	-2.994600	3.692000	-11.055000	24.337429	0.001032	20.803384
621.151496	-3.017000	3.689900	-11.131000	24.342504	0.001032	20.795198
622.152051	-3.010100	3.689700	-11.105000	24.373251	0.001033	20.803757
623.152595	-3.002600	3.690300	-11.079000	24.370888	0.001031	20.787637
624.148633	-3.010900	3.689600	-11.107000	24.397804	0.001033	20.799466
625.151668	-2.992200	3.690100	-11.040000	24.371634	0.001029	20.796445
626.149149	-3.011500	3.688600	-11.106000	24.374818	0.001029	20.784467
627.153303	-2.992600	3.689400	-11.040000	24.358648	0.001028	20.792901
628.153354	-2.988900	3.687700	-11.020000	24.388699	0.001029	20.807875
629.151319	-2.979600	3.688500	-10.988000	24.405465	0.001031	20.812366
630.153557	-2.987200	3.689300	-11.019000	24.448871	0.001031	20.796170
631.150511	-2.973900	3.688400	-10.966000	24.451359	0.001029	20.798192
632.151354	-2.982300	3.687300	-10.995000	24.448125	0.001029	20.807749
633.156135	-2.985200	3.686900	-11.005000	24.473695	0.001030	20.804480
634.155205	-2.998800	3.686500	-11.054000	24.490535	0.001029	20.810469
635.155121	-2.987000	3.687000	-11.011000	24.511628	0.001029	20.802708
636.153445	-3.017100	3.686300	-11.120000	24.515259	0.001031	20.819153
637.153815	-3.010300	3.686400	-11.096000	24.540405	0.001029	20.826839
638.156122	-2.997000	3.685900	-11.045000	24.546200	0.001029	20.801359
639.161578	-3.006000	3.685400	-11.077000	24.529088	0.001027	20.801734
640.156382	-3.005600	3.685100	-11.075000	24.514040	0.001027	20.798964
641.158520	-3.026900	3.683600	-11.147000	24.478048	0.001027	20.814536
642.155951	-2.978900	3.686100	-10.980000	24.505533	0.001029	20.798964
643.160753	-2.987300	3.683800	-11.003000	24.491803	0.001028	20.804629
644.160089	-3.003300	3.683800	-11.062000	24.495434	0.001026	20.813013
645.158973	-2.992400	3.684800	-11.025000	24.528490	0.001028	20.806350
646.156520	-3.002400	3.683600	-11.059000	24.535952	0.001026	20.809095
647.156196	-3.016000	3.683300	-11.108000	24.548214	0.001028	20.831355
648.158682	-3.011900	3.683000	-11.092000	24.557018	0.001028	20.832602
649.160019	-3.005500	3.682000	-11.065000	24.568633	0.001027	20.816281
650.160851	-3.025600	3.682400	-11.140000	24.572289	0.001024	20.806673
651.160822	-3.032700	3.680500	-11.162000	24.566668	0.001026	20.829482
652.157103	-2.998200	3.680100	-11.033000	24.574851	0.001028	20.830580
653.161016	-2.986300	3.680900	-10.991000	24.566518	0.001025	20.830280
654.163065	-3.004400	3.681600	-11.060000	24.544705	0.001026	20.830679
655.160125	-3.020200	3.680100	-11.112000	24.568110	0.001027	20.838989
656.161222	-2.997400	3.680600	-11.031000	24.592285	0.001026	20.811089
657.160279	-3.013700	3.679300	-11.087000	24.558857	0.001024	20.816429
658.161751	-2.991700	3.679600	-11.007000	24.572487	0.001023	20.823941
659.164328	-2.983800	3.680900	-10.982000	24.577163	0.001024	20.821994
660.167459	-3.006700	3.679300	-11.061000	24.558484	0.001024	20.824115
661.165708	-2.998600	3.678000	-11.027000	24.579973	0.001023	20.833348
662.166112	-3.011600	3.677400	-11.074000	24.560796	0.001023	20.825013
663.163279	-2.995000	3.677200	-11.012000	24.560001	0.001026	20.827060
664.164929	-2.997500	3.677500	-11.022000	24.559677	0.001023	20.810140
665.166610	-3.009000	3.677300	-11.064000	24.528885	0.001026	20.804849
666.169734	-2.999300	3.677800	-11.029000	24.520129	0.001021	20.843479
667.167110	-3.002500	3.676400	-11.038000	24.533784	0.001023	20.841058
668.164828	-2.992900	3.675500	-10.998000	24.558159	0.001021	20.834221
669.164120	-2.992800	3.676200	-11.001000	24.570396	0.001023	20.823265
670.167997	-2.981500	3.676200	-10.959000	24.576439	0.001024	20.830752
671.167748	-2.997800	3.675800	-11.019000	24.606086	0.001021	20.837264
672.165531	-3.010600	3.675000	-11.063000	24.628246	0.001023	20.830102
673.167694	-3.018500	3.674600	-11.091000	24.637472	0.001023	20.839834
674.168083	-3.003200	3.673700	-11.032000	24.673409	0.001024	20.828479
675.169578	-2.971600	3.675600	-10.920000	24.667763	0.001021	20.847470
676.171249	-3.001900	3.673600	-11.027000	24.655527	0.001020	20.823813
677.170156	-3.012100	3.673100	-11.063000	24.678681	0.001021	20.844201
678.176439	-2.993100	3.673700	-10.995000	24.714194	0.001021	20.859922
679.170122	-3.009000	3.673000	-11.050000	24.712950	0.001019	20.843502
680.174253	-2.974900	3.673500	-10.927000	24.686166	0.001019	20.825160
681.174294	-2.981500	3.672700	-10.949000	24.665922	0.001022	20.845149
682.173080	-2.995200	3.672400	-10.999000	24.643291	0.001021	20.847095
683.173624	-3.009100	3.671800	-11.048000	24.613769	0.001020	20.862516
684.173937	-3.040900	3.669800	-11.159000	24.606855	0.001021	20.842777
685.173798	-2.993600	3.671900	-10.991000	24.640108	0.001020	20.864763
686.176515	-2.991800	3.671500	-10.983000	24.635605	0.001018	20.858349
687.178478	-3.012300	3.670200	-11.055000	24.662813	0.001022	20.835391
688.175114	-2.995900	3.672300	-11.001000	24.673234	0.001017	20.848218
689.176568	-3.008900	3.669700	-11.041000	24.662888	0.001017	20.844000
690.176036	-2.995700	3.670000	-10.993000	24.655427	0.001020	20.859746
691.180766	-2.987100	3.669800	-10.962000	24.647369	0.001017	20.833169
692.182916	-2.991500	3.670400	-10.978000	24.650776	0.001019	20.859821
693.177832	-3.013700	3.669500	-11.057000	24.664827	0.001017	20.865386
694.185313	-2.996800	3.668600	-10.993000	24.655676	0.001016	20.846721
695.178875	-3.015200	3.668100	-11.059000	24.672562	0.001018	20.849914
696.182017	-3.007700	3.667000	-11.028000	24.704668	0.001017	20.847993
697.184160	-3.001500	3.668700	-11.010000	24.703400	0.001016	20.864737
698.181318	-3.011000	3.666200	-11.037000	24.705837	0.001018	20.844898
699.178955	-2.992100	3.667500	-10.972000	24.712452	0.001018	20.866708
700.183057	-3.005400	3.666600	-11.018000	24.700316	0.001016	20.854530
701.185727	-3.004100	3.665700	-11.011000	24.708150	0.001014	20.868555
702.179955	-2.989100	3.666900	-10.959000	24.694174	0.001018	20.863065
703.184861	-3.000200	3.666100	-10.997000	24.688727	0.001015	20.869927
704.183251	-2.994100	3.665600	-10.973000	24.668707	0.001013	20.869753
705.190077	-3.023700	3.664500	-11.079000	24.682211	0.001015	20.871924
706.188445	-3.003000	3.663500	-11.001000	24.701932	0.001014	20.870850
707.187957	-2.990400	3.665800	-10.961000	24.736499	0.001014	20.878037
708.184934	-3.006400	3.664800	-11.017000	24.700465	0.001014	20.880757
709.186004	-3.001000	3.664300	-10.996000	24.698326	0.001015	20.852060
710.184566	-3.001900	3.665200	-11.002000	24.658708	0.001013	20.874892
711.189006	-2.989400	3.663100	-10.950000	24.660300	0.001012	20.861791
712.189809	-2.991300	3.664500	-10.960000	24.675098	0.001013	20.870949
713.191525	-3.003800	3.663900	-11.004000	24.683404	0.001012	20.859845
714.190948	-3.020600	3.662900	-11.064000	24.699295	0.001012	20.876739
715.191607	-3.003200	3.662300	-10.998000	24.754999	0.001013	20.867205
716.189026	-3.009700	3.662500	-11.022000	24.769945	0.001012	20.856600
717.193940	-3.006200	3.662100	-11.008000	24.826939	0.001013	20.882028
718.188648	-2.987500	3.661200	-10.936000	24.791032	0.001010	20.882028
719.189724	-2.997600	3.661700	-10.975000	24.793419	0.001009	20.881579
720.193081	-3.004300	3.662400	-11.003000	24.770864	0.001009	20.887393
721.188911	-2.990800	3.661100	-10.949000	24.783720	0.001010	20.885122
722.191952	-3.017000	3.660100	-11.041000	24.787251	0.001014	20.882027
723.192119	-3.005500	3.659300	-10.996000	24.810253	0.001012	20.897998
724.189243	-3.008100	3.659100	-11.005000	24.791777	0.001011	20.886095
725.197886	-3.012300	3.658500	-11.020000	24.828206	0.001009	20.895152
726.190848	-2.996500	3.658500	-10.961000	24.816519	0.001010	20.881528
727.193164	-2.981800	3.659700	-10.911000	24.831562	0.001008	20.902788
728.197376	-3.008700	3.657700	-11.003000	24.841062	0.001009	20.882925
729.191670	-3.004100	3.657500	-10.987000	24.850287	0.001008	20.901665
730.196681	-3.009000	3.659100	-11.009000	24.846656	0.001008	20.876213
731.194060	-3.015700	3.657700	-11.030000	24.799137	0.001008	20.894429
732.196831	-3.047300	3.655800	-11.138000	24.817638	0.001008	20.885495
733.197003	-3.006600	3.657000	-10.994000	24.787947	0.001009	20.903586
734.193857	-3.020700	3.656700	-11.045000	24.803141	0.001006	20.878059
735.197841	-2.997900	3.656600	-10.962000	24.829524	0.001009	20.891259
736.194540	-2.995200	3.656600	-10.951000	24.832010	0.001007	20.886643
737.193973	-3.015200	3.655600	-11.020000	24.831438	0.001005	20.916412
738.199006	-3.003800	3.654800	-10.977000	24.852027	0.001007	20.902464
739.196352	-2.984700	3.655800	-10.910000	24.823829	0.001007	20.916836
740.195731	-2.988900	3.655400	-10.925000	24.840937	0.001007	20.899868
741.198399	-3.001700	3.655100	-10.971000	24.805776	0.001005	20.908676
742.196178	-2.980200	3.656200	-10.894000	24.832358	0.001005	20.896000
743.195120	-3.002300	3.653900	-10.970000	24.837903	0.001006	20.887815
744.198957	-3.005100	3.654200	-10.980000	24.864783	0.001007	20.910049
745.200392	-2.999700	3.654300	-10.961000	24.864385	0.001005	20.916761
746.199676	-2.994100	3.654800	-10.942000	24.872988	0.001004	20.925395
747.196526	-2.994200	3.652700	-10.935000	24.846855	0.001005	20.901540
748.198067	-2.976300	3.653400	-10.873000	24.813086	0.001004	20.911745
749.200486	-2.993400	3.653600	-10.936000	24.801798	0.001006	20.919856
750.202168	-2.979300	3.652600	-10.881000	24.821367	0.001004	20.888764
751.204620	-3.007800	3.653300	-10.988000	24.833576	0.001004	20.903860
752.198707	-2.987600	3.652500	-10.912000	24.844940	0.001003	20.912894
753.197659	-2.998900	3.651100	-10.948000	24.836759	0.001004	20.913692
754.206521	-3.006300	3.651500	-10.977000	24.846755	0.001003	20.883424
755.200253	-2.998100	3.649800	-10.941000	24.871820	0.001005	20.918059
756.205096	-3.007600	3.650100	-10.977000	24.842503	0.001000	20.909500
757.198599	-3.009100	3.650000	-10.982000	24.880497	0.001000	20.895002
758.204260	-2.984500	3.651800	-10.898000	24.904119	0.001000	20.898321
759.202814	-2.999500	3.649500	-10.946000	24.918117	0.001003	20.894353
760.201102	-3.018100	3.648600	-11.011000	24.930127	0.001001	20.912570
761.200919	-3.006000	3.649100	-10.968000	24.951409	0.001001	20.892208
762.202224	-3.010100	3.648200	-10.981000	24.948078	0.001004	20.897872
763.203496	-3.007700	3.648500	-10.971000	24.960336	0.001001	20.891684
764.203637	-2.976500	3.649800	-10.862000	24.968789	0.001001	20.909650
765.202290	-3.000700	3.646900	-10.942000	24.953747	0.001000	20.902139
766.205076	-3.017500	3.647000	-11.004000	24.958695	0.000998	20.902838
767.202442	-3.014100	3.647700	-10.993000	24.963046	0.000997	20.903412
768.203895	-2.983600	3.647100	-10.881000	24.977466	0.000998	20.890860
769.205509	-2.995400	3.646600	-10.921000	24.928337	0.001000	20.888490
770.206409	-3.001400	3.648200	-10.948000	24.915209	0.000999	20.885271
771.207801	-2.998700	3.645300	-10.930000	24.883805	0.000998	20.897373
772.202951	-3.009000	3.645400	-10.967000	24.912946	0.000998	20.872095
773.204235	-2.981500	3.647500	-10.873000	24.911976	0.000997	20.873967
774.204309	-2.995500	3.645900	-10.920000	24.936815	0.000996	20.878983
775.206788	-2.979600	3.645800	-10.862000	24.955090	0.000998	20.864609
776.204201	-2.985100	3.645600	-10.881000	24.950689	0.000995	20.884373
777.208210	-3.012500	3.645000	-10.977000	24.947184	0.000996	20.888441
778.206269	-3.012200	3.644000	-10.974000	24.960038	0.000995	20.884273
779.206217	-3.004700	3.644900	-10.950000	24.980102	0.000995	20.866955
780.212578	-2.992500	3.643900	-10.904000	25.006381	0.000995	20.881478
781.207897	-2.985000	3.643600	-10.874000	25.024480	0.000996	20.871197
782.211014	-2.995400	3.642800	-10.911000	25.019384	0.000997	20.880780
783.208373	-3.006800	3.642200	-10.950000	25.008967	0.000993	20.860368
784.211971	-3.017900	3.641500	-10.989000	25.016202	0.000994	20.855776
785.211041	-2.985400	3.641900	-10.872000	25.034525	0.000993	20.865159
786.208344	-3.002400	3.641600	-10.932000	25.028384	0.000994	20.872745
787.208119	-3.012800	3.641500	-10.970000	25.013243	0.000993	20.860867
788.207098	-3.016600	3.640700	-10.980000	25.004119	0.000995	20.873518
789.213633	-3.010300	3.640900	-10.959000	25.004368	0.000991	20.855277
790.211082	-2.995100	3.640600	-10.903000	25.018415	0.000996	20.858472
791.214711	-2.978500	3.640800	-10.843000	25.018042	0.000993	20.853830
792.208898	-2.994400	3.640100	-10.899000	25.022691	0.000992	20.870823
793.211915	-2.987100	3.641100	-10.875000	25.007326	0.000992	20.874242
794.209016	-2.989600	3.638800	-10.878000	25.040716	0.000993	20.849089
795.209565	-3.015300	3.639200	-10.971000	25.039498	0.000991	20.880107
796.213496	-3.014300	3.637700	-10.964000	25.014636	0.000994	20.867005
797.212214	-3.014500	3.637700	-10.965000	24.985249	0.000990	20.836087
798.210256	-2.987600	3.638500	-10.869000	24.981022	0.000991	20.860293
799.209611	-2.998500	3.638000	-10.907000	24.957925	0.000989	20.841378
800.209054	-2.991600	3.637800	-10.882000	24.926025	0.000990	20.852033
801.213394	-2.999400	3.638000	-10.909000	24.966826	0.000988	20.846044
802.211410	-2.984100	3.637700	-10.855000	24.989003	0.000985	20.853131
803.213900	-3.002000	3.638400	-10.920000	25.000688	0.000989	20.853481
804.213801	-3.011500	3.635600	-10.948000	25.022865	0.000989	20.863412
805.211785	-2.998800	3.636400	-10.904000	25.012473	0.000988	20.859145
806.214493	-3.018600	3.635800	-10.973000	25.006083	0.000987	20.861266
807.214609	-3.000100	3.637300	-10.912000	24.995343	0.000987	20.858072
808.212238	-3.012100	3.634600	-10.947000	24.953897	0.000987	20.847766
809.212185	-3.015600	3.635800	-10.962000	24.934355	0.000986	20.823410
810.212006	-2.993600	3.635400	-10.882000	24.926448	0.000985	20.861466
811.212111	-3.002100	3.634400	-10.909000	24.978064	0.000986	20.843099
812.212173	-2.975200	3.635800	-10.817000	24.988680	0.000987	20.848066
813.215096	-2.995000	3.634400	-10.884000	25.017917	0.000985	20.863187
814.211976	-2.988400	3.635200	-10.863000	25.044271	0.000986	20.860718
815.218657	-3.013100	3.633000	-10.946000	25.050685	0.000986	20.838233
816.212082	-2.990800	3.634100	-10.867000	25.022293	0.000984	20.837709
817.214633	-3.012900	3.633300	-10.946000	25.003696	0.000984	20.849862
818.214788	-2.991500	3.631600	-10.863000	25.007725	0.000983	20.836362
819.211993	-2.992500	3.632500	-10.869000	24.980003	0.000981	20.855951
820.215108	-3.013100	3.631300	-10.941000	24.935970	0.000984	20.851109
821.211951	-2.994000	3.633100	-10.877000	24.947905	0.000984	20.829898
822.213707	-3.019300	3.631100	-10.961000	24.935000	0.000981	20.829748
823.216735	-3.020900	3.630000	-10.965000	24.945518	0.000981	20.850261
824.215783	-2.993900	3.630100	-10.867000	24.940222	0.000983	20.845420
825.216382	-2.994800	3.631700	-10.875000	24.955414	0.000983	20.844547
826.213674	-2.992600	3.629900	-10.861000	24.963891	0.000978	20.825556
827.217130	-3.000400	3.629300	-10.888000	24.983956	0.000982	20.824832
828.216286	-2.994000	3.630300	-10.868000	24.995143	0.000980	20.817570
829.218894	-3.017300	3.629400	-10.950000	25.002801	0.000977	20.839955
830.219333	-2.995200	3.628700	-10.867000	25.031094	0.000978	20.829474
831.216276	-3.011200	3.628800	-10.926000	24.996760	0.000977	20.844796
832.215926	-2.998800	3.628300	-10.880000	25.005959	0.000977	20.818943
833.220872	-3.025100	3.626400	-10.969000	25.008495	0.000976	20.847092
834.219498	-2.994100	3.628100	-10.862000	25.004616	0.000978	20.823285
835.215909	-3.004400	3.627700	-10.897000	25.021945	0.000976	20.813178
836.218453	-2.987800	3.627900	-10.837000	25.004368	0.000977	20.838682
837.217345	-3.007500	3.626800	-10.907000	25.029379	0.000975	20.834865
838.219706	-2.986000	3.627700	-10.830000	25.009490	0.000975	20.813004
839.220399	-3.005300	3.626900	-10.899000	24.996039	0.000978	20.818943
840.221517	-3.011200	3.625300	-10.916000	25.027489	0.000975	20.844347
841.220611	-3.001300	3.626000	-10.880000	25.042431	0.000976	20.826629
842.218379	-3.002500	3.625000	-10.883000	25.072860	0.000974	20.835363
843.219456	-2.986800	3.625000	-10.826000	25.107217	0.000975	20.812954
844.229150	-2.972700	3.626600	-10.779000	25.118628	0.000974	20.821090
845.225664	-2.999900	3.624000	-10.869000	25.114824	0.000974	20.809685
846.219152	-2.994900	3.624100	-10.853000	25.150398	0.000973	20.804620
847.220021	-3.003000	3.623300	-10.879000	25.133643	0.000974	20.818146
848.220276	-3.001000	3.623700	-10.874000	25.118653	0.000974	20.834391
849.224025	-2.990000	3.624800	-10.837000	25.099859	0.000973	20.813628
850.223608	-3.006700	3.623300	-10.892000	25.044594	0.000971	20.834017
851.221811	-2.989000	3.623100	-10.828000	25.045912	0.000974	20.821589
852.226170	-3.008200	3.621700	-10.893000	25.084396	0.000973	20.817546
853.228509	-3.010500	3.622800	-10.904000	25.086982	0.000971	20.812555
854.229677	-3.010600	3.622200	-10.904000	25.082507	0.000970	20.803796
855.224457	-2.970300	3.622800	-10.760000	25.108088	0.000971	20.819044
856.222229	-3.009500	3.620800	-10.896000	25.093247	0.000972	20.797982
857.225578	-3.018400	3.622000	-10.932000	25.066049	0.000973	20.832794
858.223867	-2.981900	3.621500	-10.798000	25.030125	0.000971	20.819019
859.227766	-2.997600	3.621500	-10.854000	25.003797	0.000969	20.809187
860.227186	-3.003600	3.622200	-10.877000	25.041139	0.000972	20.795462
861.228442	-2.990900	3.621300	-10.830000	25.066671	0.000965	20.819194
862.226464	-3.000600	3.619700	-10.860000	25.090288	0.000967	20.815875
863.224659	-2.995200	3.619800	-10.841000	25.066522	0.000968	20.801027
864.224988	-2.997700	3.619500	-10.849000	25.078207	0.000964	20.821291
865.227899	-2.998500	3.619800	-10.853000	25.105428	0.000968	20.801675
866.229528	-3.008200	3.618600	-10.885000	25.086982	0.000969	20.831996
867.226223	-3.007500	3.618300	-10.882000	25.110848	0.000965	20.811857
868.229070	-2.995600	3.618200	-10.836000	25.072066	0.000965	20.792841
869.228348	-2.986500	3.618500	-10.805000	25.073160	0.000966	20.792517
870.231576	-2.982700	3.618800	-10.792000	25.080941	0.000964	20.805543
871.231847	-3.033500	3.614900	-10.965000	25.089866	0.000963	20.814502
872.229627	-2.991300	3.618000	-10.821000	25.100879	0.000964	20.809436
873.229058	-3.013300	3.616400	-10.897000	25.108561	0.000965	20.805768
874.229224	-3.016500	3.616400	-10.907000	25.085590	0.000961	20.821116
875.233792	-2.990800	3.616800	-10.815000	25.125564	0.000963	20.810984
876.232868	-3.021200	3.615200	-10.921000	25.151243	0.000964	20.814952
877.232236	-3.000200	3.615300	-10.846000	25.178190	0.000961	20.812606
878.231557	-3.000900	3.615200	-10.848000	25.204390	0.000963	20.809512
879.231254	-2.984200	3.616500	-10.791000	25.236406	0.000963	20.812731
880.232126	-2.983300	3.615900	-10.786000	25.272746	0.000961	20.799905
881.231181	-3.010000	3.614400	-10.878000	25.313956	0.000961	20.802874
882.241520	-3.006600	3.614200	-10.866000	25.302498	0.000964	20.794689
883.233412	-2.992400	3.614700	-10.815000	25.304387	0.000959	20.822189
884.236083	-2.984100	3.615200	-10.787000	25.345645	0.000960	20.824261
885.233843	-2.998600	3.613000	-10.833000	25.340426	0.000958	20.806693
886.236642	-3.005800	3.611800	-10.855000	25.316045	0.000958	20.810187
887.236040	-3.006500	3.612400	-10.860000	25.277966	0.000960	20.786654
888.234132	-3.003900	3.613400	-10.853000	25.281397	0.000959	20.810961
889.235029	-3.013700	3.611400	-10.883000	25.286691	0.000958	20.822440
890.234551	-3.006000	3.610900	-10.853000	25.281346	0.000956	20.772978
891.235008	-3.010300	3.610600	-10.867000	25.275158	0.000956	20.805171
892.235020	-2.997900	3.611300	-10.824000	25.275108	0.000956	20.796112
893.238719	-2.994600	3.609000	-10.806000	25.244386	0.000958	20.803674
894.235637	-2.980600	3.610200	-10.759000	25.253410	0.000958	20.807992
895.237650	-2.986500	3.611100	-10.784000	25.226813	0.000953	20.789350
896.236187	-2.992000	3.609100	-10.797000	25.224501	0.000955	20.793667
897.239062	-2.999200	3.609400	-10.824000	25.244934	0.000956	20.807068
898.240902	-3.005700	3.608800	-10.845000	25.282242	0.000954	20.775299
899.238288	-2.999400	3.607900	-10.820000	25.262159	0.000952	20.786904
900.241046	-3.015700	3.608600	-10.882000	25.233923	0.000952	20.816876
901.238632	-3.010400	3.607200	-10.858000	25.235414	0.000952	20.808416
902.241659	-3.004500	3.607300	-10.837000	25.196339	0.000952	20.773928
903.240741	-3.006000	3.606300	-10.839000	25.167926	0.000952	20.781439
904.245039	-2.981300	3.609300	-10.759000	25.198551	0.000952	20.791796
905.240372	-2.998600	3.607100	-10.815000	25.243543	0.000950	20.791447
906.241135	-3.002300	3.606000	-10.824000	25.264969	0.000950	20.790200
907.242051	-3.002500	3.606200	-10.826000	25.291887	0.000952	20.771707
908.249431	-3.013600	3.604200	-10.860000	25.307223	0.000950	20.794691
909.248641	-2.997600	3.606300	-10.808000	25.303743	0.000950	20.800681
910.248379	-3.017200	3.604700	-10.875000	25.305484	0.000947	20.771608
911.243988	-2.980000	3.607400	-10.749000	25.330637	0.000947	20.799234
912.244084	-3.026900	3.603600	-10.907000	25.350346	0.000948	20.786781
913.247870	-3.007700	3.605200	-10.843000	25.373237	0.000947	20.786532
914.247019	-2.996000	3.603900	-10.796000	25.411063	0.000946	20.784211
915.247733	-3.014300	3.604400	-10.863000	25.423017	0.000947	20.774403
916.249594	-2.990000	3.604000	-10.774000	25.419885	0.000948	20.783587
917.248580	-3.020700	3.602300	-10.881000	25.398687	0.000945	20.776999
918.246785	-2.999400	3.603000	-10.805000	25.370355	0.000946	20.783638
919.250226	-3.033100	3.601100	-10.921000	25.348955	0.000945	20.790126
920.249785	-2.982700	3.604400	-10.750000	25.338193	0.000947	20.775527
921.249764	-3.004500	3.600900	-10.818000	25.375350	0.000945	20.777748
922.248413	-2.980500	3.603000	-10.738000	25.338368	0.000944	20.765271
923.249648	-2.994700	3.601000	-10.783000	25.306976	0.000943	20.784012
924.251216	-3.009500	3.600300	-10.833000	25.304491	0.000943	20.768715
925.251302	-2.997200	3.600800	-10.791000	25.296661	0.000943	20.757060
926.251191	-3.005500	3.601400	-10.822000	25.281027	0.000942	20.772657
927.249978	-3.011600	3.600000	-10.841000	25.300987	0.000941	20.762351
928.253114	-2.996000	3.599800	-10.784000	25.315154	0.000941	20.784637
929.248978	-3.016500	3.598100	-10.851000	25.377985	0.000941	20.767592
930.251990	-3.023100	3.597700	-10.874000	25.413947	0.000940	20.784736
931.250017	-3.021400	3.597400	-10.867000	25.415488	0.000943	20.762576
932.255386	-2.989400	3.598000	-10.755000	25.440291	0.000942	20.770412
933.249833	-2.998600	3.600000	-10.793000	25.415264	0.000940	20.763773
934.252073	-3.011500	3.596700	-10.830000	25.377712	0.000938	20.785336
935.255826	-3.021500	3.597000	-10.867000	25.370255	0.000937	20.793021
936.252657	-2.993300	3.597000	-10.766000	25.316322	0.000938	20.767791
937.251583	-2.992600	3.599100	-10.770000	25.295395	0.000938	20.772858
938.250902	-2.996100	3.597400	-10.777000	25.263803	0.000938	20.777649
939.255042	-3.003900	3.597100	-10.804000	25.228730	0.000937	20.769938
940.254801	-3.002000	3.597500	-10.798000	25.225723	0.000936	20.754116
941.256245	-2.987200	3.596400	-10.743000	25.218813	0.000935	20.747652
942.255175	-3.000500	3.596900	-10.791000	25.266636	0.000936	20.761053
943.254446	-2.987900	3.595000	-10.741000	25.289678	0.000937	20.762376
944.251221	-3.008000	3.593800	-10.809000	25.310531	0.000932	20.757235
945.255220	-2.983200	3.595100	-10.724000	25.330117	0.000933	20.760779
946.254786	-2.973900	3.595200	-10.691000	25.298551	0.000933	20.774605
947.251643	-2.999200	3.592700	-10.774000	25.310109	0.000935	20.753966
948.255944	-2.989100	3.593500	-10.740000	25.313315	0.000933	20.776152
949.257170	-3.020300	3.591700	-10.845000	25.298775	0.000934	20.752069
950.255122	-2.964400	3.593200	-10.650000	25.272452	0.000933	20.758832
951.256622	-3.029300	3.591500	-10.879000	25.282221	0.000933	20.776227
952.255048	-2.973600	3.592100	-10.681000	25.318037	0.000930	20.761927
953.256568	-2.958800	3.594000	-10.632000	25.336554	0.000928	20.762027
954.254299	-2.995100	3.592200	-10.757000	25.358152	0.000930	20.738193
955.254104	-2.996500	3.591800	-10.761000	25.354946	0.000929	20.756312
956.257006	-3.015100	3.590400	-10.824000	25.327333	0.000930	20.753717
957.258201	-3.002100	3.590200	-10.777000	25.371996	0.000928	20.759207
958.254252	-2.989700	3.591500	-10.736000	25.352237	0.000926	20.753592
959.254903	-3.004400	3.589700	-10.783000	25.354747	0.000928	20.739042
960.255947	-2.999100	3.590600	-10.767000	25.377389	0.000927	20.719575
961.259893	-2.993100	3.588800	-10.741000	25.357332	0.000925	20.756811
962.261915	-3.004600	3.588500	-10.781000	25.347266	0.000926	20.742436
963.259334	-3.017300	3.588400	-10.826000	25.302105	0.000926	20.762525
964.262308	-3.003500	3.588500	-10.777000	25.312892	0.000924	20.728310
965.259027	-2.996800	3.589600	-10.755000	25.323282	0.000925	20.746329
966.263851	-2.984800	3.588700	-10.710000	25.333770	0.000923	20.758757
967.262938	-2.982600	3.588300	-10.702000	25.355144	0.000924	20.752243
968.263002	-3.000900	3.586400	-10.762000	25.383602	0.000924	20.752369
969.262926	-2.992000	3.588000	-10.735000	25.397272	0.000925	20.745706
970.259919	-3.003400	3.586700	-10.769000	25.423665	0.000922	20.734749
971.262953	-3.002500	3.587300	-10.769000	25.430350	0.000921	20.739566
972.264729	-2.990400	3.586600	-10.724000	25.460993	0.000924	20.744732
973.264047	-2.994200	3.586100	-10.737000	25.477469	0.000923	20.712912
974.261394	-2.999300	3.586500	-10.756000	25.455426	0.000921	20.753367
975.260074	-2.988200	3.585600	-10.713000	25.439496	0.000921	20.738792
976.261610	-2.985200	3.585600	-10.703000	25.396203	0.000921	20.754116
977.261179	-3.004200	3.585100	-10.769000	25.417104	0.000918	20.770836
978.264894	-3.024500	3.583100	-10.836000	25.405125	0.000919	20.746005
979.263270	-3.011300	3.584600	-10.793000	25.363371	0.000918	20.755762
980.263556	-3.011900	3.581900	-10.788000	25.364739	0.000918	20.736746
981.263840	-3.001600	3.582900	-10.752000	25.367572	0.000918	20.728685
982.263347	-2.991300	3.583000	-10.716000	25.402912	0.000917	20.740464
983.265700	-3.004900	3.580800	-10.759000	25.407138	0.000917	20.741862
984.264619	-2.983000	3.582300	-10.685000	25.439222	0.000914	20.748950
985.266067	-2.996300	3.582100	-10.732000	25.443845	0.000917	20.751221
986.262411	-2.996900	3.580200	-10.729000	25.421154	0.000916	20.742660
987.262674	-2.990300	3.581300	-10.709000	25.425827	0.000916	20.754939
988.262521	-2.995900	3.581200	-10.728000	25.439918	0.000916	20.725465
989.266723	-3.000400	3.580700	-10.743000	25.447075	0.000916	20.740239
990.262787	-3.027700	3.581200	-10.842000	25.465738	0.000915	20.743808
991.264011	-3.020700	3.579900	-10.813000	25.458134	0.000912	20.756087
992.263367	-2.995900	3.579800	-10.724000	25.457562	0.000913	20.732752
993.267398	-3.015000	3.577400	-10.784000	25.464868	0.000912	20.741512
994.267717	-3.020500	3.578900	-10.808000	25.419414	0.000911	20.749922
995.265711	-2.991700	3.577900	-10.703000	25.444440	0.000910	20.759880
996.264973	-2.997800	3.578700	-10.727000	25.435195	0.000913	20.758657
997.266371	-2.991400	3.578000	-10.702000	25.474461	0.000911	20.746403
998.266145	-2.999100	3.578200	-10.729000	25.436786	0.000909	20.757883
999.268506	-2.989000	3.578400	-10.694000	25.451971	0.000909	20.739940
1000.268955	-3.015000	3.576900	-10.784000	25.428858	0.000909	20.745654
1001.266249	-3.008300	3.575800	-10.756000	25.432213	0.000910	20.755662
1002.266536	-2.997100	3.576800	-10.719000	25.437755	0.000908	20.756960
1003.268967	-3.003000	3.575400	-10.735000	25.447373	0.000907	20.734848
1004.270331	-2.978700	3.577200	-10.654000	25.431393	0.000906	20.769538
1005.271870	-3.001000	3.574900	-10.727000	25.461563	0.000908	20.749098
1006.273326	-2.997500	3.574900	-10.714000	25.469118	0.000907	20.749573
1007.273215	-3.011300	3.574800	-10.764000	25.488427	0.000906	20.728185
1008.273329	-3.004700	3.574100	-10.739000	25.518621	0.000904	20.752817
1009.286729	-2.994600	3.574000	-10.702000	25.560417	0.000906	20.750696
1010.278040	-3.017500	3.573700	-10.783000	25.560343	0.000905	20.756311
1011.272924	-3.005500	3.572000	-10.733000	25.550527	0.000902	20.745505
1012.279103	-3.010600	3.572600	-10.755000	25.516011	0.000902	20.754464
1013.275267	-3.006100	3.571400	-10.735000	25.513550	0.000902	20.749622
1014.274294	-2.988000	3.573400	-10.677000	25.524261	0.000905	20.742834
1015.276954	-3.008800	3.571600	-10.744000	25.511984	0.000904	20.740463
1016.277664	-2.979000	3.573000	-10.644000	25.516085	0.000901	20.749797
1017.279215	-2.979200	3.571600	-10.640000	25.521999	0.000902	20.765220
1018.275906	-3.005800	3.570200	-10.730000	25.531193	0.000901	20.736519
1019.274083	-3.017200	3.569800	-10.770000	25.520110	0.000901	20.751468
1020.277463	-3.009600	3.570800	-10.746000	25.516954	0.000901	20.755411
1021.277195	-2.973500	3.571100	-10.617000	25.531367	0.000898	20.758980
1022.272956	-3.001500	3.570300	-10.715000	25.491830	0.000899	20.742034
1023.281382	-2.999000	3.569700	-10.704000	25.509027	0.000897	20.743183
1024.275414	-3.006600	3.569100	-10.729000	25.489842	0.000899	20.757108
1025.276740	-2.983000	3.569700	-10.647000	25.460518	0.000894	20.756584
1026.281481	-2.998500	3.569800	-10.703000	25.467203	0.000898	20.770410
1027.279558	-2.998400	3.568000	-10.698000	25.485965	0.000896	20.747050
1028.279897	-3.004500	3.567600	-10.718000	25.488748	0.000897	20.751268
1029.279181	-3.001100	3.568100	-10.706000	25.488252	0.000893	20.758356
1030.278218	-2.993200	3.567800	-10.677000	25.488326	0.000894	20.777397
1031.282794	-2.977100	3.566600	-10.617000	25.474757	0.000893	20.758555
1032.284336	-3.016900	3.566100	-10.758000	25.501571	0.000894	20.744704
1033.282464	-2.998900	3.566200	-10.694000	25.501720	0.000893	20.756708
1034.282773	-3.014300	3.564600	-10.744000	25.518519	0.000892	20.771208
1035.281074	-3.012600	3.564400	-10.737000	25.544984	0.000891	20.760801
1036.281007	-3.002100	3.565000	-10.702000	25.549109	0.000892	20.747873
1037.282389	-2.997100	3.564800	-10.683000	25.579897	0.000892	20.765992
1038.280804	-3.004500	3.565000	-10.709000	25.582481	0.000890	20.762897
1039.286081	-3.003700	3.563900	-10.704000	25.530521	0.000892	20.755759
1040.281362	-3.005700	3.563600	-10.709000	25.526818	0.000890	20.777171
1041.285042	-2.996600	3.564800	-10.681000	25.483255	0.000889	20.779418
1042.285132	-3.005400	3.563800	-10.709000	25.470854	0.000887	20.757481
1043.285434	-2.996500	3.562700	-10.675000	25.445804	0.000889	20.751766
1044.281370	-2.998600	3.562400	-10.682000	25.398113	0.000890	20.765043
1045.281910	-2.978500	3.562800	-10.611000	25.408849	0.000887	20.766340
1046.281774	-2.988400	3.560900	-10.640000	25.416901	0.000887	20.763046
1047.281172	-2.987900	3.561300	-10.640000	25.484448	0.000886	20.774925
1048.283103	-2.997300	3.561300	-10.673000	25.515312	0.000885	20.776048
1049.282413	-2.993500	3.562400	-10.663000	25.551220	0.000885	20.792194
1050.288273	-2.987500	3.562500	-10.642000	25.590033	0.000884	20.770956
1051.282353	-3.022400	3.559400	-10.756000	25.625045	0.000882	20.783360
1052.286902	-3.002200	3.560000	-10.686000	25.580367	0.000885	20.761722
1053.295575	-3.009400	3.560900	-10.715000	25.572491	0.000883	20.768986
1054.284051	-3.001200	3.558400	-10.679000	25.534347	0.000881	20.775249
1055.286661	-3.006400	3.559400	-10.700000	25.489268	0.000880	20.770282
1056.284862	-3.006200	3.558500	-10.696000	25.506241	0.000881	20.774525
1057.287513	-3.016700	3.557900	-10.732000	25.513622	0.000880	20.767712
1058.286217	-2.979100	3.558600	-10.600000	25.546622	0.000880	20.763395
1059.292165	-2.982000	3.558500	-10.611000	25.564489	0.000878	20.768062
1060.288347	-3.021900	3.557700	-10.749000	25.608694	0.000879	20.778318
1061.286453	-3.016800	3.556000	-10.727000	25.627877	0.000878	20.804222
1062.287356	-3.013300	3.555800	-10.713000	25.636102	0.000878	20.791620
1063.288871	-2.990900	3.556500	-10.636000	25.643804	0.000876	20.777071
1064.285257	-3.008300	3.554500	-10.692000	25.623677	0.000878	20.769658
1065.291185	-2.977300	3.558000	-10.592000	25.585337	0.000876	20.770033
1066.286154	-3.000300	3.554800	-10.665000	25.575024	0.000876	20.781487
1067.287905	-2.991300	3.555600	-10.634000	25.567247	0.000877	20.784582
1068.291179	-2.989000	3.555600	-10.627000	25.572987	0.000877	20.772329
1069.289312	-3.010100	3.554700	-10.699000	25.607526	0.000874	20.785206
1070.290260	-2.994100	3.553900	-10.640000	25.595649	0.000874	20.773277
1071.290026	-2.999400	3.552800	-10.655000	25.554251	0.000873	20.768211
1072.292141	-2.996500	3.553500	-10.647000	25.534098	0.000872	20.765990
1073.292303	-3.004200	3.553500	-10.674000	25.519412	0.000872	20.783484
1074.293902	-3.001400	3.553200	-10.663000	25.483304	0.000873	20.779466
1075.294357	-2.982900	3.552000	-10.595000	25.451071	0.000869	20.781712
1076.293916	-2.975100	3.552300	-10.567000	25.469287	0.000869	20.790995
1077.293639	-3.003000	3.551300	-10.662000	25.501196	0.000867	20.786054
1078.292151	-2.988300	3.550800	-10.610000	25.517274	0.000868	20.786079
1079.295399	-2.987500	3.551800	-10.610000	25.531190	0.000871	20.791519
1080.291393	-2.991100	3.549500	-10.615000	25.582902	0.000869	20.790347
1081.296610	-3.011800	3.550000	-10.691000	25.578479	0.000867	20.787327
1082.296276	-3.018400	3.548400	-10.709000	25.589337	0.000868	20.800603
1083.296321	-3.023900	3.548700	-10.730000	25.598109	0.000869	20.824111
1084.297226	-3.029300	3.548200	-10.747000	25.572564	0.000865	20.790396
1085.296097	-2.999600	3.549100	-10.645000	25.549305	0.000866	20.787426
1086.294074	-3.003000	3.548500	-10.655000	25.552014	0.000867	20.808639
1087.297929	-3.003500	3.548500	-10.657000	25.548932	0.000865	20.783259
1088.296189	-3.001000	3.548900	-10.649000	25.577161	0.000865	20.785530
1089.293142	-3.015100	3.548600	-10.699000	25.560562	0.000863	20.792093
1090.296474	-3.004600	3.548300	-10.659000	25.580764	0.000865	20.813330
1091.294354	-3.002600	3.546900	-10.649000	25.571545	0.000863	20.779416
1092.298818	-3.003100	3.545800	-10.647000	25.576316	0.000863	20.794638
1093.298179	-2.971600	3.547800	-10.541000	25.623652	0.000862	20.803772
1094.294065	-3.008700	3.545600	-10.668000	25.602382	0.000861	20.806591
1095.300220	-2.981900	3.546400	-10.574000	25.581485	0.000862	20.801726
1096.295460	-2.996400	3.544200	-10.617000	25.573583	0.000859	20.808014
1097.299212	-2.968000	3.547700	-10.528000	25.595872	0.000859	20.796735
1098.296835	-2.985200	3.546400	-10.585000	25.630981	0.000858	20.801176
1099.300124	-3.009900	3.545100	-10.669000	25.629864	0.000859	20.795786
1100.303564	-3.009600	3.543800	-10.664000	25.674638	0.000858	20.806616
1101.300970	-2.989400	3.544800	-10.596000	25.674216	0.000859	20.798606
1102.298182	-3.011000	3.544000	-10.670000	25.698167	0.000856	20.799429
1103.296917	-3.002800	3.544500	-10.642000	25.698539	0.000855	20.808812
1104.297755	-3.036700	3.542300	-10.755000	25.691856	0.000853	20.803522
1105.298393	-3.010600	3.542600	-10.665000	25.703136	0.000853	20.821015
1106.302929	-3.010500	3.541400	-10.660000	25.719783	0.000856	20.813080
1107.303348	-2.999200	3.543000	-10.625000	25.731808	0.000854	20.810459
1108.298664	-3.013900	3.540800	-10.670000	25.724205	0.000854	20.803297
1109.301807	-3.007800	3.541700	-10.652000	25.739484	0.000853	20.820067
1110.298233	-2.981100	3.541700	-10.557000	25.703533	0.000851	20.805293
1111.304063	-2.983700	3.540700	-10.563000	25.713050	0.000851	20.813903
1112.303974	-3.000600	3.539400	-10.619000	25.697222	0.000853	20.810808
1113.304075	-3.007100	3.540300	-10.645000	25.676053	0.000852	20.802823
1114.299321	-3.009300	3.539700	-10.651000	25.626309	0.000851	20.826355
1115.300432	-2.999200	3.539900	-10.616000	25.608741	0.000853	20.826255
1116.306726	-2.986700	3.538800	-10.568000	25.603076	0.000850	20.825306
1117.301954	-3.006200	3.538200	-10.635000	25.641690	0.000853	20.824733
1118.304592	-3.002400	3.539500	-10.626000	25.679158	0.000850	20.831071
1119.302188	-2.996700	3.538000	-10.600000	25.692054	0.000849	20.822212
1120.304651	-3.015700	3.537000	-10.665000	25.723408	0.000846	20.823359
1121.301387	-3.014500	3.535900	-10.657000	25.722763	0.000846	20.814176
1122.305544	-2.996800	3.535300	-10.594000	25.720203	0.000848	20.821089
1123.301670	-2.992800	3.537100	-10.585000	25.728030	0.000844	20.808087
1124.301960	-2.998300	3.534700	-10.597000	25.758291	0.000848	20.834689
1125.304101	-3.001400	3.535400	-10.609000	25.762886	0.000843	20.821288
1126.306505	-3.007300	3.535200	-10.630000	25.735781	0.000843	20.849062
1127.308655	-3.019800	3.534000	-10.670000	25.741569	0.000844	20.832592
1128.304212	-3.020900	3.532800	-10.671000	25.730638	0.000842	20.829198
1129.304125	-3.006900	3.533700	-10.625000	25.722538	0.000843	20.812054
1130.304280	-3.004400	3.533800	-10.616000	25.712103	0.000842	20.834763
1131.304485	-3.011700	3.532400	-10.637000	25.719432	0.000841	20.820314
1132.306536	-3.007400	3.531800	-10.621000	25.726861	0.000843	20.821612
1133.306671	-2.982200	3.531900	-10.533000	25.736973	0.000841	20.845044
1134.302645	-2.982800	3.532200	-10.535000	25.720525	0.000841	20.846067
1135.303534	-2.994700	3.533100	-10.579000	25.698909	0.000839	20.840477
1136.306511	-2.992400	3.531700	-10.567000	25.725568	0.000839	20.839753
1137.303519	-2.965500	3.533200	-10.476000	25.754388	0.000841	20.824605
1138.308456	-2.992600	3.532400	-10.571000	25.771779	0.000838	20.826901
1139.307551	-2.976900	3.532900	-10.515000	25.765121	0.000836	20.825429
1140.308702	-3.010000	3.531800	-10.629000	25.758438	0.000837	20.831044
1141.304653	-2.987300	3.532300	-10.551000	25.773046	0.000836	20.839079
1142.304816	-3.014700	3.530500	-10.641000	25.744798	0.000836	20.841050
1143.309491	-3.014000	3.528500	-10.634000	25.737245	0.000836	20.828722
1144.309134	-3.000000	3.528300	-10.584000	25.730487	0.000833	20.839478
1145.308858	-2.962500	3.530800	-10.458000	25.733617	0.000835	20.823182
1146.306144	-2.989900	3.529000	-10.551000	25.753568	0.000833	20.837531
1147.308074	-2.992200	3.527700	-10.553000	25.783356	0.000832	20.866029
1148.309836	-2.987300	3.528100	-10.539000	25.768400	0.000830	20.831093
1149.309367	-2.987100	3.528100	-10.537000	25.827776	0.000835	20.857544
1150.307221	-3.004700	3.527000	-10.597000	25.811877	0.000833	20.828298
1151.307031	-2.998200	3.527100	-10.574000	25.832844	0.000832	20.868324
1152.306871	-2.995900	3.526100	-10.562000	25.840570	0.000831	20.842422
1153.311459	-3.010500	3.525500	-10.612000	25.819080	0.000829	20.851180
1154.310415	-3.012300	3.526400	-10.622000	25.790361	0.000831	20.855522
1155.307395	-2.991100	3.525300	-10.543000	25.755107	0.000827	20.871792
1156.310688	-2.985800	3.525600	-10.525000	25.770213	0.000826	20.854250
1157.307395	-2.997200	3.524300	-10.562000	25.768672	0.000829	20.851280
1158.310895	-2.997700	3.523400	-10.562000	25.786435	0.000829	20.849208
1159.310916	-3.000500	3.523200	-10.570000	25.817812	0.000829	20.848010
1160.309231	-3.019500	3.523200	-10.637000	25.826507	0.000826	20.866701
1161.309050	-2.989500	3.524500	-10.535000	25.793987	0.000826	20.865328
1162.309603	-3.004200	3.523700	-10.585000	25.784397	0.000826	20.851428
1163.314332	-2.998300	3.522200	-10.560000	25.816918	0.000826	20.859439
1164.313074	-3.015200	3.521000	-10.615000	25.829886	0.000824	20.858715
1165.311897	-3.021400	3.521700	-10.638000	25.854555	0.000824	20.859314
1166.313205	-2.979200	3.522400	-10.493000	25.850952	0.000822	20.874661
1167.313467	-2.999500	3.520800	-10.558000	25.840741	0.000825	20.877679
1168.316942	-2.986000	3.520500	-10.512000	25.863969	0.000821	20.881098
1169.315016	-3.020600	3.519900	-10.631000	25.824792	0.000822	20.854547
1170.312782	-3.014900	3.519000	-10.609000	25.836394	0.000821	20.867149
1171.310935	-3.016500	3.518700	-10.613000	25.798210	0.000820	20.875733
1172.320688	-3.002800	3.519500	-10.567000	25.770434	0.000823	20.860636
1173.311976	-3.008400	3.518700	-10.584000	25.742583	0.000820	20.873911
1174.311944	-2.984600	3.518300	-10.499000	25.702557	0.000817	20.866424
1175.316674	-2.997700	3.518800	-10.547000	25.708544	0.000819	20.875283
1176.315731	-3.008100	3.518100	-10.582000	25.711600	0.000821	20.858439
1177.312852	-3.021800	3.514900	-10.620000	25.755651	0.000818	20.869968
1178.313094	-3.015400	3.515300	-10.599000	25.804072	0.000816	20.883517
1179.313550	-2.974200	3.519200	-10.465000	25.823400	0.000819	20.875432
1180.316146	-3.000100	3.516600	-10.549000	25.837709	0.000817	20.877478
1181.318717	-2.977900	3.516300	-10.470000	25.844218	0.000814	20.893972
1182.318226	-3.005700	3.515200	-10.565000	25.874848	0.000816	20.886337
1183.317167	-3.000300	3.515200	-10.545000	25.837311	0.000814	20.880872
1184.314466	-3.006100	3.515100	-10.564000	25.829809	0.000815	20.894671
1185.315116	-3.006600	3.514100	-10.565000	25.822529	0.000814	20.866498
1186.320057	-2.986400	3.513200	-10.491000	25.850825	0.000813	20.888757
1187.319144	-3.022500	3.512300	-10.614000	25.868935	0.000812	20.885612
1188.314577	-2.988800	3.514900	-10.505000	25.866277	0.000813	20.906648
1189.316684	-3.006800	3.513200	-10.563000	25.928008	0.000810	20.879524
1190.319444	-2.969300	3.513300	-10.431000	25.957717	0.000811	20.872387
1191.319512	-2.998700	3.513200	-10.534000	25.958313	0.000810	20.878201
1192.328634	-2.993100	3.511400	-10.509000	25.986456	0.000811	20.905999
1193.320297	-2.996000	3.511700	-10.520000	26.035985	0.000811	20.892225
1194.321457	-3.024800	3.510400	-10.618000	26.043535	0.000810	20.897914
1195.321454	-3.002800	3.510200	-10.540000	26.039437	0.000809	20.901857
1196.320639	-3.003100	3.509200	-10.537000	26.024931	0.000808	20.890603
1197.323406	-3.014600	3.508200	-10.575000	26.038617	0.000809	20.885387
1198.319806	-3.014700	3.509400	-10.579000	26.025651	0.000808	20.891800
1199.320041	-2.993500	3.509700	-10.505000	26.047559	0.000806	20.914757
1200.324557	-3.003300	3.509300	-10.539000	26.078730	0.000806	20.877327
1201.320835	-3.008200	3.507600	-10.549000	26.060971	0.000806	20.894570
1202.325062	-2.992800	3.506900	-10.494000	26.031513	0.000806	20.907645
1203.324276	-2.997800	3.508500	-10.517000	26.013878	0.000804	20.905574
1204.325973	-3.006800	3.506800	-10.543000	25.997037	0.000803	20.912835
1205.320341	-2.981100	3.506900	-10.454000	25.967354	0.000803	20.896291
1206.321418	-2.991200	3.506500	-10.488000	25.937397	0.000804	20.906497
1207.327089	-3.007500	3.506600	-10.545000	25.931062	0.000804	20.911039
1208.323719	-3.006000	3.507100	-10.542000	25.947482	0.000800	20.884863
1209.325394	-3.021900	3.505700	-10.593000	25.957715	0.000801	20.891824
1210.328472	-2.996800	3.504400	-10.501000	25.960423	0.000801	20.899285
1211.323257	-3.017700	3.504300	-10.573000	25.982332	0.000800	20.910390
1212.323385	-3.026500	3.503000	-10.600000	25.992640	0.000802	20.895618
1213.329550	-2.995100	3.503200	-10.491000	25.971154	0.000801	20.914806
1214.324627	-2.993000	3.504200	-10.487000	25.987300	0.000800	20.900683
1215.324563	-2.981800	3.503300	-10.445000	25.932552	0.000799	20.912535
1216.325040	-2.979600	3.504400	-10.441000	25.962410	0.000797	20.902230
1217.328184	-2.982500	3.503800	-10.448000	26.005133	0.000798	20.891100
1218.328714	-3.008400	3.503300	-10.538000	25.996788	0.000799	20.906422
1219.326918	-3.009300	3.502200	-10.537000	26.003742	0.000797	20.893970
1220.326663	-3.009000	3.500900	-10.534000	25.964943	0.000797	20.881543
1221.331345	-2.969400	3.504400	-10.404000	26.006276	0.000799	20.893196
1222.326291	-2.987700	3.502200	-10.462000	25.998526	0.000795	20.900108
1223.328824	-2.981100	3.501500	-10.438000	26.016733	0.000796	20.888056
1224.326440	-2.998600	3.499900	-10.494000	25.997159	0.000796	20.880719
1225.329660	-3.004800	3.499100	-10.514000	26.004363	0.000796	20.895541
1226.327048	-3.012000	3.499600	-10.540000	25.987000	0.000794	20.870038
1227.325460	-2.983900	3.499700	-10.442000	25.970308	0.000793	20.869390
1228.331861	-2.999600	3.499400	-10.495000	25.955155	0.000793	20.857012
1229.325758	-3.001500	3.497600	-10.497000	25.916255	0.000791	20.885260
1230.332705	-2.998700	3.497500	-10.488000	25.908505	0.000793	20.872259
1231.327533	-2.994400	3.497100	-10.470000	25.867938	0.000790	20.859008
1232.328206	-3.010600	3.497100	-10.527000	25.830973	0.000791	20.871186
1233.330583	-3.001600	3.495600	-10.492000	25.819222	0.000790	20.884037
1234.330693	-2.999000	3.497300	-10.488000	25.834500	0.000790	20.883263
1235.330221	-2.975300	3.497500	-10.403000	25.832736	0.000789	20.882914
1236.332664	-3.006700	3.495000	-10.507000	25.831469	0.000788	20.887330
1237.328121	-3.010000	3.494400	-10.517000	25.799272	0.000788	20.872058
1238.330025	-3.018900	3.494800	-10.550000	25.797731	0.000790	20.886157
1239.332297	-3.006400	3.493900	-10.503000	25.823941	0.000786	20.875976
1240.327958	-3.000900	3.494400	-10.485000	25.844710	0.000787	20.885458
1241.331814	-3.004100	3.491500	-10.487000	25.849082	0.000787	20.871360
1242.328964	-2.993700	3.493600	-10.458000	25.867117	0.000787	20.852020
1243.328849	-2.979100	3.492700	-10.404000	25.883389	0.000785	20.885433
1244.330692	-2.978100	3.491900	-10.398000	25.909870	0.000785	20.885483
1245.332341	-3.020500	3.492900	-10.549000	25.928649	0.000783	20.859780
1246.331322	-2.995300	3.493300	-10.462000	25.950831	0.000782	20.856461
1247.328619	-2.996800	3.491200	-10.460000	25.956222	0.000781	20.868040
1248.327862	-3.005400	3.490900	-10.491000	25.951502	0.000782	20.871833
1249.331246	-3.003000	3.490600	-10.480000	25.975050	0.000779	20.857559
1250.331460	-3.007500	3.489500	-10.493000	25.945863	0.000779	20.873754
1251.334024	-3.001300	3.490200	-10.474000	25.912825	0.000782	20.875176
1252.332521	-3.011900	3.488300	-10.506000	25.926388	0.000780	20.856561
1253.328606	-2.991700	3.489800	-10.439000	25.954656	0.000779	20.865993
1254.334210	-3.013500	3.486800	-10.506000	25.966430	0.000778	20.868813
1255.341634	-2.979300	3.488700	-10.393000	25.969411	0.000780	20.853790
1256.330679	-3.005100	3.488900	-10.483000	25.971795	0.000776	20.875151
1257.334534	-2.998000	3.488500	-10.457000	25.955153	0.000777	20.859854
1258.334785	-3.012900	3.487300	-10.506000	25.961015	0.000776	20.852468
1259.330700	-3.002300	3.487500	-10.469000	25.937069	0.000777	20.870135
1260.334584	-2.974700	3.488000	-10.374000	25.903981	0.000776	20.866766
1261.336668	-3.003400	3.487000	-10.472000	25.919755	0.000776	20.885931
1262.335105	-2.995300	3.485300	-10.438000	25.902838	0.000776	20.858032
1263.333134	-2.964700	3.486600	-10.336000	25.945961	0.000774	20.840189
1264.336621	-3.003700	3.483400	-10.462000	25.980588	0.000776	20.859330
1265.333425	-3.011000	3.484500	-10.491000	25.981656	0.000774	20.845230
1266.336210	-2.985400	3.484500	-10.402000	26.002074	0.000772	20.863846
1267.333369	-3.011700	3.483200	-10.489000	26.004260	0.000771	20.850870
1268.334546	-3.001500	3.482500	-10.452000	25.989033	0.000770	20.857383
1269.337697	-2.994000	3.483700	-10.430000	25.974229	0.000773	20.872855
1270.337358	-2.998200	3.482200	-10.439000	25.983593	0.000769	20.849547
1271.339310	-3.013400	3.480600	-10.488000	26.020330	0.000768	20.845679
1272.338736	-2.972600	3.481700	-10.349000	26.025522	0.000769	20.859904
1273.339036	-2.980100	3.481200	-10.373000	25.974751	0.000768	20.849672
1274.334979	-2.977400	3.480000	-10.360000	25.956146	0.000768	20.834774
1275.337334	-3.003800	3.479000	-10.449000	25.974452	0.000767	20.856959
1276.338874	-2.997900	3.480200	-10.432000	25.984686	0.000768	20.850645
1277.336200	-3.010400	3.478900	-10.472000	26.023733	0.000766	20.834400
1278.346563	-3.000300	3.479400	-10.437000	26.012332	0.000767	20.836222
1279.336224	-3.023100	3.478600	-10.514000	26.036773	0.000764	20.851768
1280.340282	-2.995000	3.478400	-10.416000	26.034836	0.000765	20.861201
1281.342406	-2.985800	3.478500	-10.385000	26.067796	0.000766	20.854488
1282.340880	-2.993900	3.477400	-10.410000	26.084486	0.000764	20.849448
1283.341101	-3.008600	3.477800	-10.462000	26.088088	0.000765	20.861126
1284.337164	-3.007600	3.476600	-10.456000	26.097824	0.000762	20.839616
1285.338910	-2.968200	3.476700	-10.319000	26.114737	0.000762	20.856135
1286.339116	-3.010700	3.476500	-10.466000	26.139425	0.000764	20.838268
1287.342149	-2.998800	3.475800	-10.423000	26.115756	0.000762	20.829185
1288.340579	-2.990700	3.476500	-10.395000	26.127255	0.000763	20.857807
1289.344173	-3.011100	3.474000	-10.460000	26.144118	0.000760	20.840140
1290.338820	-2.999700	3.475400	-10.424000	26.132793	0.000760	20.852941
1291.341764	-2.993100	3.474900	-10.398000	26.131278	0.000762	20.838617
1292.344876	-3.018800	3.472500	-10.481000	26.131874	0.000760	20.836846
1293.337792	-2.989200	3.474200	-10.384000	26.128844	0.000760	20.869361
1294.340379	-3.009800	3.473300	-10.452000	26.120276	0.000759	20.842735
1295.346411	-3.010700	3.473900	-10.457000	26.065014	0.000757	20.859754
1296.342413	-3.000700	3.473700	-10.422000	26.036972	0.000758	20.834899
1297.343273	-3.012100	3.472000	-10.457000	26.038214	0.000756	20.843733
1298.342446	-3.001400	3.472100	-10.418000	26.018219	0.000756	20.832653
1299.343181	-3.008200	3.472000	-10.442000	25.952569	0.000754	20.830707
1300.342585	-3.005300	3.470400	-10.428000	25.936522	0.000755	20.822172
1301.340828	-3.012700	3.468800	-10.448000	25.910961	0.000756	20.842486
1302.342233	-3.005300	3.470000	-10.428000	25.905844	0.000755	20.827388
1303.346766	-3.001000	3.469500	-10.410000	25.927828	0.000755	20.830508
1304.348965	-3.007200	3.469300	-10.432000	25.955277	0.000754	20.829634
1305.346534	-2.983000	3.470100	-10.350000	25.981855	0.000750	20.838318
1306.343116	-3.006100	3.468500	-10.425000	25.995840	0.000754	20.824394
1307.349533	-2.990400	3.468500	-10.372000	25.974428	0.000753	20.823745
1308.347587	-2.981900	3.467000	-10.337000	25.979123	0.000751	20.820875
1309.346833	-3.010400	3.466300	-10.434000	25.955476	0.000749	20.830309
1310.347166	-2.995800	3.467800	-10.388000	25.961934	0.000752	20.844383
1311.344985	-2.969100	3.466500	-10.290000	25.939802	0.000749	20.852967
1312.347072	-3.003300	3.465100	-10.405000	25.981607	0.000747	20.830483
1313.348724	-2.995200	3.464700	-10.376000	25.982228	0.000749	20.826840
1314.349210	-2.999100	3.466100	-10.394000	26.026342	0.000750	20.828487
1315.347252	-3.019200	3.464400	-10.458000	26.018593	0.000750	20.850572
1316.351421	-2.978700	3.463700	-10.316000	26.053142	0.000747	20.806102
1317.355953	-3.029300	3.462600	-10.488000	26.053117	0.000746	20.839741
1318.348533	-3.003900	3.463400	-10.402000	26.056073	0.000741	20.842711
1319.352696	-3.006300	3.463500	-10.410000	26.053987	0.000744	20.818804
1320.349103	-3.007200	3.462200	-10.410000	26.013923	0.000745	20.823596
1321.353150	-2.982500	3.461900	-10.324000	25.999268	0.000743	20.836846
1322.349365	-3.024100	3.460500	-10.462000	26.004261	0.000744	20.812466
1323.351100	-2.982900	3.462300	-10.325000	25.998101	0.000745	20.828088
1324.351886	-3.006700	3.461100	-10.405000	26.006348	0.000744	20.839218
1325.354641	-2.976700	3.462100	-10.304000	25.993804	0.000744	20.824245
1326.355134	-2.984900	3.459800	-10.326000	26.015811	0.000742	20.836872
1327.352521	-2.967300	3.461000	-10.269000	26.028478	0.000742	20.827314
1328.368302	-3.001100	3.459900	-10.381000	26.034241	0.000744	20.828363
1329.352324	-2.977900	3.460300	-10.303000	26.018171	0.000742	20.806527
1330.355516	-3.005200	3.458100	-10.391000	25.990500	0.000741	20.828038
1331.353426	-3.015600	3.457600	-10.425000	25.984912	0.000739	20.821475
1332.351494	-3.006000	3.457600	-10.392000	25.987942	0.000741	20.839218
1333.352520	-3.006700	3.457400	-10.393000	26.015712	0.000739	20.805005
1334.354823	-2.996600	3.456500	-10.356000	26.035906	0.000738	20.802060
1335.355514	-3.017700	3.456900	-10.431000	26.093454	0.000739	20.822898
1336.354194	-2.995900	3.456000	-10.354000	26.131777	0.000736	20.814937
1337.355147	-3.008600	3.455600	-10.396000	26.148491	0.000737	20.813240
1338.356977	-3.000500	3.454400	-10.363000	26.149982	0.000734	20.817108
1339.355153	-2.989100	3.454400	-10.325000	26.200720	0.000736	20.828738
1340.358647	-2.971300	3.454700	-10.264000	26.196051	0.000735	20.798917
1341.357628	-3.003800	3.453000	-10.371000	26.207623	0.000733	20.806278
1342.358680	-3.030800	3.452300	-10.462000	26.215943	0.000736	20.808474
1343.354392	-3.000900	3.452300	-10.359000	26.203253	0.000733	20.833180
1344.357321	-3.000800	3.453000	-10.360000	26.181399	0.000734	20.828289
1345.361053	-2.992700	3.452900	-10.333000	26.167094	0.000732	20.818182
1346.354809	-2.987500	3.452100	-10.312000	26.146182	0.000734	20.838894
1347.356320	-2.992700	3.452000	-10.330000	26.136149	0.000732	20.797045
1348.358837	-2.986300	3.451200	-10.305000	26.148865	0.000731	20.819779
1349.357966	-2.974300	3.451500	-10.265000	26.111089	0.000731	20.801263
1350.356779	-2.987400	3.451200	-10.309000	26.056646	0.000727	20.806778
1351.358894	-3.003500	3.449100	-10.358000	26.022370	0.000729	20.807427
1352.355799	-3.003800	3.450500	-10.364000	25.968966	0.000730	20.816835
1353.359467	-2.969100	3.449700	-10.241000	25.913473	0.000727	20.792379
1354.360828	-3.015000	3.449300	-10.399000	25.939903	0.000727	20.799491
1355.359971	-2.999400	3.448700	-10.343000	25.967699	0.000724	20.810821
1356.361781	-3.016800	3.448400	-10.401000	25.937096	0.000724	20.808999
1357.361913	-2.997800	3.448100	-10.336000	25.917845	0.000726	20.809573
1358.358296	-3.013800	3.446800	-10.386000	25.912230	0.000727	20.797769
1359.360499	-3.012700	3.445700	-10.380000	25.908330	0.000726	20.786739
1360.362916	-3.002300	3.445600	-10.344000	25.928849	0.000725	20.805930
1361.359767	-3.003200	3.445900	-10.347000	25.920006	0.000727	20.798468
1362.364447	-3.008700	3.445400	-10.365000	25.930985	0.000723	20.800015
1363.361075	-3.017200	3.444200	-10.391000	25.955081	0.000724	20.787238
1364.360253	-3.011800	3.445600	-10.376000	25.977834	0.000723	20.790183
1365.363832	-3.010200	3.444400	-10.368000	25.980119	0.000720	20.798642
1366.366100	-2.983800	3.444000	-10.275000	25.948051	0.000721	20.814789
1367.362288	-2.995300	3.443700	-10.313000	25.939307	0.000721	20.838246
1368.361862	-3.009500	3.441600	-10.357000	25.944871	0.000721	20.783145
1369.365929	-2.989600	3.443000	-10.292000	25.963998	0.000720	20.798094
1370.362766	-2.994900	3.441600	-10.306000	25.960645	0.000719	20.791880
1371.367416	-2.976600	3.442300	-10.245000	25.963526	0.000720	20.792404
1372.368194	-3.003700	3.441500	-10.336000	25.972742	0.000717	20.806404
1373.369368	-3.016800	3.441300	-10.380000	25.983994	0.000720	20.779302
1374.366094	-3.007000	3.440800	-10.346000	26.011565	0.000717	20.794675
1375.366018	-2.986400	3.440900	-10.275000	26.028654	0.000716	20.789085
1376.373084	-3.000800	3.439800	-10.321000	26.073486	0.000716	20.792404
1377.366347	-2.982300	3.440700	-10.259000	26.068569	0.000714	20.798842
1378.370065	-3.006400	3.439500	-10.340000	26.033821	0.000716	20.804707
1379.370688	-2.999100	3.438700	-10.312000	26.095095	0.000715	20.779028
1380.365725	-2.994600	3.438100	-10.295000	26.121596	0.000718	20.785267
1381.366950	-3.000100	3.437300	-10.311000	26.155323	0.000717	20.800665
1382.369210	-3.003900	3.437400	-10.324000	26.141167	0.000713	20.794026
1383.365932	-3.000600	3.438100	-10.316000	26.122838	0.000715	20.795524
1384.367790	-2.986100	3.438100	-10.266000	26.122092	0.000715	20.808525
1385.365695	-2.979100	3.437600	-10.238000	26.130909	0.000712	20.794625
1386.368427	-2.995100	3.436000	-10.290000	26.130164	0.000713	20.793877
1387.366859	-2.991800	3.436500	-10.280000	26.142483	0.000711	20.786814
1388.366115	-3.000400	3.435200	-10.306000	26.144445	0.000711	20.799217
1389.370487	-3.010500	3.434500	-10.339000	26.129196	0.000712	20.777256
1390.366497	-2.985300	3.434500	-10.252000	26.133269	0.000708	20.786091
1391.370802	-2.987900	3.435900	-10.265000	26.142557	0.000707	20.782622
1392.369914	-3.008600	3.433700	-10.330000	26.123335	0.000710	20.801239
1393.372782	-3.006300	3.432600	-10.318000	26.118367	0.000710	20.791506
1394.371210	-3.030800	3.431700	-10.399000	26.084937	0.000709	20.792055
1395.368031	-3.006600	3.433700	-10.323000	26.076294	0.000708	20.773413
1396.370738	-3.012500	3.431800	-10.337000	26.083621	0.000709	20.789310
1397.371435	-3.013400	3.431800	-10.340000	26.125843	0.000707	20.776258
1398.371352	-3.017600	3.430400	-10.351000	26.112084	0.000707	20.779977
1399.370429	-3.021000	3.429500	-10.359000	26.140918	0.000707	20.775285
1400.371561	-2.977600	3.431200	-10.216000	26.160861	0.000708	20.763555
1401.371217	-2.988200	3.429500	-10.247000	26.157583	0.000703	20.789659
1402.367840	-3.004500	3.428900	-10.301000	26.138335	0.000706	20.758464
1403.372353	-3.000000	3.428900	-10.286000	26.128699	0.000703	20.772016
1404.369192	-2.985600	3.428900	-10.236000	26.179040	0.000704	20.770443
1405.373250	-2.988800	3.429300	-10.248000	26.180481	0.000705	20.776158
1406.368974	-2.970900	3.428600	-10.185000	26.201515	0.000703	20.767423
1407.369155	-2.975300	3.428400	-10.200000	26.186193	0.000704	20.790433
1408.376009	-3.000400	3.426600	-10.280000	26.177451	0.000705	20.782597
1409.374550	-2.986400	3.426700	-10.232000	26.138733	0.000701	20.785891
1410.372973	-3.002000	3.425400	-10.282000	26.156590	0.000699	20.777281
1411.372594	-2.987100	3.427200	-10.236000	26.168759	0.000700	20.780974
1412.373608	-3.010500	3.424800	-10.309000	26.162525	0.000698	20.773762
1413.375764	-2.987300	3.425000	-10.230000	26.213088	0.000699	20.783794
1414.375065	-3.008000	3.424200	-10.298000	26.194661	0.000699	20.755794
1415.375478	-2.991300	3.425500	-10.246000	26.243162	0.000697	20.768022
1416.373021	-3.011100	3.423800	-10.308000	26.278350	0.000696	20.792005
1417.373898	-3.010400	3.422800	-10.302000	26.241498	0.000696	20.764454
1418.375968	-3.007700	3.423600	-10.296000	26.244503	0.000695	20.754671
1419.378350	-2.985000	3.424500	-10.220000	26.264121	0.000696	20.771541
1420.375545	-2.982200	3.423700	-10.209000	26.222227	0.000695	20.780176
1421.383088	-2.994600	3.422000	-10.246000	26.187360	0.000695	20.750353
1422.375929	-2.986800	3.421800	-10.219000	26.186863	0.000694	20.765502
1423.379100	-2.999500	3.421400	-10.262000	26.157682	0.000695	20.771266
1424.377790	-2.985700	3.422200	-10.216000	26.146431	0.000691	20.763754
1425.379872	-2.987200	3.421100	-10.218000	26.163766	0.000694	20.778803
1426.379698	-2.999000	3.419600	-10.255000	26.157682	0.000694	20.771740
1427.376075	-2.985800	3.420000	-10.210000	26.167541	0.000693	20.758414
1428.378219	-2.989600	3.419600	-10.223000	26.183013	0.000693	20.774910
1429.380204	-2.984400	3.420000	-10.205000	26.213013	0.000692	20.769968
1430.381171	-3.003500	3.417900	-10.265000	26.223443	0.000690	20.769544
1431.380161	-3.000000	3.418500	-10.254000	26.243410	0.000687	20.754046
1432.379324	-2.999100	3.416700	-10.246000	26.262606	0.000689	20.753422
1433.376649	-2.997100	3.417900	-10.243000	26.260669	0.000689	20.775658
1434.377832	-2.995300	3.419300	-10.240000	26.241547	0.000689	20.770667
1435.381553	-3.020900	3.416000	-10.319000	26.201217	0.000688	20.747682
1436.378110	-2.984600	3.416800	-10.196000	26.165529	0.000689	20.761608
1437.382958	-2.999300	3.417000	-10.247000	26.093530	0.000688	20.763704
1438.378160	-2.977900	3.416300	-10.172000	26.103489	0.000685	20.762332
1439.384062	-3.002600	3.415600	-10.255000	26.112356	0.000687	20.763180
1440.382155	-2.987100	3.415200	-10.199000	26.120527	0.000685	20.785615
1441.382920	-2.979600	3.415200	-10.175000	26.129543	0.000687	20.754371
1442.379461	-3.005600	3.413600	-10.259000	26.164113	0.000685	20.760659
1443.379956	-2.970600	3.413500	-10.139000	26.212938	0.000683	20.750926
1444.380944	-2.993600	3.413300	-10.217000	26.203452	0.000685	20.766524
1445.384737	-3.007000	3.413600	-10.264000	26.222773	0.000681	20.748481
1446.385213	-2.998700	3.411400	-10.228000	26.218725	0.000684	20.750103
1447.384083	-2.997900	3.412000	-10.228000	26.245917	0.000679	20.764153
1448.383988	-3.001900	3.411100	-10.239000	26.260395	0.000684	20.770642
1449.381744	-2.994500	3.411300	-10.214000	26.242887	0.000682	20.750202
1450.381530	-2.987200	3.411800	-10.191000	26.226349	0.000683	20.737375
1451.385000	-2.995000	3.410100	-10.213000	26.170247	0.000681	20.750227
1452.381149	-2.971800	3.411500	-10.137000	26.154676	0.000680	20.776306
1453.385298	-2.994600	3.410300	-10.211000	26.129120	0.000679	20.760110
1454.387738	-3.010400	3.408700	-10.261000	26.118440	0.000679	20.773087
1455.385098	-3.001300	3.408300	-10.228000	26.095119	0.000680	20.753447
1456.382380	-3.001500	3.409800	-10.233000	26.105525	0.000678	20.737349
1457.384045	-3.016100	3.407000	-10.274000	26.093901	0.000678	20.758862
1458.381392	-3.010200	3.408000	-10.258000	26.080167	0.000675	20.755019
1459.385356	-2.996800	3.408300	-10.213000	26.081979	0.000677	20.745460
1460.382902	-2.985700	3.407000	-10.170000	26.064047	0.000676	20.774384
1461.385867	-2.983800	3.405600	-10.160000	26.032552	0.000675	20.767397
1462.386076	-2.987300	3.406900	-10.176000	26.041246	0.000677	20.762381
1463.388562	-3.017700	3.405000	-10.274000	26.024530	0.000675	20.766448
1464.385243	-2.993000	3.406600	-10.195000	26.051107	0.000675	20.757589
1465.382601	-3.006700	3.405000	-10.237000	26.026119	0.000674	20.777055
1466.385806	-3.014400	3.404400	-10.261000	26.054385	0.000672	20.740494
1467.386950	-3.022900	3.404200	-10.290000	26.099092	0.000675	20.747956
1468.386819	-2.989000	3.404400	-10.175000	26.112901	0.000671	20.748555
1469.383020	-3.004900	3.402800	-10.224000	26.145163	0.000672	20.746358
1470.385448	-3.005300	3.403700	-10.228000	26.196572	0.000672	20.750127
1471.386751	-3.004700	3.402300	-10.222000	26.189990	0.000672	20.740194
1472.389794	-3.003200	3.401700	-10.215000	26.200272	0.000671	20.756216
1473.388347	-3.001300	3.401500	-10.208000	26.200272	0.000669	20.752423
1474.389296	-3.012300	3.401400	-10.244000	26.225230	0.000671	20.770391
1475.386054	-2.990000	3.401800	-10.170000	26.239211	0.000669	20.768794
1476.386425	-2.999500	3.399500	-10.195000	26.239410	0.000669	20.744337
1477.388505	-2.972900	3.402000	-10.113000	26.287835	0.000671	20.754594
1478.387147	-3.001600	3.400100	-10.205000	26.298587	0.000668	20.753072
1479.387434	-2.989900	3.400000	-10.164000	26.308917	0.000667	20.750651
1480.388146	-2.993600	3.400300	-10.179000	26.292900	0.000666	20.762056
1481.389390	-3.000000	3.399200	-10.197000	26.291807	0.000664	20.761432
1482.392028	-3.011000	3.397700	-10.229000	26.294911	0.000667	20.734204
1483.388763	-3.034200	3.398200	-10.309000	26.326076	0.000667	20.775008
1484.391731	-3.013800	3.398800	-10.242000	26.344674	0.000666	20.761457
1485.388027	-2.997200	3.398200	-10.185000	26.344177	0.000665	20.751000
1486.390875	-2.982500	3.397600	-10.132000	26.309115	0.000663	20.752273
1487.392540	-2.989400	3.397000	-10.154000	26.321034	0.000663	20.760933
1488.388514	-3.014700	3.396800	-10.239000	26.343556	0.000663	20.778826
1489.390577	-2.991300	3.395000	-10.154000	26.331687	0.000662	20.765949
1490.390646	-2.992700	3.395100	-10.159000	26.295333	0.000664	20.768294
1491.394170	-2.997300	3.394600	-10.174000	26.276957	0.000659	20.756939
1492.389167	-2.984200	3.394700	-10.129000	26.297841	0.000660	20.769392
1493.394730	-3.013200	3.394200	-10.226000	26.274846	0.000660	20.752921
1494.394358	-3.014300	3.393900	-10.230000	26.281452	0.000659	20.755292
1495.395357	-3.032400	3.392300	-10.284000	26.332555	0.000658	20.787210
1496.393496	-3.001000	3.393000	-10.181000	26.331190	0.000658	20.757862
1497.395145	-3.003100	3.392800	-10.188000	26.313013	0.000657	20.762354
1498.397665	-2.986400	3.392600	-10.130000	26.287287	0.000656	20.758311
1499.404393	-3.010400	3.391900	-10.211000	26.229227	0.000658	20.758761
1500.397176	-3.016400	3.390700	-10.226000	26.195801	0.000655	20.772112
1501.394405	-2.993100	3.391600	-10.150000	26.194782	0.000656	20.774408
1502.394437	-3.013400	3.390300	-10.215000	26.223938	0.000656	20.761980
1503.398612	-2.999400	3.390900	-10.170000	26.220113	0.000656	20.778051
1504.399602	-3.018900	3.389400	-10.231000	26.210925	0.000657	20.754593
1505.393837	-3.024200	3.389500	-10.250000	26.251304	0.000655	20.780946
1506.395107	-2.992000	3.389300	-10.140000	26.252049	0.000656	20.768418
1507.396464	-2.995100	3.389300	-10.150000	26.275913	0.000653	20.767270
1508.399576	-2.983600	3.387100	-10.104000	26.270500	0.000654	20.758985
1509.401157	-2.987300	3.388900	-10.123000	26.318053	0.000652	20.767894
1510.397343	-3.011300	3.388200	-10.202000	26.306184	0.000652	20.765923
1511.397284	-2.998900	3.389100	-10.163000	26.318079	0.000651	20.789731
1512.397716	-3.002800	3.386600	-10.168000	26.316266	0.000652	20.772736
1513.399722	-3.016100	3.386600	-10.213000	26.312218	0.000651	20.783841
1514.403531	-3.000000	3.387400	-10.162000	26.291632	0.000650	20.774532
1515.401196	-3.001800	3.387200	-10.166000	26.256867	0.000647	20.789856
1516.398331	-3.006700	3.386400	-10.180000	26.226644	0.000650	20.760432
1517.403087	-2.984600	3.385700	-10.104000	26.228407	0.000647	20.765997
1518.398512	-2.991600	3.385900	-10.128000	26.248920	0.000645	20.771438
1519.400776	-3.006200	3.384900	-10.174000	26.244177	0.000646	20.798440
1520.401665	-2.998100	3.383600	-10.144000	26.252471	0.000645	20.768368
1521.401784	-3.011000	3.383600	-10.187000	26.289323	0.000649	20.785962
1522.401752	-3.007700	3.382500	-10.173000	26.286393	0.000647	20.765948
1523.398846	-3.004400	3.382200	-10.161000	26.294488	0.000645	20.782618
1524.399081	-3.024300	3.383200	-10.232000	26.283016	0.000645	20.784365
1525.401726	-3.019200	3.380600	-10.206000	26.283835	0.000644	20.782818
1526.407324	-2.990500	3.382000	-10.113000	26.276385	0.000643	20.774383
1527.403399	-3.004800	3.381800	-10.161000	26.316365	0.000643	20.796543
1528.399641	-3.005900	3.380900	-10.162000	26.314825	0.000642	20.793099
1529.400774	-2.983900	3.380100	-10.085000	26.342140	0.000640	20.785463
1530.405045	-3.022300	3.379600	-10.212000	26.371217	0.000640	20.788133
1531.403293	-2.995900	3.379200	-10.122000	26.384228	0.000643	20.795520
1532.403015	-3.010300	3.379200	-10.171000	26.410671	0.000641	20.793648
1533.401306	-3.001300	3.378400	-10.138000	26.435302	0.000640	20.782843
1534.403182	-3.009400	3.378900	-10.168000	26.417971	0.000641	20.781071
1535.400990	-2.998500	3.378700	-10.130000	26.377300	0.000638	20.786187
1536.404202	-3.020400	3.376900	-10.199000	26.348223	0.000640	20.794896
1537.403372	-3.028200	3.376700	-10.223000	26.283736	0.000639	20.793623
1538.405804	-2.986200	3.378100	-10.086000	26.236577	0.000638	20.798864
1539.400978	-3.002800	3.376900	-10.139000	26.237720	0.000638	20.806650
1540.401310	-2.979100	3.377400	-10.061000	26.247877	0.000639	20.789830
1541.405443	-2.971500	3.377700	-10.035000	26.276584	0.000637	20.786910
1542.401286	-2.991300	3.376700	-10.100000	26.303775	0.000634	20.786262
1543.404585	-3.018400	3.375500	-10.188000	26.340129	0.000634	20.797667
1544.404321	-2.997900	3.374900	-10.115000	26.364215	0.000636	20.790579
1545.402810	-3.011300	3.374500	-10.161000	26.399399	0.000633	20.795121
1546.406569	-3.000900	3.374600	-10.126000	26.368883	0.000633	20.786262
1547.407377	-3.004100	3.375100	-10.138000	26.347901	0.000638	20.802633
1548.405863	-3.007900	3.375100	-10.151000	26.356343	0.000633	20.801160
1549.402507	-3.015500	3.372700	-10.169000	26.359969	0.000634	20.810494
1550.402291	-2.985000	3.373500	-10.069000	26.358777	0.000632	20.780847
1551.405744	-3.015200	3.371300	-10.164000	26.321506	0.000634	20.776105
1552.405374	-2.973000	3.372500	-10.025000	26.312666	0.000631	20.804680
1553.405246	-3.020700	3.372400	-10.186000	26.331463	0.000631	20.804131
1554.402609	-3.013200	3.370900	-10.156000	26.312119	0.000629	20.819777
1555.402932	-2.973500	3.372600	-10.028000	26.290069	0.000631	20.807575
1556.405515	-2.981000	3.372400	-10.052000	26.294489	0.000628	20.812490
1557.405585	-2.992700	3.370400	-10.085000	26.338118	0.000632	20.790430
1558.405312	-2.995800	3.370600	-10.096000	26.346685	0.000629	20.822747
1559.407584	-3.001800	3.371400	-10.118000	26.363793	0.000627	20.828087
1560.422432	-3.016900	3.368400	-10.160000	26.369877	0.000628	20.819503
1561.405684	-2.951100	3.371500	-9.948800	26.423782	0.000627	20.814886
1562.408073	-2.979400	3.369300	-10.038000	26.442230	0.000625	20.806401
1563.402198	-3.002400	3.368100	-10.112000	26.479274	0.000627	20.816608
1564.404301	-2.998100	3.369100	-10.100000	26.483941	0.000627	20.810394
1565.402584	-2.996000	3.368300	-10.090000	26.516490	0.000625	20.814661
1566.402858	-2.988500	3.367100	-10.062000	26.505864	0.000626	20.808722
1567.405878	-3.001100	3.367800	-10.107000	26.530790	0.000624	20.821449
1568.407799	-2.997400	3.365100	-10.086000	26.489527	0.000625	20.813163
1569.404153	-3.018800	3.365900	-10.159000	26.434309	0.000623	20.818354
1570.405235	-3.021700	3.363600	-10.162000	26.382067	0.000622	20.824643
1571.407169	-3.001000	3.366700	-10.102000	26.356964	0.000620	20.806999
1572.407547	-3.001600	3.363300	-10.094000	26.367318	0.000620	20.826414
1573.409387	-3.003100	3.363700	-10.101000	26.371961	0.000621	20.828236
1574.407287	-3.017900	3.364700	-10.153000	26.397933	0.000619	20.815933
1575.404105	-3.019500	3.364100	-10.157000	26.415115	0.000620	20.823244
1576.404674	-3.009000	3.362300	-10.117000	26.397089	0.000618	20.811765
1577.413192	-2.998900	3.364100	-10.087000	26.366970	0.000619	20.807098
1578.408651	-2.992600	3.362600	-10.062000	26.389490	0.000618	20.830681
1579.407761	-3.006200	3.362400	-10.108000	26.391129	0.000616	20.823793
1580.409196	-3.001100	3.361200	-10.086000	26.407393	0.000615	20.824966
1581.408341	-2.999600	3.362100	-10.084000	26.404487	0.000617	20.824891
1582.408266	-2.988200	3.361200	-10.042000	26.396318	0.000616	20.840388
1583.408584	-2.994500	3.361900	-10.066000	26.384226	0.000615	20.828709
1584.406466	-2.976300	3.360600	-10.001000	26.356838	0.000615	20.826313
1585.410337	-3.000700	3.358900	-10.078000	26.304146	0.000615	20.834049
1586.408124	-2.987100	3.360000	-10.036000	26.264588	0.000614	20.820848
1587.408956	-2.999000	3.358900	-10.073000	26.247602	0.000613	20.826063
1588.413714	-2.990800	3.358600	-10.043000	26.242461	0.000614	20.834173
1589.408429	-3.005800	3.357900	-10.092000	26.261731	0.000613	20.847374
1590.412637	-2.991600	3.358500	-10.047000	26.296994	0.000611	20.819275
1591.408588	-2.972100	3.358900	-9.981500	26.307920	0.000611	20.840212
1592.408662	-3.003500	3.357300	-10.082000	26.361059	0.000610	20.839563
1593.413013	-2.993100	3.357100	-10.047000	26.359643	0.000610	20.831977
1594.411212	-2.990600	3.356400	-10.036000	26.392444	0.000609	20.836020
1595.417046	-2.986800	3.355400	-10.021000	26.376851	0.000608	20.832676
1596.411950	-2.987000	3.356000	-10.024000	26.398328	0.000609	20.829606
1597.410324	-2.978300	3.355600	-9.992900	26.420228	0.000607	20.826961
1598.415334	-2.975500	3.356000	-9.983700	26.466161	0.000606	20.835670
1599.412893	-2.982000	3.355800	-10.006000	26.492131	0.000608	20.835695
1600.410011	-2.987700	3.355900	-10.025000	26.527957	0.000607	20.853687
1601.413620	-3.002300	3.354400	-10.070000	26.525797	0.000607	20.830180
1602.409490	-3.003700	3.353700	-10.072000	26.482920	0.000607	20.843032
1603.412099	-3.008700	3.353100	-10.087000	26.471797	0.000606	20.847498
1604.411675	-3.016500	3.353700	-10.116000	26.471400	0.000606	20.848995
1605.410474	-2.986100	3.352500	-10.010000	26.521675	0.000605	20.860649
1606.413108	-2.986000	3.353600	-10.013000	26.531010	0.000604	20.834472
1607.413337	-2.999700	3.352200	-10.055000	26.508492	0.000598	20.854510
1608.413523	-2.997500	3.351600	-10.046000	26.536695	0.000604	20.838764
1609.414797	-2.972800	3.352400	-9.964600	26.514575	0.000605	20.837865
1610.415142	-3.006700	3.350300	-10.072000	26.563681	0.000602	20.854984
1611.414935	-3.005100	3.350500	-10.068000	26.603997	0.000601	20.848096
1612.415554	-3.011700	3.349200	-10.084000	26.557599	0.000599	20.872102
1613.418867	-2.992700	3.350700	-10.026000	26.523437	0.000600	20.847722
1614.413132	-2.997500	3.349600	-10.040000	26.482000	0.000601	20.865339
1615.418534	-2.991800	3.348700	-10.018000	26.490789	0.000601	20.862320
1616.414271	-3.009300	3.347900	-10.073000	26.495879	0.000599	20.851315
1617.416865	-3.034900	3.348100	-10.159000	26.509037	0.000596	20.862170
1618.414240	-3.013700	3.347700	-10.088000	26.493247	0.000599	20.848196
1619.418632	-3.016200	3.347400	-10.095000	26.467649	0.000597	20.847596
1620.421437	-3.012400	3.347300	-10.083000	26.463999	0.000598	20.883281
1621.418801	-3.035800	3.345300	-10.153000	26.442349	0.000598	20.866262
1622.417574	-3.004700	3.346200	-10.054000	26.427029	0.000595	20.858925
1623.416005	-3.019100	3.347200	-10.104000	26.411213	0.000595	20.866262
1624.415556	-3.027700	3.345400	-10.128000	26.446470	0.000596	20.886524
1625.418593	-3.012600	3.344800	-10.075000	26.460573	0.000595	20.874621
1626.421082	-3.016500	3.345600	-10.091000	26.456575	0.000592	20.858750
1627.415901	-3.024800	3.344000	-10.114000	26.416650	0.000591	20.877416
1628.418526	-3.000800	3.344900	-10.037000	26.404236	0.000591	20.866836
1629.421086	-3.037900	3.342900	-10.153000	26.394825	0.000592	20.874446
1630.416337	-3.002200	3.343800	-10.038000	26.386805	0.000591	20.879188
1631.417218	-3.037600	3.342100	-10.151000	26.361726	0.000590	20.893810
1632.418617	-3.024400	3.343000	-10.109000	26.338633	0.000589	20.880560
1633.419438	-3.057700	3.340700	-10.214000	26.362918	0.000592	20.866561
1634.419409	-3.011900	3.342300	-10.066000	26.332525	0.000588	20.881059
1635.416878	-3.015800	3.342900	-10.080000	26.339030	0.000587	20.893286
1636.420317	-3.005100	3.341200	-10.039000	26.332475	0.000589	20.888595
1637.418002	-3.025600	3.338700	-10.100000	26.354922	0.000586	20.881757
1638.420783	-2.985300	3.341300	-9.973800	26.412305	0.000588	20.915719
1639.421262	-3.011500	3.341100	-10.061000	26.471074	0.000585	20.868108
1640.416754	-2.996700	3.340800	-10.011000	26.495877	0.000587	20.872175
1641.421598	-3.005100	3.340200	-10.037000	26.489422	0.000585	20.871377
1642.429267	-2.966100	3.341400	-9.910100	26.530635	0.000584	20.889094
1643.421547	-3.005500	3.339300	-10.034000	26.554791	0.000582	20.895357
1644.421424	-2.986200	3.339600	-9.971300	26.550744	0.000583	20.893186
1645.419988	-3.013000	3.337600	-10.055000	26.539746	0.000583	20.888295
1646.419256	-3.003300	3.338500	-10.026000	26.545754	0.000581	20.882955
1647.424019	-3.002300	3.339000	-10.022000	26.532547	0.000584	20.873472
1648.424103	-3.023000	3.337700	-10.089000	26.536097	0.000580	20.881308
1649.421323	-3.011100	3.337900	-10.048000	26.527382	0.000580	20.894832
1650.423726	-2.973200	3.338500	-9.925200	26.529071	0.000582	20.886099
1651.422992	-3.014000	3.337400	-10.058000	26.565367	0.000579	20.895082
1652.422426	-3.017200	3.334800	-10.061000	26.570878	0.000576	20.905363
1653.426134	-2.967100	3.337000	-9.899200	26.626735	0.000580	20.905562
1654.424856	-2.990400	3.335900	-9.974500	26.653172	0.000577	20.897053
1655.429717	-3.001800	3.334700	-10.010000	26.669655	0.000578	20.885175
1656.425854	-2.995900	3.335000	-9.991200	26.707560	0.000576	20.894358
1657.424014	-2.986000	3.334400	-9.955500	26.720741	0.000573	20.919935
1658.427045	-2.976000	3.333800	-9.919800	26.740027	0.000577	20.899499
1659.424863	-2.985000	3.334700	-9.953400	26.745439	0.000576	20.908731
1660.426095	-2.997600	3.333100	-9.991000	26.780734	0.000574	20.908656
1661.428164	-2.981500	3.334000	-9.940100	26.779419	0.000573	20.916342
1662.423625	-2.997800	3.333400	-9.991800	26.793988	0.000575	20.895905
1663.427982	-2.976900	3.332400	-9.919200	26.764923	0.000573	20.909355
1664.424008	-2.965800	3.332100	-9.880400	26.761796	0.000575	20.909529
1665.424729	-2.981200	3.332200	-9.933300	26.813522	0.000573	20.901320
1666.424359	-2.986300	3.332300	-9.950400	26.800020	0.000571	20.917614
1667.425539	-3.016500	3.329800	-10.042000	26.791655	0.000573	20.894981
1668.427113	-3.005100	3.329900	-10.006000	26.767604	0.000572	20.901145
1669.425140	-3.004300	3.330000	-10.003000	26.788056	0.000571	20.913647
1670.427718	-2.997500	3.329200	-9.978400	26.766313	0.000569	20.922604
1671.424958	-2.998600	3.329500	-9.982200	26.760604	0.000569	20.920658
1672.427443	-2.993100	3.329200	-9.963200	26.760257	0.000568	20.915094
1673.426192	-3.015800	3.329000	-10.039000	26.784829	0.000569	20.903291
1674.424539	-3.010000	3.328800	-10.019000	26.815507	0.000565	20.920384
1675.429210	-2.999200	3.326700	-9.976800	26.817146	0.000567	20.917764
1676.426635	-3.006700	3.326900	-10.002000	26.804587	0.000568	20.900870
1677.429454	-2.998500	3.327900	-9.977400	26.772915	0.000568	20.918338
1678.428329	-3.000300	3.326400	-9.979800	26.754150	0.000566	20.917489
1679.428458	-3.021900	3.325500	-10.048000	26.763359	0.000564	20.912998
1680.429875	-3.000500	3.325900	-9.978400	26.739481	0.000565	20.909379
1681.429844	-2.993600	3.326000	-9.956200	26.704779	0.000564	20.910053
1682.426819	-3.014200	3.326000	-10.025000	26.711581	0.000562	20.911201
1683.430298	-2.989100	3.323600	-9.933600	26.717712	0.000562	20.900296
1684.431116	-3.010000	3.325200	-10.008000	26.728832	0.000562	20.890615
1685.428299	-3.005600	3.324000	-9.989100	26.742335	0.000563	20.886173
1686.428613	-3.004500	3.322700	-9.981800	26.765395	0.000561	20.900820
1687.427561	-2.995400	3.322300	-9.950700	26.763632	0.000560	20.907109
1688.428104	-2.979500	3.324200	-9.903500	26.762912	0.000560	20.895006
1689.432458	-2.996100	3.320900	-9.947900	26.748119	0.000560	20.914744
1690.432237	-3.004300	3.323200	-9.982800	26.703538	0.000557	20.890789
1691.427930	-2.990200	3.321500	-9.931500	26.671119	0.000555	20.910827
1692.429062	-2.986000	3.321900	-9.917800	26.639072	0.000558	20.867233
1693.432589	-3.010700	3.320000	-9.994000	26.631972	0.000556	20.879535
1694.433290	-2.991300	3.320500	-9.932500	26.617028	0.000561	20.886797
1695.434933	-2.991200	3.320000	-9.929000	26.622737	0.000556	20.882579
1696.431957	-2.993400	3.321700	-9.941100	26.623234	0.000553	20.874545
1697.434761	-3.009500	3.319600	-9.989000	26.671095	0.000556	20.871925
1698.431799	-3.003900	3.319200	-9.969300	26.695694	0.000557	20.892861
1699.434798	-3.010600	3.317300	-9.986500	26.714783	0.000554	20.898775
1700.439992	-3.011800	3.316800	-9.988200	26.722106	0.000556	20.884327
1701.443994	-3.018200	3.316800	-10.010000	26.711333	0.000551	20.866385
1702.433320	-3.020200	3.317400	-10.017000	26.696836	0.000552	20.876466
1703.437698	-3.004300	3.316200	-9.962700	26.713740	0.000552	20.862168
1704.437608	-3.016400	3.316900	-10.005000	26.727343	0.000553	20.866834
1705.437917	-3.000800	3.316800	-9.952400	26.762143	0.000552	20.848243
1706.434252	-2.996500	3.316000	-9.935800	26.754548	0.000550	20.880908
1707.434317	-3.005200	3.315800	-9.963500	26.767505	0.000549	20.867857
1708.434856	-3.011800	3.315100	-9.984100	26.785574	0.000547	20.858050
1709.437739	-2.983000	3.317300	-9.894800	26.748690	0.000549	20.868381
1710.441194	-2.984700	3.316000	-9.896400	26.709223	0.000547	20.869479
1711.437426	-2.972400	3.314900	-9.850200	26.701851	0.000546	20.870602
1712.437663	-2.988800	3.314100	-9.904400	26.705698	0.000549	20.883952
1713.437043	-3.021200	3.312700	-10.008000	26.759959	0.000548	20.854582
1714.440689	-2.969800	3.316200	-9.846800	26.754747	0.000546	20.867358
1715.437772	-3.001300	3.312400	-9.940500	26.713492	0.000542	20.853858
1716.439565	-2.993200	3.312300	-9.913400	26.668811	0.000543	20.877689
1717.440741	-3.002900	3.313500	-9.948100	26.629167	0.000544	20.857277
1718.442348	-3.011000	3.311600	-9.969700	26.594735	0.000543	20.861070
1719.440406	-2.999700	3.310900	-9.931100	26.564994	0.000542	20.864838
1720.441358	-3.007000	3.310800	-9.954100	26.560550	0.000542	20.850889
1721.440992	-2.981900	3.310800	-9.872000	26.571300	0.000542	20.839884
1722.437809	-3.001400	3.310100	-9.932800	26.559955	0.000538	20.859298
1723.439865	-2.999600	3.308100	-9.922000	26.601264	0.000539	20.859573
1724.436865	-2.991200	3.310300	-9.900600	26.602431	0.000539	20.856478
1725.439233	-2.987100	3.308900	-9.881600	26.627107	0.000538	20.861369
1726.441127	-2.978900	3.309700	-9.858100	26.658634	0.000539	20.843752
1727.439595	-3.010700	3.308700	-9.960700	26.684326	0.000540	20.851088
1728.442090	-3.019600	3.308100	-9.987300	26.653669	0.000539	20.859148
1729.438533	-2.974800	3.307300	-9.837100	26.661612	0.000538	20.850539
1730.439351	-2.991700	3.307600	-9.894000	26.679684	0.000535	20.859223
1731.450037	-2.979200	3.307100	-9.851500	26.732506	0.000536	20.857801
1732.440730	-3.005200	3.305400	-9.932200	26.763360	0.000534	20.840458
1733.439789	-2.980100	3.307400	-9.854600	26.827025	0.000534	20.838087
1734.439360	-3.016900	3.305400	-9.971300	26.812430	0.000533	20.865612
1735.439439	-3.007500	3.305600	-9.940900	26.821763	0.000532	20.843228
1736.439826	-3.003000	3.305900	-9.925500	26.792400	0.000532	20.858275
1737.444454	-3.006400	3.304300	-9.932800	26.787784	0.000531	20.841780
1738.439427	-3.000700	3.303900	-9.913100	26.782621	0.000530	20.850814
1739.444910	-2.998300	3.305100	-9.909100	26.762888	0.000530	20.850415
1740.441560	-3.019200	3.303700	-9.973300	26.729205	0.000531	20.841206
1741.447556	-2.995600	3.303000	-9.892200	26.729652	0.000530	20.832173
1742.444757	-3.005400	3.303300	-9.926200	26.727145	0.000529	20.852411
1743.446325	-3.015500	3.300700	-9.952400	26.767405	0.000530	20.846896
1744.443094	-2.993200	3.302200	-9.883100	26.761250	0.000527	20.863465
1745.446347	-3.027200	3.301800	-9.994000	26.746158	0.000526	20.846397
1746.445289	-2.998600	3.301200	-9.898100	26.755888	0.000525	20.846222
1747.446253	-2.980600	3.302000	-9.840700	26.768299	0.000526	20.828354
1748.449389	-2.997300	3.299900	-9.889500	26.794510	0.000525	20.845224
1749.446471	-2.991000	3.300800	-9.870500	26.837697	0.000524	20.842179
1750.447989	-3.035400	3.298500	-10.010000	26.829159	0.000525	20.825534
1751.450119	-2.967800	3.299400	-9.789700	26.856336	0.000525	20.835791
1752.447568	-3.015900	3.299800	-9.950000	26.864080	0.000522	20.833620
1753.453681	-3.008900	3.299900	-9.926800	26.869341	0.000525	20.847919
1754.457333	-3.016200	3.298000	-9.946800	26.897833	0.000524	20.850489
1755.452756	-3.003300	3.299500	-9.907300	26.861200	0.000523	20.844949
1756.449787	-2.994600	3.298800	-9.877500	26.860977	0.000523	20.841405
1757.449554	-2.997300	3.298200	-9.884700	26.860630	0.000520	20.817823
1758.452709	-3.006200	3.296400	-9.908900	26.871748	0.000518	20.828529
1759.452722	-2.991200	3.296700	-9.859500	26.848220	0.000521	20.839958
1760.450234	-2.999200	3.295800	-9.884000	26.834271	0.000521	20.828304
1761.450603	-3.008000	3.295400	-9.910500	26.863633	0.000518	20.836489
1762.452254	-2.992900	3.296100	-9.864300	26.884083	0.000520	20.842828
1763.451937	-3.000000	3.295500	-9.884300	26.863360	0.000519	20.834792
1764.452003	-3.001700	3.294400	-9.888100	26.855889	0.000523	20.846246
1765.452786	-2.991200	3.294300	-9.852900	26.840824	0.000517	20.833944
1766.454242	-2.998000	3.294700	-9.875400	26.850528	0.000517	20.834218
1767.453547	-2.991900	3.293600	-9.852700	26.904732	0.000514	20.828978
1768.452353	-2.998000	3.293000	-9.871700	26.948113	0.000513	20.825185
1769.455094	-3.010200	3.292800	-9.909900	26.947269	0.000514	20.847569
1770.451268	-2.971500	3.294800	-9.789700	26.909323	0.000514	20.836914
1771.453445	-2.995800	3.291300	-9.859300	26.927415	0.000512	20.825235
1772.454620	-2.997600	3.290600	-9.863000	26.934017	0.000512	20.835192
1773.455983	-3.014400	3.291000	-9.918800	26.963524	0.000511	20.823613
1774.459382	-3.012600	3.291900	-9.915500	26.976751	0.000510	20.806094
1775.454029	-2.995100	3.290500	-9.853800	26.989855	0.000511	20.825434
1776.456972	-3.021000	3.288500	-9.932200	27.020948	0.000513	20.834418
1777.453422	-2.985300	3.291500	-9.824900	27.017598	0.000510	20.828678
1778.452828	-2.991700	3.289700	-9.840900	27.041992	0.000507	20.815278
1779.455425	-3.030900	3.287300	-9.962200	27.042662	0.000510	20.829702
1780.456653	-3.010600	3.289300	-9.901000	27.070007	0.000509	20.810262
1781.454346	-3.015500	3.290200	-9.919600	27.050503	0.000505	20.816251
1782.455124	-3.008800	3.287600	-9.891100	27.047873	0.000506	20.806494
1783.457881	-2.991200	3.289200	-9.837500	26.996381	0.000505	20.816825
1784.455552	-3.005900	3.286600	-9.877800	26.976280	0.000505	20.833121
1785.458426	-2.986800	3.288000	-9.819700	26.988341	0.000505	20.812533
1786.457973	-2.967300	3.288100	-9.756300	26.926076	0.000505	20.815353
1787.458558	-2.967400	3.287300	-9.753600	26.866959	0.000505	20.826083
1788.455979	-2.962500	3.286300	-9.734600	26.843579	0.000504	20.819171
1789.458241	-3.000500	3.284300	-9.853200	26.810171	0.000503	20.802177
1790.457917	-3.004400	3.285300	-9.869600	26.790439	0.000502	20.812683
1791.458687	-2.994100	3.286300	-9.839300	26.822309	0.000501	20.824337
1792.459376	-2.992900	3.284300	-9.829100	26.847476	0.000501	20.836839
1793.457998	-3.000000	3.283800	-9.849800	26.911806	0.000499	20.823289
1794.460037	-2.967700	3.285000	-9.747400	26.899744	0.000502	20.817325
1795.458588	-2.984300	3.284000	-9.799500	26.905303	0.000502	20.814854
1796.461477	-2.970900	3.282600	-9.751100	26.871501	0.000498	20.802676
1797.459796	-3.019700	3.283300	-9.912400	26.910862	0.000498	20.809064
1798.459586	-3.019400	3.282200	-9.909600	26.904906	0.000498	20.805920
1799.458923	-3.015200	3.281500	-9.893100	26.909150	0.000497	20.817774
1800.460404	-3.010600	3.280400	-9.874200	26.915727	0.000496	20.803998
1801.466329	-2.993400	3.282300	-9.824200	26.935482	0.000496	20.813906
1802.460763	-2.992200	3.280800	-9.815600	26.956278	0.000494	20.813481
1803.462168	-3.006700	3.279600	-9.859000	26.960770	0.000493	20.814679
1804.461794	-3.008000	3.280100	-9.866100	26.975263	0.000494	20.801752
1805.462408	-2.986800	3.278500	-9.791400	26.995438	0.000493	20.809713
1806.462708	-3.011900	3.278000	-9.872300	26.983055	0.000492	20.796312
1807.462545	-2.990300	3.280400	-9.808400	26.976727	0.000492	20.799431
1808.464000	-3.016800	3.277600	-9.886600	26.980449	0.000491	20.806020
1809.463904	-2.992600	3.278100	-9.808800	26.983353	0.000489	20.824586
1810.465813	-3.010600	3.276500	-9.863000	26.969903	0.000489	20.797310
1811.464928	-2.984400	3.277500	-9.779000	26.973724	0.000489	20.811585
1812.466017	-2.989400	3.277700	-9.797100	26.947915	0.000488	20.800330
1813.465404	-3.013700	3.275900	-9.870600	26.909696	0.000486	20.791770
1814.467313	-2.997000	3.277000	-9.820500	26.928011	0.000488	20.799756
1815.468010	-3.022800	3.276700	-9.904000	26.938633	0.000486	20.791945
1816.466825	-3.018900	3.273900	-9.882100	26.925952	0.000486	20.788201
1817.471493	-2.984500	3.275300	-9.774400	26.934092	0.000486	20.785956
1818.469537	-2.988500	3.276800	-9.791600	26.964319	0.000484	20.783160
1819.471328	-3.013900	3.273800	-9.864800	26.990649	0.000486	20.792095
1820.472290	-2.987700	3.273600	-9.779400	26.986505	0.000484	20.801203
1821.470027	-2.972000	3.273800	-9.728300	26.990029	0.000482	20.803325
1822.471413	-2.988400	3.272900	-9.779800	26.979184	0.000481	20.793842
1823.469801	-2.990600	3.273100	-9.787700	26.985810	0.000482	20.787228
1824.471331	-2.980000	3.273800	-9.754500	26.992312	0.000482	20.807991
1825.468544	-2.986200	3.272200	-9.770800	27.029684	0.000480	20.801952
1826.468781	-2.997700	3.272500	-9.809300	27.026532	0.000480	20.797834
1827.468983	-2.991800	3.271300	-9.786700	27.016160	0.000480	20.788826
1828.471478	-3.004900	3.271300	-9.829100	27.036012	0.000480	20.777021
1829.470326	-3.004400	3.270100	-9.822100	27.055342	0.000478	20.772754
1830.473057	-3.010700	3.269200	-9.841400	27.060082	0.000477	20.783685
1831.469884	-3.013800	3.268500	-9.849900	27.087278	0.000477	20.790647
1832.470278	-3.012600	3.269500	-9.848100	27.090554	0.000475	20.794890
1833.472560	-3.011600	3.267400	-9.838800	27.136681	0.000476	20.783435
1834.470020	-2.992400	3.269600	-9.782800	27.146631	0.000475	20.781588
1835.472787	-2.987700	3.267100	-9.760200	27.150626	0.000472	20.803624
1836.471374	-3.000100	3.267600	-9.802200	27.129237	0.000471	20.802027
1837.472142	-2.994800	3.267600	-9.783800	27.129510	0.000474	20.785232
1838.474788	-3.013400	3.266400	-9.841200	27.136061	0.000472	20.797510
1839.471741	-2.969500	3.268800	-9.706400	27.127997	0.000471	20.785132
1840.473956	-2.990900	3.267100	-9.770800	27.087452	0.000470	20.767588
1841.474054	-2.972800	3.266100	-9.708500	27.087750	0.000472	20.786854
1842.471013	-3.007500	3.265600	-9.820300	27.093655	0.000469	20.790897
1843.474149	-3.004500	3.264500	-9.806500	27.091918	0.000469	20.789150
1844.476283	-2.995000	3.264500	-9.775800	27.088395	0.000466	20.800779
1845.472242	-2.983400	3.265000	-9.739900	27.089164	0.000469	20.786380
1846.473384	-3.010200	3.263200	-9.820900	27.113605	0.000466	20.778244
1847.474707	-3.021000	3.263400	-9.858000	27.113407	0.000465	20.769510
1848.475949	-3.025300	3.263900	-9.872400	27.098047	0.000463	20.789150
1849.479465	-3.021900	3.261900	-9.856300	27.077055	0.000465	20.783684
1850.476629	-2.994500	3.262100	-9.765600	27.053953	0.000464	20.787003
1851.477859	-3.001200	3.262400	-9.789200	27.045119	0.000465	20.793292
1852.473906	-3.020100	3.261400	-9.848500	27.037724	0.000461	20.790597
1853.475115	-3.015200	3.260500	-9.829400	27.033034	0.000463	20.778768
1854.480857	-2.999800	3.260900	-9.781400	27.081770	0.000460	20.769934
1855.477085	-2.998200	3.259800	-9.772700	27.109908	0.000461	20.775948
1856.481353	-3.014900	3.258200	-9.822400	27.121769	0.000461	20.785506
1857.481880	-2.998300	3.259600	-9.772700	27.125689	0.000461	20.765267
1858.478257	-2.976800	3.259800	-9.702200	27.098122	0.000459	20.762197
1859.480463	-2.985700	3.259800	-9.732300	27.112240	0.000458	20.765966
1860.479772	-2.997500	3.259700	-9.768300	27.114201	0.000459	20.785007
1861.476645	-3.015600	3.257900	-9.822700	27.120429	0.000459	20.781788
1862.478215	-2.985200	3.259200	-9.728600	27.176852	0.000456	20.782586
1863.479272	-2.989400	3.258500	-9.740000	27.194096	0.000457	20.771481
1864.478514	-2.996600	3.256400	-9.757800	27.207792	0.000458	20.773403
1865.482352	-2.993100	3.256000	-9.743300	27.222802	0.000457	20.777121
1866.480726	-3.014300	3.256400	-9.814900	27.208710	0.000454	20.775274
1867.479793	-2.987100	3.256100	-9.725500	27.161493	0.000453	20.769984
1868.481077	-2.999400	3.255300	-9.763100	27.098717	0.000454	20.762322
1869.479996	-3.009900	3.255300	-9.797400	27.067700	0.000453	20.772379
1870.481802	-2.986800	3.256100	-9.724600	27.066260	0.000450	20.774725
1871.479868	-3.006700	3.254400	-9.784200	27.046210	0.000451	20.765466
1872.482507	-2.999600	3.253400	-9.757800	27.068072	0.000450	20.789349
1873.483004	-2.991100	3.254100	-9.730700	27.082241	0.000449	20.773727
1874.479889	-2.989300	3.253500	-9.724400	27.111818	0.000446	20.747048
1875.483727	-2.995400	3.252400	-9.741200	27.118667	0.000447	20.771006
1876.483980	-2.995300	3.253000	-9.743200	27.051570	0.000448	20.771805
1877.485099	-2.997000	3.253100	-9.747900	27.053952	0.000444	20.778468
1878.485183	-2.952900	3.252200	-9.602700	27.047575	0.000447	20.781538
1879.482906	-3.001300	3.251300	-9.756600	27.063282	0.000447	20.780265
1880.485542	-2.996100	3.250800	-9.738500	27.061719	0.000444	20.760674
1881.484833	-3.003700	3.251100	-9.763900	27.056359	0.000443	20.757655
1882.485344	-3.040100	3.247000	-9.869400	27.017400	0.000446	20.762097
1883.486404	-2.985200	3.250700	-9.702500	26.983898	0.000442	20.786254
1884.485407	-3.008100	3.249300	-9.773600	26.984940	0.000439	20.745576
1885.485590	-2.993200	3.248300	-9.721600	26.977942	0.000442	20.747547
1886.487439	-2.992500	3.247900	-9.718300	26.995686	0.000440	20.760649
1887.486139	-3.020800	3.247500	-9.808600	27.024050	0.000439	20.755982
1888.486496	-2.980400	3.249300	-9.682600	27.086458	0.000440	20.765640
1889.485042	-2.995500	3.246700	-9.724800	27.098642	0.000440	20.746599
1890.490313	-2.990500	3.246000	-9.706100	27.137797	0.000440	20.759900
1891.488086	-3.011600	3.246400	-9.774500	27.149732	0.000437	20.747722
1892.491811	-3.010300	3.247500	-9.774600	27.171467	0.000437	20.748246
1893.488739	-2.967100	3.245700	-9.629400	27.193127	0.000438	20.760075
1894.491908	-2.997500	3.245400	-9.725900	27.213597	0.000434	20.753636
1895.490257	-2.978800	3.244900	-9.664900	27.256841	0.000432	20.751615
1896.490125	-2.994300	3.244600	-9.714300	27.271950	0.000431	20.749269
1897.496309	-2.979300	3.246000	-9.670100	27.277036	0.000431	20.758652
1898.496787	-3.001400	3.242600	-9.729800	27.285719	0.000434	20.748420
1899.491647	-3.016900	3.242600	-9.780900	27.301026	0.000432	20.769508
1900.500836	-3.010700	3.241600	-9.759300	27.292194	0.000434	20.743080
1901.490572	-3.001500	3.242500	-9.731200	27.310999	0.000428	20.752039
1902.490492	-3.002600	3.241400	-9.731100	27.309982	0.000428	20.742006
1903.490565	-3.019600	3.241600	-9.786100	27.343696	0.000428	20.756481
1904.491291	-3.005900	3.240100	-9.738400	27.339578	0.000427	20.738113
1905.490629	-3.008300	3.240700	-9.746800	27.341216	0.000427	20.752563
1906.491598	-3.008500	3.239600	-9.744800	27.302639	0.000426	20.768759
1907.490507	-2.999500	3.239600	-9.715700	27.277581	0.000425	20.774849
1908.491284	-3.026000	3.238200	-9.797900	27.243270	0.000426	20.762620
1909.491024	-3.012600	3.240800	-9.761800	27.231708	0.000424	20.763319
1910.493834	-3.003900	3.239800	-9.731200	27.184220	0.000424	20.753486
1911.492608	-2.995100	3.240200	-9.703000	27.180821	0.000424	20.749593
1912.496624	-3.021200	3.236400	-9.776600	27.169903	0.000422	20.735767
1913.495857	-3.006600	3.237800	-9.733700	27.180126	0.000420	20.752688
1914.496249	-3.001500	3.237800	-9.717600	27.129286	0.000420	20.746124
1915.497381	-2.983300	3.237600	-9.657800	27.148490	0.000421	20.746948
1916.497372	-3.025100	3.236200	-9.787400	27.203176	0.000419	20.748844
1917.503018	-2.992900	3.235900	-9.684500	27.223297	0.000418	20.730202
1918.501166	-2.991300	3.235900	-9.678500	27.246346	0.000415	20.749593
1919.500571	-3.007300	3.234800	-9.725600	27.242327	0.000417	20.760724
1920.500923	-2.998500	3.236400	-9.701700	27.229326	0.000415	20.743379
1921.497616	-3.009400	3.234300	-9.732600	27.263167	0.000414	20.757030
1922.500600	-3.000100	3.233600	-9.700000	27.306484	0.000414	20.744652
1923.501869	-2.992800	3.234200	-9.677000	27.341166	0.000414	20.729278
1924.501623	-2.985400	3.233700	-9.652400	27.351660	0.000413	20.756905
1925.502226	-3.010900	3.231800	-9.730300	27.319012	0.000412	20.766264
1926.501677	-2.984500	3.234100	-9.650100	27.326628	0.000413	20.735992
1927.504102	-2.992800	3.231400	-9.668400	27.318119	0.000412	20.731699
1928.504974	-2.998100	3.230700	-9.684000	27.351585	0.000413	20.752089
1929.503139	-2.991300	3.231300	-9.664900	27.364708	0.000410	20.751065
1930.503160	-2.996500	3.230000	-9.677000	27.406806	0.000409	20.739835
1931.502822	-2.989900	3.232100	-9.662100	27.384876	0.000409	20.728679
1932.501986	-3.021300	3.229600	-9.756800	27.361731	0.000408	20.734794
1933.507306	-3.008400	3.230400	-9.717600	27.404250	0.000407	20.733471
1934.501970	-3.008400	3.227800	-9.710100	27.415314	0.000404	20.765465
1935.502574	-2.989100	3.229800	-9.651800	27.457359	0.000406	20.750866
1936.502861	-3.002500	3.228400	-9.692400	27.484372	0.000407	20.728255
1937.501458	-2.989900	3.228600	-9.651900	27.510466	0.000405	20.756880
1938.506632	-3.011300	3.226800	-9.716200	27.548564	0.000404	20.738312
1939.502177	-2.985200	3.226200	-9.630100	27.574905	0.000404	20.738737
1940.508056	-2.992300	3.226900	-9.655300	27.598268	0.000401	20.756556
1941.503931	-2.963200	3.227700	-9.563000	27.588447	0.000403	20.755682
1942.505583	-2.992700	3.226200	-9.654000	27.591200	0.000399	20.755133
1943.507364	-3.005400	3.225400	-9.692700	27.581031	0.000398	20.736366
1944.508506	-3.012700	3.224700	-9.714300	27.573516	0.000401	20.751090
1945.508301	-2.994800	3.224700	-9.656300	27.583610	0.000397	20.746548
1946.515184	-2.998000	3.224500	-9.665600	27.582296	0.000396	20.739061
1947.510613	-3.006100	3.223700	-9.690200	27.605585	0.000398	20.748744
1948.510825	-2.998800	3.223400	-9.665100	27.613447	0.000396	20.750017
1949.514688	-3.018400	3.222100	-9.724700	27.632469	0.000395	20.747347
1950.510954	-3.015500	3.221000	-9.712600	27.632618	0.000396	20.735168
1951.513750	-2.989400	3.221600	-9.629200	27.649408	0.000391	20.762969
1952.512280	-2.998400	3.221500	-9.658500	27.655162	0.000392	20.755957
1953.514319	-2.974400	3.221200	-9.579500	27.654120	0.000394	20.757279
1954.515844	-3.001700	3.222000	-9.670100	27.590282	0.000392	20.756580
1955.518377	-2.997200	3.219000	-9.646900	27.590381	0.000390	20.741507
1956.516652	-2.998700	3.218600	-9.650000	27.544992	0.000390	20.750840
1957.515938	-2.993100	3.218100	-9.631500	27.541793	0.000390	20.744302
1958.514967	-2.986600	3.219000	-9.612300	27.585668	0.000390	20.761422
1959.519439	-2.984300	3.218300	-9.603600	27.598020	0.000389	20.754883
1960.518372	-2.996100	3.218200	-9.641300	27.588719	0.000387	20.760224
1961.517153	-2.995200	3.216800	-9.634200	27.604766	0.000389	20.736066
1962.536447	-2.990400	3.219500	-9.626400	27.615455	0.000387	20.762470
1963.516557	-3.016700	3.215900	-9.700200	27.647895	0.000385	20.746747
1964.516399	-3.006100	3.216300	-9.667000	27.669447	0.000385	20.744252
1965.517684	-3.021200	3.214800	-9.711900	27.701513	0.000386	20.767511
1966.517816	-3.010300	3.215000	-9.677200	27.725990	0.000384	20.766538
1967.523689	-2.979600	3.216500	-9.581700	27.718500	0.000382	20.756156
1968.516744	-3.025200	3.214400	-9.723100	27.747862	0.000381	20.737813
1969.517264	-2.986900	3.214100	-9.599100	27.740819	0.000380	20.764865
1970.519149	-2.996100	3.214200	-9.629000	27.727701	0.000380	20.766363
1971.517002	-2.996400	3.212900	-9.625200	27.709225	0.000379	20.761996
1972.517402	-2.972600	3.213900	-9.552700	27.705803	0.000379	20.768035
1973.517776	-2.976500	3.212900	-9.562700	27.705927	0.000378	20.758202
1974.517630	-2.997200	3.212100	-9.626300	27.658931	0.000374	20.770655
1975.519668	-3.012100	3.211800	-9.672500	27.627434	0.000375	20.747970
1976.517948	-3.011300	3.210600	-9.665700	27.616224	0.000375	20.764192
1977.519898	-3.004000	3.210400	-9.642900	27.620415	0.000375	20.779789
1978.518963	-3.015700	3.210600	-9.681600	27.625004	0.000373	20.777768
1979.517947	-2.990500	3.210700	-9.600800	27.620539	0.000373	20.756206
1980.521627	-3.025400	3.208800	-9.707000	27.627955	0.000369	20.766038
1981.520692	-3.001600	3.209800	-9.633000	27.610867	0.000373	20.774448
1982.519955	-3.014700	3.207600	-9.669000	27.608486	0.000370	20.784855
1983.521169	-3.004500	3.208800	-9.640300	27.597672	0.000373	20.783457
1984.525380	-2.988600	3.207100	-9.584500	27.627037	0.000369	20.754683
1985.522418	-3.001100	3.207500	-9.624900	27.645613	0.000367	20.771953
1986.523858	-2.994000	3.206100	-9.598300	27.653921	0.000370	20.780313
1987.523798	-2.995000	3.207900	-9.607100	27.708804	0.000364	20.787650
1988.524401	-3.010000	3.206100	-9.649700	27.690204	0.000367	20.795960
1989.524041	-2.991400	3.206000	-9.589200	27.712003	0.000363	20.780438
1990.524946	-3.011000	3.205500	-9.650400	27.663197	0.000364	20.773525
1991.526129	-3.009000	3.206500	-9.647500	27.629616	0.000364	20.763917
1992.524821	-3.004000	3.205900	-9.629900	27.593381	0.000363	20.772976
1993.525439	-2.972400	3.205900	-9.527700	27.554690	0.000363	20.775771
1994.523051	-2.990800	3.204200	-9.582000	27.554863	0.000362	20.791593
1995.523738	-2.998500	3.202500	-9.600800	27.499427	0.000361	20.787500
1996.526116	-3.005200	3.202300	-9.623000	27.445080	0.000359	20.785928
1997.525796	-3.025000	3.202300	-9.685300	27.381824	0.000358	20.786302
1998.527743	-2.999600	3.200300	-9.598700	27.390606	0.000357	20.788024
1999.528153	-3.002900	3.200100	-9.607500	27.377433	0.000357	20.786153
2000.527071	-3.031300	3.198900	-9.696300	27.386364	0.000356	20.780912
2001.528954	-2.993900	3.200300	-9.580400	27.427716	0.000359	20.800228
2002.530622	-2.995900	3.199800	-9.585600	27.427443	0.000355	20.775297
2003.525946	-3.022100	3.199500	-9.667500	27.444609	0.000357	20.785454
2004.527829	-3.008400	3.197200	-9.616700	27.415338	0.000353	20.749367
2005.528994	-3.012100	3.196800	-9.628200	27.391102	0.000353	20.778566
2006.529865	-3.006800	3.198400	-9.616200	27.425409	0.000353	20.774199
2007.531498	-3.017600	3.196200	-9.643400	27.456838	0.000352	20.786851
2008.530534	-2.995800	3.195700	-9.571000	27.447585	0.000349	20.789871
2009.530956	-3.008300	3.197800	-9.617800	27.455176	0.000351	20.792766
2010.531638	-2.969900	3.196400	-9.492100	27.468695	0.000347	20.789771
2011.531819	-3.003300	3.195900	-9.596400	27.505852	0.000348	20.802973
2012.543666	-2.995900	3.196100	-9.573500	27.515996	0.000349	20.789472
2013.531204	-2.998000	3.194000	-9.574300	27.529465	0.000348	20.795910
2014.535757	-3.017400	3.194700	-9.638400	27.545637	0.000347	20.809810
2015.532167	-3.003600	3.194000	-9.592600	27.583634	0.000343	20.778342
2016.531637	-2.999200	3.194400	-9.579600	27.591100	0.000345	20.798655
2017.534944	-3.002300	3.194600	-9.590200	27.579666	0.000343	20.809910
2018.535752	-2.984100	3.194400	-9.531400	27.589091	0.000341	20.816548
2019.532966	-2.988300	3.192100	-9.536800	27.541370	0.000342	20.786078
2020.533606	-2.994400	3.191900	-9.556800	27.530680	0.000343	20.785753
2021.533989	-2.992200	3.190600	-9.545200	27.498063	0.000339	20.783757
2022.535552	-2.970000	3.192600	-9.480300	27.461402	0.000340	20.790021
2023.533802	-3.015600	3.190900	-9.621900	27.444956	0.000339	20.785803
2024.534922	-2.988000	3.191200	-9.534400	27.479708	0.000340	20.797532
2025.534576	-2.990100	3.189700	-9.536500	27.517237	0.000339	20.833393
2026.535386	-3.012900	3.187800	-9.603800	27.584056	0.000337	20.786826
2027.534961	-2.991200	3.188900	-9.537400	27.664338	0.000338	20.808812
2028.537257	-2.971400	3.187200	-9.469400	27.673340	0.000337	20.801276
2029.534762	-2.986200	3.188500	-9.521300	27.693750	0.000334	20.795736
2030.535479	-3.010300	3.186400	-9.590300	27.722840	0.000337	20.823111
2031.535865	-3.010800	3.186800	-9.593700	27.656749	0.000334	20.795960
2032.535494	-2.984500	3.185600	-9.506400	27.625599	0.000333	20.797333
2033.537746	-3.007900	3.183600	-9.574600	27.583064	0.000332	20.783932
2034.536976	-2.994200	3.185100	-9.535900	27.548613	0.000332	20.797158
2035.539646	-2.982500	3.184200	-9.496600	27.497815	0.000331	20.801999
2036.535816	-3.015100	3.183800	-9.598500	27.510788	0.000330	20.824060
2037.535141	-2.995700	3.185000	-9.540100	27.499030	0.000330	20.815076
2038.542768	-2.989800	3.184100	-9.519400	27.564809	0.000330	20.821988
2039.539425	-2.987600	3.183600	-9.509900	27.566917	0.000330	20.800876
2040.536345	-3.004300	3.182600	-9.559700	27.578029	0.000326	20.816324
2041.536041	-2.979100	3.183200	-9.481100	27.624036	0.000325	20.812830
2042.536789	-3.022300	3.180700	-9.612200	27.648837	0.000326	20.804595
2043.534594	-3.028800	3.178300	-9.624900	27.648664	0.000323	20.813429
2044.538790	-2.993400	3.180000	-9.518300	27.608833	0.000324	20.829300
2045.535956	-2.982300	3.181600	-9.486900	27.582692	0.000324	20.818644
2046.538126	-2.993600	3.181600	-9.522700	27.558038	0.000325	20.803796
2047.535978	-3.026400	3.178100	-9.616600	27.568802	0.000322	20.843075
2048.537399	-2.975400	3.178500	-9.456200	27.630212	0.000319	20.804345
2049.539243	-3.003100	3.176600	-9.538000	27.659105	0.000321	20.827254
2050.539721	-2.999600	3.178000	-9.531700	27.691146	0.000318	20.809711
2051.539673	-2.996100	3.176400	-9.515700	27.695908	0.000318	20.821614
2052.540434	-2.986600	3.176000	-9.484600	27.721253	0.000318	20.805393
2053.540006	-3.003000	3.175300	-9.535100	27.750986	0.000319	20.813504
2054.541000	-2.986000	3.175600	-9.481100	27.780719	0.000316	20.832519
2055.545666	-3.001400	3.174600	-9.526400	27.820742	0.000316	20.817322
2056.542781	-3.011100	3.173600	-9.554500	27.844174	0.000314	20.821938
2057.543541	-3.005400	3.173600	-9.537600	27.862821	0.000315	20.838334
2058.543748	-3.027600	3.173300	-9.606300	27.835099	0.000315	20.832719
2059.545748	-3.011700	3.172300	-9.552800	27.829148	0.000313	20.827204
2060.550076	-2.992700	3.174500	-9.499300	27.843901	0.000311	20.822138
2061.546072	-3.006800	3.171600	-9.534900	27.831280	0.000311	20.834566
2062.547484	-2.990900	3.172400	-9.488000	27.804872	0.000311	20.843549
2063.546959	-2.989400	3.171100	-9.478200	27.809186	0.000311	20.825133
2064.547171	-3.009500	3.169900	-9.538500	27.817121	0.000306	20.819368
2065.550287	-3.011300	3.170000	-9.545100	27.827709	0.000309	20.830024
2066.548647	-3.009500	3.167400	-9.532100	27.858283	0.000309	20.834241
2067.556091	-2.999600	3.169400	-9.506200	27.903088	0.000307	20.820541
2068.549746	-2.994100	3.169700	-9.488800	27.903113	0.000306	20.836213
2069.549075	-3.010200	3.167500	-9.533900	27.933908	0.000307	20.815051
2070.553455	-3.002000	3.165900	-9.504000	28.006651	0.000307	20.842751
2071.550380	-2.999000	3.167000	-9.497000	28.011882	0.000310	20.827628
2072.550740	-3.019600	3.165700	-9.558600	28.037566	0.000303	20.823136
2073.552681	-3.016500	3.165600	-9.546500	28.069398	0.000302	20.833842
2074.553757	-3.002800	3.164900	-9.502500	28.082240	0.000303	20.837760
2075.554343	-3.000800	3.165200	-9.497200	28.099692	0.000302	20.837311
2076.558854	-2.981200	3.164600	-9.433000	28.077579	0.000298	20.844448
2077.555331	-3.006600	3.163800	-9.511200	28.060102	0.000302	20.851984
2078.555565	-2.958100	3.163900	-9.357900	28.017287	0.000299	20.858672
2079.554867	-2.964700	3.163600	-9.378600	27.961280	0.000300	20.809885
2080.555068	-3.015300	3.162900	-9.536200	27.903584	0.000299	20.826256
2081.560057	-3.001200	3.161200	-9.486100	27.901477	0.000297	20.844997
2082.555874	-3.008800	3.161500	-9.511200	27.857713	0.000297	20.856900
2083.558582	-3.014100	3.159300	-9.520600	27.889798	0.000298	20.855527
2084.557065	-2.996400	3.159400	-9.465700	27.889972	0.000296	20.841004
2085.557784	-3.013800	3.158700	-9.518600	27.900634	0.000294	20.852208
2086.558953	-3.012300	3.158000	-9.512300	27.949801	0.000292	20.835788
2087.557918	-3.026800	3.157400	-9.556000	28.021948	0.000295	20.847717
2088.558345	-3.007200	3.159500	-9.499800	27.996436	0.000295	20.836737
2089.558545	-2.974100	3.157600	-9.389100	27.987214	0.000291	20.838833
2090.568026	-2.984000	3.157500	-9.420800	27.923097	0.000297	20.848266
2091.558431	-2.971400	3.156200	-9.377900	27.882558	0.000293	20.863887
2092.560103	-2.983900	3.157300	-9.420900	27.880599	0.000291	20.870450
2093.558376	-3.010300	3.155000	-9.496300	27.919106	0.000291	20.850412
2094.563512	-2.997300	3.154000	-9.452300	27.918461	0.000290	20.840280
2095.559084	-3.013000	3.154300	-9.503000	27.965644	0.000290	20.864062
2096.559226	-2.947900	3.154600	-9.298400	27.964206	0.000286	20.862140
2097.563197	-2.998300	3.152500	-9.451100	28.008609	0.000284	20.845670
2098.560860	-2.987700	3.152700	-9.417900	28.017783	0.000287	20.845895
2099.561520	-2.975500	3.153000	-9.380400	28.048921	0.000286	20.854479
2100.560350	-2.980200	3.152500	-9.393700	28.090446	0.000284	20.850287
2101.561643	-2.992800	3.150600	-9.428100	28.077207	0.000284	20.863987
2102.564947	-3.033000	3.148500	-9.547900	28.072869	0.000283	20.851560
2103.561297	-3.009200	3.147900	-9.471800	28.099940	0.000282	20.848465
2104.563083	-2.967600	3.149600	-9.345300	28.137472	0.000283	20.864436
2105.561794	-3.004200	3.147200	-9.453100	28.118235	0.000281	20.863563
2106.561875	-2.999600	3.147600	-9.441200	28.124061	0.000281	20.867530
2107.561910	-2.997300	3.146800	-9.431300	28.053433	0.000278	20.874193
2108.563088	-2.992500	3.145400	-9.411800	28.000378	0.000278	20.871523
2109.561826	-3.027500	3.145600	-9.522900	27.996362	0.000279	20.849463
2110.561172	-2.993900	3.146200	-9.417600	28.029459	0.000276	20.870450
2111.562223	-3.007800	3.144200	-9.456700	28.038360	0.000276	20.864236
2112.563879	-3.003300	3.142900	-9.437500	28.070068	0.000275	20.867231
2113.562565	-2.998800	3.142500	-9.422400	28.077381	0.000274	20.849463
2114.562118	-3.017200	3.142500	-9.479400	28.096891	0.000275	20.865309
2115.567775	-2.987400	3.140300	-9.380500	28.149693	0.000273	20.876738
2116.563197	-3.001700	3.142700	-9.432200	28.195477	0.000276	20.879209
2117.564612	-3.005600	3.140800	-9.439300	28.240615	0.000274	20.884349
2118.566102	-2.998100	3.140000	-9.412800	28.300647	0.000272	20.871298
2119.564637	-2.989900	3.138700	-9.383700	28.320054	0.000272	20.885148
2120.564922	-2.986100	3.138600	-9.371100	28.311949	0.000274	20.881729
2121.565397	-3.002800	3.137300	-9.418100	28.312965	0.000271	20.863313
2122.566124	-2.992200	3.137100	-9.385800	28.261188	0.000271	20.868553
2123.566337	-3.003900	3.136500	-9.420800	28.185810	0.000270	20.891286
2124.570999	-2.990800	3.135200	-9.375500	28.171780	0.000269	20.880955
2125.568747	-2.992700	3.135700	-9.382600	28.140818	0.000271	20.897200
2126.567529	-2.978800	3.135100	-9.336500	28.141785	0.000268	20.870200
2127.568378	-2.979500	3.134600	-9.338000	28.159708	0.000267	20.877811
2128.567678	-3.021600	3.131400	-9.460100	28.169995	0.000265	20.889589
2129.571809	-2.986000	3.132400	-9.352300	28.182612	0.000265	20.886645
2130.566866	-3.022800	3.131800	-9.465900	28.208441	0.000264	20.903638
2131.570381	-3.002900	3.131600	-9.402400	28.230353	0.000264	20.868329
2132.567336	-3.007400	3.132000	-9.416200	28.289171	0.000263	20.886770
2133.569278	-2.989500	3.131400	-9.360100	28.309471	0.000262	20.884923
2134.570193	-3.009200	3.129800	-9.416900	28.330835	0.000262	20.902640
2135.568609	-2.983300	3.130100	-9.336800	28.322979	0.000262	20.870076
2136.569074	-2.994500	3.128300	-9.366600	28.277919	0.000261	20.911947
2137.568384	-3.027700	3.127500	-9.468300	28.288899	0.000263	20.896926
2138.570508	-3.019500	3.128200	-9.444200	28.280843	0.000260	20.906358
2139.572463	-3.001200	3.126600	-9.383000	28.254867	0.000260	20.890637
2140.573750	-3.020300	3.123700	-9.432300	28.243317	0.000260	20.899396
2141.572473	-2.985000	3.125400	-9.327700	28.208268	0.000259	20.889714
2142.573184	-3.003400	3.124000	-9.381000	28.186950	0.000259	20.897649
2143.572375	-2.991900	3.124200	-9.345900	28.129886	0.000256	20.900893
2144.573300	-2.996200	3.123800	-9.358700	28.116153	0.000256	20.903663
2145.574526	-3.009400	3.122300	-9.395500	28.132464	0.000258	20.903488
2146.572725	-3.039400	3.120700	-9.483900	28.166822	0.000256	20.899196
2147.575424	-2.978800	3.121900	-9.298500	28.178770	0.000253	20.913594
2148.572416	-2.971300	3.122100	-9.276200	28.184570	0.000252	20.905210
2149.572493	-3.037100	3.118700	-9.470200	28.206706	0.000253	20.915166
2150.572885	-3.000200	3.118600	-9.356300	28.256602	0.000253	20.911349
2151.578769	-2.998600	3.117100	-9.346200	28.291154	0.000253	20.906308
2152.573294	-3.014300	3.117400	-9.395600	28.307711	0.000255	20.911598
2153.573345	-3.007400	3.116800	-9.372000	28.346103	0.000253	20.896676
2154.572931	-3.007100	3.115400	-9.367000	28.339411	0.000249	20.908429
2155.572913	-3.021100	3.116100	-9.412000	28.301415	0.000251	20.906682
2156.575740	-3.002700	3.114200	-9.348700	28.298565	0.000251	20.894805
2157.575978	-2.988900	3.114000	-9.305900	28.327985	0.000251	20.891710
2158.577496	-2.996000	3.114500	-9.329000	28.360775	0.000248	20.903863
2159.576039	-2.996700	3.113000	-9.327700	28.388681	0.000247	20.898298
2160.574740	-2.998400	3.112200	-9.330600	28.409425	0.000246	20.897849
2161.580837	-2.976700	3.111800	-9.262000	28.405707	0.000247	20.907855
2162.577966	-3.022100	3.109000	-9.394200	28.442956	0.000246	20.897475
2163.577083	-2.966800	3.110700	-9.227200	28.458197	0.000246	20.917088
2164.577150	-3.008500	3.108700	-9.351100	28.462063	0.000244	20.911024
2165.577021	-3.032400	3.107100	-9.420400	28.467663	0.000244	20.893432
2166.580819	-2.988800	3.107700	-9.286100	28.484366	0.000242	20.878011
2167.578374	-2.999100	3.107300	-9.318600	28.481615	0.000242	20.879034
2168.580854	-2.999200	3.106200	-9.314700	28.488950	0.000243	20.910600
2169.583429	-3.034200	3.104200	-9.417600	28.513112	0.000241	20.867131
2170.581290	-3.016400	3.103500	-9.360700	28.521190	0.000241	20.887119
2171.583210	-3.000100	3.103400	-9.309700	28.498714	0.000240	20.885347
2172.581629	-3.010500	3.103200	-9.340400	28.511650	0.000242	20.886994
2173.584548	-2.997100	3.101700	-9.295300	28.481640	0.000240	20.867206
2174.581652	-2.999800	3.102300	-9.304800	28.473908	0.000239	20.885971
2175.581274	-2.992900	3.101200	-9.280700	28.491131	0.000241	20.874867
2176.584294	-3.009400	3.099800	-9.327900	28.486720	0.000239	20.853357
2177.585714	-2.988800	3.099000	-9.261200	28.511600	0.000237	20.871773
2178.581434	-3.003500	3.098600	-9.305000	28.541708	0.000240	20.863213
2179.583426	-3.022300	3.097400	-9.358800	28.545202	0.000238	20.874318
2180.583234	-2.999700	3.098200	-9.292100	28.565224	0.000238	20.861292
2181.584412	-3.006100	3.096700	-9.307100	28.510312	0.000238	20.861467
2182.586613	-3.020100	3.094100	-9.343600	28.495071	0.000236	20.888317
2183.583617	-2.986800	3.095700	-9.244800	28.513260	0.000235	20.866333
2184.587008	-3.003500	3.093000	-9.288000	28.524759	0.000235	20.867955
2185.583485	-2.988000	3.093300	-9.242100	28.568594	0.000235	20.872746
2186.583669	-2.981400	3.092100	-9.217800	28.592431	0.000235	20.867830
2187.584508	-3.000800	3.091900	-9.277600	28.604523	0.000235	20.855827
2188.587363	-2.986500	3.090600	-9.228900	28.610718	0.000234	20.868229
2189.583873	-2.993000	3.089800	-9.245300	28.614905	0.000232	20.875765
2190.583436	-2.993300	3.089500	-9.247000	28.578357	0.000232	20.878311
2191.584241	-3.016300	3.086900	-9.311000	28.513880	0.000234	20.861741
2192.583582	-3.007800	3.087300	-9.283700	28.518266	0.000233	20.857624
2193.585888	-2.989500	3.087600	-9.229800	28.559772	0.000231	20.855802
2194.584398	-2.996600	3.084800	-9.243000	28.570998	0.000232	20.853831
2195.583229	-3.011500	3.085300	-9.290600	28.625956	0.000232	20.864611
2196.583328	-2.970800	3.084100	-9.161100	28.621001	0.000233	20.841129
2197.584406	-2.976900	3.082900	-9.176300	28.661710	0.000230	20.857000
2198.588184	-3.016500	3.080400	-9.290800	28.600014	0.000230	20.858872
2199.586561	-3.010400	3.081700	-9.276500	28.548820	0.000227	20.847143
2200.587132	-2.968000	3.081700	-9.145300	28.546912	0.000228	20.838584
2201.586981	-2.992400	3.080000	-9.216000	28.555882	0.000232	20.858048
2202.587159	-3.000800	3.079600	-9.240500	28.523991	0.000228	20.845372
2203.588970	-2.997200	3.077500	-9.223000	28.484515	0.000231	20.844498
2204.590943	-2.992500	3.078500	-9.211400	28.448879	0.000227	20.862191
2205.587285	-2.978000	3.078200	-9.166200	28.453712	0.000228	20.837186
2206.587695	-3.000000	3.076300	-9.227000	28.436463	0.000228	20.865809
2207.587724	-3.013500	3.073700	-9.261500	28.396836	0.000226	20.836338
2208.588558	-3.011000	3.073800	-9.254900	28.395349	0.000228	20.861866
2209.588989	-3.003500	3.072400	-9.227100	28.387393	0.000228	20.846744
2210.587492	-2.987400	3.073100	-9.178400	28.411582	0.000224	20.842177
2211.590640	-2.981700	3.071200	-9.155400	28.402238	0.000226	20.840830
2212.588596	-3.009700	3.069600	-9.237300	28.374010	0.000224	20.836114
2213.588524	-2.988900	3.069000	-9.172100	28.350217	0.000227	20.839657
2214.590873	-2.995600	3.068600	-9.191200	28.304985	0.000224	20.816873
2215.588155	-2.983100	3.067700	-9.150200	28.319212	0.000225	20.830723
2216.588783	-2.989700	3.066200	-9.165600	28.338197	0.000222	20.837037
2217.589650	-3.011700	3.065200	-9.230400	28.298640	0.000222	20.837037
2218.587839	-3.012000	3.062900	-9.225100	28.286371	0.000225	20.840331
2219.589494	-2.998500	3.062800	-9.182900	28.324665	0.000222	20.818196
2220.593216	-2.996900	3.062700	-9.177700	28.287883	0.000221	20.832370
2221.588749	-3.018000	3.060000	-9.234300	28.304143	0.000222	20.836413
2222.588942	-3.012400	3.059900	-9.216700	28.322954	0.000222	20.831173
2223.588654	-3.002900	3.059200	-9.184000	28.337032	0.000220	20.820217
2224.590454	-3.013000	3.058600	-9.214700	28.327961	0.000222	20.848067
2225.592363	-3.023800	3.056900	-9.241900	28.324913	0.000222	20.833618
2226.589718	-3.005600	3.055800	-9.184000	28.361792	0.000224	20.845621
2227.590944	-3.009500	3.055100	-9.192300	28.350168	0.000220	20.831547
2228.589865	-3.003100	3.054900	-9.173300	28.363130	0.000218	20.843650
2229.590440	-2.982500	3.053100	-9.104700	28.358818	0.000220	20.825084
2230.590824	-3.003400	3.052300	-9.166400	28.330861	0.000221	20.817797
2231.590389	-2.999300	3.051300	-9.151200	28.324913	0.000221	20.821291
2232.589792	-3.011600	3.051000	-9.186900	28.351531	0.000219	20.822014
2233.589649	-3.018900	3.050000	-9.207200	28.369326	0.000220	20.813854
2234.599327	-2.976600	3.050400	-9.078300	28.355447	0.000218	20.825009
2235.589721	-3.004600	3.048700	-9.158500	28.294823	0.000218	20.815651
2236.591066	-2.993300	3.046000	-9.117600	28.243640	0.000218	20.830973
2237.589594	-2.981300	3.045100	-9.077500	28.192801	0.000219	20.830524
2238.590981	-2.982200	3.043700	-9.076500	28.270930	0.000218	20.818146
2239.589782	-2.988100	3.043500	-9.093900	28.335917	0.000218	20.831897
2240.590551	-3.005900	3.042600	-9.143300	28.366774	0.000216	20.822189
2241.593569	-3.004600	3.040600	-9.134700	28.351160	0.000217	20.833494
2242.589158	-3.008100	3.039900	-9.143000	28.338768	0.000215	20.812482
2243.589642	-2.990300	3.040300	-9.089200	28.400083	0.000217	20.821590
2244.588998	-3.014100	3.037300	-9.153000	28.470861	0.000218	20.819844
2245.590680	-2.997900	3.036500	-9.102400	28.508305	0.000215	20.819145
2246.590819	-2.993800	3.036100	-9.087600	28.515863	0.000216	20.828653
2247.592241	-3.013000	3.034700	-9.142100	28.498195	0.000214	20.817972
2248.590736	-2.992300	3.034000	-9.077700	28.471505	0.000217	20.811484
2249.593741	-2.979800	3.032600	-9.035100	28.432970	0.000214	20.821990
2250.591320	-2.991100	3.031200	-9.066400	28.494329	0.000214	20.796536
2251.593509	-2.990400	3.029800	-9.058800	28.518911	0.000215	20.802325
2252.597761	-2.969000	3.029400	-8.992300	28.569859	0.000213	20.807641
2253.593329	-2.990300	3.028300	-9.054400	28.564977	0.000214	20.807940
2254.596632	-2.986900	3.027300	-9.041400	28.540693	0.000213	20.802924
2255.594217	-3.022900	3.025000	-9.143700	28.543022	0.000214	20.801951
2256.593791	-3.003600	3.024400	-9.083400	28.517375	0.000213	20.816425
2257.595745	-2.991900	3.023100	-9.043800	28.462460	0.000214	20.817548
2258.596503	-3.004300	3.022400	-9.079200	28.412574	0.000215	20.824211
2259.594976	-3.003800	3.019900	-9.070000	28.420281	0.000215	20.817273
2260.594839	-3.036200	3.018000	-9.162200	28.466351	0.000212	20.817199
2261.595421	-2.999300	3.018800	-9.053700	28.476189	0.000215	20.819519
2262.596864	-2.989200	3.018000	-9.019600	28.459437	0.000214	20.780839
2263.599333	-3.009900	3.015500	-9.075100	28.447244	0.000214	20.812657
2264.595930	-3.018400	3.013900	-9.096600	28.414705	0.000214	20.807391
2265.601502	-2.970800	3.015400	-8.956600	28.421099	0.000214	20.817623
2266.596356	-3.015700	3.011600	-9.081300	28.444692	0.000215	20.810086
2267.597169	-2.983400	3.010800	-8.981600	28.485780	0.000217	20.795512
2268.598709	-3.011700	3.010400	-9.065700	28.493858	0.000211	20.797484
2269.596808	-3.018200	3.007400	-9.075900	28.525082	0.000214	20.816126
2270.596894	-3.009800	3.006700	-9.048700	28.575285	0.000214	20.813106
2271.599319	-3.016800	3.005100	-9.063400	28.549044	0.000214	20.807067
2272.598548	-3.004500	3.004400	-9.025500	28.525652	0.000213	20.810061
2273.598212	-2.990200	3.003700	-8.980200	28.511180	0.000210	20.795962
2274.599608	-2.975000	3.003600	-8.934900	28.507166	0.000212	20.822739
2275.598061	-3.005900	3.001300	-9.019300	28.577763	0.000210	20.789523
2276.599152	-3.020700	2.998600	-9.056400	28.654427	0.000213	20.793716
2277.600525	-2.985500	2.999600	-8.954200	28.716640	0.000212	20.807067
2278.598203	-3.017700	2.996500	-9.041200	28.746544	0.000211	20.812058
2279.604488	-2.987700	2.996200	-8.950500	28.761236	0.000210	20.802675
2280.599847	-2.992300	2.995600	-8.962500	28.795573	0.000212	20.798383
2281.603076	-3.027000	2.992800	-9.057200	28.792699	0.000212	20.798807
2282.600544	-2.984900	2.993900	-8.935800	28.796836	0.000211	20.811035
2283.599973	-2.993400	2.991100	-8.953300	28.808926	0.000211	20.807092
2284.603029	-3.035800	2.988000	-9.068800	28.807291	0.000210	20.803074
2285.605306	-3.027200	2.988300	-9.044300	28.762375	0.000207	20.800504
2286.601565	-3.013900	2.986200	-8.998600	28.699050	0.000210	20.796461
2287.604352	-2.999200	2.985900	-8.954900	28.637058	0.000208	20.797085
2288.602831	-3.001900	2.984600	-8.958500	28.633663	0.000211	20.810735
2289.602760	-3.037700	2.981800	-9.056400	28.630715	0.000211	20.786903
2290.604679	-3.001300	2.980900	-8.945700	28.636711	0.000209	20.781562
2291.601666	-3.019900	2.979500	-8.996100	28.650537	0.000210	20.807816
2292.605026	-3.001100	2.978800	-8.938900	28.644169	0.000210	20.802825
2293.602800	-3.013700	2.976600	-8.969400	28.663545	0.000209	20.800054
2294.603242	-3.035400	2.974500	-9.026900	28.700264	0.000208	20.800529
2295.606568	-3.005100	2.974000	-8.935500	28.748080	0.000207	20.808864
2296.603626	-3.009400	2.973500	-8.947300	28.730762	0.000209	20.787627
2297.603180	-2.993400	2.971500	-8.894000	28.725386	0.000210	20.790272
2298.605568	-2.999800	2.970100	-8.908200	28.740697	0.000210	20.798108
2299.606602	-3.022100	2.969100	-8.971800	28.765373	0.000209	20.783135
2300.606824	-3.023500	2.966000	-8.967100	28.758089	0.000208	20.793816
2301.608963	-3.004400	2.966200	-8.910700	28.751251	0.000210	20.790721
2302.606889	-3.021600	2.965400	-8.958100	28.742630	0.000210	20.788675
2303.608387	-3.001700	2.962600	-8.891700	28.746470	0.000209	20.790172
2304.609088	-2.988000	2.960800	-8.845900	28.776794	0.000207	20.790846
2305.610431	-3.005000	2.958400	-8.889400	28.776968	0.000208	20.776796
2306.611717	-2.982100	2.958700	-8.822400	28.783904	0.000205	20.822190
2307.609873	-3.001300	2.957800	-8.875800	28.754324	0.000207	20.767263
2308.611441	-3.003600	2.953700	-8.870900	28.693846	0.000212	20.790746
2309.609526	-2.984700	2.954200	-8.815300	28.664660	0.000208	20.800703
2310.611076	-2.997600	2.953200	-8.851900	28.671820	0.000211	20.775199
2311.613029	-2.982200	2.950800	-8.798800	28.665428	0.000207	20.790571
2312.613923	-3.013700	2.949100	-8.886600	28.678212	0.000208	20.791120
2313.613010	-2.990100	2.948100	-8.812300	28.675165	0.000208	20.790422
2314.613635	-2.997100	2.946900	-8.831300	28.693475	0.000209	20.764293
2315.613725	-2.982100	2.945500	-8.783100	28.767950	0.000209	20.769609
2316.613067	-3.019500	2.942200	-8.882000	28.816952	0.000208	20.779616
2317.614747	-2.981900	2.941400	-8.769700	28.811032	0.000208	20.791195
2318.614877	-3.031600	2.938200	-8.905600	28.828348	0.000209	20.776871
2319.614675	-3.003600	2.937500	-8.821200	28.845763	0.000207	20.784457
2320.616890	-3.003000	2.935700	-8.815200	28.841725	0.000208	20.754784
2321.616432	-3.027800	2.933400	-8.880000	28.883615	0.000208	20.782760
2322.617605	-3.017900	2.933500	-8.851200	28.944676	0.000206	20.777420
2323.615521	-3.030400	2.929800	-8.876400	28.968034	0.000207	20.779616
2324.615597	-3.013600	2.929100	-8.826100	28.946410	0.000207	20.777270
2325.618177	-2.985200	2.928900	-8.742400	28.933182	0.000206	20.761573
2326.616237	-3.010300	2.926400	-8.807700	28.915248	0.000205	20.783808
2327.616826	-2.975200	2.927700	-8.709100	28.865730	0.000206	20.770906
2328.619720	-2.997900	2.922700	-8.760800	28.786555	0.000209	20.780289
2329.616538	-2.990100	2.921100	-8.732400	28.744512	0.000205	20.795313
2330.619198	-3.023300	2.919400	-8.825100	28.752812	0.000208	20.768111
2331.616848	-3.007200	2.917700	-8.773100	28.763713	0.000205	20.779566
2332.617025	-2.987800	2.917000	-8.714700	28.790469	0.000206	20.776172
2333.620135	-2.997100	2.916400	-8.738500	28.815961	0.000208	20.789997
2334.617898	-2.996400	2.911900	-8.724400	28.812914	0.000207	20.793566
2335.618245	-2.977500	2.911100	-8.666100	28.789875	0.000205	20.778892
2336.618048	-2.993900	2.909700	-8.710600	28.796068	0.000207	20.779441
2337.618423	-2.994000	2.909200	-8.709100	28.815714	0.000205	20.781687
2338.624206	-2.993500	2.906600	-8.700300	28.831197	0.000203	20.774050
2339.624041	-3.042900	2.904200	-8.834200	28.785192	0.000207	20.785081
2340.619866	-3.000800	2.903500	-8.711400	28.744215	0.000206	20.771779
2341.619512	-3.002300	2.901200	-8.709100	28.755884	0.000206	20.776421
2342.620653	-3.003600	2.899800	-8.708300	28.746569	0.000205	20.769883
2343.622386	-3.030400	2.897800	-8.779200	28.795920	0.000203	20.756531
2344.621121	-3.007000	2.895300	-8.705000	28.823071	0.000205	20.778193
2345.623420	-3.012800	2.895800	-8.722400	28.799165	0.000206	20.760749
2346.622869	-3.032800	2.892400	-8.771000	28.806968	0.000205	20.764343
2347.623598	-3.004600	2.890300	-8.682900	28.818810	0.000205	20.777220
2348.626313	-2.989900	2.887400	-8.631000	28.836572	0.000206	20.774724
2349.628382	-2.992800	2.887600	-8.640900	28.811775	0.000203	20.758278
2350.624886	-3.007000	2.884000	-8.671700	28.846927	0.000203	20.760973
2351.624362	-2.980900	2.883700	-8.594900	28.895778	0.000205	20.767986
2352.622470	-3.008200	2.880000	-8.662400	28.941902	0.000204	20.783634
2353.624294	-2.998700	2.880200	-8.635600	28.959340	0.000200	20.754734
2354.627393	-2.986700	2.878100	-8.595000	28.995330	0.000204	20.769184
2355.625138	-2.994600	2.875000	-8.608800	28.996569	0.000206	20.753836
2356.629165	-2.988900	2.873600	-8.586800	29.004123	0.000204	20.765715
2357.626686	-3.010700	2.870800	-8.642400	29.036991	0.000205	20.769434
2358.626845	-3.008600	2.867800	-8.627400	29.059554	0.000205	20.757554
2359.643730	-2.994300	2.867100	-8.582900	29.080879	0.000206	20.745850
2360.627483	-3.010400	2.863600	-8.619000	29.095517	0.000206	20.768186
2361.627388	-2.976700	2.864400	-8.524800	29.091306	0.000206	20.763469
2362.627095	-3.012900	2.860100	-8.615800	29.076594	0.000205	20.746274
2363.628014	-2.979100	2.858900	-8.515800	29.061338	0.000204	20.739910
2364.627577	-2.968200	2.857100	-8.478900	29.038081	0.000206	20.754410
2365.627848	-3.005000	2.853800	-8.574800	29.034638	0.000205	20.750467
2366.629171	-3.004900	2.852500	-8.570800	29.041028	0.000205	20.744103
2367.629266	-3.022600	2.851100	-8.617000	29.012965	0.000204	20.760874
2368.627977	-3.014400	2.847800	-8.583200	29.021090	0.000207	20.751989
2369.631914	-3.000900	2.847100	-8.542900	29.029610	0.000204	20.779066
2370.628973	-3.022300	2.845600	-8.598400	29.052347	0.000204	20.759775
2371.631155	-3.012700	2.843600	-8.565600	29.017696	0.000204	20.744302
2372.629430	-2.971700	2.841100	-8.442200	29.018786	0.000204	20.760100
2373.631796	-2.991700	2.837800	-8.489200	29.025771	0.000202	20.736791
2374.632237	-3.000200	2.835100	-8.504600	29.036669	0.000206	20.753461
2375.631117	-2.979900	2.835100	-8.447500	29.029065	0.000205	20.763344
2376.631795	-2.989100	2.833100	-8.467700	28.994042	0.000203	20.747971
2377.631329	-3.023500	2.830700	-8.557800	28.975713	0.000204	20.741832
2378.631619	-2.996300	2.829600	-8.477700	29.019851	0.000205	20.737464
2379.632504	-3.013200	2.826900	-8.517300	29.067728	0.000204	20.736866
2380.632832	-3.013200	2.823000	-8.505200	29.091084	0.000203	20.751865
2381.632981	-2.972400	2.820300	-8.382000	29.051728	0.000205	20.759626
2382.634400	-2.997400	2.819300	-8.448500	29.068966	0.000207	20.742381
2383.632691	-2.984700	2.817600	-8.407600	29.060372	0.000204	20.737041
2384.631384	-3.007600	2.812700	-8.457100	29.022328	0.000205	20.724312
2385.635925	-2.976000	2.811900	-8.367100	28.990352	0.000202	20.738089
2386.632589	-3.007700	2.807700	-8.442900	28.980345	0.000201	20.725635
2387.635747	-3.000200	2.806900	-8.420600	29.006576	0.000202	20.732149
2388.634425	-2.989600	2.804400	-8.382300	29.024260	0.000203	20.734320
2389.634159	-2.982000	2.803500	-8.358900	29.031270	0.000204	20.731900
2390.634197	-3.011500	2.799500	-8.429900	29.033202	0.000205	20.721992
2391.637260	-2.982900	2.797100	-8.342900	29.094873	0.000204	20.740510
2392.636585	-3.000400	2.793100	-8.378400	29.083257	0.000203	20.746349
2393.637053	-2.998800	2.792600	-8.373300	29.092570	0.000204	20.748146
2394.638384	-2.988600	2.788000	-8.331800	29.130636	0.000204	20.719172
2395.638010	-3.022300	2.786200	-8.419800	29.167215	0.000202	20.729005
2396.642161	-3.007200	2.782200	-8.366000	29.182198	0.000204	20.729404
2397.638204	-3.026000	2.781100	-8.414600	29.202430	0.000203	20.729878
2398.638070	-3.002000	2.777900	-8.338600	29.216571	0.000203	20.746499
2399.639011	-2.982600	2.776300	-8.279700	29.185962	0.000203	20.751216
2400.639059	-3.005100	2.771800	-8.328100	29.170310	0.000203	20.716476
2401.640521	-2.972000	2.770400	-8.231400	29.189677	0.000203	20.730777
2402.638490	-2.980900	2.767300	-8.247000	29.163376	0.000203	20.719446
2403.639102	-3.020900	2.764600	-8.349800	29.150053	0.000202	20.717874
2404.639997	-2.984700	2.760600	-8.239000	29.162188	0.000205	20.731051
2405.639554	-2.998300	2.758800	-8.271500	29.209241	0.000203	20.719197
2406.641034	-3.005600	2.755400	-8.280900	29.230067	0.000202	20.741134
2407.641953	-2.999700	2.753300	-8.257400	29.243687	0.000203	20.737790
2408.641636	-3.007900	2.749600	-8.269600	29.299626	0.000203	20.752439
2409.641303	-3.006600	2.747100	-8.258800	29.326839	0.000203	20.741933
2410.640299	-2.983300	2.743700	-8.182300	29.361059	0.000204	20.739911
2411.640826	-3.004000	2.740300	-8.230700	29.394138	0.000202	20.729155
2412.642736	-3.006800	2.736700	-8.227900	29.401715	0.000203	20.753862
2413.641794	-3.016900	2.733800	-8.246000	29.387800	0.000201	20.731301
2414.642733	-3.010200	2.729700	-8.216500	29.400279	0.000203	20.722067
2415.640441	-3.008000	2.727600	-8.203500	29.383739	0.000205	20.739537
2416.640814	-3.031500	2.723300	-8.254300	29.363956	0.000203	20.721967
2417.644258	-3.007600	2.720700	-8.181800	29.386314	0.000203	20.743080
2418.642729	-3.007000	2.718100	-8.170600	29.374206	0.000202	20.736567
2419.640116	-3.003600	2.714400	-8.151900	29.287963	0.000203	20.725511
2420.640432	-3.041600	2.708600	-8.236800	29.267657	0.000205	20.748196
2421.641689	-2.991800	2.708100	-8.100700	29.214614	0.000203	20.737415
2422.641820	-2.987600	2.702900	-8.074200	29.153099	0.000204	20.748920
2423.644502	-2.973900	2.701200	-8.032500	29.133856	0.000203	20.739012
2424.647169	-2.971800	2.697600	-8.015900	29.149012	0.000206	20.735793
2425.644677	-3.029600	2.692300	-8.154600	29.166175	0.000203	20.736966
2426.642187	-2.965100	2.688500	-7.969600	29.207160	0.000201	20.744128
2427.642920	-2.982900	2.684000	-8.003600	29.237050	0.000203	20.741059
2428.646896	-2.976900	2.681800	-7.982700	29.278553	0.000203	20.748745
2429.642940	-3.007400	2.676500	-8.048200	29.319187	0.000203	20.742282
2430.643188	-3.000400	2.673500	-8.020600	29.343627	0.000203	20.757904
2431.643945	-2.994600	2.669500	-7.992900	29.329884	0.000205	20.761598
2432.644377	-3.004100	2.664000	-8.001100	29.294772	0.000203	20.739486
2433.643034	-2.996600	2.660800	-7.972300	29.327458	0.000201	20.755359
2434.646696	-2.961800	2.658100	-7.871900	29.332063	0.000203	20.721592
2435.643770	-3.006300	2.653800	-7.976900	29.292073	0.000205	20.731076
2436.643814	-3.030800	2.648300	-8.025400	29.278751	0.000205	20.734245
2437.643688	-3.003700	2.644400	-7.941900	29.266097	0.000207	20.760849
2438.644250	-3.003500	2.639900	-7.928000	29.238437	0.000201	20.754785
2439.647830	-2.991600	2.634600	-7.880400	29.204931	0.000203	20.756107
2440.645522	-3.012900	2.629800	-7.921900	29.182890	0.000202	20.755708
2441.645395	-3.012600	2.624500	-7.906300	29.138882	0.000204	20.753561
2442.645470	-3.006200	2.621400	-7.879400	29.171721	0.000203	20.757729
2443.644176	-2.978800	2.617500	-7.796700	29.196907	0.000204	20.742805
2444.645260	-2.997400	2.611200	-7.825500	29.204757	0.000204	20.752613
2445.646885	-2.982900	2.606100	-7.772500	29.149358	0.000202	20.738038
2446.645861	-2.970100	2.602000	-7.726400	29.112457	0.000202	20.758228
2447.648264	-3.010300	2.596800	-7.815900	29.083851	0.000204	20.764966
2448.647551	-2.982500	2.591200	-7.727100	29.120456	0.000202	20.758702
2449.649086	-3.022900	2.585800	-7.815900	29.180661	0.000204	20.765790
2450.653745	-2.991600	2.582000	-7.723600	29.265180	0.000202	20.751864
2451.649312	-2.997000	2.576500	-7.720800	29.311659	0.000203	20.767412
2452.653969	-3.034600	2.568500	-7.793600	29.378860	0.000204	20.765915
2453.650069	-2.995100	2.564600	-7.679800	29.423972	0.000203	20.754959
2454.649105	-2.979300	2.558300	-7.620300	29.439397	0.000205	20.762920
2455.655784	-2.987700	2.551200	-7.620700	29.438555	0.000203	20.760175
2456.649952	-3.005100	2.544800	-7.646200	29.422140	0.000202	20.765914
2457.649106	-2.970900	2.540100	-7.545600	29.442641	0.000204	20.786578
2458.655752	-3.027000	2.533100	-7.666500	29.445909	0.000203	20.756681
2459.650955	-3.013900	2.528100	-7.618700	29.420902	0.000204	20.765141
2460.650367	-2.983800	2.522600	-7.525500	29.409364	0.000204	20.758727
2461.653829	-3.026100	2.515600	-7.612000	29.401838	0.000204	20.753985
2462.652785	-2.997900	2.509600	-7.522200	29.379430	0.000201	20.777394
2463.652460	-3.002100	2.504100	-7.516300	29.398520	0.000205	20.764392
2464.653079	-3.026200	2.497100	-7.555100	29.461061	0.000204	20.750616
