LabVIEW Measurement	
Writer_Version	2
Reader_Version	2
Separator	Tab
Decimal_Separator	.
Multi_Headings	No
X_Columns	One
Time_Pref	Absolute
Operator	admin
Description	Clolumns are: time, Current, Voltage, Power, Battery Temp, and Chamber Temp
Date	2024/08/16
Time	13:06:06.104549407958984375
***End_of_Header***	
	
Channels	6						
Samples	1	1	1	1	1	1	
Date	2024/08/30	2024/08/30	2024/08/30	2024/08/30	2024/08/30	2024/08/30	
Time	21:07:49.0508470535278320313	21:07:49.0562047958374023438	21:07:49.0622510910034179688	21:07:49.02169036865234375	21:07:49.02169036865234375	21:07:49.02169036865234375	
X_Dimension	Time	Time	Time	Time	Time	Time	
X0	0.0000000000000000E+0	0.0000000000000000E+0	0.0000000000000000E+0	0.0000000000000000E+0	0.0000000000000000E+0	0.0000000000000000E+0	
Delta_X	1.000000	1.000000	1.000000	1.000000	1.000000	1.000000	
***End_of_Header***							
X_Value	Untitled	Untitled 1	Untitled 2	Untitled 3	Untitled 4	Untitled 5	Comment
0.000000	0.023455	4.106600	0.096332	20.975106	0.000946	20.708168
1.001938	-3.010900	3.941900	-11.868000	20.984760	0.000944	20.713556
1.991999	-2.996000	3.935100	-11.789000	20.977648	0.000944	20.700279
2.997208	-3.001700	3.930100	-11.797000	20.989820	0.000944	20.691588
3.993172	-2.985300	3.926600	-11.721000	20.989549	0.000945	20.731624
4.990398	-2.998100	3.922600	-11.760000	20.981940	0.000943	20.713581
6.001448	-3.004400	3.919600	-11.774000	20.999554	0.000941	20.724560
7.002380	-2.992300	3.917100	-11.720000	20.991070	0.000942	20.706591
7.997926	-2.976400	3.915400	-11.652000	21.017348	0.000939	20.704424
9.001022	-3.012100	3.911400	-11.780000	21.002381	0.000939	20.710792
10.011004	-2.988600	3.910700	-11.686000	21.003624	0.000937	20.704922
11.031568	-3.011300	3.908500	-11.769000	21.010964	0.000935	20.710367
11.998939	-3.005100	3.908000	-11.743000	21.025456	0.000937	20.724863
12.998673	-3.000000	3.906200	-11.717000	21.010743	0.000936	20.719155
13.998568	-3.007400	3.904200	-11.740000	21.018647	0.000936	20.711888
15.003578	-3.003200	3.902800	-11.719000	21.024319	0.000937	20.730364
16.001578	-3.002600	3.901500	-11.714000	21.032901	0.000932	20.712394
16.999743	-2.995300	3.900600	-11.682000	21.027866	0.000932	20.727273
18.004812	-3.009500	3.901200	-11.739000	21.046754	0.000931	20.715819
18.997181	-3.025100	3.898600	-11.792000	21.052312	0.000932	20.721379
20.003664	-3.007100	3.898100	-11.721000	21.059202	0.000930	20.723529
20.998542	-3.015100	3.897100	-11.750000	21.057461	0.000930	20.730322
22.002592	-2.995900	3.897400	-11.675000	21.054771	0.000930	20.724313
23.003631	-2.999700	3.896500	-11.687000	21.063582	0.000930	20.718426
24.004453	-3.015000	3.894400	-11.740000	21.045217	0.000930	20.722816
25.003133	-2.979100	3.895000	-11.603000	21.074460	0.000929	20.740214
26.003160	-3.011300	3.893600	-11.723000	21.093643	0.000929	20.716726
27.004806	-3.006300	3.893600	-11.704000	21.078147	0.000929	20.736315
28.010583	-3.013900	3.891700	-11.729000	21.108573	0.000928	20.725497
29.001483	-3.001500	3.892600	-11.682000	21.100483	0.000926	20.710765
30.004620	-2.992900	3.892800	-11.649000	21.127780	0.000928	20.716733
31.012239	-3.007300	3.890400	-11.699000	21.115554	0.000926	20.705925
32.004062	-2.994600	3.891000	-11.651000	21.123121	0.000927	20.732462
33.012320	-3.004800	3.888800	-11.684000	21.099788	0.000925	20.716234
34.003363	-3.018000	3.888900	-11.736000	21.124838	0.000924	20.721377
35.009797	-3.025400	3.886700	-11.757000	21.129578	0.000926	20.733705
36.021286	-2.988700	3.887400	-11.617000	21.147696	0.000925	20.738553
37.007635	-3.024800	3.885200	-11.749000	21.172288	0.000925	20.729013
38.007518	-3.002800	3.888000	-11.674000	21.161000	0.000925	20.738111
39.011353	-2.984400	3.886900	-11.599000	21.152763	0.000924	20.742199
40.006898	-3.004900	3.885500	-11.675000	21.162766	0.000923	20.732765
41.008342	-2.998400	3.885500	-11.650000	21.177509	0.000923	20.724753
42.005699	-3.025500	3.883500	-11.748000	21.192579	0.000924	20.722758
43.008094	-2.978100	3.886300	-11.572000	21.167604	0.000923	20.747088
44.010418	-2.996700	3.884600	-11.639000	21.209790	0.000924	20.751356
45.012852	-3.001200	3.884000	-11.655000	21.205949	0.000921	20.735185
46.010123	-2.993900	3.882000	-11.621000	21.225259	0.000922	20.726052
47.035867	-2.999300	3.882500	-11.644000	21.210860	0.000921	20.728244
48.019484	-2.983900	3.883900	-11.588000	21.236782	0.000922	20.723829
49.012847	-3.007800	3.881300	-11.672000	21.250657	0.000921	20.737710
50.011700	-3.003900	3.881000	-11.656000	21.247634	0.000922	20.747489
51.021482	-3.001300	3.882500	-11.650000	21.253894	0.000920	20.768925
52.022099	-2.987700	3.881500	-11.596000	21.247683	0.000922	20.734735
53.012099	-3.008400	3.880200	-11.672000	21.260505	0.000923	20.732389
54.016994	-2.992800	3.879500	-11.609000	21.239152	0.000920	20.737106
55.009930	-2.999700	3.879000	-11.635000	21.249481	0.000919	20.744120
56.013868	-3.010100	3.878200	-11.672000	21.278786	0.000919	20.764903
57.012157	-3.001300	3.878600	-11.640000	21.283672	0.000917	20.741816
58.012719	-3.003300	3.877000	-11.643000	21.305973	0.000920	20.730934
59.014033	-3.012200	3.878200	-11.681000	21.325004	0.000918	20.743336
60.017456	-2.989100	3.877200	-11.588000	21.315002	0.000918	20.736649
61.015990	-2.993100	3.879100	-11.609000	21.294369	0.000917	20.749673
62.032362	-2.992300	3.879400	-11.607000	21.317519	0.000918	20.751496
63.022532	-2.999800	3.875600	-11.625000	21.348023	0.000918	20.754513
64.015851	-3.001400	3.876600	-11.634000	21.336494	0.000919	20.751513
65.019307	-3.002500	3.875800	-11.636000	21.333233	0.000918	20.751095
66.015519	-3.026400	3.875500	-11.727000	21.372961	0.000919	20.756230
67.022137	-3.002800	3.877100	-11.642000	21.370363	0.000919	20.755053
68.017641	-3.006000	3.876700	-11.652000	21.354086	0.000919	20.763424
69.026560	-2.998000	3.874300	-11.615000	21.371898	0.000917	20.765598
70.026444	-3.004500	3.875400	-11.641000	21.352035	0.000918	20.760424
71.031334	-3.005100	3.875600	-11.646000	21.363287	0.000917	20.754611
72.014472	-2.997000	3.875900	-11.615000	21.379326	0.000917	20.748847
73.021067	-2.993900	3.874000	-11.597000	21.394246	0.000917	20.767094
74.018015	-3.013700	3.873900	-11.674000	21.405342	0.000916	20.748798
75.016586	-2.991800	3.873000	-11.585000	21.406869	0.000917	20.757913
76.019485	-3.031300	3.873200	-11.740000	21.424625	0.000916	20.761927
77.023088	-2.994100	3.874500	-11.600000	21.420809	0.000914	20.769964
78.023182	-3.014700	3.873600	-11.676000	21.438964	0.000917	20.753515
79.022723	-3.020400	3.871900	-11.693000	21.443998	0.000918	20.755707
80.020759	-3.003100	3.873300	-11.631000	21.469971	0.000914	20.739968
81.030502	-3.015100	3.872900	-11.675000	21.472855	0.000917	20.759451
82.017043	-2.990200	3.871800	-11.576000	21.451114	0.000917	20.772784
83.028429	-3.007000	3.870600	-11.638000	21.474137	0.000915	20.771165
84.022636	-3.002400	3.871600	-11.623000	21.506753	0.000916	20.768239
85.024139	-3.009800	3.871000	-11.648000	21.483215	0.000917	20.782619
86.022531	-2.972700	3.871100	-11.506000	21.485878	0.000915	20.771533
87.026415	-3.000600	3.870400	-11.611000	21.505290	0.000917	20.781000
88.021067	-3.014500	3.870300	-11.666000	21.489424	0.000915	20.759434
89.021109	-2.986000	3.870400	-11.555000	21.499751	0.000915	20.769767
90.036242	-3.013200	3.870200	-11.661000	21.510453	0.000915	20.756294
91.020055	-2.987600	3.870800	-11.563000	21.530478	0.000916	20.766374
92.035162	-2.991800	3.870200	-11.578000	21.526515	0.000916	20.794178
93.023846	-2.993500	3.868600	-11.579000	21.533223	0.000917	20.765802
94.025953	-3.005800	3.870000	-11.631000	21.535887	0.000917	20.775580
95.026875	-2.992200	3.870000	-11.579000	21.557586	0.000917	20.776430
96.028976	-3.015900	3.867100	-11.661000	21.554595	0.000917	20.783869
97.027749	-2.995800	3.868800	-11.589000	21.561629	0.000916	20.776683
98.037719	-2.989900	3.869500	-11.568000	21.573149	0.000915	20.781572
99.037424	-3.008400	3.868300	-11.636000	21.594390	0.000917	20.790974
100.031382	-2.998500	3.868200	-11.597000	21.591947	0.000917	20.785210
101.023726	-3.000900	3.866900	-11.602000	21.586848	0.000916	20.784375
102.032660	-3.011900	3.865500	-11.641000	21.615923	0.000916	20.780754
103.029722	-3.024700	3.866000	-11.691000	21.605597	0.000917	20.794129
104.026523	-3.022100	3.865500	-11.681000	21.617769	0.000918	20.805835
105.032100	-2.990100	3.867400	-11.562000	21.602958	0.000917	20.771573
106.038022	-2.994400	3.866300	-11.577000	21.619093	0.000916	20.794357
107.030079	-3.007800	3.865700	-11.626000	21.631738	0.000916	20.793262
108.026554	-2.994100	3.865100	-11.571000	21.639017	0.000917	20.784424
109.035548	-2.976000	3.865300	-11.502000	21.653877	0.000917	20.773217
110.041120	-2.993900	3.865700	-11.572000	21.658917	0.000918	20.786321
111.031355	-3.015700	3.863900	-11.652000	21.658492	0.000917	20.787793
112.030696	-3.016900	3.864700	-11.658000	21.654653	0.000920	20.783950
113.034238	-3.026700	3.866500	-11.701000	21.680319	0.000920	20.782609
114.027234	-3.057800	3.862800	-11.810000	21.671187	0.000919	20.796229
115.036088	-2.963100	3.866100	-11.454000	21.703780	0.000917	20.802295
116.031575	-3.013700	3.863700	-11.642000	21.703208	0.000916	20.789395
117.033682	-2.992400	3.866100	-11.567000	21.695726	0.000919	20.794234
118.038207	-3.024300	3.862300	-11.678000	21.719545	0.000918	20.795787
119.033243	-2.995100	3.864400	-11.573000	21.737973	0.000918	20.802850
120.046593	-2.986700	3.864500	-11.541000	21.720141	0.000919	20.805393
121.036169	-2.999100	3.865000	-11.590000	21.728269	0.000919	20.813053
122.037848	-2.985200	3.863500	-11.532000	21.738847	0.000922	20.789500
123.033366	-2.977700	3.862900	-11.501000	21.748771	0.000919	20.796114
124.029176	-3.033300	3.862700	-11.715000	21.778716	0.000920	20.790522
125.031663	-2.983200	3.863500	-11.525000	21.759643	0.000921	20.823590
126.033215	-2.993900	3.862700	-11.564000	21.757071	0.000920	20.809636
127.034431	-3.012900	3.861600	-11.633000	21.773252	0.000921	20.799278
128.033354	-2.971900	3.863900	-11.482000	21.775702	0.000919	20.810265
129.033683	-2.996000	3.861800	-11.569000	21.770989	0.000921	20.812660
130.029374	-3.017900	3.861400	-11.652000	21.771691	0.000922	20.810044
131.038849	-3.002700	3.860700	-11.592000	21.770694	0.000920	20.808572
132.032815	-2.987000	3.860400	-11.530000	21.795427	0.000923	20.811989
133.031480	-3.020100	3.859600	-11.655000	21.806152	0.000920	20.797593
134.032981	-3.005300	3.861400	-11.603000	21.804036	0.000923	20.803062
135.032739	-3.037200	3.857700	-11.716000	21.805580	0.000921	20.825944
136.032185	-3.009100	3.860300	-11.615000	21.795754	0.000921	20.800937
137.031796	-2.986900	3.859700	-11.528000	21.813258	0.000921	20.808973
138.032054	-2.983800	3.861300	-11.520000	21.807107	0.000922	20.809928
139.046030	-2.996100	3.859300	-11.560000	21.815487	0.000922	20.811678
140.032636	-3.027000	3.860000	-11.683000	21.814009	0.000922	20.817311
141.029647	-3.005300	3.858900	-11.595000	21.791171	0.000923	20.800143
142.039737	-3.012600	3.859300	-11.626000	21.812131	0.000923	20.809267
143.039028	-2.997900	3.858000	-11.565000	21.805327	0.000923	20.803406
144.031562	-2.997000	3.858900	-11.564000	21.809134	0.000923	20.813380
145.034210	-2.995300	3.859400	-11.559000	21.830852	0.000924	20.803349
146.036842	-2.982600	3.858900	-11.508000	21.834502	0.000925	20.783769
147.035450	-3.016500	3.857900	-11.637000	21.873985	0.000923	20.809538
148.036638	-3.031900	3.856200	-11.690000	21.854808	0.000925	20.786550
149.045640	-2.976000	3.859500	-11.485000	21.886031	0.000924	20.780818
150.033657	-3.014200	3.857900	-11.627000	21.874009	0.000925	20.805769
151.034311	-2.981700	3.858100	-11.502000	21.900210	0.000925	20.816348
152.052745	-3.004500	3.858100	-11.591000	21.917158	0.000924	20.784948
153.042331	-3.002600	3.857400	-11.581000	21.892796	0.000925	20.807029
154.035090	-3.027000	3.855600	-11.669000	21.911074	0.000923	20.798772
155.050929	-3.013400	3.855300	-11.616000	21.913214	0.000926	20.789060
156.046021	-2.973600	3.857600	-11.470000	21.916154	0.000926	20.792004
157.043920	-2.998900	3.856200	-11.563000	21.934979	0.000928	20.799467
158.040636	-2.995600	3.855000	-11.547000	21.924354	0.000927	20.775555
159.049985	-2.999900	3.854700	-11.562000	21.970905	0.000927	20.773315
160.047003	-2.991300	3.856200	-11.535000	21.971975	0.000927	20.764903
161.048049	-3.010400	3.855200	-11.604000	21.961203	0.000927	20.771190
162.034679	-3.000400	3.856900	-11.571000	21.971771	0.000928	20.791252
163.042845	-3.001800	3.855000	-11.571000	22.019800	0.000930	20.789070
164.048566	-3.007200	3.853600	-11.587000	21.998640	0.000929	20.762198
165.045068	-2.987400	3.854200	-11.513000	22.000036	0.000929	20.794890
166.041755	-3.001300	3.855300	-11.569000	21.993977	0.000930	20.781712
167.044314	-2.990800	3.853600	-11.525000	22.001008	0.000930	20.800604
168.045768	-3.031500	3.852600	-11.678000	22.012980	0.000929	20.792200
169.043182	-2.997600	3.853200	-11.549000	22.015463	0.000930	20.787100
170.050463	-2.995000	3.853600	-11.541000	22.029101	0.000931	20.778941
171.047361	-2.996800	3.853700	-11.548000	22.021319	0.000932	20.773995
172.047810	-2.990200	3.854200	-11.524000	22.029542	0.000931	20.772270
173.048591	-3.012300	3.852100	-11.602000	22.043931	0.000931	20.801373
174.048558	-2.988400	3.852700	-11.512000	22.001703	0.000933	20.761944
175.052892	-3.007000	3.851300	-11.580000	22.008604	0.000933	20.799199
176.048093	-2.972000	3.852600	-11.447000	22.029974	0.000934	20.761797
177.048620	-3.014200	3.851100	-11.607000	22.026659	0.000934	20.777444
178.044697	-2.997000	3.851100	-11.541000	22.040942	0.000934	20.786527
179.046876	-2.994400	3.851800	-11.533000	22.065041	0.000936	20.756124
180.046608	-2.998200	3.852500	-11.549000	22.079527	0.000935	20.766833
181.047557	-3.010600	3.851200	-11.594000	22.075510	0.000937	20.792684
182.054321	-2.980700	3.852100	-11.481000	22.086901	0.000937	20.769000
183.055325	-2.970000	3.853000	-11.441000	22.077208	0.000935	20.771150
184.047977	-2.986000	3.850700	-11.496000	22.069026	0.000938	20.791409
185.053388	-3.021100	3.849700	-11.629000	22.070307	0.000938	20.785579
186.054556	-2.996500	3.850000	-11.536000	22.097949	0.000936	20.773897
187.050143	-2.985600	3.849500	-11.492000	22.097174	0.000936	20.766482
188.049479	-2.983900	3.851400	-11.491000	22.131445	0.000939	20.758593
189.050411	-3.015600	3.849300	-11.606000	22.126709	0.000939	20.751481
190.051591	-3.004000	3.849400	-11.562000	22.127583	0.000937	20.763735
191.086023	-3.001000	3.849900	-11.553000	22.129625	0.000938	20.759141
192.048545	-2.994900	3.850900	-11.533000	22.135438	0.000940	20.761168
193.053239	-3.009000	3.848900	-11.580000	22.131723	0.000938	20.754129
194.045083	-2.990300	3.848600	-11.507000	22.117065	0.000939	20.747041
195.051426	-2.986900	3.849000	-11.495000	22.148046	0.000938	20.767153
196.054676	-3.007300	3.849300	-11.574000	22.118233	0.000942	20.762910
197.060830	-3.015500	3.847100	-11.599000	22.110908	0.000941	20.750360
198.048968	-2.984400	3.849000	-11.485000	22.128253	0.000940	20.763458
199.051311	-2.988200	3.847400	-11.495000	22.128849	0.000943	20.775909
200.050675	-2.970100	3.848200	-11.428000	22.135259	0.000944	20.744867
201.050860	-3.009000	3.847000	-11.575000	22.144640	0.000942	20.729602
202.065481	-3.012800	3.845800	-11.586000	22.129698	0.000943	20.744041
203.063135	-3.001300	3.847300	-11.546000	22.119924	0.000943	20.728091
204.060675	-2.998600	3.846400	-11.533000	22.143685	0.000945	20.760890
205.049036	-3.000800	3.846000	-11.540000	22.127453	0.000944	20.744638
206.054874	-3.008000	3.845100	-11.565000	22.151484	0.000945	20.738825
207.056453	-2.995200	3.847500	-11.523000	22.172616	0.000948	20.760458
208.066087	-2.991500	3.846300	-11.505000	22.176282	0.000946	20.754645
209.055492	-2.984200	3.846800	-11.479000	22.208004	0.000946	20.744680
210.060239	-2.992000	3.847100	-11.508000	22.210699	0.000946	20.741213
211.051550	-2.998000	3.846200	-11.531000	22.204314	0.000947	20.751417
212.064451	-2.979200	3.845600	-11.455000	22.238362	0.000948	20.736194
213.058682	-3.009500	3.845200	-11.572000	22.240460	0.000947	20.724543
214.052794	-2.997900	3.844900	-11.525000	22.231953	0.000948	20.730725
215.054416	-3.017000	3.845600	-11.601000	22.259208	0.000949	20.766076
216.061506	-3.010500	3.844100	-11.571000	22.261730	0.000949	20.751532
217.058829	-3.007400	3.843300	-11.558000	22.283358	0.000951	20.765602
218.055824	-3.011200	3.843500	-11.573000	22.308309	0.000950	20.754075
219.055346	-3.009500	3.842700	-11.563000	22.299729	0.000949	20.738370
220.055567	-3.005700	3.843200	-11.551000	22.299280	0.000951	20.751198
221.064428	-3.017900	3.842500	-11.595000	22.298161	0.000949	20.741542
222.062625	-2.997900	3.843200	-11.521000	22.269903	0.000950	20.740749
223.053315	-2.990200	3.845000	-11.496000	22.295614	0.000951	20.739940
224.059930	-3.029200	3.842200	-11.637000	22.297214	0.000951	20.751026
225.057627	-3.013200	3.843300	-11.580000	22.262172	0.000950	20.751974
226.074703	-3.000500	3.843000	-11.530000	22.290780	0.000954	20.756912
227.056616	-2.995900	3.841000	-11.505000	22.288437	0.000952	20.747454
228.063793	-2.986000	3.841200	-11.469000	22.288805	0.000954	20.742132
229.074497	-3.003000	3.841900	-11.536000	22.307403	0.000954	20.746530
230.077235	-3.006600	3.840800	-11.545000	22.299304	0.000954	20.751222
231.056710	-2.995600	3.842500	-11.510000	22.311901	0.000957	20.747240
232.054049	-3.015000	3.841200	-11.580000	22.335994	0.000955	20.735803
233.068375	-3.008400	3.841300	-11.555000	22.351424	0.000956	20.726597
234.058524	-2.991600	3.841700	-11.491000	22.352599	0.000955	20.731093
235.064248	-2.990600	3.841200	-11.486000	22.372984	0.000956	20.742498
236.059790	-3.006900	3.839700	-11.544000	22.395835	0.000957	20.735034
237.053170	-3.001500	3.840200	-11.525000	22.394976	0.000957	20.727062
238.054454	-2.991200	3.838300	-11.479000	22.430031	0.000958	20.739407
239.065348	-3.004000	3.838300	-11.529000	22.420790	0.000959	20.751490
240.067880	-2.999600	3.839500	-11.516000	22.411271	0.000956	20.726784
241.059002	-2.992000	3.838800	-11.484000	22.425475	0.000959	20.733897
242.067820	-2.989800	3.838900	-11.476000	22.431385	0.000959	20.729383
243.060245	-3.023900	3.836300	-11.600000	22.437141	0.000960	20.723293
244.064772	-2.990200	3.839100	-11.478000	22.441206	0.000961	20.739693
245.060539	-2.991200	3.838200	-11.480000	22.440129	0.000961	20.731027
246.059751	-3.000700	3.837400	-11.513000	22.424928	0.000960	20.736194
247.062836	-2.994300	3.838500	-11.492000	22.423434	0.000962	20.718575
248.062330	-3.007400	3.837100	-11.539000	22.426700	0.000962	20.716155
249.061441	-2.998200	3.837200	-11.504000	22.465507	0.000964	20.706655
250.069766	-2.993000	3.838200	-11.487000	22.446340	0.000965	20.732506
251.071435	-2.961500	3.838500	-11.366000	22.435924	0.000963	20.728713
252.065437	-2.998400	3.836400	-11.502000	22.440757	0.000966	20.702257
253.066258	-2.991400	3.837400	-11.478000	22.434030	0.000965	20.732506
254.060133	-3.009200	3.833900	-11.536000	22.448438	0.000965	20.717536
255.068587	-2.984300	3.836900	-11.450000	22.448985	0.000964	20.713817
256.062596	-2.991700	3.837000	-11.478000	22.479385	0.000966	20.713915
257.067775	-3.008500	3.834200	-11.534000	22.475833	0.000967	20.712728
258.062687	-2.998000	3.835300	-11.497000	22.495637	0.000965	20.736356
259.065219	-2.997800	3.836700	-11.501000	22.483670	0.000967	20.719630
260.064588	-3.000900	3.834700	-11.507000	22.535153	0.000967	20.723774
261.069464	-3.006000	3.834800	-11.527000	22.530745	0.000967	20.707979
262.070006	-2.997300	3.834400	-11.491000	22.509759	0.000969	20.713988
263.075185	-2.992600	3.835300	-11.476000	22.528035	0.000968	20.711428
264.068884	-3.009800	3.834200	-11.539000	22.545225	0.000970	20.699721
265.080279	-2.981200	3.834900	-11.432000	22.555420	0.000968	20.719890
266.067625	-3.005500	3.833200	-11.519000	22.551650	0.000972	20.720856
267.064175	-2.985300	3.834200	-11.443000	22.556458	0.000969	20.716662
268.079940	-2.974600	3.835000	-11.406000	22.565902	0.000971	20.729440
269.068408	-3.008500	3.833300	-11.532000	22.542728	0.000971	20.718084
270.072343	-2.960400	3.834500	-11.350000	22.523072	0.000971	20.719261
271.068866	-2.990500	3.832800	-11.461000	22.534680	0.000975	20.718558
272.067904	-2.992400	3.834200	-11.472000	22.544573	0.000973	20.717087
273.072708	-2.992800	3.833800	-11.473000	22.534884	0.000973	20.692682
274.075850	-2.989800	3.832600	-11.458000	22.540410	0.000975	20.712917
275.072381	-2.992100	3.832400	-11.466000	22.552148	0.000976	20.701438
276.079228	-3.004500	3.831200	-11.510000	22.529791	0.000975	20.706549
277.077965	-2.998800	3.830700	-11.485000	22.554719	0.000976	20.715868
278.069259	-3.005100	3.831400	-11.512000	22.530721	0.000977	20.713645
279.070599	-3.029400	3.829400	-11.600000	22.570310	0.000977	20.719630
280.070267	-3.004500	3.830400	-11.506000	22.568938	0.000978	20.704031
281.069470	-3.015000	3.830500	-11.548000	22.574023	0.000978	20.698217
282.083024	-3.010500	3.829600	-11.528000	22.579770	0.000979	20.717251
283.069046	-3.001200	3.830600	-11.495000	22.575387	0.000979	20.707645
284.070590	-3.009300	3.830400	-11.526000	22.563184	0.000976	20.711070
285.069086	-2.996900	3.830100	-11.477000	22.585957	0.000980	20.704480
286.072982	-3.013500	3.828600	-11.536000	22.585003	0.000980	20.714431
287.076654	-2.977000	3.830100	-11.400000	22.559789	0.000983	20.702453
288.086290	-2.982600	3.828500	-11.417000	22.566409	0.000981	20.693436
289.075601	-2.979000	3.830700	-11.409000	22.602715	0.000980	20.723162
290.075090	-2.991300	3.828500	-11.450000	22.593671	0.000983	20.701775
291.070563	-3.010500	3.827800	-11.522000	22.609988	0.000982	20.695357
292.080591	-3.010500	3.827500	-11.522000	22.617611	0.000982	20.684500
293.078908	-2.986000	3.827300	-11.427000	22.637641	0.000983	20.697451
294.069878	-2.987400	3.828000	-11.435000	22.633707	0.000982	20.701097
295.083805	-3.000200	3.826800	-11.481000	22.666125	0.000981	20.693738
296.075266	-3.009800	3.825400	-11.512000	22.682163	0.000985	20.691311
297.075017	-3.007500	3.825800	-11.505000	22.693696	0.000984	20.700966
298.077830	-2.972600	3.828600	-11.378000	22.700208	0.000986	20.690893
299.073057	-2.999700	3.826200	-11.476000	22.669431	0.000986	20.699421
300.077497	-2.999700	3.825600	-11.474000	22.668884	0.000986	20.692709
301.076679	-3.010200	3.824300	-11.510000	22.679796	0.000987	20.691311
302.075287	-3.005000	3.826600	-11.498000	22.657270	0.000986	20.689610
303.078359	-3.029500	3.826200	-11.590000	22.681283	0.000988	20.683316
304.087330	-3.047200	3.823700	-11.651000	22.641151	0.000989	20.694802
305.084362	-3.002500	3.826400	-11.487000	22.648529	0.000988	20.696028
306.080119	-3.014500	3.823800	-11.526000	22.641045	0.000989	20.690903
307.080724	-3.017500	3.823700	-11.536000	22.651958	0.000989	20.700411
308.086449	-2.987800	3.824300	-11.424000	22.650341	0.000989	20.697369
309.076895	-2.994900	3.824400	-11.452000	22.680140	0.000990	20.671738
310.080546	-2.999600	3.823300	-11.467000	22.702363	0.000990	20.700165
311.097651	-3.007900	3.822500	-11.496000	22.695915	0.000990	20.689438
312.084975	-2.997900	3.822600	-11.459000	22.703065	0.000992	20.677633
313.082556	-3.011900	3.823000	-11.513000	22.712851	0.000993	20.681746
314.087944	-2.971300	3.823800	-11.361000	22.673782	0.000991	20.707099
315.088435	-2.978800	3.822700	-11.386000	22.736592	0.000992	20.675180
316.081847	-2.991000	3.822700	-11.433000	22.753910	0.000994	20.693952
317.083703	-3.004000	3.822200	-11.481000	22.762374	0.000994	20.682515
318.080866	-2.979100	3.822300	-11.386000	22.778222	0.000994	20.683691
319.083353	-2.970100	3.822100	-11.351000	22.768331	0.000995	20.683266
320.098426	-3.003600	3.821500	-11.477000	22.771563	0.000995	20.675124
321.079873	-3.013100	3.820000	-11.509000	22.788701	0.000994	20.685655
322.086561	-3.001700	3.821900	-11.472000	22.813559	0.000994	20.680684
323.095758	-2.990300	3.821100	-11.425000	22.799637	0.000997	20.690446
324.082246	-3.001800	3.820500	-11.468000	22.832418	0.000996	20.687723
325.082977	-3.013400	3.819900	-11.510000	22.839371	0.000997	20.698957
326.079644	-2.994400	3.820200	-11.436000	22.839322	0.001000	20.677569
327.085829	-2.997900	3.819700	-11.450000	22.859070	0.000997	20.678387
328.089585	-2.995000	3.818600	-11.436000	22.861608	0.000997	20.674765
329.087797	-3.008000	3.818800	-11.486000	22.888782	0.000998	20.671642
330.083612	-2.966600	3.819600	-11.330000	22.880466	0.001001	20.688443
331.092603	-3.022400	3.817500	-11.536000	22.887338	0.000999	20.682050
332.084793	-2.984900	3.820300	-11.403000	22.847630	0.001001	20.683522
333.082341	-3.023800	3.818100	-11.543000	22.854877	0.001002	20.671340
334.082266	-3.010400	3.817200	-11.489000	22.838213	0.001000	20.679303
335.084012	-3.000900	3.817800	-11.455000	22.819330	0.001000	20.675559
336.083994	-3.000700	3.818100	-11.456000	22.822292	0.001003	20.687536
337.084934	-3.009600	3.817300	-11.487000	22.821240	0.001004	20.677947
338.094449	-2.994900	3.817200	-11.430000	22.839871	0.001003	20.684758
339.091889	-3.000100	3.817600	-11.452000	22.815430	0.001003	20.682084
340.087802	-2.992800	3.817300	-11.423000	22.821755	0.001005	20.662340
341.096744	-2.995100	3.815900	-11.428000	22.839839	0.001006	20.660541
342.093923	-2.984600	3.817200	-11.393000	22.821730	0.001004	20.657099
343.107213	-3.018900	3.815900	-11.519000	22.843846	0.001007	20.668824
344.087899	-3.002100	3.815100	-11.452000	22.856446	0.001007	20.660109
345.093024	-3.005600	3.816700	-11.471000	22.881800	0.001009	20.674131
346.088534	-2.968000	3.815100	-11.322000	22.885888	0.001006	20.657362
347.087059	-3.005200	3.813800	-11.459000	22.903417	0.001008	20.675399
348.099145	-3.006300	3.814200	-11.465000	22.904967	0.001008	20.671261
349.102054	-3.019800	3.814000	-11.516000	22.912205	0.001008	20.678040
350.088734	-3.016900	3.813800	-11.505000	22.916865	0.001008	20.655679
351.099808	-3.008500	3.814000	-11.473000	22.913959	0.001009	20.690703
352.089025	-3.024100	3.812600	-11.527000	22.929562	0.001011	20.661762
353.094823	-3.031600	3.811900	-11.554000	22.940920	0.001010	20.685472
354.091013	-3.026200	3.813100	-11.537000	22.943090	0.001010	20.654927
355.090458	-2.998300	3.812800	-11.431000	22.941842	0.001013	20.666480
356.095423	-3.015400	3.813000	-11.495000	22.928640	0.001012	20.660364
357.090159	-3.010900	3.812400	-11.478000	22.921713	0.001011	20.649155
358.096369	-3.008400	3.811100	-11.464000	22.909611	0.001012	20.670698
359.092347	-2.980500	3.810900	-11.355000	22.876849	0.001010	20.665376
360.091637	-2.997700	3.812000	-11.427000	22.891545	0.001012	20.661607
361.094505	-2.988000	3.812300	-11.390000	22.907066	0.001013	20.663406
362.095108	-2.989700	3.812500	-11.398000	22.904846	0.001013	20.656914
363.098816	-3.002700	3.811000	-11.442000	22.913096	0.001012	20.654273
364.095941	-2.972900	3.812900	-11.334000	22.945940	0.001014	20.653514
365.105547	-3.005400	3.811800	-11.455000	22.948372	0.001013	20.640302
366.099135	-3.011800	3.809700	-11.473000	22.932966	0.001014	20.651895
367.100948	-3.028500	3.808200	-11.531000	22.939135	0.001015	20.664241
368.095632	-3.006400	3.810100	-11.453000	22.934280	0.001017	20.675499
369.100248	-3.006500	3.809200	-11.451000	22.945035	0.001016	20.658772
370.097778	-3.019600	3.808500	-11.499000	22.961648	0.001017	20.638430
371.102089	-2.999100	3.809500	-11.424000	22.980056	0.001017	20.643123
372.098315	-2.988200	3.810500	-11.385000	23.003343	0.001016	20.656499
373.100469	-2.999700	3.809400	-11.427000	23.010066	0.001018	20.634309
374.113798	-2.997200	3.809100	-11.416000	23.001965	0.001019	20.672190
375.100768	-3.002800	3.808600	-11.436000	22.984381	0.001019	20.665477
376.100960	-3.006200	3.807700	-11.446000	22.972256	0.001018	20.666605
377.107692	-2.995300	3.807300	-11.402000	22.980318	0.001018	20.641963
378.104339	-3.007400	3.807900	-11.451000	22.951001	0.001020	20.646730
379.099852	-2.984600	3.806900	-11.361000	22.964375	0.001022	20.653966
380.100499	-2.998700	3.806500	-11.414000	22.986291	0.001018	20.647000
381.104395	-3.004000	3.806500	-11.433000	22.996180	0.001023	20.658806
382.107752	-2.971100	3.806600	-11.308000	23.024974	0.001021	20.657310
383.104789	-3.001100	3.806700	-11.424000	23.028034	0.001018	20.666067
384.100783	-3.003200	3.805400	-11.428000	23.033558	0.001020	20.665438
385.105154	-3.005600	3.805800	-11.438000	23.045592	0.001022	20.646673
386.103021	-2.989100	3.806800	-11.377000	23.042998	0.001022	20.644074
387.107023	-3.007900	3.803900	-11.441000	23.010598	0.001021	20.645275
388.112858	-3.001200	3.805500	-11.420000	22.998490	0.001024	20.649265
389.103763	-2.985700	3.804200	-11.357000	23.028009	0.001023	20.662249
390.104066	-2.979100	3.804700	-11.333000	23.010949	0.001024	20.653214
391.111000	-3.021500	3.802500	-11.489000	23.026369	0.001024	20.653017
392.108929	-3.010700	3.804400	-11.453000	23.048750	0.001023	20.659322
393.109181	-2.995700	3.801900	-11.388000	23.056957	0.001024	20.658062
394.108367	-2.996300	3.802400	-11.392000	23.053188	0.001026	20.652863
395.110091	-2.989800	3.803100	-11.368000	23.066698	0.001026	20.652649
396.115655	-3.028800	3.801800	-11.513000	23.076358	0.001027	20.654742
397.104554	-3.002100	3.802500	-11.415000	23.076383	0.001026	20.654293
398.110311	-3.000200	3.802800	-11.408000	23.105248	0.001027	20.666622
399.112900	-3.005100	3.800300	-11.419000	23.097733	0.001026	20.658143
400.110103	-2.992800	3.801600	-11.376000	23.089566	0.001029	20.653752
401.113571	-2.993800	3.801300	-11.380000	23.102654	0.001028	20.644106
402.109887	-3.001900	3.801400	-11.410000	23.102000	0.001029	20.651985
403.109601	-2.992900	3.800500	-11.373000	23.110240	0.001026	20.659769
404.114540	-2.990400	3.798400	-11.358000	23.104969	0.001030	20.648322
405.113894	-2.977100	3.800900	-11.314000	23.119427	0.001031	20.650956
406.121815	-3.012700	3.798700	-11.444000	23.139308	0.001029	20.642902
407.113927	-2.999700	3.798600	-11.393000	23.129045	0.001029	20.671027
408.121527	-3.010800	3.799600	-11.439000	23.141053	0.001028	20.668362
409.111764	-2.994400	3.798000	-11.371000	23.149848	0.001029	20.649197
410.112979	-2.995900	3.798100	-11.377000	23.145680	0.001029	20.648339
411.118896	-3.018100	3.797400	-11.459000	23.166426	0.001031	20.667234
412.114691	-2.980200	3.798800	-11.319000	23.173001	0.001033	20.656752
413.113532	-3.011200	3.796200	-11.430000	23.172332	0.001031	20.660349
414.117092	-3.009000	3.797800	-11.426000	23.188843	0.001029	20.687330
415.113555	-2.989900	3.797400	-11.352000	23.220716	0.001033	20.675647
416.115520	-2.968100	3.797800	-11.271000	23.232422	0.001033	20.654659
417.126013	-3.004000	3.796000	-11.402000	23.234038	0.001032	20.674772
418.134408	-3.004600	3.795600	-11.402000	23.237350	0.001033	20.668133
419.129706	-2.999900	3.795100	-11.384000	23.200452	0.001032	20.669089
420.120462	-3.020000	3.794300	-11.458000	23.224509	0.001032	20.635346
421.119115	-3.000800	3.794900	-11.386000	23.245131	0.001033	20.674035
422.126508	-2.995200	3.795100	-11.366000	23.245979	0.001033	20.659710
423.133440	-3.002200	3.794900	-11.392000	23.244616	0.001034	20.667354
424.131481	-2.990800	3.794700	-11.348000	23.272547	0.001034	20.634651
425.117503	-2.994200	3.795100	-11.361000	23.261845	0.001034	20.653325
426.127266	-3.005500	3.793200	-11.399000	23.271118	0.001035	20.676846
427.121443	-3.016700	3.793100	-11.442000	23.282718	0.001036	20.667607
428.127112	-3.004700	3.793200	-11.396000	23.280605	0.001038	20.665489
429.126413	-3.001900	3.793600	-11.386000	23.293379	0.001035	20.659325
430.133142	-2.995400	3.792900	-11.360000	23.291838	0.001036	20.653986
431.121768	-3.012400	3.792600	-11.424000	23.311340	0.001036	20.644133
432.123778	-2.980400	3.792200	-11.301000	23.319709	0.001036	20.675757
433.123487	-3.019400	3.790300	-11.444000	23.319131	0.001037	20.673755
434.122217	-2.988500	3.792500	-11.333000	23.323715	0.001036	20.673608
435.123989	-3.018100	3.791000	-11.441000	23.322131	0.001038	20.672020
436.130518	-3.007300	3.790900	-11.399000	23.342148	0.001039	20.685445
437.121881	-2.990700	3.791000	-11.336000	23.351471	0.001037	20.650688
438.121366	-2.990700	3.792300	-11.339000	23.338371	0.001038	20.657001
439.125897	-2.995200	3.791100	-11.354000	23.344749	0.001037	20.675723
440.125535	-3.010200	3.790100	-11.409000	23.326642	0.001038	20.673696
441.126882	-3.001300	3.790700	-11.375000	23.318516	0.001039	20.668871
442.124131	-2.983400	3.788300	-11.300000	23.318761	0.001039	20.659632
443.128849	-2.999100	3.789200	-11.363000	23.308433	0.001041	20.655445
444.135958	-3.004700	3.788500	-11.382000	23.325490	0.001041	20.670645
445.123816	-2.994400	3.789700	-11.347000	23.347473	0.001039	20.655217
446.140251	-2.973700	3.790000	-11.269000	23.344813	0.001039	20.680529
447.123301	-3.021500	3.788600	-11.446000	23.357692	0.001039	20.678264
448.128646	-2.979600	3.789100	-11.289000	23.344095	0.001040	20.682654
449.139159	-3.000800	3.786100	-11.360000	23.362244	0.001042	20.646787
450.126960	-3.007400	3.786700	-11.387000	23.387047	0.001040	20.660269
451.125087	-3.010000	3.787800	-11.400000	23.387994	0.001040	20.668804
452.125490	-2.995500	3.786800	-11.341000	23.424272	0.001043	20.663441
453.133323	-3.008100	3.786300	-11.389000	23.427062	0.001043	20.683308
454.125828	-3.003500	3.787600	-11.375000	23.422307	0.001041	20.684232
455.134021	-3.007900	3.786300	-11.387000	23.453805	0.001044	20.674077
456.126974	-2.990800	3.786100	-11.323000	23.437273	0.001043	20.677895
457.133114	-3.002700	3.787000	-11.370000	23.455558	0.001044	20.691957
458.126380	-2.988600	3.785600	-11.313000	23.438048	0.001043	20.669188
459.131684	-3.008500	3.783300	-11.380000	23.436579	0.001044	20.674829
460.138151	-2.989100	3.785100	-11.312000	23.441856	0.001045	20.667315
461.131385	-2.984300	3.785600	-11.295000	23.445241	0.001044	20.665018
462.127919	-3.015400	3.782600	-11.405000	23.417250	0.001044	20.684379
463.135690	-2.993100	3.782800	-11.322000	23.421344	0.001045	20.661927
464.133558	-2.982500	3.784000	-11.284000	23.423513	0.001045	20.677379
465.129579	-2.992300	3.782900	-11.319000	23.433422	0.001045	20.689684
466.144703	-2.994900	3.783500	-11.330000	23.448830	0.001047	20.698016
467.140918	-3.014900	3.781700	-11.401000	23.447925	0.001046	20.668657
468.132270	-3.001100	3.782200	-11.350000	23.479962	0.001046	20.678959
469.140688	-3.008900	3.781800	-11.378000	23.430072	0.001046	20.679212
470.138556	-3.010600	3.781400	-11.383000	23.436743	0.001045	20.679261
471.131975	-3.003900	3.782200	-11.360000	23.448587	0.001046	20.696824
472.133550	-3.000400	3.780900	-11.342000	23.449761	0.001047	20.687094
473.139074	-3.005300	3.780300	-11.359000	23.457925	0.001049	20.683898
474.135279	-2.994800	3.781300	-11.323000	23.475143	0.001048	20.692622
475.136523	-3.007500	3.779800	-11.366000	23.470332	0.001048	20.683531
476.135763	-2.989900	3.779900	-11.301000	23.467697	0.001049	20.687529
477.144008	-3.010500	3.779300	-11.376000	23.480168	0.001047	20.691969
478.130748	-3.018500	3.778800	-11.404000	23.516608	0.001046	20.701470
479.131220	-2.997400	3.778200	-11.323000	23.530497	0.001047	20.684096
480.144280	-2.996400	3.779300	-11.323000	23.500974	0.001048	20.696703
481.133868	-2.997800	3.778600	-11.326000	23.509032	0.001047	20.689607
482.135029	-2.998800	3.777400	-11.326000	23.514113	0.001050	20.713194
483.144249	-3.001900	3.777000	-11.336000	23.528181	0.001048	20.693155
484.142554	-2.990300	3.777900	-11.296000	23.529894	0.001048	20.682544
485.133431	-2.987500	3.778000	-11.285000	23.524120	0.001050	20.683868
486.137893	-3.012600	3.777300	-11.378000	23.514358	0.001049	20.692575
487.136525	-3.007300	3.775200	-11.351000	23.517539	0.001050	20.708094
488.147192	-3.003400	3.776000	-11.340000	23.540195	0.001048	20.692396
489.142230	-3.010900	3.775200	-11.365000	23.547020	0.001051	20.702558
490.139724	-3.015200	3.774600	-11.379000	23.542013	0.001049	20.706074
491.140120	-3.020700	3.773700	-11.397000	23.541092	0.001050	20.718902
492.143838	-2.994300	3.776300	-11.306000	23.529894	0.001049	20.678276
493.149932	-3.000400	3.774400	-11.325000	23.533474	0.001049	20.724069
494.137372	-3.010100	3.773800	-11.358000	23.504392	0.001049	20.698234
495.148348	-3.036700	3.773500	-11.457000	23.499165	0.001049	20.709590
496.145164	-2.995000	3.774200	-11.302000	23.512956	0.001050	20.706344
497.147811	-3.007800	3.772900	-11.347000	23.536386	0.001052	20.709917
498.141078	-2.995700	3.773300	-11.302000	23.558985	0.001050	20.701276
499.152538	-3.027200	3.773500	-11.422000	23.578231	0.001051	20.693541
500.144903	-2.995000	3.773300	-11.300000	23.596807	0.001050	20.713113
501.141296	-2.993300	3.772600	-11.292000	23.609252	0.001052	20.695241
502.156716	-3.001500	3.772000	-11.321000	23.574447	0.001050	20.708715
503.147573	-3.015200	3.771000	-11.369000	23.590707	0.001053	20.705101
504.149751	-2.979600	3.771400	-11.237000	23.577351	0.001050	20.696453
505.150294	-2.996400	3.771900	-11.301000	23.600983	0.001053	20.717774
506.147806	-2.962100	3.771900	-11.172000	23.601375	0.001055	20.722435
507.143875	-3.003000	3.771900	-11.326000	23.643021	0.001052	20.710130
508.154427	-2.975600	3.772400	-11.223000	23.605036	0.001054	20.717096
509.149734	-3.022300	3.770000	-11.393000	23.618378	0.001051	20.693485
510.146169	-3.007600	3.769500	-11.336000	23.606921	0.001051	20.702863
511.144747	-2.986300	3.769600	-11.256000	23.607191	0.001054	20.695546
512.147098	-3.007900	3.769500	-11.337000	23.626239	0.001053	20.705160
513.156503	-3.000700	3.768900	-11.309000	23.635422	0.001052	20.730014
514.142547	-2.999100	3.767900	-11.297000	23.668154	0.001054	20.722051
515.146902	-2.976300	3.770300	-11.221000	23.667566	0.001052	20.697752
516.152382	-3.020000	3.768200	-11.379000	23.665562	0.001053	20.734152
517.149574	-2.972800	3.768600	-11.201000	23.681201	0.001053	20.714268
518.154800	-2.999100	3.768500	-11.300000	23.667804	0.001054	20.708423
519.152427	-2.998200	3.767500	-11.294000	23.661361	0.001054	20.718560
520.147691	-2.991100	3.768500	-11.271000	23.652326	0.001053	20.735107
521.149903	-2.989300	3.766800	-11.259000	23.664175	0.001054	20.702413
522.151295	-2.988100	3.767000	-11.256000	23.615263	0.001054	20.718339
523.152324	-2.974100	3.766800	-11.202000	23.633187	0.001056	20.713548
524.152808	-3.029500	3.764800	-11.403000	23.615890	0.001054	20.712329
525.166259	-2.994300	3.766200	-11.276000	23.607426	0.001055	20.718543
526.151379	-2.991100	3.764600	-11.259000	23.624054	0.001054	20.738532
527.151911	-2.992800	3.763700	-11.263000	23.663278	0.001055	20.718585
528.168738	-2.989400	3.764300	-11.251000	23.660766	0.001054	20.702789
529.155798	-2.965100	3.763800	-11.158000	23.691108	0.001056	20.708553
530.161056	-3.000400	3.763800	-11.292000	23.666351	0.001054	20.715975
531.151517	-2.987200	3.764700	-11.245000	23.683597	0.001056	20.712403
532.155360	-2.994300	3.763100	-11.266000	23.708492	0.001054	20.726457
533.165042	-3.017100	3.762400	-11.350000	23.713368	0.001056	20.743200
534.160283	-2.983800	3.762900	-11.227000	23.735400	0.001057	20.725933
535.159768	-2.998200	3.764200	-11.285000	23.731837	0.001055	20.731845
536.156532	-2.968300	3.763200	-11.169000	23.759943	0.001055	20.718297
537.166588	-2.984100	3.762100	-11.225000	23.742746	0.001055	20.735196
538.158790	-3.014000	3.761400	-11.335000	23.763383	0.001055	20.735024
539.167583	-2.994600	3.761800	-11.264000	23.775671	0.001057	20.724584
540.154663	-3.004500	3.761300	-11.299000	23.783735	0.001056	20.738360
541.158925	-2.985000	3.761300	-11.227000	23.778362	0.001056	20.734395
542.163064	-3.006900	3.761400	-11.309000	23.800132	0.001055	20.726351
543.173450	-2.999100	3.761100	-11.278000	23.799985	0.001057	20.755602
544.170146	-3.002800	3.761400	-11.294000	23.809818	0.001056	20.746969
545.164485	-2.993800	3.760900	-11.258000	23.778411	0.001058	20.735392
546.164382	-2.988000	3.760300	-11.235000	23.809769	0.001057	20.726056
547.168297	-2.993000	3.758600	-11.248000	23.792345	0.001057	20.729449
548.160167	-3.009800	3.758400	-11.311000	23.810462	0.001056	20.743348
549.163045	-3.006100	3.757500	-11.294000	23.789231	0.001060	20.745293
550.167027	-3.005700	3.758500	-11.296000	23.806574	0.001056	20.742294
551.157800	-2.998800	3.757500	-11.267000	23.807902	0.001057	20.751212
552.171784	-3.009900	3.758100	-11.310000	23.813471	0.001059	20.748736
553.160762	-3.009300	3.758000	-11.308000	23.838657	0.001058	20.739849
554.179911	-3.014000	3.756700	-11.322000	23.854188	0.001058	20.749733
555.169895	-2.999000	3.755400	-11.262000	23.855754	0.001057	20.750355
556.158992	-3.003400	3.756800	-11.283000	23.855053	0.001058	20.737323
557.168753	-3.005200	3.755600	-11.285000	23.813366	0.001056	20.747682
558.167846	-3.004000	3.755900	-11.282000	23.796741	0.001056	20.772265
559.182004	-2.999200	3.755800	-11.263000	23.814140	0.001057	20.742294
560.169975	-2.984800	3.755100	-11.207000	23.828841	0.001055	20.746129
561.166729	-3.023300	3.754200	-11.349000	23.845140	0.001058	20.760575
562.168593	-3.009300	3.754000	-11.295000	23.859855	0.001056	20.764425
563.166787	-2.997800	3.754700	-11.255000	23.860507	0.001056	20.747060
564.162985	-3.018000	3.752700	-11.324000	23.883401	0.001056	20.749627
565.172401	-2.997500	3.753200	-11.249000	23.893779	0.001056	20.765250
566.183406	-3.003500	3.752900	-11.271000	23.904223	0.001056	20.767663
567.161950	-2.987000	3.753500	-11.210000	23.915800	0.001057	20.743235
568.165544	-3.019300	3.752300	-11.329000	23.901940	0.001056	20.775331
569.167456	-3.011100	3.753000	-11.300000	23.938993	0.001055	20.742785
570.170628	-2.998900	3.751800	-11.249000	23.939050	0.001057	20.757067
571.167282	-2.981100	3.751800	-11.183000	23.913835	0.001057	20.750748
572.176812	-2.984600	3.752600	-11.199000	23.938447	0.001059	20.779696
573.167671	-3.002200	3.750000	-11.257000	23.951165	0.001056	20.765897
574.170140	-2.989300	3.750500	-11.211000	23.963238	0.001058	20.759037
575.167860	-3.006800	3.749400	-11.273000	23.957409	0.001057	20.766943
576.180515	-3.001900	3.749200	-11.254000	23.954800	0.001058	20.775232
577.171659	-3.012200	3.749900	-11.295000	23.929666	0.001057	20.764727
578.171669	-2.994600	3.749800	-11.227000	23.910084	0.001058	20.772117
579.174058	-3.004400	3.750000	-11.265000	23.923600	0.001056	20.769550
580.170252	-3.007200	3.748600	-11.270000	23.920893	0.001056	20.768258
581.172357	-3.010300	3.748000	-11.281000	23.928924	0.001058	20.757818
582.172135	-3.006400	3.747800	-11.266000	23.926087	0.001058	20.768250
583.176871	-3.000400	3.748100	-11.245000	23.939008	0.001057	20.764612
584.169798	-2.994000	3.747800	-11.220000	23.957138	0.001056	20.792275
585.169864	-3.008900	3.746800	-11.273000	23.957904	0.001057	20.757956
586.173716	-3.007100	3.746500	-11.265000	23.968429	0.001056	20.792219
587.176217	-2.996200	3.747600	-11.227000	23.974152	0.001059	20.792268
588.180877	-3.001800	3.747600	-11.249000	24.002300	0.001057	20.766442
589.194068	-2.990300	3.747100	-11.204000	23.967883	0.001057	20.770334
590.188138	-2.985800	3.746200	-11.184000	23.983118	0.001058	20.766172
591.180144	-2.993900	3.745000	-11.211000	23.968216	0.001057	20.762133
592.172075	-3.011700	3.745200	-11.277000	23.957985	0.001055	20.766572
593.179986	-2.975800	3.746000	-11.146000	23.926484	0.001057	20.771493
594.178054	-2.992400	3.745200	-11.206000	23.933577	0.001058	20.765329
595.181433	-3.002800	3.744300	-11.242000	23.905076	0.001057	20.780846
596.176474	-3.009300	3.742800	-11.262000	23.954847	0.001057	20.768167
597.184715	-3.001600	3.744200	-11.238000	23.941909	0.001054	20.786961
598.179038	-3.004000	3.744300	-11.247000	23.923118	0.001054	20.761005
599.170801	-3.001800	3.743900	-11.237000	23.940245	0.001058	20.790035
600.185710	-2.974900	3.743500	-11.135000	23.918747	0.001055	20.777011
601.175443	-2.967000	3.744400	-11.109000	23.878050	0.001057	20.776979
602.180398	-2.991800	3.740700	-11.191000	23.899679	0.001057	20.770692
603.186957	-3.001300	3.742100	-11.230000	23.919759	0.001058	20.787035
604.177420	-3.001200	3.742100	-11.230000	23.956444	0.001057	20.768820
605.179976	-2.994500	3.742300	-11.205000	23.942438	0.001058	20.779905
606.183159	-3.009500	3.740400	-11.255000	23.948903	0.001058	20.785440
607.178472	-3.019900	3.740700	-11.295000	23.959362	0.001058	20.780281
608.192415	-3.014100	3.739900	-11.272000	23.985507	0.001057	20.792275
609.174472	-2.987100	3.741200	-11.174000	23.981903	0.001056	20.783446
610.180686	-2.997200	3.741000	-11.211000	24.008822	0.001057	20.798112
611.173165	-3.006200	3.739200	-11.239000	24.010818	0.001057	20.781148
612.182270	-3.018400	3.738800	-11.284000	24.008601	0.001057	20.805004
613.181937	-3.007600	3.738800	-11.243000	24.026943	0.001057	20.794474
614.192111	-3.004100	3.738200	-11.230000	24.008699	0.001057	20.789929
615.184775	-3.001800	3.737600	-11.219000	23.990683	0.001056	20.778974
616.193364	-2.986700	3.738300	-11.163000	23.996154	0.001057	20.784460
617.183795	-2.963600	3.739900	-11.082000	23.984333	0.001056	20.777348
618.181662	-3.004600	3.737100	-11.228000	23.976051	0.001055	20.804129
619.182361	-2.985000	3.737400	-11.155000	23.971967	0.001058	20.803827
620.182995	-2.969300	3.738600	-11.100000	23.959803	0.001056	20.803483
621.181256	-2.987400	3.737300	-11.163000	23.994091	0.001056	20.815582
622.178343	-3.001400	3.735800	-11.211000	23.980495	0.001054	20.803370
623.183987	-3.005800	3.736700	-11.230000	24.007844	0.001054	20.808038
624.185543	-2.996000	3.735600	-11.190000	24.026560	0.001057	20.804996
625.179142	-3.000900	3.735900	-11.211000	24.022060	0.001055	20.786733
626.184836	-2.992100	3.736000	-11.177000	24.055751	0.001056	20.809615
627.179273	-3.037000	3.734200	-11.339000	24.074361	0.001053	20.798881
628.191673	-3.013700	3.733100	-11.249000	24.070954	0.001056	20.791197
629.179722	-3.002400	3.734400	-11.210000	24.045921	0.001054	20.824412
630.181513	-3.002200	3.735400	-11.213000	24.060031	0.001053	20.793518
631.179215	-3.006200	3.734700	-11.225000	24.027090	0.001054	20.818803
632.178527	-2.993000	3.734500	-11.177000	24.020862	0.001055	20.794066
633.179200	-2.996500	3.733600	-11.186000	24.011953	0.001054	20.796511
634.178106	-3.000900	3.732900	-11.201000	24.010492	0.001054	20.816383
635.182937	-2.994000	3.732700	-11.175000	24.032339	0.001055	20.796093
636.182767	-3.000500	3.731800	-11.196000	24.062199	0.001055	20.805176
637.182445	-2.997900	3.730800	-11.183000	24.069714	0.001054	20.802756
638.180929	-3.010000	3.732300	-11.233000	24.087452	0.001052	20.834769
639.182097	-2.991500	3.732100	-11.163000	24.122591	0.001054	20.810743
640.178808	-2.991400	3.731200	-11.161000	24.113177	0.001056	20.815052
641.181235	-3.023700	3.729800	-11.277000	24.112004	0.001053	20.818616
642.184612	-2.999000	3.730600	-11.186000	24.111367	0.001053	20.832676
643.183848	-3.004500	3.730300	-11.206000	24.082293	0.001054	20.797353
644.184298	-3.002600	3.730200	-11.198000	24.075079	0.001053	20.798653
645.184298	-2.992000	3.729100	-11.156000	24.047030	0.001052	20.804188
646.182055	-2.993700	3.729500	-11.164000	24.045399	0.001052	20.815828
647.183882	-2.983400	3.729700	-11.126000	24.024466	0.001052	20.802896
648.190146	-3.021400	3.727900	-11.262000	24.023373	0.001052	20.793739
649.181480	-3.010300	3.728000	-11.222000	24.044372	0.001051	20.802945
650.184427	-3.010000	3.728300	-11.221000	24.065003	0.001053	20.817946
651.186457	-2.983400	3.728400	-11.122000	24.079351	0.001050	20.807679
652.184639	-2.997400	3.727700	-11.172000	24.082293	0.001052	20.807310
653.187111	-2.988400	3.728100	-11.138000	24.088806	0.001050	20.806256
654.186663	-2.992000	3.728000	-11.153000	24.090396	0.001051	20.789359
655.185225	-3.016400	3.725600	-11.236000	24.080696	0.001051	20.801441
656.187369	-2.991800	3.727300	-11.151000	24.095352	0.001051	20.812347
657.187784	-3.027200	3.724500	-11.274000	24.103039	0.001052	20.790659
658.187687	-3.021200	3.724900	-11.252000	24.093527	0.001050	20.796292
659.185434	-2.995100	3.726500	-11.160000	24.107881	0.001049	20.810214
660.189894	-3.004300	3.725900	-11.192000	24.106218	0.001051	20.788158
661.188193	-3.004800	3.724100	-11.189000	24.106169	0.001052	20.790479
662.185060	-3.005600	3.724600	-11.193000	24.114777	0.001050	20.790577
663.186588	-3.011600	3.724700	-11.215000	24.117011	0.001050	20.800879
664.187287	-3.014600	3.723200	-11.223000	24.131585	0.001052	20.799375
665.188979	-2.993600	3.724000	-11.147000	24.110368	0.001051	20.787104
666.190347	-2.989000	3.725400	-11.134000	24.081521	0.001051	20.781406
667.190044	-2.997300	3.723300	-11.159000	24.109985	0.001049	20.804264
668.187107	-3.001300	3.724400	-11.176000	24.140364	0.001050	20.794430
669.196591	-3.010500	3.722500	-11.205000	24.142468	0.001049	20.794169
670.188695	-2.996500	3.722100	-11.153000	24.140137	0.001051	20.786615
671.187130	-2.989400	3.723400	-11.129000	24.143414	0.001049	20.783738
672.191313	-3.011300	3.721100	-11.203000	24.155877	0.001049	20.782487
673.192224	-2.983000	3.722700	-11.104000	24.162716	0.001050	20.796933
674.192159	-2.995300	3.723600	-11.152000	24.178862	0.001049	20.775670
675.193361	-3.026400	3.720400	-11.258000	24.184706	0.001049	20.790541
676.192867	-3.022200	3.720000	-11.241000	24.153751	0.001048	20.799321
677.190794	-2.977800	3.721700	-11.082000	24.116249	0.001049	20.802011
678.193639	-2.990100	3.718900	-11.118000	24.105897	0.001047	20.775982
679.194441	-2.996000	3.719200	-11.142000	24.067252	0.001048	20.782269
680.190494	-2.985000	3.720500	-11.104000	24.103036	0.001049	20.776431
681.193853	-3.004200	3.718800	-11.171000	24.136577	0.001048	20.783993
682.196372	-3.012500	3.718000	-11.199000	24.141672	0.001047	20.770137
683.192202	-2.983400	3.719500	-11.096000	24.163590	0.001049	20.778844
684.192212	-3.005500	3.718500	-11.175000	24.165089	0.001047	20.773709
685.190836	-2.974200	3.719200	-11.061000	24.185262	0.001047	20.775925
686.191876	-2.993200	3.718800	-11.130000	24.175115	0.001046	20.769066
687.194782	-2.988400	3.717900	-11.109000	24.149481	0.001047	20.778443
688.192904	-3.002900	3.719000	-11.166000	24.131174	0.001045	20.773832
689.197297	-3.010300	3.718000	-11.191000	24.114921	0.001045	20.771282
690.194850	-3.001600	3.717400	-11.156000	24.100991	0.001047	20.756361
691.200866	-3.023900	3.716000	-11.236000	24.131321	0.001047	20.745529
692.192877	-2.994300	3.717700	-11.131000	24.146106	0.001046	20.757040
693.191175	-3.004100	3.715500	-11.159000	24.174047	0.001045	20.774633
694.193879	-3.003200	3.716800	-11.161000	24.183176	0.001044	20.764823
695.193303	-2.988100	3.715400	-11.101000	24.214309	0.001045	20.777559
696.197305	-2.988500	3.717100	-11.107000	24.260431	0.001046	20.772139
697.194435	-2.988800	3.715500	-11.104000	24.269168	0.001044	20.754824
698.194308	-2.975600	3.716400	-11.058000	24.260985	0.001045	20.766530
699.193899	-2.994800	3.714300	-11.122000	24.258989	0.001044	20.769270
700.197042	-2.996900	3.713800	-11.128000	24.256405	0.001043	20.775687
701.194612	-2.983100	3.714200	-11.079000	24.255295	0.001044	20.760349
702.193912	-2.971800	3.715400	-11.040000	24.261041	0.001043	20.765164
703.197842	-2.978000	3.714400	-11.059000	24.235589	0.001045	20.779463
704.196581	-2.985700	3.712900	-11.085000	24.208718	0.001045	20.752035
705.199427	-3.037800	3.712000	-11.274000	24.171820	0.001044	20.740156
706.197387	-3.016400	3.711300	-11.192000	24.145494	0.001044	20.755477
707.198706	-2.975800	3.712900	-11.048000	24.145224	0.001042	20.773699
708.200385	-2.973500	3.713000	-11.039000	24.138777	0.001042	20.754905
709.200922	-2.983800	3.711500	-11.073000	24.160465	0.001042	20.741095
710.202434	-3.016300	3.710500	-11.192000	24.159210	0.001041	20.747423
711.202620	-3.005600	3.711400	-11.154000	24.140781	0.001043	20.746008
712.202548	-2.982100	3.711700	-11.067000	24.149388	0.001041	20.737571
713.201454	-3.007500	3.710600	-11.159000	24.165241	0.001042	20.747782
714.198766	-2.988500	3.711400	-11.089000	24.188682	0.001041	20.754698
715.207461	-2.986700	3.711000	-11.082000	24.179871	0.001042	20.750603
716.201596	-3.008500	3.708600	-11.156000	24.197615	0.001042	20.739950
717.205235	-2.985700	3.709300	-11.074000	24.203914	0.001043	20.748640
718.206175	-2.988000	3.708900	-11.081000	24.241259	0.001043	20.747217
719.204824	-2.983400	3.708500	-11.063000	24.239963	0.001042	20.742598
720.202598	-2.993600	3.708000	-11.099000	24.230908	0.001040	20.743947
721.205926	-2.989800	3.708500	-11.086000	24.267909	0.001041	20.745974
722.205454	-3.000300	3.707300	-11.120000	24.270378	0.001042	20.731854
723.204995	-3.000200	3.708400	-11.125000	24.278186	0.001038	20.747748
724.207384	-2.984200	3.709100	-11.067000	24.284485	0.001041	20.742687
725.205852	-2.993200	3.707300	-11.096000	24.282374	0.001037	20.727766
726.210155	-2.986500	3.708900	-11.076000	24.258266	0.001039	20.749578
727.211363	-3.018800	3.706200	-11.187000	24.256652	0.001040	20.749856
728.207095	-2.982100	3.707400	-11.055000	24.257850	0.001038	20.752954
729.209977	-3.010500	3.705800	-11.155000	24.220653	0.001040	20.732712
730.210644	-3.000800	3.705500	-11.118000	24.248722	0.001037	20.740952
731.207648	-2.980700	3.706300	-11.047000	24.267980	0.001037	20.740829
732.209970	-2.991300	3.704200	-11.079000	24.277108	0.001040	20.749512
733.211980	-3.002500	3.704600	-11.121000	24.298355	0.001039	20.756600
734.208494	-3.011100	3.703600	-11.151000	24.312217	0.001038	20.733046
735.208827	-2.982400	3.705400	-11.051000	24.331694	0.001039	20.747370
736.212370	-2.987900	3.704100	-11.066000	24.343917	0.001037	20.723594
737.210130	-2.982200	3.704400	-11.046000	24.357869	0.001037	20.742807
738.211817	-2.987900	3.704300	-11.067000	24.355237	0.001036	20.741114
739.211767	-3.033100	3.701200	-11.225000	24.359515	0.001036	20.733078
740.216569	-3.007800	3.702600	-11.135000	24.360135	0.001035	20.765469
741.213100	-2.994500	3.702800	-11.087000	24.348130	0.001037	20.744891
742.214495	-3.001500	3.702400	-11.112000	24.353843	0.001035	20.732604
743.214096	-3.002000	3.702000	-11.111000	24.298720	0.001035	20.719032
744.213672	-3.011600	3.700800	-11.145000	24.287155	0.001034	20.747736
745.211978	-3.019100	3.701000	-11.173000	24.255533	0.001035	20.730240
746.214916	-3.005000	3.700900	-11.121000	24.217920	0.001036	20.735660
747.212118	-3.018500	3.700600	-11.168000	24.219135	0.001035	20.722653
748.215317	-2.991200	3.701800	-11.072000	24.221082	0.001033	20.735513
749.216858	-3.001000	3.700300	-11.104000	24.232052	0.001035	20.749836
750.216592	-2.983000	3.700600	-11.038000	24.243348	0.001034	20.728923
751.218264	-2.981800	3.701000	-11.034000	24.253478	0.001035	20.734343
752.214674	-3.002500	3.700200	-11.108000	24.247154	0.001035	20.716619
753.213946	-2.972300	3.698700	-10.992000	24.263772	0.001031	20.700096
754.215368	-2.991400	3.699900	-11.066000	24.273111	0.001033	20.711361
755.215924	-2.987200	3.699800	-11.050000	24.294505	0.001033	20.711484
756.217706	-2.996600	3.698500	-11.081000	24.321822	0.001034	20.729879
757.214925	-3.001500	3.698300	-11.100000	24.302026	0.001032	20.713814
758.215929	-2.982900	3.698600	-11.031000	24.335782	0.001032	20.711639
759.214702	-2.991000	3.697000	-11.056000	24.335341	0.001033	20.722577
760.218277	-2.997800	3.696200	-11.079000	24.341233	0.001032	20.708099
761.217427	-3.001400	3.695200	-11.090000	24.357157	0.001031	20.714116
762.216079	-3.009200	3.696600	-11.122000	24.360669	0.001034	20.729968
763.217278	-2.985500	3.696900	-11.036000	24.356611	0.001031	20.712620
764.219052	-3.005000	3.695600	-11.104000	24.350043	0.001033	20.728317
765.216312	-2.999100	3.695300	-11.081000	24.343107	0.001030	20.712823
766.215472	-2.994500	3.695500	-11.066000	24.346195	0.001030	20.713077
767.216279	-2.987200	3.695500	-11.038000	24.336017	0.001030	20.728946
768.216165	-3.003800	3.694600	-11.096000	24.352144	0.001031	20.709087
769.215876	-3.016800	3.693100	-11.140000	24.372476	0.001029	20.705300
770.218564	-3.006500	3.694100	-11.105000	24.393296	0.001029	20.727138
771.214919	-3.005500	3.693000	-11.098000	24.388790	0.001030	20.729730
772.215926	-3.003100	3.693800	-11.092000	24.389508	0.001029	20.706266
773.217890	-3.008500	3.692800	-11.108000	24.398226	0.001029	20.733506
774.219100	-3.004000	3.693300	-11.093000	24.385139	0.001029	20.705202
775.219921	-3.009500	3.692000	-11.109000	24.378213	0.001027	20.716747
776.221297	-3.011700	3.692900	-11.121000	24.358247	0.001027	20.708096
777.219860	-3.010500	3.692100	-11.114000	24.329544	0.001027	20.703485
778.220801	-3.001100	3.691300	-11.077000	24.331753	0.001027	20.719927
779.221395	-3.002800	3.692700	-11.088000	24.332846	0.001026	20.702055
780.219375	-3.001000	3.691600	-11.078000	24.325388	0.001027	20.713067
781.222587	-3.018000	3.691600	-11.140000	24.332975	0.001028	20.705504
782.221299	-2.981800	3.693000	-11.011000	24.312969	0.001026	20.720049
783.224447	-3.012700	3.690100	-11.116000	24.329691	0.001025	20.707900
784.220656	-3.011200	3.689300	-11.108000	24.360561	0.001023	20.705202
785.223622	-2.963800	3.690500	-10.937000	24.356087	0.001026	20.701188
786.222980	-2.992100	3.691200	-11.043000	24.354294	0.001023	20.719305
787.221688	-3.017300	3.688400	-11.128000	24.349176	0.001024	20.688564
788.226939	-3.012300	3.688800	-11.110000	24.329145	0.001024	20.719681
789.226179	-2.996500	3.688700	-11.052000	24.310890	0.001025	20.703264
790.222306	-3.003900	3.688100	-11.078000	24.321362	0.001024	20.713770
791.222789	-2.991900	3.688800	-11.036000	24.319814	0.001024	20.697991
792.221177	-3.000700	3.688900	-11.067000	24.326684	0.001024	20.710573
793.221823	-3.002700	3.688000	-11.073000	24.337832	0.001024	20.712273
794.222826	-2.990100	3.688500	-11.028000	24.349102	0.001024	20.702242
795.223186	-3.000800	3.685800	-11.060000	24.368058	0.001023	20.688539
796.226179	-3.027900	3.687800	-11.164000	24.407059	0.001023	20.711072
797.223161	-3.005000	3.687900	-11.081000	24.426584	0.001023	20.710271
798.225270	-2.999200	3.687400	-11.058000	24.425597	0.001024	20.676087
799.229863	-2.984600	3.687300	-11.004000	24.406513	0.001024	20.700566
800.226290	-3.010300	3.685300	-11.092000	24.404851	0.001022	20.700795
801.225853	-2.987200	3.686200	-11.010000	24.381838	0.001020	20.686716
802.230338	-2.977200	3.686800	-10.976000	24.381309	0.001021	20.700885
803.232984	-2.973600	3.686700	-10.961000	24.329348	0.001022	20.690011
804.230187	-2.979800	3.686700	-10.984000	24.322178	0.001019	20.685188
805.227665	-3.015700	3.683800	-11.108000	24.336985	0.001021	20.681075
806.225921	-2.981100	3.685800	-10.987000	24.362452	0.001019	20.689554
807.231627	-2.992600	3.684600	-11.025000	24.361653	0.001021	20.699659
808.229347	-2.987800	3.683800	-11.004000	24.364815	0.001020	20.695718
809.231076	-3.013100	3.683900	-11.098000	24.372630	0.001019	20.702610
810.231260	-2.999100	3.683800	-11.047000	24.335860	0.001020	20.680421
811.231558	-2.999600	3.683100	-11.047000	24.325609	0.001020	20.686259
812.232567	-2.988000	3.683200	-11.005000	24.275708	0.001018	20.694998
813.229913	-2.997300	3.682500	-11.036000	24.297998	0.001018	20.676578
814.232978	-3.010200	3.682400	-11.084000	24.281030	0.001017	20.676153
815.237350	-2.999500	3.682800	-11.044000	24.285186	0.001019	20.687436
816.232724	-3.007700	3.681400	-11.071000	24.274037	0.001016	20.686684
817.232665	-2.995200	3.682600	-11.029000	24.307777	0.001016	20.679750
818.234064	-3.012300	3.681900	-11.090000	24.305039	0.001016	20.691704
819.230857	-2.985700	3.682200	-10.993000	24.319244	0.001015	20.677976
820.231989	-3.003800	3.681900	-11.059000	24.322797	0.001016	20.699087
821.232415	-3.006200	3.680300	-11.062000	24.348622	0.001014	20.692750
822.233912	-2.991600	3.681000	-11.011000	24.337310	0.001014	20.683298
823.234329	-3.000100	3.680300	-11.040000	24.361090	0.001016	20.689136
824.234372	-2.981100	3.680900	-10.972000	24.383778	0.001015	20.671591
825.233471	-3.000600	3.679900	-11.040000	24.424074	0.001014	20.703011
826.234878	-3.007000	3.679900	-11.065000	24.400271	0.001015	20.689087
827.234846	-2.978200	3.679300	-10.957000	24.412479	0.001014	20.690428
828.237513	-2.979300	3.678300	-10.958000	24.401184	0.001013	20.690952
829.235982	-2.978800	3.680100	-10.961000	24.384128	0.001013	20.687117
830.234970	-2.993800	3.677700	-11.009000	24.415224	0.001014	20.654298
831.237591	-2.986300	3.677500	-10.981000	24.409675	0.001010	20.664854
832.235401	-3.004700	3.677800	-11.048000	24.417930	0.001011	20.663652
833.236678	-2.999800	3.676800	-11.028000	24.395145	0.001012	20.668296
834.236465	-2.999000	3.677600	-11.028000	24.412258	0.001012	20.671714
835.239573	-2.966500	3.677100	-10.908000	24.400296	0.001011	20.673463
836.236075	-3.018100	3.676500	-11.095000	24.420178	0.001010	20.680134
837.238190	-2.988400	3.676400	-10.986000	24.439622	0.001010	20.687787
838.239020	-3.014300	3.674900	-11.075000	24.433306	0.001010	20.688564
839.238872	-2.990800	3.676100	-10.992000	24.455576	0.001010	20.677714
840.237844	-2.998500	3.675800	-11.021000	24.467709	0.001010	20.650529
841.239443	-3.001100	3.675200	-11.029000	24.451494	0.001010	20.683102
842.237796	-2.988600	3.675400	-10.982000	24.468980	0.001011	20.671721
843.245407	-3.006700	3.675400	-11.050000	24.437144	0.001009	20.662065
844.243412	-3.022600	3.673900	-11.103000	24.405681	0.001008	20.675547
845.244520	-3.018400	3.674200	-11.089000	24.422590	0.001008	20.678760
846.241405	-3.007300	3.674100	-11.047000	24.422605	0.001009	20.643684
847.246301	-3.010300	3.674800	-11.061000	24.409959	0.001007	20.660871
848.242723	-2.984000	3.674300	-10.963000	24.436279	0.001007	20.663569
849.242670	-3.024200	3.673400	-11.107000	24.467577	0.001006	20.654664
850.246442	-3.033700	3.671800	-11.138000	24.468319	0.001007	20.683387
851.242242	-3.023700	3.672100	-11.103000	24.494638	0.001007	20.666643
852.242128	-3.036700	3.672400	-11.150000	24.475433	0.001006	20.662547
853.241665	-3.021000	3.671500	-11.091000	24.465768	0.001007	20.675611
854.244258	-3.031500	3.671000	-11.128000	24.458108	0.001006	20.653225
855.243810	-3.005600	3.673300	-11.039000	24.471040	0.001005	20.692756
856.246557	-3.030400	3.670800	-11.123000	24.489479	0.001006	20.671898
857.244606	-3.004700	3.669900	-11.025000	24.514845	0.001005	20.675063
858.242225	-3.007900	3.670800	-11.039000	24.550891	0.001005	20.650534
859.242694	-3.015600	3.669100	-11.064000	24.543281	0.001004	20.662815
860.247902	-3.003800	3.670100	-11.022000	24.557881	0.001003	20.665611
861.244467	-2.996000	3.670100	-10.994000	24.549603	0.001004	20.655407
862.246267	-3.006500	3.670200	-11.033000	24.517597	0.001003	20.638940
863.246916	-2.981500	3.670700	-10.943000	24.505457	0.001004	20.674178
864.246993	-2.966600	3.670200	-10.886000	24.495263	0.001004	20.663476
865.245618	-2.989100	3.668900	-10.964000	24.493397	0.001004	20.662078
866.248371	-3.009200	3.669400	-11.040000	24.522974	0.001002	20.644810
867.246316	-2.962400	3.670400	-10.872000	24.535034	0.001002	20.665920
868.248902	-3.021300	3.668500	-11.081000	24.500087	0.001003	20.650770
869.248084	-2.988400	3.668400	-10.962000	24.498001	0.001003	20.659584
870.250615	-3.010100	3.666600	-11.036000	24.480221	0.001003	20.681102
871.247756	-2.990900	3.668400	-10.971000	24.438077	0.001001	20.661579
872.248345	-3.015000	3.666700	-11.054000	24.423996	0.001000	20.678274
873.250844	-2.992000	3.667300	-10.971000	24.480172	0.001003	20.656869
874.249422	-2.972500	3.667000	-10.899000	24.473922	0.001001	20.650124
875.247437	-3.019400	3.665200	-11.065000	24.472235	0.001000	20.661235
876.255465	-2.995800	3.666200	-10.982000	24.462261	0.001000	20.653124
877.254296	-2.998500	3.665200	-10.989000	24.461495	0.000999	20.665633
878.251013	-3.013900	3.664800	-11.044000	24.500045	0.000999	20.673965
879.250782	-3.015700	3.664500	-11.048000	24.518077	0.000999	20.680203
880.251841	-3.025100	3.664100	-11.083000	24.529077	0.000997	20.665159
881.250703	-2.984700	3.665200	-10.939000	24.548770	0.000996	20.671169
882.252025	-3.003100	3.664000	-11.002000	24.563795	0.000997	20.657793
883.251306	-3.006200	3.664000	-11.014000	24.565986	0.000998	20.668528
884.251713	-2.993800	3.663600	-10.967000	24.604516	0.000996	20.670678
885.251606	-2.985300	3.664400	-10.938000	24.602251	0.000998	20.654653
886.253204	-3.000200	3.664100	-10.991000	24.609445	0.000996	20.666139
887.254038	-3.006900	3.661300	-11.008000	24.643565	0.000997	20.665289
888.253606	-2.997900	3.662200	-10.978000	24.639239	0.000997	20.659999
889.256394	-2.998000	3.663500	-10.981000	24.599146	0.000995	20.665289
890.253181	-2.987700	3.663000	-10.942000	24.607089	0.000997	20.670415
891.254423	-3.012500	3.661400	-11.029000	24.620125	0.000993	20.653621
892.259952	-2.999300	3.662500	-10.983000	24.624605	0.000997	20.651953
893.258716	-3.010100	3.662900	-11.026000	24.632330	0.000996	20.686734
894.255629	-2.984300	3.661600	-10.925000	24.622186	0.000993	20.658061
895.253921	-3.005900	3.660200	-11.001000	24.651515	0.000995	20.657144
896.255773	-3.009000	3.660200	-11.011000	24.621322	0.000992	20.663358
897.257086	-3.001300	3.660200	-10.984000	24.614112	0.000993	20.657545
898.266809	-2.992700	3.659300	-10.949000	24.605736	0.000993	20.666685
899.255354	-2.982600	3.660700	-10.916000	24.577774	0.000992	20.665656
900.256078	-2.990800	3.660100	-10.946000	24.567532	0.000993	20.658223
901.259847	-2.981500	3.660900	-10.914000	24.568193	0.000992	20.663629
902.256301	-2.988100	3.658900	-10.932000	24.559792	0.000991	20.674167
903.256439	-2.992400	3.659300	-10.948000	24.570343	0.000991	20.653931
904.255425	-2.998200	3.658700	-10.968000	24.584373	0.000991	20.672752
905.258898	-2.997400	3.658400	-10.965000	24.613492	0.000992	20.676366
906.259157	-3.013000	3.658100	-11.020000	24.631904	0.000989	20.666865
907.259012	-3.016900	3.657800	-11.034000	24.640581	0.000991	20.663717
908.258941	-2.993200	3.657500	-10.946000	24.636654	0.000989	20.656931
909.261361	-2.997900	3.657300	-10.964000	24.651849	0.000991	20.666489
910.268053	-2.995300	3.657200	-10.954000	24.580315	0.000990	20.670577
911.261756	-2.984400	3.656700	-10.912000	24.599568	0.000992	20.663341
912.262923	-3.023000	3.656500	-11.052000	24.602876	0.000990	20.669032
913.262532	-3.006200	3.656200	-10.989000	24.625729	0.000989	20.677265
914.266743	-2.998500	3.655500	-10.958000	24.632401	0.000988	20.679693
915.264839	-2.994000	3.656500	-10.946000	24.658978	0.000987	20.658943
916.260926	-3.015200	3.655200	-11.019000	24.694652	0.000987	20.669137
917.261347	-2.999000	3.655900	-10.963000	24.690889	0.000988	20.679113
918.263816	-2.995800	3.654000	-10.945000	24.723639	0.000989	20.674518
919.261579	-3.007500	3.654600	-10.990000	24.722718	0.000988	20.669326
920.260651	-3.002700	3.653200	-10.968000	24.699159	0.000989	20.668918
921.263949	-3.012700	3.652800	-11.004000	24.682555	0.000987	20.674543
922.262131	-3.016600	3.652700	-11.018000	24.674897	0.000988	20.681558
923.262133	-3.020500	3.651700	-11.029000	24.686727	0.000984	20.690110
924.262309	-3.003500	3.653400	-10.971000	24.701416	0.000985	20.680668
925.265676	-3.003600	3.654000	-10.974000	24.732210	0.000986	20.680275
926.261199	-2.994800	3.652900	-10.938000	24.712389	0.000985	20.684093
927.263506	-3.006900	3.652200	-10.980000	24.712463	0.000983	20.670889
928.265532	-2.992100	3.652400	-10.927000	24.721832	0.000983	20.695466
929.261905	-2.985300	3.652400	-10.902000	24.690916	0.000984	20.664439
930.262337	-3.003800	3.650600	-10.965000	24.692553	0.000983	20.688370
931.264637	-3.009500	3.650300	-10.983000	24.675966	0.000983	20.685476
932.263137	-2.989000	3.650600	-10.911000	24.709434	0.000981	20.684446
933.263740	-3.013700	3.648600	-10.995000	24.695885	0.000983	20.680808
934.263146	-3.000100	3.651100	-10.952000	24.706924	0.000982	20.689515
935.263669	-3.008200	3.650400	-10.979000	24.705385	0.000980	20.689392
936.262963	-2.994500	3.650100	-10.929000	24.675168	0.000982	20.706488
937.273676	-3.003200	3.649700	-10.959000	24.655322	0.000981	20.671872
938.268064	-2.993300	3.648400	-10.920000	24.630165	0.000980	20.686459
939.271112	-2.987000	3.649500	-10.901000	24.607890	0.000980	20.697773
940.270270	-2.985500	3.649200	-10.893000	24.630523	0.000980	20.685869
941.264951	-3.000900	3.647200	-10.944000	24.672326	0.000980	20.689884
942.264563	-3.021100	3.648300	-11.021000	24.658598	0.000977	20.706456
943.264455	-2.995700	3.647800	-10.926000	24.681272	0.000979	20.688903
944.267616	-2.993600	3.647700	-10.918000	24.685671	0.000979	20.686205
945.266533	-2.977900	3.647100	-10.860000	24.719853	0.000978	20.691584
946.266030	-2.985000	3.647500	-10.887000	24.745417	0.000976	20.684046
947.272987	-2.992200	3.648100	-10.915000	24.741189	0.000976	20.694503
948.267100	-2.977600	3.647800	-10.861000	24.773171	0.000976	20.699572
949.266827	-3.001000	3.645800	-10.940000	24.774393	0.000978	20.713127
950.266406	-3.012600	3.645700	-10.982000	24.789610	0.000977	20.692360
951.263881	-2.986200	3.647200	-10.891000	24.763771	0.000976	20.695353
952.265838	-3.000500	3.645400	-10.937000	24.744847	0.000977	20.704338
953.268001	-3.013000	3.645800	-10.984000	24.762931	0.000974	20.691665
954.267323	-3.000800	3.645000	-10.937000	24.791434	0.000975	20.700830
955.271462	-3.004700	3.643800	-10.948000	24.812149	0.000975	20.689850
956.271211	-3.015400	3.645500	-10.992000	24.813640	0.000975	20.692768
957.268772	-2.983600	3.644700	-10.874000	24.803424	0.000975	20.699587
958.275424	-2.997700	3.644800	-10.925000	24.797649	0.000973	20.717500
959.270834	-2.984000	3.644700	-10.874000	24.831943	0.000972	20.712562
960.271829	-3.010000	3.643200	-10.965000	24.819162	0.000973	20.697837
961.274714	-2.992900	3.643900	-10.905000	24.837539	0.000973	20.675975
962.274456	-2.990900	3.644600	-10.899000	24.841179	0.000971	20.693855
963.272249	-3.003200	3.642300	-10.938000	24.863335	0.000972	20.695228
964.275919	-3.001700	3.642200	-10.931000	24.858635	0.000972	20.701891
965.273216	-3.023300	3.641500	-11.009000	24.849113	0.000971	20.703240
966.273636	-3.018100	3.641600	-10.989000	24.820105	0.000972	20.689300
967.272773	-3.005700	3.641200	-10.943000	24.833978	0.000971	20.699904
968.272432	-3.008800	3.641800	-10.955000	24.847483	0.000969	20.693069
969.272301	-3.005300	3.640700	-10.940000	24.860035	0.000970	20.706616
970.272407	-3.007300	3.641300	-10.950000	24.852672	0.000971	20.705864
971.273179	-2.991500	3.640400	-10.889000	24.883283	0.000970	20.685850
972.276359	-2.980400	3.640800	-10.850000	24.863619	0.000970	20.704049
973.273361	-2.999600	3.641500	-10.922000	24.855759	0.000968	20.702324
974.274848	-3.000600	3.640000	-10.920000	24.846261	0.000968	20.705120
975.274994	-2.992400	3.641300	-10.894000	24.864988	0.000967	20.693567
976.277915	-3.016700	3.639400	-10.977000	24.855783	0.000966	20.706142
977.279063	-2.991500	3.639100	-10.885000	24.869883	0.000969	20.710336
978.276263	-2.989200	3.640200	-10.880000	24.867993	0.000967	20.704646
979.282423	-2.994000	3.638400	-10.893000	24.887013	0.000966	20.719468
980.281747	-2.975800	3.638300	-10.825000	24.920359	0.000966	20.727333
981.280061	-3.022400	3.637400	-10.993000	24.931396	0.000966	20.713279
982.277255	-2.991500	3.638100	-10.881000	24.926948	0.000966	20.722092
983.283459	-3.014400	3.637500	-10.964000	24.877092	0.000966	20.703346
984.281141	-3.003700	3.638700	-10.929000	24.891632	0.000965	20.729320
985.280521	-2.993000	3.636100	-10.881000	24.887534	0.000965	20.691540
986.282935	-3.025200	3.636600	-11.000000	24.883234	0.000965	20.717572
987.282350	-2.998000	3.636100	-10.900000	24.885319	0.000964	20.708759
988.282407	-3.004800	3.635500	-10.922000	24.901781	0.000963	20.720065
989.282189	-2.999900	3.635300	-10.904000	24.896576	0.000962	20.700616
990.287792	-2.995000	3.635800	-10.888000	24.894019	0.000963	20.713223
991.285439	-3.008700	3.634000	-10.932000	24.900845	0.000965	20.717230
992.282702	-3.017100	3.634100	-10.964000	24.911743	0.000964	20.726746
993.283178	-3.018600	3.634300	-10.969000	24.920109	0.000962	20.719969
994.281692	-2.995300	3.634900	-10.886000	24.883383	0.000962	20.743801
995.282671	-2.999700	3.635100	-10.902000	24.918912	0.000961	20.713077
996.285665	-2.994400	3.633400	-10.879000	24.939397	0.000961	20.720362
997.283785	-3.026000	3.632200	-10.990000	24.956134	0.000962	20.739059
998.286743	-3.002000	3.633100	-10.905000	24.967366	0.000960	20.721409
999.286669	-3.002300	3.632800	-10.905000	24.977353	0.000961	20.743287
1000.288525	-3.001800	3.631800	-10.900000	24.975918	0.000959	20.727622
1001.286847	-3.010300	3.631200	-10.930000	25.001924	0.000960	20.729544
1002.289367	-2.979600	3.632000	-10.820000	24.963678	0.000958	20.742838
1003.288952	-3.012200	3.631600	-10.938000	24.947388	0.000959	20.722219
1004.294386	-3.019600	3.630000	-10.961000	24.961511	0.000960	20.751569
1005.289901	-2.977000	3.631900	-10.811000	24.960346	0.000957	20.739968
1006.289080	-2.987800	3.630400	-10.846000	24.931726	0.000958	20.732104
1007.289074	-3.011100	3.630800	-10.931000	24.951713	0.000957	20.720871
1008.288261	-2.998500	3.630100	-10.883000	24.980064	0.000958	20.745061
1009.289733	-2.992300	3.631100	-10.864000	24.973688	0.000956	20.735816
1010.290409	-2.996900	3.630300	-10.879000	24.957228	0.000955	20.746796
1011.290030	-3.005600	3.629600	-10.909000	24.979731	0.000957	20.731450
1012.295151	-2.991400	3.629800	-10.858000	24.961724	0.000954	20.739454
1013.294827	-2.984600	3.630300	-10.834000	24.992006	0.000955	20.738081
1014.292390	-2.994500	3.629500	-10.867000	24.995215	0.000956	20.726128
1015.301487	-2.980800	3.628900	-10.816000	25.026986	0.000954	20.737631
1016.293961	-2.983500	3.628400	-10.823000	25.023631	0.000954	20.753704
1017.292755	-3.003100	3.627100	-10.892000	25.016269	0.000951	20.735408
1018.296552	-2.972400	3.628400	-10.784000	25.036206	0.000952	20.740722
1019.294202	-2.981900	3.629000	-10.820000	24.991754	0.000953	20.746363
1020.294844	-2.997200	3.627100	-10.869000	24.962897	0.000952	20.740157
1021.297707	-2.963000	3.628500	-10.750000	24.934626	0.000949	20.751611
1022.296328	-3.011700	3.626000	-10.919000	24.922466	0.000951	20.746044
1023.295137	-2.979000	3.627300	-10.805000	24.921741	0.000950	20.750058
1024.297102	-3.005700	3.626200	-10.897000	24.902218	0.000951	20.759387
1025.295767	-2.989900	3.626500	-10.840000	24.880543	0.000951	20.765133
1026.295815	-2.973100	3.626600	-10.782000	24.881806	0.000949	20.751228
1027.299474	-2.977000	3.626600	-10.796000	24.873970	0.000950	20.738147
1028.295334	-2.976700	3.624800	-10.789000	24.857663	0.000949	20.745014
1029.296639	-2.995700	3.624500	-10.857000	24.859675	0.000949	20.741818
1030.299685	-2.995700	3.624400	-10.856000	24.840028	0.000948	20.757188
1031.297742	-2.994000	3.625200	-10.853000	24.848214	0.000947	20.745488
1032.299184	-2.999300	3.624200	-10.869000	24.857312	0.000948	20.767423
1033.300880	-3.005300	3.622200	-10.884000	24.886180	0.000946	20.743289
1034.298323	-2.989700	3.624200	-10.834000	24.882474	0.000946	20.776081
1035.302915	-3.023300	3.623000	-10.952000	24.901241	0.000945	20.753191
1036.300989	-3.015300	3.623200	-10.924000	24.954802	0.000944	20.751947
1037.304640	-3.002800	3.623000	-10.878000	24.970783	0.000945	20.761824
1038.301398	-3.019000	3.621600	-10.932000	25.012174	0.000945	20.762119
1039.306334	-2.987300	3.622400	-10.820000	25.034179	0.000944	20.777095
1040.303595	-2.983600	3.621900	-10.806000	25.062496	0.000943	20.758104
1041.301826	-3.001800	3.622000	-10.870000	25.076047	0.000945	20.755112
1042.301686	-3.003200	3.620400	-10.872000	25.102288	0.000944	20.745891
1043.302959	-2.995900	3.620800	-10.846000	25.134984	0.000942	20.758799
1044.304284	-3.010800	3.619900	-10.898000	25.128550	0.000942	20.782213
1045.301187	-2.980300	3.622000	-10.792000	25.128249	0.000941	20.773376
1046.306266	-2.997500	3.620500	-10.851000	25.139658	0.000941	20.766337
1047.302506	-2.988100	3.620600	-10.816000	25.124926	0.000941	20.775729
1048.304158	-3.001800	3.618300	-10.860000	25.059865	0.000940	20.769214
1049.307319	-3.007300	3.619800	-10.885000	25.018616	0.000940	20.771430
1050.306541	-3.000200	3.620100	-10.860000	24.988538	0.000938	20.785810
1051.305988	-3.020300	3.617500	-10.925000	24.959673	0.000937	20.758259
1052.308816	-2.963800	3.620600	-10.729000	24.963477	0.000940	20.770138
1053.305924	-2.989300	3.617500	-10.812000	24.981868	0.000937	20.773899
1054.305503	-3.008400	3.617900	-10.883000	24.991837	0.000939	20.788647
1055.304224	-2.996100	3.617400	-10.837000	25.004591	0.000938	20.769207
1056.306239	-2.990200	3.616200	-10.811000	25.006831	0.000937	20.771455
1057.306581	-2.989500	3.616500	-10.811000	25.043000	0.000937	20.777415
1058.306473	-3.003500	3.616400	-10.861000	25.030148	0.000936	20.793912
1059.306537	-2.991700	3.616500	-10.818000	25.009592	0.000936	20.789873
1060.308007	-2.998000	3.615100	-10.838000	25.010105	0.000936	20.784225
1061.307862	-2.991100	3.616100	-10.815000	25.029619	0.000936	20.770147
1062.310960	-3.006000	3.614800	-10.865000	25.052814	0.000935	20.787740
1063.309286	-3.020000	3.613500	-10.911000	25.056324	0.000934	20.763288
1064.307659	-2.993600	3.614700	-10.820000	25.049133	0.000934	20.799218
1065.310074	-3.015500	3.612400	-10.892000	25.077694	0.000934	20.772412
1066.312550	-3.016000	3.613000	-10.895000	25.066666	0.000932	20.785050
1067.311886	-3.003300	3.612700	-10.849000	25.077376	0.000933	20.796749
1068.310382	-3.014500	3.612100	-10.888000	25.070935	0.000933	20.784119
1069.311689	-2.983700	3.613900	-10.780000	25.066960	0.000934	20.769224
1070.314050	-2.996000	3.614700	-10.829000	25.080707	0.000935	20.772592
1071.311282	-2.999900	3.613000	-10.837000	25.097117	0.000929	20.794280
1072.314039	-2.999600	3.611600	-10.833000	25.066439	0.000931	20.786718
1073.313528	-2.998400	3.612700	-10.831000	25.060470	0.000930	20.800167
1074.313722	-2.989700	3.613300	-10.801000	25.057912	0.000930	20.812298
1075.313831	-2.989300	3.612500	-10.797000	25.038839	0.000931	20.796472
1076.312240	-3.017600	3.611500	-10.897000	25.044231	0.000929	20.793349
1077.312127	-2.997800	3.611800	-10.826000	25.029416	0.000930	20.804557
1078.314856	-3.006600	3.611800	-10.857000	25.032796	0.000930	20.811269
1079.314507	-2.997500	3.611600	-10.825000	25.047797	0.000928	20.806886
1080.314364	-2.986600	3.611100	-10.784000	25.057009	0.000929	20.815185
1081.315101	-2.996600	3.609800	-10.815000	25.084160	0.000927	20.792654
1082.317554	-3.009900	3.609000	-10.861000	25.064549	0.000927	20.792408
1083.317211	-2.993800	3.608100	-10.800000	25.092883	0.000926	20.810893
1084.321466	-3.018600	3.608400	-10.891000	25.119886	0.000925	20.801965
1085.313799	-2.996900	3.608900	-10.813000	25.098428	0.000924	20.800813
1086.325916	-3.002300	3.609200	-10.833000	25.067229	0.000926	20.813590
1087.317591	-3.019200	3.607600	-10.891000	25.073646	0.000924	20.795376
1088.317656	-3.004500	3.608200	-10.838000	25.083394	0.000924	20.804687
1089.317655	-3.012200	3.607300	-10.865000	25.063206	0.000926	20.793430
1090.315399	-2.998200	3.606200	-10.811000	25.021817	0.000924	20.794558
1091.314357	-3.004500	3.607900	-10.838000	25.015571	0.000925	20.797297
1092.318188	-3.003900	3.606300	-10.831000	24.988418	0.000923	20.801810
1093.317598	-3.000100	3.604400	-10.813000	25.012418	0.000924	20.821159
1094.315464	-3.006600	3.605700	-10.840000	25.048913	0.000924	20.800894
1095.317378	-3.013900	3.605000	-10.863000	25.026093	0.000922	20.801695
1096.317753	-3.013400	3.604500	-10.860000	24.992676	0.000921	20.805611
1097.316569	-3.010100	3.604800	-10.849000	24.991592	0.000922	20.814480
1098.320751	-3.002500	3.605100	-10.824000	25.023209	0.000920	20.836258
1099.319814	-3.006900	3.604700	-10.837000	25.051958	0.000919	20.841882
1100.316494	-3.004000	3.603000	-10.823000	25.089966	0.000920	20.813180
1101.320181	-2.962900	3.605600	-10.680000	25.079917	0.000920	20.800248
1102.316760	-2.990800	3.603000	-10.774000	25.117987	0.000918	20.816180
1103.318520	-3.017000	3.601600	-10.864000	25.140830	0.000921	20.832473
1104.319290	-3.027000	3.601100	-10.899000	25.181074	0.000918	20.823562
1105.320726	-3.005800	3.602100	-10.827000	25.181197	0.000917	20.828426
1106.327719	-2.990000	3.601900	-10.767000	25.222660	0.000917	20.850613
1107.320518	-2.999600	3.602800	-10.807000	25.205161	0.000916	20.821192
1108.319796	-2.988700	3.602000	-10.764000	25.189478	0.000916	20.829628
1109.319537	-2.972500	3.602600	-10.706000	25.172940	0.000916	20.828198
1110.322756	-2.990400	3.601500	-10.768000	25.144332	0.000914	20.835514
1111.319455	-2.988900	3.600900	-10.761000	25.141173	0.000916	20.835187
1112.321029	-2.994200	3.599700	-10.777000	25.136173	0.000914	20.827797
1113.320154	-3.003400	3.599300	-10.809000	25.164960	0.000915	20.817816
1114.321977	-2.994700	3.599500	-10.779000	25.176099	0.000915	20.831370
1115.325070	-3.005900	3.599900	-10.820000	25.184642	0.000914	20.833782
1116.321873	-3.008100	3.598200	-10.822000	25.192793	0.000911	20.822525
1117.323319	-2.969300	3.600100	-10.688000	25.220707	0.000911	20.821626
1118.326062	-3.006800	3.598300	-10.818000	25.230283	0.000914	20.813696
1119.321890	-2.988700	3.598600	-10.754000	25.245290	0.000911	20.813116
1120.324626	-2.993800	3.598400	-10.772000	25.249450	0.000908	20.823931
1121.327189	-3.031100	3.596200	-10.899000	25.230405	0.000910	20.812871
1122.321074	-2.983400	3.597500	-10.732000	25.225902	0.000910	20.807402
1123.322688	-2.998500	3.595700	-10.781000	25.181336	0.000909	20.801066
1124.325698	-3.003400	3.596800	-10.802000	25.170921	0.000908	20.795826
1125.323027	-3.010000	3.596300	-10.824000	25.144601	0.000906	20.796904
1126.322094	-2.967200	3.596100	-10.669000	25.120978	0.000907	20.811121
1127.325627	-2.997200	3.596400	-10.778000	25.147729	0.000907	20.804785
1128.325539	-2.985400	3.596500	-10.735000	25.161181	0.000906	20.823506
1129.324087	-2.997200	3.594700	-10.773000	25.170326	0.000907	20.825574
1130.324113	-3.001600	3.594200	-10.787000	25.202768	0.000905	20.801245
1131.329105	-3.001700	3.593600	-10.786000	25.216472	0.000905	20.817848
1132.326597	-2.986800	3.594900	-10.737000	25.180374	0.000904	20.802471
1133.325264	-3.004700	3.593100	-10.795000	25.186987	0.000905	20.821911
1134.327843	-3.007200	3.594600	-10.808000	25.208663	0.000906	20.798155
1135.324788	-2.992400	3.593600	-10.751000	25.219249	0.000902	20.791239
1136.325582	-2.981900	3.592800	-10.712000	25.223605	0.000904	20.816000
1137.328027	-2.999500	3.593300	-10.777000	25.238424	0.000903	20.809542
1138.326973	-2.992200	3.593000	-10.750000	25.214607	0.000903	20.810286
1139.325896	-3.006100	3.591100	-10.795000	25.208915	0.000901	20.793666
1140.329370	-2.974400	3.594400	-10.689000	25.145862	0.000901	20.782997
1141.328750	-2.989300	3.592000	-10.736000	25.151872	0.000902	20.806574
1142.325522	-2.991600	3.591900	-10.744000	25.139347	0.000900	20.776931
1143.331118	-3.006200	3.590500	-10.792000	25.140138	0.000899	20.804277
1144.331419	-2.993500	3.590400	-10.747000	25.153720	0.000899	20.782825
1145.328599	-3.003800	3.591400	-10.787000	25.184843	0.000899	20.792259
1146.332185	-2.997700	3.591100	-10.765000	25.203483	0.000896	20.804334
1147.329270	-2.989600	3.591000	-10.733000	25.206747	0.000898	20.779162
1148.329852	-3.019600	3.587800	-10.833000	25.255766	0.000895	20.798030
1149.332142	-2.986800	3.588600	-10.716000	25.220395	0.000896	20.786699
1150.332218	-3.016700	3.588000	-10.822000	25.267426	0.000897	20.788399
1151.331857	-3.018100	3.587300	-10.826000	25.275682	0.000896	20.776774
1152.332016	-3.010100	3.588300	-10.800000	25.268150	0.000898	20.784385
1153.332698	-3.005100	3.587400	-10.779000	25.244691	0.000895	20.776005
1154.333979	-2.996500	3.586900	-10.747000	25.228333	0.000893	20.769064
1155.333237	-2.987700	3.587900	-10.719000	25.212251	0.000894	20.792274
1156.334610	-2.993400	3.587400	-10.738000	25.231842	0.000893	20.775907
1157.332101	-3.005700	3.586000	-10.778000	25.246451	0.000894	20.768762
1158.333298	-3.004200	3.585000	-10.770000	25.263053	0.000894	20.789225
1159.335078	-3.024500	3.584800	-10.840000	25.276438	0.000891	20.784171
1160.333417	-3.029900	3.585200	-10.862000	25.280860	0.000893	20.780550
1161.332910	-3.004000	3.584400	-10.766000	25.311517	0.000892	20.791890
1162.334550	-3.018100	3.584100	-10.815000	25.315725	0.000890	20.789478
1163.335074	-2.994200	3.585100	-10.733000	25.325594	0.000890	20.783739
1164.333375	-2.988300	3.583600	-10.708000	25.320367	0.000891	20.773275
1165.338373	-3.005300	3.582600	-10.766000	25.293726	0.000890	20.771656
1166.338294	-2.992400	3.584200	-10.723000	25.300158	0.000889	20.777641
1167.336679	-2.987600	3.583000	-10.704000	25.305206	0.000888	20.769433
1168.335780	-3.007900	3.581500	-10.772000	25.321028	0.000887	20.756394
1169.339579	-3.031800	3.582600	-10.860000	25.311257	0.000889	20.768870
1170.335968	-2.997900	3.583600	-10.743000	25.308147	0.000888	20.776653
1171.336439	-2.955100	3.583000	-10.586000	25.333656	0.000887	20.776661
1172.339967	-3.007700	3.583000	-10.775000	25.336905	0.000887	20.777552
1173.337557	-2.993700	3.580600	-10.717000	25.308262	0.000887	20.760173
1174.335891	-2.998500	3.581100	-10.736000	25.319718	0.000886	20.765037
1175.338704	-3.010600	3.580900	-10.780000	25.314174	0.000884	20.774643
1176.338483	-2.983000	3.582200	-10.684000	25.320599	0.000884	20.781095
1177.336485	-2.990100	3.580600	-10.706000	25.345659	0.000882	20.770221
1178.338470	-2.986800	3.581700	-10.696000	25.362481	0.000884	20.765774
1179.338065	-2.990700	3.579200	-10.704000	25.360014	0.000883	20.773729
1180.335429	-3.003400	3.578800	-10.748000	25.337526	0.000882	20.758261
1181.336539	-2.978700	3.579800	-10.662000	25.291295	0.000880	20.765423
1182.337896	-2.987900	3.580300	-10.695000	25.263904	0.000881	20.765423
1183.336422	-2.998900	3.578200	-10.729000	25.225765	0.000878	20.752736
1184.335949	-2.974300	3.578100	-10.640000	25.250177	0.000880	20.767288
1185.339004	-2.996300	3.576700	-10.715000	25.268140	0.000881	20.764934
1186.335967	-2.977900	3.577900	-10.653000	25.272496	0.000879	20.752237
1187.337791	-2.979300	3.578000	-10.659000	25.259297	0.000878	20.769806
1188.340530	-2.990400	3.578300	-10.699000	25.256204	0.000876	20.746311
1189.336537	-2.989900	3.578400	-10.699000	25.246563	0.000877	20.766504
1190.337986	-2.987500	3.577200	-10.686000	25.263116	0.000878	20.760364
1191.340670	-3.017700	3.576100	-10.790000	25.257417	0.000878	20.781669
1192.336618	-3.004700	3.576300	-10.745000	25.218194	0.000876	20.760308
1193.337823	-3.008100	3.574100	-10.750000	25.247304	0.000875	20.772464
1194.341551	-2.992800	3.575600	-10.700000	25.240668	0.000873	20.753473
1195.345949	-3.020400	3.574200	-10.795000	25.259314	0.000875	20.759391
1196.337765	-3.003000	3.574200	-10.732000	25.250984	0.000874	20.755296
1197.336942	-2.999500	3.574600	-10.720000	25.280485	0.000874	20.768319
1198.338159	-3.016000	3.573600	-10.778000	25.253818	0.000872	20.762882
1199.342231	-2.993400	3.574200	-10.697000	25.263508	0.000871	20.781620
1200.339979	-2.982700	3.572900	-10.656000	25.270893	0.000872	20.774810
1201.341477	-2.990400	3.574600	-10.688000	25.298731	0.000872	20.752026
1202.347215	-2.993600	3.572000	-10.693000	25.309145	0.000870	20.773388
1203.340813	-2.987700	3.573500	-10.675000	25.283269	0.000870	20.746932
1204.341431	-2.985400	3.572900	-10.666000	25.281779	0.000870	20.748281
1205.342650	-2.998500	3.571300	-10.708000	25.284189	0.000869	20.744063
1206.339323	-3.007600	3.570500	-10.738000	25.285281	0.000869	20.766970
1207.341191	-3.002600	3.570500	-10.720000	25.285932	0.000871	20.754821
1208.339571	-2.999500	3.570700	-10.709000	25.313175	0.000869	20.755148
1209.342002	-2.978500	3.571400	-10.637000	25.318688	0.000868	20.742665
1210.341379	-2.993000	3.570000	-10.684000	25.329899	0.000867	20.744439
1211.342264	-3.013000	3.570000	-10.756000	25.336087	0.000868	20.747333
1212.341639	-2.998300	3.569700	-10.702000	25.361644	0.000865	20.740751
1213.341562	-3.019800	3.568200	-10.774000	25.360699	0.000865	20.762089
1214.344840	-3.000200	3.569000	-10.706000	25.373530	0.000865	20.770705
1215.343179	-2.994300	3.568100	-10.683000	25.374394	0.000865	20.739803
1216.343079	-3.005800	3.567500	-10.722000	25.378220	0.000863	20.761190
1217.343258	-2.995400	3.567900	-10.686000	25.371935	0.000864	20.764361
1218.344556	-3.016000	3.567600	-10.758000	25.362204	0.000863	20.749849
1219.344528	-3.005100	3.568000	-10.721000	25.334636	0.000862	20.757730
1220.348318	-3.021400	3.567800	-10.778000	25.306684	0.000862	20.747682
1221.350148	-2.987400	3.568200	-10.659000	25.295098	0.000862	20.744584
1222.345952	-3.015000	3.567100	-10.753000	25.321169	0.000860	20.746105
1223.349752	-2.990400	3.567700	-10.667000	25.331412	0.000861	20.751173
1224.349604	-2.988400	3.567000	-10.659000	25.312554	0.000860	20.756895
1225.348670	-2.991900	3.566300	-10.668000	25.321103	0.000861	20.760264
1226.346540	-2.991500	3.566900	-10.668000	25.322650	0.000859	20.738108
1227.351613	-2.996600	3.564400	-10.680000	25.353736	0.000857	20.745139
1228.348647	-2.997100	3.564600	-10.682000	25.340318	0.000857	20.750633
1229.347246	-2.977900	3.565200	-10.616000	25.376858	0.000858	20.754606
1230.349904	-3.002000	3.564300	-10.700000	25.397016	0.000857	20.742604
1231.351597	-3.006600	3.562700	-10.710000	25.389559	0.000857	20.747444
1232.348359	-2.978300	3.564100	-10.614000	25.401819	0.000859	20.746004
1233.351765	-2.975100	3.564200	-10.602000	25.409871	0.000856	20.735123
1234.350350	-2.997600	3.563100	-10.680000	25.414625	0.000857	20.753173
1235.351877	-3.025400	3.561200	-10.773000	25.422799	0.000856	20.748105
1236.351598	-2.990000	3.562900	-10.651000	25.435996	0.000855	20.745709
1237.349517	-3.013300	3.561400	-10.730000	25.435230	0.000855	20.732138
1238.351861	-2.989600	3.562800	-10.650000	25.451952	0.000853	20.722376
1239.353019	-2.987700	3.560900	-10.639000	25.444527	0.000855	20.748112
1240.350492	-2.999700	3.559800	-10.677000	25.416195	0.000853	20.754277
1241.351723	-3.003800	3.560300	-10.693000	25.390777	0.000851	20.740133
1242.350863	-2.991400	3.561200	-10.652000	25.355899	0.000850	20.726448
1243.356385	-2.986000	3.559600	-10.627000	25.308113	0.000850	20.729202
1244.352935	-3.003100	3.560000	-10.690000	25.291332	0.000851	20.730371
1245.351154	-2.985900	3.560500	-10.630000	25.311142	0.000850	20.741253
1246.353458	-3.011400	3.559700	-10.719000	25.319650	0.000851	20.707593
1247.351214	-2.982200	3.559900	-10.615000	25.342709	0.000848	20.727428
1248.350283	-3.011500	3.557000	-10.710000	25.360612	0.000849	20.705100
1249.353918	-3.006100	3.558400	-10.696000	25.388326	0.000847	20.716807
1250.350112	-2.985100	3.558700	-10.622000	25.372092	0.000847	20.746501
1251.350835	-2.998000	3.556700	-10.662000	25.363568	0.000848	20.722293
1252.352363	-3.016600	3.556100	-10.726000	25.361711	0.000848	20.707625
1253.352444	-2.991400	3.556700	-10.638000	25.344784	0.000848	20.747056
1254.351559	-2.989600	3.555700	-10.629000	25.334997	0.000846	20.741022
1255.351028	-3.017600	3.554200	-10.723000	25.306459	0.000844	20.732283
1256.353215	-3.019900	3.555600	-10.736000	25.341559	0.000845	20.724377
1257.352965	-2.982200	3.556500	-10.604000	25.372050	0.000845	20.726069
1258.353257	-3.015400	3.554700	-10.718000	25.382960	0.000844	20.716161
1259.352739	-3.001500	3.554000	-10.665000	25.359951	0.000843	20.718188
1260.355979	-3.004600	3.553800	-10.676000	25.361490	0.000842	20.727320
1261.353635	-2.985700	3.553600	-10.607000	25.357111	0.000844	20.742838
1262.355028	-2.984300	3.554700	-10.607000	25.366734	0.000842	20.725947
1263.356392	-3.015800	3.552500	-10.713000	25.394937	0.000840	20.714910
1264.355524	-3.027600	3.552400	-10.753000	25.377636	0.000842	20.717927
1265.356472	-3.000700	3.551500	-10.656000	25.372246	0.000841	20.730534
1266.358454	-2.984400	3.551900	-10.599000	25.364365	0.000842	20.716930
1267.354687	-3.007000	3.551600	-10.678000	25.367142	0.000838	20.714502
1268.354630	-2.987100	3.552300	-10.610000	25.358422	0.000838	20.734197
1269.356468	-2.998600	3.551300	-10.647000	25.377587	0.000837	20.721672
1270.356326	-2.994100	3.550800	-10.631000	25.363389	0.000837	20.716423
1271.355556	-3.032800	3.549100	-10.762000	25.337392	0.000836	20.725883
1272.354595	-3.026800	3.548500	-10.739000	25.335853	0.000837	20.718647
1273.356719	-3.022300	3.550200	-10.728000	25.347764	0.000839	20.731556
1274.356462	-3.020000	3.549000	-10.717000	25.342122	0.000837	20.722571
1275.358840	-3.009400	3.548500	-10.678000	25.369609	0.000836	20.738791
1276.357983	-2.998300	3.551500	-10.648000	25.369934	0.000834	20.724418
1277.359079	-3.004700	3.548000	-10.659000	25.365390	0.000834	20.715114
1278.363746	-2.986100	3.549300	-10.598000	25.371970	0.000832	20.719350
1279.362462	-3.034700	3.546600	-10.760000	25.368199	0.000831	20.703235
1280.360883	-3.000900	3.547700	-10.645000	25.429481	0.000832	20.718777
1281.363505	-2.983500	3.547800	-10.584000	25.436938	0.000832	20.695444
1282.362973	-3.006200	3.547800	-10.664000	25.444444	0.000832	20.726217
1283.361191	-2.989800	3.546500	-10.602000	25.424221	0.000830	20.732462
1284.363030	-2.972000	3.547500	-10.542000	25.427624	0.000832	20.716913
1285.362681	-3.003300	3.547000	-10.652000	25.373604	0.000831	20.729052
1286.361115	-3.012000	3.545900	-10.679000	25.413734	0.000829	20.711974
1287.365770	-2.990300	3.545300	-10.600000	25.405144	0.000830	20.723738
1288.360530	-2.989800	3.545900	-10.600000	25.406781	0.000829	20.707837
1289.360753	-2.987700	3.547100	-10.596000	25.392794	0.000829	20.707542
1290.362620	-3.001700	3.544900	-10.640000	25.366521	0.000827	20.711508
1291.360580	-3.007700	3.545500	-10.663000	25.339962	0.000827	20.714237
1292.362486	-2.996600	3.544600	-10.621000	25.344628	0.000828	20.707542
1293.362493	-3.002200	3.543400	-10.637000	25.368239	0.000826	20.703749
1294.366986	-2.983400	3.545100	-10.576000	25.374556	0.000825	20.711989
1295.363882	-3.003600	3.542800	-10.640000	25.390863	0.000826	20.711768
1296.365630	-3.011500	3.542900	-10.668000	25.418153	0.000825	20.691280
1297.365825	-3.002400	3.543600	-10.639000	25.434117	0.000825	20.703044
1298.362582	-3.015800	3.542700	-10.683000	25.405037	0.000823	20.690911
1299.361203	-2.994700	3.542700	-10.608000	25.372210	0.000824	20.696830
1300.367032	-2.992700	3.541900	-10.599000	25.315420	0.000822	20.698604
1301.365276	-2.998500	3.541500	-10.619000	25.322259	0.000822	20.690771
1302.364361	-3.036800	3.540400	-10.749000	25.311593	0.000821	20.699977
1303.368722	-2.981100	3.541000	-10.555000	25.335010	0.000819	20.692668
1304.367615	-3.001800	3.540800	-10.627000	25.333006	0.000819	20.686388
1305.363877	-2.996800	3.540400	-10.608000	25.288542	0.000820	20.710498
1306.365972	-2.969200	3.542300	-10.516000	25.274780	0.000820	20.701897
1307.368102	-3.001300	3.540600	-10.626000	25.292995	0.000823	20.698848
1308.366620	-3.020100	3.539400	-10.687000	25.316461	0.000819	20.683526
1309.365654	-3.001400	3.540200	-10.625000	25.317087	0.000819	20.685578
1310.369263	-3.008100	3.538500	-10.642000	25.379837	0.000818	20.679831
1311.368191	-3.001700	3.537500	-10.617000	25.385917	0.000816	20.693049
1312.368586	-2.985000	3.538700	-10.562000	25.405334	0.000819	20.704487
1313.371603	-2.992400	3.538400	-10.587000	25.407590	0.000817	20.674032
1314.368769	-2.990700	3.538000	-10.580000	25.400937	0.000814	20.680155
1315.367292	-3.013400	3.537000	-10.656000	25.371156	0.000815	20.682969
1316.371740	-2.999900	3.537200	-10.611000	25.363478	0.000814	20.670516
1317.370691	-2.999000	3.537100	-10.606000	25.353569	0.000812	20.670524
1318.368013	-2.977500	3.537200	-10.532000	25.391444	0.000813	20.690539
1319.368751	-3.006100	3.536200	-10.628000	25.419280	0.000811	20.674391
1320.366039	-2.989500	3.536400	-10.571000	25.449133	0.000811	20.686826
1321.368953	-2.997900	3.534900	-10.596000	25.470105	0.000811	20.657622
1322.368526	-3.008800	3.535600	-10.636000	25.465244	0.000811	20.692099
1323.371995	-3.001600	3.534700	-10.609000	25.499761	0.000812	20.687406
1324.369273	-3.005100	3.535000	-10.622000	25.518126	0.000811	20.679770
1325.370390	-3.006400	3.534200	-10.625000	25.482819	0.000809	20.681773
1326.376575	-3.002300	3.533300	-10.607000	25.468280	0.000810	20.675706
1327.370804	-3.006400	3.532600	-10.619000	25.453471	0.000810	20.686441
1328.371889	-3.023100	3.533600	-10.681000	25.477349	0.000808	20.684814
1329.369729	-2.993900	3.534100	-10.580000	25.446885	0.000808	20.702114
1330.373148	-3.020300	3.532500	-10.668000	25.432971	0.000808	20.676286
1331.369651	-3.016000	3.532000	-10.651000	25.444035	0.000806	20.674593
1332.370255	-3.000800	3.532800	-10.600000	25.451362	0.000807	20.667726
1333.370043	-2.993600	3.531700	-10.572000	25.451671	0.000805	20.661871
1334.371108	-3.004900	3.532300	-10.613000	25.484048	0.000806	20.678264
1335.374681	-3.001100	3.529900	-10.593000	25.487531	0.000806	20.659001
1336.371637	-2.995600	3.531700	-10.579000	25.488500	0.000803	20.666613
1337.372619	-2.994500	3.530900	-10.571000	25.478683	0.000804	20.659124
1338.373272	-3.000400	3.530900	-10.594000	25.466886	0.000801	20.679522
1339.374950	-3.006200	3.530400	-10.612000	25.474497	0.000805	20.675311
1340.372607	-2.986800	3.530700	-10.544000	25.517349	0.000801	20.663815
1341.373828	-3.013000	3.528100	-10.628000	25.505961	0.000801	20.648109
1342.375927	-3.012200	3.528300	-10.627000	25.506881	0.000801	20.684599
1343.372892	-2.989800	3.529600	-10.551000	25.519384	0.000800	20.658272
1344.371959	-2.997200	3.527200	-10.571000	25.511382	0.000800	20.654977
1345.375402	-2.976500	3.528100	-10.500000	25.495329	0.000800	20.677739
1346.373182	-2.992400	3.527900	-10.556000	25.484053	0.000798	20.660250
1347.374071	-3.001200	3.525500	-10.579000	25.483955	0.000799	20.668213
1348.375332	-3.017700	3.526000	-10.639000	25.489247	0.000799	20.675425
1349.373182	-2.994000	3.526000	-10.555000	25.494668	0.000797	20.682766
1350.374979	-3.006700	3.526000	-10.600000	25.521882	0.000799	20.686862
1351.372615	-2.982500	3.525600	-10.514000	25.522232	0.000797	20.669194
1352.376170	-2.995500	3.525300	-10.559000	25.484516	0.000797	20.660241
1353.377016	-3.002600	3.523300	-10.576000	25.469756	0.000796	20.660118
1354.373922	-2.994400	3.523600	-10.549000	25.451936	0.000796	20.659766
1355.374538	-3.001700	3.524200	-10.577000	25.421643	0.000796	20.650209
1356.372380	-3.023600	3.522600	-10.649000	25.387441	0.000794	20.653798
1357.373876	-2.977100	3.523500	-10.489000	25.389288	0.000793	20.658499
1358.376052	-2.992600	3.524100	-10.545000	25.394189	0.000795	20.665791
1359.375210	-2.988400	3.523300	-10.528000	25.423945	0.000794	20.647305
1360.376142	-3.009600	3.522800	-10.601000	25.420314	0.000791	20.660256
1361.374465	-3.009000	3.521400	-10.594000	25.440741	0.000794	20.670811
1362.378200	-2.995700	3.521500	-10.548000	25.461118	0.000791	20.666143
1363.374602	-2.995600	3.521600	-10.548000	25.476480	0.000790	20.660705
1364.377635	-3.005900	3.522300	-10.587000	25.481495	0.000791	20.672855
1365.376672	-3.011700	3.520900	-10.603000	25.446659	0.000791	20.662054
1366.375546	-2.990300	3.520500	-10.525000	25.406376	0.000789	20.659536
1367.377991	-3.000300	3.521300	-10.563000	25.371391	0.000789	20.647639
1368.377174	-3.014100	3.520900	-10.612000	25.372703	0.000788	20.670770
1369.379527	-3.010800	3.519400	-10.595000	25.325284	0.000789	20.678160
1370.378331	-3.009000	3.517900	-10.584000	25.330454	0.000789	20.655374
1371.379066	-3.010700	3.517700	-10.588000	25.294141	0.000788	20.667752
1372.377951	-3.010600	3.518600	-10.592000	25.284101	0.000787	20.657671
1373.376707	-3.003700	3.517300	-10.564000	25.285469	0.000787	20.651457
1374.381576	-3.031100	3.516400	-10.656000	25.303740	0.000786	20.666485
1375.379540	-3.009500	3.517000	-10.583000	25.312566	0.000787	20.679615
1376.385072	-2.991100	3.517000	-10.519000	25.330966	0.000786	20.667743
1377.378085	-2.985400	3.517000	-10.499000	25.318950	0.000785	20.662315
1378.383316	-3.020900	3.517500	-10.625000	25.334565	0.000784	20.663770
1379.380987	-2.997200	3.517200	-10.540000	25.349351	0.000785	20.662495
1380.382557	-3.008200	3.516000	-10.576000	25.362826	0.000783	20.651841
1381.382263	-3.017200	3.514100	-10.599000	25.385744	0.000783	20.661104
1382.388908	-2.992300	3.515200	-10.518000	25.386184	0.000781	20.662495
1383.384899	-3.005600	3.515000	-10.564000	25.406790	0.000782	20.678920
1384.380260	-3.023900	3.514200	-10.626000	25.391866	0.000781	20.654923
1385.384840	-2.987800	3.515300	-10.501000	25.400887	0.000781	20.671095
1386.381234	-3.011600	3.513400	-10.580000	25.426972	0.000779	20.663623
1387.382969	-3.019200	3.512200	-10.603000	25.457371	0.000780	20.671864
1388.388799	-3.000000	3.512500	-10.537000	25.460050	0.000778	20.671234
1389.386373	-2.994100	3.512600	-10.517000	25.474638	0.000778	20.692999
1390.381101	-2.990600	3.512900	-10.504000	25.464681	0.000778	20.664979
1391.386458	-2.995100	3.512300	-10.519000	25.471788	0.000776	20.687765
1392.382715	-3.001200	3.511800	-10.539000	25.496121	0.000777	20.669051
1393.387337	-2.997700	3.511700	-10.525000	25.486377	0.000777	20.679655
1394.389966	-2.985200	3.511000	-10.480000	25.483715	0.000775	20.679353
1395.383035	-2.992700	3.511600	-10.507000	25.506680	0.000774	20.671119
1396.387346	-3.006200	3.511100	-10.554000	25.516839	0.000774	20.659510
1397.389867	-2.990500	3.509700	-10.495000	25.537719	0.000776	20.689016
1398.385625	-3.002200	3.509400	-10.535000	25.537475	0.000775	20.684977
1399.389763	-2.977200	3.510200	-10.449000	25.538664	0.000772	20.664832
1400.388171	-2.997700	3.508600	-10.516000	25.520355	0.000773	20.659247
1401.387760	-2.985400	3.508700	-10.474000	25.533218	0.000772	20.667424
1402.392812	-2.990300	3.509900	-10.495000	25.526119	0.000772	20.676891
1403.386709	-2.988600	3.507400	-10.482000	25.544085	0.000771	20.680235
1404.389760	-2.999300	3.507700	-10.520000	25.546030	0.000770	20.680292
1405.392087	-2.993400	3.507800	-10.499000	25.566796	0.000771	20.672697
1406.388240	-2.994200	3.507900	-10.502000	25.558525	0.000772	20.690471
1407.391969	-3.001200	3.505500	-10.520000	25.564932	0.000770	20.696906
1408.390419	-3.004300	3.506900	-10.535000	25.572624	0.000769	20.661953
1409.395117	-3.000800	3.505900	-10.519000	25.618069	0.000769	20.692424
1410.395928	-3.002300	3.505000	-10.522000	25.630417	0.000769	20.686333
1411.390183	-3.014400	3.504700	-10.563000	25.595782	0.000766	20.680471
1412.394206	-2.992000	3.505200	-10.487000	25.578436	0.000767	20.683439
1413.392224	-3.014800	3.504900	-10.564000	25.569123	0.000769	20.694476
1414.393985	-2.998300	3.504600	-10.507000	25.578199	0.000767	20.683201
1415.395140	-3.015700	3.502200	-10.560000	25.585794	0.000765	20.684191
1416.394400	-2.974900	3.504600	-10.425000	25.590376	0.000763	20.679309
1417.391608	-2.978100	3.505000	-10.437000	25.590124	0.000765	20.685221
1418.392947	-2.987500	3.503500	-10.465000	25.568529	0.000766	20.698147
1419.397470	-3.008000	3.500800	-10.529000	25.572436	0.000764	20.678361
1420.398074	-3.006100	3.502200	-10.526000	25.599941	0.000763	20.671845
1421.397178	-2.987500	3.501700	-10.460000	25.611450	0.000762	20.697157
1422.397658	-2.988800	3.501800	-10.465000	25.629065	0.000764	20.693511
1423.392918	-3.004300	3.499000	-10.511000	25.631206	0.000762	20.680961
1424.398215	-2.996100	3.500100	-10.486000	25.638263	0.000762	20.687101
1425.399038	-2.982000	3.501600	-10.439000	25.638295	0.000761	20.698039
1426.392947	-3.004500	3.499800	-10.514000	25.657888	0.000761	20.699226
1427.398942	-3.006900	3.499400	-10.521000	25.679212	0.000760	20.687452
1428.398423	-2.987600	3.499700	-10.453000	25.696899	0.000760	20.679137
1429.401395	-2.997800	3.498600	-10.488000	25.694766	0.000758	20.681737
1430.400183	-3.001400	3.499500	-10.502000	25.671879	0.000757	20.691467
1431.394281	-3.011300	3.496900	-10.529000	25.616700	0.000755	20.691049
1432.399349	-3.008300	3.498300	-10.522000	25.582708	0.000757	20.707172
1433.396341	-2.985900	3.498100	-10.444000	25.556895	0.000757	20.696420
1434.398704	-3.018200	3.496900	-10.553000	25.583033	0.000755	20.698489
1435.398346	-3.028100	3.495800	-10.584000	25.589310	0.000756	20.695784
1436.397014	-2.997500	3.496500	-10.480000	25.569782	0.000757	20.696560
1437.400137	-2.978700	3.497500	-10.418000	25.561609	0.000753	20.692619
1438.396787	-3.007400	3.494900	-10.510000	25.555723	0.000754	20.701882
1439.398770	-3.008300	3.494300	-10.511000	25.587926	0.000753	20.690125
1440.395565	-3.019600	3.493200	-10.546000	25.592671	0.000754	20.698211
1441.399611	-3.015400	3.494400	-10.536000	25.587324	0.000752	20.694263
1442.398994	-2.985800	3.495100	-10.434000	25.567299	0.000753	20.695015
1443.403546	-2.999700	3.494900	-10.482000	25.530227	0.000752	20.713263
1444.400265	-3.007000	3.492400	-10.500000	25.533931	0.000754	20.702282
1445.397079	-3.004600	3.493200	-10.494000	25.543863	0.000752	20.708938
1446.398734	-2.996200	3.493400	-10.466000	25.509851	0.000751	20.702282
1447.396545	-2.986700	3.493100	-10.432000	25.483508	0.000750	20.696216
1448.403726	-2.992000	3.492500	-10.447000	25.483256	0.000749	20.701653
1449.397984	-3.010600	3.491800	-10.511000	25.460323	0.000749	20.698538
1450.398795	-2.997700	3.491700	-10.466000	25.467804	0.000750	20.697990
1451.401775	-3.009300	3.490800	-10.504000	25.477142	0.000749	20.710213
1452.401792	-3.032100	3.489300	-10.578000	25.511349	0.000748	20.711848
1453.398935	-3.000900	3.491600	-10.476000	25.529608	0.000747	20.694622
1454.400961	-3.024100	3.489400	-10.551000	25.533532	0.000746	20.722746
1455.401824	-3.007000	3.489000	-10.491000	25.573290	0.000746	20.710516
1456.399043	-2.980100	3.489800	-10.399000	25.579264	0.000745	20.705135
1457.402191	-3.010500	3.488200	-10.500000	25.576976	0.000746	20.710899
1458.399402	-2.994100	3.488300	-10.442000	25.546630	0.000746	20.694646
1459.403400	-2.991500	3.487400	-10.431000	25.569740	0.000745	20.728763
1460.402701	-3.004900	3.487700	-10.478000	25.554314	0.000746	20.734134
1461.405159	-2.992800	3.487900	-10.438000	25.560648	0.000744	20.725795
1462.407679	-2.987800	3.487700	-10.419000	25.558213	0.000743	20.705332
1463.402199	-2.995300	3.486000	-10.441000	25.585068	0.000742	20.705749
1464.400471	-2.999500	3.486100	-10.456000	25.579809	0.000744	20.714219
1465.404952	-2.983200	3.486400	-10.399000	25.574510	0.000741	20.714113
1466.402320	-2.987700	3.484600	-10.409000	25.545955	0.000743	20.711513
1467.400140	-3.005100	3.484900	-10.470000	25.534420	0.000742	20.712732
1468.405649	-2.995300	3.485000	-10.438000	25.538278	0.000740	20.700484
1469.406648	-2.995800	3.485200	-10.440000	25.518269	0.000741	20.696511
1470.401103	-3.013800	3.483500	-10.497000	25.549512	0.000741	20.716982
1471.407074	-2.977100	3.485900	-10.377000	25.559370	0.000739	20.714080
1472.402478	-3.010800	3.482800	-10.485000	25.574657	0.000739	20.706199
1473.402963	-3.029200	3.482400	-10.547000	25.553387	0.000739	20.719926
1474.407808	-3.014900	3.482000	-10.498000	25.579728	0.000738	20.710818
1475.406086	-2.994800	3.482200	-10.428000	25.560119	0.000737	20.734274
1476.405222	-2.997300	3.481400	-10.433000	25.582260	0.000738	20.710041
1477.406772	-2.992000	3.480600	-10.414000	25.542625	0.000737	20.742310
1478.404558	-2.977900	3.481800	-10.367000	25.554502	0.000736	20.710614
1479.406555	-2.989100	3.479900	-10.401000	25.516014	0.000740	20.705626
1480.403847	-2.997400	3.479500	-10.429000	25.521085	0.000738	20.723523
1481.407878	-2.981100	3.481700	-10.379000	25.536715	0.000736	20.726891
1482.409111	-3.012500	3.479600	-10.481000	25.534785	0.000735	20.701718
1483.406354	-3.007100	3.479000	-10.461000	25.553330	0.000734	20.741207
1484.409218	-3.001200	3.480000	-10.443000	25.561795	0.000734	20.728845
1485.410223	-3.040100	3.476500	-10.566000	25.523674	0.000735	20.740822
1486.404765	-3.015600	3.478500	-10.489000	25.516640	0.000735	20.720481
1487.410480	-2.987500	3.478200	-10.391000	25.501059	0.000732	20.741819
1488.411459	-2.989000	3.477600	-10.393000	25.547501	0.000733	20.715437
1489.407205	-3.004000	3.478400	-10.448000	25.581698	0.000733	20.712322
1490.408303	-2.988000	3.477800	-10.389000	25.597848	0.000733	20.716688
1491.411505	-3.001500	3.475600	-10.431000	25.649063	0.000732	20.743945
1492.410597	-2.996300	3.476600	-10.416000	25.658130	0.000730	20.752578
1493.408316	-2.988200	3.475100	-10.383000	25.681449	0.000732	20.739962
1494.413226	-2.989800	3.475700	-10.390000	25.683631	0.000730	20.708961
1495.411070	-2.982700	3.476500	-10.368000	25.686935	0.000728	20.725557
1496.412921	-3.004000	3.474100	-10.435000	25.692356	0.000729	20.728631
1497.414378	-3.009000	3.474500	-10.452000	25.661695	0.000729	20.745726
1498.410651	-3.018400	3.472500	-10.481000	25.627053	0.000728	20.733218
1499.410291	-3.018900	3.473100	-10.483000	25.627655	0.000727	20.735719
1500.415871	-2.994600	3.474000	-10.402000	25.588200	0.000727	20.741139
1501.412237	-2.998600	3.475000	-10.418000	25.540963	0.000728	20.724993
1502.412189	-2.976900	3.473800	-10.341000	25.539603	0.000726	20.733585
1503.413779	-2.999400	3.472200	-10.414000	25.516061	0.000727	20.753566
1504.416013	-3.001000	3.471300	-10.415000	25.473200	0.000726	20.727592
1505.411537	-2.984600	3.472100	-10.362000	25.458367	0.000726	20.745415
1506.419281	-3.017100	3.470400	-10.469000	25.491468	0.000726	20.746412
1507.417408	-3.017000	3.469400	-10.466000	25.499641	0.000726	20.744188
1508.415804	-2.998800	3.471800	-10.410000	25.550323	0.000725	20.742929
1509.419075	-2.996700	3.470800	-10.399000	25.567190	0.000728	20.756549
1510.413145	-3.004100	3.470500	-10.424000	25.562941	0.000723	20.757023
1511.419863	-3.022900	3.468800	-10.485000	25.586352	0.000723	20.747343
1512.412715	-2.994400	3.469000	-10.385000	25.600442	0.000721	20.741580
1513.417400	-3.004000	3.468900	-10.420000	25.616445	0.000722	20.755282
1514.417650	-2.994500	3.467200	-10.382000	25.643705	0.000723	20.743305
1515.414610	-2.986200	3.467500	-10.353000	25.649167	0.000720	20.748316
1516.420156	-2.998300	3.467600	-10.396000	25.649191	0.000720	20.741228
1517.416820	-2.987500	3.466200	-10.353000	25.643054	0.000719	20.738383
1518.418157	-2.977600	3.467400	-10.324000	25.625415	0.000719	20.765239
1519.416401	-2.961400	3.466900	-10.266000	25.618553	0.000720	20.745071
1520.414174	-2.991500	3.466600	-10.369000	25.621907	0.000717	20.739904
1521.419224	-2.987700	3.465300	-10.351000	25.625236	0.000717	20.761740
1522.418647	-2.978300	3.465700	-10.320000	25.602787	0.000717	20.762428
1523.415675	-3.000000	3.465400	-10.395000	25.581004	0.000717	20.756198
1524.415092	-2.999200	3.463800	-10.388000	25.587337	0.000717	20.744066
1525.416738	-2.998300	3.463800	-10.385000	25.600524	0.000716	20.752569
1526.422058	-2.995000	3.463000	-10.371000	25.626067	0.000717	20.743134
1527.418875	-2.972800	3.464500	-10.297000	25.636104	0.000716	20.762224
1528.422268	-2.994000	3.463700	-10.370000	25.670339	0.000717	20.741606
1529.422625	-2.984700	3.463700	-10.337000	25.671381	0.000715	20.763516
1530.424868	-3.005300	3.461200	-10.401000	25.618628	0.000716	20.752259
1531.422756	-3.000100	3.462700	-10.387000	25.600054	0.000714	20.771537
1532.420091	-3.009000	3.462200	-10.417000	25.601690	0.000715	20.759430
1533.423288	-2.981900	3.461300	-10.320000	25.636626	0.000713	20.760378
1534.421166	-3.027700	3.459900	-10.475000	25.692903	0.000714	20.768063
1535.428829	-3.001600	3.460300	-10.385000	25.715774	0.000712	20.773492
1536.424805	-3.008700	3.459600	-10.408000	25.716499	0.000712	20.766633
1537.423904	-3.004800	3.459300	-10.393000	25.742902	0.000712	20.778455
1538.421075	-2.997700	3.459600	-10.369000	25.781512	0.000710	20.774089
1539.425017	-3.007600	3.458400	-10.401000	25.800288	0.000710	20.781570
1540.422882	-3.007300	3.457700	-10.397000	25.788284	0.000711	20.778521
1541.426660	-3.012700	3.457400	-10.414000	25.778322	0.000710	20.781791
1542.426027	-2.988600	3.458900	-10.335000	25.817420	0.000709	20.759424
1543.427950	-3.008100	3.457600	-10.399000	25.816549	0.000708	20.772774
1544.426547	-3.000000	3.457800	-10.372000	25.813294	0.000707	20.766185
1545.430494	-3.013500	3.456600	-10.416000	25.782458	0.000707	20.793057
1546.430508	-3.018700	3.455400	-10.428000	25.775475	0.000708	20.784621
1547.428619	-2.999500	3.455300	-10.364000	25.780895	0.000709	20.774418
1548.435068	-3.013600	3.454600	-10.409000	25.765017	0.000708	20.791659
1549.428735	-3.003100	3.455600	-10.375000	25.799345	0.000706	20.773511
1550.428535	-2.998100	3.455000	-10.358000	25.802821	0.000705	20.790752
1551.427838	-2.979800	3.454100	-10.292000	25.819146	0.000703	20.785814
1552.429531	-2.969600	3.455800	-10.261000	25.801234	0.000705	20.772562
1553.430095	-3.002500	3.452400	-10.364000	25.777583	0.000703	20.785316
1554.433870	-2.996600	3.451900	-10.343000	25.749505	0.000704	20.784139
1555.429916	-2.984300	3.453500	-10.304000	25.711219	0.000703	20.798788
1556.432136	-2.963400	3.453600	-10.233000	25.716338	0.000702	20.792077
1557.428967	-2.983700	3.452600	-10.301000	25.704016	0.000701	20.788234
1558.434826	-2.989300	3.452000	-10.318000	25.741976	0.000703	20.787482
1559.428686	-2.979600	3.451800	-10.284000	25.732804	0.000703	20.783959
1560.429906	-3.001400	3.451800	-10.359000	25.769607	0.000701	20.796270
1561.435247	-2.996600	3.451100	-10.340000	25.754795	0.000700	20.816479
1562.434786	-2.995500	3.450400	-10.335000	25.782646	0.000699	20.804626
1563.433487	-3.005100	3.450900	-10.369000	25.763642	0.000700	20.770838
1564.434588	-2.992600	3.450500	-10.324000	25.763390	0.000699	20.782913
1565.437264	-2.979900	3.451100	-10.283000	25.802512	0.000698	20.807038
1566.435027	-3.000300	3.447500	-10.343000	25.786764	0.000698	20.794064
1567.439694	-2.968200	3.448600	-10.235000	25.837889	0.000699	20.788047
1568.433542	-2.996300	3.448700	-10.332000	25.814313	0.000697	20.818417
1569.436663	-3.010400	3.447500	-10.377000	25.826537	0.000699	20.805566
1570.435514	-3.006900	3.445800	-10.360000	25.836750	0.000699	20.798756
1571.436612	-2.991900	3.449100	-10.317000	25.812214	0.000696	20.805878
1572.439028	-3.000100	3.447800	-10.343000	25.765466	0.000696	20.819611
1573.435199	-3.003500	3.446800	-10.351000	25.790843	0.000698	20.810963
1574.439418	-3.012000	3.444800	-10.375000	25.794294	0.000697	20.808266
1575.436872	-3.007000	3.446100	-10.361000	25.804263	0.000695	20.794098
1576.439986	-3.002300	3.445700	-10.343000	25.793626	0.000695	20.810440
1577.436487	-3.025500	3.443800	-10.418000	25.810913	0.000694	20.813105
1578.441140	-3.000000	3.444400	-10.332000	25.806396	0.000694	20.798611
1579.445843	-3.017600	3.444300	-10.393000	25.803458	0.000692	20.830273
1580.438307	-3.008000	3.443800	-10.358000	25.844142	0.000693	20.830363
1581.444205	-2.978900	3.444200	-10.259000	25.849554	0.000692	20.813041
1582.441005	-2.989100	3.443400	-10.292000	25.864186	0.000691	20.824895
1583.438249	-2.980600	3.443700	-10.263000	25.882570	0.000693	20.799740
1584.440277	-3.001400	3.442400	-10.330000	25.872748	0.000691	20.825909
1585.443036	-2.989100	3.443000	-10.290000	25.887233	0.000690	20.822443
1586.437764	-2.997800	3.441600	-10.316000	25.873912	0.000691	20.812380
1587.439639	-3.002100	3.441200	-10.330000	25.883719	0.000689	20.817490
1588.441510	-2.999200	3.440900	-10.319000	25.870104	0.000689	20.812348
1589.440163	-3.001500	3.440400	-10.326000	25.848360	0.000690	20.829859
1590.438862	-3.003300	3.440200	-10.331000	25.873222	0.000689	20.804574
1591.442437	-3.023300	3.438800	-10.394000	25.910208	0.000688	20.802850
1592.441689	-3.008200	3.440000	-10.347000	25.888563	0.000686	20.807183
1593.438942	-3.009200	3.438100	-10.345000	25.938421	0.000688	20.818865
1594.439824	-3.017300	3.438500	-10.374000	25.950636	0.000687	20.817386
1595.441283	-3.038200	3.437300	-10.442000	25.961736	0.000688	20.808623
1596.439443	-3.008800	3.438800	-10.345000	25.966325	0.000685	20.843579
1597.439938	-3.001300	3.438800	-10.320000	25.953803	0.000684	20.822938
1598.444463	-2.997000	3.437900	-10.302000	25.906598	0.000685	20.810128
1599.445848	-3.011300	3.436300	-10.346000	25.884764	0.000684	20.821385
1600.445308	-2.988900	3.438200	-10.275000	25.894644	0.000686	20.815189
1601.442080	-3.015500	3.436400	-10.361000	25.884163	0.000683	20.813194
1602.445692	-2.979000	3.437800	-10.239000	25.861223	0.000682	20.813857
1603.448650	-3.008100	3.434200	-10.329000	25.873470	0.000682	20.844652
1604.441599	-3.014600	3.436500	-10.357000	25.878386	0.000682	20.822090
1605.444557	-2.989900	3.436100	-10.272000	25.899625	0.000680	20.827779
1606.442975	-2.994800	3.434700	-10.286000	25.904167	0.000682	20.812427
1607.443061	-2.999900	3.434400	-10.302000	25.890210	0.000679	20.789872
1608.442075	-3.026100	3.432800	-10.386000	25.896867	0.000680	20.826905
1609.442738	-2.989300	3.435700	-10.270000	25.910774	0.000681	20.842772
1610.442598	-3.003000	3.433400	-10.309000	25.916096	0.000679	20.811609
1611.448742	-3.008800	3.432200	-10.326000	25.906754	0.000679	20.808863
1612.443955	-3.011200	3.433000	-10.337000	25.935960	0.000677	20.810229
1613.447534	-2.996600	3.433500	-10.288000	25.926147	0.000678	20.811275
1614.446733	-3.011300	3.431600	-10.333000	25.897282	0.000679	20.811676
1615.443846	-3.000900	3.432500	-10.300000	25.914526	0.000679	20.797230
1616.458287	-2.992500	3.431400	-10.267000	25.900342	0.000679	20.821861
1617.449891	-3.029200	3.430200	-10.390000	25.913704	0.000677	20.815845
1618.445719	-2.995000	3.430100	-10.272000	25.910848	0.000674	20.807760
1619.449073	-3.007800	3.430200	-10.316000	25.917773	0.000675	20.796699
1620.450651	-2.985400	3.430800	-10.242000	25.920972	0.000675	20.803232
1621.451893	-2.996000	3.430400	-10.277000	25.909921	0.000673	20.777905
1622.446287	-3.022700	3.428400	-10.362000	25.864544	0.000674	20.804391
1623.449462	-2.977600	3.429700	-10.211000	25.796395	0.000674	20.765805
1624.444346	-2.983800	3.429100	-10.231000	25.745145	0.000672	20.794459
1625.451369	-2.999300	3.427500	-10.279000	25.692974	0.000673	20.791842
1626.445314	-2.992100	3.429100	-10.260000	25.658358	0.000672	20.796429
1627.449889	-2.993900	3.428300	-10.262000	25.619303	0.000672	20.794189
1628.447907	-2.978900	3.427100	-10.208000	25.618628	0.000670	20.781182
1629.449819	-3.012200	3.426000	-10.317000	25.626116	0.000672	20.786806
1630.451579	-3.006700	3.426700	-10.302000	25.638261	0.000672	20.784779
1631.448743	-2.988100	3.426400	-10.237000	25.643055	0.000672	20.788172
1632.447820	-2.996100	3.426100	-10.263000	25.657722	0.000670	20.778721
1633.449628	-3.002700	3.425100	-10.284000	25.695408	0.000670	20.783381
1634.450014	-3.002700	3.425200	-10.284000	25.734824	0.000671	20.783143
1635.453182	-2.982200	3.425700	-10.216000	25.754154	0.000667	20.796869
1636.452746	-2.997700	3.424500	-10.265000	25.750182	0.000667	20.786715
1637.456874	-2.988800	3.425100	-10.236000	25.773402	0.000666	20.789177
1638.453118	-3.037200	3.421900	-10.392000	25.792259	0.000667	20.792471
1639.451818	-3.028400	3.421500	-10.360000	25.762602	0.000666	20.792553
1640.456016	-2.993400	3.422200	-10.243000	25.819718	0.000665	20.769793
1641.457907	-3.049400	3.422000	-10.434000	25.789679	0.000666	20.779922
1642.452424	-3.008100	3.422500	-10.294000	25.769161	0.000665	20.780175
1643.456720	-3.004300	3.422000	-10.280000	25.788523	0.000663	20.765958
1644.456171	-2.994900	3.422200	-10.248000	25.793732	0.000665	20.768820
1645.461239	-3.012500	3.420000	-10.302000	25.819424	0.000665	20.760963
1646.454799	-3.005600	3.421000	-10.281000	25.799827	0.000662	20.773520
1647.458791	-3.007600	3.419900	-10.285000	25.746584	0.000665	20.775041
1648.460066	-3.002800	3.420300	-10.269000	25.706711	0.000662	20.776242
1649.454712	-2.996500	3.420800	-10.249000	25.686363	0.000663	20.766710
1650.454747	-2.992300	3.419600	-10.231000	25.696374	0.000662	20.765386
1651.455806	-2.997400	3.418700	-10.246000	25.735360	0.000661	20.774198
1652.460033	-3.009000	3.418000	-10.284000	25.761396	0.000661	20.755779
1653.458531	-3.007800	3.418200	-10.280000	25.745241	0.000659	20.766105
1654.457171	-3.010200	3.417500	-10.286000	25.711928	0.000658	20.754929
1655.461405	-3.003200	3.417300	-10.262000	25.726489	0.000659	20.762917
1656.460929	-3.002300	3.417400	-10.260000	25.749473	0.000658	20.757553
1657.457742	-3.006000	3.417200	-10.271000	25.750214	0.000658	20.749763
1658.459046	-3.001600	3.415600	-10.251000	25.758637	0.000658	20.743999
1659.456161	-2.992500	3.416700	-10.224000	25.780009	0.000658	20.754561
1660.456820	-3.010800	3.415400	-10.282000	25.800209	0.000657	20.766791
1661.460053	-2.984800	3.416900	-10.196000	25.781100	0.000657	20.766088
1662.456704	-3.006700	3.415500	-10.269000	25.760917	0.000655	20.740124
1663.458670	-2.995500	3.415100	-10.229000	25.751532	0.000653	20.753932
1664.457847	-3.012500	3.413800	-10.283000	25.755675	0.000656	20.765206
1665.458138	-3.005100	3.415100	-10.261000	25.752484	0.000654	20.753939
1666.457328	-2.997800	3.414100	-10.233000	25.730135	0.000655	20.752355
1667.461913	-3.009400	3.414000	-10.273000	25.701973	0.000654	20.744930
1668.457493	-3.002200	3.413000	-10.246000	25.678778	0.000651	20.759091
1669.466644	-2.999700	3.412200	-10.235000	25.628499	0.000651	20.754586
1670.460555	-2.994400	3.412500	-10.218000	25.623200	0.000652	20.755428
1671.461977	-2.999900	3.413500	-10.240000	25.622818	0.000651	20.743665
1672.463070	-3.007100	3.410200	-10.254000	25.648190	0.000651	20.746387
1673.458843	-2.981400	3.411900	-10.171000	25.686754	0.000649	20.749084
1674.463404	-2.996900	3.411600	-10.223000	25.716967	0.000650	20.732014
1675.459433	-3.006700	3.409200	-10.250000	25.757035	0.000649	20.742864
1676.460366	-3.006700	3.409400	-10.250000	25.774867	0.000648	20.736119
1677.463921	-3.007500	3.409500	-10.253000	25.798274	0.000648	20.745881
1678.469145	-3.013000	3.407800	-10.266000	25.796581	0.000650	20.728532
1679.468675	-2.981300	3.410400	-10.166000	25.840755	0.000648	20.757261
1680.465222	-2.994400	3.409700	-10.209000	25.853590	0.000648	20.737910
1681.468429	-3.009000	3.408300	-10.254000	25.829273	0.000648	20.747622
1682.466237	-3.005600	3.407700	-10.241000	25.817847	0.000648	20.771233
1683.467999	-2.998600	3.408700	-10.220000	25.805892	0.000648	20.743576
1684.469352	-3.006300	3.406400	-10.239000	25.818181	0.000646	20.747386
1685.464770	-3.008300	3.406500	-10.246000	25.816594	0.000646	20.736782
1686.467834	-3.012800	3.405700	-10.259000	25.817237	0.000644	20.754025
1687.464662	-3.018800	3.406800	-10.283000	25.830405	0.000644	20.741647
1688.465874	-2.995900	3.407400	-10.207000	25.837258	0.000645	20.737625
1689.465991	-2.989000	3.406700	-10.181000	25.833653	0.000643	20.759135
1690.468301	-3.003500	3.405700	-10.228000	25.842946	0.000644	20.733856
1691.467901	-3.004200	3.404700	-10.227000	25.826898	0.000642	20.755668
1692.467155	-3.001500	3.406500	-10.223000	25.791992	0.000643	20.742416
1693.471125	-2.993700	3.404400	-10.190000	25.797363	0.000642	20.747811
1694.466479	-3.012900	3.402700	-10.251000	25.766055	0.000643	20.732009
1695.471048	-2.982600	3.404000	-10.150000	25.773852	0.000643	20.758808
1696.472774	-3.021000	3.402500	-10.278000	25.785832	0.000640	20.726743
1697.470193	-3.009500	3.402500	-10.239000	25.808310	0.000639	20.732254
1698.472255	-3.007500	3.401600	-10.229000	25.825548	0.000641	20.727758
1699.476753	-2.985300	3.401200	-10.153000	25.836705	0.000641	20.732802
1700.469960	-3.018400	3.401300	-10.266000	25.878444	0.000641	20.736799
1701.474905	-2.992800	3.401500	-10.179000	25.922632	0.000640	20.737568
1702.471654	-2.996000	3.401800	-10.191000	25.908644	0.000638	20.750543
1703.475991	-2.981800	3.401200	-10.141000	25.916562	0.000638	20.730996
1704.479516	-2.987700	3.401600	-10.163000	25.906431	0.000639	20.743578
1705.475335	-2.991300	3.401400	-10.173000	25.882010	0.000638	20.715250
1706.478081	-2.997000	3.399600	-10.188000	25.886632	0.000638	20.757828
1707.475060	-2.985400	3.401200	-10.153000	25.886128	0.000636	20.744045
1708.473770	-2.994200	3.399400	-10.177000	25.914300	0.000635	20.736310
1709.477334	-2.981200	3.400800	-10.137000	25.938200	0.000635	20.728552
1710.474816	-3.003200	3.398000	-10.204000	25.921607	0.000636	20.735591
1711.479111	-2.998500	3.397500	-10.186000	25.922674	0.000636	20.726704
1712.477572	-2.980300	3.399100	-10.130000	25.941748	0.000633	20.726900
1713.476442	-2.983000	3.398900	-10.138000	25.940682	0.000634	20.726778
1714.477731	-3.004600	3.396100	-10.203000	25.945059	0.000633	20.734495
1715.481396	-3.000100	3.395900	-10.187000	25.984053	0.000633	20.730996
1716.482906	-3.003300	3.396900	-10.201000	25.998642	0.000631	20.740438
1717.481948	-2.993700	3.395700	-10.165000	25.994583	0.000632	20.729721
1718.477874	-3.013100	3.395400	-10.230000	25.927621	0.000632	20.724087
1719.503004	-3.003800	3.395800	-10.199000	25.917612	0.000632	20.728731
1720.500476	-3.030800	3.392100	-10.279000	25.916790	0.000629	20.732173
1721.502736	-3.016300	3.394600	-10.237000	25.942797	0.000629	20.711832
1722.500780	-3.012400	3.392800	-10.219000	25.967787	0.000628	20.735517
1723.513071	-3.008200	3.393200	-10.206000	25.958494	0.000632	20.718594
1724.510231	-3.002700	3.392900	-10.187000	25.928491	0.000626	20.725436
1725.505573	-2.992200	3.393500	-10.154000	25.948720	0.000628	20.713041
1726.488191	-2.984600	3.392300	-10.124000	25.938687	0.000627	20.720980
1727.508770	-3.010800	3.392300	-10.213000	25.936620	0.000628	20.728387
1728.513635	-3.037100	3.390800	-10.297000	25.928279	0.000627	20.715739
1729.498974	-3.027500	3.390600	-10.264000	25.922185	0.000625	20.713410
1730.512551	-3.024200	3.390700	-10.253000	25.953163	0.000627	20.712764
1731.505337	-2.990100	3.391500	-10.139000	25.960593	0.000623	20.719754
1732.510105	-3.010600	3.391400	-10.208000	25.959201	0.000624	20.716459
1733.502715	-3.014500	3.389900	-10.218000	25.978006	0.000623	20.726343
1734.500524	-2.999600	3.389200	-10.164000	25.940892	0.000624	20.709918
1735.515197	-2.985300	3.388500	-10.115000	25.955457	0.000624	20.722181
1736.509841	-3.011800	3.389600	-10.207000	25.934146	0.000623	20.709779
1737.503527	-3.007100	3.388500	-10.188000	25.884685	0.000621	20.724102
1738.507243	-2.992900	3.389800	-10.144000	25.867596	0.000621	20.714046
1739.515102	-3.009900	3.388200	-10.198000	25.820216	0.000623	20.728092
1740.503050	-3.004300	3.388300	-10.178000	25.808032	0.000622	20.699730
1741.522934	-2.985800	3.387800	-10.114000	25.803035	0.000619	20.728378
1742.507447	-3.018400	3.386300	-10.220000	25.831056	0.000622	20.715747
1743.508896	-3.014800	3.387000	-10.209000	25.861467	0.000619	20.713580
1744.510408	-3.004700	3.386300	-10.174000	25.822982	0.000621	20.721862
1745.511060	-2.998400	3.386200	-10.152000	25.850310	0.000620	20.698103
1746.515403	-2.998100	3.386700	-10.152000	25.869019	0.000619	20.715476
1747.514748	-2.998400	3.387400	-10.155000	25.850384	0.000619	20.697229
1748.511902	-3.007800	3.386400	-10.184000	25.848031	0.000617	20.734697
1749.512468	-3.035600	3.383700	-10.270000	25.866520	0.000615	20.711069
1750.514243	-2.988100	3.386200	-10.117000	25.886312	0.000617	20.679266
1751.513011	-2.987000	3.385400	-10.110000	25.922760	0.000618	20.698814
1752.525350	-2.994400	3.384600	-10.134000	25.877271	0.000616	20.699582
1753.513891	-3.004500	3.383900	-10.166000	25.884823	0.000615	20.690099
1754.491963	-2.999200	3.383700	-10.147000	25.883040	0.000615	20.683091
1755.521816	-2.990900	3.384100	-10.121000	25.876855	0.000614	20.701062
1756.523976	-3.018400	3.382600	-10.209000	25.878393	0.000614	20.685062
1757.512894	-2.996500	3.383200	-10.136000	25.850871	0.000612	20.699615
1758.509646	-2.999100	3.382200	-10.142000	25.836238	0.000612	20.707676
1759.516343	-2.994300	3.382700	-10.128000	25.807274	0.000614	20.697072
1760.492707	-3.004100	3.381000	-10.156000	25.767168	0.000609	20.695666
1761.496535	-3.012000	3.380800	-10.182000	25.772962	0.000611	20.687735
1762.493178	-3.012500	3.380800	-10.184000	25.799046	0.000611	20.691651
1763.498523	-3.002000	3.380000	-10.146000	25.760290	0.000610	20.691128
1764.498827	-2.981200	3.381100	-10.079000	25.716617	0.000609	20.687089
1765.500316	-3.001200	3.380500	-10.145000	25.720988	0.000608	20.697644
1766.495520	-3.012600	3.378800	-10.178000	25.762301	0.000607	20.697890
1767.528940	-3.004000	3.378900	-10.148000	25.770309	0.000608	20.682224
1768.515633	-3.005600	3.378600	-10.154000	25.808194	0.000607	20.692779
1769.518237	-2.982800	3.378700	-10.077000	25.860961	0.000607	20.706433
1770.516350	-3.015400	3.377100	-10.182000	25.892358	0.000607	20.693401
1771.521296	-2.987800	3.378300	-10.093000	25.915331	0.000607	20.687081
1772.521044	-2.999800	3.377500	-10.131000	25.901244	0.000605	20.681939
1773.514504	-2.997000	3.377700	-10.121000	25.861556	0.000606	20.686639
1774.504217	-3.007000	3.376900	-10.153000	25.835497	0.000605	20.675160
1775.505970	-3.008600	3.376600	-10.157000	25.821158	0.000604	20.689681
1776.503564	-3.023200	3.374800	-10.200000	25.863859	0.000606	20.688005
1777.503669	-3.012300	3.375500	-10.167000	25.885644	0.000605	20.674801
1778.505204	-3.008100	3.375000	-10.152000	25.928749	0.000604	20.682543
1779.504954	-2.999300	3.376200	-10.125000	25.935870	0.000602	20.672153
1780.501159	-3.021000	3.375000	-10.195000	25.941582	0.000602	20.669831
1781.515408	-2.993300	3.375900	-10.103000	25.952486	0.000604	20.693590
1782.508874	-3.011100	3.373500	-10.157000	25.963342	0.000601	20.687899
1783.505125	-2.984200	3.375200	-10.071000	25.995256	0.000600	20.696730
1784.501863	-3.009900	3.373500	-10.153000	26.012165	0.000599	20.680526
1785.507257	-3.004200	3.373300	-10.133000	26.020065	0.000600	20.676135
1786.506050	-2.979600	3.373600	-10.051000	26.034069	0.000600	20.685939
1787.505249	-2.985600	3.372900	-10.069000	26.001408	0.000597	20.681573
1788.507839	-2.971300	3.373500	-10.022000	26.010399	0.000599	20.720007
1789.510159	-2.996500	3.372500	-10.105000	26.022165	0.000597	20.685833
1790.523379	-3.020700	3.370200	-10.179000	26.019806	0.000597	20.675875
1791.527505	-3.006100	3.371200	-10.133000	26.031222	0.000596	20.668852
1792.532846	-3.006800	3.370800	-10.134000	26.045916	0.000597	20.673658
1793.525006	-2.982900	3.371500	-10.055000	26.079984	0.000597	20.666162
1794.529432	-2.986100	3.370400	-10.063000	26.052686	0.000596	20.673823
1795.532363	-2.997200	3.371400	-10.104000	26.029433	0.000594	20.684125
1796.535367	-2.997200	3.370800	-10.103000	25.977715	0.000595	20.661086
1797.532123	-2.986300	3.370300	-10.063000	25.968080	0.000594	20.669425
1798.543556	-2.997100	3.370500	-10.101000	25.982182	0.000594	20.685491
1799.533847	-2.999900	3.369000	-10.106000	26.002972	0.000592	20.676980
1800.522971	-3.008600	3.368500	-10.134000	26.012802	0.000593	20.665044
1801.509768	-3.008300	3.369100	-10.135000	26.022891	0.000593	20.666646
1802.510608	-2.993200	3.367800	-10.080000	26.043754	0.000592	20.677176
1803.528242	-3.020100	3.366100	-10.164000	26.057505	0.000592	20.657326
1804.543351	-2.983300	3.367400	-10.045000	26.023283	0.000591	20.671781
1805.532377	-3.005900	3.367300	-10.120000	25.986464	0.000590	20.672722
1806.537835	-3.003600	3.366700	-10.112000	25.975934	0.000590	20.668306
1807.533891	-3.015500	3.365000	-10.146000	26.001216	0.000590	20.668102
1808.528993	-3.003900	3.365500	-10.108000	26.022950	0.000591	20.642994
1809.533218	-3.024100	3.364100	-10.172000	26.029085	0.000590	20.678560
1810.533402	-3.007500	3.364400	-10.117000	26.040558	0.000590	20.686768
1811.515377	-2.985300	3.365500	-10.045000	26.065912	0.000587	20.670989
1812.532915	-3.003400	3.366400	-10.109000	26.078580	0.000588	20.672338
1813.540345	-2.999000	3.364500	-10.088000	26.085235	0.000588	20.670491
1814.534055	-2.976900	3.364600	-10.015000	26.088035	0.000587	20.668562
1815.531331	-3.018900	3.363300	-10.153000	26.055375	0.000586	20.681741
1816.535388	-3.012700	3.363700	-10.132000	26.052649	0.000586	20.688011
1817.531552	-3.002300	3.364300	-10.099000	26.017101	0.000585	20.667466
1818.549181	-3.010000	3.362200	-10.118000	26.016743	0.000585	20.666159
1819.532064	-2.987600	3.364500	-10.051000	25.994367	0.000587	20.656478
1820.536424	-3.006000	3.362800	-10.107000	25.948710	0.000583	20.645694
1821.515711	-2.987600	3.362100	-10.043000	25.949580	0.000584	20.682608
1822.532226	-3.012000	3.361100	-10.122000	25.950451	0.000584	20.653134
1823.533168	-2.995000	3.361300	-10.066000	25.963519	0.000583	20.674326
1824.529990	-2.999200	3.361200	-10.080000	26.006686	0.000582	20.656527
1825.531865	-3.016400	3.360200	-10.134000	26.011080	0.000583	20.679911
1826.526824	-3.023400	3.360500	-10.158000	26.027280	0.000581	20.653510
1827.532193	-3.025100	3.359700	-10.162000	26.060632	0.000580	20.673746
1828.536875	-3.015900	3.358900	-10.129000	26.038599	0.000580	20.657770
1829.528479	-2.986800	3.361300	-10.038000	26.091729	0.000583	20.674645
1830.543555	-2.989000	3.360000	-10.042000	26.054994	0.000579	20.670451
1831.534045	-2.984700	3.360200	-10.028000	26.046353	0.000577	20.661768
1832.530688	-2.999700	3.359000	-10.075000	26.020145	0.000577	20.673370
1833.534323	-3.019900	3.357000	-10.137000	25.990136	0.000578	20.665031
1834.538379	-3.023200	3.356600	-10.147000	25.989941	0.000577	20.662463
1835.533309	-3.029700	3.356000	-10.165000	25.997142	0.000577	20.669699
1836.538987	-3.004100	3.356700	-10.081000	25.979956	0.000576	20.663338
1837.538368	-3.014800	3.355200	-10.114000	25.983285	0.000576	20.664311
1838.536006	-2.989500	3.356900	-10.034000	25.990266	0.000575	20.654729
1839.563059	-3.019900	3.355600	-10.132000	25.981974	0.000574	20.658726
1840.544557	-2.993300	3.355500	-10.043000	26.005295	0.000575	20.664613
1841.513050	-3.001100	3.356400	-10.072000	26.029738	0.000573	20.659299
1842.520108	-3.002300	3.356400	-10.077000	26.065628	0.000572	20.664540
1843.515147	-2.987500	3.356100	-10.025000	26.070323	0.000573	20.695812
1844.515505	-3.000100	3.353400	-10.060000	26.070274	0.000572	20.673476
1845.537049	-3.010100	3.354700	-10.096000	26.090069	0.000572	20.663967
1846.517210	-3.016000	3.353500	-10.113000	26.101948	0.000572	20.668316
1847.538031	-2.987300	3.353100	-10.016000	26.109547	0.000570	20.642758
1848.519759	-3.001000	3.353400	-10.063000	26.081526	0.000571	20.668660
1849.538555	-2.993700	3.353200	-10.037000	26.049712	0.000570	20.649969
1850.540440	-3.013300	3.352400	-10.100000	26.027620	0.000570	20.659068
1851.541162	-3.009200	3.351900	-10.086000	26.028980	0.000569	20.671815
1852.541859	-2.990700	3.352200	-10.025000	26.046595	0.000568	20.667228
1853.540775	-2.976400	3.353600	-9.980200	26.038971	0.000568	20.669525
1854.542407	-3.002100	3.351800	-10.060000	26.040558	0.000567	20.685820
1855.568536	-3.012200	3.351400	-10.095000	26.029777	0.000566	20.673564
1856.538446	-2.990100	3.351900	-10.022000	26.057051	0.000566	20.660188
1857.541214	-3.021400	3.349800	-10.120000	26.059760	0.000565	20.663859
1858.536332	-3.012900	3.349800	-10.092000	26.037157	0.000567	20.664383
1859.542811	-2.989400	3.351000	-10.016000	26.027271	0.000564	20.663933
1860.549004	-3.010700	3.348600	-10.080000	26.015326	0.000566	20.663785
1861.544712	-2.990800	3.350700	-10.021000	26.020964	0.000564	20.661390
1862.549674	-3.024900	3.349700	-10.131000	25.994088	0.000564	20.690815
1863.556565	-3.001300	3.348800	-10.050000	26.015074	0.000563	20.666378
1864.544994	-2.989500	3.349100	-10.010000	25.993746	0.000561	20.664864
1865.554054	-3.009400	3.348500	-10.076000	25.991956	0.000563	20.677292
1866.546167	-3.017700	3.347400	-10.100000	25.958692	0.000563	20.672795
1867.552964	-2.967100	3.349600	-9.937300	25.901217	0.000562	20.674324
1868.543459	-3.010900	3.347300	-10.077000	25.913635	0.000562	20.662142
1869.547645	-2.999700	3.347100	-10.039000	25.910795	0.000560	20.664031
1870.551457	-3.001400	3.346500	-10.043000	25.943841	0.000560	20.670678
1871.544857	-2.968400	3.345400	-9.928800	25.977888	0.000560	20.693031
1872.548837	-2.978300	3.346000	-9.964800	26.035790	0.000559	20.684348
1873.549333	-3.015600	3.344200	-10.083000	26.027645	0.000559	20.669525
1874.561641	-3.005700	3.345300	-10.054000	26.048849	0.000558	20.664277
1875.552611	-3.015700	3.344900	-10.086000	26.053194	0.000558	20.693301
1876.545722	-2.984500	3.344200	-9.980200	26.048426	0.000558	20.661481
1877.544780	-3.008600	3.344800	-10.062000	26.004684	0.000557	20.682967
1878.548728	-2.998500	3.344700	-10.028000	25.988532	0.000557	20.674800
1879.550742	-3.014300	3.344000	-10.079000	25.966148	0.000556	20.687399
1880.547154	-2.998300	3.343300	-10.023000	26.014205	0.000556	20.679731
1881.549901	-2.980200	3.343200	-9.962000	26.053732	0.000556	20.683884
1882.547843	-3.012400	3.342400	-10.068000	26.069445	0.000554	20.694456
1883.544639	-2.991100	3.341900	-9.995200	26.043115	0.000555	20.685544
1884.554979	-3.015300	3.341100	-10.074000	25.997907	0.000553	20.682797
1885.559039	-3.000500	3.341700	-10.026000	26.016337	0.000554	20.685667
1886.551320	-3.010800	3.340300	-10.056000	26.035019	0.000554	20.667925
1887.551120	-3.025800	3.341700	-10.109000	26.053197	0.000552	20.706107
1888.557431	-2.987300	3.340300	-9.978100	26.051350	0.000551	20.691448
1889.529271	-2.999600	3.341200	-10.021000	26.089338	0.000553	20.667500
1890.535522	-2.997200	3.341200	-10.013000	26.072887	0.000551	20.675628
1891.531958	-3.021300	3.338800	-10.086000	26.068982	0.000551	20.682136
1892.529203	-3.012600	3.338200	-10.055000	26.062424	0.000548	20.684556
1893.531739	-2.998800	3.338900	-10.010000	26.060740	0.000550	20.697090
1894.535121	-3.001300	3.339000	-10.020000	26.069479	0.000549	20.689274
1895.535559	-2.992600	3.339300	-9.992200	26.069503	0.000548	20.697834
1896.532302	-3.028100	3.338000	-10.107000	26.059341	0.000546	20.692839
1897.535054	-3.006700	3.338100	-10.036000	26.095605	0.000547	20.675220
1898.552501	-2.985300	3.338700	-9.966100	26.057982	0.000546	20.685783
1899.562168	-2.999000	3.337600	-10.008000	26.034850	0.000547	20.683404
1900.535600	-2.973200	3.338100	-9.923300	26.041873	0.000545	20.693306
1901.561285	-3.005300	3.336700	-10.027000	26.040229	0.000544	20.694026
1902.565779	-2.981000	3.336000	-9.944000	26.075085	0.000544	20.696804
1903.555833	-3.004900	3.336400	-10.024000	26.116329	0.000545	20.681345
1904.532692	-3.000300	3.336200	-10.007000	26.115197	0.000543	20.709133
1905.534230	-2.969700	3.336900	-9.908300	26.136725	0.000543	20.715118
1906.536918	-3.031500	3.333200	-10.103000	26.146204	0.000542	20.702357
1907.536130	-2.990400	3.334600	-9.970600	26.110991	0.000542	20.694001
1908.542376	-2.996900	3.334800	-9.992900	26.105752	0.000540	20.693952
1909.541222	-2.999900	3.334000	-9.999600	26.142502	0.000539	20.714760
1910.540534	-2.997600	3.333200	-9.990100	26.164314	0.000540	20.699217
1911.542750	-2.981900	3.334200	-9.941300	26.208343	0.000541	20.715961
1912.538684	-2.996800	3.332600	-9.986000	26.236329	0.000540	20.697615
1913.539627	-2.996900	3.331600	-9.983900	26.269706	0.000538	20.711244
1914.541021	-3.007700	3.331700	-10.020000	26.270618	0.000539	20.716902
1915.561266	-3.015200	3.331200	-10.043000	26.279761	0.000539	20.712814
1916.559421	-2.972200	3.332900	-9.904500	26.247848	0.000539	20.700657
1917.539856	-2.980800	3.332800	-9.933100	26.259466	0.000538	20.718497
1918.557770	-3.011400	3.331200	-10.030000	26.237419	0.000536	20.710566
1919.562775	-2.989400	3.331600	-9.958600	26.212908	0.000536	20.715806
1920.565835	-3.014400	3.330800	-10.039000	26.175656	0.000538	20.709192
1921.556925	-2.988800	3.331400	-9.955500	26.215421	0.000536	20.700787
1922.555246	-3.018800	3.329200	-10.049000	26.219391	0.000533	20.708096
1923.566538	-3.001000	3.329900	-9.991900	26.258155	0.000535	20.694419
1924.554754	-2.993300	3.328800	-9.963700	26.286440	0.000534	20.718104
1925.556620	-3.009800	3.328900	-10.018000	26.297788	0.000534	20.703428
1926.556711	-3.015900	3.328900	-10.039000	26.308143	0.000534	20.696765
1927.569855	-3.038700	3.328500	-10.113000	26.299895	0.000532	20.682311
1928.568663	-2.997500	3.328500	-9.975900	26.287279	0.000533	20.710885
1929.550836	-3.016000	3.327600	-10.034000	26.288718	0.000529	20.695735
1930.558906	-2.990700	3.326500	-9.947400	26.298106	0.000530	20.718447
1931.574839	-2.994500	3.326100	-9.959000	26.324632	0.000529	20.711440
1932.557172	-2.998300	3.326900	-9.974100	26.334589	0.000531	20.721922
1933.561676	-2.979700	3.327700	-9.914900	26.332929	0.000529	20.712192
1934.561473	-3.020600	3.325100	-10.043000	26.319719	0.000528	20.720728
1935.565342	-3.018300	3.324400	-10.033000	26.345367	0.000528	20.713313
1936.542111	-2.999100	3.323500	-9.966600	26.358056	0.000527	20.732231
1937.545527	-3.010800	3.323500	-10.006000	26.393683	0.000529	20.717777
1938.542477	-3.013200	3.324400	-10.016000	26.395791	0.000526	20.723688
1939.542965	-3.000500	3.322700	-9.968100	26.399328	0.000526	20.708750
1940.548404	-3.000700	3.323900	-9.973000	26.397164	0.000526	20.714163
1941.562191	-2.996600	3.323800	-9.958600	26.363441	0.000527	20.709666
1942.574619	-2.992000	3.323500	-9.943100	26.331611	0.000526	20.717981
1943.542634	-2.975200	3.323100	-9.885700	26.243602	0.000523	20.723892
1944.569801	-2.997400	3.322300	-9.957300	26.217993	0.000525	20.729452
1945.575324	-2.998700	3.322400	-9.961500	26.236647	0.000525	20.712634
1946.573934	-2.996200	3.322800	-9.953400	26.230146	0.000522	20.742614
1947.546825	-3.038600	3.320100	-10.087000	26.253388	0.000523	20.713811
1948.543712	-3.008900	3.321800	-9.994300	26.293248	0.000522	20.728265
1949.545737	-2.986600	3.320900	-9.917100	26.291857	0.000520	20.722126
1950.547711	-2.994100	3.320300	-9.939600	26.291987	0.000521	20.739326
1951.549703	-3.021400	3.318800	-10.026000	26.264590	0.000519	20.730285
1952.546404	-3.006600	3.320100	-9.981400	26.262482	0.000519	20.748083
1953.574766	-2.982800	3.318400	-9.896800	26.255772	0.000522	20.729484
1954.551777	-3.012600	3.319300	-9.999000	26.243113	0.000517	20.713443
1955.545088	-3.005500	3.318400	-9.971900	26.263825	0.000518	20.712919
1956.580807	-3.006100	3.317900	-9.973500	26.202730	0.000516	20.734503
1957.563312	-2.988600	3.318400	-9.916300	26.204771	0.000518	20.746987
1958.568085	-3.014900	3.318000	-10.003000	26.203771	0.000517	20.726066
1959.547619	-2.997500	3.318000	-9.945100	26.186865	0.000515	20.717138
1960.566571	-2.999500	3.318100	-9.952200	26.187753	0.000516	20.747903
1961.569233	-3.018100	3.316000	-10.006000	26.188843	0.000518	20.725764
1962.568581	-2.985200	3.315300	-9.894900	26.206546	0.000516	20.744503
1963.569622	-3.032100	3.314800	-10.050000	26.220164	0.000513	20.731634
1964.565373	-3.003400	3.315500	-9.956700	26.234613	0.000514	20.743309
1965.560212	-3.003500	3.315400	-9.956500	26.292322	0.000515	20.731128
1966.567724	-3.023600	3.313200	-10.017000	26.323737	0.000512	20.734250
1967.548985	-3.016800	3.314500	-9.998200	26.363140	0.000512	20.731177
1968.547199	-2.998500	3.314500	-9.937600	26.391772	0.000512	20.737668
1969.550187	-2.979600	3.315100	-9.875700	26.408902	0.000512	20.744928
1970.553519	-2.984500	3.315000	-9.892000	26.435044	0.000511	20.746073
1971.550246	-3.021200	3.313800	-10.011000	26.430180	0.000511	20.745925
1972.552137	-2.994800	3.315000	-9.926900	26.434768	0.000510	20.732044
1973.550651	-3.001900	3.313500	-9.945500	26.460819	0.000509	20.729779
1974.554800	-3.011100	3.313100	-9.975200	26.509106	0.000510	20.752711
1975.552489	-3.022300	3.310200	-10.004000	26.521745	0.000506	20.746923
1976.553429	-2.999300	3.311700	-9.931600	26.503893	0.000509	20.743677
1977.552470	-2.995400	3.312700	-9.922300	26.464512	0.000509	20.742026
1978.554814	-3.011000	3.310900	-9.966800	26.481226	0.000508	20.734643
1979.555998	-3.006900	3.310400	-9.953200	26.447131	0.000506	20.748264
1980.553047	-3.012800	3.309800	-9.970200	26.425577	0.000507	20.734186
1981.555095	-2.995400	3.310600	-9.915000	26.414849	0.000505	20.744267
1982.554163	-3.013400	3.309200	-9.969800	26.412287	0.000505	20.759711
1983.553067	-2.986200	3.310000	-9.883500	26.403698	0.000503	20.755345
1984.558162	-2.999700	3.310100	-9.928500	26.418697	0.000503	20.766627
1985.555845	-3.001000	3.308200	-9.927000	26.417851	0.000503	20.756767
1986.552425	-3.005400	3.308600	-9.942200	26.420283	0.000501	20.759212
1987.556192	-3.022100	3.308500	-9.997100	26.453875	0.000502	20.744137
1988.552237	-2.995300	3.308200	-9.907800	26.465343	0.000501	20.772734
1989.556726	-2.965400	3.308100	-9.808700	26.466238	0.000501	20.757512
1990.550908	-3.015600	3.307600	-9.973300	26.473883	0.000501	20.756187
1991.552422	-3.012400	3.305200	-9.955400	26.477503	0.000501	20.769783
1992.554983	-2.982800	3.307000	-9.863100	26.479349	0.000498	20.773535
1993.555492	-2.993500	3.306700	-9.897400	26.482814	0.000499	20.750940
1994.565209	-3.014700	3.305100	-9.962900	26.515217	0.000498	20.742257
1995.578325	-2.999700	3.306200	-9.915300	26.522698	0.000501	20.757838
1996.554401	-3.012600	3.305900	-9.959000	26.511247	0.000497	20.762450
1997.578589	-3.025800	3.305400	-9.999200	26.497096	0.000498	20.771459
1998.576227	-3.018000	3.303100	-9.967900	26.475445	0.000498	20.769611
1999.574636	-2.983200	3.305800	-9.860200	26.490369	0.000495	20.793622
2000.582096	-3.006500	3.303300	-9.929400	26.515867	0.000495	20.779896
2001.582898	-3.005100	3.303200	-9.925700	26.537541	0.000495	20.785087
2002.562366	-2.980800	3.303900	-9.847000	26.554742	0.000495	20.758755
2003.582366	-2.994600	3.303500	-9.891700	26.545161	0.000493	20.761927
2004.563438	-2.994600	3.302800	-9.889100	26.566241	0.000491	20.765572
2005.558221	-2.998000	3.302600	-9.900000	26.577862	0.000492	20.768720
2006.568898	-2.988100	3.301400	-9.864500	26.584864	0.000493	20.768646
2007.559608	-3.015100	3.301800	-9.953300	26.567363	0.000491	20.776183
2008.564939	-3.014300	3.301200	-9.949900	26.569998	0.000492	20.768875
2009.565487	-3.003400	3.301400	-9.914800	26.579774	0.000491	20.755468
2010.561626	-2.981300	3.302300	-9.843700	26.607187	0.000489	20.765007
2011.563806	-2.991500	3.300100	-9.871300	26.614580	0.000490	20.771965
2012.582251	-3.021500	3.299100	-9.966900	26.656614	0.000490	20.786721
2013.586884	-2.974800	3.300400	-9.817300	26.664478	0.000488	20.759539
2014.567460	-3.001500	3.298700	-9.899300	26.672325	0.000487	20.784497
2015.566544	-2.997300	3.300100	-9.890300	26.624932	0.000488	20.777156
2016.584012	-3.008600	3.298500	-9.923100	26.607561	0.000488	20.787195
2017.563025	-2.993900	3.298300	-9.874000	26.575658	0.000487	20.767926
2018.566122	-2.984000	3.298400	-9.841400	26.535288	0.000487	20.791831
2019.573401	-3.006300	3.297900	-9.913300	26.563719	0.000486	20.783426
2020.562896	-2.961700	3.299000	-9.769100	26.568558	0.000485	20.775488
2021.585959	-3.002900	3.296400	-9.898000	26.585263	0.000484	20.762882
2022.582407	-3.011800	3.296100	-9.926300	26.576406	0.000484	20.789067
2023.589627	-3.003800	3.295300	-9.896600	26.540159	0.000482	20.778709
2024.587894	-2.980900	3.296500	-9.824900	26.533132	0.000481	20.793457
2025.586709	-2.998100	3.294900	-9.877000	26.553488	0.000484	20.785470
2026.582218	-2.977600	3.295800	-9.811300	26.579830	0.000481	20.778284
2027.589767	-3.003600	3.295900	-9.898300	26.615157	0.000479	20.787244
2028.588895	-3.001300	3.294400	-9.886300	26.636015	0.000482	20.778341
2029.570798	-2.983100	3.294400	-9.826100	26.669121	0.000480	20.786018
2030.570518	-2.988300	3.294100	-9.842300	26.648613	0.000479	20.781996
2031.581741	-2.992800	3.293600	-9.856600	26.670966	0.000478	20.786925
2032.592892	-3.006800	3.292300	-9.898300	26.661673	0.000477	20.789435
2033.599977	-3.012700	3.292700	-9.919300	26.671357	0.000476	20.786369
2034.584527	-3.020000	3.291300	-9.938400	26.666331	0.000476	20.783213
2035.588043	-3.019900	3.291200	-9.937700	26.670747	0.000475	20.799980
2036.588415	-2.988600	3.291200	-9.835200	26.648677	0.000476	20.810984
2037.586730	-3.004900	3.291400	-9.888700	26.636959	0.000474	20.797307
2038.596756	-3.006100	3.291400	-9.893700	26.607925	0.000474	20.792777
2039.587233	-2.986600	3.290800	-9.827800	26.572395	0.000474	20.802105
2040.589010	-2.997100	3.289900	-9.858100	26.549681	0.000474	20.814833
2041.568109	-3.001100	3.289900	-9.872400	26.574680	0.000472	20.785436
2042.572492	-2.999900	3.289200	-9.866400	26.602517	0.000474	20.810573
2043.571967	-2.967900	3.290100	-9.763500	26.628053	0.000471	20.797363
2044.569223	-2.996100	3.289700	-9.854500	26.652555	0.000471	20.798287
2045.592734	-2.988100	3.289100	-9.827100	26.649733	0.000472	20.812993
2046.594591	-3.017100	3.287800	-9.918900	26.675356	0.000471	20.797975
2047.589498	-3.019000	3.287100	-9.922700	26.692156	0.000470	20.784520
2048.572768	-3.007300	3.286800	-9.883500	26.687733	0.000469	20.802832
2049.573055	-2.975700	3.287800	-9.782600	26.678625	0.000470	20.815961
2050.571744	-3.026100	3.285700	-9.942400	26.645903	0.000466	20.813411
2051.571683	-2.993600	3.288200	-9.842700	26.597769	0.000467	20.819076
2052.575668	-3.017100	3.286500	-9.914800	26.557431	0.000468	20.806028
2053.569137	-3.012700	3.284800	-9.894600	26.532113	0.000466	20.802864
2054.583513	-2.998000	3.286100	-9.851300	26.510487	0.000465	20.818585
2055.573078	-3.011100	3.284900	-9.890400	26.455002	0.000463	20.814497
2056.574669	-2.986900	3.286400	-9.815400	26.481957	0.000464	20.804132
2057.571510	-3.024300	3.283300	-9.928500	26.492066	0.000464	20.818086
2058.574377	-2.982000	3.284400	-9.792800	26.491936	0.000463	20.814637
2059.571563	-3.023000	3.283300	-9.923700	26.511033	0.000463	20.803012
2060.589150	-2.975300	3.285000	-9.772700	26.529583	0.000460	20.804589
2061.598132	-2.989700	3.283800	-9.816400	26.511773	0.000463	20.833627
2062.594279	-2.997500	3.282800	-9.839500	26.467861	0.000459	20.823154
2063.574697	-3.004300	3.282000	-9.858000	26.490920	0.000461	20.807451
2064.596982	-3.006000	3.282800	-9.866300	26.501273	0.000460	20.810745
2065.596463	-2.987400	3.281700	-9.802400	26.520467	0.000460	20.821029
2066.596720	-3.005100	3.281200	-9.859400	26.495986	0.000461	20.810173
2067.613821	-3.022900	3.280700	-9.915700	26.473969	0.000457	20.832613
2068.608385	-3.007400	3.280600	-9.864100	26.479029	0.000459	20.835801
2069.598179	-2.999000	3.280500	-9.837900	26.514765	0.000457	20.829048
2070.579788	-3.024600	3.279100	-9.916600	26.564888	0.000455	20.826800
2071.580266	-3.004600	3.279800	-9.854200	26.579437	0.000455	20.811554
2072.577400	-3.002600	3.278700	-9.843100	26.598150	0.000456	20.815192
2073.596627	-2.990100	3.278200	-9.800300	26.589415	0.000453	20.816843
2074.599062	-3.002700	3.277800	-9.841400	26.561586	0.000453	20.829645
2075.604791	-3.012800	3.278100	-9.874900	26.566767	0.000453	20.842913
2076.596815	-2.989400	3.279500	-9.802600	26.570946	0.000451	20.826726
2077.596462	-3.014200	3.278400	-9.881100	26.607290	0.000452	20.835285
2078.596303	-2.995100	3.277500	-9.815400	26.648594	0.000450	20.824176
2079.609359	-2.999300	3.278300	-9.832300	26.657238	0.000451	20.839504
2080.596076	-2.992100	3.276100	-9.801500	26.670168	0.000451	20.815993
2081.595017	-2.990300	3.276000	-9.793800	26.659498	0.000450	20.800051
2082.579803	-2.984900	3.276700	-9.779000	26.642396	0.000449	20.829326
2083.581387	-2.989100	3.275600	-9.790300	26.629759	0.000448	20.822786
2084.581990	-2.998400	3.275700	-9.821000	26.644105	0.000447	20.801172
2085.581121	-3.031200	3.274800	-9.926200	26.595205	0.000445	20.812232
2086.584268	-3.011500	3.273600	-9.856900	26.557267	0.000447	20.808235
2087.586897	-3.000500	3.273200	-9.820000	26.500816	0.000445	20.826407
2088.587526	-2.995100	3.272600	-9.800600	26.492594	0.000445	20.820513
2089.587048	-3.014400	3.273800	-9.867400	26.502899	0.000445	20.788672
2090.585494	-2.995800	3.272500	-9.802500	26.470520	0.000443	20.794533
2091.587909	-3.008200	3.271900	-9.841400	26.506396	0.000443	20.795980
2092.588669	-3.002500	3.273100	-9.826500	26.534755	0.000442	20.810736
2093.585495	-2.999000	3.271400	-9.809900	26.500019	0.000442	20.817072
2094.584821	-2.994500	3.272900	-9.799500	26.519905	0.000441	20.799602
2095.587064	-3.044400	3.269300	-9.951100	26.526313	0.000442	20.802250
2096.591043	-3.016600	3.270400	-9.863900	26.580412	0.000440	20.805896
2097.595952	-3.014200	3.270100	-9.855700	26.628100	0.000439	20.803100
2098.595432	-2.971900	3.271100	-9.719800	26.675786	0.000438	20.820219
2099.589551	-2.995800	3.268800	-9.791100	26.726502	0.000438	20.808618
2100.592540	-2.984500	3.269700	-9.756900	26.771249	0.000437	20.794811
2101.591034	-3.003500	3.268700	-9.815800	26.794804	0.000436	20.803795
2102.590411	-3.002000	3.267100	-9.807400	26.807017	0.000437	20.798531
2103.590653	-3.009300	3.268500	-9.834100	26.797512	0.000434	20.798931
2104.593420	-2.970700	3.269400	-9.710800	26.762491	0.000435	20.814455
2105.591299	-2.971000	3.268700	-9.709900	26.730268	0.000434	20.782058
2106.591884	-3.002500	3.267700	-9.809100	26.728763	0.000432	20.776751
2107.607142	-2.999300	3.266700	-9.795800	26.743498	0.000432	20.792988
2108.610688	-3.005100	3.265500	-9.812500	26.766614	0.000432	20.785883
2109.608990	-3.001700	3.264400	-9.796800	26.765021	0.000432	20.795661
2110.607807	-2.995700	3.265900	-9.782100	26.793910	0.000431	20.784404
2111.606859	-2.999600	3.267300	-9.800000	26.780811	0.000429	20.805373
2112.610114	-3.005200	3.264600	-9.809400	26.760165	0.000431	20.771813
2113.614114	-2.990400	3.263800	-9.758600	26.694732	0.000429	20.783316
2114.605318	-2.986500	3.264500	-9.748400	26.676810	0.000428	20.789006
2115.609386	-2.988700	3.264800	-9.756800	26.670500	0.000429	20.779343
2116.612500	-3.002600	3.262600	-9.795700	26.642404	0.000428	20.792824
2117.588632	-2.982200	3.263500	-9.732000	26.591708	0.000429	20.782638
2118.610456	-3.002400	3.262500	-9.794000	26.629767	0.000428	20.783913
2119.614303	-3.019000	3.261500	-9.845100	26.615299	0.000426	20.776481
2120.609738	-2.979300	3.263000	-9.720100	26.629229	0.000427	20.777208
2121.613595	-3.012800	3.261700	-9.825400	26.616365	0.000425	20.773285
2122.616540	-3.003100	3.262300	-9.796600	26.635913	0.000424	20.761642
2123.615691	-2.981600	3.261700	-9.723600	26.617738	0.000424	20.796003
2124.611382	-2.994800	3.259700	-9.761100	26.593487	0.000423	20.793910
2125.612963	-2.999300	3.260700	-9.778500	26.595252	0.000422	20.765337
2126.618908	-2.995900	3.259600	-9.763800	26.597041	0.000421	20.771877
2127.630881	-3.001000	3.260100	-9.781900	26.603717	0.000420	20.792814
2128.613000	-2.994500	3.260100	-9.760900	26.616746	0.000421	20.768452
2129.612374	-3.005700	3.259300	-9.794900	26.622218	0.000421	20.789601
2130.612971	-2.999900	3.259400	-9.777300	26.630366	0.000419	20.777403
2131.608529	-3.006100	3.257900	-9.792300	26.635376	0.000417	20.777698
2132.594735	-2.993500	3.258300	-9.752000	26.670953	0.000418	20.780272
2133.595816	-3.004000	3.258300	-9.785800	26.687460	0.000417	20.770315
2134.610694	-2.998000	3.256600	-9.762200	26.712708	0.000415	20.768671
2135.610923	-3.008900	3.257100	-9.799500	26.722165	0.000417	20.779128
2136.593217	-3.014900	3.256600	-9.817500	26.743217	0.000414	20.768998
2137.597011	-3.004800	3.256700	-9.785000	26.743388	0.000414	20.772963
2138.618056	-2.998300	3.254400	-9.757300	26.764244	0.000413	20.748412
2139.608022	-2.984200	3.256200	-9.716200	26.776660	0.000414	20.757577
2140.622294	-2.986300	3.254000	-9.715900	26.820794	0.000412	20.767812
2141.621225	-3.004800	3.252900	-9.772300	26.827151	0.000412	20.775627
2142.621167	-2.997300	3.254300	-9.753100	26.833006	0.000411	20.775823
2143.613119	-3.004500	3.252400	-9.770300	26.821541	0.000409	20.754813
2144.599873	-2.991800	3.252900	-9.730300	26.806548	0.000409	20.779093
2145.620017	-2.981500	3.253900	-9.700700	26.791905	0.000410	20.773379
2146.599113	-2.997800	3.252600	-9.749200	26.753265	0.000407	20.766773
2147.615410	-2.993500	3.252100	-9.734100	26.720472	0.000407	20.766994
2148.612554	-2.982400	3.253400	-9.701400	26.750111	0.000405	20.781145
2149.615718	-2.986900	3.253500	-9.716700	26.767592	0.000405	20.757943
2150.616953	-2.996700	3.250400	-9.739200	26.834965	0.000405	20.788225
2151.618074	-3.000000	3.250100	-9.748700	26.844380	0.000406	20.757862
2152.600980	-3.007100	3.249500	-9.771000	26.839087	0.000404	20.778145
2153.604667	-2.980900	3.251800	-9.690400	26.861664	0.000404	20.779035
2154.598514	-2.983900	3.249300	-9.694900	26.877787	0.000403	20.757314
2155.603611	-3.009400	3.249100	-9.776400	26.899357	0.000400	20.765726
2156.607633	-2.974700	3.248800	-9.662200	26.907942	0.000401	20.748754
2157.600368	-2.981200	3.248500	-9.683400	26.933454	0.000401	20.748329
2158.603501	-2.988800	3.247600	-9.705100	26.946486	0.000401	20.758115
2159.599067	-2.983100	3.248500	-9.689700	26.989069	0.000398	20.758262
2160.604943	-3.013900	3.246700	-9.784600	26.931047	0.000399	20.737374
2161.603351	-2.996800	3.246300	-9.727900	26.917194	0.000398	20.767067
2162.606932	-3.007000	3.247100	-9.761900	26.941941	0.000398	20.754968
2163.628035	-2.965700	3.246600	-9.626300	26.963607	0.000396	20.763004
2164.619766	-3.010800	3.244100	-9.766000	26.936178	0.000396	20.762923
2165.607483	-3.018300	3.244900	-9.792700	26.915211	0.000396	20.757012
2166.642473	-2.993000	3.245500	-9.712500	26.887228	0.000394	20.730770
2167.618561	-3.007100	3.245300	-9.757400	26.885276	0.000393	20.766266
2168.629674	-3.000000	3.243400	-9.729600	26.849308	0.000392	20.734841
2169.631795	-2.979800	3.243100	-9.661900	26.873382	0.000394	20.749091
2170.621088	-3.023000	3.241900	-9.799300	26.903708	0.000392	20.724581
2171.621413	-3.029800	3.241300	-9.817700	26.914700	0.000392	20.740376
2172.625611	-3.005500	3.241500	-9.741100	26.945073	0.000390	20.763807
2173.619163	-3.007700	3.241000	-9.745900	26.976763	0.000390	20.727868
2174.610403	-2.969700	3.242300	-9.626400	27.036782	0.000391	20.749820
2175.611826	-2.992900	3.241400	-9.700100	27.042269	0.000387	20.733526
2176.612577	-2.996400	3.240700	-9.708600	27.019427	0.000390	20.749911
2177.627324	-2.999200	3.239300	-9.714100	27.013371	0.000388	20.742398
2178.636563	-2.996800	3.240400	-9.709600	27.023175	0.000387	20.740403
2179.624416	-3.048400	3.238300	-9.868700	27.044685	0.000388	20.742120
2180.635061	-2.996800	3.239500	-9.707200	27.065349	0.000387	20.748203
2181.635978	-3.026500	3.237500	-9.797100	27.071478	0.000388	20.734926
2182.631302	-3.013500	3.235600	-9.749500	27.043881	0.000385	20.730880
2183.629818	-2.994700	3.236300	-9.690600	27.025192	0.000386	20.743854
2184.628859	-2.983200	3.236400	-9.653700	27.022810	0.000385	20.740985
2185.625485	-3.025100	3.237000	-9.791200	27.053530	0.000382	20.736317
2186.626455	-3.016100	3.236500	-9.760900	27.059041	0.000383	20.736169
2187.634799	-2.996300	3.235100	-9.692000	27.007691	0.000382	20.751385
2188.628726	-3.009000	3.236100	-9.736200	26.954557	0.000381	20.727349
2189.634488	-3.001300	3.234100	-9.705700	26.919094	0.000380	20.726777
2190.628753	-2.983100	3.235600	-9.651100	26.902087	0.000381	20.748557
2191.618679	-3.000800	3.233300	-9.702000	26.896705	0.000380	20.728919
2192.609503	-2.969600	3.236900	-9.611400	26.885981	0.000379	20.736629
2193.615718	-3.001400	3.232800	-9.702500	26.923737	0.000379	20.749938
2194.611057	-3.027300	3.233100	-9.785600	26.948996	0.000379	20.742621
2195.632047	-3.028700	3.230000	-9.781100	26.951874	0.000379	20.750257
2196.634764	-3.011700	3.229900	-9.726400	26.961598	0.000378	20.760983
2197.646368	-2.995000	3.233000	-9.681900	26.959492	0.000375	20.730415
2198.640551	-3.002500	3.231800	-9.700100	26.975484	0.000376	20.751239
2199.638331	-3.002400	3.231500	-9.700200	26.949981	0.000375	20.733653
2200.632166	-3.016400	3.229500	-9.740200	26.941721	0.000373	20.740046
2201.643466	-2.995500	3.230100	-9.673900	26.949981	0.000372	20.721799
2202.620442	-2.988400	3.231000	-9.654700	26.973036	0.000374	20.739768
2203.612332	-2.992200	3.229000	-9.660600	27.002741	0.000372	20.716059
2204.638560	-3.007100	3.227600	-9.704700	27.042144	0.000371	20.741935
2205.641004	-3.013900	3.228300	-9.729200	27.078894	0.000368	20.735747
2206.640713	-2.991200	3.227000	-9.651500	27.084300	0.000368	20.731226
2207.635788	-2.984500	3.226900	-9.630100	27.119806	0.000367	20.737538
2208.631083	-2.995900	3.227200	-9.667500	27.127056	0.000367	20.732027
2209.635238	-2.999900	3.226600	-9.678500	27.101866	0.000367	20.728029
2210.631318	-3.014200	3.225500	-9.721200	27.083357	0.000365	20.737864
2211.639882	-2.992400	3.227200	-9.655400	27.095908	0.000367	20.745746
2212.645364	-3.018800	3.224800	-9.733300	27.091194	0.000364	20.727253
2213.619393	-2.991300	3.225500	-9.647000	27.078911	0.000365	20.739557
2214.622018	-3.002200	3.224800	-9.680700	27.082040	0.000363	20.728479
2215.618515	-2.991100	3.225000	-9.644900	27.076959	0.000364	20.748026
2216.635490	-3.015900	3.223800	-9.721400	27.054744	0.000362	20.726631
2217.639537	-2.989100	3.223100	-9.633200	27.078691	0.000362	20.733172
2218.621332	-2.995200	3.222900	-9.652700	27.121894	0.000361	20.711661
2219.620738	-2.994000	3.221900	-9.645300	27.121269	0.000362	20.727629
2220.619646	-2.999200	3.221400	-9.660200	27.108840	0.000360	20.718447
2221.643890	-2.977300	3.221200	-9.589800	27.102240	0.000360	20.712283
2222.659330	-2.989100	3.220800	-9.627000	27.122041	0.000357	20.716077
2223.650145	-3.035000	3.218600	-9.767300	27.125023	0.000358	20.722870
2224.625738	-3.024500	3.220000	-9.737000	27.102069	0.000358	20.744830
2225.641294	-3.008900	3.218000	-9.682100	27.107328	0.000354	20.716452
2226.646034	-2.998900	3.219400	-9.653500	27.127307	0.000355	20.726116
2227.656652	-2.997100	3.218100	-9.644500	27.103190	0.000355	20.708023
2228.647298	-3.005900	3.218300	-9.672500	27.095200	0.000353	20.707573
2229.629993	-2.986700	3.217700	-9.608400	27.106271	0.000353	20.711595
2230.625277	-3.024000	3.215900	-9.723700	27.123292	0.000353	20.701686
2231.624131	-2.994400	3.216100	-9.629100	27.141133	0.000352	20.714416
2232.628001	-2.990800	3.216000	-9.617500	27.152374	0.000350	20.720032
2233.634529	-3.002200	3.216100	-9.655000	27.161981	0.000352	20.711676
2234.641592	-2.991300	3.214600	-9.614500	27.126299	0.000350	20.715617
2235.630851	-3.002400	3.215300	-9.652000	27.119894	0.000348	20.725297
2236.647966	-2.996300	3.214200	-9.629600	27.138703	0.000352	20.705807
2237.653304	-3.003100	3.213600	-9.649900	27.169070	0.000348	20.719280
2238.650367	-2.966600	3.215000	-9.537100	27.203930	0.000350	20.704082
2239.646685	-3.021300	3.213200	-9.707400	27.220315	0.000350	20.718666
2240.630411	-2.988000	3.213300	-9.600000	27.229840	0.000345	20.712600
2241.660971	-2.997400	3.215500	-9.636600	27.233450	0.000346	20.702954
2242.628711	-2.999100	3.212000	-9.632200	27.225395	0.000344	20.727570
2243.632053	-2.998800	3.212200	-9.632100	27.239960	0.000345	20.719460
2244.629636	-3.012400	3.210100	-9.669100	27.229369	0.000344	20.699797
2245.627768	-3.005200	3.210600	-9.646300	27.187756	0.000343	20.739498
2246.635850	-3.003600	3.208400	-9.634800	27.184009	0.000343	20.721504
2247.637678	-3.001400	3.209900	-9.632800	27.170882	0.000341	20.705455
2248.629413	-3.002100	3.209200	-9.632800	27.190235	0.000341	20.686986
2249.634640	-2.987900	3.209100	-9.587100	27.233995	0.000342	20.713934
2250.635518	-2.984600	3.208200	-9.574200	27.207303	0.000342	20.711268
2251.635458	-3.005200	3.209600	-9.644000	27.199582	0.000339	20.716305
2252.630751	-2.999300	3.207000	-9.617200	27.212359	0.000339	20.692645
2253.632209	-3.006200	3.206900	-9.640700	27.221917	0.000340	20.697043
2254.644416	-2.982200	3.206400	-9.561200	27.261734	0.000337	20.706748
2255.632499	-3.003700	3.206500	-9.630500	27.279070	0.000339	20.714703
2256.636292	-3.012500	3.204700	-9.652500	27.276842	0.000338	20.705350
2257.670635	-2.996700	3.203800	-9.600600	27.249307	0.000337	20.681917
2258.661731	-3.008800	3.205600	-9.644300	27.291829	0.000336	20.691500
2259.657174	-3.029100	3.202800	-9.699800	27.311619	0.000335	20.709037
2260.658146	-2.985900	3.203100	-9.562200	27.346076	0.000335	20.714303
2261.657238	-2.983300	3.203500	-9.556300	27.375681	0.000335	20.691451
2262.651664	-2.984000	3.204700	-9.561800	27.357909	0.000335	20.687323
2263.652726	-3.010000	3.201600	-9.635800	27.309579	0.000333	20.695131
2264.666948	-3.014800	3.199800	-9.645800	27.297942	0.000334	20.703340
2265.657940	-2.989100	3.203400	-9.572900	27.313367	0.000332	20.705580
2266.656365	-3.004300	3.202000	-9.619100	27.334952	0.000334	20.709276
2267.655732	-2.982700	3.200500	-9.545200	27.344306	0.000331	20.701615
2268.664063	-2.991200	3.199700	-9.569400	27.351767	0.000331	20.713388
2269.653787	-2.997900	3.198600	-9.588500	27.381241	0.000329	20.698467
2270.639191	-2.985700	3.199900	-9.553300	27.378975	0.000328	20.708042
2271.660802	-2.947900	3.198100	-9.426500	27.342235	0.000326	20.714231
2272.636096	-2.976000	3.199400	-9.519900	27.313953	0.000329	20.696212
2273.635871	-2.976500	3.199100	-9.520700	27.311907	0.000326	20.689885
2274.663173	-2.996600	3.196100	-9.576600	27.280901	0.000326	20.691413
2275.652883	-3.005300	3.195000	-9.600300	27.254504	0.000327	20.703268
2276.655360	-2.998700	3.196200	-9.582800	27.260055	0.000326	20.686092
2277.637187	-3.006000	3.196700	-9.608400	27.235585	0.000325	20.692298
2278.649278	-3.008600	3.194600	-9.609800	27.248637	0.000326	20.691202
2279.640565	-3.009800	3.193700	-9.610900	27.294232	0.000325	20.715730
2280.665329	-3.026100	3.191700	-9.656100	27.335167	0.000323	20.687205
2281.642919	-3.004000	3.193900	-9.593700	27.393808	0.000324	20.692143
2282.664508	-3.005800	3.192600	-9.595900	27.369152	0.000322	20.685357
2283.664182	-2.973300	3.193800	-9.494900	27.359669	0.000321	20.691939
2284.660192	-3.038700	3.192000	-9.699000	27.363342	0.000322	20.673821
2285.656558	-2.991100	3.193300	-9.549800	27.330893	0.000320	20.701398
2286.666555	-2.998400	3.189800	-9.563500	27.285910	0.000319	20.680330
2287.660099	-2.995900	3.190900	-9.558800	27.260805	0.000318	20.704391
2288.641171	-3.003400	3.190600	-9.581500	27.220168	0.000318	20.680583
2289.646710	-3.002400	3.189200	-9.574500	27.216260	0.000317	20.701310
2290.644406	-2.991000	3.189100	-9.538100	27.270096	0.000317	20.718479
2291.640411	-2.998800	3.188500	-9.559900	27.281035	0.000315	20.685384
2292.649837	-3.005000	3.188600	-9.580900	27.275184	0.000315	20.692300
2293.640354	-3.027000	3.187700	-9.646400	27.306993	0.000316	20.661706
2294.641315	-2.990000	3.186400	-9.526000	27.339436	0.000313	20.691973
2295.640827	-2.994100	3.185500	-9.536700	27.348359	0.000314	20.699054
2296.644878	-3.010300	3.186700	-9.592000	27.360842	0.000314	20.694067
2297.642530	-2.989700	3.185200	-9.521900	27.354016	0.000313	20.696683
2298.643242	-3.001900	3.185200	-9.561200	27.384831	0.000314	20.683111
2299.675292	-2.988900	3.184300	-9.516500	27.394282	0.000312	20.676971
2300.670614	-2.992000	3.185500	-9.529600	27.399386	0.000311	20.700600
2301.665990	-2.992600	3.185700	-9.533200	27.392299	0.000306	20.667863
2302.664703	-3.002800	3.182800	-9.556200	27.409454	0.000309	20.689865
2303.647737	-2.990500	3.183200	-9.517700	27.418759	0.000308	20.695433
2304.645916	-3.003000	3.181600	-9.553600	27.360492	0.000308	20.670954
2305.672130	-3.004700	3.181700	-9.557400	27.331066	0.000306	20.704418
2306.647094	-2.987500	3.183000	-9.508300	27.341939	0.000308	20.689276
2307.667390	-3.005800	3.181900	-9.563000	27.385620	0.000305	20.678214
2308.666695	-2.993500	3.183100	-9.527300	27.367440	0.000307	20.704973
2309.673378	-2.985900	3.180300	-9.493400	27.367758	0.000305	20.684428
2310.670095	-3.017600	3.179800	-9.594000	27.396160	0.000305	20.698777
2311.654129	-2.989400	3.177700	-9.498100	27.398963	0.000304	20.691165
2312.669694	-2.994000	3.179400	-9.517700	27.386789	0.000303	20.692669
2313.677902	-3.016700	3.176800	-9.582100	27.363816	0.000302	20.689472
2314.669721	-2.985900	3.176800	-9.485000	27.330074	0.000303	20.701998
2315.670606	-3.010400	3.175700	-9.557900	27.376891	0.000303	20.691246
2316.679223	-2.983400	3.177300	-9.477800	27.430817	0.000300	20.711359
2317.667449	-3.016700	3.174900	-9.576400	27.432744	0.000303	20.693381
2318.685330	-3.004500	3.174100	-9.535400	27.419279	0.000300	20.686472
2319.658865	-2.997400	3.173500	-9.510700	27.394526	0.000299	20.680536
2320.675395	-2.980900	3.173400	-9.458800	27.364214	0.000301	20.692244
2321.658898	-2.991000	3.173600	-9.492100	27.330497	0.000300	20.675868
2322.661632	-2.994800	3.172600	-9.500400	27.291992	0.000301	20.693086
2323.659620	-3.004300	3.173500	-9.532700	27.295983	0.000301	20.689988
2324.656822	-3.003300	3.171500	-9.524000	27.267155	0.000298	20.693708
2325.661664	-3.006500	3.170100	-9.529700	27.269586	0.000297	20.705637
2326.678950	-3.024900	3.170800	-9.589300	27.274851	0.000297	20.680585
2327.685994	-3.001700	3.168600	-9.510000	27.275340	0.000297	20.689138
2328.680616	-2.999900	3.168600	-9.505100	27.331059	0.000297	20.675484
2329.681446	-3.005300	3.168000	-9.519300	27.345646	0.000295	20.706757
2330.678290	-2.970500	3.169300	-9.413700	27.410414	0.000294	20.706953
2331.677950	-3.003700	3.167200	-9.512300	27.414038	0.000297	20.677880
2332.679807	-2.974700	3.167400	-9.421800	27.424480	0.000295	20.695025
2333.680583	-3.012500	3.166600	-9.538600	27.452971	0.000294	20.711361
2334.679003	-2.995800	3.166100	-9.484300	27.457562	0.000293	20.689900
2335.681272	-3.001300	3.165700	-9.500500	27.463835	0.000293	20.682460
2336.658618	-2.999100	3.165300	-9.492100	27.485036	0.000293	20.675814
2337.661012	-2.983000	3.164300	-9.437200	27.538339	0.000292	20.716169
2338.665283	-2.970700	3.163600	-9.397200	27.541662	0.000294	20.717617
2339.682875	-2.974600	3.163900	-9.409400	27.578444	0.000291	20.703415
2340.686721	-2.993900	3.162300	-9.466200	27.595800	0.000291	20.698118
2341.679788	-3.002200	3.161100	-9.487600	27.586180	0.000290	20.691757
2342.681808	-2.987900	3.161900	-9.445600	27.566680	0.000290	20.699165
2343.683799	-3.018800	3.160200	-9.539200	27.570094	0.000288	20.724412
2344.683663	-2.975200	3.160500	-9.400700	27.575927	0.000289	20.692821
2345.683747	-3.012700	3.158900	-9.515200	27.573117	0.000288	20.698529
2346.683966	-2.983100	3.158800	-9.422300	27.571354	0.000287	20.710980
2347.670579	-3.006100	3.158600	-9.494300	27.541738	0.000287	20.719589
2348.667880	-3.004800	3.159600	-9.493500	27.508498	0.000287	20.703214
2349.686381	-3.026400	3.157500	-9.553900	27.459110	0.000287	20.725125
2350.680216	-2.980400	3.156100	-9.404300	27.401879	0.000284	20.725395
2351.692847	-3.015300	3.155400	-9.513300	27.382174	0.000287	20.707467
2352.668122	-3.015900	3.155300	-9.515000	27.318850	0.000287	20.704931
2353.668686	-2.989500	3.155900	-9.433600	27.320257	0.000284	20.705398
2354.669712	-3.022200	3.153500	-9.529100	27.245853	0.000284	20.713533
2355.668559	-2.991700	3.154600	-9.436300	27.253695	0.000284	20.710990
2356.668907	-2.995400	3.152800	-9.443300	27.264237	0.000283	20.702627
2357.666661	-3.001100	3.150300	-9.452900	27.261279	0.000283	20.720516
2358.672950	-3.004000	3.150700	-9.462900	27.305410	0.000283	20.719388
2359.671525	-3.016500	3.150800	-9.502800	27.343387	0.000283	20.698320
2360.675874	-2.974200	3.150300	-9.368100	27.393349	0.000281	20.722978
2361.670699	-2.997900	3.151500	-9.445800	27.375089	0.000280	20.710772
2362.673522	-3.030600	3.148400	-9.540700	27.403068	0.000279	20.721376
2363.670464	-3.002000	3.147800	-9.448900	27.444024	0.000281	20.708524
2364.674875	-3.008500	3.146900	-9.466100	27.485547	0.000282	20.715685
2365.673290	-3.014800	3.146100	-9.483100	27.508737	0.000281	20.724793
2366.670866	-3.011800	3.145400	-9.472500	27.553703	0.000279	20.722145
2367.676003	-2.999300	3.144300	-9.430300	27.549339	0.000278	20.710167
2368.678731	-3.026500	3.143700	-9.512200	27.594450	0.000279	20.731850
2369.672437	-3.011100	3.145200	-9.467900	27.608018	0.000277	20.698558
2370.698063	-3.005800	3.142700	-9.444900	27.584847	0.000276	20.718393
2371.704949	-3.005900	3.142200	-9.443800	27.554858	0.000276	20.730420
2372.721614	-3.016400	3.142100	-9.477000	27.553249	0.000277	20.728801
2373.693865	-2.985700	3.141700	-9.379100	27.554037	0.000275	20.733862
2374.674813	-2.991900	3.139300	-9.390400	27.548983	0.000274	20.754381
2375.675467	-2.984100	3.140600	-9.371100	27.543760	0.000271	20.726840
2376.684463	-2.988800	3.140200	-9.384100	27.538241	0.000274	20.717494
2377.680734	-2.972100	3.139700	-9.329900	27.513997	0.000274	20.731982
2378.678174	-3.015900	3.138300	-9.463700	27.510398	0.000273	20.734051
2379.682742	-2.998800	3.137100	-9.405600	27.546531	0.000274	20.742906
2380.679572	-3.010300	3.136100	-9.440100	27.561221	0.000272	20.721649
2381.695032	-2.982100	3.135900	-9.350500	27.519303	0.000271	20.719776
2382.694102	-2.988700	3.135200	-9.369400	27.492807	0.000272	20.720619
2383.706786	-3.018000	3.133800	-9.455700	27.463262	0.000273	20.728828
2384.702047	-3.019300	3.133300	-9.458800	27.520434	0.000271	20.718543
2385.700607	-3.020400	3.132700	-9.459200	27.556745	0.000274	20.735638
2386.702435	-2.975300	3.133000	-9.320700	27.583387	0.000272	20.732098
2387.697045	-2.982800	3.131400	-9.339200	27.583152	0.000271	20.747036
2388.698926	-2.999500	3.131400	-9.391500	27.610289	0.000270	20.734511
2389.701922	-3.002500	3.128900	-9.393600	27.640869	0.000271	20.735884
2390.696518	-2.995400	3.128600	-9.369700	27.651724	0.000269	20.739695
2391.698738	-3.005300	3.129700	-9.404100	27.671710	0.000270	20.730408
2392.703839	-3.002200	3.127000	-9.386700	27.712785	0.000269	20.742343
2393.683312	-3.008300	3.126700	-9.405000	27.737530	0.000269	20.737847
2394.681038	-3.004500	3.125900	-9.390600	27.795036	0.000268	20.735975
2395.685777	-2.993600	3.125300	-9.354200	27.791463	0.000268	20.736646
2396.685544	-3.018500	3.123000	-9.424700	27.827465	0.000269	20.751542
2397.697045	-3.016300	3.122300	-9.415700	27.821916	0.000267	20.755915
2398.690775	-3.042300	3.121800	-9.496300	27.828124	0.000266	20.748886
2399.703345	-2.996400	3.122200	-9.354600	27.836555	0.000267	20.757846
2400.711030	-2.965300	3.122600	-9.258400	27.828375	0.000267	20.740604
2401.706704	-3.027900	3.119400	-9.444500	27.822373	0.000266	20.736933
2402.703143	-3.009100	3.119700	-9.385900	27.840276	0.000266	20.749736
2403.703315	-3.009200	3.118800	-9.384100	27.853296	0.000265	20.747193
2404.720193	-3.002500	3.118700	-9.362700	27.865846	0.000265	20.749866
2405.704569	-2.962800	3.117900	-9.236300	27.882676	0.000263	20.735985
2406.701235	-3.009700	3.116600	-9.379100	27.903949	0.000262	20.733214
2407.704354	-2.997700	3.115700	-9.338400	27.927829	0.000264	20.743972
2408.706449	-2.986600	3.114400	-9.300000	27.934180	0.000262	20.743726
2409.705571	-3.015500	3.114300	-9.388400	27.941246	0.000264	20.720017
2410.686730	-2.997600	3.113900	-9.333200	27.950416	0.000261	20.729722
2411.687520	-3.007000	3.113900	-9.362800	27.927811	0.000263	20.755335
2412.690076	-3.000700	3.112700	-9.339200	27.907921	0.000260	20.744324
2413.704195	-3.006500	3.111200	-9.352100	27.850550	0.000261	20.737791
2414.711653	-2.997800	3.111200	-9.326000	27.832647	0.000262	20.746326
2415.712178	-3.001700	3.108700	-9.330500	27.828927	0.000262	20.758703
2416.690333	-3.006400	3.109500	-9.347100	27.827643	0.000260	20.743660
2417.691535	-3.024300	3.107300	-9.396600	27.849810	0.000260	20.764074
2418.694906	-2.982400	3.107300	-9.265900	27.854570	0.000259	20.755114
2419.713088	-3.000700	3.106800	-9.321700	27.843556	0.000258	20.772479
2420.715406	-2.989700	3.107000	-9.287900	27.812064	0.000261	20.729877
2421.721305	-3.019500	3.103600	-9.370200	27.706457	0.000259	20.752571
2422.709886	-2.979300	3.104100	-9.247300	27.681337	0.000259	20.745311
2423.716702	-2.998900	3.101300	-9.299300	27.682255	0.000258	20.760934
2424.713947	-2.993500	3.101600	-9.284400	27.676032	0.000257	20.744240
2425.715510	-3.017700	3.099800	-9.353200	27.674464	0.000258	20.745982
2426.723290	-3.015400	3.100500	-9.348400	27.714369	0.000259	20.744886
2427.715269	-3.015700	3.100200	-9.348300	27.715636	0.000259	20.758015
2428.722704	-2.993000	3.097500	-9.269600	27.740120	0.000256	20.758472
2429.718727	-2.982300	3.098200	-9.237700	27.738658	0.000255	20.739456
2430.715468	-3.020600	3.098400	-9.357800	27.712799	0.000258	20.772705
2431.694128	-2.980400	3.094900	-9.222700	27.654964	0.000258	20.763818
2432.697413	-3.000900	3.095300	-9.287100	27.616568	0.000258	20.774021
2433.697407	-2.986700	3.094300	-9.241500	27.603179	0.000255	20.750591
2434.715055	-3.010500	3.092900	-9.309400	27.629665	0.000256	20.786251
2435.696542	-3.008600	3.091600	-9.300400	27.634848	0.000257	20.763492
2436.722859	-3.015700	3.090600	-9.319300	27.663966	0.000255	20.754858
2437.718506	-3.008900	3.090500	-9.297500	27.702873	0.000256	20.774095
2438.714775	-2.985600	3.089700	-9.224300	27.742305	0.000255	20.751662
2439.718283	-2.997300	3.087700	-9.253600	27.777919	0.000253	20.767587
2440.695617	-2.981900	3.087700	-9.206200	27.798471	0.000255	20.795383
2441.694070	-3.006700	3.086400	-9.278200	27.830987	0.000254	20.755087
2442.701527	-2.995300	3.086400	-9.244100	27.811175	0.000255	20.778296
2443.715614	-2.979300	3.085700	-9.192200	27.827340	0.000254	20.765167
2444.719175	-2.996700	3.083400	-9.238400	27.852561	0.000254	20.771584
2445.700739	-3.023100	3.083100	-9.320000	27.872966	0.000255	20.773628
2446.697200	-2.995100	3.081600	-9.228600	27.930408	0.000254	20.756526
2447.702507	-2.992500	3.081700	-9.221700	27.958007	0.000253	20.765339
2448.696821	-3.014100	3.079900	-9.280800	27.976613	0.000256	20.765101
2449.728999	-3.001300	3.078100	-9.237100	28.005658	0.000255	20.756404
2450.723833	-3.002900	3.077500	-9.240200	27.991753	0.000253	20.753787
2451.715388	-2.999900	3.077900	-9.232500	27.963164	0.000253	20.767685
2452.703591	-3.009700	3.075700	-9.256100	27.916569	0.000254	20.777210
2453.702363	-3.015500	3.073900	-9.267800	27.897229	0.000254	20.781927
2454.698566	-3.015500	3.074500	-9.271100	27.892088	0.000256	20.770589
2455.706869	-3.014700	3.073500	-9.264900	27.867706	0.000253	20.788249
2456.699240	-3.010900	3.073000	-9.250000	27.880296	0.000254	20.786696
2457.716034	-2.997900	3.071800	-9.207600	27.879200	0.000254	20.775162
2458.724870	-2.978400	3.070700	-9.144400	27.845890	0.000253	20.796165
2459.703629	-3.006200	3.069300	-9.225000	27.818882	0.000253	20.783208
2460.717751	-3.035100	3.067300	-9.308300	27.813870	0.000254	20.770578
2461.702526	-3.003500	3.067900	-9.212900	27.825805	0.000252	20.788279
2462.703447	-3.028400	3.064800	-9.279200	27.848778	0.000253	20.786744
2463.699802	-3.017200	3.065600	-9.248200	27.886817	0.000252	20.776189
2464.730034	-3.005600	3.064000	-9.208400	27.940141	0.000252	20.780548
2465.719396	-2.990100	3.063100	-9.157600	27.975936	0.000252	20.796188
2466.702851	-3.003400	3.061300	-9.194100	28.001666	0.000252	20.794586
2467.699892	-3.020300	3.060700	-9.243500	28.013281	0.000252	20.798217
2468.705206	-2.978600	3.060900	-9.116500	28.006809	0.000252	20.778426
2469.703835	-3.008600	3.058700	-9.200700	28.053086	0.000252	20.817896
2470.701035	-2.986000	3.058100	-9.130600	28.052461	0.000252	20.795456
2471.701351	-3.008000	3.056900	-9.193700	28.094302	0.000251	20.805332
2472.704184	-2.987700	3.056200	-9.130000	28.073626	0.000251	20.815813
2473.705603	-3.013500	3.054700	-9.204800	28.112455	0.000250	20.795157
2474.701063	-2.990600	3.053700	-9.131400	28.121111	0.000250	20.801026
2475.704856	-3.034900	3.053000	-9.263700	28.097895	0.000250	20.802311
2476.705359	-3.009600	3.051400	-9.182200	28.075132	0.000249	20.806424
2477.708960	-2.999200	3.051300	-9.150400	28.037767	0.000249	20.804373
2478.732430	-2.998900	3.048600	-9.141700	28.039847	0.000247	20.787026
2479.705681	-2.994300	3.048600	-9.127300	28.058332	0.000251	20.792357
2480.728977	-3.023000	3.046600	-9.208800	28.082225	0.000250	20.816883
2481.730284	-3.002900	3.045200	-9.143500	28.130017	0.000251	20.795767
2482.725002	-3.020500	3.044800	-9.195100	28.118137	0.000251	20.816998
2483.720534	-3.038400	3.041600	-9.241000	28.097357	0.000249	20.819313
2484.729107	-2.979800	3.043500	-9.067800	28.080498	0.000249	20.818937
2485.710640	-3.004700	3.042600	-9.140600	28.050523	0.000248	20.801565
2486.706422	-3.006700	3.040300	-9.140900	28.017689	0.000247	20.802654
2487.737417	-3.010300	3.038600	-9.146500	28.017836	0.000247	20.814181
2488.727104	-2.995100	3.038600	-9.099900	28.065735	0.000246	20.815456
2489.733299	-2.996200	3.037100	-9.098200	28.101047	0.000246	20.815442
2490.740438	-2.986100	3.036900	-9.066000	28.129779	0.000248	20.825399
2491.731999	-2.991000	3.035700	-9.079300	28.109445	0.000249	20.821525
2492.732037	-2.973800	3.034100	-9.022000	28.130145	0.000246	20.821026
2493.737598	-2.991600	3.033000	-9.072600	28.138836	0.000245	20.819343
2494.728356	-2.995200	3.031200	-9.078200	28.125103	0.000248	20.841080
2495.710114	-3.021600	3.029200	-9.151200	28.146811	0.000249	20.839226
2496.714596	-3.018000	3.027400	-9.135900	28.168606	0.000247	20.852157
2497.716540	-2.998000	3.027700	-9.076200	28.153502	0.000249	20.829841
2498.742196	-3.029400	3.024800	-9.162500	28.176874	0.000246	20.823024
2499.740439	-2.978900	3.025700	-9.012200	28.201015	0.000248	20.817931
2500.745466	-3.019200	3.023500	-9.127200	28.224037	0.000247	20.819297
2501.711241	-2.993000	3.023400	-9.048000	28.259811	0.000247	20.828289
2502.715783	-3.004000	3.022400	-9.078800	28.263547	0.000246	20.840585
2503.734011	-3.000700	3.020800	-9.062900	28.226538	0.000247	20.827505
2504.733678	-3.004900	3.019600	-9.073000	28.193270	0.000247	20.832893
2505.738447	-3.031900	3.017300	-9.147100	28.168082	0.000246	20.828397
2506.730551	-3.036600	3.016100	-9.157700	28.134163	0.000249	20.844511
2507.737476	-2.962400	3.016700	-8.935400	28.109989	0.000246	20.841511
2508.713130	-2.998600	3.013900	-9.036700	28.127231	0.000247	20.838954
2509.736358	-3.022200	3.011100	-9.099000	28.143520	0.000250	20.834016
2510.721748	-3.008700	3.012200	-9.061300	28.152193	0.000247	20.854127
2511.714104	-3.011700	3.011100	-9.067600	28.082624	0.000247	20.860431
2512.717164	-2.978900	3.009600	-8.964600	28.027091	0.000248	20.848627
2513.720650	-2.974300	3.010200	-8.951500	28.026986	0.000249	20.834297
2514.718032	-2.983900	3.007700	-8.973600	28.036969	0.000249	20.865207
2515.717732	-3.003900	3.005600	-9.027400	28.062098	0.000249	20.847829
2516.723814	-2.983400	3.004400	-8.962000	28.052775	0.000247	20.852195
2517.719417	-2.987000	3.003000	-8.969000	28.073249	0.000249	20.842459
2518.715960	-2.989800	3.002400	-8.976200	28.059802	0.000247	20.857845
2519.719202	-2.987700	3.001900	-8.968000	28.057244	0.000248	20.855271
2520.723702	-2.976800	3.001700	-8.934600	28.056742	0.000249	20.845283
2521.725115	-3.007800	2.997000	-9.013300	28.093028	0.000247	20.831550
2522.724599	-2.993200	2.998100	-8.973400	28.111244	0.000250	20.857473
2523.719896	-3.004000	2.996700	-9.001000	28.161107	0.000249	20.860729
2524.717060	-3.013200	2.993500	-9.019100	28.147319	0.000249	20.848745
2525.721148	-3.016000	2.992500	-9.023300	28.145672	0.000248	20.835708
2526.722720	-2.997400	2.991100	-8.964300	28.109293	0.000250	20.856932
2527.736066	-3.036900	2.989300	-9.077800	28.140072	0.000248	20.838606
2528.754402	-3.009700	2.988600	-8.994000	28.165101	0.000247	20.865698
2529.744741	-3.013000	2.986100	-8.994500	28.165192	0.000250	20.838290
2530.741474	-3.012100	2.984800	-8.989800	28.150804	0.000248	20.832814
2531.741889	-3.018300	2.985300	-9.009800	28.082616	0.000247	20.854733
2532.736457	-2.971500	2.983700	-8.865200	28.076591	0.000247	20.844875
2533.739558	-2.971900	2.984000	-8.867700	28.082407	0.000245	20.853100
2534.742568	-2.996600	2.980900	-8.932100	28.057338	0.000246	20.834978
2535.724984	-3.000800	2.979000	-8.937600	28.055464	0.000246	20.871497
2536.722253	-3.016700	2.978300	-8.983100	28.073901	0.000244	20.854021
2537.727580	-3.036200	2.974200	-9.027300	28.108847	0.000248	20.834198
2538.730471	-3.015300	2.975300	-8.970300	28.140526	0.000245	20.850916
2539.747900	-3.018600	2.974900	-8.977600	28.163713	0.000244	20.849603
2540.739079	-2.989300	2.973100	-8.885900	28.194253	0.000247	20.842417
2541.723517	-2.973400	2.971400	-8.834400	28.226718	0.000246	20.840015
2542.745718	-3.003100	2.968800	-8.913900	28.267879	0.000244	20.850161
2543.724198	-3.011700	2.967100	-8.935100	28.262870	0.000247	20.842747
2544.737649	-2.957900	2.967300	-8.776300	28.267677	0.000244	20.831940
2545.731318	-2.997100	2.964100	-8.882400	28.259608	0.000243	20.826662
2546.747650	-2.992600	2.964100	-8.869300	28.247015	0.000242	20.832948
2547.729307	-3.006700	2.962800	-8.907600	28.271975	0.000243	20.843379
2548.731724	-3.001700	2.960800	-8.887000	28.238929	0.000241	20.858945
2549.747369	-2.980400	2.959100	-8.818300	28.212328	0.000244	20.825053
2550.726819	-3.041500	2.956800	-8.992100	28.176154	0.000244	20.833679
2551.733240	-3.002000	2.956200	-8.873900	28.185225	0.000247	20.836173
2552.729298	-2.988000	2.955400	-8.829600	28.183359	0.000247	20.830027
2553.745646	-2.971300	2.953800	-8.775800	28.142181	0.000247	20.836935
2554.769497	-3.005800	2.952100	-8.872200	28.131903	0.000245	20.835597
2555.750844	-3.009400	2.949800	-8.876000	28.135444	0.000247	20.842955
2556.753638	-2.997500	2.949900	-8.841200	28.089369	0.000248	20.828816
2557.750311	-3.022500	2.945900	-8.903000	28.090158	0.000248	20.835299
2558.744688	-3.011100	2.945300	-8.868000	28.062703	0.000249	20.836585
2559.728242	-3.039700	2.943600	-8.945900	28.027110	0.000247	20.813085
2560.745586	-3.016700	2.941900	-8.873600	28.013509	0.000248	20.818361
2561.731986	-2.982000	2.942000	-8.771800	28.011521	0.000249	20.833902
2562.730150	-2.999300	2.938900	-8.812100	27.993282	0.000248	20.820760
2563.732095	-2.998200	2.938100	-8.807900	28.007620	0.000248	20.835666
2564.733140	-2.997300	2.936000	-8.800000	27.978579	0.000249	20.818288
2565.729062	-3.025000	2.934300	-8.875300	27.970030	0.000248	20.846667
2566.731096	-3.022700	2.930900	-8.858200	27.995123	0.000248	20.837311
2567.764736	-2.961500	2.932600	-8.683000	28.035993	0.000248	20.840044
2568.758963	-2.985400	2.931000	-8.749900	28.077131	0.000251	20.828349
2569.757264	-2.983700	2.928700	-8.737400	28.125185	0.000248	20.827412
2570.756712	-2.968200	2.928900	-8.692000	28.155730	0.000248	20.840144
2571.753659	-2.998500	2.924000	-8.766500	28.210246	0.000247	20.808732
2572.749633	-3.026600	2.922900	-8.845300	28.224814	0.000249	20.811546
2573.751949	-2.999100	2.922600	-8.763700	28.239063	0.000246	20.836322
2574.758298	-3.024100	2.919400	-8.827000	28.263772	0.000247	20.818052
2575.749232	-3.021400	2.918600	-8.817400	28.222657	0.000246	20.832607
2576.767115	-3.027500	2.915800	-8.826600	28.208735	0.000245	20.819065
2577.755732	-3.001800	2.915300	-8.750300	28.199082	0.000248	20.840166
2578.731933	-2.967600	2.914300	-8.646200	28.211265	0.000244	20.823509
2579.735320	-2.984600	2.911800	-8.688000	28.220793	0.000245	20.825989
2580.731782	-3.009400	2.909800	-8.755800	28.248224	0.000243	20.813304
2581.733964	-3.027300	2.906900	-8.799400	28.236291	0.000244	20.815988
2582.736889	-3.009000	2.905800	-8.742400	28.232663	0.000245	20.823715
2583.737253	-3.047500	2.904000	-8.848300	28.209029	0.000242	20.835007
2584.738139	-2.982300	2.904800	-8.661700	28.232790	0.000246	20.822420
2585.736055	-3.014100	2.901500	-8.744600	28.238086	0.000244	20.820640
2586.734853	-2.997800	2.901200	-8.695800	28.280562	0.000244	20.836379
2587.732421	-3.020900	2.896800	-8.749700	28.259956	0.000243	20.837443
2588.737884	-2.993100	2.898500	-8.673300	28.277301	0.000244	20.819820
2589.758447	-3.001300	2.895300	-8.688600	28.315660	0.000244	20.825724
2590.736884	-2.976400	2.894000	-8.611500	28.348665	0.000243	20.842836
2591.737042	-2.990800	2.891100	-8.645500	28.336562	0.000244	20.813106
2592.751996	-2.967400	2.890700	-8.575900	28.342451	0.000245	20.821880
2593.755097	-2.989500	2.887300	-8.631100	28.353024	0.000244	20.814983
2594.756233	-2.990600	2.887700	-8.634200	28.368630	0.000244	20.818843
2595.734361	-2.977600	2.884700	-8.587400	28.342107	0.000243	20.831017
2596.739476	-3.010400	2.882500	-8.675900	28.347776	0.000243	20.806853
2597.734712	-2.968200	2.881600	-8.552300	28.372036	0.000245	20.819901
2598.738330	-2.989600	2.878700	-8.605300	28.401371	0.000243	20.813404
2599.738436	-3.025900	2.874800	-8.698000	28.408672	0.000241	20.832610
2600.733671	-3.002000	2.873800	-8.626500	28.410433	0.000241	20.823478
2601.762726	-2.986000	2.873800	-8.580400	28.430479	0.000241	20.827542
2602.768192	-2.964900	2.871300	-8.511700	28.478499	0.000242	20.833699
2603.753901	-3.027400	2.869500	-8.685800	28.487910	0.000241	20.809985
2604.746697	-3.015100	2.867700	-8.645200	28.495565	0.000242	20.822436
2605.735339	-2.999700	2.864700	-8.592800	28.467461	0.000241	20.808359
2606.737708	-2.996700	2.863100	-8.578100	28.452932	0.000241	20.817910
2607.738011	-3.006400	2.860900	-8.599100	28.463224	0.000240	20.821635
2608.735339	-3.004600	2.857900	-8.586000	28.433449	0.000240	20.799713
2609.754415	-2.985200	2.858100	-8.529800	28.431443	0.000243	20.785365
2610.756328	-3.016200	2.854700	-8.610300	28.362168	0.000243	20.814233
2611.752360	-3.014200	2.852300	-8.596400	28.343870	0.000245	20.798179
2612.761098	-2.974500	2.852700	-8.484200	28.326868	0.000245	20.817096
2613.758976	-2.997200	2.849500	-8.539200	28.350047	0.000245	20.812934
2614.754955	-2.974900	2.848900	-8.474300	28.358633	0.000241	20.812095
2615.753262	-2.982600	2.845400	-8.485000	28.324801	0.000242	20.822600
2616.757142	-2.999700	2.842100	-8.524600	28.326213	0.000241	20.817385
2617.755831	-3.008800	2.841600	-8.549200	28.336469	0.000241	20.801159
2618.757635	-3.036300	2.837400	-8.614500	28.326751	0.000242	20.814607
2619.759161	-3.001500	2.836600	-8.513100	28.354834	0.000241	20.795469
2620.754137	-2.993600	2.834600	-8.484700	28.389210	0.000242	20.799262
2621.761398	-2.992700	2.833000	-8.477300	28.376611	0.000242	20.797482
2622.754103	-3.018800	2.829300	-8.539000	28.324244	0.000242	20.805444
2623.759458	-2.985300	2.829500	-8.445700	28.370863	0.000243	20.796909
2624.765524	-3.017800	2.823700	-8.519600	28.394560	0.000240	20.808917
2625.753214	-2.990600	2.823200	-8.442100	28.476600	0.000242	20.809027
2626.765328	-3.008000	2.821500	-8.486300	28.515979	0.000240	20.797950
2627.755699	-2.989200	2.819600	-8.426500	28.515215	0.000241	20.794809
2628.756243	-2.998200	2.816500	-8.444100	28.464920	0.000241	20.820025
2629.758298	-3.003600	2.813600	-8.450400	28.402797	0.000241	20.802512
2630.766095	-2.996800	2.812400	-8.427200	28.380916	0.000241	20.780954
2631.766335	-2.987200	2.810500	-8.394800	28.405347	0.000243	20.802709
2632.754450	-2.967300	2.808500	-8.332500	28.413132	0.000242	20.795850
2633.763494	-3.006900	2.804200	-8.429800	28.419602	0.000241	20.786718
2634.742171	-3.012600	2.802700	-8.442800	28.420311	0.000241	20.797389
2635.737897	-3.041400	2.797600	-8.508200	28.455754	0.000242	20.784716
2636.740815	-3.026300	2.795300	-8.458000	28.463832	0.000241	20.796170
2637.742086	-3.001300	2.794500	-8.385300	28.453002	0.000241	20.780522
2638.740398	-2.988500	2.791200	-8.340400	28.480807	0.000242	20.760632
2639.748962	-2.988000	2.788400	-8.330100	28.522858	0.000242	20.807247
2640.739070	-3.023300	2.785300	-8.419800	28.516242	0.000242	20.799636
2641.739995	-3.005300	2.782600	-8.360900	28.539085	0.000241	20.790874
2642.741359	-2.977000	2.780900	-8.278400	28.504697	0.000243	20.793226
2643.747115	-3.020500	2.777200	-8.386700	28.453773	0.000239	20.792678
2644.744732	-2.999300	2.775500	-8.323200	28.426310	0.000241	20.785412
2645.744542	-2.990900	2.772800	-8.290700	28.449737	0.000240	20.775338
2646.745310	-3.002500	2.769600	-8.314700	28.470528	0.000240	20.783472
2647.746608	-2.973300	2.767600	-8.228100	28.501132	0.000240	20.772093
2648.744609	-2.970900	2.765100	-8.213600	28.513894	0.000241	20.767874
2649.745107	-2.988500	2.761500	-8.251500	28.514438	0.000241	20.778854
2650.742261	-3.000800	2.757100	-8.272400	28.523879	0.000240	20.776982
2651.745524	-3.000500	2.754800	-8.264800	28.514273	0.000240	20.759247
2652.770090	-2.998600	2.751900	-8.250300	28.551475	0.000240	20.796713
2653.759339	-3.026500	2.747500	-8.314700	28.617306	0.000240	20.788572
2654.772845	-2.980400	2.746300	-8.183700	28.664628	0.000242	20.782654
2655.766496	-3.013400	2.744100	-8.267600	28.674520	0.000241	20.787402
2656.743286	-3.006300	2.738800	-8.233000	28.711117	0.000242	20.785856
2657.772255	-2.978000	2.736800	-8.149400	28.714883	0.000241	20.786330
2658.767695	-3.021800	2.732600	-8.256500	28.770857	0.000241	20.781072
2659.768263	-2.991200	2.731300	-8.168600	28.787631	0.000242	20.787064
2660.766817	-3.005600	2.727000	-8.195800	28.797321	0.000241	20.787341
2661.760422	-3.005600	2.723500	-8.184900	28.841126	0.000242	20.769354
2662.781341	-2.970000	2.721600	-8.082200	28.863468	0.000241	20.759618
2663.748993	-2.996700	2.717200	-8.141000	28.828246	0.000242	20.753534
2664.768246	-3.013200	2.712600	-8.173200	28.838675	0.000241	20.762617
2665.778773	-3.008400	2.709500	-8.150500	28.805831	0.000241	20.771731
2666.766616	-3.001600	2.706200	-8.122100	28.758540	0.000241	20.780045
2667.767975	-3.004000	2.703600	-8.120900	28.759157	0.000242	20.771183
2668.773715	-3.019100	2.698300	-8.145100	28.764017	0.000242	20.779872
2669.781468	-3.013200	2.695100	-8.119900	28.772124	0.000240	20.761011
2670.771010	-2.987500	2.691600	-8.040100	28.811718	0.000241	20.755377
2671.767392	-3.011300	2.687800	-8.093100	28.769006	0.000240	20.757396
2672.761697	-3.022800	2.682100	-8.106400	28.769752	0.000242	20.756725
2673.764640	-2.965000	2.681300	-7.949500	28.814005	0.000243	20.774750
2674.765639	-2.988900	2.676400	-7.998800	28.870909	0.000241	20.761898
2675.771420	-3.001000	2.672500	-8.019500	28.916196	0.000241	20.752046
2676.750567	-2.987100	2.667700	-7.967400	28.964697	0.000241	20.759657
2677.767385	-2.996100	2.664000	-7.980900	28.980778	0.000241	20.754048
2678.764101	-2.981800	2.661800	-7.936300	29.029128	0.000240	20.775736
2679.776533	-3.013400	2.655300	-8.001100	29.052933	0.000240	20.748986
2680.776286	-3.014700	2.651800	-7.992300	29.046198	0.000239	20.755002
2681.764354	-2.988800	2.647700	-7.912700	29.059827	0.000240	20.745501
2682.775339	-2.993800	2.642100	-7.908300	29.037141	0.000242	20.751093
2683.767090	-2.974200	2.639200	-7.848600	28.993577	0.000239	20.753667
2684.768935	-3.010400	2.634200	-7.928700	29.037692	0.000239	20.762079
2685.765245	-2.973000	2.629600	-7.816700	29.058697	0.000239	20.763329
2686.752301	-2.969000	2.626000	-7.795000	29.050575	0.000240	20.726220
2687.753449	-2.967600	2.621700	-7.779300	29.060611	0.000241	20.745342
2688.750439	-2.983400	2.615900	-7.803000	29.069980	0.000237	20.747196
2689.755348	-3.024200	2.609900	-7.891200	29.063692	0.000240	20.752240
2690.756257	-2.998500	2.604200	-7.807400	29.050417	0.000240	20.736493
2691.756855	-3.009200	2.599700	-7.821900	29.025696	0.000240	20.755682
2692.750470	-3.002600	2.595000	-7.791000	29.025782	0.000240	20.748656
2693.754361	-3.008200	2.588600	-7.786100	28.992442	0.000241	20.734505
2694.753088	-3.013800	2.585100	-7.789400	28.983978	0.000242	20.736408
2695.752546	-2.979200	2.579300	-7.682300	28.973844	0.000239	20.750855
2696.752097	-3.010200	2.572800	-7.743500	28.976698	0.000239	20.731919
2697.756870	-2.962800	2.570100	-7.613300	28.981735	0.000239	20.732726
2698.758083	-3.051200	2.562100	-7.816500	28.945093	0.000239	20.737061
2699.753154	-3.007500	2.557200	-7.689300	28.940821	0.000238	20.732283
2700.775651	-2.984700	2.551600	-7.614700	28.963931	0.000240	20.747980
2701.778018	-3.000800	2.545100	-7.636800	28.988055	0.000242	20.736723
2702.758190	-3.022900	2.537800	-7.669500	29.032825	0.000244	20.731570
2703.758462	-2.950000	2.534700	-7.474100	29.072721	0.000242	20.749957
2704.755307	-2.984300	2.528400	-7.544000	29.077262	0.000239	20.736989
2705.782079	-3.022300	2.521000	-7.618800	29.069953	0.000240	20.730572
2706.778366	-2.980900	2.515900	-7.497500	29.078754	0.000241	20.733750
2707.773183	-3.024900	2.508400	-7.586900	29.121722	0.000240	20.742433
2708.778039	-2.982300	2.504700	-7.468100	29.086809	0.000238	20.733332
2709.776444	-2.992300	2.497800	-7.473500	29.073932	0.000240	20.729366
