LabVIEW Measurement	
Writer_Version	2
Reader_Version	2
Separator	Tab
Decimal_Separator	.
Multi_Headings	No
X_Columns	One
Time_Pref	Absolute
Operator	admin
Description	Clolumns are: time, Current, Voltage, Power, Battery Temp, and Chamber Temp
Date	2024/08/16
Time	13:06:06.104549407958984375
***End_of_Header***	
	
Channels	6						
Samples	1	1	1	1	1	1	
Date	2024/09/06	2024/09/06	2024/09/06	2024/09/06	2024/09/06	2024/09/06	
Time	11:10:08.1351232528686523437	11:10:08.1401209831237792969	11:10:08.1485400199890136719	11:10:08.1143817901611328125	11:10:08.1143817901611328125	11:10:08.1143817901611328125	
X_Dimension	Time	Time	Time	Time	Time	Time	
X0	0.0000000000000000E+0	0.0000000000000000E+0	0.0000000000000000E+0	0.0000000000000000E+0	0.0000000000000000E+0	0.0000000000000000E+0	
Delta_X	1.000000	1.000000	1.000000	1.000000	1.000000	1.000000	
***End_of_Header***							
X_Value	Untitled	Untitled 1	Untitled 2	Untitled 3	Untitled 4	Untitled 5	Comment
0.000000	0.028503	4.100900	0.116870	21.008898	0.000926	20.850549
0.995961	-3.030500	3.927900	-11.903000	21.009248	0.000925	20.848054
1.997386	-3.010600	3.921600	-11.806000	21.010047	0.000923	20.869715
2.996972	-3.000800	3.916400	-11.751000	21.020377	0.000923	20.874357
3.997435	-3.034000	3.911900	-11.868000	21.021002	0.000922	20.865025
4.996614	-3.015200	3.909000	-11.785000	21.004882	0.000918	20.863601
5.994221	-3.001400	3.906100	-11.721000	21.016262	0.000919	20.871663
6.998504	-2.984800	3.904800	-11.654000	21.037145	0.000919	20.877378
7.996675	-2.984000	3.902600	-11.645000	21.011521	0.000919	20.883990
8.996912	-2.980300	3.900000	-11.623000	21.026368	0.000917	20.854272
9.999784	-2.987600	3.899100	-11.648000	21.029411	0.000916	20.848781
10.997311	-2.982000	3.896000	-11.617000	21.044482	0.000916	20.874284
11.999012	-2.993400	3.894200	-11.655000	21.039366	0.000915	20.849729
13.001217	-3.000900	3.893700	-11.683000	21.043161	0.000914	20.855421
13.997402	-3.018400	3.890500	-11.742000	21.061374	0.000915	20.849456
15.001824	-3.009600	3.891200	-11.709000	21.054836	0.000915	20.877055
16.008408	-3.003700	3.891000	-11.687000	21.049148	0.000912	20.879425
16.999166	-3.009600	3.887700	-11.698000	21.056760	0.000913	20.877556
18.000765	-2.994200	3.888200	-11.640000	21.065367	0.000914	20.862458
19.004730	-3.007300	3.886500	-11.686000	21.076496	0.000912	20.868848
20.002568	-2.999400	3.886500	-11.656000	21.101843	0.000913	20.868597
21.007946	-3.006000	3.883300	-11.671000	21.090692	0.000913	20.859340
22.004307	-2.993200	3.884500	-11.625000	21.093435	0.000912	20.864928
23.001292	-2.981800	3.883300	-11.578000	21.091936	0.000910	20.897566
24.001817	-3.003500	3.882400	-11.660000	21.112872	0.000910	20.875361
25.006898	-2.998600	3.879500	-11.630000	21.126093	0.000909	20.880051
26.001101	-3.016700	3.880100	-11.704000	21.116339	0.000908	20.880252
27.001154	-2.991900	3.881600	-11.613000	21.109552	0.000906	20.873463
28.004041	-3.017500	3.879200	-11.705000	21.123675	0.000906	20.871469
29.001343	-3.007700	3.879200	-11.667000	21.151818	0.000907	20.875912
30.003906	-3.024000	3.876000	-11.720000	21.152667	0.000906	20.887192
31.005186	-3.001500	3.877900	-11.638000	21.140591	0.000904	20.883647
32.000074	-2.989600	3.878100	-11.592000	21.146803	0.000906	20.886067
33.001446	-3.000300	3.876400	-11.629000	21.156034	0.000904	20.897198
34.002966	-3.002500	3.874900	-11.633000	21.163147	0.000903	20.876813
35.000834	-3.011400	3.874500	-11.667000	21.168959	0.000904	20.897324
36.000986	-2.993000	3.875400	-11.598000	21.174823	0.000904	20.874269
37.004728	-3.023300	3.873700	-11.711000	21.179263	0.000905	20.890088
38.002759	-3.006100	3.874400	-11.646000	21.196803	0.000905	20.873496
39.002434	-3.012600	3.873000	-11.665000	21.202091	0.000903	20.893010
40.003797	-2.993700	3.871900	-11.589000	21.203215	0.000902	20.889867
41.001990	-2.984700	3.873000	-11.559000	21.211923	0.000902	20.861596
42.002787	-3.003500	3.871600	-11.627000	21.220132	0.000904	20.892565
43.009498	-3.004200	3.872000	-11.631000	21.223601	0.000902	20.886553
44.003955	-3.013300	3.871700	-11.664000	21.241863	0.000902	20.879692
45.003627	-3.015300	3.870500	-11.669000	21.238793	0.000901	20.898430
46.006716	-2.990700	3.869500	-11.571000	21.260749	0.000901	20.895739
47.003426	-2.990200	3.871500	-11.575000	21.255359	0.000902	20.883710
48.004523	-2.999400	3.869600	-11.606000	21.266412	0.000900	20.894292
49.004766	-3.002300	3.867800	-11.611000	21.266360	0.000900	20.889499
50.003451	-3.000800	3.867700	-11.604000	21.270705	0.000901	20.890052
51.002398	-3.005600	3.868100	-11.624000	21.272524	0.000899	20.906569
52.003864	-3.007500	3.868100	-11.633000	21.296100	0.000899	20.889379
53.003821	-2.979700	3.869400	-11.528000	21.293856	0.000900	20.906574
54.003224	-2.992100	3.867300	-11.570000	21.300440	0.000898	20.879023
55.007163	-3.018000	3.867700	-11.671000	21.316779	0.000899	20.894895
56.004380	-3.019800	3.866500	-11.674000	21.336784	0.000900	20.887408
57.004874	-3.011600	3.866100	-11.641000	21.331124	0.000898	20.893599
58.009076	-3.009900	3.865200	-11.632000	21.331449	0.000899	20.887287
59.003824	-3.008200	3.865200	-11.627000	21.324340	0.000900	20.919526
60.003827	-2.990100	3.866600	-11.560000	21.354170	0.000900	20.892001
61.007541	-2.992800	3.866000	-11.570000	21.362875	0.000899	20.918725
62.006279	-3.018200	3.863500	-11.660000	21.372006	0.000900	20.900835
63.003866	-3.006000	3.864900	-11.616000	21.384603	0.000898	20.874086
64.006659	-3.011300	3.863500	-11.632000	21.385774	0.000899	20.908920
65.004847	-2.990300	3.862600	-11.549000	21.389640	0.000898	20.905201
66.005694	-2.993800	3.864600	-11.568000	21.408544	0.000899	20.913683
67.008963	-2.993900	3.863200	-11.565000	21.398868	0.000899	20.906847
68.008545	-2.995600	3.864100	-11.574000	21.445309	0.000898	20.912062
69.008242	-3.007000	3.863700	-11.617000	21.421615	0.000898	20.908269
70.011673	-3.008000	3.861400	-11.614000	21.447629	0.000899	20.896367
71.007465	-2.987400	3.862900	-11.539000	21.440144	0.000899	20.920644
72.007877	-3.005200	3.862700	-11.607000	21.431614	0.000898	20.901205
73.016906	-3.001200	3.861300	-11.588000	21.455958	0.000900	20.919871
74.011186	-2.997300	3.860500	-11.570000	21.466607	0.000898	20.903975
75.013114	-3.012000	3.859900	-11.625000	21.479151	0.000899	20.913681
76.014438	-3.011600	3.858900	-11.618000	21.484662	0.000898	20.904971
77.010683	-2.986700	3.860200	-11.529000	21.483240	0.000898	20.916349
78.013197	-3.008100	3.859600	-11.609000	21.496360	0.000899	20.929949
79.016166	-2.987000	3.860200	-11.530000	21.514267	0.000897	20.911834
80.013990	-3.017800	3.856800	-11.638000	21.513046	0.000897	20.908716
81.012681	-3.008100	3.858100	-11.605000	21.521849	0.000896	20.928902
82.016221	-2.987400	3.858300	-11.525000	21.537310	0.000897	20.886530
83.013415	-2.984000	3.860500	-11.518000	21.550079	0.000897	20.921589
84.017717	-3.003800	3.859500	-11.592000	21.555840	0.000896	20.913604
85.018575	-3.001300	3.857500	-11.576000	21.557636	0.000899	20.932943
86.015858	-3.013700	3.857700	-11.624000	21.559908	0.000898	20.913408
87.016729	-3.003300	3.857600	-11.585000	21.560032	0.000896	20.926807
88.017586	-3.006000	3.857100	-11.593000	21.586418	0.000896	20.929977
89.024913	-3.014000	3.857100	-11.623000	21.582454	0.000895	20.929803
90.018233	-2.990800	3.857800	-11.537000	21.587117	0.000897	20.925935
91.019548	-2.991000	3.856700	-11.534000	21.602106	0.000897	20.925762
92.017715	-3.017200	3.856400	-11.634000	21.613203	0.000895	20.931649
93.017849	-3.006700	3.856900	-11.596000	21.604349	0.000895	20.917575
94.018721	-3.008100	3.855100	-11.596000	21.608268	0.000895	20.918178
95.018131	-2.991900	3.855900	-11.535000	21.607196	0.000896	20.927062
96.016863	-3.006400	3.855900	-11.591000	21.634705	0.000896	20.921874
97.020232	-2.995400	3.855500	-11.547000	21.625553	0.000896	20.909398
98.018448	-2.997600	3.856100	-11.558000	21.640891	0.000897	20.922375
99.019515	-3.014600	3.854500	-11.619000	21.654758	0.000898	20.923924
100.019544	-3.004600	3.854000	-11.579000	21.652042	0.000897	20.928317
101.018995	-3.005900	3.854500	-11.584000	21.676657	0.000897	20.910279
102.029857	-2.981500	3.855600	-11.494000	21.683513	0.000897	20.898650
103.024899	-2.990200	3.856600	-11.530000	21.673144	0.000899	20.927624
104.030691	-2.999000	3.852400	-11.552000	21.683867	0.000897	20.917969
105.019914	-2.991800	3.853900	-11.529000	21.692222	0.000898	20.906416
106.021958	-2.991400	3.854200	-11.528000	21.693720	0.000898	20.902226
107.020327	-3.017000	3.853500	-11.623000	21.703749	0.000896	20.917951
108.021608	-2.995400	3.854400	-11.545000	21.708660	0.000897	20.919073
109.034406	-2.964600	3.853600	-11.422000	21.715295	0.000897	20.913386
110.022113	-2.999800	3.852300	-11.555000	21.722627	0.000898	20.917404
111.021926	-3.014900	3.852100	-11.613000	21.730709	0.000896	20.908424
112.022059	-2.986700	3.851800	-11.502000	21.722109	0.000898	20.895076
113.023731	-2.999100	3.852100	-11.552000	21.707796	0.000899	20.883598
114.023020	-2.995200	3.851700	-11.535000	21.734355	0.000901	20.891685
115.024856	-3.001300	3.851600	-11.558000	21.744081	0.000900	20.886247
116.022871	-3.019300	3.851000	-11.625000	21.735580	0.000900	20.901445
117.026748	-3.003900	3.851500	-11.568000	21.736480	0.000900	20.896657
118.023875	-2.996700	3.850800	-11.539000	21.743765	0.000901	20.904895
119.024494	-3.002700	3.850300	-11.560000	21.761297	0.000899	20.893519
120.025723	-2.995000	3.850300	-11.530000	21.753047	0.000899	20.892849
121.025465	-3.034100	3.849000	-11.677000	21.752573	0.000901	20.882892
122.024276	-3.013200	3.849000	-11.596000	21.755544	0.000900	20.883021
123.024633	-3.004000	3.850500	-11.565000	21.769159	0.000900	20.895224
124.027274	-3.013200	3.848500	-11.594000	21.750836	0.000901	20.893007
125.026506	-3.033000	3.848800	-11.672000	21.767095	0.000901	20.858548
126.024355	-3.023000	3.848400	-11.632000	21.801332	0.000903	20.888544
127.028303	-3.017900	3.848700	-11.614000	21.805501	0.000901	20.896035
128.037097	-2.999100	3.848600	-11.539000	21.808743	0.000901	20.867988
129.025137	-3.014600	3.849000	-11.602000	21.809769	0.000902	20.873757
130.030839	-2.998700	3.848900	-11.541000	21.816826	0.000903	20.888405
131.026097	-2.974800	3.849200	-11.449000	21.832263	0.000903	20.872563
132.026711	-2.994300	3.848400	-11.522000	21.828426	0.000904	20.881524
133.030742	-3.010500	3.847000	-11.580000	21.848650	0.000904	20.871895
134.027933	-3.004400	3.848400	-11.560000	21.855083	0.000905	20.880230
135.028109	-3.005600	3.847200	-11.561000	21.883707	0.000905	20.872371
136.031147	-2.997700	3.847300	-11.531000	21.867030	0.000906	20.861844
137.028601	-3.013100	3.847100	-11.590000	21.896876	0.000904	20.870381
138.028694	-2.990700	3.847200	-11.504000	21.893012	0.000906	20.847548
139.031186	-3.008800	3.846300	-11.571000	21.899247	0.000907	20.848573
140.032650	-3.010300	3.845600	-11.575000	21.888303	0.000907	20.867963
141.030024	-2.991100	3.847000	-11.505000	21.904860	0.000908	20.888802
142.031188	-2.983000	3.845900	-11.471000	21.896060	0.000906	20.869090
143.031741	-2.994800	3.847400	-11.520000	21.886212	0.000907	20.849750
144.031680	-3.016900	3.844900	-11.598000	21.899604	0.000909	20.856043
145.034027	-2.993900	3.844900	-11.509000	21.904741	0.000907	20.856916
146.033165	-2.986200	3.845800	-11.483000	21.909954	0.000909	20.867824
147.033479	-3.026000	3.843000	-11.627000	21.908233	0.000908	20.870842
148.033889	-3.012200	3.844000	-11.577000	21.928530	0.000908	20.850383
149.033477	-3.024100	3.843000	-11.621000	21.926260	0.000910	20.829620
150.033634	-3.018200	3.844200	-11.601000	21.933018	0.000911	20.873367
151.033875	-3.009900	3.842800	-11.564000	21.975426	0.000910	20.866032
152.040719	-3.005500	3.843700	-11.551000	21.967200	0.000911	20.869651
153.035329	-2.998800	3.843800	-11.526000	21.990707	0.000912	20.863311
154.039847	-3.025200	3.842300	-11.623000	21.985552	0.000911	20.854831
155.040278	-2.998100	3.843500	-11.522000	21.980190	0.000911	20.853732
156.034843	-2.992700	3.844500	-11.504000	21.997470	0.000913	20.851589
157.037213	-2.995200	3.843800	-11.511000	21.999065	0.000914	20.856030
158.039456	-2.999800	3.843200	-11.528000	22.001359	0.000913	20.850266
159.037650	-2.984700	3.841900	-11.466000	22.022199	0.000913	20.850740
160.040931	-3.005300	3.841100	-11.542000	22.036935	0.000913	20.840836
161.044351	-2.992000	3.842500	-11.495000	22.049373	0.000914	20.847598
162.037775	-3.002000	3.841700	-11.531000	22.054561	0.000914	20.874601
163.043610	-3.001100	3.841900	-11.528000	22.050048	0.000912	20.854911
164.043049	-2.990800	3.843000	-11.493000	22.056257	0.000914	20.852118
165.038867	-2.987400	3.841400	-11.475000	22.055759	0.000914	20.854464
166.043690	-2.991100	3.840900	-11.487000	22.072239	0.000913	20.847729
167.043866	-2.993200	3.841100	-11.496000	22.085778	0.000915	20.833309
168.039240	-2.992200	3.841200	-11.492000	22.064289	0.000914	20.833607
169.043921	-3.013300	3.839100	-11.567000	22.095105	0.000915	20.835533
170.043847	-3.015000	3.839000	-11.574000	22.098698	0.000917	20.830122
171.039424	-3.007100	3.840500	-11.547000	22.100342	0.000916	20.842673
172.042414	-3.009900	3.839800	-11.557000	22.094584	0.000916	20.831693
173.042958	-2.993500	3.840500	-11.496000	22.138409	0.000916	20.840007
174.042545	-2.990900	3.839900	-11.484000	22.097681	0.000918	20.844751
175.046554	-3.016600	3.837600	-11.576000	22.122111	0.000917	20.831276
176.048034	-3.015800	3.838800	-11.577000	22.146812	0.000917	20.838937
177.043869	-3.002600	3.839600	-11.527000	22.133904	0.000919	20.835022
178.050986	-3.025000	3.837100	-11.605000	22.159828	0.000919	20.838217
179.048315	-2.971100	3.838200	-11.403000	22.163046	0.000919	20.840965
180.044885	-2.994200	3.838100	-11.490000	22.167408	0.000919	20.845332
181.048376	-2.992500	3.837900	-11.483000	22.180596	0.000918	20.826294
182.045251	-2.976400	3.839700	-11.427000	22.189198	0.000920	20.801716
183.045430	-3.010400	3.837500	-11.551000	22.223344	0.000919	20.834007
184.047294	-3.014100	3.836200	-11.562000	22.191965	0.000921	20.820607
185.047163	-3.000400	3.836100	-11.509000	22.210638	0.000922	20.838354
186.045462	-3.041400	3.836600	-11.667000	22.220384	0.000923	20.826302
187.047263	-3.000200	3.836000	-11.508000	22.241645	0.000922	20.829572
188.047181	-3.000100	3.837500	-11.512000	22.229434	0.000924	20.837260
189.047318	-3.005200	3.835300	-11.525000	22.224924	0.000924	20.826580
190.049924	-2.997300	3.835000	-11.493000	22.212063	0.000925	20.823187
191.047514	-3.003600	3.836500	-11.522000	22.242325	0.000924	20.824088
192.049045	-2.990300	3.835900	-11.469000	22.228167	0.000926	20.829353
193.048555	-2.982200	3.836700	-11.440000	22.241801	0.000927	20.827832
194.049049	-3.014700	3.835400	-11.560000	22.259747	0.000926	20.837265
195.049272	-3.008600	3.834400	-11.536000	22.247861	0.000927	20.814933
196.053466	-3.000600	3.833900	-11.503000	22.275748	0.000928	20.800656
197.050330	-3.005300	3.834900	-11.524000	22.279140	0.000928	20.826812
198.050550	-3.007200	3.834300	-11.529000	22.299254	0.000930	20.809494
199.052282	-2.987900	3.833600	-11.452000	22.286191	0.000928	20.811587
200.049768	-3.008200	3.833700	-11.532000	22.266379	0.000928	20.824940
201.053123	-3.006800	3.833700	-11.526000	22.279239	0.000928	20.828807
202.053034	-3.007700	3.833900	-11.530000	22.277796	0.000930	20.817406
203.052194	-3.011800	3.834300	-11.547000	22.302668	0.000929	20.799162
204.051399	-3.004800	3.832200	-11.513000	22.287989	0.000932	20.837094
205.053528	-3.000400	3.832800	-11.499000	22.322705	0.000931	20.823967
206.052641	-2.976500	3.832200	-11.406000	22.302071	0.000932	20.828435
207.057956	-3.001300	3.832700	-11.501000	22.290505	0.000933	20.829182
208.055430	-3.003100	3.832900	-11.509000	22.310765	0.000932	20.827658
209.052850	-2.997700	3.831200	-11.483000	22.302842	0.000933	20.807396
210.054042	-2.987600	3.831900	-11.447000	22.306379	0.000934	20.824689
211.059966	-2.992300	3.832100	-11.465000	22.306253	0.000933	20.817924
212.053397	-2.995300	3.831300	-11.475000	22.307827	0.000935	20.817130
213.053248	-3.010500	3.830200	-11.530000	22.328090	0.000934	20.820824
214.055763	-3.001400	3.831600	-11.498000	22.331749	0.000932	20.808841
215.056995	-2.992400	3.830600	-11.462000	22.350992	0.000934	20.803454
216.053019	-3.002000	3.829700	-11.495000	22.341321	0.000937	20.810840
217.056435	-3.018800	3.829100	-11.558000	22.367391	0.000936	20.823195
218.052972	-2.974700	3.832500	-11.400000	22.338130	0.000936	20.798636
219.058023	-3.012300	3.829200	-11.534000	22.364374	0.000938	20.817803
220.056342	-2.993300	3.829500	-11.461000	22.388922	0.000937	20.817254
221.053238	-3.008000	3.829700	-11.518000	22.391441	0.000937	20.810768
222.055240	-2.982900	3.828600	-11.419000	22.404721	0.000939	20.810316
223.056419	-2.987300	3.829400	-11.438000	22.405095	0.000939	20.812587
224.055767	-3.015000	3.827700	-11.539000	22.395130	0.000939	20.793599
225.055965	-2.985700	3.828300	-11.429000	22.395102	0.000941	20.793572
226.055079	-2.988600	3.828900	-11.442000	22.395477	0.000939	20.812912
227.053580	-3.010700	3.827300	-11.521000	22.407091	0.000943	20.811267
228.055066	-3.013200	3.826400	-11.529000	22.411528	0.000940	20.801012
229.062854	-3.006000	3.828100	-11.507000	22.408335	0.000942	20.807771
230.056922	-3.023900	3.826200	-11.568000	22.429939	0.000942	20.821819
231.056504	-2.986800	3.828100	-11.432000	22.428472	0.000945	20.807548
232.057953	-2.987200	3.828100	-11.435000	22.406317	0.000942	20.783465
233.059850	-2.990200	3.825900	-11.439000	22.423440	0.000947	20.802983
234.055198	-2.987700	3.828400	-11.437000	22.416987	0.000946	20.790831
235.060019	-3.003200	3.827200	-11.491000	22.442828	0.000945	20.788259
236.060202	-3.004200	3.827100	-11.495000	22.429920	0.000945	20.794299
237.056866	-3.008200	3.825300	-11.506000	22.447163	0.000945	20.803981
238.058257	-2.983500	3.827000	-11.416000	22.441831	0.000946	20.808598
239.058279	-2.990900	3.825900	-11.442000	22.446191	0.000947	20.803482
240.057442	-3.004200	3.824400	-11.488000	22.463886	0.000948	20.806503
241.061041	-2.978900	3.824500	-11.392000	22.459454	0.000948	20.796375
242.058440	-3.001000	3.826000	-11.481000	22.472309	0.000948	20.817783
243.060229	-3.017400	3.823100	-11.534000	22.442010	0.000948	20.790759
244.062366	-3.001700	3.822900	-11.474000	22.453321	0.000951	20.801613
245.061766	-2.984400	3.824600	-11.413000	22.455738	0.000950	20.803559
246.060165	-2.995500	3.823200	-11.451000	22.465383	0.000950	20.808477
247.062129	-2.993900	3.824700	-11.450000	22.461595	0.000950	20.794252
248.061909	-3.011100	3.822700	-11.509000	22.497355	0.000950	20.797822
249.061530	-3.005400	3.823900	-11.491000	22.511732	0.000952	20.797996
250.065610	-2.987100	3.822400	-11.417000	22.533285	0.000953	20.801089
251.065389	-2.987100	3.822600	-11.418000	22.553194	0.000952	20.803010
252.064378	-2.992200	3.821900	-11.435000	22.530196	0.000953	20.800841
253.068075	-3.008000	3.822000	-11.495000	22.537592	0.000955	20.788334
254.076755	-2.982000	3.823300	-11.400000	22.525035	0.000954	20.791405
255.063790	-2.997300	3.822900	-11.457000	22.530791	0.000954	20.779151
256.067336	-3.003800	3.821200	-11.476000	22.548333	0.000954	20.781072
257.064987	-3.022300	3.821200	-11.547000	22.545267	0.000956	20.810244
258.063500	-3.018200	3.820300	-11.530000	22.572846	0.000956	20.788554
259.066774	-2.993500	3.821200	-11.438000	22.579075	0.000958	20.792422
260.063501	-2.997400	3.821600	-11.452000	22.580325	0.000957	20.811691
261.064195	-2.994800	3.819600	-11.438000	22.578304	0.000959	20.791650
262.068666	-2.999900	3.820500	-11.460000	22.608776	0.000958	20.785186
263.066095	-3.014500	3.819200	-11.512000	22.596019	0.000958	20.794694
264.065722	-3.016600	3.819600	-11.520000	22.594398	0.000958	20.775526
265.066269	-3.004600	3.819800	-11.476000	22.611765	0.000960	20.782015
266.065064	-2.997300	3.819100	-11.445000	22.614278	0.000958	20.782162
267.066746	-2.994600	3.818700	-11.434000	22.609096	0.000962	20.781238
268.069087	-3.004000	3.818700	-11.471000	22.622648	0.000961	20.795761
269.067163	-3.010200	3.818400	-11.493000	22.610293	0.000962	20.786705
270.071154	-2.998600	3.819300	-11.451000	22.625764	0.000961	20.792717
271.072891	-2.992200	3.819300	-11.426000	22.620678	0.000962	20.795210
272.070502	-3.005500	3.816800	-11.471000	22.642503	0.000965	20.795259
273.068941	-3.012600	3.816400	-11.496000	22.638193	0.000963	20.769605
274.072179	-2.980400	3.816600	-11.374000	22.637618	0.000962	20.791315
275.070268	-2.995200	3.817900	-11.435000	22.625335	0.000965	20.779485
276.070264	-2.990000	3.817100	-11.413000	22.672027	0.000964	20.783105
277.073793	-3.004000	3.818600	-11.470000	22.661810	0.000969	20.786148
278.073334	-3.000700	3.816700	-11.450000	22.677853	0.000967	20.762862
279.073004	-2.976900	3.817200	-11.362000	22.680393	0.000965	20.763510
280.075147	-2.998600	3.815700	-11.441000	22.685601	0.000969	20.789589
281.072512	-2.989800	3.817600	-11.412000	22.678027	0.000968	20.789589
282.073805	-3.029000	3.813600	-11.550000	22.720429	0.000968	20.805035
283.074813	-3.006300	3.814600	-11.465000	22.716466	0.000968	20.793479
284.075181	-3.013700	3.814900	-11.495000	22.742374	0.000968	20.782447
285.072637	-3.008600	3.815000	-11.476000	22.741028	0.000970	20.785366
286.075585	-2.979900	3.814700	-11.364000	22.737588	0.000972	20.777653
287.075256	-2.994500	3.815000	-11.423000	22.741075	0.000969	20.769292
288.077674	-2.973800	3.814900	-11.344000	22.746059	0.000971	20.788035
289.076190	-2.995000	3.813300	-11.419000	22.759910	0.000971	20.771563
290.075560	-3.002600	3.813500	-11.450000	22.787982	0.000970	20.791150
291.078837	-2.995100	3.813500	-11.421000	22.767827	0.000971	20.786607
292.082121	-2.985200	3.814700	-11.386000	22.780357	0.000973	20.774977
293.084513	-3.009100	3.812700	-11.472000	22.786012	0.000974	20.792970
294.086051	-2.998800	3.811300	-11.428000	22.772979	0.000974	20.769483
295.084611	-3.001500	3.811900	-11.439000	22.770662	0.000975	20.794189
296.084852	-2.983100	3.811800	-11.370000	22.779205	0.000974	20.756278
297.083069	-2.986900	3.811300	-11.383000	22.757082	0.000975	20.782007
298.079598	-2.997900	3.812600	-11.428000	22.782741	0.000975	20.784951
299.083930	-2.993400	3.812100	-11.409000	22.762462	0.000974	20.767956
300.084046	-3.004300	3.810800	-11.447000	22.776612	0.000974	20.769803
301.081820	-3.017500	3.810000	-11.496000	22.783735	0.000973	20.794007
302.084266	-2.988300	3.811400	-11.389000	22.807701	0.000977	20.765858
303.085471	-2.988900	3.810200	-11.387000	22.816146	0.000974	20.761516
304.082011	-2.999900	3.809400	-11.427000	22.842800	0.000977	20.780157
305.085898	-3.012200	3.810800	-11.478000	22.849079	0.000977	20.763688
306.085396	-2.975800	3.810700	-11.338000	22.861958	0.000975	20.760468
307.082736	-3.004400	3.808800	-11.442000	22.850670	0.000977	20.778084
308.083214	-3.014100	3.809200	-11.480000	22.877675	0.000976	20.772422
309.085272	-2.985900	3.809100	-11.371000	22.890182	0.000978	20.774045
310.086487	-3.004000	3.808600	-11.439000	22.884400	0.000979	20.763512
311.085201	-3.005800	3.808700	-11.447000	22.896904	0.000978	20.764659
312.087597	-3.004100	3.808400	-11.440000	22.898673	0.000980	20.768802
313.084488	-2.993000	3.808500	-11.397000	22.898973	0.000980	20.776689
314.088089	-2.999200	3.808200	-11.420000	22.895660	0.000982	20.753929
315.089880	-3.020900	3.806000	-11.495000	22.891552	0.000981	20.776367
316.087118	-3.014700	3.806500	-11.474000	22.871225	0.000983	20.760270
317.095466	-3.001300	3.807300	-11.426000	22.900046	0.000982	20.772074
318.088960	-2.993300	3.808000	-11.398000	22.890405	0.000983	20.777114
319.084301	-2.996200	3.806200	-11.403000	22.893646	0.000983	20.762343
320.088953	-3.016600	3.804800	-11.477000	22.904479	0.000984	20.773671
321.087245	-3.003000	3.806900	-11.432000	22.912874	0.000984	20.757425
322.093395	-3.002000	3.805700	-11.423000	22.925155	0.000985	20.771151
323.089411	-2.981400	3.807300	-11.350000	22.934771	0.000984	20.758974
324.097323	-3.004000	3.804400	-11.427000	22.960999	0.000985	20.771027
325.090939	-3.005500	3.804300	-11.432000	22.956992	0.000985	20.764642
326.092718	-3.012500	3.804400	-11.458000	22.977116	0.000984	20.768209
327.090653	-3.019600	3.803400	-11.484000	22.937313	0.000985	20.752986
328.086118	-3.010300	3.803400	-11.447000	22.936292	0.000986	20.760972
329.092862	-3.012800	3.804200	-11.459000	22.939680	0.000985	20.759624
330.091612	-2.997600	3.803800	-11.401000	22.933106	0.000987	20.751616
331.091423	-2.997000	3.803300	-11.397000	22.962049	0.000988	20.764019
332.096134	-3.010400	3.804300	-11.452000	22.939531	0.000988	20.763269
333.092638	-2.996600	3.801900	-11.391000	22.935371	0.000989	20.738711
334.089067	-2.995700	3.803000	-11.392000	22.919604	0.000991	20.767961
335.090460	-3.002900	3.803700	-11.421000	22.906950	0.000990	20.763343
336.091033	-2.990000	3.802600	-11.368000	22.936119	0.000993	20.757954
337.089607	-3.014800	3.800900	-11.457000	22.936691	0.000992	20.775597
338.098291	-2.987800	3.801000	-11.356000	22.942222	0.000993	20.772129
339.090787	-3.029900	3.800600	-11.514000	22.948000	0.000991	20.759900
340.094695	-3.005300	3.801200	-11.423000	22.961051	0.000993	20.754009
341.095349	-2.982500	3.801200	-11.336000	22.965932	0.000993	20.752261
342.091169	-2.998700	3.800700	-11.396000	22.996891	0.000996	20.757201
343.095419	-2.992600	3.799400	-11.368000	23.022919	0.000996	20.762891
344.094461	-2.999000	3.798700	-11.391000	23.028796	0.000997	20.746494
345.092758	-3.014500	3.798600	-11.450000	23.032881	0.000995	20.761020
346.093311	-3.028300	3.798600	-11.502000	23.055794	0.000996	20.756002
347.094398	-3.015900	3.798400	-11.455000	23.045906	0.000997	20.763164
348.092838	-3.001600	3.799100	-11.402000	23.044011	0.000997	20.753204
349.098821	-3.007100	3.797800	-11.419000	23.037708	0.000995	20.774390
350.096219	-3.010300	3.797100	-11.429000	23.063385	0.000998	20.771195
351.095064	-3.004400	3.797000	-11.406000	23.076558	0.001000	20.787240
352.094424	-2.997700	3.798000	-11.385000	23.051054	0.000998	20.763107
353.100323	-2.996900	3.797300	-11.379000	23.041117	0.001000	20.754572
354.094619	-3.001800	3.797400	-11.398000	23.062483	0.000999	20.772662
355.097169	-3.027400	3.796100	-11.491000	23.075111	0.000999	20.775833
356.099429	-2.994900	3.796500	-11.369000	23.069678	0.001001	20.767543
357.095865	-3.000900	3.796300	-11.391000	23.052219	0.001001	20.765222
358.094250	-3.012700	3.795500	-11.433000	23.055407	0.000999	20.768891
359.097627	-3.003400	3.796100	-11.401000	23.093308	0.001001	20.779368
360.094937	-2.998200	3.796600	-11.382000	23.071990	0.001001	20.765118
361.096826	-2.990200	3.796100	-11.350000	23.092761	0.001002	20.750843
362.097154	-3.004000	3.794900	-11.398000	23.123714	0.001000	20.765264
363.097254	-2.992900	3.795300	-11.358000	23.115945	0.001002	20.759376
364.096273	-2.973400	3.795000	-11.283000	23.148842	0.001002	20.771004
365.098005	-2.998600	3.794200	-11.375000	23.140573	0.001003	20.748966
366.095042	-3.011700	3.794600	-11.427000	23.121296	0.001003	20.766635
367.099495	-2.993200	3.793100	-11.353000	23.137283	0.001003	20.765585
368.100508	-3.010700	3.794300	-11.422000	23.116460	0.001004	20.769850
369.095131	-3.017200	3.793700	-11.445000	23.140540	0.001006	20.754624
370.100623	-2.986200	3.794000	-11.329000	23.154488	0.001005	20.772394
371.103625	-3.005900	3.793000	-11.400000	23.174834	0.001005	20.776187
372.100543	-2.978100	3.791700	-11.291000	23.181706	0.001005	20.777384
373.096034	-2.970100	3.793300	-11.266000	23.196451	0.001006	20.796427
374.095801	-2.987700	3.791900	-11.328000	23.200083	0.001005	20.772091
375.103780	-3.024900	3.790900	-11.464000	23.207155	0.001008	20.777282
376.102814	-2.985500	3.792300	-11.320000	23.208327	0.001006	20.761861
377.099952	-2.999900	3.790800	-11.370000	23.201678	0.001006	20.782699
378.100712	-2.984100	3.791700	-11.314000	23.203793	0.001008	20.767749
379.103691	-2.995700	3.791300	-11.355000	23.212882	0.001007	20.784444
380.099735	-2.996700	3.790200	-11.357000	23.212236	0.001006	20.765304
381.105845	-2.987300	3.790100	-11.321000	23.220329	0.001009	20.800441
382.103621	-2.987100	3.790700	-11.322000	23.244610	0.001008	20.774514
383.102950	-2.991100	3.790500	-11.336000	23.255666	0.001008	20.763308
384.105421	-3.016800	3.787900	-11.427000	23.242542	0.001007	20.775286
385.104924	-3.000800	3.787600	-11.365000	23.240575	0.001008	20.779005
386.102290	-3.002300	3.789000	-11.374000	23.228325	0.001008	20.780006
387.106272	-3.012000	3.788000	-11.409000	23.214329	0.001007	20.786368
388.109114	-2.988800	3.787000	-11.317000	23.239658	0.001008	20.788992
389.107307	-3.012800	3.786600	-11.407000	23.255742	0.001009	20.761014
390.108007	-3.009300	3.787400	-11.397000	23.261596	0.001006	20.797701
391.108010	-2.984600	3.789200	-11.309000	23.259854	0.001009	20.791214
392.108676	-2.979600	3.788900	-11.288000	23.262547	0.001011	20.774946
393.109802	-2.996900	3.787700	-11.350000	23.301395	0.001008	20.782111
394.111241	-3.011400	3.786400	-11.402000	23.315038	0.001010	20.787250
395.107334	-3.024200	3.786300	-11.449000	23.321040	0.001008	20.779514
396.110680	-3.010100	3.784400	-11.390000	23.315714	0.001009	20.767064
397.110882	-3.004400	3.785700	-11.374000	23.309041	0.001010	20.788352
398.107551	-3.012300	3.783900	-11.397000	23.318432	0.001012	20.765994
399.113710	-2.991200	3.784300	-11.317000	23.333598	0.001010	20.779298
400.113000	-2.978200	3.783800	-11.267000	23.315645	0.001010	20.783590
401.109119	-2.979000	3.784400	-11.273000	23.340471	0.001012	20.782394
402.117523	-3.014400	3.784600	-11.407000	23.345081	0.001010	20.773263
403.119048	-3.033100	3.783700	-11.475000	23.339828	0.001011	20.773214
404.110550	-3.004300	3.783700	-11.367000	23.339857	0.001012	20.779408
405.113616	-2.965800	3.784700	-11.224000	23.348571	0.001012	20.792408
406.115283	-2.989600	3.784400	-11.313000	23.332588	0.001013	20.764535
407.114956	-3.000300	3.784800	-11.354000	23.350441	0.001010	20.779110
408.115993	-3.004500	3.783400	-11.366000	23.355276	0.001013	20.798655
409.117228	-3.001800	3.782900	-11.354000	23.360334	0.001014	20.793767
410.112279	-3.003800	3.781700	-11.358000	23.368352	0.001014	20.770034
411.119177	-3.004500	3.781400	-11.360000	23.338575	0.001016	20.777174
412.118516	-3.007400	3.781300	-11.371000	23.337282	0.001014	20.789628
413.113146	-2.995900	3.780700	-11.326000	23.347690	0.001017	20.776352
414.118793	-3.008400	3.780100	-11.369000	23.364924	0.001016	20.780823
415.118974	-3.013800	3.781300	-11.394000	23.364924	0.001016	20.800738
416.113833	-3.005600	3.779900	-11.360000	23.358777	0.001017	20.763282
417.122315	-2.975500	3.780200	-11.247000	23.341300	0.001017	20.787491
418.119962	-3.001500	3.779000	-11.342000	23.352379	0.001016	20.797647
419.117372	-3.002000	3.778700	-11.342000	23.342419	0.001020	20.791458
420.118745	-3.004300	3.779500	-11.354000	23.364558	0.001018	20.780930
421.120700	-2.980400	3.780500	-11.267000	23.365779	0.001018	20.799698
422.120662	-2.985500	3.779500	-11.282000	23.397500	0.001019	20.795929
423.120185	-2.996200	3.778100	-11.319000	23.391152	0.001019	20.806636
424.120286	-2.993500	3.778500	-11.309000	23.390654	0.001021	20.776266
425.120322	-2.996500	3.777800	-11.318000	23.424393	0.001019	20.785900
426.120339	-3.003600	3.777400	-11.345000	23.436519	0.001019	20.780511
427.119836	-3.008900	3.776200	-11.361000	23.441898	0.001021	20.788748
428.115638	-3.028200	3.775700	-11.433000	23.443095	0.001020	20.800378
429.118410	-2.985800	3.777000	-11.276000	23.437943	0.001020	20.811336
430.125908	-3.014000	3.776200	-11.380000	23.441653	0.001019	20.800830
431.117465	-3.020200	3.775500	-11.402000	23.437918	0.001019	20.801828
432.122011	-3.021700	3.774300	-11.403000	23.450897	0.001020	20.807724
433.121912	-3.033900	3.773700	-11.448000	23.461202	0.001021	20.777276
434.117527	-3.014100	3.774000	-11.374000	23.486721	0.001022	20.815184
435.121168	-2.988800	3.775500	-11.282000	23.495137	0.001023	20.779049
436.122265	-2.985000	3.774200	-11.264000	23.474375	0.001021	20.779575
437.121937	-2.997800	3.774300	-11.312000	23.476344	0.001023	20.802412
438.122982	-2.980800	3.774800	-11.250000	23.473283	0.001024	20.800766
439.122841	-2.985400	3.774900	-11.268000	23.490689	0.001023	20.796876
440.123272	-2.994800	3.773500	-11.300000	23.508065	0.001025	20.792008
441.127049	-3.004400	3.774400	-11.339000	23.498802	0.001025	20.792207
442.122534	-3.016600	3.772600	-11.380000	23.513067	0.001023	20.800342
443.131135	-3.003800	3.773700	-11.334000	23.535873	0.001025	20.796176
444.122611	-2.997100	3.771400	-11.302000	23.560695	0.001026	20.808730
445.123674	-3.004400	3.771200	-11.328000	23.578144	0.001026	20.796824
446.120603	-2.987400	3.772600	-11.270000	23.571200	0.001027	20.808829
447.123374	-2.990500	3.770900	-11.276000	23.583745	0.001027	20.792008
448.127031	-3.017900	3.770300	-11.377000	23.550462	0.001027	20.810326
449.121958	-2.991500	3.770500	-11.278000	23.543618	0.001027	20.792085
450.126448	-2.993600	3.769600	-11.284000	23.535400	0.001026	20.796650
451.129269	-3.024800	3.770000	-11.403000	23.517300	0.001026	20.796524
452.121773	-3.015500	3.769700	-11.367000	23.535148	0.001027	20.797345
453.124745	-3.002000	3.768700	-11.312000	23.540700	0.001028	20.812868
454.127834	-2.994900	3.769600	-11.288000	23.570150	0.001028	20.809199
455.122238	-2.978800	3.770600	-11.231000	23.579535	0.001028	20.815763
456.125462	-3.001800	3.767200	-11.307000	23.591135	0.001028	20.800364
457.128838	-2.992900	3.768300	-11.277000	23.606193	0.001030	20.830158
458.128407	-3.020900	3.767500	-11.380000	23.659864	0.001028	20.807625
459.127335	-3.004000	3.766800	-11.314000	23.636387	0.001028	20.819650
460.128253	-2.993300	3.767700	-11.277000	23.613308	0.001031	20.808841
461.127124	-3.000800	3.766500	-11.302000	23.597922	0.001031	20.818073
462.130869	-3.000900	3.766500	-11.302000	23.589386	0.001031	20.806672
463.128423	-2.989800	3.765800	-11.258000	23.583433	0.001030	20.816350
464.132946	-3.035900	3.764800	-11.429000	23.623161	0.001031	20.809236
465.129807	-2.989400	3.766000	-11.257000	23.636005	0.001031	20.823060
466.129218	-3.002800	3.764900	-11.304000	23.650541	0.001033	20.814399
467.126599	-3.003200	3.764700	-11.304000	23.642696	0.001031	20.834509
468.129740	-2.976600	3.764900	-11.205000	23.656409	0.001031	20.836877
469.131085	-2.984400	3.765600	-11.237000	23.645380	0.001030	20.828191
470.126314	-3.009100	3.765000	-11.328000	23.653365	0.001032	20.833826
471.130153	-2.985200	3.764300	-11.237000	23.633276	0.001032	20.846402
472.130339	-2.991400	3.764900	-11.262000	23.635393	0.001031	20.830981
473.128135	-3.014300	3.763100	-11.341000	23.662597	0.001033	20.846873
474.132765	-3.011700	3.764300	-11.335000	23.656297	0.001032	20.832024
475.131574	-3.000300	3.763500	-11.291000	23.652511	0.001031	20.841030
476.133066	-3.004300	3.762700	-11.303000	23.629011	0.001032	20.825058
477.132701	-3.001700	3.763200	-11.295000	23.634583	0.001034	20.827324
478.136269	-2.982800	3.763800	-11.226000	23.642125	0.001033	20.850058
479.138254	-2.999100	3.762000	-11.282000	23.645159	0.001032	20.859737
480.134759	-3.025600	3.761000	-11.377000	23.667635	0.001034	20.856192
481.136497	-2.990500	3.761600	-11.247000	23.658498	0.001033	20.816687
482.131759	-3.004400	3.761300	-11.300000	23.670419	0.001034	20.850447
483.136313	-2.994500	3.760800	-11.260000	23.696054	0.001034	20.851967
484.141706	-2.982500	3.760700	-11.215000	23.718255	0.001034	20.847198
485.139501	-3.002800	3.759500	-11.288000	23.722162	0.001034	20.856331
486.136347	-3.008500	3.759400	-11.309000	23.732787	0.001033	20.857500
487.138153	-2.982300	3.759100	-11.210000	23.708492	0.001034	20.841677
488.134117	-3.015100	3.758700	-11.330000	23.713221	0.001036	20.833143
489.139843	-2.997800	3.758100	-11.265000	23.727206	0.001036	20.868973
490.136994	-3.012600	3.757800	-11.319000	23.748611	0.001036	20.868623
491.139189	-3.001200	3.758600	-11.280000	23.760556	0.001036	20.868271
492.135638	-2.998900	3.757400	-11.267000	23.756121	0.001035	20.861454
493.137184	-3.013800	3.757100	-11.321000	23.784300	0.001037	20.861258
494.141503	-3.018400	3.755600	-11.335000	23.762019	0.001035	20.857410
495.135120	-2.998400	3.757800	-11.267000	23.790792	0.001036	20.864922
496.136967	-3.005500	3.755400	-11.286000	23.778120	0.001036	20.837045
497.134783	-3.011900	3.756000	-11.311000	23.783295	0.001035	20.857880
498.141337	-2.978100	3.756400	-11.186000	23.791359	0.001033	20.850318
499.138457	-2.972100	3.756600	-11.164000	23.769105	0.001038	20.869256
500.135777	-2.989000	3.755700	-11.225000	23.742699	0.001036	20.889720
501.136301	-3.005500	3.754000	-11.282000	23.751954	0.001037	20.879086
502.137472	-3.016700	3.755900	-11.328000	23.728060	0.001035	20.857028
503.144777	-3.001500	3.753500	-11.263000	23.750558	0.001037	20.866307
504.138954	-2.981600	3.754900	-11.194000	23.752548	0.001038	20.877785
505.138635	-2.979700	3.754300	-11.184000	23.719840	0.001036	20.852580
506.135550	-3.001700	3.753300	-11.266000	23.701569	0.001036	20.876460
507.140171	-2.995300	3.753600	-11.241000	23.691263	0.001037	20.863758
508.138331	-3.009800	3.752200	-11.292000	23.712147	0.001035	20.877108
509.138525	-2.995600	3.754200	-11.246000	23.712870	0.001036	20.872617
510.137137	-3.004900	3.752600	-11.276000	23.741963	0.001037	20.864803
511.140745	-2.999000	3.752300	-11.252000	23.772653	0.001035	20.862857
512.138387	-2.993600	3.752300	-11.231000	23.767924	0.001035	20.866176
513.140724	-3.006300	3.752000	-11.278000	23.805083	0.001037	20.868345
514.141326	-3.002200	3.752200	-11.263000	23.813199	0.001036	20.883120
515.137760	-3.004500	3.751700	-11.270000	23.821983	0.001037	20.893349
516.141864	-3.004400	3.750500	-11.267000	23.830473	0.001037	20.871518
517.139489	-3.010800	3.749400	-11.288000	23.834058	0.001035	20.854725
518.144381	-3.019500	3.749800	-11.322000	23.820193	0.001036	20.891081
519.147844	-2.996900	3.749200	-11.234000	23.824051	0.001035	20.874087
520.147957	-3.013900	3.750300	-11.302000	23.834457	0.001037	20.872667
521.142149	-3.003000	3.749000	-11.258000	23.817430	0.001038	20.891629
522.143727	-2.998100	3.748500	-11.237000	23.821340	0.001036	20.874213
523.140761	-2.977000	3.748300	-11.157000	23.807529	0.001037	20.893081
524.141350	-3.006100	3.747500	-11.265000	23.820968	0.001038	20.866729
525.146481	-2.998400	3.747700	-11.237000	23.814722	0.001037	20.881802
526.139835	-2.987700	3.746900	-11.194000	23.840109	0.001038	20.898721
527.141987	-3.001700	3.746000	-11.243000	23.854221	0.001038	20.883949
528.143819	-2.995800	3.745700	-11.221000	23.874554	0.001038	20.868303
529.142173	-3.007300	3.745700	-11.264000	23.884237	0.001037	20.895554
530.144270	-3.014100	3.745100	-11.288000	23.909023	0.001038	20.896226
531.147396	-3.008300	3.745800	-11.267000	23.906909	0.001037	20.895529
532.144743	-3.006100	3.745800	-11.259000	23.914697	0.001038	20.914242
533.143846	-2.999000	3.745600	-11.231000	23.929831	0.001038	20.881531
534.148843	-2.996600	3.745800	-11.223000	23.906884	0.001039	20.885548
535.148126	-2.990700	3.746200	-11.203000	23.888119	0.001038	20.904187
536.148491	-2.984600	3.745100	-11.177000	23.919225	0.001036	20.883224
537.148798	-2.990300	3.745200	-11.198000	23.916888	0.001036	20.893682
538.151129	-3.007200	3.745100	-11.260000	23.918681	0.001037	20.896901
539.147905	-3.013800	3.742500	-11.278000	23.928960	0.001038	20.890614
540.151914	-3.001300	3.744500	-11.236000	23.920572	0.001039	20.896901
541.152382	-2.980100	3.744500	-11.158000	23.925573	0.001037	20.901916
542.150083	-3.016700	3.742500	-11.289000	23.922288	0.001038	20.891510
543.152559	-3.007900	3.741700	-11.254000	23.961833	0.001038	20.905560
544.151301	-3.011800	3.741200	-11.267000	23.975446	0.001041	20.910675
545.151430	-2.996700	3.742000	-11.212000	23.975718	0.001038	20.873019
546.154295	-3.006500	3.740100	-11.244000	23.965838	0.001038	20.907679
547.152759	-3.001500	3.740500	-11.227000	23.973005	0.001040	20.891634
548.156349	-3.015300	3.739900	-11.276000	23.996022	0.001041	20.905232
549.161485	-2.996400	3.740800	-11.207000	24.015704	0.001039	20.910271
550.160504	-3.000700	3.740700	-11.224000	24.014083	0.001039	20.914334
551.152986	-2.983100	3.739900	-11.155000	24.021227	0.001040	20.908223
552.155940	-3.000500	3.739500	-11.219000	24.006495	0.001040	20.903408
553.153833	-2.987600	3.740400	-11.174000	24.033690	0.001039	20.917877
554.156737	-2.990200	3.739100	-11.179000	24.015674	0.001040	20.931102
555.156700	-2.990700	3.738500	-11.180000	24.033686	0.001040	20.899382
556.153658	-2.993400	3.738200	-11.188000	24.036775	0.001039	20.907694
557.156343	-2.989900	3.738500	-11.177000	24.082630	0.001038	20.924283
558.158516	-3.000400	3.736500	-11.209000	24.081734	0.001040	20.922437
559.156705	-2.995800	3.737900	-11.197000	24.080489	0.001040	20.918818
560.157717	-2.995900	3.737900	-11.197000	24.044132	0.001039	20.930717
561.161970	-2.981000	3.736800	-11.138000	24.035149	0.001039	20.921235
562.160524	-3.017600	3.736300	-11.274000	24.041889	0.001040	20.919461
563.158576	-3.033500	3.734100	-11.327000	24.046518	0.001040	20.915568
564.158334	-3.011200	3.734300	-11.243000	24.012524	0.001041	20.924624
565.155072	-3.003200	3.734500	-11.213000	24.001696	0.001040	20.907603
566.157526	-2.979600	3.736900	-11.133000	24.022425	0.001040	20.942612
567.158495	-3.004600	3.734800	-11.220000	24.028196	0.001039	20.919952
568.154499	-3.018700	3.734800	-11.273000	24.046310	0.001042	20.930531
569.158461	-2.978800	3.734900	-11.124000	24.021599	0.001040	20.921397
570.157755	-2.986700	3.734000	-11.152000	24.063774	0.001037	20.927183
571.154911	-3.025600	3.734200	-11.297000	24.065764	0.001039	20.941980
572.157109	-3.002000	3.732900	-11.205000	24.051229	0.001039	20.934516
573.161290	-3.006000	3.733700	-11.223000	24.044860	0.001039	20.932870
574.167130	-2.992900	3.733600	-11.174000	24.031199	0.001039	20.925334
575.159219	-3.020100	3.732100	-11.270000	23.993322	0.001036	20.936186
576.164166	-2.990600	3.733000	-11.162000	23.993971	0.001040	20.930199
577.159244	-3.011800	3.731400	-11.237000	23.998570	0.001038	20.940975
578.164233	-2.996000	3.731000	-11.177000	24.007353	0.001037	20.923232
579.170372	-3.031000	3.730400	-11.306000	23.994538	0.001037	20.921760
580.160951	-3.012100	3.730600	-11.236000	24.003544	0.001037	20.929842
581.165130	-2.998800	3.731100	-11.188000	23.964201	0.001036	20.923580
582.166927	-2.989600	3.730100	-11.151000	23.962035	0.001038	20.936105
583.160912	-3.012400	3.730600	-11.237000	23.969300	0.001036	20.939123
584.160907	-2.985900	3.729900	-11.136000	24.006799	0.001037	20.921254
585.166161	-3.011800	3.728700	-11.229000	24.008465	0.001036	20.934303
586.160165	-2.988700	3.729900	-11.146000	24.020337	0.001035	20.917761
587.165633	-2.990500	3.730200	-11.154000	24.064903	0.001036	20.932583
588.164240	-2.989600	3.730200	-11.151000	24.052111	0.001038	20.933030
589.165658	-2.998500	3.727300	-11.174000	24.074132	0.001037	20.923347
590.161781	-2.999600	3.728300	-11.181000	24.089236	0.001039	20.927589
591.166975	-2.983300	3.728900	-11.123000	24.111654	0.001037	20.943907
592.162271	-3.002900	3.728300	-11.194000	24.118768	0.001038	20.944403
593.167023	-2.982400	3.728000	-11.117000	24.143002	0.001037	20.911340
594.165852	-2.995400	3.725800	-11.159000	24.163132	0.001038	20.921572
595.173379	-3.011700	3.726500	-11.222000	24.195921	0.001036	20.930751
596.167673	-3.007600	3.726200	-11.206000	24.183358	0.001037	20.936642
597.168396	-2.973700	3.727500	-11.082000	24.225376	0.001036	20.922364
598.165971	-3.032800	3.725200	-11.297000	24.226074	0.001035	20.918323
599.171186	-2.995400	3.726200	-11.160000	24.246948	0.001036	20.900382
600.168919	-2.996200	3.725200	-11.161000	24.215575	0.001036	20.906371
601.166313	-3.018800	3.724900	-11.242000	24.218956	0.001037	20.916400
602.168550	-2.991900	3.724300	-11.141000	24.192932	0.001035	20.911160
603.167717	-3.007000	3.723500	-11.195000	24.177008	0.001035	20.908938
604.165783	-2.992000	3.724500	-11.142000	24.186435	0.001037	20.912230
605.168339	-2.993300	3.723600	-11.144000	24.199048	0.001036	20.912078
606.168841	-3.025100	3.723200	-11.262000	24.182304	0.001035	20.905716
607.169482	-3.018600	3.721600	-11.232000	24.208626	0.001035	20.908410
608.171634	-2.988600	3.722800	-11.124000	24.222360	0.001034	20.914124
609.168667	-2.986900	3.723200	-11.119000	24.223828	0.001034	20.893313
610.167646	-2.990400	3.722700	-11.132000	24.216611	0.001037	20.904565
611.168578	-3.012800	3.720700	-11.209000	24.233329	0.001035	20.896679
612.172747	-3.021800	3.721700	-11.245000	24.232309	0.001035	20.920310
613.168105	-2.998400	3.720400	-11.154000	24.229745	0.001033	20.909678
614.168935	-3.013900	3.718900	-11.208000	24.232582	0.001035	20.904463
615.172376	-2.996400	3.720200	-11.146000	24.244521	0.001033	20.911697
616.169462	-2.999700	3.721000	-11.160000	24.214891	0.001035	20.903788
617.168453	-2.999400	3.719500	-11.155000	24.212077	0.001034	20.882950
618.173354	-3.002300	3.720100	-11.168000	24.201029	0.001034	20.900316
619.169631	-2.992600	3.718700	-11.126000	24.220809	0.001034	20.907827
620.176141	-2.997100	3.719900	-11.147000	24.209986	0.001033	20.891283
621.176074	-3.012800	3.718500	-11.202000	24.251359	0.001034	20.891531
622.175118	-3.000700	3.718300	-11.157000	24.248620	0.001035	20.878353
623.173313	-2.981500	3.718200	-11.085000	24.272554	0.001034	20.906626
624.172467	-3.001700	3.717500	-11.159000	24.269119	0.001033	20.885638
625.170453	-3.011400	3.717100	-11.192000	24.284817	0.001033	20.914184
626.176133	-2.985800	3.717600	-11.098000	24.283971	0.001035	20.899112
627.177477	-3.009700	3.716100	-11.183000	24.275460	0.001033	20.885361
628.172247	-3.007100	3.716300	-11.174000	24.222988	0.001033	20.900530
629.172037	-3.030900	3.716100	-11.262000	24.230279	0.001034	20.910687
630.177071	-2.999800	3.717000	-11.149000	24.238339	0.001031	20.889851
631.170441	-3.010900	3.716100	-11.187000	24.231175	0.001031	20.906845
632.175323	-3.005000	3.715500	-11.164000	24.232989	0.001035	20.893493
633.173867	-3.012500	3.714300	-11.188000	24.236023	0.001032	20.877097
634.171268	-2.997700	3.714400	-11.133000	24.220622	0.001032	20.871607
635.170553	-2.987100	3.714600	-11.095000	24.236694	0.001033	20.892942
636.173386	-3.011000	3.713700	-11.181000	24.263712	0.001031	20.892542
637.171315	-3.002900	3.714600	-11.153000	24.289807	0.001033	20.886002
638.174616	-3.006900	3.713700	-11.166000	24.315829	0.001034	20.910681
639.173486	-3.003400	3.713000	-11.151000	24.306475	0.001034	20.872851
640.170548	-3.000600	3.714900	-11.146000	24.345009	0.001032	20.912925
641.171837	-2.993700	3.712300	-11.112000	24.361426	0.001031	20.886722
642.178773	-2.983500	3.712800	-11.076000	24.370782	0.001031	20.891366
643.173743	-3.001400	3.711500	-11.138000	24.368914	0.001030	20.900871
644.175935	-2.987000	3.712800	-11.088000	24.347145	0.001031	20.886620
645.176716	-2.980900	3.713000	-11.068000	24.305374	0.001031	20.872221
646.172327	-2.980900	3.713100	-11.067000	24.277362	0.001032	20.891535
647.177509	-3.004900	3.711600	-11.152000	24.267384	0.001028	20.869674
648.177486	-2.970800	3.712000	-11.026000	24.266960	0.001030	20.888689
649.174733	-2.984600	3.710900	-11.075000	24.291838	0.001032	20.885194
650.177621	-3.005400	3.710400	-11.150000	24.303207	0.001031	20.890908
651.177301	-3.001500	3.709400	-11.133000	24.306389	0.001029	20.871817
652.173502	-3.015600	3.708600	-11.183000	24.304175	0.001028	20.870069
653.178237	-2.985300	3.711300	-11.078000	24.304422	0.001031	20.869843
654.173164	-2.988100	3.709900	-11.085000	24.301212	0.001029	20.866150
655.173768	-2.976500	3.709900	-11.042000	24.300314	0.001029	20.883266
656.179576	-2.982400	3.709500	-11.063000	24.310166	0.001029	20.886036
657.177607	-2.998700	3.708600	-11.119000	24.349792	0.001029	20.869837
658.175467	-2.999200	3.707500	-11.119000	24.375790	0.001027	20.896390
659.178621	-2.986600	3.709100	-11.077000	24.372853	0.001029	20.889176
660.178354	-2.991600	3.707300	-11.090000	24.374293	0.001029	20.895362
661.180956	-3.004600	3.707500	-11.139000	24.349317	0.001026	20.864145
662.182102	-2.974200	3.708400	-11.029000	24.332702	0.001027	20.886831
663.178458	-2.989600	3.707300	-11.082000	24.358570	0.001029	20.881961
664.176311	-2.996900	3.706100	-11.106000	24.377325	0.001028	20.870431
665.180729	-2.981400	3.706600	-11.049000	24.376429	0.001029	20.868584
666.179867	-2.977200	3.706200	-11.034000	24.365732	0.001029	20.868758
667.176303	-2.980400	3.705900	-11.045000	24.384212	0.001027	20.879710
668.174833	-3.002600	3.704700	-11.122000	24.365081	0.001028	20.864312
669.175274	-2.993500	3.704900	-11.090000	24.346126	0.001027	20.877064
670.179917	-2.983400	3.704900	-11.053000	24.345403	0.001028	20.883451
671.179055	-3.001300	3.704200	-11.116000	24.316519	0.001027	20.862538
672.179200	-2.998900	3.704800	-11.110000	24.334354	0.001028	20.868575
673.180382	-2.970500	3.704200	-11.001000	24.337638	0.001028	20.882300
674.180330	-2.985800	3.704400	-11.059000	24.309872	0.001027	20.880525
675.177884	-3.020000	3.702600	-11.181000	24.354501	0.001028	20.848958
676.177988	-3.010200	3.703200	-11.146000	24.344127	0.001028	20.862732
677.181558	-3.009200	3.701400	-11.137000	24.367483	0.001026	20.863877
678.178154	-3.019600	3.701000	-11.174000	24.375494	0.001028	20.862904
679.179170	-3.019400	3.701800	-11.175000	24.375966	0.001027	20.864326
680.180175	-3.014800	3.700000	-11.154000	24.357308	0.001028	20.864575
681.178824	-2.997500	3.702300	-11.097000	24.303421	0.001026	20.873581
682.183720	-2.993300	3.700000	-11.075000	24.292003	0.001026	20.881092
683.184016	-2.995900	3.700600	-11.085000	24.298868	0.001026	20.871858
684.178822	-3.027600	3.699600	-11.200000	24.339887	0.001027	20.856108
685.185511	-3.003100	3.698900	-11.107000	24.331802	0.001026	20.866489
686.183586	-3.010500	3.698300	-11.133000	24.311876	0.001027	20.854562
687.180461	-2.986200	3.701400	-11.052000	24.327744	0.001025	20.862893
688.185591	-3.036700	3.697100	-11.225000	24.308736	0.001025	20.866585
689.188351	-3.013200	3.698100	-11.141000	24.284159	0.001024	20.866113
690.182818	-2.982400	3.700600	-11.036000	24.278757	0.001025	20.857375
691.183957	-2.993400	3.697900	-11.069000	24.267338	0.001023	20.857775
692.191576	-3.021200	3.696900	-11.168000	24.263156	0.001024	20.862589
693.183365	-2.996700	3.699200	-11.084000	24.281840	0.001025	20.873270
694.186483	-3.019700	3.697000	-11.162000	24.291792	0.001026	20.857174
695.183611	-2.995500	3.697700	-11.076000	24.326968	0.001023	20.866382
696.185227	-3.000600	3.696400	-11.090000	24.339305	0.001023	20.860740
697.188290	-3.006600	3.697000	-11.114000	24.357214	0.001023	20.865429
698.186024	-3.013400	3.695300	-11.135000	24.391369	0.001022	20.875984
699.184961	-3.011800	3.696500	-11.132000	24.409552	0.001021	20.852975
700.188313	-2.996800	3.695800	-11.074000	24.407387	0.001021	20.866450
701.186107	-2.985700	3.695500	-11.033000	24.419851	0.001021	20.847186
702.186752	-3.015000	3.694800	-11.139000	24.410322	0.001020	20.851377
703.193996	-2.997400	3.694600	-11.073000	24.413876	0.001020	20.825072
704.191981	-3.038100	3.692500	-11.218000	24.395294	0.001020	20.848155
705.190487	-3.015800	3.693400	-11.138000	24.405490	0.001020	20.847004
706.193492	-3.027500	3.693400	-11.180000	24.371784	0.001019	20.871984
707.190640	-3.029100	3.693100	-11.185000	24.333273	0.001021	20.872232
708.194181	-3.015900	3.694200	-11.141000	24.344192	0.001017	20.858530
709.193482	-2.989200	3.694300	-11.041000	24.325783	0.001020	20.846702
710.191741	-3.018000	3.692500	-11.143000	24.312447	0.001019	20.855609
711.189427	-3.012600	3.692400	-11.123000	24.311677	0.001019	20.845828
712.191566	-3.011600	3.692400	-11.118000	24.316674	0.001018	20.852737
713.191558	-2.983700	3.693000	-11.018000	24.332668	0.001019	20.866884
714.189809	-2.978100	3.692800	-10.997000	24.340879	0.001018	20.833397
715.198219	-3.006700	3.690300	-11.094000	24.367918	0.001018	20.838710
716.190698	-2.990800	3.692000	-11.041000	24.376923	0.001017	20.847269
717.195710	-3.013300	3.689900	-11.117000	24.394559	0.001017	20.843151
718.195018	-2.987300	3.688800	-11.019000	24.419634	0.001019	20.845072
719.196462	-3.012300	3.689500	-11.113000	24.436624	0.001017	20.850263
720.194541	-3.002700	3.689800	-11.078000	24.453735	0.001017	20.830921
721.195258	-2.999500	3.689400	-11.066000	24.446121	0.001018	20.867851
722.191610	-3.022100	3.688200	-11.146000	24.422267	0.001017	20.863360
723.195001	-2.993000	3.688100	-11.038000	24.442863	0.001016	20.841824
724.196434	-2.992400	3.688600	-11.036000	24.442118	0.001016	20.843921
725.197077	-3.001600	3.688500	-11.071000	24.465573	0.001017	20.840900
726.192964	-2.995500	3.689400	-11.050000	24.455598	0.001017	20.831842
727.197462	-2.988800	3.688500	-11.023000	24.458806	0.001017	20.867774
728.196142	-3.011200	3.687200	-11.102000	24.478829	0.001016	20.848509
729.197010	-3.008100	3.687100	-11.089000	24.514597	0.001016	20.832239
730.197365	-3.018000	3.687100	-11.125000	24.491364	0.001016	20.850180
731.198305	-2.993200	3.686500	-11.034000	24.526385	0.001016	20.847859
732.196275	-3.022500	3.687100	-11.143000	24.500589	0.001015	20.840470
733.197515	-3.005800	3.686500	-11.079000	24.481311	0.001015	20.837724
734.197305	-3.008300	3.684800	-11.084000	24.493075	0.001014	20.832457
735.198242	-3.002500	3.686100	-11.067000	24.481782	0.001014	20.824446
736.196102	-3.012900	3.685300	-11.100000	24.497227	0.001013	20.846105
737.196914	-3.004700	3.684700	-11.070000	24.522398	0.001014	20.841488
738.197445	-3.017400	3.684200	-11.115000	24.527174	0.001013	20.842960
739.201432	-2.984800	3.686100	-11.000000	24.517421	0.001013	20.844081
740.202218	-3.000600	3.683500	-11.051000	24.509436	0.001013	20.832751
741.200217	-2.999700	3.684000	-11.050000	24.523166	0.001013	20.840362
742.199088	-2.995900	3.684400	-11.036000	24.497097	0.001013	20.848820
743.200002	-3.005300	3.682800	-11.066000	24.470953	0.001011	20.848195
744.197291	-2.990200	3.682400	-11.010000	24.442795	0.001010	20.839385
745.199853	-2.998400	3.682900	-11.041000	24.433714	0.001014	20.808464
746.200352	-3.009500	3.682500	-11.082000	24.425630	0.001013	20.823113
747.197711	-2.995200	3.683500	-11.030000	24.489133	0.001011	20.830873
748.197691	-2.999500	3.683300	-11.047000	24.492639	0.001009	20.847193
749.199106	-2.991200	3.682800	-11.015000	24.480674	0.001010	20.846567
750.199508	-2.991800	3.682200	-11.016000	24.446743	0.001009	20.839553
751.198048	-3.023500	3.682400	-11.132000	24.425376	0.001010	20.840402
752.197718	-2.998900	3.680800	-11.037000	24.422812	0.001008	20.821235
753.197673	-3.009700	3.681500	-11.079000	24.443333	0.001010	20.825701
754.199030	-2.993700	3.680400	-11.017000	24.466318	0.001007	20.830743
755.198795	-2.998100	3.681100	-11.035000	24.459724	0.001009	20.810377
756.200402	-3.009200	3.680000	-11.073000	24.493354	0.001009	20.833211
757.200336	-2.994700	3.680700	-11.021000	24.501960	0.001008	20.830940
758.201816	-3.004300	3.679100	-11.051000	24.499097	0.001007	20.827120
759.200056	-2.989400	3.680800	-11.003000	24.535662	0.001006	20.834408
760.200542	-3.007500	3.678300	-11.061000	24.514693	0.001007	20.829016
761.200366	-2.988700	3.679500	-10.996000	24.487581	0.001008	20.849704
762.203464	-2.970200	3.679400	-10.927000	24.474148	0.001006	20.827693
763.201285	-3.000600	3.679300	-11.039000	24.508972	0.001005	20.837027
764.201003	-3.004300	3.677100	-11.046000	24.538147	0.001007	20.808926
765.210497	-3.009700	3.677000	-11.065000	24.558046	0.001004	20.824625
766.203825	-3.007500	3.676500	-11.056000	24.564885	0.001006	20.814891
767.205634	-3.001000	3.676400	-11.032000	24.595600	0.001006	20.826743
768.201967	-2.996400	3.676900	-11.016000	24.596968	0.001007	20.819581
769.201158	-3.002100	3.676700	-11.037000	24.571175	0.001004	20.819306
770.206396	-3.007000	3.676200	-11.052000	24.575379	0.001003	20.830635
771.208494	-3.004100	3.675900	-11.041000	24.535509	0.001003	20.838522
772.204602	-2.998100	3.675800	-11.020000	24.554860	0.001003	20.825695
773.211775	-3.014400	3.674200	-11.074000	24.554860	0.001002	20.819057
774.209441	-3.000000	3.674600	-11.023000	24.591745	0.001002	20.814815
775.207188	-2.994600	3.674500	-11.002000	24.578241	0.001003	20.807903
776.208178	-2.995900	3.675100	-11.010000	24.582494	0.001003	20.815490
777.210351	-3.000600	3.674500	-11.024000	24.600676	0.001002	20.825198
778.204384	-2.984500	3.674300	-10.964000	24.601522	0.001002	20.825099
779.206781	-2.985000	3.673100	-10.963000	24.564811	0.001001	20.800118
780.208790	-3.003100	3.673000	-11.030000	24.524844	0.001001	20.815968
781.206779	-2.985400	3.673500	-10.965000	24.504770	0.001001	20.815742
782.207258	-2.984300	3.673600	-10.962000	24.521160	0.001001	20.829341
783.206549	-2.993900	3.673800	-10.995000	24.514249	0.001000	20.805812
784.207349	-2.993500	3.673100	-10.995000	24.510644	0.001001	20.799350
785.206389	-2.986300	3.672000	-10.964000	24.505344	0.001001	20.805886
786.212355	-2.983100	3.672100	-10.953000	24.528951	0.001001	20.806338
787.207400	-3.005000	3.670900	-11.030000	24.535891	0.001001	20.798602
788.210607	-3.007700	3.671100	-11.040000	24.554497	0.001000	20.806839
789.211572	-3.003700	3.671900	-11.029000	24.554920	0.000999	20.806789
790.208689	-2.997600	3.669700	-11.000000	24.534052	0.000999	20.796283
791.211882	-2.997800	3.670000	-11.001000	24.515324	0.001000	20.789347
792.215252	-2.999100	3.669700	-11.005000	24.539003	0.001001	20.763792
793.210837	-3.009300	3.670300	-11.045000	24.543404	0.001000	20.808986
794.210269	-2.990800	3.670200	-10.975000	24.564198	0.000999	20.799029
795.211766	-3.018500	3.668400	-11.073000	24.594815	0.000998	20.808887
796.213645	-3.005600	3.667600	-11.022000	24.598672	0.000999	20.795687
797.213470	-3.008100	3.669500	-11.037000	24.563876	0.001000	20.813879
798.216871	-2.990400	3.668100	-10.967000	24.569295	0.000999	20.801298
799.211498	-2.978200	3.668200	-10.923000	24.552608	0.000999	20.785030
800.211014	-2.984700	3.668800	-10.949000	24.563725	0.000999	20.791442
801.211485	-2.973700	3.668900	-10.908000	24.577529	0.000997	20.781110
802.210528	-2.964100	3.668300	-10.872000	24.607151	0.000997	20.791393
803.213893	-2.981000	3.667600	-10.932000	24.612372	0.000998	20.820813
804.215418	-2.967300	3.668400	-10.883000	24.613119	0.000996	20.805441
805.214017	-2.995800	3.665700	-10.981000	24.589613	0.000996	20.797503
806.215882	-3.003900	3.665800	-11.011000	24.588220	0.000997	20.810330
807.215231	-2.999300	3.665400	-10.993000	24.626222	0.000995	20.790140
808.216290	-2.993100	3.665300	-10.969000	24.599662	0.000996	20.781034
809.220143	-3.006900	3.665300	-11.020000	24.605727	0.000995	20.803715
810.216590	-2.984600	3.665500	-10.939000	24.598115	0.000995	20.809827
811.215617	-3.004800	3.665000	-11.010000	24.583365	0.000994	20.804510
812.220210	-2.995300	3.664400	-10.974000	24.578117	0.000994	20.792606
813.218009	-3.014600	3.664400	-11.045000	24.596646	0.000994	20.800292
814.217470	-3.001600	3.665200	-11.001000	24.598982	0.000993	20.796472
815.220873	-3.015200	3.664800	-11.049000	24.584679	0.000993	20.808200
816.222022	-2.997400	3.663700	-10.980000	24.591023	0.000993	20.813616
817.217615	-3.023000	3.662400	-11.069000	24.588037	0.000992	20.803982
818.223959	-2.989200	3.662300	-10.946000	24.600695	0.000995	20.793923
819.222266	-2.980600	3.662800	-10.916000	24.626584	0.000993	20.800460
820.219448	-3.015600	3.661400	-11.040000	24.623600	0.000993	20.826389
821.222358	-2.990100	3.661000	-10.945000	24.652472	0.000993	20.797514
822.222788	-2.990900	3.660600	-10.948000	24.635785	0.000990	20.822495
823.225868	-2.979900	3.662600	-10.913000	24.665205	0.000991	20.786109
824.223504	-3.014300	3.660100	-11.032000	24.663887	0.000992	20.802804
825.222829	-3.007700	3.661000	-11.011000	24.700543	0.000991	20.792172
826.233052	-2.991300	3.660300	-10.947000	24.708673	0.000992	20.795588
827.224666	-2.982600	3.659900	-10.915000	24.705763	0.000991	20.804523
828.229457	-2.975800	3.660700	-10.892000	24.696563	0.000988	20.793868
829.226848	-2.990200	3.658400	-10.939000	24.676990	0.000990	20.809788
830.230912	-2.996100	3.658900	-10.961000	24.679899	0.000988	20.792793
831.234551	-3.007500	3.658300	-11.000000	24.673981	0.000987	20.809140
832.226900	-3.008000	3.657600	-11.001000	24.676641	0.000988	20.803274
833.226902	-3.007800	3.657700	-10.999000	24.696710	0.000987	20.790222
834.227162	-2.995500	3.659100	-10.960000	24.710311	0.000987	20.816198
835.227726	-3.007300	3.657600	-10.998000	24.723417	0.000987	20.810859
836.227734	-3.000200	3.656700	-10.971000	24.715781	0.000988	20.797032
837.229080	-3.024400	3.656000	-11.056000	24.720308	0.000985	20.816747
838.228648	-2.995500	3.657100	-10.954000	24.720754	0.000986	20.788745
839.230731	-2.994900	3.656100	-10.949000	24.762385	0.000986	20.806815
840.228044	-2.992100	3.655800	-10.938000	24.747661	0.000987	20.817170
841.231951	-3.011800	3.656600	-11.011000	24.707747	0.000986	20.812677
842.234402	-2.978400	3.656400	-10.889000	24.714886	0.000987	20.807039
843.230515	-3.010600	3.655300	-11.004000	24.706802	0.000984	20.825479
844.230304	-3.016800	3.654300	-11.023000	24.665394	0.000982	20.800049
845.229318	-3.005600	3.655100	-10.985000	24.682627	0.000984	20.798376
846.228415	-3.007500	3.654800	-10.990000	24.650271	0.000982	20.796253
847.230234	-3.021200	3.653000	-11.035000	24.636741	0.000984	20.801643
848.236857	-3.015900	3.654000	-11.019000	24.673227	0.000984	20.828771
849.229870	-2.990900	3.654300	-10.929000	24.713638	0.000985	20.819536
850.230147	-3.033200	3.652500	-11.077000	24.711696	0.000984	20.797674
851.231507	-3.002500	3.653500	-10.968000	24.718932	0.000985	20.813470
852.231654	-2.997800	3.651900	-10.947000	24.765657	0.000984	20.814367
853.233158	-3.012300	3.652300	-11.001000	24.793160	0.000982	20.818259
854.235390	-2.976300	3.654400	-10.875000	24.773690	0.000981	20.815315
855.235400	-3.007400	3.652400	-10.983000	24.790550	0.000982	20.804260
856.236038	-3.000700	3.652100	-10.958000	24.777393	0.000984	20.805281
857.235069	-2.980500	3.652700	-10.886000	24.778113	0.000980	20.816435
858.234651	-2.995700	3.650900	-10.936000	24.775404	0.000981	20.814191
859.237393	-2.989000	3.652200	-10.916000	24.770702	0.000980	20.801886
860.235966	-3.006300	3.651700	-10.977000	24.777888	0.000979	20.822848
861.234941	-2.997100	3.651300	-10.941000	24.778908	0.000979	20.832879
862.233787	-2.986900	3.650700	-10.903000	24.804320	0.000978	20.819976
863.237890	-3.021300	3.649000	-11.023000	24.784402	0.000979	20.835074
864.235252	-3.017800	3.650100	-11.013000	24.794074	0.000978	20.838143
865.233404	-2.968300	3.651600	-10.836000	24.788727	0.000978	20.825664
866.235761	-3.014700	3.649200	-10.999000	24.825806	0.000977	20.803607
867.237594	-2.968600	3.650000	-10.835000	24.855246	0.000978	20.826989
868.241162	-2.989600	3.649500	-10.910000	24.890553	0.000977	20.811690
869.238472	-3.012300	3.647900	-10.987000	24.893761	0.000975	20.816332
870.243705	-2.991500	3.648000	-10.912000	24.853977	0.000976	20.809595
871.241593	-3.018300	3.646300	-11.005000	24.841669	0.000974	20.829958
872.240296	-2.997600	3.647400	-10.932000	24.824411	0.000975	20.820699
873.238448	-2.972600	3.647300	-10.842000	24.848630	0.000975	20.814659
874.240537	-2.992900	3.648600	-10.919000	24.816280	0.000973	20.819177
875.242417	-3.012600	3.646700	-10.984000	24.809990	0.000973	20.824243
876.237239	-2.997000	3.645700	-10.926000	24.838636	0.000972	20.826914
877.242561	-2.993600	3.647400	-10.918000	24.853606	0.000973	20.814912
878.240133	-2.988500	3.646000	-10.895000	24.890755	0.000973	20.843186
879.240540	-2.981800	3.645700	-10.869000	24.898489	0.000971	20.823922
880.241910	-2.996000	3.645100	-10.920000	24.892696	0.000971	20.825695
881.242805	-3.011200	3.646000	-10.978000	24.882354	0.000973	20.829539
882.241229	-2.996300	3.645000	-10.920000	24.875044	0.000973	20.801341
883.238165	-2.984400	3.644700	-10.877000	24.887029	0.000970	20.828541
884.244654	-2.979700	3.646400	-10.864000	24.877656	0.000970	20.837152
885.241472	-3.030700	3.644800	-11.045000	24.866864	0.000968	20.825848
886.239808	-2.996400	3.643900	-10.917000	24.847519	0.000968	20.843890
887.240719	-3.020500	3.643400	-11.004000	24.839539	0.000970	20.831614
888.239292	-2.976900	3.645100	-10.849000	24.828175	0.000970	20.824003
889.241906	-2.987700	3.643900	-10.886000	24.838148	0.000970	20.832589
890.242400	-3.007400	3.642600	-10.953000	24.853316	0.000968	20.830742
891.242273	-3.019500	3.642300	-10.996000	24.853267	0.000969	20.832589
892.245684	-2.976500	3.644000	-10.846000	24.844391	0.000968	20.843595
893.245189	-2.997500	3.641400	-10.914000	24.808309	0.000968	20.847687
894.242462	-3.003600	3.641400	-10.935000	24.819401	0.000969	20.828947
895.242867	-3.027500	3.640700	-11.022000	24.829025	0.000966	20.818692
896.243044	-2.988200	3.641700	-10.881000	24.844170	0.000967	20.815399
897.244682	-2.985900	3.639900	-10.868000	24.901261	0.000968	20.841402
898.240392	-2.998900	3.640800	-10.917000	24.862177	0.000968	20.825884
899.243707	-3.034800	3.638500	-11.041000	24.847032	0.000967	20.843875
900.246843	-3.007900	3.641300	-10.951000	24.843304	0.000966	20.830650
901.242517	-3.008200	3.639600	-10.948000	24.863049	0.000965	20.828182
902.249137	-3.002400	3.639900	-10.926000	24.887118	0.000966	20.830528
903.243503	-3.015300	3.639600	-10.974000	24.895649	0.000966	20.844305
904.240958	-2.997500	3.638800	-10.907000	24.897988	0.000965	20.821997
905.249070	-2.983900	3.640100	-10.860000	24.932029	0.000964	20.839567
906.247210	-3.036400	3.637400	-11.043000	24.958906	0.000963	20.836199
907.242613	-3.004300	3.637400	-10.926000	24.950007	0.000964	20.832482
908.246235	-2.984300	3.638200	-10.857000	24.952643	0.000963	20.844611
909.244843	-3.013000	3.637300	-10.958000	24.960004	0.000963	20.841567
910.247533	-3.034700	3.636300	-11.033000	24.980193	0.000964	20.829590
911.247802	-2.976700	3.638400	-10.829000	24.955729	0.000960	20.852924
912.256031	-2.996900	3.637200	-10.898000	24.951603	0.000962	20.829817
913.250599	-2.975300	3.636700	-10.818000	24.957870	0.000961	20.818564
914.252769	-2.995100	3.635700	-10.887000	24.989597	0.000961	20.839503
915.250792	-2.991900	3.636900	-10.881000	24.999143	0.000958	20.842921
916.246991	-2.969800	3.636900	-10.799000	24.995515	0.000961	20.828374
917.246672	-2.987000	3.636100	-10.860000	24.963320	0.000959	20.859120
918.252357	-2.984400	3.635800	-10.850000	24.969810	0.000957	20.838134
919.251058	-2.978400	3.635300	-10.826000	24.973317	0.000960	20.841654
920.249011	-2.994800	3.635800	-10.886000	24.962951	0.000957	20.834569
921.246864	-2.976800	3.635700	-10.821000	24.998007	0.000959	20.833720
922.250450	-3.011700	3.633200	-10.940000	24.966608	0.000959	20.842981
923.251158	-2.972300	3.635100	-10.803000	24.984586	0.000958	20.843482
924.252887	-3.014400	3.633800	-10.953000	24.963279	0.000957	20.850544
925.246233	-3.000500	3.632600	-10.897000	24.964275	0.000955	20.834001
926.247390	-2.991600	3.632900	-10.867000	24.960647	0.000956	20.843635
927.246267	-2.994000	3.632800	-10.876000	24.971912	0.000954	20.848778
928.248615	-2.997000	3.632900	-10.887000	24.960451	0.000955	20.823051
929.252212	-3.007700	3.632300	-10.924000	24.975171	0.000954	20.822179
930.249393	-2.990800	3.633200	-10.864000	24.989343	0.000954	20.833084
931.253187	-3.012000	3.631500	-10.935000	24.977063	0.000955	20.849681
932.253769	-2.999900	3.631500	-10.893000	24.989421	0.000954	20.834585
933.254050	-3.006600	3.630900	-10.916000	24.982389	0.000952	20.842699
934.252001	-2.993500	3.630100	-10.865000	25.016375	0.000953	20.857373
935.253011	-2.993600	3.630500	-10.867000	25.030969	0.000952	20.854952
936.253454	-2.997200	3.630200	-10.879000	25.028909	0.000954	20.858099
937.251212	-3.001300	3.630100	-10.894000	25.014465	0.000954	20.834594
938.249291	-3.008800	3.628300	-10.916000	25.027246	0.000951	20.834621
939.254979	-2.988500	3.631600	-10.851000	25.032915	0.000951	20.848370
940.250138	-3.006200	3.628900	-10.907000	25.035155	0.000951	20.860102
941.253703	-3.009700	3.627700	-10.917000	25.058199	0.000952	20.839138
942.256635	-3.021100	3.627800	-10.959000	25.075280	0.000952	20.865766
943.254252	-3.011800	3.627700	-10.924000	25.062254	0.000950	20.834200
944.250974	-2.993100	3.627700	-10.856000	25.049726	0.000952	20.841538
945.255477	-2.985400	3.627300	-10.828000	25.033517	0.000951	20.840441
946.255221	-2.980200	3.628500	-10.811000	25.052090	0.000948	20.842963
947.251427	-2.988300	3.626300	-10.835000	25.046421	0.000952	20.860980
948.256182	-2.995100	3.626500	-10.861000	25.028921	0.000950	20.851000
949.255668	-2.994300	3.627200	-10.860000	25.060322	0.000949	20.837950
950.252615	-3.012100	3.625900	-10.918000	25.067358	0.000950	20.846435
951.257470	-2.982800	3.627500	-10.820000	25.028449	0.000948	20.852897
952.256734	-3.006500	3.625400	-10.897000	25.034713	0.000950	20.849228
953.253630	-3.015300	3.625400	-10.931000	25.031211	0.000948	20.860884
954.257577	-2.996700	3.625300	-10.863000	25.075761	0.000950	20.848232
955.261160	-2.993500	3.625200	-10.851000	25.089834	0.000949	20.847661
956.258318	-2.984400	3.625700	-10.819000	25.100374	0.000947	20.848758
957.261895	-3.011600	3.626000	-10.918000	25.117925	0.000947	20.858315
958.261546	-2.995300	3.625800	-10.860000	25.102612	0.000947	20.845315
959.259493	-2.988100	3.624100	-10.827000	25.096746	0.000947	20.847487
960.262209	-3.018600	3.622600	-10.934000	25.114920	0.000946	20.857669
961.263559	-2.985600	3.624900	-10.820000	25.112605	0.000948	20.878104
962.259369	-3.025400	3.621400	-10.954000	25.125756	0.000947	20.871866
963.264190	-3.007000	3.622800	-10.892000	25.161801	0.000945	20.863007
964.262996	-3.013400	3.622500	-10.913000	25.175673	0.000947	20.856071
965.264385	-2.998800	3.622600	-10.862000	25.157624	0.000946	20.882994
966.262926	-2.992600	3.623100	-10.842000	25.179299	0.000946	20.836478
967.261472	-3.011900	3.621900	-10.908000	25.189763	0.000946	20.852673
968.262125	-3.009000	3.621100	-10.894000	25.201298	0.000944	20.873261
969.267801	-3.011800	3.620800	-10.905000	25.215044	0.000944	20.855768
970.266043	-2.992200	3.622000	-10.837000	25.184269	0.000944	20.851899
971.263740	-3.015800	3.619700	-10.916000	25.172162	0.000943	20.860133
972.266553	-3.005300	3.620100	-10.878000	25.175939	0.000945	20.863450
973.265380	-3.023900	3.617800	-10.939000	25.165699	0.000944	20.883040
974.263235	-3.016000	3.619500	-10.916000	25.154757	0.000944	20.875849
975.266171	-2.981500	3.619000	-10.789000	25.162341	0.000942	20.876350
976.261520	-3.026900	3.618000	-10.950000	25.157492	0.000942	20.885232
977.264704	-2.977700	3.619400	-10.776000	25.166241	0.000941	20.864619
978.268230	-3.002500	3.619100	-10.866000	25.162013	0.000941	20.870332
979.268713	-3.020500	3.617600	-10.926000	25.188286	0.000940	20.887698
980.268733	-3.003600	3.618200	-10.866000	25.209441	0.000940	20.873849
981.278586	-3.004300	3.618800	-10.870000	25.223209	0.000938	20.895257
982.271927	-3.000200	3.618400	-10.854000	25.203870	0.000939	20.888170
983.269536	-2.983600	3.617900	-10.792000	25.216595	0.000940	20.872497
984.274095	-2.999500	3.617700	-10.850000	25.206203	0.000939	20.885770
985.275889	-3.006900	3.614900	-10.869000	25.182736	0.000938	20.896824
986.270274	-2.997800	3.616500	-10.840000	25.209482	0.000937	20.879580
987.277432	-2.995500	3.616900	-10.834000	25.208065	0.000938	20.885269
988.274750	-2.999500	3.615000	-10.842000	25.207665	0.000937	20.892454
989.270836	-2.997700	3.616200	-10.839000	25.220542	0.000935	20.877882
990.273741	-3.003800	3.615000	-10.857000	25.231727	0.000937	20.868249
991.275084	-2.999100	3.614100	-10.839000	25.253748	0.000933	20.860961
992.271697	-2.999800	3.614600	-10.842000	25.269704	0.000935	20.874609
993.278538	-3.010600	3.613000	-10.876000	25.280364	0.000934	20.879621
994.271646	-2.981200	3.614000	-10.773000	25.289514	0.000933	20.890704
995.273897	-2.987800	3.614900	-10.799000	25.315112	0.000936	20.893172
996.276007	-2.976600	3.614000	-10.756000	25.297812	0.000932	20.888131
997.272075	-3.015100	3.612200	-10.891000	25.283420	0.000934	20.894068
998.271481	-2.997100	3.612100	-10.825000	25.248920	0.000932	20.904474
999.276043	-2.991600	3.612100	-10.805000	25.217401	0.000933	20.901280
1000.275226	-3.033500	3.610600	-10.952000	25.201564	0.000930	20.892019
1001.279898	-2.978700	3.612800	-10.759000	25.182522	0.000931	20.900402
1002.276262	-2.997500	3.612100	-10.825000	25.197089	0.000929	20.902698
1003.276477	-2.989000	3.611900	-10.794000	25.223164	0.000931	20.926028
1004.278524	-2.991400	3.610400	-10.799000	25.230673	0.000929	20.897060
1005.280415	-3.001200	3.608900	-10.830000	25.241135	0.000928	20.908511
1006.277921	-2.997300	3.609600	-10.818000	25.258832	0.000927	20.895934
1007.286047	-2.999600	3.609300	-10.826000	25.256446	0.000930	20.913925
1008.276437	-3.004400	3.608400	-10.840000	25.257464	0.000927	20.914000
1009.276874	-3.003700	3.609500	-10.841000	25.265097	0.000928	20.913602
1010.275423	-2.990100	3.609200	-10.791000	25.273198	0.000927	20.913675
1011.278049	-2.987900	3.608400	-10.780000	25.267508	0.000924	20.929297
1012.277822	-2.997800	3.609500	-10.819000	25.185059	0.000924	20.900578
1013.274929	-2.995200	3.608300	-10.807000	25.182499	0.000925	20.905594
1014.278790	-2.994400	3.608400	-10.804000	25.198085	0.000925	20.910809
1015.277612	-2.995900	3.608400	-10.808000	25.169250	0.000924	20.916948
1016.286266	-3.024300	3.606200	-10.903000	25.165845	0.000922	20.904522
1017.284981	-3.000300	3.605200	-10.816000	25.176386	0.000923	20.920318
1018.279526	-2.992100	3.606700	-10.791000	25.144616	0.000922	20.913555
1019.276895	-2.991000	3.605900	-10.784000	25.134625	0.000920	20.924861
1020.280918	-3.008400	3.606300	-10.848000	25.163461	0.000922	20.913033
1021.283502	-3.014800	3.604800	-10.867000	25.152946	0.000921	20.928554
1022.283196	-2.998100	3.605900	-10.810000	25.181359	0.000921	20.906820
1023.282179	-3.012800	3.605300	-10.861000	25.205547	0.000920	20.923515
1024.278349	-3.014300	3.605000	-10.865000	25.229384	0.000921	20.940806
1025.281496	-3.004700	3.604700	-10.830000	25.264854	0.000919	20.919047
1026.283642	-2.995100	3.604500	-10.794000	25.288417	0.000919	20.925161
1027.278700	-3.018600	3.603200	-10.875000	25.282352	0.000918	20.925235
1028.283133	-2.989100	3.603500	-10.770000	25.284589	0.000917	20.934593
1029.285265	-2.987800	3.604400	-10.768000	25.280789	0.000919	20.926511
1030.280090	-2.988000	3.604300	-10.768000	25.312949	0.000918	20.936040
1031.281011	-2.994800	3.602400	-10.787000	25.306612	0.000916	20.920196
1032.286529	-2.993800	3.602900	-10.785000	25.291700	0.000916	20.922767
1033.290250	-2.972000	3.603400	-10.709000	25.260432	0.000918	20.904652
1034.287628	-2.991200	3.602400	-10.774000	25.229039	0.000916	20.914859
1035.289854	-3.009000	3.601100	-10.834000	25.197122	0.000915	20.933548
1036.285734	-2.999700	3.601100	-10.801000	25.172538	0.000915	20.922618
1037.286261	-3.000200	3.601500	-10.804000	25.144671	0.000916	20.924989
1038.287993	-2.969000	3.601100	-10.690000	25.136691	0.000916	20.942580
1039.286140	-2.973900	3.601800	-10.710000	25.119711	0.000915	20.922691
1040.288603	-2.996700	3.599100	-10.783000	25.131820	0.000915	20.923941
1041.292638	-2.988900	3.600200	-10.760000	25.127917	0.000916	20.948470
1042.285199	-2.997700	3.600300	-10.791000	25.139105	0.000914	20.934098
1043.289266	-2.983600	3.600400	-10.741000	25.181808	0.000914	20.913434
1044.294196	-3.027400	3.597100	-10.888000	25.193343	0.000913	20.930229
1045.287506	-3.013100	3.597600	-10.839000	25.234855	0.000913	20.930653
1046.292052	-2.991300	3.598400	-10.762000	25.247906	0.000912	20.915782
1047.287083	-2.995000	3.599000	-10.778000	25.247604	0.000911	20.906946
1048.290212	-3.027400	3.597500	-10.890000	25.270123	0.000912	20.913432
1049.292907	-2.991100	3.597900	-10.760000	25.238208	0.000911	20.931175
1050.290760	-2.977500	3.598400	-10.713000	25.232865	0.000911	20.924863
1051.294590	-2.990700	3.597100	-10.756000	25.240844	0.000909	20.907745
1052.294477	-2.986400	3.597800	-10.743000	25.225133	0.000908	20.913308
1053.294374	-2.983600	3.597000	-10.731000	25.235076	0.000908	20.915704
1054.290675	-3.001000	3.596100	-10.790000	25.257248	0.000908	20.915205
1055.292209	-3.004800	3.596700	-10.807000	25.298932	0.000905	20.920546
1056.294867	-3.018700	3.593700	-10.847000	25.293216	0.000905	20.894420
1057.295632	-3.000300	3.596600	-10.790000	25.300025	0.000903	20.909317
1058.294181	-3.012600	3.594800	-10.829000	25.326122	0.000906	20.898536
1059.295596	-3.003800	3.594300	-10.796000	25.356992	0.000903	20.910091
1060.291562	-2.981800	3.593900	-10.716000	25.349833	0.000903	20.901480
1061.294294	-3.009000	3.593000	-10.810000	25.336115	0.000903	20.885338
1062.297931	-3.002200	3.594000	-10.788000	25.362608	0.000900	20.901979
1063.294290	-2.999700	3.593400	-10.778000	25.338376	0.000901	20.896615
1064.293311	-2.981800	3.594000	-10.716000	25.347597	0.000903	20.894969
1065.293486	-3.000700	3.593000	-10.780000	25.344593	0.000901	20.891953
1066.293351	-3.008200	3.592800	-10.806000	25.335843	0.000899	20.888857
1067.296013	-3.006200	3.591300	-10.795000	25.327865	0.000900	20.894596
1068.296859	-2.978000	3.591900	-10.696000	25.316931	0.000898	20.895946
1069.294725	-2.984800	3.591500	-10.719000	25.292077	0.000900	20.910820
1070.298491	-2.969700	3.591300	-10.664000	25.281166	0.000901	20.884220
1071.299345	-3.006800	3.591100	-10.796000	25.253156	0.000900	20.905408
1072.296006	-2.982300	3.591400	-10.710000	25.250669	0.000899	20.897222
1073.298909	-3.002900	3.590100	-10.779000	25.255990	0.000898	20.896400
1074.298945	-2.990200	3.591400	-10.738000	25.251667	0.000895	20.874518
1075.295251	-2.974200	3.589700	-10.675000	25.244707	0.000897	20.883176
1076.296701	-2.990100	3.589600	-10.732000	25.232182	0.000897	20.886249
1077.299139	-3.008600	3.587500	-10.792000	25.243591	0.000897	20.871151
1078.296978	-3.002200	3.587800	-10.770000	25.253808	0.000895	20.868607
1079.300000	-2.999400	3.588300	-10.762000	25.242923	0.000895	20.886127
1080.302182	-3.006300	3.588100	-10.786000	25.268102	0.000895	20.878216
1081.298356	-3.020800	3.585100	-10.827000	25.259628	0.000895	20.886303
1082.298435	-2.991800	3.586800	-10.731000	25.284163	0.000896	20.868737
1083.300936	-2.992200	3.586400	-10.730000	25.254608	0.000894	20.894538
1084.298243	-2.992200	3.587100	-10.732000	25.229555	0.000893	20.872232
1085.300889	-2.989700	3.586400	-10.721000	25.199407	0.000892	20.894120
1086.301368	-2.982400	3.586700	-10.696000	25.195256	0.000892	20.892323
1087.298531	-3.001900	3.585600	-10.761000	25.216063	0.000889	20.880497
1088.301360	-2.967900	3.586400	-10.641000	25.260335	0.000891	20.880849
1089.303481	-3.017000	3.584300	-10.813000	25.300329	0.000891	20.877856
1090.301013	-3.022300	3.584100	-10.831000	25.312335	0.000891	20.880427
1091.304741	-3.012500	3.585400	-10.798000	25.320066	0.000892	20.890560
1092.305424	-3.020200	3.583300	-10.822000	25.366171	0.000892	20.868102
1093.302021	-3.008200	3.583700	-10.779000	25.402408	0.000891	20.868926
1094.304730	-2.971600	3.583700	-10.648000	25.412274	0.000887	20.853704
1095.306404	-2.987300	3.582600	-10.701000	25.420626	0.000889	20.875365
1096.302591	-2.971700	3.584500	-10.650000	25.393092	0.000890	20.855779
1097.305714	-2.980000	3.584500	-10.681000	25.366524	0.000889	20.858025
1098.305806	-2.982600	3.582300	-10.684000	25.338568	0.000886	20.845603
1099.306810	-2.982600	3.582800	-10.684000	25.335038	0.000886	20.845377
1100.303370	-2.995100	3.582300	-10.729000	25.344109	0.000885	20.857804
1101.310837	-3.016800	3.580600	-10.801000	25.355993	0.000887	20.869736
1102.304314	-3.006800	3.580700	-10.766000	25.337851	0.000886	20.848676
1103.303173	-2.993700	3.581500	-10.721000	25.362755	0.000884	20.841439
1104.308220	-2.986500	3.581200	-10.694000	25.367254	0.000884	20.859707
1105.308653	-3.005000	3.579300	-10.755000	25.358858	0.000883	20.869293
1106.305998	-3.008500	3.579200	-10.767000	25.379811	0.000883	20.864254
1107.310896	-3.021700	3.578600	-10.812000	25.410059	0.000883	20.845790
1108.311018	-2.999500	3.581400	-10.742000	25.426289	0.000881	20.862560
1109.308626	-3.007500	3.580600	-10.767000	25.438667	0.000882	20.863136
1110.310772	-3.011600	3.578600	-10.776000	25.474107	0.000881	20.854629
1111.306613	-2.984600	3.578600	-10.680000	25.432656	0.000880	20.854730
1112.311669	-3.005800	3.578100	-10.754000	25.449633	0.000881	20.852811
1113.311403	-3.018500	3.577700	-10.798000	25.432189	0.000879	20.862795
1114.308359	-2.989700	3.578200	-10.697000	25.440191	0.000879	20.855184
1115.308863	-3.012500	3.576200	-10.772000	25.442529	0.000878	20.866541
1116.312092	-2.996100	3.576700	-10.715000	25.445736	0.000879	20.846528
1117.310063	-2.973500	3.578500	-10.639000	25.462536	0.000877	20.854389
1118.318270	-2.999300	3.575100	-10.721000	25.492261	0.000877	20.846306
1119.313971	-2.990500	3.576400	-10.694000	25.503520	0.000876	20.841019
1120.313718	-2.990800	3.576700	-10.696000	25.523178	0.000876	20.842741
1121.313529	-2.991400	3.576100	-10.697000	25.533864	0.000874	20.846361
1122.314462	-2.980800	3.573800	-10.652000	25.551434	0.000875	20.849307
1123.309339	-3.005500	3.574300	-10.741000	25.530190	0.000876	20.842197
1124.309214	-2.978700	3.574500	-10.647000	25.527135	0.000873	20.830120
1125.314451	-2.997700	3.573800	-10.712000	25.508222	0.000875	20.848584
1126.310822	-2.996000	3.573500	-10.705000	25.478826	0.000872	20.829023
1127.311419	-2.990100	3.574900	-10.688000	25.452088	0.000871	20.843897
1128.315706	-2.995200	3.573400	-10.702000	25.440706	0.000872	20.853330
1129.311498	-3.018400	3.572300	-10.782000	25.401093	0.000871	20.835365
1130.312253	-2.988000	3.572500	-10.673000	25.404201	0.000870	20.839434
1131.316543	-2.996800	3.571900	-10.704000	25.375994	0.000869	20.814905
1132.323759	-3.009100	3.570400	-10.741000	25.360910	0.000869	20.822518
1133.321753	-2.984400	3.571500	-10.658000	25.366601	0.000871	20.850043
1134.317131	-3.003200	3.571700	-10.726000	25.380968	0.000868	20.831278
1135.318119	-3.005700	3.570000	-10.729000	25.409174	0.000870	20.849169
1136.317813	-3.026700	3.569500	-10.802000	25.419812	0.000869	20.823342
1137.317768	-2.977600	3.569600	-10.627000	25.451251	0.000866	20.849695
1138.316865	-3.001300	3.569000	-10.711000	25.450606	0.000867	20.820125
1139.318600	-3.027800	3.569000	-10.805000	25.468326	0.000867	20.828436
1140.321307	-3.015800	3.567300	-10.758000	25.477522	0.000866	20.835774
1141.319128	-3.009800	3.568400	-10.739000	25.507666	0.000866	20.811992
1142.319811	-3.035500	3.566800	-10.826000	25.483190	0.000866	20.816810
1143.322490	-3.006800	3.567800	-10.727000	25.487514	0.000864	20.843437
1144.319043	-2.998600	3.568200	-10.699000	25.433263	0.000863	20.819305
1145.323277	-3.018600	3.567500	-10.767000	25.436643	0.000865	20.814638
1146.323454	-3.028300	3.566700	-10.800000	25.461891	0.000865	20.819603
1147.321183	-2.993100	3.567800	-10.678000	25.438282	0.000862	20.804905
1148.321157	-3.033000	3.565800	-10.814000	25.420788	0.000861	20.836650
1149.322289	-3.010000	3.566400	-10.734000	25.378762	0.000863	20.842814
1150.326779	-3.003600	3.564900	-10.707000	25.371926	0.000860	20.831683
1151.327856	-3.010600	3.566400	-10.736000	25.387709	0.000861	20.822401
1152.323639	-3.012200	3.565400	-10.738000	25.393351	0.000861	20.811471
1153.322624	-2.986500	3.566600	-10.650000	25.373395	0.000860	20.832683
1154.324883	-2.986900	3.564400	-10.645000	25.361164	0.000860	20.831782
1155.327307	-2.994100	3.565200	-10.673000	25.359849	0.000856	20.816711
1156.323411	-2.975600	3.565000	-10.607000	25.344839	0.000858	20.828666
1157.326245	-3.009800	3.563300	-10.723000	25.396607	0.000860	20.815214
1158.331744	-2.975000	3.564700	-10.604000	25.384678	0.000857	20.825047
1159.323431	-2.997100	3.563800	-10.679000	25.375855	0.000857	20.807178
1160.326630	-2.994700	3.563600	-10.671000	25.362088	0.000857	20.818960
1161.330002	-3.005200	3.564100	-10.709000	25.347749	0.000855	20.822105
1162.328832	-3.014600	3.562600	-10.739000	25.346181	0.000855	20.816738
1163.326728	-2.987500	3.562800	-10.643000	25.337359	0.000852	20.803613
1164.328451	-2.994200	3.561500	-10.664000	25.327170	0.000852	20.826573
1165.324352	-2.982900	3.562400	-10.625000	25.337312	0.000852	20.806411
1166.330338	-2.982900	3.562100	-10.625000	25.377325	0.000851	20.817190
1167.330860	-2.996100	3.562300	-10.672000	25.392535	0.000853	20.804961
1168.327740	-2.996400	3.560400	-10.667000	25.390448	0.000852	20.810926
1169.326506	-3.009400	3.560700	-10.715000	25.413588	0.000850	20.806661
1170.330548	-2.999300	3.559700	-10.676000	25.441324	0.000849	20.803218
1171.328614	-3.005700	3.558800	-10.696000	25.462325	0.000849	20.816246
1172.329589	-2.985600	3.558400	-10.623000	25.452409	0.000847	20.792538
1173.335710	-2.979400	3.559500	-10.604000	25.436827	0.000847	20.808185
1174.329427	-2.990200	3.560000	-10.644000	25.404646	0.000846	20.820441
1175.333485	-3.016600	3.557700	-10.731000	25.438768	0.000847	20.815350
1176.332489	-3.013800	3.558200	-10.723000	25.431586	0.000846	20.820466
1177.329676	-3.015700	3.558400	-10.730000	25.402535	0.000846	20.813580
1178.340878	-3.009600	3.557000	-10.704000	25.414888	0.000845	20.794690
1179.336024	-3.008800	3.556700	-10.700000	25.416703	0.000845	20.812634
1180.331424	-2.993300	3.555900	-10.643000	25.445210	0.000844	20.800956
1181.335474	-3.018200	3.555900	-10.731000	25.463279	0.000845	20.809143
1182.334296	-3.029900	3.554100	-10.768000	25.467155	0.000844	20.812087
1183.332411	-2.991300	3.556100	-10.636000	25.454979	0.000844	20.805551
1184.334710	-3.031100	3.554700	-10.774000	25.438082	0.000842	20.792376
1185.333925	-3.001600	3.555700	-10.672000	25.409948	0.000842	20.805377
1186.333686	-2.982400	3.556000	-10.605000	25.387433	0.000841	20.803158
1187.335823	-2.992500	3.556100	-10.640000	25.372149	0.000843	20.799190
1188.341210	-3.012200	3.554600	-10.706000	25.373543	0.000841	20.780676
1189.336307	-3.012700	3.555600	-10.710000	25.402076	0.000839	20.806955
1190.343552	-2.973700	3.554400	-10.568000	25.380283	0.000840	20.796926
1191.340437	-3.015300	3.553300	-10.713000	25.400264	0.000839	20.789489
1192.338055	-3.008300	3.553500	-10.688000	25.400837	0.000838	20.797177
1193.337915	-2.980000	3.553900	-10.589000	25.452356	0.000838	20.799597
1194.343418	-3.008300	3.551500	-10.684000	25.445844	0.000839	20.809654
1195.339865	-3.009500	3.551700	-10.687000	25.488340	0.000835	20.788791
1196.344457	-3.024300	3.551300	-10.739000	25.514014	0.000835	20.813625
1197.345146	-3.005900	3.551600	-10.674000	25.530115	0.000835	20.787594
1198.342148	-3.015600	3.550600	-10.705000	25.573504	0.000835	20.804142
1199.347079	-2.987300	3.551500	-10.608000	25.594727	0.000833	20.796059
1200.346561	-2.993500	3.551200	-10.629000	25.541399	0.000833	20.792288
1201.344154	-2.994600	3.549800	-10.629000	25.547813	0.000833	20.791618
1202.346909	-2.993900	3.549200	-10.625000	25.529348	0.000831	20.788247
1203.346797	-2.985600	3.549700	-10.598000	25.479475	0.000832	20.802174
1204.345065	-3.017100	3.547700	-10.703000	25.443268	0.000833	20.785729
1205.347112	-2.989300	3.549000	-10.608000	25.422988	0.000831	20.791918
1206.348634	-3.000000	3.549200	-10.646000	25.455673	0.000831	20.783488
1207.348824	-3.010600	3.546900	-10.677000	25.454229	0.000830	20.772081
1208.347752	-3.024600	3.548100	-10.730000	25.467052	0.000827	20.775948
1209.345286	-3.004900	3.546900	-10.657000	25.485170	0.000828	20.797462
1210.348188	-2.995400	3.546600	-10.623000	25.487756	0.000827	20.788678
1211.350822	-2.999900	3.546200	-10.637000	25.485645	0.000827	20.788929
1212.345873	-2.995900	3.547300	-10.625000	25.497028	0.000826	20.801783
1213.348741	-2.977400	3.545900	-10.556000	25.448392	0.000827	20.791350
1214.348744	-2.993900	3.545300	-10.613000	25.401225	0.000824	20.781918
1215.349059	-3.028100	3.545400	-10.734000	25.381914	0.000826	20.782916
1216.349679	-2.995900	3.544500	-10.618000	25.395336	0.000826	20.774108
1217.350522	-3.011400	3.545000	-10.674000	25.386116	0.000824	20.778602
1218.346921	-3.015500	3.544000	-10.686000	25.398520	0.000825	20.782522
1219.347315	-3.013800	3.544200	-10.680000	25.420192	0.000823	20.783420
1220.347504	-3.009200	3.542900	-10.660000	25.403638	0.000825	20.788609
1221.348726	-2.988100	3.544500	-10.590000	25.452399	0.000824	20.783045
1222.352230	-3.026800	3.542900	-10.723000	25.462290	0.000824	20.775434
1223.354168	-3.001200	3.543300	-10.633000	25.479884	0.000822	20.788360
1224.347056	-2.998400	3.543000	-10.622000	25.528519	0.000820	20.776509
1225.350290	-2.993800	3.542300	-10.603000	25.536768	0.000823	20.772465
1226.350268	-3.025400	3.540900	-10.712000	25.554536	0.000822	20.778455
1227.349254	-3.010600	3.540900	-10.659000	25.526878	0.000820	20.760161
1228.353895	-3.025700	3.539700	-10.709000	25.534608	0.000822	20.770769
1229.353140	-2.977300	3.540900	-10.541000	25.531775	0.000818	20.781675
1230.350383	-2.974900	3.541600	-10.534000	25.515744	0.000820	20.773637
1231.353005	-3.024200	3.539800	-10.703000	25.485207	0.000820	20.772368
1232.351143	-2.998400	3.541500	-10.617000	25.483016	0.000820	20.773962
1233.351632	-2.987300	3.540800	-10.576000	25.443428	0.000821	20.762656
1234.354626	-3.015200	3.539300	-10.671000	25.435574	0.000819	20.754295
1235.350611	-3.030200	3.538300	-10.721000	25.409581	0.000817	20.777981
1236.353529	-3.008300	3.539100	-10.645000	25.429710	0.000818	20.775434
1237.350854	-2.975200	3.540100	-10.532000	25.443653	0.000816	20.759563
1238.353867	-2.999200	3.538600	-10.612000	25.455581	0.000815	20.755420
1239.352538	-2.999700	3.537400	-10.610000	25.438135	0.000815	20.786265
1240.358285	-2.997400	3.536000	-10.598000	25.460377	0.000813	20.773987
1241.356219	-3.014400	3.536200	-10.659000	25.455210	0.000812	20.767850
1242.356442	-2.995000	3.536500	-10.592000	25.491493	0.000813	20.776784
1243.357261	-2.970900	3.537600	-10.509000	25.517934	0.000812	20.767775
1244.356816	-2.992300	3.536600	-10.581000	25.530484	0.000813	20.759516
1245.356044	-3.000000	3.536900	-10.610000	25.541344	0.000813	20.761887
1246.355587	-3.008300	3.535200	-10.634000	25.548502	0.000812	20.765757
1247.355714	-3.006400	3.535000	-10.627000	25.579341	0.000810	20.746467
1248.356433	-3.034200	3.533700	-10.721000	25.604216	0.000809	20.774768
1249.358657	-3.027300	3.535200	-10.700000	25.615549	0.000809	20.773822
1250.356369	-2.992200	3.534700	-10.576000	25.652123	0.000810	20.769304
1251.355301	-3.021200	3.532600	-10.671000	25.617462	0.000808	20.752036
1252.362085	-3.001100	3.533600	-10.603000	25.581586	0.000807	20.753463
1253.361326	-3.006500	3.533700	-10.623000	25.563449	0.000808	20.743783
1254.357361	-3.015900	3.532900	-10.654000	25.497969	0.000806	20.751519
1255.363726	-3.008700	3.532500	-10.626000	25.514023	0.000805	20.763373
1256.363026	-3.005600	3.532300	-10.616000	25.519194	0.000804	20.760506
1257.360519	-3.006700	3.532100	-10.618000	25.535151	0.000805	20.770840
1258.363163	-2.975600	3.532000	-10.508000	25.521013	0.000804	20.749530
1259.361476	-2.994900	3.531200	-10.574000	25.499072	0.000805	20.754048
1260.357230	-3.010600	3.530600	-10.628000	25.501880	0.000804	20.754024
1261.361388	-3.005700	3.530400	-10.609000	25.512643	0.000801	20.757720
1262.363877	-3.007800	3.531000	-10.619000	25.497808	0.000804	20.747564
1263.364962	-2.990600	3.530000	-10.555000	25.470771	0.000804	20.740801
1264.364914	-2.962100	3.531900	-10.460000	25.423830	0.000802	20.745347
1265.365555	-2.990000	3.527900	-10.547000	25.433770	0.000801	20.758648
1266.366489	-2.981800	3.528800	-10.521000	25.424032	0.000802	20.720893
1267.362987	-2.979100	3.530000	-10.514000	25.441575	0.000800	20.736613
1268.365042	-2.982900	3.528900	-10.525000	25.459122	0.000800	20.723413
1269.364198	-2.980300	3.528600	-10.514000	25.470408	0.000799	20.741385
1270.362967	-2.975000	3.528700	-10.497000	25.512532	0.000798	20.718726
1271.364183	-2.989800	3.529000	-10.550000	25.497672	0.000797	20.733202
1272.361586	-2.980700	3.527500	-10.513000	25.512408	0.000798	20.743259
1273.366706	-2.994500	3.527000	-10.561000	25.539424	0.000798	20.737199
1274.366573	-3.012700	3.526600	-10.624000	25.576078	0.000796	20.760260
1275.361680	-2.993700	3.528200	-10.562000	25.559504	0.000795	20.719905
1276.371107	-3.017600	3.525700	-10.637000	25.570541	0.000795	20.724825
1277.368232	-3.011600	3.524600	-10.613000	25.556525	0.000795	20.714542
1278.362305	-2.998500	3.525800	-10.571000	25.582717	0.000795	20.735158
1279.367997	-2.978000	3.525400	-10.498000	25.567337	0.000793	20.724453
1280.365228	-3.001000	3.524500	-10.576000	25.554567	0.000793	20.741501
1281.362716	-2.987200	3.524200	-10.526000	25.534166	0.000794	20.728125
1282.366307	-2.967200	3.524700	-10.458000	25.491774	0.000792	20.727752
1283.368452	-2.985600	3.522700	-10.515000	25.476519	0.000791	20.732348
1284.370236	-3.007400	3.523200	-10.594000	25.462353	0.000789	20.745151
1285.368680	-2.983700	3.522500	-10.508000	25.470855	0.000791	20.719073
1286.369185	-2.972800	3.523200	-10.472000	25.521653	0.000789	20.737370
1287.365305	-2.980800	3.522600	-10.499000	25.521280	0.000789	20.747901
1288.369958	-2.993600	3.521100	-10.540000	25.490743	0.000789	20.727666
1289.370198	-2.998700	3.521300	-10.558000	25.482121	0.000790	20.747457
1290.366148	-2.989400	3.521500	-10.526000	25.453471	0.000789	20.734334
1291.370413	-3.012600	3.520300	-10.604000	25.442762	0.000787	20.734486
1292.366285	-3.003400	3.519100	-10.568000	25.446045	0.000786	20.736360
1293.373140	-2.985700	3.520500	-10.511000	25.489512	0.000784	20.732120
1294.371341	-2.994300	3.518000	-10.533000	25.489465	0.000785	20.750566
1295.367105	-3.010300	3.518500	-10.592000	25.495952	0.000785	20.733371
1296.370662	-2.989100	3.518800	-10.517000	25.499460	0.000783	20.734997
1297.367341	-2.997600	3.517700	-10.544000	25.500973	0.000781	20.740784
1298.370720	-2.998200	3.517400	-10.545000	25.496278	0.000785	20.735121
1299.372098	-2.985700	3.518300	-10.504000	25.529680	0.000782	20.756812
1300.366603	-2.982700	3.518400	-10.492000	25.576474	0.000781	20.724620
1301.371945	-2.997000	3.515700	-10.536000	25.596728	0.000780	20.734057
1302.367653	-3.003500	3.517300	-10.563000	25.623913	0.000780	20.742393
1303.368766	-3.024900	3.514900	-10.632000	25.638922	0.000779	20.727594
1304.373228	-2.988900	3.516300	-10.508000	25.630053	0.000779	20.741447
1305.369774	-3.019500	3.514400	-10.610000	25.634974	0.000776	20.726001
1306.369571	-3.010200	3.515100	-10.580000	25.618975	0.000776	20.733166
1307.369065	-3.016600	3.513900	-10.599000	25.579888	0.000777	20.743697
1308.372082	-3.017000	3.514000	-10.600000	25.568634	0.000776	20.730023
1309.369337	-3.011500	3.513800	-10.581000	25.542570	0.000776	20.699578
1310.371468	-3.015500	3.512900	-10.592000	25.550272	0.000775	20.732920
1311.368822	-3.010700	3.513100	-10.575000	25.584889	0.000776	20.735917
1312.370030	-2.980200	3.513900	-10.471000	25.589140	0.000776	20.724539
1313.372909	-3.020400	3.512500	-10.608000	25.599354	0.000774	20.738116
1314.372274	-3.002200	3.511400	-10.540000	25.653575	0.000773	20.728561
1315.369853	-3.001800	3.511400	-10.539000	25.686942	0.000774	20.745480
1316.370419	-2.999500	3.511300	-10.532000	25.714673	0.000775	20.742039
1317.373023	-3.005700	3.511900	-10.555000	25.745582	0.000774	20.742265
1318.369693	-3.010800	3.511100	-10.571000	25.735521	0.000774	20.763928
1319.374238	-3.004000	3.509400	-10.540000	25.703722	0.000773	20.743842
1320.377142	-3.022000	3.511200	-10.609000	25.702506	0.000773	20.747362
1321.369201	-3.008300	3.509700	-10.557000	25.694876	0.000772	20.751553
1322.373682	-2.989000	3.510900	-10.493000	25.673188	0.000771	20.746364
1323.369369	-2.982900	3.509300	-10.466000	25.698534	0.000773	20.752856
1324.370087	-2.988000	3.510800	-10.489000	25.698762	0.000773	20.746446
1325.373633	-2.987500	3.508800	-10.481000	25.711009	0.000772	20.735513
1326.375223	-3.022300	3.508100	-10.601000	25.739656	0.000771	20.740106
1327.373882	-2.996200	3.509200	-10.514000	25.721369	0.000769	20.741652
1328.375731	-3.003900	3.507900	-10.536000	25.714763	0.000771	20.714153
1329.375017	-2.982100	3.508800	-10.463000	25.718441	0.000769	20.749617
1330.372299	-3.018500	3.505500	-10.579000	25.708379	0.000771	20.739984
1331.378489	-2.987700	3.506500	-10.475000	25.662513	0.000767	20.745600
1332.375439	-2.972900	3.507000	-10.425000	25.652451	0.000768	20.759676
1333.377963	-3.000500	3.506100	-10.520000	25.630089	0.000769	20.732475
1334.380975	-3.014500	3.504500	-10.564000	25.616750	0.000769	20.744208
1335.381105	-3.000700	3.504400	-10.515000	25.627133	0.000767	20.740886
1336.382856	-2.995300	3.504600	-10.496000	25.606264	0.000767	20.726564
1337.381475	-3.004100	3.504000	-10.525000	25.631382	0.000767	20.741360
1338.382763	-3.006900	3.503900	-10.534000	25.659063	0.000764	20.750670
1339.378827	-3.012700	3.503500	-10.554000	25.673673	0.000766	20.732152
1340.385327	-2.989300	3.502600	-10.469000	25.683886	0.000764	20.756161
1341.380967	-2.989700	3.502600	-10.470000	25.692134	0.000765	20.744056
1342.381517	-2.993100	3.501600	-10.480000	25.691288	0.000767	20.744155
1343.392186	-2.982800	3.502800	-10.447000	25.704306	0.000764	20.758179
1344.384427	-2.986900	3.500000	-10.453000	25.697497	0.000764	20.741382
1345.381005	-2.984400	3.501700	-10.450000	25.681199	0.000764	20.760575
1346.386576	-2.982400	3.501300	-10.441000	25.654038	0.000766	20.746571
1347.385454	-2.986700	3.500200	-10.453000	25.634135	0.000761	20.726106
1348.383917	-3.004200	3.500500	-10.515000	25.615822	0.000763	20.765562
1349.385675	-3.005600	3.499100	-10.516000	25.594920	0.000763	20.745518
1350.386079	-2.989900	3.499500	-10.461000	25.575341	0.000761	20.735337
1351.383016	-2.975200	3.499900	-10.412000	25.590446	0.000762	20.769474
1352.387956	-3.001500	3.498400	-10.499000	25.629132	0.000759	20.750006
1353.383882	-2.993300	3.498600	-10.471000	25.657208	0.000760	20.748807
1354.383471	-3.031400	3.497700	-10.600000	25.676490	0.000761	20.735930
1355.388861	-3.000700	3.497600	-10.494000	25.685756	0.000760	20.758514
1356.386851	-3.018600	3.496600	-10.554000	25.712711	0.000757	20.756664
1357.390806	-3.009600	3.496200	-10.521000	25.746697	0.000758	20.749075
1358.390853	-2.972900	3.497800	-10.397000	25.735960	0.000756	20.744454
1359.385853	-3.016300	3.495400	-10.542000	25.766943	0.000756	20.770360
1360.383761	-3.001300	3.494800	-10.488000	25.785572	0.000756	20.753985
1361.386908	-3.030800	3.494300	-10.589000	25.802315	0.000757	20.764166
1362.385550	-2.992000	3.494600	-10.454000	25.793690	0.000756	20.756924
1363.385088	-2.990500	3.494800	-10.450000	25.758907	0.000754	20.772720
1364.385968	-2.998700	3.493700	-10.476000	25.715975	0.000756	20.764210
1365.385150	-2.993200	3.494600	-10.459000	25.651171	0.000755	20.763607
1366.386122	-2.983700	3.493100	-10.422000	25.609374	0.000755	20.752448
1367.389821	-3.018600	3.494200	-10.547000	25.566384	0.000754	20.759533
1368.388492	-3.009900	3.492200	-10.508000	25.500034	0.000754	20.759756
1369.385359	-2.986500	3.491900	-10.427000	25.490761	0.000754	20.778420
1370.395157	-3.014500	3.492300	-10.527000	25.498439	0.000752	20.773802
1371.389116	-2.990400	3.491800	-10.441000	25.493764	0.000751	20.789971
1372.388247	-3.011800	3.491200	-10.513000	25.481337	0.000751	20.781284
1373.393371	-2.996500	3.490700	-10.458000	25.497064	0.000751	20.762464
1374.390300	-3.019100	3.490700	-10.537000	25.503027	0.000750	20.779832
1375.388388	-3.001600	3.491000	-10.478000	25.482919	0.000748	20.740672
1376.394261	-2.997900	3.490500	-10.463000	25.502871	0.000747	20.766399
1377.393248	-3.000900	3.490200	-10.473000	25.463033	0.000749	20.772387
1378.389503	-2.999700	3.489800	-10.467000	25.444866	0.000747	20.795395
1379.396898	-3.000200	3.489300	-10.467000	25.483952	0.000747	20.783436
1380.394601	-3.006600	3.487700	-10.485000	25.490140	0.000745	20.776848
1381.394359	-2.982800	3.489300	-10.406000	25.500253	0.000745	20.783685
1382.394725	-3.016100	3.485300	-10.510000	25.528454	0.000744	20.791616
1383.395641	-3.001900	3.487700	-10.469000	25.524029	0.000743	20.781009
1384.395163	-2.996500	3.486700	-10.447000	25.543387	0.000742	20.800449
1385.397704	-2.991600	3.485600	-10.426000	25.576805	0.000742	20.774740
1386.399320	-2.992400	3.486300	-10.431000	25.611418	0.000743	20.772992
1387.396995	-3.010400	3.486400	-10.494000	25.671970	0.000740	20.790660
1388.398234	-3.002400	3.484500	-10.460000	25.687150	0.000742	20.790261
1389.398623	-2.992800	3.487500	-10.436000	25.733312	0.000741	20.798694
1390.396158	-3.007300	3.483700	-10.475000	25.746680	0.000736	20.784621
1391.396211	-2.982400	3.486400	-10.396000	25.780564	0.000738	20.800163
1392.401130	-3.010100	3.483500	-10.484000	25.786873	0.000736	20.816932
1393.402903	-3.012400	3.483700	-10.494000	25.813480	0.000736	20.790080
1394.404853	-2.976500	3.485800	-10.375000	25.774773	0.000737	20.806201
1395.399960	-3.001600	3.482100	-10.451000	25.717232	0.000736	20.785862
1396.399440	-3.006200	3.482500	-10.468000	25.714523	0.000734	20.765123
1397.403558	-3.008600	3.484000	-10.481000	25.713928	0.000734	20.820949
1398.404459	-2.982400	3.481700	-10.381000	25.769230	0.000732	20.800159
1399.400829	-2.991900	3.482600	-10.419000	25.770572	0.000734	20.807196
1400.406346	-3.003300	3.481100	-10.454000	25.771716	0.000734	20.802182
1401.404310	-2.991200	3.480900	-10.411000	25.735541	0.000733	20.800459
1402.402196	-3.001600	3.481100	-10.448000	25.750523	0.000733	20.805076
1403.406974	-2.981900	3.481000	-10.379000	25.752461	0.000731	20.793272
1404.402996	-2.994400	3.479000	-10.416000	25.742968	0.000731	20.806970
1405.403313	-2.997200	3.479800	-10.428000	25.742325	0.000732	20.798264
1406.406636	-2.996300	3.478800	-10.423000	25.688137	0.000730	20.792674
1407.407959	-2.976600	3.477500	-10.350000	25.719321	0.000732	20.809771
1408.409241	-3.003200	3.478000	-10.444000	25.724464	0.000729	20.810669
1409.407009	-2.992600	3.478700	-10.409000	25.761904	0.000729	20.799913
1410.404789	-2.989600	3.477900	-10.397000	25.778994	0.000730	20.818501
1411.405110	-2.992200	3.476300	-10.401000	25.809681	0.000729	20.801911
1412.408255	-3.015400	3.475700	-10.479000	25.836784	0.000727	20.811593
1413.410998	-3.015700	3.475100	-10.479000	25.862720	0.000726	20.803981
1414.405662	-2.984700	3.477000	-10.377000	25.856037	0.000729	20.800114
1415.411134	-2.993300	3.474800	-10.400000	25.863466	0.000727	20.797145
1416.407526	-2.983200	3.475600	-10.367000	25.832338	0.000725	20.802859
1417.408721	-2.977400	3.475500	-10.346000	25.800616	0.000727	20.807978
1418.409698	-2.987400	3.474500	-10.379000	25.783747	0.000725	20.813318
1419.411582	-3.010400	3.472900	-10.454000	25.812565	0.000725	20.813343
1420.409843	-2.999100	3.473900	-10.418000	25.850030	0.000724	20.807355
1421.409931	-2.990800	3.472500	-10.384000	25.865433	0.000723	20.802914
1422.416550	-3.014300	3.472100	-10.465000	25.848641	0.000723	20.816865
1423.412683	-3.003300	3.472000	-10.427000	25.834654	0.000723	20.815143
1424.410227	-3.002500	3.471800	-10.422000	25.829985	0.000722	20.806660
1425.414170	-3.019500	3.470500	-10.478000	25.799054	0.000721	20.822056
1426.410229	-3.007800	3.471100	-10.438000	25.779827	0.000722	20.808433
1427.411631	-2.971500	3.470700	-10.312000	25.756227	0.000721	20.821711
1428.416753	-2.979300	3.470600	-10.339000	25.733396	0.000721	20.813003
1429.413760	-2.985800	3.469200	-10.357000	25.698663	0.000720	20.824109
1430.410995	-3.003900	3.468900	-10.419000	25.673544	0.000720	20.818320
1431.415484	-2.973400	3.470900	-10.319000	25.642908	0.000719	20.822163
1432.413430	-3.007700	3.468800	-10.430000	25.630836	0.000721	20.812884
1433.412056	-2.964400	3.469400	-10.284000	25.657894	0.000719	20.814929
1434.416960	-2.992200	3.467800	-10.376000	25.682148	0.000718	20.844505
1435.416256	-2.997200	3.467300	-10.391000	25.698174	0.000716	20.832626
1436.413561	-3.012400	3.467400	-10.444000	25.706723	0.000718	20.811342
1437.419088	-3.002000	3.466700	-10.405000	25.752985	0.000717	20.811342
1438.418756	-2.983400	3.467200	-10.343000	25.773933	0.000716	20.820056
1439.416029	-3.001500	3.465800	-10.402000	25.794033	0.000718	20.826495
1440.416391	-2.997900	3.466500	-10.391000	25.795227	0.000716	20.805883
1441.415729	-3.002400	3.465100	-10.403000	25.774981	0.000717	20.828694
1442.417549	-2.987100	3.464600	-10.348000	25.792600	0.000716	20.823633
1443.415415	-2.995800	3.465600	-10.380000	25.816451	0.000717	20.821513
1444.417504	-3.012100	3.464100	-10.433000	25.817968	0.000715	20.812132
1445.418034	-2.997600	3.463800	-10.382000	25.830413	0.000713	20.826530
1446.421248	-3.002200	3.463500	-10.398000	25.853893	0.000713	20.807917
1447.418001	-2.982900	3.464000	-10.331000	25.893368	0.000715	20.820071
1448.419899	-2.997200	3.463200	-10.378000	25.929812	0.000714	20.816854
1449.423635	-3.015500	3.462000	-10.439000	25.900327	0.000713	20.828010
1450.421815	-2.994200	3.462300	-10.366000	25.885124	0.000712	20.825540
1451.421751	-3.006200	3.461700	-10.405000	25.816140	0.000712	20.839218
1452.421140	-3.013500	3.462000	-10.432000	25.812440	0.000713	20.838821
1453.422831	-2.995600	3.460700	-10.366000	25.771302	0.000713	20.846335
1454.424177	-3.006000	3.460100	-10.401000	25.745910	0.000709	20.848805
1455.424017	-3.002900	3.458900	-10.385000	25.738110	0.000710	20.824850
1456.425934	-3.004900	3.460300	-10.397000	25.738384	0.000709	20.849781
1457.424017	-3.006300	3.459100	-10.397000	25.720622	0.000710	20.823405
1458.426076	-2.995100	3.459400	-10.360000	25.707555	0.000709	20.821660
1459.427094	-3.006400	3.458300	-10.395000	25.750910	0.000709	20.841974
1460.423855	-3.003300	3.457700	-10.383000	25.770491	0.000706	20.831771
1461.423362	-3.020900	3.456700	-10.441000	25.807038	0.000707	20.843826
1462.426565	-2.984900	3.457300	-10.319000	25.788209	0.000705	20.834869
1463.431728	-3.022200	3.456000	-10.444000	25.824281	0.000706	20.816576
1464.424982	-3.001200	3.457700	-10.375000	25.838246	0.000706	20.844355
1465.426292	-2.999300	3.456500	-10.366000	25.850990	0.000706	20.826812
1466.425047	-2.990900	3.455400	-10.333000	25.856956	0.000704	20.827589
1467.425536	-3.016100	3.456500	-10.425000	25.862398	0.000704	20.836374
1468.424853	-2.997500	3.454700	-10.354000	25.882274	0.000702	20.842116
1469.426291	-3.008600	3.454500	-10.392000	25.889428	0.000701	20.851199
1470.425993	-3.000400	3.454800	-10.365000	25.848591	0.000701	20.859014
1471.425844	-3.007600	3.453400	-10.385000	25.825512	0.000699	20.853848
1472.427378	-3.012000	3.452600	-10.398000	25.831925	0.000701	20.829471
1473.430442	-3.007800	3.453200	-10.386000	25.815106	0.000701	20.838179
1474.427968	-2.971400	3.455800	-10.268000	25.833391	0.000699	20.846115
1475.430054	-3.016800	3.452800	-10.416000	25.838909	0.000697	20.847866
1476.427691	-3.001200	3.452000	-10.359000	25.858882	0.000698	20.838532
1477.427283	-2.984600	3.453900	-10.308000	25.861072	0.000700	20.842628
1478.430829	-2.984200	3.452800	-10.303000	25.851085	0.000699	20.841605
1479.428798	-3.007000	3.450500	-10.375000	25.859856	0.000699	20.843777
1480.430397	-3.003000	3.449600	-10.358000	25.872849	0.000698	20.848770
1481.428113	-3.000300	3.450800	-10.353000	25.913292	0.000697	20.858577
1482.432462	-3.015400	3.449800	-10.402000	25.926063	0.000695	20.837743
1483.431602	-2.981200	3.449400	-10.283000	25.896998	0.000696	20.862122
1484.430133	-3.003300	3.449100	-10.357000	25.888878	0.000698	20.879094
1485.433325	-3.002700	3.447400	-10.350000	25.886394	0.000695	20.854790
1486.431067	-3.016200	3.448600	-10.400000	25.842998	0.000694	20.856714
1487.430741	-2.968100	3.448300	-10.234000	25.866870	0.000694	20.849875
1488.434910	-3.020100	3.447500	-10.411000	25.862748	0.000695	20.856165
1489.430542	-3.018000	3.447300	-10.403000	25.908509	0.000693	20.863255
1490.433509	-2.991200	3.445700	-10.306000	25.931537	0.000694	20.870268
1491.433291	-3.008200	3.446400	-10.366000	25.961696	0.000694	20.867376
1492.435033	-2.966900	3.446100	-10.223000	25.977021	0.000694	20.852901
1493.435070	-2.998500	3.445300	-10.330000	26.010430	0.000694	20.849483
1494.436098	-3.000200	3.446200	-10.338000	25.998854	0.000693	20.870094
1495.435977	-2.978600	3.445400	-10.262000	26.003008	0.000692	20.853880
1496.439874	-3.021200	3.445400	-10.407000	25.965477	0.000693	20.870700
1497.436337	-3.016600	3.443600	-10.386000	25.917410	0.000690	20.845646
1498.436116	-2.980800	3.444500	-10.266000	25.908171	0.000691	20.845847
1499.436225	-2.989900	3.443800	-10.296000	25.883134	0.000693	20.861945
1500.437640	-2.999800	3.443500	-10.329000	25.882363	0.000690	20.861645
1501.439607	-2.988800	3.443100	-10.290000	25.875058	0.000691	20.889392
1502.435661	-2.992400	3.442400	-10.300000	25.906758	0.000691	20.866711
1503.435577	-3.013200	3.440800	-10.367000	25.929961	0.000689	20.873900
1504.437303	-2.986300	3.441900	-10.276000	25.955075	0.000689	20.862621
1505.435108	-3.007800	3.440500	-10.347000	25.965211	0.000689	20.883708
1506.436163	-2.987800	3.439800	-10.276000	25.973604	0.000689	20.876494
1507.436197	-2.997400	3.439800	-10.309000	25.981405	0.000688	20.867737
1508.437618	-3.000600	3.440700	-10.322000	26.014864	0.000688	20.865316
1509.437187	-3.009900	3.439000	-10.349000	26.007140	0.000689	20.864194
1510.440750	-2.993800	3.438300	-10.293000	26.005897	0.000686	20.865791
1511.439397	-2.977400	3.439900	-10.241000	25.978080	0.000686	20.875300
1512.440392	-3.029200	3.437700	-10.412000	25.975841	0.000686	20.886801
1513.439961	-3.008400	3.437800	-10.342000	25.997750	0.000685	20.866615
1514.440742	-3.008600	3.437300	-10.340000	26.026091	0.000685	20.884656
1515.440594	-3.009400	3.438400	-10.346000	26.027880	0.000687	20.861799
1516.441941	-2.981100	3.437100	-10.245000	25.987143	0.000685	20.881561
1517.440471	-3.005800	3.436200	-10.327000	25.942828	0.000684	20.879714
1518.441149	-3.001800	3.435900	-10.312000	25.893891	0.000683	20.883656
1519.440160	-2.995300	3.435100	-10.288000	25.864924	0.000684	20.896280
1520.445188	-2.998700	3.434000	-10.297000	25.834067	0.000683	20.890415
1521.440247	-2.984700	3.435400	-10.253000	25.808233	0.000684	20.872525
1522.440786	-3.000600	3.434600	-10.305000	25.792631	0.000683	20.894784
1523.445547	-3.030800	3.434500	-10.408000	25.781426	0.000684	20.886848
1524.443614	-2.996500	3.433700	-10.288000	25.790490	0.000684	20.900219
1525.443926	-2.999000	3.434700	-10.299000	25.827904	0.000682	20.895602
1526.442785	-3.013200	3.432500	-10.341000	25.823881	0.000682	20.871648
1527.443821	-3.006600	3.433500	-10.322000	25.878258	0.000681	20.867004
1528.441600	-3.018000	3.432600	-10.359000	25.899396	0.000680	20.886341
1529.443444	-2.991400	3.430800	-10.261000	25.932135	0.000677	20.883196
1530.445492	-2.982700	3.433300	-10.239000	25.965916	0.000679	20.885839
1531.444944	-2.999800	3.432300	-10.295000	25.973813	0.000681	20.882868
1532.445341	-2.971500	3.431800	-10.196000	25.955306	0.000679	20.886085
1533.446557	-2.987100	3.431700	-10.249000	25.938589	0.000677	20.882093
1534.447042	-2.999100	3.430800	-10.289000	25.950309	0.000678	20.877746
1535.445287	-2.982700	3.431000	-10.232000	25.962155	0.000677	20.880638
1536.448822	-3.003100	3.430100	-10.300000	25.975345	0.000675	20.916172
1537.446869	-3.012900	3.428700	-10.329000	26.017817	0.000677	20.904316
1538.446442	-3.001200	3.427700	-10.287000	26.058746	0.000674	20.901342
1539.449818	-2.987300	3.429200	-10.243000	26.032916	0.000676	20.895305
1540.448803	-3.002000	3.428400	-10.291000	26.051519	0.000673	20.894082
1541.448979	-2.981200	3.429200	-10.222000	26.076253	0.000673	20.876261
1542.451165	-3.010200	3.426900	-10.315000	26.057522	0.000673	20.886838
1543.448138	-3.017400	3.426900	-10.339000	26.038519	0.000672	20.897142
1544.450646	-2.993900	3.426900	-10.259000	25.996940	0.000672	20.895670
1545.451161	-3.020800	3.425300	-10.345000	25.962707	0.000672	20.897787
1546.453950	-3.019800	3.424900	-10.341000	25.918068	0.000671	20.874754
1547.452745	-3.012000	3.423900	-10.311000	25.879014	0.000669	20.888151
1548.451788	-3.005300	3.425500	-10.293000	25.884233	0.000669	20.869687
1549.457367	-3.021100	3.424600	-10.345000	25.880427	0.000668	20.870131
1550.454894	-2.983300	3.424500	-10.216000	25.885370	0.000669	20.867510
1551.451749	-3.000700	3.423500	-10.273000	25.915179	0.000668	20.869955
1552.455530	-2.989600	3.425000	-10.238000	25.943744	0.000666	20.885849
1553.456980	-3.001800	3.424200	-10.277000	25.952635	0.000665	20.876290
1554.451768	-2.996800	3.423100	-10.257000	25.997841	0.000667	20.870498
1555.452599	-3.015200	3.422700	-10.318000	26.015377	0.000665	20.849711
1556.452560	-3.005800	3.422500	-10.285000	26.019673	0.000665	20.875364
1557.452569	-3.006400	3.421500	-10.285000	26.031570	0.000663	20.874515
1558.452347	-2.999200	3.421400	-10.261000	26.002533	0.000663	20.891332
1559.452626	-3.005300	3.420900	-10.280000	26.018875	0.000664	20.881199
1560.455544	-3.028000	3.419300	-10.352000	25.979482	0.000663	20.886191
1561.455463	-2.985400	3.421200	-10.212000	25.985790	0.000660	20.844642
1562.456603	-2.971300	3.419600	-10.160000	25.965123	0.000662	20.861810
1563.453379	-2.991000	3.419600	-10.227000	25.933551	0.000661	20.849532
1564.454267	-2.975800	3.419100	-10.174000	25.918102	0.000659	20.857719
1565.456645	-3.001200	3.419200	-10.260000	25.924161	0.000660	20.866176
1566.455480	-2.989900	3.419700	-10.223000	25.895971	0.000660	20.865832
1567.456059	-2.994700	3.418300	-10.236000	25.906700	0.000657	20.850059
1568.456856	-3.002200	3.419200	-10.263000	25.919421	0.000657	20.854304
1569.455876	-2.994400	3.417400	-10.232000	25.924018	0.000658	20.852283
1570.455635	-2.991400	3.417400	-10.221000	25.934700	0.000657	20.865385
1571.458641	-3.021300	3.417000	-10.323000	25.953902	0.000655	20.851012
1572.455299	-2.987700	3.416800	-10.208000	25.917887	0.000656	20.853236
1573.456161	-2.995300	3.415200	-10.228000	25.878290	0.000653	20.839062
1574.460701	-3.027200	3.414700	-10.336000	25.862966	0.000655	20.850221
1575.456282	-2.994100	3.415000	-10.223000	25.833652	0.000654	20.852542
1576.456910	-2.986000	3.416300	-10.198000	25.798453	0.000655	20.848004
1577.457335	-3.006400	3.414000	-10.263000	25.788941	0.000653	20.854096
1578.456500	-3.004500	3.413800	-10.256000	25.792814	0.000652	20.848977
1579.456962	-2.997900	3.413500	-10.233000	25.824865	0.000653	20.849404
1580.458452	-2.990300	3.413800	-10.208000	25.870257	0.000653	20.845217
1581.457185	-3.002300	3.412800	-10.246000	25.898551	0.000650	20.837606
1582.457049	-2.997500	3.413000	-10.230000	25.925907	0.000652	20.851336
1583.457350	-3.005700	3.412600	-10.257000	25.943768	0.000651	20.862167
1584.460133	-3.006700	3.412300	-10.259000	25.954079	0.000651	20.836966
1585.459115	-2.988800	3.411600	-10.195000	25.978945	0.000650	20.833972
1586.459634	-3.024700	3.409800	-10.313000	25.941339	0.000651	20.838391
1587.461183	-3.018600	3.410300	-10.292000	25.947104	0.000649	20.841812
1588.460486	-2.991700	3.410800	-10.204000	25.954010	0.000650	20.856810
1589.458822	-3.003800	3.410300	-10.242000	25.947181	0.000649	20.840466
1590.462444	-2.990700	3.408800	-10.194000	25.947285	0.000650	20.813545
1591.458391	-2.997900	3.408600	-10.217000	25.945446	0.000646	20.835405
1592.459517	-2.982300	3.409000	-10.166000	25.928409	0.000648	20.850531
1593.464479	-3.014200	3.408700	-10.274000	25.933082	0.000647	20.819665
1594.463973	-3.003400	3.409900	-10.240000	25.919669	0.000647	20.825630
1595.461727	-3.011800	3.408200	-10.263000	25.918601	0.000646	20.833566
1596.460851	-3.013700	3.407300	-10.266000	25.921784	0.000646	20.825859
1597.463592	-2.997400	3.407400	-10.212000	25.938251	0.000647	20.826280
1598.461681	-3.037700	3.403700	-10.337000	25.939598	0.000646	20.822892
1599.462768	-3.007900	3.407100	-10.247000	25.914362	0.000645	20.828359
1600.464407	-3.004000	3.406200	-10.231000	25.920451	0.000645	20.822148
1601.461986	-3.012600	3.405100	-10.257000	25.953637	0.000645	20.830357
1602.462711	-2.987800	3.405200	-10.173000	25.973859	0.000644	20.823173
1603.466077	-3.025900	3.404300	-10.300000	26.017377	0.000644	20.819954
1604.467135	-2.996300	3.404800	-10.201000	26.024508	0.000643	20.813368
1605.463156	-2.992400	3.404700	-10.188000	26.037151	0.000642	20.799518
1606.465742	-2.986400	3.405400	-10.169000	26.067381	0.000642	20.823727
1607.462202	-2.972400	3.403700	-10.117000	26.051534	0.000641	20.836254
1608.463469	-3.008100	3.404400	-10.240000	26.015667	0.000641	20.815391
1609.467053	-2.976100	3.404100	-10.130000	25.972498	0.000643	20.793831
1610.462725	-3.000300	3.403500	-10.210000	25.957420	0.000640	20.794804
1611.466194	-3.001400	3.403000	-10.212000	25.957470	0.000641	20.826622
1612.467448	-2.995500	3.401600	-10.188000	25.998955	0.000639	20.799075
1613.464526	-2.984200	3.402400	-10.153000	26.001262	0.000639	20.825574
1614.464827	-3.010200	3.400200	-10.234000	26.043511	0.000639	20.821555
1615.467905	-3.012700	3.400100	-10.242000	26.049199	0.000639	20.816839
1616.471349	-2.985100	3.402000	-10.154000	26.076073	0.000639	20.810176
1617.467062	-2.995600	3.399700	-10.183000	26.097435	0.000637	20.811251
1618.466840	-2.982800	3.400000	-10.141000	26.091698	0.000638	20.828720
1619.467848	-3.009200	3.398700	-10.226000	26.091150	0.000637	20.819634
1620.470087	-3.013800	3.397400	-10.238000	26.061740	0.000637	20.806206
1621.466231	-3.002900	3.398200	-10.203000	26.056080	0.000634	20.829916
1622.469961	-3.001800	3.398800	-10.202000	26.033598	0.000635	20.798319
1623.467424	-2.989500	3.398000	-10.156000	26.014323	0.000636	20.811670
1624.466554	-3.005300	3.396100	-10.206000	25.970556	0.000633	20.809423
1625.470739	-3.020000	3.396400	-10.256000	25.942213	0.000634	20.815562
1626.468086	-2.995300	3.396200	-10.171000	25.893896	0.000632	20.804006
1627.467220	-3.017800	3.395400	-10.245000	25.894516	0.000632	20.836397
1628.470850	-3.009400	3.396600	-10.221000	25.834473	0.000631	20.813539
1629.466289	-2.983700	3.396300	-10.131000	25.832039	0.000631	20.803033
1630.468841	-2.977500	3.396500	-10.111000	25.814822	0.000633	20.814187
1631.471852	-2.989000	3.394700	-10.146000	25.811564	0.000629	20.823717
1632.468719	-2.980800	3.396300	-10.122000	25.820585	0.000628	20.821872
1633.471886	-3.003300	3.394000	-10.192000	25.841477	0.000630	20.828634
1634.477669	-3.004200	3.393300	-10.193000	25.877176	0.000630	20.823245
1635.471548	-2.995500	3.394700	-10.167000	25.899011	0.000628	20.830481
1636.469846	-2.987000	3.394300	-10.138000	25.912998	0.000628	20.799014
1637.468391	-3.006800	3.393200	-10.202000	25.933691	0.000628	20.796569
1638.471002	-3.014000	3.393400	-10.226000	25.946458	0.000626	20.807025
1639.470135	-3.000000	3.392500	-10.177000	25.934881	0.000626	20.794446
1640.469432	-3.002400	3.392300	-10.183000	25.930908	0.000625	20.796144
1641.470663	-3.004000	3.392400	-10.189000	25.916502	0.000625	20.804431
1642.471802	-2.990400	3.391500	-10.141000	25.862843	0.000624	20.811218
1643.469723	-2.994000	3.392000	-10.154000	25.873872	0.000623	20.799538
1644.473353	-2.985400	3.391100	-10.123000	25.907732	0.000623	20.800362
1645.470330	-2.984000	3.392700	-10.123000	25.935952	0.000622	20.818280
1646.469103	-3.003400	3.391100	-10.183000	25.970926	0.000624	20.807425
1647.470166	-3.010600	3.388900	-10.201000	26.005823	0.000620	20.798862
1648.474613	-2.972300	3.390700	-10.078000	26.033991	0.000621	20.792075
1649.471253	-3.016700	3.387800	-10.217000	26.086746	0.000621	20.824692
1650.473892	-2.987400	3.389800	-10.126000	26.056816	0.000620	20.787508
1651.480292	-2.997500	3.388600	-10.156000	26.046335	0.000619	20.790727
1652.472493	-2.996700	3.388000	-10.152000	26.051479	0.000617	20.781197
1653.473989	-3.027900	3.387000	-10.254000	26.022094	0.000616	20.798614
1654.475192	-2.996600	3.387400	-10.150000	26.003142	0.000619	20.817980
1655.474354	-3.001500	3.387100	-10.166000	25.970504	0.000617	20.804155
1656.476380	-2.986700	3.385900	-10.112000	25.988959	0.000617	20.797567
1657.472633	-2.981700	3.387300	-10.099000	25.982354	0.000617	20.780974
1658.473828	-3.005000	3.386300	-10.175000	26.038293	0.000615	20.803036
1659.472980	-2.982800	3.386200	-10.100000	26.059930	0.000615	20.789688
1660.476987	-2.990000	3.385800	-10.123000	26.101408	0.000615	20.801966
1661.475947	-2.999300	3.385200	-10.152000	26.087997	0.000615	20.798449
1662.476153	-2.995600	3.384000	-10.137000	26.070539	0.000613	20.791339
1663.474520	-2.993900	3.384800	-10.132000	26.077791	0.000612	20.776814
1664.481782	-2.979900	3.384600	-10.085000	26.095081	0.000612	20.784230
1665.480083	-3.012400	3.382900	-10.190000	26.094510	0.000611	20.789820
1666.476311	-2.993900	3.383700	-10.130000	26.098091	0.000613	20.783935
1667.478859	-3.013900	3.382600	-10.194000	26.064240	0.000610	20.765569
1668.476222	-3.013300	3.382100	-10.190000	26.049863	0.000611	20.796643
1669.481225	-3.007200	3.382000	-10.168000	26.035881	0.000610	20.791130
1670.482850	-2.987000	3.381300	-10.099000	25.998002	0.000609	20.797644
1671.479626	-2.995100	3.381000	-10.125000	25.984319	0.000609	20.772990
1672.478573	-3.015300	3.380600	-10.193000	26.004440	0.000607	20.789412
1673.482610	-2.990800	3.382000	-10.114000	26.037628	0.000609	20.784825
1674.480066	-2.988200	3.381100	-10.102000	26.073447	0.000607	20.800425
1675.477369	-3.019000	3.378200	-10.197000	26.068704	0.000606	20.765787
1676.481882	-2.979100	3.380100	-10.067000	26.128813	0.000607	20.779243
1677.479926	-2.979400	3.380900	-10.072000	26.148906	0.000605	20.770509
1678.478694	-2.995700	3.378700	-10.120000	26.133066	0.000605	20.762652
1679.481148	-2.983100	3.378800	-10.078000	26.123408	0.000603	20.779976
1680.481730	-3.019300	3.377400	-10.197000	26.059381	0.000604	20.747410
1681.481453	-3.003700	3.377900	-10.146000	26.045821	0.000604	20.762710
1682.479628	-2.999000	3.377500	-10.128000	26.038076	0.000603	20.777688
1683.480711	-3.000800	3.377300	-10.134000	26.023199	0.000603	20.762741
1684.479267	-2.997300	3.376800	-10.121000	26.035000	0.000603	20.784081
1685.478859	-2.989800	3.376400	-10.094000	26.040222	0.000601	20.767516
1686.480923	-3.002600	3.376600	-10.138000	26.067247	0.000602	20.768591
1687.479588	-2.987600	3.377400	-10.089000	26.072913	0.000601	20.765275
1688.480594	-2.988000	3.375500	-10.085000	26.053839	0.000600	20.764128
1689.479795	-3.000600	3.375100	-10.125000	26.003469	0.000600	20.759039
1690.480700	-3.007100	3.375200	-10.148000	25.983227	0.000600	20.766678
1691.481155	-3.022400	3.372400	-10.192000	25.946418	0.000598	20.776638
1692.483572	-2.998900	3.373600	-10.116000	25.940933	0.000599	20.754058
1693.480618	-3.006700	3.374100	-10.143000	25.924364	0.000598	20.754008
1694.481411	-3.009300	3.373300	-10.149000	25.958025	0.000599	20.766962
1695.484141	-3.012600	3.372100	-10.157000	25.999559	0.000595	20.767439
1696.482105	-3.002500	3.373000	-10.127000	25.995611	0.000598	20.772956
1697.482347	-3.021200	3.371000	-10.183000	26.044596	0.000595	20.760531
1698.485350	-2.985600	3.372200	-10.067000	26.035432	0.000596	20.742788
1699.482256	-3.004800	3.371300	-10.130000	26.089359	0.000595	20.768049
1700.487347	-2.998100	3.371300	-10.107000	26.117596	0.000592	20.749005
1701.481270	-2.992400	3.371400	-10.088000	26.112288	0.000593	20.764534
1702.481382	-2.997700	3.371100	-10.104000	26.144549	0.000593	20.748112
1703.482314	-3.021800	3.369200	-10.181000	26.164244	0.000593	20.762213
1704.482813	-3.008500	3.369300	-10.136000	26.121232	0.000592	20.740329
1705.483484	-2.990300	3.370100	-10.077000	26.095876	0.000590	20.748517
1706.483279	-3.006900	3.368700	-10.129000	26.083708	0.000592	20.740559
1707.483861	-3.008800	3.369300	-10.137000	26.074344	0.000590	20.761022
1708.486462	-2.982500	3.370800	-10.053000	26.030930	0.000592	20.752964
1709.487549	-3.021700	3.367200	-10.174000	26.049286	0.000591	20.764769
1710.484594	-2.993900	3.369500	-10.086000	26.028500	0.000590	20.764273
1711.487129	-3.010500	3.368000	-10.138000	26.058530	0.000588	20.743236
1712.483101	-3.000200	3.367600	-10.102000	26.097127	0.000589	20.721324
1713.484075	-3.003100	3.367400	-10.111000	26.094225	0.000587	20.736901
1714.483555	-3.003200	3.367900	-10.114000	26.086378	0.000586	20.750828
1715.484437	-3.019900	3.365800	-10.163000	26.093463	0.000588	20.746092
1716.488039	-3.018100	3.364800	-10.155000	26.118445	0.000586	20.745116
1717.486153	-3.013500	3.364500	-10.137000	26.152772	0.000588	20.743099
1718.486698	-2.984800	3.365200	-10.044000	26.187147	0.000586	20.748717
1719.486639	-3.019100	3.364200	-10.155000	26.185038	0.000586	20.733320
1720.487454	-3.016300	3.363000	-10.142000	26.146866	0.000584	20.753760
1721.486979	-3.004300	3.364700	-10.106000	26.118534	0.000586	20.739990
1722.490290	-3.013900	3.363900	-10.137000	26.158320	0.000584	20.745828
1723.491382	-2.988600	3.363400	-10.051000	26.148167	0.000585	20.757438
1724.488401	-2.968200	3.363400	-9.982800	26.192945	0.000584	20.747430
1725.487290	-2.976200	3.364200	-10.012000	26.203998	0.000582	20.715862
1726.488335	-2.997100	3.362100	-10.076000	26.192254	0.000584	20.734407
1727.488744	-2.967900	3.363700	-9.982900	26.216047	0.000582	20.726548
1728.492234	-3.002500	3.361700	-10.092000	26.227248	0.000581	20.734485
1729.490829	-2.980500	3.361500	-10.018000	26.193503	0.000582	20.719540
1730.489313	-2.991800	3.360500	-10.053000	26.179942	0.000579	20.717767
1731.492129	-2.988700	3.361100	-10.043000	26.165912	0.000582	20.725956
1732.490258	-2.981900	3.360300	-10.020000	26.120390	0.000582	20.734268
1733.489225	-3.000300	3.360800	-10.083000	26.122256	0.000578	20.723814
1734.490594	-2.982300	3.361900	-10.024000	26.141973	0.000579	20.726557
1735.489938	-3.002600	3.359500	-10.086000	26.133556	0.000578	20.751765
1736.489655	-2.977900	3.359600	-10.004000	26.136511	0.000577	20.725810
1737.496472	-2.997200	3.358700	-10.066000	26.150744	0.000577	20.723516
1738.492360	-2.999000	3.358400	-10.071000	26.114289	0.000578	20.728137
1739.492155	-3.011500	3.358900	-10.115000	26.134105	0.000577	20.727186
1740.497268	-2.994300	3.357400	-10.052000	26.156734	0.000576	20.730483
1741.493391	-3.013200	3.356900	-10.114000	26.154353	0.000577	20.736626
1742.492917	-2.982600	3.357000	-10.012000	26.162597	0.000574	20.739694
1743.494228	-2.988700	3.357100	-10.032000	26.109153	0.000574	20.735305
1744.494574	-2.975000	3.356600	-9.985000	26.079448	0.000574	20.736278
1745.491585	-2.998700	3.356500	-10.064000	26.038965	0.000573	20.726423
1746.492612	-2.989900	3.356500	-10.035000	26.066806	0.000572	20.725946
1747.496250	-3.011600	3.355800	-10.105000	26.061124	0.000572	20.725453
1748.492537	-3.000800	3.356200	-10.071000	26.094679	0.000572	20.715070
1749.492911	-3.003000	3.354000	-10.071000	26.077592	0.000571	20.743896
1750.496219	-2.977000	3.355500	-9.988000	26.118795	0.000572	20.708955
1751.496274	-3.002200	3.353900	-10.068000	26.097760	0.000569	20.741875
1752.495389	-2.981600	3.354800	-10.002000	26.108688	0.000570	20.728199
1753.494815	-2.991300	3.354500	-10.033000	26.118227	0.000569	20.715972
1754.496222	-3.011200	3.352800	-10.095000	26.145202	0.000567	20.716998
1755.496542	-3.017000	3.353500	-10.115000	26.124137	0.000569	20.710530
1756.497022	-3.002000	3.352800	-10.063000	26.133327	0.000567	20.729249
1757.501144	-3.016700	3.352200	-10.111000	26.123470	0.000568	20.707489
1758.496773	-3.006900	3.351600	-10.077000	26.114554	0.000566	20.738835
1759.499188	-3.000500	3.351500	-10.055000	26.101442	0.000566	20.713331
1760.500021	-3.007400	3.351700	-10.079000	26.106732	0.000565	20.715327
1761.499619	-2.993800	3.352300	-10.035000	26.114581	0.000566	20.719896
1762.498196	-3.020700	3.350600	-10.120000	26.104147	0.000564	20.714627
1763.498487	-3.005700	3.349900	-10.067000	26.092007	0.000565	20.711438
1764.498734	-3.001300	3.350100	-10.053000	26.087387	0.000564	20.716753
1765.498240	-3.015300	3.347800	-10.093000	26.094861	0.000563	20.728056
1766.500542	-3.012000	3.349600	-10.089000	26.082446	0.000564	20.693769
1767.499064	-3.008300	3.348900	-10.073000	26.100600	0.000563	20.712959
1768.501662	-2.993000	3.349500	-10.025000	26.143690	0.000561	20.723066
1769.499992	-3.010300	3.348800	-10.080000	26.162966	0.000561	20.742910
1770.501416	-3.019900	3.347800	-10.109000	26.201634	0.000562	20.726289
1771.500751	-3.005800	3.347300	-10.061000	26.203719	0.000560	20.723168
1772.499769	-2.989600	3.346800	-10.005000	26.233892	0.000561	20.733101
1773.501238	-3.013000	3.344700	-10.076000	26.266202	0.000560	20.720050
1774.502059	-3.004800	3.346500	-10.054000	26.278071	0.000559	20.718228
1775.501193	-2.990100	3.346200	-10.004000	26.303771	0.000560	20.716554
1776.502367	-2.983900	3.347100	-9.985400	26.332156	0.000558	20.696242
1777.500901	-2.997700	3.346700	-10.031000	26.342736	0.000558	20.731533
1778.502754	-2.992900	3.346100	-10.014000	26.341198	0.000555	20.716709
1779.502300	-3.005200	3.344100	-10.049000	26.333748	0.000556	20.732457
1780.501726	-2.997700	3.345000	-10.025000	26.341071	0.000557	20.730808
1781.502277	-2.982300	3.345000	-9.974900	26.287341	0.000555	20.726596
1782.504827	-2.991900	3.343500	-10.002000	26.278873	0.000555	20.718560
1783.502755	-3.015400	3.343600	-10.081000	26.260348	0.000554	20.717961
1784.503647	-3.009600	3.341700	-10.056000	26.272070	0.000553	20.720732
1785.505287	-3.004900	3.342300	-10.042000	26.267127	0.000553	20.736628
1786.504435	-2.997300	3.341200	-10.012000	26.256750	0.000553	20.713870
1787.503799	-3.008900	3.340700	-10.051000	26.268200	0.000553	20.730594
1788.508986	-2.990800	3.342600	-9.996100	26.301329	0.000553	20.737809
1789.505664	-2.989200	3.341900	-9.988100	26.288639	0.000550	20.759196
1790.505633	-2.999200	3.340100	-10.016000	26.322387	0.000550	20.731471
1791.503854	-3.001300	3.341600	-10.027000	26.360701	0.000550	20.743899
1792.505343	-2.966400	3.341300	-9.910400	26.348388	0.000549	20.747171
1793.505313	-2.989200	3.341200	-9.985000	26.328298	0.000549	20.744525
1794.506863	-3.002200	3.339400	-10.025000	26.302081	0.000548	20.728133
1795.507381	-2.979200	3.340600	-9.951400	26.264558	0.000548	20.744478
1796.507619	-3.012100	3.339300	-10.057000	26.223237	0.000548	20.747524
1797.505566	-2.986400	3.339900	-9.973500	26.191894	0.000547	20.721717
1798.510190	-2.980600	3.339900	-9.954600	26.185516	0.000545	20.730482
1799.509412	-3.013200	3.338500	-10.057000	26.199401	0.000547	20.731158
1800.506029	-3.020700	3.336300	-10.077000	26.224708	0.000547	20.739045
1801.506344	-3.001500	3.337500	-10.016000	26.247581	0.000548	20.742591
1802.506370	-2.987800	3.337100	-9.969000	26.292281	0.000544	20.732509
1803.506344	-3.010800	3.336100	-10.042000	26.330975	0.000543	20.732515
1804.505968	-3.016700	3.336300	-10.063000	26.376020	0.000544	20.754079
1805.506728	-2.988500	3.336200	-9.970000	26.388711	0.000544	20.743601
1806.507552	-3.001200	3.335800	-10.011000	26.419175	0.000544	20.738658
1807.508193	-2.994900	3.335100	-9.987600	26.458506	0.000544	20.733144
1808.506611	-2.994100	3.335700	-9.986300	26.423153	0.000542	20.742656
1809.507662	-2.987300	3.334800	-9.960800	26.439217	0.000542	20.742680
1810.510065	-2.968000	3.336100	-9.900200	26.429067	0.000542	20.734374
1811.513417	-2.997200	3.334200	-9.992500	26.425268	0.000540	20.749049
1812.509855	-2.986900	3.335000	-9.961000	26.420307	0.000539	20.763504
1813.506033	-3.003200	3.332000	-10.006000	26.438234	0.000539	20.746908
1814.512791	-2.985900	3.332100	-9.948400	26.432551	0.000538	20.751628
1815.512073	-3.013500	3.332800	-10.042000	26.450329	0.000538	20.748160
1816.508962	-3.007200	3.331700	-10.018000	26.410631	0.000537	20.736234
1817.513720	-2.971100	3.332500	-9.899500	26.418873	0.000538	20.753053
1818.512118	-3.003100	3.331800	-10.005000	26.421732	0.000538	20.757823
1819.509895	-2.999400	3.332000	-9.992600	26.415553	0.000536	20.746396
1820.515644	-3.006100	3.331700	-10.015000	26.419798	0.000535	20.740706
1821.513751	-2.998400	3.329900	-9.982700	26.440358	0.000535	20.730550
1822.510007	-2.984100	3.331500	-9.940000	26.440707	0.000534	20.746074
1823.512558	-2.994000	3.329800	-9.968900	26.434626	0.000533	20.754662
1824.510525	-2.989600	3.330500	-9.955800	26.453919	0.000533	20.754138
1825.510475	-2.982800	3.329800	-9.931400	26.414316	0.000534	20.736144
1826.511023	-2.991000	3.329800	-9.958200	26.382884	0.000532	20.749598
1827.511027	-3.013000	3.328700	-10.027000	26.341515	0.000532	20.749747
1828.510271	-3.016500	3.329100	-10.041000	26.318052	0.000532	20.749400
1829.512450	-3.010400	3.328600	-10.019000	26.296891	0.000530	20.755635
1830.510326	-3.012200	3.327800	-10.023000	26.264511	0.000530	20.763398
1831.513155	-2.985900	3.328600	-9.938100	26.240177	0.000529	20.736098
1832.511493	-2.984100	3.327500	-9.928000	26.219265	0.000528	20.761077
1833.511968	-3.007100	3.328000	-10.007000	26.274642	0.000528	20.758406
1834.513235	-2.985800	3.326500	-9.930700	26.303123	0.000526	20.760476
1835.512088	-3.026400	3.325300	-10.063000	26.344046	0.000527	20.765568
1836.513022	-2.989200	3.326400	-9.943000	26.354975	0.000527	20.778448
1837.511742	-3.007800	3.325500	-10.001000	26.379014	0.000527	20.746183
1838.511802	-3.004900	3.324700	-9.989200	26.405035	0.000525	20.764276
1839.514237	-2.986900	3.327100	-9.936700	26.410252	0.000524	20.749604
1840.514026	-3.002000	3.324400	-9.979100	26.377599	0.000524	20.751399
1841.512887	-3.015400	3.323500	-10.021000	26.411840	0.000525	20.752623
1842.512971	-2.990200	3.325100	-9.940900	26.413977	0.000521	20.767573
1843.514670	-3.040400	3.321100	-10.096000	26.472030	0.000522	20.769498
1844.514865	-2.979200	3.323700	-9.900800	26.428781	0.000521	20.776288
1845.518198	-2.996500	3.322600	-9.955500	26.416984	0.000521	20.753051
1846.515444	-3.011700	3.321200	-10.001000	26.402658	0.000520	20.764731
1847.516081	-2.984500	3.321800	-9.911900	26.377682	0.000522	20.774242
1848.518682	-2.976300	3.322100	-9.886700	26.317145	0.000518	20.761291
1849.517890	-3.006500	3.321900	-9.986000	26.294600	0.000520	20.757126
1850.518294	-2.985400	3.321700	-9.915200	26.282953	0.000518	20.750162
1851.520385	-3.002000	3.320100	-9.966100	26.277590	0.000519	20.759946
1852.518163	-2.990600	3.320400	-9.928500	26.270488	0.000519	20.775095
1853.520288	-3.006100	3.320600	-9.980400	26.279629	0.000519	20.774797
1854.519467	-3.024700	3.318600	-10.037000	26.328496	0.000516	20.762268
1855.522558	-2.992500	3.318400	-9.929100	26.310645	0.000515	20.776570
1856.523068	-2.998100	3.318300	-9.947800	26.324676	0.000517	20.759376
1857.520463	-3.001300	3.318800	-9.958200	26.299195	0.000516	20.773598
1858.523026	-3.017000	3.317000	-10.006000	26.309627	0.000515	20.774125
1859.520743	-3.031300	3.316900	-10.053000	26.289666	0.000515	20.786307
1860.522446	-3.001700	3.317600	-9.956800	26.297561	0.000513	20.769585
1861.524233	-2.991100	3.317300	-9.921400	26.300096	0.000512	20.763123
1862.521518	-3.011700	3.315700	-9.985300	26.271540	0.000512	20.777100
1863.522146	-3.002400	3.317000	-9.957100	26.252562	0.000511	20.769408
1864.525036	-3.025200	3.314200	-10.025000	26.245213	0.000509	20.753962
1865.521630	-2.988500	3.316400	-9.909800	26.262002	0.000511	20.787429
1866.521491	-3.004500	3.315000	-9.957500	26.276974	0.000510	20.787776
1867.525599	-2.967700	3.316600	-9.841100	26.288720	0.000509	20.785830
1868.521458	-3.008400	3.314400	-9.969900	26.352317	0.000508	20.776725
1869.522115	-3.001900	3.314200	-9.948300	26.339875	0.000510	20.768488
1870.521826	-3.007300	3.314500	-9.966200	26.365077	0.000507	20.785282
1871.524259	-3.021500	3.313400	-10.010000	26.364260	0.000507	20.794418
1872.528739	-3.000500	3.313000	-9.939900	26.405378	0.000505	20.771732
1873.520689	-2.998800	3.312600	-9.932900	26.431226	0.000506	20.782539
1874.523744	-2.991800	3.312800	-9.911000	26.463748	0.000506	20.766864
1875.524710	-3.010300	3.310700	-9.965500	26.473236	0.000506	20.774503
1876.524053	-2.999700	3.312100	-9.934300	26.459281	0.000507	20.785607
1877.526646	-3.036500	3.310700	-10.052000	26.432641	0.000503	20.792022
1878.522364	-2.984600	3.311900	-9.883800	26.434303	0.000502	20.782787
1879.522905	-3.002700	3.312300	-9.944700	26.468121	0.000503	20.790225
1880.527441	-2.994100	3.309900	-9.908800	26.465716	0.000504	20.771212
1881.523779	-3.002900	3.309600	-9.937200	26.487465	0.000502	20.773632
1882.524854	-3.004800	3.309100	-9.941600	26.508714	0.000502	20.787879
1883.524417	-2.990900	3.311200	-9.902700	26.510924	0.000505	20.789152
1884.524080	-3.009700	3.309300	-9.958200	26.538928	0.000501	20.796438
1885.524555	-3.004000	3.307400	-9.934400	26.521302	0.000501	20.803851
1886.525187	-2.996600	3.309100	-9.915300	26.553255	0.000501	20.809891
1887.528221	-3.002600	3.307500	-9.929700	26.561696	0.000502	20.796091
1888.525981	-3.001600	3.307400	-9.926100	26.567184	0.000501	20.796866
1889.526861	-3.022000	3.307000	-9.992600	26.596597	0.000499	20.809364
1890.530390	-2.999700	3.308200	-9.922400	26.536745	0.000499	20.784287
1891.528361	-3.001100	3.307100	-9.924000	26.522819	0.000499	20.787832
1892.528821	-3.000900	3.306200	-9.920300	26.534535	0.000498	20.805773
1893.533089	-2.994600	3.305900	-9.897800	26.527955	0.000499	20.799633
1894.530922	-3.005700	3.306000	-9.934300	26.537288	0.000497	20.801902
1895.533226	-3.002300	3.305700	-9.922400	26.536221	0.000496	20.806045
1896.531703	-3.022400	3.303700	-9.983500	26.500374	0.000496	20.819324
1897.535156	-3.010200	3.304500	-9.945600	26.454113	0.000495	20.791319
1898.532862	-3.025200	3.304300	-9.995400	26.433208	0.000495	20.803972
1899.533145	-3.006600	3.303500	-9.930700	26.452874	0.000495	20.816151
1900.535201	-2.991000	3.304200	-9.881500	26.464491	0.000493	20.798905
1901.534485	-3.002800	3.303400	-9.917800	26.466055	0.000496	20.792890
1902.535486	-2.991200	3.302700	-9.878400	26.523062	0.000491	20.807517
1903.535809	-2.986700	3.302300	-9.861300	26.543691	0.000492	20.806442
1904.536434	-2.990300	3.301700	-9.871800	26.568962	0.000493	20.812404
1905.533179	-2.983100	3.303200	-9.852500	26.593613	0.000489	20.799726
1906.537226	-3.002900	3.300900	-9.910400	26.613997	0.000489	20.819269
1907.535907	-2.981700	3.301300	-9.841600	26.634377	0.000490	20.798505
1908.534524	-2.997200	3.299800	-9.889500	26.646912	0.000489	20.836709
1909.538658	-2.981700	3.300900	-9.840200	26.677917	0.000488	20.793438
1910.536614	-2.991600	3.300800	-9.873200	26.696533	0.000488	20.814050
1911.537040	-2.998200	3.299500	-9.891400	26.703460	0.000489	20.816272
1912.538917	-3.014000	3.299000	-9.941800	26.726840	0.000488	20.818915
1913.538926	-3.000900	3.299100	-9.899200	26.734636	0.000489	20.822959
1914.538380	-2.997400	3.299500	-9.888500	26.731782	0.000487	20.823409
1915.542202	-3.011400	3.296900	-9.926300	26.688561	0.000484	20.819786
1916.540257	-3.006900	3.297200	-9.913300	26.668503	0.000485	20.838026
1917.539220	-2.988000	3.298900	-9.856400	26.668256	0.000486	20.810278
1918.543866	-2.988300	3.297500	-9.853400	26.673321	0.000485	20.818689
1919.542706	-2.991700	3.297400	-9.863900	26.688287	0.000483	20.834208
1920.541231	-3.004700	3.296000	-9.901500	26.686323	0.000483	20.826545
1921.541828	-3.000500	3.297400	-9.892200	26.682997	0.000480	20.818934
1922.547193	-2.991200	3.297200	-9.861900	26.659689	0.000482	20.802614
1923.548579	-2.996400	3.295000	-9.872500	26.622302	0.000481	20.825720
1924.544193	-2.997300	3.295200	-9.875500	26.602861	0.000480	20.845058
1925.547488	-2.984700	3.295300	-9.834400	26.602368	0.000479	20.815165
1926.546709	-2.972200	3.295500	-9.794100	26.621035	0.000477	20.848154
1927.543442	-2.983000	3.293800	-9.824300	26.628554	0.000479	20.825841
1928.546725	-3.006900	3.295100	-9.907100	26.654424	0.000477	20.816287
1929.543206	-3.011700	3.292300	-9.913600	26.637022	0.000477	20.826294
1930.549781	-2.976400	3.294500	-9.803900	26.654347	0.000477	20.807675
1931.545022	-2.984800	3.292800	-9.827800	26.637145	0.000475	20.820728
1932.548933	-2.989500	3.292400	-9.841500	26.609514	0.000474	20.850323
1933.546454	-2.984700	3.292300	-9.824800	26.600972	0.000475	20.855485
1934.545672	-2.987400	3.291200	-9.830900	26.603654	0.000473	20.857707
1935.550520	-2.994100	3.290900	-9.852600	26.618800	0.000473	20.823622
1936.547058	-2.990500	3.291700	-9.842800	26.647177	0.000472	20.839821
1937.548130	-3.005600	3.289700	-9.886200	26.724026	0.000473	20.824146
1938.549913	-2.985500	3.291900	-9.826100	26.732145	0.000474	20.849378
1939.546282	-2.987200	3.289400	-9.825200	26.767115	0.000470	20.861776
1940.547202	-2.998000	3.289900	-9.861600	26.779429	0.000473	20.855191
1941.550519	-3.010000	3.289100	-9.899600	26.744999	0.000471	20.833852
1942.548954	-2.993100	3.289000	-9.843600	26.748800	0.000471	20.845259
1943.549823	-2.983100	3.289800	-9.812900	26.748902	0.000468	20.843939
1944.547951	-3.003900	3.288300	-9.874900	26.738991	0.000467	20.846303
1945.547924	-2.991200	3.287400	-9.831600	26.746463	0.000468	20.852867
1946.546539	-3.004900	3.287700	-9.878600	26.766320	0.000466	20.857184
1947.549265	-2.991000	3.286900	-9.830600	26.757708	0.000466	20.849948
1948.546882	-2.985800	3.288600	-9.818200	26.734201	0.000467	20.850022
1949.546000	-2.991000	3.286600	-9.829800	26.751555	0.000467	20.840443
1950.548817	-3.013700	3.286800	-9.904200	26.744879	0.000467	20.845110
1951.548882	-3.009900	3.285800	-9.889300	26.769945	0.000464	20.840440
1952.551075	-3.005800	3.285800	-9.875200	26.822070	0.000465	20.845907
1953.553728	-2.978300	3.285700	-9.783800	26.826585	0.000465	20.863722
1954.551180	-2.997200	3.284000	-9.841800	26.842073	0.000464	20.856536
1955.552661	-3.024100	3.284000	-9.929300	26.860541	0.000463	20.844286
1956.553773	-3.024000	3.282400	-9.925500	26.871211	0.000464	20.857385
1957.552849	-3.013900	3.283400	-9.894400	26.896897	0.000463	20.859979
1958.556397	-3.041700	3.281000	-9.977500	26.878830	0.000460	20.867416
1959.554721	-2.988200	3.284300	-9.813000	26.854781	0.000459	20.854615
1960.554206	-3.020200	3.282000	-9.909700	26.847880	0.000461	20.862848
1961.555701	-2.993300	3.282400	-9.823700	26.848974	0.000461	20.856363
1962.555715	-3.021000	3.280700	-9.909500	26.837706	0.000460	20.865895
1963.554044	-3.006600	3.280400	-9.861400	26.794792	0.000459	20.869688
1964.554176	-2.971400	3.282100	-9.750400	26.754709	0.000457	20.863527
1965.557400	-3.007200	3.279700	-9.860800	26.711046	0.000457	20.856614
1966.558598	-2.988000	3.280300	-9.800900	26.670013	0.000456	20.866096
1967.556280	-3.008600	3.280900	-9.869800	26.653108	0.000456	20.866645
1968.555823	-3.003300	3.279200	-9.847700	26.666955	0.000457	20.867763
1969.559346	-2.994800	3.278400	-9.816800	26.685778	0.000456	20.852548
1970.555203	-2.989300	3.279200	-9.801500	26.702380	0.000454	20.871609
1971.555657	-3.004900	3.277800	-9.849000	26.717842	0.000453	20.857283
1972.561347	-3.013100	3.278100	-9.876100	26.749691	0.000451	20.875077
1973.556175	-2.983000	3.278300	-9.777800	26.756145	0.000452	20.880143
1974.557470	-3.011600	3.278300	-9.871400	26.751182	0.000449	20.863775
1975.560418	-3.018700	3.275500	-9.886700	26.769797	0.000450	20.888178
1976.557457	-3.023600	3.275100	-9.902100	26.775879	0.000450	20.868216
1977.557199	-2.992900	3.277300	-9.807100	26.772873	0.000450	20.858082
1978.557285	-3.004700	3.276700	-9.844300	26.744503	0.000448	20.872232
1979.559404	-2.999900	3.275900	-9.826700	26.683540	0.000450	20.882538
1980.561357	-3.003700	3.275400	-9.837700	26.643523	0.000448	20.874553
1981.561421	-2.987900	3.276200	-9.788100	26.610035	0.000445	20.871234
1982.560492	-2.991300	3.274700	-9.793700	26.623569	0.000448	20.881045
1983.564142	-3.015300	3.274200	-9.870700	26.615523	0.000447	20.867267
1984.560098	-3.005700	3.273000	-9.837100	26.623815	0.000446	20.888879
1985.561730	-3.003100	3.274700	-9.833500	26.628384	0.000444	20.879722
1986.559568	-2.976800	3.274100	-9.745500	26.620415	0.000444	20.897314
1987.560701	-2.995100	3.274200	-9.805700	26.591597	0.000445	20.860760
1988.562366	-3.013400	3.272100	-9.858700	26.549638	0.000442	20.874057
1989.561108	-2.980500	3.271500	-9.749200	26.564264	0.000442	20.884965
1990.560543	-3.014500	3.270900	-9.859200	26.595324	0.000442	20.904807
1991.560982	-3.008900	3.271100	-9.841400	26.652917	0.000440	20.893003
1992.560426	-3.001000	3.271200	-9.815500	26.681317	0.000439	20.895002
1993.561330	-3.004600	3.271000	-9.827600	26.685935	0.000439	20.885895
1994.561238	-2.978600	3.271600	-9.744300	26.674320	0.000439	20.900769
1995.564167	-3.013800	3.269700	-9.851100	26.648456	0.000438	20.894209
1996.563564	-3.004900	3.268500	-9.819800	26.692668	0.000437	20.895507
1997.561726	-2.986200	3.270300	-9.765100	26.675544	0.000439	20.901051
1998.562573	-2.982300	3.270200	-9.751900	26.656703	0.000436	20.895861
1999.564284	-3.015900	3.268100	-9.855800	26.683537	0.000436	20.901026
2000.564618	-3.001600	3.269100	-9.811500	26.710149	0.000436	20.895538
2001.563669	-3.016700	3.267300	-9.856100	26.737007	0.000435	20.880816
2002.564509	-3.002300	3.267800	-9.809800	26.772902	0.000432	20.883239
2003.564456	-2.995400	3.266900	-9.783400	26.803654	0.000432	20.895191
2004.564737	-3.001100	3.268100	-9.807200	26.836273	0.000434	20.872989
2005.564031	-3.010800	3.265500	-9.830800	26.881617	0.000431	20.886813
2006.564523	-2.982100	3.266500	-9.738700	26.888666	0.000432	20.888684
2007.564822	-3.024100	3.265600	-9.873900	26.942649	0.000432	20.887965
2008.567061	-3.015000	3.264000	-9.839800	26.970940	0.000430	20.913567
2009.563644	-3.009100	3.265900	-9.826600	26.960022	0.000431	20.896425
2010.566170	-3.004800	3.264200	-9.807500	26.966823	0.000431	20.882877
2011.567421	-2.982800	3.264100	-9.735300	26.950989	0.000429	20.880231
2012.566405	-2.987600	3.262100	-9.744900	26.960592	0.000428	20.895576
2013.565701	-3.001200	3.262500	-9.789500	26.948856	0.000429	20.874768
2014.571890	-3.006000	3.262700	-9.806800	26.914857	0.000429	20.876140
2015.568469	-2.996200	3.262900	-9.775800	26.923073	0.000427	20.898151
2016.568182	-2.995000	3.262200	-9.769600	26.923292	0.000428	20.894104
2017.570030	-3.002600	3.261100	-9.790800	26.907365	0.000427	20.866237
2018.569653	-2.984200	3.261700	-9.732800	26.951639	0.000427	20.870928
2019.567833	-2.967500	3.262700	-9.680700	26.943522	0.000427	20.851387
2020.571875	-3.013100	3.260700	-9.824000	26.964937	0.000425	20.859645
2021.571878	-3.003000	3.259500	-9.787000	26.944588	0.000425	20.867631
2022.570024	-3.009000	3.259000	-9.804800	26.883932	0.000423	20.882502
2023.573413	-3.004100	3.259800	-9.790800	26.873357	0.000423	20.860965
2024.573014	-2.998900	3.259600	-9.773900	26.872013	0.000422	20.873838
2025.575859	-3.008700	3.259600	-9.806400	26.862086	0.000422	20.884718
2026.576289	-3.000100	3.259300	-9.776700	26.859081	0.000421	20.881696
2027.573682	-2.991300	3.258800	-9.745800	26.859500	0.000420	20.858412
2028.571626	-2.984700	3.258300	-9.723600	26.864909	0.000420	20.860531
2029.574537	-3.009600	3.257700	-9.803000	26.912240	0.000421	20.871613
2030.572859	-3.001600	3.256900	-9.773900	26.924996	0.000420	20.860258
2031.575169	-2.992900	3.257600	-9.748000	27.013511	0.000419	20.855861
2032.577782	-2.998600	3.257100	-9.764900	27.030756	0.000419	20.873676
2033.574779	-3.035500	3.254500	-9.878100	27.042296	0.000416	20.861575
2034.572194	-3.007700	3.255200	-9.789300	27.072415	0.000415	20.869580
2035.577994	-2.998000	3.254700	-9.756100	27.083829	0.000414	20.859722
2036.573386	-3.000500	3.255400	-9.766800	27.079188	0.000413	20.865486
2037.575097	-2.998900	3.252900	-9.753900	27.097776	0.000412	20.872325
2038.579553	-2.994300	3.255200	-9.746300	27.105787	0.000411	20.868529
2039.577573	-3.018200	3.253700	-9.818200	27.089012	0.000411	20.861615
2040.577797	-3.009100	3.252000	-9.785200	27.047375	0.000410	20.863837
2041.579494	-3.009800	3.251800	-9.786600	27.054866	0.000410	20.861888
2042.580197	-3.006200	3.251800	-9.774200	27.098142	0.000409	20.871746
2043.578542	-3.024200	3.251300	-9.831200	27.117647	0.000409	20.854380
2044.580403	-2.993400	3.250600	-9.729200	27.144048	0.000407	20.865759
2045.582920	-2.995400	3.251800	-9.739100	27.161913	0.000406	20.856226
2046.580138	-2.988600	3.250100	-9.712200	27.183793	0.000405	20.863059
2047.583676	-3.010600	3.249300	-9.782000	27.180197	0.000406	20.848064
2048.579431	-3.005900	3.249200	-9.765600	27.199898	0.000404	20.843698
2049.582810	-2.979500	3.249900	-9.682400	27.176521	0.000404	20.854798
2050.581836	-2.998200	3.249400	-9.741200	27.116529	0.000403	20.858470
2051.580178	-2.994300	3.249700	-9.729300	27.071765	0.000404	20.845693
2052.582603	-2.979800	3.248500	-9.679200	27.067944	0.000402	20.827152
2053.586596	-3.001400	3.246700	-9.743400	27.035437	0.000403	20.844246
2054.580923	-3.012100	3.246500	-9.777400	26.997393	0.000399	20.843447
2055.587677	-2.987700	3.248100	-9.703500	26.986971	0.000400	20.832492
2056.580743	-3.009500	3.246400	-9.769300	26.999800	0.000401	20.851082
2057.582711	-3.005100	3.246000	-9.753600	27.004318	0.000399	20.839505
2058.587807	-2.983900	3.247300	-9.688200	27.060967	0.000399	20.853800
2059.583741	-3.022400	3.246600	-9.811600	27.045707	0.000398	20.831342
2060.584394	-3.013200	3.243800	-9.773200	27.040570	0.000397	20.850357
2061.583982	-3.001300	3.245200	-9.738800	26.989477	0.000397	20.844968
2062.587531	-2.976600	3.244600	-9.656800	26.974089	0.000397	20.852728
2063.586203	-2.991600	3.243100	-9.700500	26.925670	0.000397	20.837704
2064.584601	-2.987000	3.244200	-9.689400	26.921772	0.000394	20.848008
2065.589532	-3.021500	3.242400	-9.796400	26.919217	0.000395	20.830741
2066.585539	-2.983700	3.243400	-9.675900	26.909931	0.000394	20.822826
2067.589357	-3.019700	3.242200	-9.790100	26.964406	0.000393	20.835405
2068.588762	-2.990100	3.242200	-9.693100	26.987809	0.000393	20.825748
2069.589228	-2.996400	3.241400	-9.711600	27.018404	0.000393	20.834230
2070.589924	-2.965700	3.242400	-9.614800	26.996614	0.000392	20.841714
2071.589889	-2.969500	3.241800	-9.624400	27.015846	0.000390	20.839244
2072.588957	-2.998600	3.239800	-9.713100	27.002518	0.000390	20.829634
2073.589879	-2.997600	3.241100	-9.714900	27.050610	0.000387	20.851919
2074.589826	-2.988500	3.240800	-9.682700	27.003067	0.000389	20.847255
2075.593952	-3.006900	3.239100	-9.738400	27.011378	0.000386	20.835225
2076.589998	-3.000900	3.240200	-9.722900	26.962514	0.000385	20.846303
2077.590725	-2.998700	3.238900	-9.711900	26.956381	0.000387	20.833025
2078.593627	-3.009900	3.238000	-9.745100	26.995692	0.000386	20.844580
2079.592739	-2.987700	3.238000	-9.672700	27.049368	0.000383	20.843558
2080.593470	-2.998700	3.236600	-9.704000	27.068474	0.000384	20.830056
2081.595936	-3.006100	3.237000	-9.730000	27.064030	0.000383	20.829380
2082.594491	-2.996300	3.236600	-9.696900	27.052638	0.000384	20.838785
2083.592901	-3.007000	3.235800	-9.729100	26.993208	0.000382	20.844453
2084.598186	-3.007800	3.235000	-9.729400	27.014124	0.000384	20.820917
2085.594207	-3.001700	3.234600	-9.707800	26.992237	0.000383	20.833046
2086.594106	-2.996900	3.233900	-9.689700	27.039436	0.000381	20.822665
2087.593668	-3.009200	3.235300	-9.734700	27.051867	0.000380	20.827105
2088.595590	-2.995800	3.234400	-9.688700	27.059309	0.000379	20.838857
2089.596470	-2.978500	3.233800	-9.630500	27.060625	0.000378	20.834016
2090.595440	-2.987800	3.233800	-9.660200	27.047075	0.000376	20.850261
2091.597727	-2.989400	3.233300	-9.664600	27.019504	0.000378	20.822060
2092.597636	-3.007200	3.232000	-9.717800	27.058314	0.000376	20.837382
2093.597758	-2.996000	3.233300	-9.684500	27.111019	0.000375	20.839653
2094.598653	-2.991500	3.231400	-9.665300	27.137395	0.000376	20.819240
2095.597201	-2.973900	3.232700	-9.611200	27.187712	0.000374	20.839501
2096.596959	-2.992500	3.232400	-9.672100	27.227264	0.000373	20.838032
2097.597579	-3.008900	3.229100	-9.714100	27.222229	0.000373	20.832020
2098.597768	-2.993500	3.229700	-9.667200	27.246714	0.000371	20.847639
2099.601159	-2.973400	3.230000	-9.603100	27.232548	0.000372	20.840028
2100.598547	-3.004600	3.229400	-9.702100	27.268971	0.000370	20.815974
2101.600280	-3.000100	3.228900	-9.685800	27.274751	0.000371	20.830322
2102.600939	-3.018400	3.226800	-9.738800	27.266811	0.000369	20.833241
2103.599091	-2.982700	3.228200	-9.627700	27.286908	0.000369	20.825482
2104.603631	-3.002400	3.227100	-9.688200	27.313527	0.000366	20.839929
2105.601564	-3.020300	3.226100	-9.743400	27.334664	0.000367	20.827177
2106.599326	-2.995800	3.226700	-9.666200	27.363859	0.000367	20.832715
2107.603555	-3.007300	3.225500	-9.698400	27.404622	0.000367	20.819194
2108.601210	-2.987400	3.226500	-9.637500	27.373490	0.000366	20.822014
2109.599280	-2.994300	3.226600	-9.661200	27.358977	0.000365	20.843449
2110.601395	-3.000500	3.226000	-9.678700	27.275395	0.000363	20.834289
2111.601371	-2.997700	3.223900	-9.663100	27.250683	0.000362	20.825553
2112.601597	-2.998000	3.224900	-9.667400	27.212302	0.000364	20.822510
2113.600144	-2.981000	3.223100	-9.607800	27.163472	0.000362	20.831243
2114.600453	-3.009300	3.224500	-9.702200	27.150001	0.000361	20.803469
2115.602705	-3.012200	3.224300	-9.710400	27.169850	0.000359	20.813476
2116.600344	-2.991200	3.223400	-9.640800	27.184119	0.000360	20.834940
2117.600617	-3.003400	3.222300	-9.676300	27.213020	0.000358	20.815171
2118.600958	-3.011700	3.222600	-9.703000	27.193221	0.000356	20.814697
2119.601100	-3.012400	3.221100	-9.702600	27.195606	0.000358	20.824682
2120.601158	-3.002000	3.220000	-9.665200	27.160742	0.000355	20.815695
2121.600565	-2.992600	3.220800	-9.637600	27.116553	0.000356	20.830046
2122.601178	-2.976100	3.219600	-9.580600	27.092460	0.000355	20.813876
2123.604119	-2.971800	3.221100	-9.571600	27.080451	0.000354	20.818868
2124.604085	-2.985700	3.218600	-9.607600	27.076532	0.000353	20.813504
2125.602530	-2.985000	3.220400	-9.612000	27.105044	0.000352	20.810411
2126.605114	-2.997700	3.218200	-9.646500	27.166254	0.000351	20.788049
2127.603495	-2.978800	3.217500	-9.583500	27.199602	0.000351	20.804520
2128.603518	-2.983700	3.219100	-9.603100	27.186452	0.000349	20.816897
2129.602984	-2.982900	3.216600	-9.594100	27.201069	0.000347	20.821642
2130.603160	-2.973300	3.217800	-9.566400	27.215309	0.000345	20.803249
2131.604923	-2.996400	3.215000	-9.632200	27.276393	0.000347	20.827707
2132.606187	-2.996700	3.215600	-9.635200	27.269797	0.000346	20.789778
2133.606741	-2.984700	3.216300	-9.598400	27.308052	0.000344	20.814508
2134.607288	-2.966000	3.215800	-9.537000	27.354618	0.000345	20.837168
2135.606226	-3.003800	3.214400	-9.654200	27.382254	0.000345	20.798589
2136.609515	-2.989300	3.216700	-9.612500	27.379552	0.000345	20.794448
2137.608852	-3.012500	3.213300	-9.677700	27.400562	0.000344	20.802307
2138.607225	-2.991800	3.213500	-9.612900	27.396646	0.000344	20.804533
2139.610794	-2.992700	3.212700	-9.613200	27.374691	0.000344	20.793825
2140.610088	-3.023100	3.210300	-9.704200	27.341746	0.000342	20.813789
2141.612686	-3.013300	3.211800	-9.677800	27.345893	0.000342	20.793779
2142.613210	-3.034200	3.210400	-9.739600	27.320391	0.000341	20.788039
2143.608011	-3.013300	3.209500	-9.670200	27.358370	0.000339	20.792580
2144.608429	-3.007600	3.211400	-9.657000	27.371666	0.000339	20.802636
2145.608693	-2.983800	3.210500	-9.577800	27.384669	0.000338	20.801492
2146.609353	-2.991300	3.210200	-9.601900	27.376084	0.000336	20.793804
2147.608040	-2.987100	3.211800	-9.591800	27.355222	0.000337	20.785619
2148.610895	-2.997800	3.207100	-9.613600	27.327243	0.000336	20.786397
2149.610024	-2.980300	3.208000	-9.559000	27.304019	0.000334	20.797650
2150.609560	-3.009500	3.206300	-9.646600	27.263435	0.000336	20.800922
2151.611753	-2.978600	3.208200	-9.555200	27.254556	0.000333	20.812854
2152.613695	-2.987400	3.207600	-9.581500	27.242842	0.000333	20.820511
2153.614436	-2.988700	3.207000	-9.583800	27.224608	0.000332	20.783205
2154.612706	-2.989200	3.207000	-9.585100	27.221062	0.000331	20.790544
2155.614796	-3.009300	3.204900	-9.643500	27.254457	0.000331	20.797582
2156.613204	-2.994200	3.204600	-9.593900	27.292097	0.000330	20.794191
2157.615304	-2.989600	3.206500	-9.584400	27.288572	0.000328	20.803448
2158.616645	-2.993300	3.203700	-9.587800	27.277561	0.000329	20.792846
2159.614275	-2.983000	3.204000	-9.556900	27.270762	0.000328	20.802128
2160.613575	-2.969300	3.202700	-9.508000	27.226131	0.000326	20.787581
2161.620156	-2.977300	3.203100	-9.534500	27.198789	0.000325	20.808918
2162.616006	-3.001700	3.201800	-9.609200	27.214071	0.000326	20.777822
2163.613088	-2.997100	3.201600	-9.594000	27.209382	0.000325	20.763148
2164.617690	-3.011800	3.199200	-9.634800	27.256972	0.000322	20.786834
2165.620583	-3.039700	3.201200	-9.729900	27.278803	0.000326	20.788406
2166.613855	-3.011300	3.199000	-9.632300	27.359827	0.000322	20.778873
2167.614867	-2.993400	3.201000	-9.580100	27.364217	0.000324	20.791824
2168.619099	-2.982300	3.200300	-9.543400	27.441838	0.000323	20.781244
2169.618726	-2.976100	3.200500	-9.524000	27.443600	0.000323	20.781594
2170.617075	-2.995300	3.200600	-9.586200	27.480635	0.000321	20.778551
2171.620336	-2.999300	3.197100	-9.587500	27.510643	0.000321	20.765119
2172.617259	-3.006700	3.197600	-9.612600	27.512750	0.000322	20.791421
2173.616881	-3.003100	3.196200	-9.597700	27.481568	0.000319	20.783283
2174.615428	-2.987700	3.198500	-9.555200	27.490871	0.000320	20.767037
2175.619628	-2.998200	3.197300	-9.584500	27.520857	0.000319	20.774447
2176.617691	-3.020700	3.195200	-9.649400	27.535069	0.000318	20.773099
2177.617369	-2.992400	3.194600	-9.558600	27.509047	0.000319	20.776790
2178.622493	-3.006800	3.194500	-9.604700	27.505006	0.000316	20.790268
2179.617627	-2.993800	3.194200	-9.562000	27.494708	0.000317	20.784649
2180.617854	-2.977800	3.196300	-9.516800	27.492253	0.000315	20.779808
2181.620728	-2.984500	3.193600	-9.529900	27.490066	0.000316	20.776660
2182.618353	-2.991800	3.191600	-9.547400	27.484904	0.000314	20.801812
2183.618313	-2.985100	3.192300	-9.527900	27.449951	0.000314	20.802682
2184.626314	-3.001400	3.192700	-9.580900	27.458832	0.000314	20.780323
2185.632314	-3.018200	3.190200	-9.627800	27.469869	0.000313	20.766296
2186.624313	-2.995700	3.189500	-9.553600	27.435984	0.000313	20.785786
2187.624313	-3.020600	3.189400	-9.632700	27.394305	0.000310	20.786056
2188.628371	-3.014400	3.190300	-9.616200	27.378551	0.000311	20.780165
2189.625158	-2.964500	3.189200	-9.453600	27.356574	0.000309	20.774177
2190.625154	-3.017900	3.187800	-9.619200	27.331888	0.000308	20.782061
2191.621238	-2.991600	3.188400	-9.537700	27.360961	0.000310	20.760572
2192.629166	-3.013600	3.187700	-9.604800	27.398270	0.000309	20.768707
2193.623137	-3.018500	3.186000	-9.614500	27.435501	0.000308	20.774868
2194.625681	-3.004300	3.187200	-9.573900	27.440109	0.000307	20.785194
2195.624389	-3.007900	3.189300	-9.591700	27.435199	0.000309	20.771245
2196.623995	-2.985200	3.188800	-9.518200	27.459454	0.000306	20.787587
2197.624359	-2.967200	3.185300	-9.450500	27.513082	0.000306	20.789384
2198.627724	-2.976000	3.186200	-9.481200	27.547657	0.000306	20.775333
2199.623723	-2.972300	3.186500	-9.470800	27.504023	0.000304	20.773157
2201.889699	-3.016300	3.182800	-9.598300	27.496384	0.000300	20.768791
2202.889699	-3.013800	3.182200	-9.588500	27.482615	0.000302	20.791448
2203.893744	-3.003000	3.184900	-9.561800	27.508705	0.000301	20.778816
2204.899777	-2.998100	3.184100	-9.543400	27.525396	0.000299	20.790394
2205.893281	-3.018200	3.181700	-9.601700	27.563516	0.000298	20.762840
2206.892382	-3.010500	3.184600	-9.585700	27.569818	0.000300	20.782458
2207.893395	-2.992400	3.182500	-9.522600	27.580758	0.000299	20.769758
2208.892293	-2.993900	3.181100	-9.522500	27.620487	0.000299	20.765636
2209.892764	-2.976100	3.180500	-9.463200	27.604117	0.000296	20.774295
2210.892194	-3.018200	3.181000	-9.599900	27.597741	0.000294	20.772621
2211.893826	-2.994800	3.180400	-9.524100	27.601185	0.000294	20.784621
2212.893449	-2.994100	3.180200	-9.520300	27.596968	0.000293	20.776111
2213.892458	-3.009700	3.178000	-9.563300	27.605133	0.000292	20.762515
2214.895009	-3.005700	3.180000	-9.557200	27.661775	0.000291	20.781103
2215.896505	-2.995800	3.177800	-9.519200	27.680103	0.000290	20.753552
2216.893250	-3.021000	3.175100	-9.590100	27.714527	0.000289	20.781082
2217.895581	-3.016800	3.175500	-9.578700	27.724025	0.000290	20.788743
2218.898168	-2.984900	3.175500	-9.477100	27.715294	0.000290	20.777112
2219.895555	-3.011000	3.173700	-9.554900	27.734018	0.000288	20.782204
2220.894879	-2.997000	3.174900	-9.514500	27.705328	0.000288	20.771351
2221.894329	-3.017300	3.173800	-9.575900	27.658206	0.000288	20.793633
2222.898278	-3.010900	3.172800	-9.552300	27.691414	0.000286	20.782479
2223.896467	-2.997600	3.173200	-9.511400	27.709221	0.000285	20.770526
2224.893554	-3.006200	3.174000	-9.541300	27.679810	0.000282	20.789294
2225.894120	-3.017700	3.173800	-9.576300	27.676339	0.000285	20.763990
2226.899889	-3.024300	3.170200	-9.586400	27.630558	0.000285	20.754432
2227.897978	-2.988600	3.173000	-9.481300	27.584972	0.000285	20.769730
2228.894330	-2.993500	3.170000	-9.487800	27.547250	0.000282	20.785355
2229.895451	-2.996600	3.169700	-9.497600	27.462842	0.000283	20.768236
2230.897218	-3.013400	3.167700	-9.545000	27.442801	0.000281	20.749495
2231.897703	-3.011700	3.168400	-9.541300	27.414347	0.000281	20.773501
2232.895370	-3.037100	3.166800	-9.616400	27.372303	0.000279	20.764870
2233.895542	-2.973500	3.167500	-9.417200	27.354667	0.000279	20.771784
2234.895243	-3.014700	3.167100	-9.545900	27.351986	0.000279	20.763398
2235.893608	-3.033900	3.165100	-9.601300	27.357569	0.000280	20.773755
2236.894845	-2.983100	3.166600	-9.445200	27.437521	0.000277	20.756512
2237.896868	-3.002600	3.166600	-9.506600	27.454735	0.000276	20.746802
2238.895859	-2.982000	3.166000	-9.440200	27.520120	0.000276	20.759955
2239.895274	-2.991700	3.164100	-9.464500	27.560947	0.000278	20.737495
2240.898367	-2.990900	3.162700	-9.458300	27.570397	0.000274	20.783989
2241.899232	-2.958800	3.163400	-9.358500	27.631734	0.000274	20.763677
2242.896479	-2.984500	3.163300	-9.439700	27.683841	0.000274	20.750202
2243.899494	-3.003900	3.162200	-9.497900	27.756653	0.000274	20.785067
2244.897769	-2.973800	3.162000	-9.401200	27.769202	0.000272	20.751228
2245.898921	-2.998300	3.159600	-9.471900	27.816169	0.000272	20.773365
2246.901312	-3.000700	3.160400	-9.482800	27.858272	0.000270	20.770694
2247.898763	-3.008400	3.159000	-9.502900	27.851011	0.000271	20.773343
2248.899331	-3.014000	3.159700	-9.522100	27.834519	0.000270	20.755322
2249.901164	-3.002400	3.157600	-9.479600	27.767813	0.000269	20.775909
2250.899238	-2.983000	3.159900	-9.425300	27.742373	0.000267	20.758368
2251.901294	-2.995500	3.157300	-9.456600	27.728139	0.000269	20.766804
2252.899804	-2.963400	3.156900	-9.354100	27.749588	0.000266	20.755672
2253.901029	-2.994200	3.158200	-9.455800	27.744852	0.000266	20.766553
2254.899517	-3.003800	3.154000	-9.473200	27.766156	0.000267	20.770449
2255.901298	-2.999900	3.155300	-9.463500	27.758048	0.000266	20.771298
2256.904367	-3.022000	3.152400	-9.524900	27.766824	0.000264	20.762586
2257.904022	-2.989000	3.155700	-9.431300	27.729799	0.000266	20.757095
2258.902403	-2.997400	3.154000	-9.451600	27.702397	0.000263	20.777884
2259.904449	-2.996400	3.152300	-9.445100	27.714795	0.000264	20.777084
2260.905502	-2.997000	3.151000	-9.442600	27.726452	0.000262	20.758942
2261.905354	-2.983400	3.151800	-9.401400	27.760699	0.000263	20.780130
2262.908263	-3.010800	3.149700	-9.480800	27.767841	0.000261	20.763609
2263.906453	-2.987000	3.151000	-9.410300	27.812997	0.000261	20.759267
2264.905777	-2.991600	3.150000	-9.423000	27.773941	0.000259	20.764533
2265.905710	-3.045700	3.147200	-9.583900	27.724792	0.000260	20.762487
2266.906794	-2.977200	3.148500	-9.372700	27.658849	0.000260	20.757770
2267.907877	-2.995700	3.145900	-9.422200	27.616169	0.000259	20.743272
2268.909038	-3.007100	3.145700	-9.457300	27.577925	0.000258	20.755526
2269.909205	-2.987000	3.145600	-9.394100	27.616267	0.000256	20.762338
2270.908865	-2.996100	3.146400	-9.426200	27.679782	0.000258	20.778361
2271.908539	-3.026500	3.143400	-9.511800	27.678169	0.000257	20.777685
2272.909132	-3.011700	3.143800	-9.467400	27.674919	0.000256	20.765881
2273.909464	-3.019900	3.142000	-9.487300	27.704087	0.000256	20.772947
2274.913446	-3.002300	3.141600	-9.431000	27.745277	0.000256	20.766507
2275.911806	-3.011400	3.142100	-9.461400	27.745379	0.000257	20.759971
2276.911997	-3.048700	3.140600	-9.573300	27.758695	0.000254	20.772423
2277.910579	-2.996900	3.140200	-9.410200	27.772485	0.000255	20.782982
2278.915746	-3.000500	3.139400	-9.417800	27.795546	0.000254	20.780112
2279.913984	-3.017400	3.139000	-9.470300	27.810571	0.000253	20.761093
2280.912552	-3.003200	3.138600	-9.425300	27.843304	0.000252	20.770328
2281.913276	-3.001500	3.136700	-9.413600	27.872091	0.000253	20.771800
2282.913668	-3.009800	3.135700	-9.436800	27.898477	0.000253	20.782235
2283.912818	-3.003000	3.136600	-9.418300	27.894929	0.000252	20.776768
2284.913659	-2.986500	3.136000	-9.364100	27.882681	0.000250	20.770130
2285.915998	-2.996900	3.134600	-9.393200	27.860366	0.000251	20.773749
2286.912593	-3.014700	3.133500	-9.445300	27.901599	0.000251	20.779687
2287.913445	-3.009600	3.134100	-9.431600	27.921610	0.000250	20.778965
2288.912413	-2.990800	3.133000	-9.368800	27.905965	0.000248	20.790720
2289.912269	-3.014300	3.131600	-9.438400	27.886348	0.000251	20.784726
2290.912328	-2.993500	3.131500	-9.373400	27.882807	0.000250	20.775473
2291.914295	-3.022200	3.131900	-9.464600	27.865031	0.000248	20.783660
2292.913208	-3.005600	3.129800	-9.406200	27.807673	0.000248	20.787574
2293.913402	-2.978600	3.130300	-9.322700	27.749401	0.000247	20.789149
2294.912407	-3.013900	3.128100	-9.426000	27.737224	0.000247	20.786378
2295.913855	-2.995500	3.127300	-9.367200	27.759471	0.000246	20.776997
2296.913462	-2.977200	3.127800	-9.311500	27.787220	0.000246	20.785483
2297.918443	-2.987800	3.127300	-9.342900	27.803513	0.000244	20.789078
2298.920445	-2.991300	3.127400	-9.354600	27.822158	0.000244	20.798359
2299.914839	-2.968200	3.126000	-9.277600	27.789970	0.000246	20.786353
2300.915342	-2.987300	3.125400	-9.335900	27.720684	0.000246	20.790596
2301.915897	-3.005900	3.124000	-9.390000	27.690454	0.000244	20.783883
2302.917695	-2.991400	3.123700	-9.343100	27.701963	0.000245	20.782188
2303.918166	-3.029100	3.120900	-9.452100	27.735737	0.000244	20.796735
2304.916681	-2.995800	3.123700	-9.356000	27.792720	0.000244	20.786276
2305.916912	-2.989700	3.122400	-9.333700	27.781067	0.000242	20.766488
2306.915162	-2.995500	3.120000	-9.344200	27.835245	0.000243	20.788296
2307.915866	-2.996400	3.120700	-9.348900	27.848089	0.000243	20.789843
2308.916283	-3.007000	3.118600	-9.376400	27.930902	0.000242	20.775042
2309.916140	-3.002200	3.118000	-9.360600	27.949844	0.000242	20.795055
2310.918006	-3.002700	3.118700	-9.363600	27.928965	0.000244	20.801068
2311.916232	-2.984600	3.118600	-9.307000	27.906701	0.000242	20.793831
2312.916265	-2.998100	3.116100	-9.341300	27.819516	0.000245	20.782424
2313.917492	-2.984500	3.115600	-9.297500	27.801536	0.000244	20.801787
2314.916945	-2.997900	3.115700	-9.339300	27.763939	0.000242	20.787184
2315.919647	-3.000700	3.114000	-9.343300	27.748914	0.000242	20.782969
2316.919867	-2.975000	3.113100	-9.259600	27.784842	0.000240	20.800160
2317.918377	-3.014900	3.112800	-9.383700	27.840458	0.000241	20.801604
2318.918915	-2.990900	3.111500	-9.305000	27.857071	0.000241	20.808366
2319.919275	-3.002100	3.109200	-9.333100	27.853946	0.000242	20.811384
2320.921464	-3.004800	3.110500	-9.345700	27.852452	0.000242	20.811304
2321.919459	-3.016200	3.108200	-9.374200	27.801745	0.000240	20.806265
2322.918459	-2.993500	3.109400	-9.306400	27.819790	0.000238	20.804036
2323.923766	-3.006200	3.108100	-9.342300	27.807987	0.000237	20.812072
2324.921041	-2.999200	3.107000	-9.316100	27.811732	0.000237	20.812996
2325.930232	-3.003600	3.104500	-9.322200	27.798213	0.000238	20.828788
2326.926912	-2.975300	3.104800	-9.236800	27.830072	0.000238	20.804901
2327.922854	-3.015500	3.103700	-9.357900	27.839670	0.000237	20.808397
2328.922838	-2.993000	3.103100	-9.286600	27.841478	0.000237	20.800733
2329.923727	-2.995800	3.103500	-9.296200	27.864809	0.000236	20.804300
2330.922066	-3.009600	3.101800	-9.334500	27.859153	0.000238	20.805719
2331.946149	-2.998800	3.100700	-9.297700	27.850525	0.000235	20.802726
2332.924410	-2.986500	3.100200	-9.257500	27.864926	0.000237	20.821487
2333.924436	-3.012600	3.097900	-9.331300	27.868520	0.000235	20.814672
2334.928857	-3.001700	3.098300	-9.298400	27.839258	0.000235	20.828370
2335.925550	-2.990800	3.097200	-9.262200	27.852129	0.000234	20.823306
2336.925010	-2.988600	3.097100	-9.253800	27.857653	0.000233	20.811323
2337.926739	-3.004800	3.095100	-9.299100	27.923408	0.000233	20.817759
2338.926215	-3.001000	3.094500	-9.284400	27.958465	0.000233	20.826018
2339.927480	-3.034400	3.094400	-9.388400	27.964860	0.000234	20.833403
2340.927171	-2.995600	3.095400	-9.271400	27.931835	0.000232	20.807749
2341.926730	-3.035700	3.092400	-9.386100	27.936368	0.000234	20.816104
2342.927949	-2.994300	3.091400	-9.255700	27.906513	0.000233	20.823514
2343.926161	-2.964400	3.091800	-9.164100	27.896968	0.000232	20.818649
2344.928102	-3.026100	3.089800	-9.348700	27.913106	0.000232	20.828253
2345.929484	-2.998600	3.090500	-9.265500	27.941399	0.000232	20.820220
2346.929594	-2.996800	3.088300	-9.254600	27.989470	0.000230	20.812655
2347.929750	-2.995800	3.088700	-9.252600	28.027625	0.000231	20.820716
2348.930200	-2.975600	3.087900	-9.187200	28.064314	0.000231	20.839629
2349.927713	-2.992300	3.086300	-9.234100	28.078642	0.000232	20.819913
2350.928997	-3.040800	3.082400	-9.371800	28.090417	0.000230	20.823707
2351.930858	-2.970400	3.084700	-9.161700	28.091110	0.000231	20.823930
2352.928832	-2.992000	3.082700	-9.222300	28.082034	0.000227	20.824277
2353.929260	-3.011100	3.081900	-9.278800	28.087117	0.000227	20.840298
2354.929969	-3.007200	3.080600	-9.262000	28.130499	0.000227	20.837029
2355.928361	-2.995300	3.079500	-9.223100	28.159627	0.000227	20.818463
2356.928370	-2.991500	3.079000	-9.209800	28.196240	0.000229	20.830193
2357.932311	-3.000900	3.079200	-9.239800	28.228835	0.000227	20.849257
2358.927521	-3.016800	3.076400	-9.279400	28.236592	0.000226	20.821032
2359.931635	-3.024900	3.075600	-9.302400	28.220358	0.000226	20.815119
2360.929779	-3.006000	3.076100	-9.245300	28.203280	0.000225	20.817366
2361.930901	-2.976900	3.075200	-9.154200	28.192669	0.000225	20.834658
2362.930778	-3.003900	3.074600	-9.234300	28.158786	0.000222	20.838479
2363.932025	-2.986000	3.072600	-9.173800	28.147606	0.000222	20.846664
2364.933909	-3.016200	3.072200	-9.264700	28.160719	0.000223	20.820512
2365.932324	-3.010600	3.070500	-9.243300	28.222863	0.000222	20.838978
2366.930370	-2.989700	3.069800	-9.176900	28.231094	0.000225	20.845368
2367.934191	-3.014200	3.068900	-9.248800	28.209775	0.000222	20.836233
2368.932167	-3.002700	3.067200	-9.207600	28.231442	0.000223	20.851882
2369.933129	-3.003200	3.066300	-9.206700	28.251443	0.000225	20.830769
2370.932965	-3.006100	3.066200	-9.216500	28.283667	0.000223	20.844246
2371.935768	-3.004000	3.065600	-9.208000	28.296013	0.000222	20.835814
2372.934344	-2.983700	3.064600	-9.142300	28.287090	0.000223	20.854804
2373.935018	-3.021400	3.062500	-9.252100	28.249639	0.000221	20.840806
2374.938037	-2.994200	3.062800	-9.169100	28.183825	0.000223	20.829074
2375.937477	-3.017700	3.060700	-9.234200	28.156736	0.000221	20.849691
2376.934938	-3.011900	3.060100	-9.214800	28.144712	0.000224	20.839009
2377.938354	-3.015300	3.058300	-9.220600	28.134298	0.000223	20.846068
2378.939363	-3.022000	3.056600	-9.235700	28.189852	0.000223	20.849840
2379.936992	-3.001000	3.056800	-9.171300	28.231245	0.000223	20.835089
2380.941411	-2.988900	3.056200	-9.133700	28.216673	0.000221	20.845074
2381.938399	-2.975000	3.054400	-9.085300	28.232064	0.000222	20.854404
2382.938321	-2.993000	3.054700	-9.142200	28.225719	0.000222	20.841854
2383.939504	-2.983500	3.052100	-9.104900	28.172999	0.000220	20.860373
2384.938897	-2.994600	3.050900	-9.135200	28.152940	0.000220	20.856301
2385.939473	-2.993500	3.050700	-9.131100	28.177062	0.000222	20.864937
2386.939469	-2.961700	3.051600	-9.036300	28.153190	0.000221	20.876939
2387.940070	-3.015100	3.046900	-9.185500	28.174310	0.000223	20.850788
2388.941168	-3.000900	3.048300	-9.146600	28.157228	0.000221	20.842127
2389.940813	-3.005500	3.045900	-9.153100	28.147116	0.000222	20.862291
2390.949447	-2.994800	3.044600	-9.117000	28.152842	0.000221	20.841978
2391.944146	-2.979800	3.043400	-9.067600	28.169548	0.000219	20.857373
2392.942297	-3.015800	3.043400	-9.175500	28.140245	0.000221	20.853952
2393.946555	-2.984400	3.041600	-9.075400	28.130530	0.000220	20.862189
2394.943475	-3.008400	3.040700	-9.145800	28.093197	0.000220	20.855427
2395.944983	-3.009800	3.038100	-9.143700	28.024402	0.000219	20.853506
2396.946946	-2.988800	3.039200	-9.082000	27.979131	0.000218	20.854879
2397.944549	-2.976200	3.037900	-9.040000	27.943280	0.000219	20.853407
2398.945053	-2.992900	3.036600	-9.086700	27.935244	0.000217	20.859542
2399.943040	-3.000800	3.035200	-9.106200	28.013940	0.000220	20.841553
2400.946482	-3.006600	3.033900	-9.120700	27.996690	0.000218	20.855009
2401.944380	-2.988800	3.032000	-9.061000	28.037372	0.000219	20.865613
2402.944041	-3.020200	3.029900	-9.149500	28.018158	0.000217	20.858126
2403.944114	-3.014500	3.029200	-9.130300	28.055444	0.000216	20.865312
2404.945686	-3.019100	3.027600	-9.139800	28.118339	0.000217	20.868408
2405.946259	-3.005700	3.027000	-9.097200	28.130708	0.000219	20.859998
2406.945274	-3.015500	3.026500	-9.125200	28.144964	0.000219	20.893313
2407.949518	-2.994100	3.025100	-9.056200	28.135049	0.000218	20.866264
2408.945654	-3.012300	3.025600	-9.113300	28.109390	0.000218	20.870779
2409.947565	-3.020800	3.021700	-9.127300	28.066995	0.000219	20.884051
2410.947126	-2.980400	3.021300	-9.003600	28.062882	0.000218	20.872325
2411.945947	-3.016300	3.020000	-9.108500	28.071585	0.000220	20.871603
2412.947094	-2.984600	3.020900	-9.014300	28.106785	0.000219	20.868157
2413.948299	-3.014700	3.019300	-9.100300	28.125127	0.000218	20.873345
2414.946216	-3.008200	3.016900	-9.074700	28.116252	0.000217	20.882901
2415.949113	-3.013100	3.016400	-9.087900	28.144487	0.000219	20.861541
2416.947546	-2.987600	3.015900	-9.009300	28.216968	0.000219	20.886620
2417.946999	-2.977000	3.015100	-8.974500	28.263343	0.000219	20.861715
2418.947490	-2.982400	3.012500	-8.983800	28.310584	0.000220	20.876561
2419.948443	-3.016300	3.011900	-9.083700	28.349740	0.000218	20.872366
2420.946873	-3.000800	3.009500	-9.029800	28.389471	0.000218	20.867801
2421.948699	-3.004400	3.008900	-9.039000	28.398814	0.000216	20.881950
2422.950246	-2.974900	3.008500	-8.947600	28.449742	0.000217	20.884869
2423.946665	-3.000600	3.006500	-9.020500	28.462431	0.000215	20.872517
2424.950013	-3.028600	3.005200	-9.101000	28.480147	0.000218	20.897469
2425.948469	-2.995600	3.004700	-8.999900	28.485970	0.000216	20.887212
2426.948462	-3.023700	3.003100	-9.079500	28.458291	0.000217	20.887788
2427.950397	-2.981100	3.003000	-8.951500	28.418120	0.000216	20.891907
2428.948463	-2.995900	3.000600	-8.988700	28.369349	0.000215	20.883100
2429.950346	-2.997300	2.999200	-8.988500	28.284978	0.000217	20.882074
2430.948540	-3.020800	2.997400	-9.052800	28.266218	0.000215	20.886419
2431.953482	-3.037500	2.995500	-9.097300	28.206604	0.000216	20.872393
2432.950551	-3.015900	2.994200	-9.030200	28.149222	0.000215	20.886694
2433.951172	-3.011800	2.993600	-9.015000	28.098079	0.000214	20.908228
2434.950345	-3.003700	2.992300	-8.985500	28.106561	0.000213	20.879784
2435.953392	-2.992600	2.991700	-8.952100	28.161643	0.000214	20.883552
2436.950647	-3.011900	2.989200	-9.002400	28.223811	0.000215	20.895405
2437.952592	-3.009500	2.988100	-8.991300	28.243766	0.000216	20.890366
2438.959971	-2.993200	2.986000	-8.937100	28.260253	0.000216	20.915971
2439.953263	-3.016500	2.986300	-9.006200	28.247137	0.000215	20.880010
2440.953731	-2.993600	2.984600	-8.934000	28.275372	0.000215	20.891367
2441.955524	-3.003200	2.982900	-8.957400	28.298894	0.000215	20.883282
2442.953684	-2.993400	2.980400	-8.920700	28.354686	0.000214	20.903896
2443.951915	-2.989300	2.981000	-8.909600	28.371090	0.000215	20.912826
2444.952813	-2.992700	2.978800	-8.914100	28.411195	0.000215	20.895839
2445.952082	-2.989200	2.976800	-8.897500	28.438527	0.000214	20.891593
2446.952491	-2.995600	2.975900	-8.913300	28.461824	0.000211	20.911258
2447.955414	-3.011600	2.974500	-8.956900	28.516543	0.000213	20.887181
2448.954209	-2.975600	2.975000	-8.851900	28.496371	0.000213	20.899108
2449.953780	-3.003300	2.970800	-8.921400	28.528190	0.000214	20.899384
2450.954010	-2.995100	2.970200	-8.895200	28.503757	0.000213	20.905597
2451.956401	-3.002500	2.967600	-8.909300	28.490896	0.000215	20.903077
2452.962111	-2.984100	2.969700	-8.860700	28.529529	0.000214	20.925385
2453.957381	-2.978000	2.968800	-8.839400	28.541893	0.000214	20.905597
2454.959306	-3.002800	2.964500	-8.900900	28.576955	0.000214	20.906294
2455.961086	-2.992300	2.963300	-8.865900	28.576659	0.000214	20.905996
2456.966907	-2.999400	2.961400	-8.880900	28.626908	0.000216	20.896861
2457.957107	-3.012200	2.960000	-8.915500	28.646853	0.000216	20.909362
2458.955812	-3.004600	2.958100	-8.887000	28.628098	0.000215	20.919395
2459.956675	-3.013600	2.957100	-8.908900	28.642022	0.000215	20.900704
2460.959253	-2.978300	2.958700	-8.810500	28.669326	0.000214	20.922987
2461.957253	-2.998300	2.954100	-8.856500	28.686621	0.000215	20.903899
2462.957446	-3.012100	2.952300	-8.891200	28.709094	0.000215	20.920842
2463.958992	-3.017800	2.950200	-8.902900	28.735449	0.000214	20.900924
2464.959018	-2.993600	2.949700	-8.828800	28.669052	0.000215	20.885256
2465.958190	-2.997300	2.949600	-8.839500	28.648539	0.000215	20.924809
2466.959897	-2.988800	2.946800	-8.806500	28.663182	0.000213	20.884559
2467.960955	-3.019400	2.944000	-8.888200	28.653588	0.000213	20.904766
2468.959599	-2.993200	2.942300	-8.806400	28.656563	0.000214	20.921038
2469.959445	-3.000900	2.941800	-8.826900	28.643779	0.000214	20.935660
2470.960502	-2.994300	2.940000	-8.802100	28.647570	0.000215	20.893964
2471.960083	-2.985300	2.940200	-8.776100	28.680547	0.000213	20.902049
2472.959345	-2.970000	2.937400	-8.723200	28.675046	0.000210	20.905042
2473.962637	-2.992700	2.936500	-8.787000	28.636369	0.000213	20.908761
2474.966778	-2.988600	2.933000	-8.764200	28.597590	0.000213	20.900524
2475.962270	-3.006200	2.930800	-8.809800	28.578936	0.000212	20.900230
2476.961555	-3.029300	2.929900	-8.875300	28.588349	0.000214	20.896434
2477.966496	-2.999300	2.928700	-8.783100	28.604529	0.000214	20.908934
2478.964714	-3.002900	2.927200	-8.788700	28.603784	0.000213	20.902969
2479.965352	-3.000300	2.926600	-8.779500	28.505366	0.000212	20.896787
2480.969646	-2.999000	2.923700	-8.766600	28.423484	0.000213	20.899204
2481.964998	-2.995900	2.923000	-8.755300	28.427574	0.000212	20.900003
2482.963421	-2.979900	2.921300	-8.704000	28.450723	0.000213	20.874953
2483.964483	-3.002400	2.917900	-8.759900	28.423860	0.000212	20.875876
2484.966360	-2.996700	2.916900	-8.740600	28.433175	0.000211	20.887153
2485.973252	-3.002400	2.916800	-8.756900	28.434739	0.000211	20.878770
2486.967810	-3.043900	2.911700	-8.861600	28.467203	0.000214	20.882539
2487.964770	-2.994200	2.913100	-8.722100	28.526452	0.000213	20.862548
2488.967248	-2.995400	2.911800	-8.720500	28.527073	0.000214	20.875975
2489.970009	-3.058400	2.906800	-8.888800	28.528237	0.000212	20.880940
2490.966397	-2.977700	2.908800	-8.661000	28.457909	0.000212	20.896412
2491.967395	-2.994100	2.907100	-8.703400	28.445516	0.000212	20.872554
2492.967386	-2.997100	2.903000	-8.699100	28.451022	0.000212	20.891373
2493.966238	-3.005700	2.903300	-8.725100	28.462766	0.000212	20.875700
2494.970453	-3.001200	2.899100	-8.700600	28.465640	0.000211	20.854888
2495.967373	-2.998300	2.899600	-8.693100	28.472358	0.000212	20.871609
2496.972152	-3.008500	2.896600	-8.713300	28.482790	0.000214	20.868365
2497.972720	-3.044100	2.894400	-8.809100	28.518002	0.000212	20.871107
2498.970723	-2.996500	2.893600	-8.669500	28.540724	0.000211	20.877869
2499.975337	-3.008500	2.891500	-8.698200	28.539487	0.000214	20.872830
2500.969094	-2.977000	2.889700	-8.601800	28.529326	0.000213	20.885356
2501.968812	-3.019300	2.887400	-8.717600	28.471019	0.000212	20.874528
2502.969227	-2.982300	2.887400	-8.609600	28.437013	0.000212	20.860673
2503.972430	-2.954900	2.885800	-8.526500	28.416273	0.000212	20.872031
2504.969556	-2.994800	2.881500	-8.628200	28.396641	0.000211	20.898727
2505.972459	-2.988900	2.882300	-8.613500	28.353196	0.000214	20.869682
2506.974349	-3.022600	2.878700	-8.700500	28.325437	0.000212	20.898154
2507.972173	-3.006900	2.877400	-8.650300	28.303948	0.000213	20.861820
2508.971519	-3.003500	2.875100	-8.634600	28.266098	0.000213	20.859747
2509.979454	-3.006600	2.871700	-8.633100	28.235736	0.000212	20.863317
2510.972993	-3.025400	2.869600	-8.680200	28.234692	0.000214	20.856577
2511.973009	-2.995700	2.869800	-8.596300	28.252911	0.000212	20.857850
2512.973678	-2.996600	2.866700	-8.589300	28.281146	0.000211	20.859725
2513.973629	-2.991100	2.865300	-8.569700	28.308134	0.000210	20.860819
2514.976865	-3.002900	2.864800	-8.602300	28.375919	0.000212	20.850838
2515.973572	-2.991800	2.860600	-8.557500	28.428581	0.000211	20.861665
2516.974055	-3.011800	2.859700	-8.612300	28.488579	0.000212	20.868030
2517.977861	-3.028200	2.856100	-8.648100	28.561406	0.000212	20.874042
2518.977185	-3.010300	2.856000	-8.596500	28.603009	0.000212	20.860466
2519.976706	-2.991000	2.854800	-8.537900	28.646564	0.000209	20.873986
2520.976429	-3.030900	2.851300	-8.639700	28.672828	0.000212	20.858241
2521.976665	-3.007600	2.850000	-8.569400	28.670130	0.000211	20.848411
2522.977417	-3.022600	2.846400	-8.602500	28.662499	0.000209	20.854950
2523.974657	-2.999700	2.844500	-8.531600	28.653425	0.000209	20.859561
2524.976389	-2.959400	2.845000	-8.417000	28.650078	0.000208	20.842440
2525.976013	-2.973700	2.842700	-8.451500	28.611723	0.000211	20.853596
2526.977267	-3.018400	2.839100	-8.568200	28.568139	0.000210	20.870866
2527.980293	-3.000200	2.838200	-8.513600	28.544722	0.000210	20.862930
2528.974098	-2.982400	2.833700	-8.450300	28.530597	0.000208	20.847283
2529.979061	-2.985800	2.832300	-8.455100	28.529480	0.000209	20.855167
2530.976933	-3.004900	2.830500	-8.503800	28.533345	0.000209	20.860956
2531.978366	-3.011200	2.827900	-8.513400	28.531191	0.000210	20.843614
2532.975853	-3.017800	2.824200	-8.522500	28.587962	0.000209	20.843890
2533.976925	-3.033600	2.821800	-8.559300	28.648515	0.000208	20.847978
2534.976655	-2.998800	2.821200	-8.459200	28.683280	0.000209	20.834156
2535.980547	-3.002000	2.817300	-8.457200	28.672822	0.000210	20.833580
2536.975381	-2.999000	2.817200	-8.447800	28.671062	0.000208	20.848876
2537.977043	-3.025700	2.815100	-8.517300	28.712910	0.000209	20.867792
2538.978047	-3.031900	2.811200	-8.522500	28.717297	0.000207	20.837599
2539.981968	-2.979200	2.809500	-8.369200	28.784955	0.000208	20.845533
2540.985947	-3.016300	2.806000	-8.462600	28.830837	0.000208	20.846233
2541.979554	-3.015900	2.802900	-8.452300	28.836707	0.000209	20.854516
2542.981694	-3.008400	2.802700	-8.430600	28.856799	0.000208	20.868117
2543.980171	-3.021500	2.798300	-8.454700	28.912488	0.000207	20.863054
2544.980197	-3.008800	2.796500	-8.413100	28.953061	0.000207	20.849877
2545.982836	-3.022400	2.793000	-8.438200	28.897030	0.000206	20.847008
2546.981288	-2.994000	2.791300	-8.356400	28.865966	0.000207	20.846534
2547.988700	-2.975400	2.791500	-8.304700	28.823383	0.000207	20.829716
2548.982473	-2.994800	2.786900	-8.345600	28.750202	0.000207	20.853673
2549.981217	-3.008600	2.783100	-8.372400	28.678871	0.000210	20.841095
2550.981530	-2.964300	2.782600	-8.247500	28.614748	0.000208	20.848582
2551.983492	-2.978900	2.778500	-8.274300	28.580060	0.000207	20.832139
2552.983027	-3.003800	2.776900	-8.340400	28.573518	0.000207	20.835507
2553.981390	-2.980200	2.774600	-8.267400	28.563683	0.000207	20.834138
2554.984575	-2.974100	2.771700	-8.243000	28.604369	0.000206	20.819163
2555.981274	-2.995500	2.766900	-8.287200	28.600630	0.000208	20.839105
2556.979895	-3.001500	2.764700	-8.297200	28.600356	0.000207	20.822709
2557.979796	-2.992700	2.761900	-8.265400	28.639188	0.000207	20.842852
2558.980218	-2.959400	2.759700	-8.166000	28.659434	0.000207	20.831475
2559.980745	-3.009400	2.756200	-8.293500	28.713992	0.000207	20.834745
2560.981174	-2.982200	2.755500	-8.216500	28.727127	0.000206	20.829009
2561.982524	-3.007500	2.750100	-8.269800	28.683221	0.000208	20.840261
2562.981948	-2.964300	2.748700	-8.146700	28.637459	0.000209	20.824989
2563.980951	-2.986400	2.745200	-8.197200	28.633326	0.000207	20.819405
2564.986586	-3.041400	2.738600	-8.328400	28.623462	0.000209	20.829858
2565.982235	-3.009000	2.737400	-8.235700	28.681270	0.000209	20.826917
2566.982594	-3.004600	2.734900	-8.216600	28.698242	0.000208	20.818881
2567.984454	-3.004900	2.730800	-8.204800	28.732437	0.000207	20.831038
2568.983475	-3.020700	2.728600	-8.240500	28.759936	0.000209	20.829814
2569.983047	-2.990800	2.723800	-8.145300	28.830341	0.000209	20.812069
2570.986240	-3.000600	2.721100	-8.163600	28.886628	0.000208	20.811874
2571.997005	-2.990300	2.718400	-8.127900	28.948311	0.000209	20.813799
2572.984199	-2.980100	2.714700	-8.089700	28.917347	0.000207	20.819113
2573.985237	-2.999800	2.711600	-8.133000	28.893070	0.000207	20.809829
2574.986233	-2.993200	2.707900	-8.104200	28.867334	0.000208	20.811403
2575.991567	-2.994500	2.704600	-8.096900	28.858988	0.000207	20.803944
2576.988506	-2.989000	2.701800	-8.073500	28.874690	0.000207	20.810752
2577.983693	-3.000400	2.696800	-8.091100	28.878852	0.000205	20.808307
2578.982850	-2.995400	2.693500	-8.067100	28.909005	0.000207	20.822562
2579.983884	-2.995800	2.689700	-8.057000	28.937862	0.000206	20.830772
2580.985818	-2.995200	2.686500	-8.046200	28.993617	0.000208	20.808710
2581.988504	-2.984100	2.683200	-8.006100	29.022450	0.000206	20.823535
2582.983605	-3.028500	2.676500	-8.104100	29.042735	0.000207	20.819792
2583.985462	-3.005000	2.674400	-8.035600	29.005284	0.000206	20.819042
2584.988190	-2.983900	2.671500	-7.970200	28.984826	0.000208	20.828776
2585.986185	-2.996300	2.666800	-7.989400	28.986930	0.000207	20.810507
2586.986147	-3.012000	2.661200	-8.014800	28.982227	0.000211	20.830899
2587.988185	-2.992500	2.657100	-7.950800	29.025252	0.000209	20.833471
2588.985651	-3.015500	2.653900	-8.002000	29.015419	0.000206	20.803649
2589.987889	-3.005900	2.649900	-7.964700	29.042022	0.000207	20.804374
2590.987733	-3.022400	2.645600	-7.995400	29.075532	0.000205	20.814905
2591.988785	-2.998300	2.640800	-7.917000	29.099211	0.000207	20.795616
2592.987592	-3.014200	2.636900	-7.946700	29.135989	0.000206	20.817028
2593.991776	-2.989800	2.632600	-7.869800	29.140746	0.000207	20.802382
2594.986462	-2.984700	2.628400	-7.843800	29.181188	0.000207	20.792400
2595.988590	-2.979100	2.623200	-7.813600	29.218907	0.000207	20.811443
2596.989915	-3.027100	2.617500	-7.922700	29.223092	0.000205	20.816135
2597.991708	-3.028900	2.611800	-7.909200	29.242162	0.000208	20.799317
2598.989441	-2.996300	2.609000	-7.816200	29.294343	0.000207	20.810179
2599.992889	-3.000900	2.603400	-7.811600	29.270619	0.000206	20.777261
2600.989520	-3.013200	2.597200	-7.824300	29.225454	0.000207	20.818989
2601.989350	-3.013100	2.593000	-7.811700	29.212231	0.000207	20.810405
2602.994485	-3.032300	2.587100	-7.843800	29.212083	0.000207	20.807885
2603.992443	-3.024300	2.580600	-7.804000	29.237343	0.000208	20.807262
2604.992828	-3.016900	2.576600	-7.771400	29.276496	0.000207	20.780812
2605.990641	-2.983700	2.571700	-7.672000	29.250496	0.000207	20.800603
2606.995395	-3.003000	2.566500	-7.706500	29.248491	0.000208	20.804272
2607.992077	-2.995300	2.560300	-7.667900	29.265779	0.000208	20.797987
2608.990505	-3.011600	2.553800	-7.690100	29.317581	0.000208	20.812261
2609.993330	-3.020000	2.548600	-7.695400	29.342341	0.000209	20.802127
2610.992998	-3.025600	2.542100	-7.690700	29.370100	0.000208	20.801182
2611.994098	-2.971400	2.537600	-7.539100	29.383697	0.000207	20.803506
2612.997993	-2.996700	2.531900	-7.586100	29.316148	0.000211	20.814136
2613.994422	-3.012700	2.525100	-7.606300	29.316994	0.000211	20.801712
2614.994397	-3.019400	2.518200	-7.602000	29.311745	0.000208	20.811595
2615.995605	-3.011300	2.512800	-7.565000	29.267224	0.000210	20.802289
2616.997352	-2.997700	2.507800	-7.516800	29.202666	0.000209	20.819733
2617.999594	-3.022900	2.499600	-7.555300	29.131443	0.000210	20.797274
