LabVIEW Measurement	
Writer_Version	2
Reader_Version	2
Separator	Tab
Decimal_Separator	.
Multi_Headings	No
X_Columns	One
Time_Pref	Absolute
Operator	admin
Description	Clolumns are: time, Current, Voltage, Power, Battery Temp, and Chamber Temp
Date	2024/08/16
Time	13:06:06.104549407958984375
***End_of_Header***	
	
Channels	6						
Samples	1	1	1	1	1	1	
Date	2024/09/08	2024/09/08	2024/09/08	2024/09/08	2024/09/08	2024/09/08	
Time	12:46:05.8591313362121582031	12:46:05.8652615547180175781	12:46:05.8701357841491699219	12:46:05.8440365791320800781	12:46:05.8440365791320800781	12:46:05.8440365791320800781	
X_Dimension	Time	Time	Time	Time	Time	Time	
X0	0.0000000000000000E+0	0.0000000000000000E+0	0.0000000000000000E+0	0.0000000000000000E+0	0.0000000000000000E+0	0.0000000000000000E+0	
Delta_X	1.000000	1.000000	1.000000	1.000000	1.000000	1.000000	
***End_of_Header***							
X_Value	Untitled	Untitled 1	Untitled 2	Untitled 3	Untitled 4	Untitled 5	Comment
0.000000	0.009976	4.091100	0.040724	20.973831	0.000904	20.783709
1.001289	-3.007700	3.918800	-11.785000	20.993595	0.000905	20.783087
2.004097	-3.025500	3.912100	-11.834000	20.983732	0.000906	20.799775
3.003238	-2.985600	3.907700	-11.666000	20.986010	0.000904	20.788303
4.002145	-2.991100	3.905400	-11.680000	20.998478	0.000904	20.769004
5.005174	-2.988500	3.902500	-11.661000	20.985247	0.000900	20.806032
6.002853	-2.977900	3.898100	-11.607000	20.995904	0.000901	20.804837
7.003735	-2.997400	3.896000	-11.677000	21.003545	0.000902	20.795409
8.004717	-3.007400	3.894300	-11.711000	21.013574	0.000901	20.787423
9.006409	-3.018200	3.891600	-11.745000	21.011475	0.000900	20.807134
10.008461	-3.009800	3.889300	-11.705000	21.008255	0.000899	20.795379
11.005275	-3.011800	3.888800	-11.711000	21.010767	0.000899	20.796944
12.005090	-2.990100	3.886900	-11.621000	21.019005	0.000897	20.795700
13.010018	-2.994600	3.886900	-11.639000	21.028985	0.000898	20.799517
14.004902	-3.006000	3.885900	-11.678000	21.031256	0.000899	20.794677
15.005652	-2.983600	3.885100	-11.589000	21.057926	0.000895	20.802861
16.005528	-3.016700	3.882500	-11.711000	21.015182	0.000896	20.808471
17.008722	-3.024400	3.882300	-11.738000	21.044530	0.000897	20.800367
18.005273	-3.012300	3.879400	-11.685000	21.058598	0.000898	20.790256
19.009135	-3.006600	3.879500	-11.662000	21.040953	0.000894	20.810540
20.004174	-2.993300	3.878600	-11.609000	21.071065	0.000895	20.805571
21.008766	-3.006200	3.877700	-11.656000	21.070240	0.000895	20.811384
22.010346	-3.013200	3.876000	-11.678000	21.070265	0.000893	20.812357
23.007249	-2.997900	3.875900	-11.619000	21.085163	0.000895	20.792172
24.012665	-2.993400	3.875300	-11.598000	21.088629	0.000892	20.812708
25.007745	-2.985700	3.875700	-11.571000	21.092969	0.000893	20.806618
26.013221	-3.007300	3.872100	-11.643000	21.106286	0.000893	20.821360
27.011365	-2.976500	3.873600	-11.528000	21.111801	0.000890	20.815972
28.010521	-2.991500	3.871700	-11.581000	21.132880	0.000890	20.828522
29.012258	-3.010200	3.872100	-11.654000	21.100899	0.000891	20.814076
30.013981	-3.007200	3.870600	-11.638000	21.135053	0.000888	20.804617
31.010219	-3.003400	3.870500	-11.623000	21.127414	0.000890	20.809304
32.011731	-2.978400	3.872200	-11.532000	21.135066	0.000888	20.842562
33.011317	-3.008800	3.868400	-11.638000	21.149015	0.000889	20.797247
34.012268	-3.011800	3.868500	-11.649000	21.128282	0.000888	20.823448
35.012085	-3.003200	3.867600	-11.613000	21.158717	0.000887	20.828762
36.011461	-3.007000	3.867700	-11.630000	21.166696	0.000888	20.825838
37.011382	-3.004700	3.867100	-11.619000	21.174409	0.000886	20.817432
38.011148	-3.002700	3.865900	-11.607000	21.173806	0.000887	20.824415
39.014603	-3.012100	3.865300	-11.641000	21.186302	0.000888	20.817950
40.019527	-3.009900	3.866200	-11.636000	21.181469	0.000888	20.822599
41.010531	-3.024000	3.863300	-11.682000	21.209158	0.000888	20.830856
42.014753	-2.995400	3.866100	-11.580000	21.212298	0.000886	20.843005
43.014756	-2.983500	3.865500	-11.532000	21.202147	0.000887	20.826213
44.021790	-2.977800	3.865600	-11.509000	21.216583	0.000890	20.822162
45.016393	-2.996700	3.864400	-11.580000	21.219555	0.000886	20.827981
46.015053	-2.998600	3.861700	-11.579000	21.232230	0.000884	20.822168
47.013893	-3.006800	3.863100	-11.614000	21.222202	0.000886	20.843904
48.013438	-3.002400	3.862400	-11.595000	21.250832	0.000886	20.814225
49.014698	-3.016300	3.862300	-11.648000	21.260914	0.000886	20.813406
50.020358	-2.982600	3.862300	-11.518000	21.273434	0.000886	20.838733
51.015054	-3.022500	3.861100	-11.668000	21.268196	0.000887	20.823535
52.019336	-2.993600	3.861300	-11.558000	21.283689	0.000887	20.856103
53.014329	-2.980500	3.860900	-11.507000	21.289998	0.000884	20.825432
54.013534	-2.989400	3.861100	-11.541000	21.286680	0.000884	20.844872
55.015716	-2.983800	3.860300	-11.517000	21.296713	0.000885	20.814132
56.015229	-2.985000	3.860800	-11.523000	21.292343	0.000887	20.815924
57.016459	-3.021200	3.860000	-11.660000	21.329607	0.000885	20.840876
58.015663	-3.008300	3.860200	-11.611000	21.321248	0.000886	20.822557
59.016734	-3.004600	3.857600	-11.589000	21.343351	0.000886	20.826651
60.017836	-2.990700	3.859400	-11.541000	21.332549	0.000888	20.847138
61.016285	-2.995700	3.857500	-11.555000	21.360086	0.000885	20.859989
62.016381	-3.018400	3.856600	-11.640000	21.362209	0.000886	20.843148
63.018449	-2.995800	3.857300	-11.555000	21.340827	0.000888	20.834084
64.016623	-2.983700	3.858400	-11.512000	21.371725	0.000885	20.841763
65.020344	-3.007300	3.856600	-11.596000	21.391857	0.000887	20.852896
66.016780	-2.994400	3.856200	-11.546000	21.385869	0.000885	20.837896
67.020052	-3.004900	3.857300	-11.589000	21.391125	0.000886	20.846000
68.017883	-2.995900	3.855600	-11.550000	21.393975	0.000886	20.840790
69.017277	-2.998700	3.854900	-11.558000	21.406069	0.000885	20.840088
70.019622	-3.014700	3.856300	-11.624000	21.414821	0.000888	20.856905
71.016680	-2.987700	3.855100	-11.517000	21.442608	0.000889	20.841086
72.019048	-3.004600	3.853800	-11.579000	21.445446	0.000889	20.843451
73.016183	-3.003800	3.855200	-11.578000	21.445470	0.000888	20.843002
74.019080	-3.025400	3.853600	-11.658000	21.442178	0.000887	20.843500
75.020693	-2.980100	3.856300	-11.490000	21.452874	0.000889	20.877435
76.016217	-3.018100	3.852300	-11.625000	21.471558	0.000887	20.866733
77.018429	-3.019700	3.852800	-11.633000	21.476771	0.000888	20.839233
78.017112	-2.985700	3.853300	-11.503000	21.474550	0.000887	20.839381
79.018205	-3.040500	3.851600	-11.709000	21.490987	0.000889	20.858198
80.020575	-3.001800	3.853600	-11.566000	21.497566	0.000887	20.868100
81.022694	-3.005200	3.853100	-11.578000	21.512933	0.000886	20.895802
82.018502	-3.003200	3.851500	-11.566000	21.517400	0.000887	20.884152
83.018450	-3.002500	3.852900	-11.567000	21.534810	0.000888	20.884503
84.019350	-3.009600	3.851500	-11.590000	21.521364	0.000887	20.868204
85.019447	-2.994100	3.851800	-11.531000	21.541216	0.000890	20.867681
86.023890	-3.006500	3.852600	-11.582000	21.533856	0.000891	20.852731
87.020206	-2.980700	3.852000	-11.480000	21.524995	0.000888	20.856666
88.020217	-2.994700	3.851100	-11.532000	21.559518	0.000889	20.881726
89.020071	-2.966600	3.850900	-11.423000	21.551783	0.000888	20.876831
90.019810	-2.999800	3.850400	-11.549000	21.570663	0.000889	20.849732
91.021413	-2.989400	3.850500	-11.510000	21.601862	0.000888	20.873365
92.020954	-2.998500	3.851600	-11.548000	21.590780	0.000889	20.871284
93.020273	-2.993100	3.849000	-11.519000	21.609308	0.000888	20.859480
94.021874	-2.968300	3.851000	-11.429000	21.620526	0.000889	20.869758
95.022577	-2.993300	3.850200	-11.523000	21.615561	0.000889	20.864789
96.020914	-2.983600	3.848500	-11.481000	21.624963	0.000890	20.899800
97.029490	-2.990000	3.850000	-11.510000	21.637504	0.000889	20.873471
98.021704	-2.997300	3.847700	-11.532000	21.641941	0.000891	20.877436
99.026013	-2.998000	3.848100	-11.536000	21.639719	0.000888	20.884222
100.020836	-2.999200	3.847500	-11.539000	21.657300	0.000889	20.882375
101.022751	-3.001000	3.848900	-11.549000	21.669194	0.000890	20.862511
102.026081	-3.006800	3.845800	-11.563000	21.664149	0.000889	20.885436
103.023556	-3.015800	3.847500	-11.602000	21.675200	0.000890	20.861883
104.027568	-2.997600	3.847800	-11.531000	21.683826	0.000890	20.878576
105.025058	-2.983000	3.847000	-11.474000	21.690958	0.000889	20.872911
106.025682	-2.999200	3.846600	-11.536000	21.702077	0.000890	20.884038
107.027946	-3.011900	3.846200	-11.583000	21.711078	0.000890	20.881667
108.025517	-2.987000	3.847000	-11.490000	21.724640	0.000890	20.876748
109.026583	-3.015500	3.846100	-11.598000	21.701025	0.000891	20.863072
110.029088	-3.001300	3.846000	-11.542000	21.725040	0.000891	20.887105
111.025154	-2.997900	3.845300	-11.526000	21.720652	0.000893	20.862327
112.025283	-3.018500	3.845300	-11.606000	21.730232	0.000892	20.885189
113.026608	-2.983700	3.845700	-11.473000	21.726633	0.000891	20.885855
114.027037	-3.010900	3.845300	-11.576000	21.742520	0.000893	20.877099
115.027045	-2.989300	3.845900	-11.496000	21.761366	0.000892	20.873676
116.026122	-3.012400	3.843500	-11.577000	21.748679	0.000892	20.890374
117.027481	-3.016400	3.843300	-11.591000	21.753090	0.000891	20.874876
118.030054	-2.998800	3.844400	-11.528000	21.786875	0.000893	20.866964
119.027703	-2.999100	3.843500	-11.526000	21.782088	0.000892	20.870708
120.029540	-2.996500	3.844000	-11.517000	21.799819	0.000894	20.870436
121.025920	-3.019500	3.842200	-11.600000	21.806353	0.000895	20.856588
122.027117	-2.999400	3.842400	-11.523000	21.805603	0.000894	20.872906
123.028042	-3.018600	3.842300	-11.597000	21.824355	0.000893	20.857062
124.029550	-3.009600	3.842700	-11.564000	21.811657	0.000894	20.857629
125.029726	-3.013700	3.842300	-11.578000	21.818689	0.000895	20.892166
126.029714	-3.024300	3.840800	-11.615000	21.829960	0.000897	20.884956
127.031006	-3.006700	3.840600	-11.546000	21.824048	0.000894	20.845850
128.028852	-3.001500	3.842000	-11.531000	21.830741	0.000896	20.859661
129.030331	-2.996200	3.841700	-11.509000	21.818265	0.000894	20.849545
130.028480	-2.988500	3.840900	-11.477000	21.827819	0.000897	20.851521
131.028555	-2.983900	3.841400	-11.461000	21.842904	0.000895	20.851447
132.031392	-2.975900	3.841900	-11.431000	21.852403	0.000897	20.856213
133.034398	-2.982300	3.839400	-11.449000	21.854692	0.000897	20.858504
134.032417	-2.994500	3.839900	-11.498000	21.874939	0.000901	20.845579
135.029353	-3.014800	3.838900	-11.571000	21.874145	0.000898	20.864224
136.029021	-2.985500	3.840600	-11.465000	21.882820	0.000898	20.886655
137.030909	-2.985500	3.840000	-11.464000	21.887790	0.000900	20.865553
138.033454	-2.997000	3.838700	-11.503000	21.907956	0.000899	20.858238
139.029383	-3.018000	3.838600	-11.583000	21.905711	0.000900	20.846034
140.033007	-2.998300	3.837600	-11.506000	21.912392	0.000900	20.840394
141.030365	-2.961600	3.840900	-11.374000	21.929278	0.000900	20.837382
142.029284	-2.996400	3.839000	-11.503000	21.942437	0.000902	20.843441
143.032480	-3.001600	3.837300	-11.517000	21.958025	0.000902	20.855251
144.030558	-3.008600	3.838500	-11.547000	21.927955	0.000901	20.837481
145.033767	-2.983700	3.839200	-11.453000	21.971159	0.000900	20.833312
146.031620	-2.998900	3.837800	-11.508000	21.939650	0.000904	20.835910
147.031405	-3.007100	3.837200	-11.538000	21.965579	0.000900	20.844321
148.037656	-3.005000	3.837000	-11.529000	21.955459	0.000903	20.862640
149.032227	-3.015000	3.837200	-11.568000	21.949370	0.000903	20.856545
150.033130	-3.001400	3.838000	-11.519000	21.951319	0.000904	20.847591
151.031257	-3.008900	3.837300	-11.544000	21.948754	0.000903	20.862566
152.031897	-3.008800	3.838500	-11.548000	21.969916	0.000902	20.851507
153.035232	-3.011400	3.835200	-11.548000	21.987663	0.000903	20.854100
154.034208	-2.987400	3.836400	-11.459000	21.979592	0.000904	20.843176
155.036014	-3.016100	3.835100	-11.566000	21.995050	0.000905	20.851538
156.034718	-3.005500	3.835000	-11.524000	21.992337	0.000905	20.828434
157.034384	-3.015600	3.834600	-11.563000	22.023076	0.000905	20.839764
158.037723	-2.987200	3.836700	-11.460000	22.020929	0.000903	20.837141
159.038278	-2.991600	3.834200	-11.469000	22.032943	0.000908	20.823564
160.035752	-2.992400	3.835100	-11.474000	22.028507	0.000904	20.809641
161.034570	-3.002000	3.832100	-11.502000	22.032302	0.000904	20.839518
162.034396	-2.997100	3.833800	-11.489000	22.036234	0.000907	20.843453
163.035836	-3.003200	3.834500	-11.515000	22.040108	0.000906	20.838323
164.040814	-3.009200	3.831900	-11.530000	22.037808	0.000905	20.814684
165.040949	-2.989500	3.832900	-11.458000	22.062068	0.000909	20.836599
166.041348	-3.007300	3.831500	-11.521000	22.070125	0.000909	20.828544
167.036458	-2.999300	3.832300	-11.494000	22.094950	0.000909	20.827319
168.038386	-2.974300	3.833400	-11.400000	22.109614	0.000910	20.829671
169.039603	-2.998300	3.831900	-11.487000	22.109638	0.000908	20.835859
170.036463	-3.014400	3.832000	-11.549000	22.104281	0.000910	20.823384
171.037123	-3.011400	3.831200	-11.535000	22.128386	0.000911	20.816222
172.038365	-3.007700	3.831200	-11.521000	22.119417	0.000914	20.847072
173.037129	-3.018100	3.830200	-11.559000	22.131006	0.000911	20.825483
174.037138	-3.012100	3.830800	-11.537000	22.135852	0.000912	20.827490
175.039130	-3.009600	3.830700	-11.528000	22.139364	0.000914	20.819626
176.039157	-3.009400	3.830100	-11.525000	22.118684	0.000913	20.786121
177.039392	-3.020000	3.829600	-11.564000	22.130322	0.000912	20.822902
178.037317	-2.994500	3.830400	-11.470000	22.109612	0.000914	20.823031
179.036965	-3.024800	3.829100	-11.581000	22.114827	0.000914	20.793639
180.038438	-3.003300	3.829800	-11.502000	22.137935	0.000915	20.809662
181.037205	-3.005400	3.828300	-11.505000	22.139682	0.000913	20.817575
182.040040	-2.988900	3.830200	-11.447000	22.138169	0.000915	20.820327
183.037094	-3.024900	3.827700	-11.577000	22.143107	0.000916	20.830486
184.038260	-3.009900	3.829300	-11.525000	22.173970	0.000913	20.808281
185.039464	-2.994300	3.829300	-11.464000	22.169043	0.000916	20.828478
186.040752	-3.011200	3.828500	-11.526000	22.212139	0.000915	20.820418
187.036976	-3.015500	3.827000	-11.540000	22.199506	0.000919	20.806821
188.043440	-2.997800	3.828200	-11.475000	22.206689	0.000917	20.782719
189.038466	-2.990200	3.829200	-11.448000	22.216388	0.000917	20.795749
190.046278	-3.010100	3.827800	-11.521000	22.218411	0.000917	20.813896
191.042086	-2.981700	3.827600	-11.412000	22.222003	0.000919	20.774818
192.036905	-3.006700	3.825900	-11.502000	22.217746	0.000920	20.819868
193.043995	-2.997600	3.827400	-11.471000	22.223958	0.000921	20.803802
194.038896	-3.020300	3.825600	-11.553000	22.247242	0.000919	20.819529
195.038158	-3.018400	3.825700	-11.547000	22.233927	0.000921	20.799559
196.041922	-3.013700	3.825900	-11.529000	22.256289	0.000921	20.799664
197.038298	-3.016300	3.825400	-11.538000	22.262949	0.000921	20.810600
198.038097	-2.999500	3.826100	-11.475000	22.268360	0.000921	20.798949
199.039301	-3.009800	3.825300	-11.513000	22.285561	0.000923	20.787723
200.039322	-3.026000	3.824600	-11.572000	22.299792	0.000922	20.792015
201.037409	-2.998400	3.824200	-11.464000	22.294140	0.000922	20.797261
202.042191	-3.006000	3.825200	-11.497000	22.306808	0.000924	20.787186
203.040797	-2.988900	3.825100	-11.431000	22.319046	0.000923	20.793276
204.043209	-3.002800	3.825300	-11.485000	22.325325	0.000924	20.798141
205.041105	-3.016300	3.824400	-11.534000	22.322164	0.000923	20.818209
206.041236	-2.998100	3.823900	-11.462000	22.333153	0.000926	20.798394
207.045189	-3.011600	3.821900	-11.509000	22.323215	0.000928	20.806934
208.041594	-3.014200	3.822900	-11.523000	22.320374	0.000926	20.789390
209.042478	-2.972800	3.825300	-11.371000	22.306475	0.000927	20.802026
210.041694	-3.011800	3.822400	-11.511000	22.304477	0.000928	20.803818
211.042243	-3.004500	3.822200	-11.482000	22.336209	0.000927	20.786280
212.045588	-2.985000	3.823400	-11.411000	22.335059	0.000927	20.770430
213.046678	-3.007200	3.822700	-11.495000	22.349399	0.000930	20.778151
214.043967	-3.014500	3.821500	-11.519000	22.366316	0.000930	20.799359
215.043788	-3.003100	3.820600	-11.472000	22.363752	0.000931	20.775928
216.045726	-3.002300	3.822400	-11.475000	22.358371	0.000929	20.783342
217.045557	-3.001800	3.820900	-11.468000	22.376745	0.000930	20.778508
218.048666	-3.009700	3.821100	-11.499000	22.379531	0.000931	20.799790
219.044832	-2.988700	3.821200	-11.419000	22.409337	0.000931	20.784592
220.048686	-2.990800	3.820300	-11.424000	22.417884	0.000931	20.769444
221.044807	-3.010300	3.819400	-11.495000	22.422176	0.000931	20.793182
222.046396	-2.983600	3.820300	-11.397000	22.427304	0.000932	20.771291
223.054531	-3.002600	3.818900	-11.465000	22.423043	0.000932	20.788361
224.048028	-3.000500	3.820200	-11.462000	22.443279	0.000933	20.781125
225.046804	-2.997300	3.820500	-11.449000	22.442904	0.000934	20.812044
226.048032	-3.008500	3.818400	-11.486000	22.430969	0.000937	20.781599
227.046264	-3.016000	3.818900	-11.516000	22.439615	0.000936	20.783619
228.048224	-2.997700	3.819300	-11.448000	22.441816	0.000935	20.789143
229.052457	-2.981800	3.818300	-11.384000	22.466067	0.000937	20.792092
230.052067	-2.996800	3.817900	-11.440000	22.460287	0.000939	20.767337
231.048326	-3.007600	3.817800	-11.481000	22.473464	0.000939	20.761093
232.047614	-3.009900	3.817600	-11.490000	22.468582	0.000939	20.773273
233.049922	-2.998100	3.816200	-11.440000	22.459635	0.000939	20.770004
234.058697	-3.014000	3.816600	-11.503000	22.480898	0.000942	20.781814
235.050147	-3.009000	3.816100	-11.480000	22.483714	0.000938	20.777522
236.049807	-3.008400	3.816900	-11.481000	22.481998	0.000941	20.765372
237.051337	-2.981200	3.817000	-11.377000	22.492955	0.000942	20.758802
238.051322	-2.979200	3.816500	-11.369000	22.521866	0.000942	20.781118
239.052116	-3.041500	3.814900	-11.602000	22.514488	0.000942	20.790324
240.050463	-3.009300	3.814400	-11.478000	22.525476	0.000945	20.765292
241.050986	-3.008400	3.815000	-11.476000	22.535122	0.000943	20.795817
242.051477	-3.005700	3.814600	-11.463000	22.546110	0.000945	20.762250
243.059380	-2.983200	3.815800	-11.382000	22.569929	0.000944	20.784210
244.056982	-3.027700	3.815000	-11.549000	22.562102	0.000945	20.773526
245.053814	-3.022900	3.814000	-11.528000	22.575979	0.000945	20.758026
246.050910	-3.007900	3.814400	-11.472000	22.607470	0.000946	20.770127
247.050628	-3.008000	3.814300	-11.473000	22.600019	0.000946	20.775940
248.053120	-3.014400	3.813800	-11.495000	22.610433	0.000948	20.766931
249.052001	-3.006000	3.813000	-11.461000	22.580732	0.000946	20.761364
250.059826	-3.008300	3.812400	-11.468000	22.589198	0.000948	20.777905
251.054913	-2.996000	3.812600	-11.422000	22.583689	0.000949	20.770965
252.056736	-2.998700	3.812200	-11.430000	22.599534	0.000949	20.771661
253.053738	-2.981400	3.814300	-11.371000	22.601452	0.000950	20.772160
254.054689	-3.000400	3.813000	-11.439000	22.622251	0.000951	20.749369
255.057741	-2.995600	3.813300	-11.421000	22.627330	0.000949	20.763465
256.059240	-3.016900	3.811900	-11.499000	22.634677	0.000953	20.762289
257.056641	-3.003600	3.811600	-11.447000	22.636171	0.000952	20.770424
258.055694	-3.000000	3.811800	-11.435000	22.633256	0.000952	20.769402
259.056180	-2.990800	3.811100	-11.397000	22.610208	0.000952	20.766705
260.055089	-3.001400	3.810000	-11.435000	22.604797	0.000956	20.752751
261.061417	-3.002800	3.810500	-11.441000	22.631007	0.000955	20.772838
262.056866	-2.997100	3.811300	-11.421000	22.626119	0.000955	20.762253
263.055593	-3.005200	3.810700	-11.451000	22.653576	0.000955	20.757985
264.055803	-2.989800	3.812100	-11.397000	22.662250	0.000956	20.770467
265.057384	-2.984500	3.809800	-11.368000	22.653589	0.000955	20.752308
266.060110	-3.015300	3.809700	-11.486000	22.668786	0.000956	20.756625
267.057539	-2.992700	3.809600	-11.400000	22.699230	0.000956	20.766257
268.059866	-3.009400	3.808900	-11.461000	22.714402	0.000957	20.773394
269.059825	-2.979800	3.809800	-11.351000	22.736545	0.000957	20.763332
270.058147	-2.984500	3.809800	-11.369000	22.726974	0.000956	20.767495
271.059240	-2.986600	3.808500	-11.373000	22.711531	0.000957	20.765777
272.060750	-3.003400	3.808000	-11.436000	22.716259	0.000958	20.767193
273.057806	-2.994800	3.808900	-11.406000	22.711175	0.000959	20.772532
274.058468	-2.970800	3.808700	-11.314000	22.700190	0.000959	20.751570
275.058496	-3.000500	3.808300	-11.426000	22.727639	0.000960	20.749194
276.058365	-3.007000	3.806000	-11.444000	22.729975	0.000960	20.763863
277.060730	-2.988800	3.806700	-11.377000	22.720016	0.000961	20.736816
278.057292	-2.987100	3.807800	-11.373000	22.737179	0.000962	20.760174
279.062499	-2.994800	3.806800	-11.401000	22.743678	0.000962	20.758148
280.060292	-3.019300	3.805300	-11.488000	22.732840	0.000961	20.754404
281.061597	-2.996300	3.805200	-11.400000	22.764652	0.000963	20.757822
282.070531	-3.010400	3.806200	-11.458000	22.759796	0.000965	20.754853
283.060878	-3.007500	3.805900	-11.444000	22.773911	0.000964	20.752871
284.061011	-2.983400	3.807300	-11.356000	22.791854	0.000966	20.761363
285.061089	-3.005800	3.804100	-11.433000	22.809859	0.000966	20.767072
286.061959	-3.010800	3.805000	-11.453000	22.836843	0.000966	20.769448
287.064134	-2.994900	3.804900	-11.395000	22.825251	0.000967	20.752145
288.062322	-2.999000	3.803200	-11.406000	22.810633	0.000966	20.744613
289.069748	-2.990000	3.805000	-11.375000	22.828865	0.000967	20.760981
290.062259	-3.011900	3.803600	-11.455000	22.833967	0.000967	20.755187
291.063547	-3.001600	3.804500	-11.418000	22.830033	0.000968	20.752668
292.070097	-3.011200	3.802700	-11.450000	22.839672	0.000968	20.759005
293.062507	-2.991800	3.803600	-11.378000	22.820985	0.000970	20.742656
294.062863	-3.001800	3.802000	-11.412000	22.855309	0.000969	20.748118
295.062986	-2.990800	3.803400	-11.374000	22.807585	0.000971	20.751517
296.062349	-2.995800	3.803300	-11.393000	22.817543	0.000970	20.758174
297.063880	-3.016900	3.801800	-11.469000	22.827065	0.000970	20.767238
298.070004	-3.006000	3.801500	-11.426000	22.834410	0.000970	20.739509
299.064542	-2.999200	3.800400	-11.398000	22.863583	0.000973	20.760674
300.069596	-2.980400	3.802700	-11.331000	22.862256	0.000971	20.749861
301.064796	-3.017800	3.801500	-11.470000	22.851124	0.000973	20.743924
302.065276	-3.006800	3.801000	-11.428000	22.860467	0.000970	20.758026
303.066288	-3.034400	3.799200	-11.527000	22.908170	0.000973	20.738487
304.066449	-2.994300	3.800300	-11.378000	22.918982	0.000975	20.748370
305.068053	-3.007800	3.800800	-11.431000	22.914476	0.000974	20.743856
306.064555	-2.987600	3.801800	-11.357000	22.955177	0.000975	20.760926
307.064755	-3.001200	3.800500	-11.406000	22.941625	0.000973	20.734071
308.067163	-2.991000	3.799700	-11.365000	22.932288	0.000975	20.736571
309.066288	-3.005100	3.798100	-11.413000	22.917857	0.000976	20.737760
310.064793	-2.995800	3.799800	-11.382000	22.909240	0.000976	20.772276
311.066442	-3.002000	3.799900	-11.406000	22.934047	0.000977	20.749713
312.066333	-2.992700	3.798000	-11.365000	22.911403	0.000978	20.753580
313.068263	-3.007200	3.797600	-11.419000	22.910408	0.000978	20.744522
314.068139	-3.002200	3.797400	-11.399000	22.927569	0.000977	20.740852
315.070028	-3.020900	3.797000	-11.469000	22.924157	0.000979	20.754978
316.069973	-3.011200	3.797300	-11.433000	22.924489	0.000980	20.742033
317.068477	-3.014600	3.796300	-11.443000	22.921643	0.000979	20.761943
318.067408	-3.001100	3.796900	-11.394000	22.943641	0.000980	20.728030
319.070490	-3.000500	3.795300	-11.387000	22.944335	0.000982	20.740580
320.067549	-3.005000	3.795800	-11.406000	22.961950	0.000983	20.742582
321.067596	-3.003800	3.796700	-11.404000	22.976167	0.000982	20.744497
322.068491	-3.007000	3.794500	-11.409000	22.989694	0.000982	20.743826
323.080668	-3.010300	3.796000	-11.426000	23.003565	0.000982	20.741603
324.069589	-3.003800	3.794700	-11.398000	23.015427	0.000980	20.738314
325.070155	-2.995600	3.793700	-11.364000	23.015372	0.000983	20.741578
326.069173	-2.969400	3.795100	-11.268000	23.037485	0.000984	20.747613
327.073634	-3.003000	3.795000	-11.396000	23.045259	0.000985	20.728849
328.069339	-3.016500	3.792800	-11.439000	23.047827	0.000985	20.743278
329.068843	-3.014600	3.793600	-11.435000	23.054649	0.000984	20.746320
330.073104	-3.009500	3.791700	-11.410000	23.064108	0.000987	20.745840
331.067959	-3.017800	3.792700	-11.444000	23.060746	0.000986	20.737256
332.072288	-2.976500	3.793800	-11.292000	23.049290	0.000986	20.744270
333.070974	-3.006100	3.792300	-11.398000	23.028026	0.000984	20.726755
334.070833	-2.981800	3.792300	-11.305000	23.022550	0.000987	20.753038
335.071347	-2.998600	3.791900	-11.369000	23.039561	0.000987	20.745427
336.070696	-3.005400	3.791800	-11.395000	23.031590	0.000986	20.734120
337.069910	-3.000600	3.790600	-11.372000	23.039862	0.000988	20.744780
338.070946	-3.009900	3.790800	-11.408000	23.051115	0.000989	20.727605
339.071680	-3.016900	3.790900	-11.434000	23.055085	0.000989	20.747705
340.071776	-2.989000	3.791300	-11.331000	23.073460	0.000990	20.725339
341.075767	-3.002500	3.790700	-11.380000	23.059762	0.000988	20.746701
342.072149	-2.988400	3.790800	-11.328000	23.055902	0.000989	20.748524
343.075136	-3.011400	3.789100	-11.409000	23.063099	0.000990	20.744829
344.072787	-3.022200	3.789300	-11.451000	23.082703	0.000989	20.736971
345.072561	-2.990900	3.789600	-11.333000	23.115507	0.000992	20.764153
346.076494	-3.002100	3.788800	-11.374000	23.108852	0.000990	20.738043
347.075123	-3.003800	3.789400	-11.381000	23.140684	0.000989	20.735801
348.076961	-2.999000	3.788000	-11.359000	23.139541	0.000994	20.732759
349.076488	-2.990400	3.788200	-11.326000	23.150079	0.000991	20.745690
350.076230	-3.002300	3.787700	-11.370000	23.137046	0.000992	20.727414
351.076674	-3.014600	3.788000	-11.419000	23.130482	0.000994	20.743122
352.080524	-3.000900	3.786600	-11.361000	23.120742	0.000992	20.741423
353.078485	-3.005000	3.788700	-11.383000	23.143983	0.000996	20.745746
354.075718	-3.005100	3.787400	-11.380000	23.108445	0.000993	20.726729
355.076630	-3.008100	3.786700	-11.389000	23.108697	0.000994	20.745948
356.075565	-2.990700	3.787100	-11.324000	23.096468	0.000997	20.737013
357.078814	-2.983100	3.785100	-11.290000	23.090439	0.000996	20.734765
358.078457	-3.012900	3.784300	-11.401000	23.118284	0.000995	20.747968
359.088403	-2.997600	3.786300	-11.349000	23.118855	0.000997	20.749015
360.077303	-3.015900	3.783800	-11.411000	23.111161	0.000997	20.740831
361.079830	-2.988900	3.786400	-11.316000	23.106632	0.000997	20.739137
362.080162	-2.995800	3.785300	-11.339000	23.107682	0.000999	20.723120
363.079922	-3.016600	3.784200	-11.414000	23.112513	0.000999	20.742186
364.079038	-3.018500	3.783600	-11.418000	23.103418	0.000997	20.752987
365.079080	-3.000500	3.783500	-11.351000	23.135349	0.000997	20.738041
366.078821	-2.991700	3.783300	-11.317000	23.160058	0.000999	20.762803
367.083274	-3.005900	3.783500	-11.372000	23.168520	0.000998	20.729555
368.080314	-2.994100	3.783700	-11.327000	23.199183	0.000998	20.751749
369.083075	-2.982000	3.783600	-11.282000	23.214115	0.000999	20.749169
370.078759	-3.008200	3.783000	-11.379000	23.233102	0.000997	20.737850
371.081450	-3.013500	3.781100	-11.394000	23.226552	0.000997	20.737924
372.083278	-2.999700	3.782300	-11.344000	23.235867	0.000999	20.740621
373.083626	-2.997400	3.782800	-11.338000	23.225937	0.000998	20.740627
374.079227	-2.977900	3.781900	-11.261000	23.246251	0.000998	20.745338
375.084599	-2.976600	3.783000	-11.260000	23.247849	0.000999	20.750732
376.080809	-2.988700	3.780600	-11.299000	23.250964	0.001001	20.757173
377.081441	-2.999300	3.780400	-11.338000	23.262275	0.001000	20.752862
378.085167	-3.000600	3.780600	-11.343000	23.286232	0.001000	20.749371
379.081342	-2.991600	3.779600	-11.306000	23.285587	0.000999	20.758681
380.081888	-2.999500	3.780000	-11.337000	23.302545	0.001000	20.749598
381.084168	-2.994100	3.780900	-11.319000	23.294607	0.001000	20.729787
382.082689	-2.980200	3.780700	-11.266000	23.327749	0.001001	20.751624
383.087371	-3.009500	3.779500	-11.372000	23.315724	0.001004	20.751427
384.082947	-3.019000	3.778500	-11.406000	23.321585	0.001003	20.734541
385.083771	-2.999300	3.777800	-11.329000	23.331821	0.001003	20.756654
386.084822	-2.990900	3.778500	-11.300000	23.345271	0.001004	20.763970
387.086199	-2.990400	3.778700	-11.299000	23.345922	0.001001	20.744233
388.086792	-3.011500	3.777600	-11.375000	23.359795	0.001004	20.754819
389.087245	-3.017300	3.776500	-11.394000	23.369956	0.001005	20.734657
390.086981	-3.020200	3.777300	-11.407000	23.379921	0.001004	20.751757
391.086045	-3.001600	3.776400	-11.334000	23.420808	0.001003	20.738209
392.087864	-2.987900	3.776600	-11.283000	23.398850	0.001004	20.751289
393.086683	-3.010800	3.776200	-11.367000	23.398998	0.001004	20.741954
394.090106	-3.029800	3.775900	-11.439000	23.374177	0.001003	20.758802
395.087492	-3.003900	3.775000	-11.339000	23.362859	0.001004	20.729439
396.090219	-2.993200	3.774800	-11.297000	23.360917	0.001005	20.752625
397.088803	-3.018200	3.773700	-11.389000	23.357458	0.001006	20.750580
398.089214	-2.978700	3.774700	-11.243000	23.374022	0.001005	20.733990
399.090773	-3.003800	3.773700	-11.334000	23.341182	0.001004	20.752286
400.090377	-2.996200	3.773600	-11.306000	23.351774	0.001007	20.758160
401.089187	-2.971800	3.775100	-11.218000	23.357900	0.001007	20.766196
402.090347	-3.009400	3.772200	-11.351000	23.346773	0.001006	20.755518
403.092751	-2.999200	3.772800	-11.314000	23.355497	0.001006	20.737234
404.093901	-2.976500	3.773400	-11.231000	23.344093	0.001006	20.768954
405.093849	-2.996400	3.773900	-11.307000	23.394995	0.001008	20.752641
406.093839	-3.018200	3.771700	-11.383000	23.404856	0.001005	20.762999
407.099344	-3.008700	3.771000	-11.344000	23.413844	0.001008	20.753516
408.095879	-3.021000	3.771600	-11.394000	23.445017	0.001009	20.754889
409.094675	-2.991500	3.771200	-11.282000	23.428822	0.001009	20.759993
410.100316	-3.012700	3.770300	-11.358000	23.443560	0.001008	20.757222
411.095525	-2.979500	3.770700	-11.234000	23.480936	0.001010	20.759599
412.095531	-3.005400	3.768900	-11.324000	23.483154	0.001009	20.737165
413.096560	-3.009400	3.769400	-11.343000	23.470333	0.001009	20.758927
414.106230	-2.994000	3.769300	-11.285000	23.459004	0.001010	20.742830
415.097745	-3.000600	3.770000	-11.312000	23.448603	0.001010	20.747104
416.104615	-3.015300	3.769000	-11.364000	23.446140	0.001010	20.765972
417.099806	-3.010700	3.769000	-11.345000	23.454660	0.001011	20.753649
418.099922	-3.003700	3.769400	-11.320000	23.448382	0.001010	20.780074
419.099675	-3.015900	3.767600	-11.362000	23.418536	0.001011	20.768176
420.101882	-2.997700	3.767400	-11.293000	23.428028	0.001011	20.750188
421.103229	-2.993200	3.768100	-11.277000	23.404375	0.001012	20.745447
422.100041	-3.004600	3.767200	-11.319000	23.428777	0.001011	20.759475
423.102022	-2.997200	3.766900	-11.288000	23.444597	0.001012	20.752571
424.101009	-3.008800	3.767200	-11.334000	23.475338	0.001013	20.762997
425.106736	-2.997300	3.767200	-11.291000	23.488037	0.001013	20.742059
426.102811	-2.984600	3.766000	-11.239000	23.488393	0.001012	20.756641
427.101853	-2.987300	3.766500	-11.250000	23.490930	0.001013	20.777203
428.105710	-3.011400	3.766400	-11.341000	23.514261	0.001012	20.743691
429.105251	-3.005200	3.765500	-11.315000	23.539134	0.001012	20.779056
430.101109	-3.009000	3.764000	-11.324000	23.546875	0.001014	20.761685
431.104062	-3.005400	3.765400	-11.315000	23.564824	0.001015	20.745064
432.104417	-2.996200	3.764400	-11.277000	23.572146	0.001014	20.771845
433.102082	-2.992000	3.764700	-11.263000	23.582976	0.001016	20.755200
434.102767	-3.001900	3.764100	-11.296000	23.572939	0.001015	20.755096
435.104700	-3.000900	3.763500	-11.293000	23.568092	0.001017	20.772523
436.104390	-2.987500	3.763400	-11.242000	23.562189	0.001016	20.751906
437.106758	-2.996400	3.763700	-11.277000	23.591969	0.001018	20.754258
438.104581	-2.994600	3.762200	-11.265000	23.586661	0.001019	20.793509
439.103652	-2.994600	3.761500	-11.263000	23.617583	0.001016	20.760022
440.103768	-3.008100	3.762000	-11.315000	23.634684	0.001018	20.756776
441.104668	-3.026600	3.762200	-11.385000	23.646041	0.001018	20.769111
442.107937	-3.008300	3.760200	-11.309000	23.648050	0.001017	20.772073
443.104618	-3.003500	3.761800	-11.298000	23.647159	0.001016	20.761697
444.106811	-3.023000	3.759500	-11.364000	23.616416	0.001018	20.756955
445.105170	-3.009100	3.761200	-11.317000	23.617233	0.001017	20.780534
446.104846	-3.002200	3.760200	-11.288000	23.588160	0.001018	20.767984
447.105408	-3.020600	3.758600	-11.352000	23.586741	0.001019	20.774622
448.106173	-2.982900	3.761700	-11.220000	23.569689	0.001021	20.771753
449.105980	-3.000900	3.760000	-11.282000	23.554528	0.001020	20.783108
450.106882	-2.984600	3.758600	-11.216000	23.534588	0.001020	20.766438
451.106194	-2.987000	3.760200	-11.231000	23.538544	0.001019	20.778465
452.105090	-2.999400	3.759100	-11.275000	23.564259	0.001018	20.779586
453.106293	-2.977800	3.758100	-11.190000	23.575340	0.001020	20.781211
454.109520	-3.001000	3.757700	-11.276000	23.616533	0.001019	20.783625
455.109382	-3.030300	3.756100	-11.381000	23.629131	0.001018	20.766857
456.110835	-2.988500	3.758500	-11.231000	23.625194	0.001020	20.752004
457.109504	-3.000600	3.757300	-11.273000	23.623130	0.001020	20.790239
458.111264	-2.992300	3.757000	-11.241000	23.641422	0.001019	20.783447
459.104806	-3.013800	3.755900	-11.317000	23.646822	0.001020	20.763255
460.107293	-2.997700	3.755800	-11.257000	23.669223	0.001020	20.781920
461.104966	-3.009100	3.755100	-11.299000	23.701039	0.001022	20.781575
462.110248	-3.006000	3.755600	-11.287000	23.696058	0.001020	20.786064
463.109656	-3.008900	3.754800	-11.296000	23.704368	0.001022	20.776852
464.112951	-3.002500	3.755500	-11.275000	23.682220	0.001021	20.785941
465.106913	-2.993900	3.755500	-11.243000	23.672675	0.001023	20.795812
466.108806	-3.031800	3.753200	-11.376000	23.673197	0.001020	20.779266
467.112520	-3.005100	3.754300	-11.281000	23.683110	0.001023	20.793472
468.107876	-3.004200	3.753400	-11.274000	23.664714	0.001023	20.793522
469.116307	-3.011500	3.752700	-11.300000	23.697397	0.001022	20.784088
470.107160	-3.010900	3.751900	-11.295000	23.701752	0.001023	20.787031
471.112064	-3.021500	3.753400	-11.340000	23.693835	0.001024	20.783835
472.106313	-3.006400	3.754000	-11.285000	23.707642	0.001023	20.782505
473.110316	-2.996800	3.751900	-11.242000	23.725792	0.001024	20.810659
474.110403	-2.972000	3.752600	-11.152000	23.729348	0.001025	20.789569
475.109322	-3.003700	3.751800	-11.267000	23.722525	0.001024	20.779882
476.108922	-2.991500	3.751700	-11.223000	23.739900	0.001025	20.786397
477.111598	-3.004900	3.750300	-11.268000	23.740938	0.001025	20.777007
478.109412	-3.003700	3.751800	-11.269000	23.773619	0.001026	20.800290
479.108204	-2.997300	3.750000	-11.238000	23.769706	0.001024	20.814385
480.119133	-3.004300	3.749300	-11.263000	23.805696	0.001024	20.788356
481.113067	-2.982100	3.750200	-11.182000	23.815977	0.001027	20.789181
482.111159	-3.011000	3.749200	-11.287000	23.811089	0.001026	20.799453
483.110333	-3.000100	3.749000	-11.246000	23.826645	0.001024	20.789921
484.109425	-2.991600	3.748400	-11.213000	23.819902	0.001023	20.806867
485.117524	-3.014500	3.748200	-11.298000	23.845554	0.001024	20.813148
486.111620	-3.003800	3.747400	-11.255000	23.851984	0.001026	20.798732
487.114153	-2.984700	3.747900	-11.186000	23.855657	0.001025	20.816165
488.113542	-3.001400	3.746300	-11.242000	23.859372	0.001025	20.817520
489.112525	-2.989200	3.746500	-11.199000	23.848318	0.001023	20.796953
490.114211	-2.985400	3.748000	-11.188000	23.850953	0.001024	20.797224
491.113301	-2.976300	3.746200	-11.148000	23.858519	0.001023	20.812397
492.112391	-2.991600	3.746800	-11.208000	23.860011	0.001024	20.788763
493.110414	-2.977200	3.746600	-11.153000	23.886571	0.001024	20.807335
494.112373	-2.980000	3.745200	-11.159000	23.897416	0.001025	20.805882
495.116125	-3.019300	3.744400	-11.304000	23.884526	0.001027	20.812871
496.117415	-3.002700	3.745100	-11.244000	23.851020	0.001025	20.812939
497.113621	-2.983200	3.745900	-11.174000	23.829974	0.001026	20.807009
498.115337	-2.986800	3.746100	-11.188000	23.833352	0.001027	20.817508
499.115566	-3.002800	3.743600	-11.240000	23.833057	0.001025	20.830962
500.117725	-2.986100	3.743700	-11.178000	23.842263	0.001025	20.811270
501.122961	-2.985100	3.743400	-11.173000	23.833456	0.001025	20.807655
502.114846	-2.978800	3.744100	-11.152000	23.848613	0.001024	20.822379
503.115947	-2.998700	3.741900	-11.219000	23.861675	0.001025	20.813191
504.113194	-3.006900	3.742200	-11.251000	23.868001	0.001025	20.820008
505.117330	-3.002300	3.741700	-11.233000	23.854085	0.001025	20.815538
506.118196	-3.006800	3.741000	-11.248000	23.871636	0.001026	20.815119
507.116454	-3.009100	3.742300	-11.260000	23.870985	0.001025	20.824423
508.113596	-3.016900	3.741300	-11.286000	23.894732	0.001024	20.819786
509.116394	-3.007400	3.740900	-11.249000	23.894229	0.001026	20.810273
510.115843	-3.013000	3.739700	-11.267000	23.935422	0.001026	20.811276
511.121723	-3.004800	3.740400	-11.238000	23.958695	0.001024	20.815174
512.116580	-2.981300	3.740500	-11.151000	23.953912	0.001025	20.828869
513.117410	-3.005600	3.739100	-11.237000	23.965309	0.001024	20.831289
514.117553	-2.997600	3.740500	-11.212000	23.964584	0.001025	20.847157
515.114929	-2.997000	3.740100	-11.208000	23.965806	0.001025	20.815193
516.121087	-3.019200	3.738200	-11.286000	23.971934	0.001026	20.818967
517.118144	-2.989200	3.739100	-11.175000	23.968201	0.001025	20.806214
518.120701	-2.998700	3.737600	-11.207000	23.942127	0.001026	20.823215
519.126582	-2.999000	3.738800	-11.212000	23.945849	0.001028	20.842120
520.118157	-3.012200	3.737100	-11.256000	23.958394	0.001025	20.833364
521.116632	-3.001200	3.737000	-11.214000	23.969693	0.001025	20.832366
522.122446	-3.006800	3.736200	-11.232000	23.941550	0.001025	20.826904
523.117468	-3.013200	3.736300	-11.256000	23.924577	0.001024	20.826005
524.118320	-2.994800	3.736300	-11.189000	23.923564	0.001026	20.826885
525.116438	-3.003500	3.736600	-11.222000	23.899891	0.001025	20.836338
526.116779	-2.997000	3.735500	-11.193000	23.905172	0.001025	20.834521
527.118545	-2.996300	3.735100	-11.189000	23.880736	0.001024	20.835149
528.116788	-2.987700	3.734500	-11.156000	23.869161	0.001023	20.839662
529.120550	-3.005200	3.734700	-11.223000	23.871850	0.001024	20.839515
530.118169	-3.018000	3.733200	-11.266000	23.898208	0.001023	20.828486
531.117980	-3.007900	3.735300	-11.234000	23.891643	0.001025	20.831386
532.118715	-3.003200	3.734000	-11.213000	23.910833	0.001023	20.825499
533.121408	-3.001800	3.734100	-11.209000	23.900283	0.001024	20.832938
534.118299	-3.018600	3.734300	-11.270000	23.918896	0.001024	20.846860
535.118967	-2.981800	3.734400	-11.134000	23.931294	0.001023	20.840801
536.120933	-3.013400	3.732900	-11.248000	23.975409	0.001023	20.831934
537.120379	-2.998800	3.733600	-11.195000	23.970348	0.001025	20.847722
538.125661	-2.999800	3.731700	-11.194000	23.991153	0.001026	20.850092
539.121169	-3.008200	3.731300	-11.223000	23.967788	0.001025	20.857007
540.122060	-3.013200	3.730600	-11.240000	23.980382	0.001024	20.833128
541.122354	-2.984400	3.732600	-11.139000	23.985583	0.001023	20.838818
542.125164	-2.972400	3.731200	-11.089000	23.987849	0.001025	20.841564
543.120872	-3.015700	3.730500	-11.249000	24.027497	0.001022	20.847186
544.122860	-3.013500	3.728700	-11.235000	24.030309	0.001024	20.854273
545.126718	-2.991900	3.729400	-11.156000	24.060592	0.001024	20.832013
546.123684	-2.973100	3.730300	-11.089000	24.041804	0.001024	20.822654
547.122005	-2.981200	3.730900	-11.121000	24.030757	0.001023	20.846188
548.123450	-3.002400	3.727800	-11.191000	24.003789	0.001025	20.854704
549.127076	-3.000600	3.729200	-11.189000	23.999490	0.001023	20.860350
550.124594	-2.986600	3.728700	-11.135000	24.018599	0.001022	20.840159
551.124485	-3.003500	3.727900	-11.196000	24.037333	0.001026	20.843774
552.125506	-3.000500	3.727800	-11.185000	24.037486	0.001024	20.834919
553.125562	-2.983200	3.728100	-11.121000	24.060254	0.001025	20.861545
554.126145	-2.988400	3.727300	-11.138000	24.061728	0.001023	20.857807
555.126128	-3.006300	3.726600	-11.202000	24.050086	0.001025	20.841391
556.128735	-3.007700	3.727100	-11.209000	24.082536	0.001025	20.851649
557.124201	-2.998600	3.727200	-11.175000	24.090100	0.001024	20.855442
558.126875	-2.977400	3.726900	-11.096000	24.101048	0.001026	20.828964
559.129824	-2.980000	3.727300	-11.106000	24.121947	0.001027	20.857037
560.128147	-3.004500	3.725300	-11.192000	24.127025	0.001026	20.859758
561.127073	-2.984300	3.724500	-11.114000	24.107095	0.001028	20.867271
562.127674	-2.981400	3.725100	-11.104000	24.139562	0.001026	20.850996
563.127291	-3.001600	3.724200	-11.177000	24.126700	0.001028	20.851372
564.126433	-3.004300	3.724600	-11.189000	24.122666	0.001027	20.853964
565.130404	-2.997200	3.724500	-11.162000	24.112290	0.001027	20.852093
566.126990	-2.981500	3.724300	-11.103000	24.123090	0.001026	20.863398
567.130083	-2.996500	3.722400	-11.153000	24.112462	0.001024	20.868859
568.132327	-2.990100	3.722400	-11.129000	24.118233	0.001026	20.868484
569.129547	-2.996600	3.722400	-11.152000	24.146420	0.001024	20.862616
570.127820	-3.011200	3.721100	-11.204000	24.153812	0.001024	20.875245
571.129789	-2.980100	3.722900	-11.094000	24.142037	0.001026	20.859168
572.129179	-2.985700	3.720700	-11.108000	24.165472	0.001026	20.865603
573.130463	-3.025900	3.720500	-11.256000	24.156680	0.001024	20.861527
574.127329	-3.020400	3.721000	-11.238000	24.170568	0.001025	20.851748
575.129713	-3.011200	3.720400	-11.201000	24.175866	0.001026	20.866545
576.127773	-3.019200	3.720200	-11.231000	24.170857	0.001024	20.881434
577.130360	-3.009900	3.719600	-11.194000	24.179243	0.001024	20.891741
578.129826	-3.008000	3.719700	-11.187000	24.206133	0.001025	20.875566
579.128280	-3.029800	3.718800	-11.266000	24.218694	0.001024	20.870622
580.132569	-2.995900	3.720500	-11.145000	24.180625	0.001022	20.895972
581.129054	-3.006900	3.718500	-11.181000	24.176094	0.001025	20.854920
582.131762	-3.002600	3.718800	-11.165000	24.152764	0.001023	20.876090
583.130553	-2.991300	3.718700	-11.123000	24.116602	0.001023	20.885812
584.129278	-3.009700	3.718500	-11.190000	24.103162	0.001025	20.865222
585.131823	-3.000300	3.719300	-11.158000	24.080616	0.001024	20.882913
586.132078	-3.009100	3.718300	-11.187000	24.061852	0.001023	20.865518
587.132684	-3.007600	3.717300	-11.179000	24.074016	0.001026	20.881509
588.131226	-3.002900	3.716700	-11.161000	24.113526	0.001026	20.887469
589.130598	-3.013800	3.715900	-11.198000	24.113305	0.001025	20.868757
590.135345	-2.988200	3.716400	-11.105000	24.126813	0.001024	20.882778
591.136965	-3.008200	3.715400	-11.176000	24.152439	0.001023	20.880980
592.129632	-2.997500	3.715500	-11.137000	24.175432	0.001024	20.878437
593.131765	-3.019100	3.714900	-11.215000	24.205183	0.001023	20.873191
594.132906	-2.995200	3.715400	-11.127000	24.224362	0.001021	20.854971
595.135048	-3.017100	3.714300	-11.204000	24.231103	0.001025	20.883067
596.137575	-3.024000	3.714200	-11.230000	24.241792	0.001027	20.860125
597.133398	-3.000600	3.714500	-11.145000	24.236843	0.001025	20.861326
598.137470	-3.004800	3.713500	-11.157000	24.264113	0.001025	20.857859
599.134749	-2.979800	3.714400	-11.067000	24.243382	0.001025	20.859824
600.136528	-3.014000	3.713400	-11.191000	24.266882	0.001026	20.852103
601.135811	-2.997100	3.713300	-11.128000	24.261781	0.001025	20.868321
602.135195	-2.989900	3.712900	-11.100000	24.260092	0.001025	20.866154
603.136319	-2.978400	3.713100	-11.058000	24.240602	0.001025	20.867466
604.135608	-2.999300	3.712400	-11.132000	24.225303	0.001023	20.854018
605.136770	-3.005900	3.710600	-11.152000	24.204823	0.001021	20.841063
606.135317	-3.018000	3.711500	-11.200000	24.211208	0.001021	20.868803
607.139502	-3.003300	3.711200	-11.145000	24.196302	0.001022	20.868550
608.141145	-2.977700	3.711900	-11.052000	24.211374	0.001022	20.879400
609.139639	-2.991600	3.712900	-11.106000	24.225108	0.001021	20.850503
610.137043	-2.987300	3.711300	-11.086000	24.256503	0.001023	20.867769
611.138996	-2.988500	3.711300	-11.090000	24.264085	0.001023	20.863046
612.138417	-2.995500	3.709300	-11.111000	24.303165	0.001021	20.865263
613.140624	-2.989200	3.709500	-11.088000	24.324337	0.001021	20.862320
614.138862	-3.002600	3.709300	-11.137000	24.323110	0.001022	20.833589
615.140264	-2.989500	3.709400	-11.089000	24.313459	0.001022	20.864211
616.140233	-3.022000	3.708100	-11.204000	24.328677	0.001021	20.851028
617.140634	-3.016400	3.708000	-11.183000	24.336639	0.001020	20.873712
618.138422	-3.014000	3.707500	-11.173000	24.348155	0.001021	20.857290
619.138500	-2.980900	3.708800	-11.055000	24.378110	0.001022	20.848460
620.137960	-2.990900	3.708600	-11.090000	24.407684	0.001020	20.838774
621.137650	-2.978900	3.708700	-11.045000	24.431954	0.001020	20.856958
622.141138	-3.018500	3.707800	-11.190000	24.414117	0.001020	20.841909
623.140248	-3.017700	3.706300	-11.183000	24.416904	0.001020	20.851816
624.144174	-2.987600	3.706400	-11.072000	24.382082	0.001021	20.854815
625.139124	-2.974100	3.708300	-11.028000	24.400356	0.001020	20.849914
626.140257	-3.005800	3.704700	-11.134000	24.373194	0.001020	20.861071
627.143112	-2.988100	3.708200	-11.079000	24.385557	0.001020	20.836016
628.140644	-2.993000	3.705700	-11.090000	24.395753	0.001018	20.841503
629.141788	-2.973200	3.706000	-11.018000	24.411724	0.001018	20.841878
630.139315	-2.989600	3.704500	-11.074000	24.387472	0.001017	20.848843
631.140728	-2.977600	3.705500	-11.033000	24.379934	0.001019	20.851238
632.140075	-3.002500	3.703900	-11.120000	24.368738	0.001017	20.841903
633.143766	-2.999500	3.702900	-11.106000	24.370003	0.001016	20.855499
634.142601	-2.996800	3.704000	-11.099000	24.379382	0.001018	20.848313
635.151752	-2.999200	3.702900	-11.104000	24.378786	0.001018	20.829699
636.142342	-2.991000	3.702900	-11.074000	24.354804	0.001016	20.840253
637.144199	-2.997200	3.702400	-11.096000	24.340422	0.001017	20.840524
638.146632	-2.993100	3.703100	-11.082000	24.298655	0.001017	20.840352
639.147460	-2.978700	3.702400	-11.027000	24.279649	0.001018	20.821287
640.146887	-2.979000	3.703100	-11.029000	24.277384	0.001020	20.824705
641.144528	-2.996400	3.701100	-11.090000	24.264867	0.001018	20.834434
642.143820	-2.987100	3.701000	-11.053000	24.294597	0.001018	20.851454
643.143697	-3.004000	3.700100	-11.114000	24.321963	0.001017	20.854249
644.142323	-3.004200	3.699600	-11.112000	24.292706	0.001018	20.834859
645.147494	-3.003100	3.699600	-11.110000	24.264069	0.001017	20.850229
646.144078	-2.979900	3.701100	-11.028000	24.270392	0.001017	20.830019
647.151404	-3.019700	3.698500	-11.166000	24.287458	0.001016	20.827224
648.147429	-3.004500	3.699000	-11.112000	24.297685	0.001016	20.834163
649.149394	-2.990800	3.699100	-11.062000	24.280244	0.001017	20.845118
650.148293	-3.033100	3.698500	-11.217000	24.292264	0.001014	20.824459
651.148000	-2.989100	3.699500	-11.057000	24.327586	0.001015	20.836183
652.145932	-3.002300	3.697200	-11.098000	24.356388	0.001016	20.831411
653.151867	-3.001100	3.698800	-11.099000	24.359574	0.001015	20.837452
654.151526	-3.008000	3.698700	-11.124000	24.372691	0.001018	20.821214
655.151813	-3.013900	3.697300	-11.142000	24.384551	0.001016	20.836430
656.151096	-3.016300	3.696200	-11.148000	24.355050	0.001014	20.824853
657.148993	-2.994300	3.698100	-11.073000	24.383157	0.001016	20.833609
658.153061	-2.978300	3.696400	-11.008000	24.389498	0.001015	20.836651
659.152336	-2.998000	3.696000	-11.080000	24.366289	0.001014	20.822852
660.153355	-2.987100	3.696300	-11.040000	24.387780	0.001015	20.815488
661.150255	-2.977800	3.696500	-11.007000	24.383851	0.001015	20.832883
662.151922	-3.005800	3.694300	-11.104000	24.407551	0.001014	20.817304
663.150169	-2.990100	3.695900	-11.050000	24.375436	0.001014	20.823967
664.152538	-3.018400	3.694500	-11.150000	24.390039	0.001013	20.820599
665.155117	-2.998600	3.695500	-11.079000	24.415285	0.001013	20.829330
666.154905	-3.001600	3.694600	-11.088000	24.411081	0.001014	20.835069
667.160216	-2.988500	3.693500	-11.037000	24.404409	0.001014	20.835014
668.156024	-3.010900	3.694000	-11.121000	24.364179	0.001016	20.810778
669.155254	-3.013500	3.692100	-11.125000	24.351792	0.001013	20.822533
670.160784	-2.997800	3.693300	-11.070000	24.316379	0.001014	20.814510
671.155842	-3.022300	3.692100	-11.157000	24.335942	0.001013	20.817539
672.156472	-2.984800	3.693200	-11.022000	24.303052	0.001012	20.840021
673.157446	-3.002000	3.692000	-11.083000	24.301284	0.001011	20.821653
674.158266	-2.993800	3.690700	-11.048000	24.317871	0.001013	20.813636
675.158318	-2.976300	3.691900	-10.987000	24.320683	0.001011	20.829258
676.163701	-2.971100	3.691000	-10.964000	24.342469	0.001010	20.819345
677.162208	-2.990800	3.690300	-11.035000	24.352493	0.001011	20.811383
678.158298	-3.002300	3.690600	-11.079000	24.364610	0.001010	20.799831
679.160008	-2.982800	3.691300	-11.010000	24.394903	0.001010	20.833538
680.166273	-3.009700	3.689100	-11.103000	24.405025	0.001009	20.818563
681.163486	-3.005100	3.689800	-11.087000	24.399304	0.001010	20.809979
682.160638	-3.001600	3.690000	-11.075000	24.396910	0.001010	20.831759
683.161221	-3.002700	3.689100	-11.076000	24.398033	0.001010	20.814394
684.162164	-2.983100	3.688500	-11.001000	24.436759	0.001009	20.814364
685.167458	-3.002500	3.688000	-11.072000	24.427650	0.001008	20.814235
686.166826	-3.022500	3.687300	-11.143000	24.447126	0.001010	20.829032
687.161505	-2.996700	3.687400	-11.049000	24.475016	0.001009	20.794899
688.166883	-3.002000	3.688400	-11.071000	24.493620	0.001009	20.822572
689.163129	-2.995500	3.688700	-11.049000	24.521926	0.001008	20.797867
690.166075	-3.018400	3.686000	-11.125000	24.530077	0.001008	20.819322
691.162856	-2.979300	3.685700	-10.980000	24.529604	0.001008	20.808416
692.164647	-3.008200	3.687100	-11.091000	24.545181	0.001007	20.804130
693.164111	-3.012900	3.686500	-11.106000	24.547740	0.001005	20.789628
694.164495	-2.992900	3.687400	-11.034000	24.546752	0.001010	20.815189
695.163999	-3.009000	3.685900	-11.089000	24.515856	0.001008	20.806002
696.165472	-3.021000	3.684200	-11.128000	24.519189	0.001007	20.811242
697.168705	-3.000800	3.685700	-11.058000	24.527935	0.001006	20.812431
698.165457	-2.984700	3.685700	-11.000000	24.540750	0.001005	20.782140
699.167198	-2.992600	3.686300	-11.030000	24.533495	0.001007	20.798569
700.163912	-3.005800	3.684500	-11.073000	24.565053	0.001006	20.808896
701.164734	-3.019000	3.683500	-11.119000	24.530727	0.001006	20.819974
702.167766	-3.008000	3.683200	-11.077000	24.526075	0.001005	20.821470
703.164669	-2.990400	3.682700	-11.010000	24.483419	0.001004	20.801907
704.165264	-3.008300	3.682700	-11.077000	24.486721	0.001005	20.816600
705.164457	-2.992100	3.681100	-11.013000	24.480559	0.001006	20.816107
706.165287	-3.014400	3.682700	-11.100000	24.491379	0.001006	20.804204
707.165196	-2.991700	3.683300	-11.018000	24.515642	0.001002	20.795830
708.166148	-3.022000	3.681200	-11.122000	24.558088	0.001005	20.788157
709.164976	-2.986200	3.681900	-10.993000	24.553884	0.001004	20.799586
710.168153	-2.998400	3.681600	-11.038000	24.569276	0.001004	20.800805
711.166000	-3.004100	3.681400	-11.058000	24.541419	0.001004	20.804623
712.166668	-2.995800	3.681200	-11.027000	24.539878	0.001003	20.779369
713.167717	-2.975100	3.681800	-10.953000	24.552730	0.001004	20.797006
714.171551	-3.003300	3.681200	-11.054000	24.562709	0.001003	20.786630
715.169829	-2.990100	3.679500	-11.001000	24.576138	0.001002	20.786827
716.166514	-3.012500	3.679300	-11.083000	24.573701	0.001002	20.782486
717.167100	-2.996900	3.678000	-11.022000	24.589995	0.001002	20.775127
718.172694	-3.027300	3.678800	-11.136000	24.606234	0.001002	20.789050
719.167776	-3.019600	3.677900	-11.104000	24.642988	0.001003	20.783256
720.167909	-2.998000	3.678900	-11.029000	24.628763	0.001001	20.790793
721.167798	-2.988300	3.678500	-10.991000	24.644731	0.001003	20.795436
722.170845	-2.988900	3.677500	-10.991000	24.620533	0.000999	20.810036
723.169048	-2.989200	3.677200	-10.990000	24.623295	0.001001	20.772029
724.171955	-2.999200	3.677800	-11.030000	24.620006	0.001001	20.782006
725.169342	-3.004300	3.676400	-11.044000	24.607192	0.001000	20.811348
726.175402	-3.012200	3.677000	-11.074000	24.604952	0.001000	20.777332
727.170186	-2.995700	3.676400	-11.012000	24.600724	0.001000	20.809599
728.168777	-2.999800	3.676100	-11.027000	24.612114	0.000997	20.794476
729.170838	-3.000100	3.676500	-11.028000	24.610868	0.000998	20.802235
730.173523	-2.960700	3.677600	-10.886000	24.616312	0.001000	20.779248
731.170841	-2.997600	3.674800	-11.014000	24.624481	0.000998	20.812575
732.170929	-2.997400	3.676800	-11.020000	24.617577	0.000997	20.781939
733.171484	-2.995300	3.675500	-11.008000	24.586757	0.000997	20.770455
734.173307	-2.996700	3.674600	-11.011000	24.592673	0.000998	20.772598
735.170017	-2.999100	3.674100	-11.018000	24.587156	0.000998	20.785554
736.170891	-3.006000	3.673400	-11.040000	24.586106	0.000998	20.763164
737.172127	-2.977400	3.674600	-10.937000	24.552150	0.000997	20.786466
738.172020	-2.998500	3.674000	-11.016000	24.586715	0.000999	20.752869
739.178078	-2.986200	3.673600	-10.969000	24.570924	0.000997	20.772112
740.174158	-2.978400	3.674100	-10.941000	24.573975	0.000994	20.772329
741.172241	-2.988100	3.671900	-10.971000	24.590072	0.000997	20.780894
742.172142	-3.001500	3.670800	-11.017000	24.637695	0.000997	20.771306
743.173806	-3.012600	3.670500	-11.057000	24.658284	0.000995	20.776793
744.171234	-3.019000	3.670500	-11.080000	24.676879	0.000995	20.790237
745.191029	-2.984100	3.671200	-10.954000	24.689809	0.000995	20.779029
746.172992	-2.983400	3.672600	-10.956000	24.696271	0.000993	20.774134
747.172670	-2.990800	3.671600	-10.979000	24.716436	0.000994	20.764971
748.173329	-2.995300	3.670100	-10.993000	24.703500	0.000995	20.774751
749.173589	-3.004600	3.670800	-11.029000	24.721302	0.000992	20.783606
750.178944	-2.997800	3.669500	-11.000000	24.721696	0.000995	20.783526
751.172429	-3.008600	3.669400	-11.039000	24.702501	0.000993	20.773747
752.176401	-3.012100	3.668800	-11.050000	24.709779	0.000993	20.768723
753.173406	-3.024100	3.668300	-11.092000	24.704428	0.000992	20.762405
754.177042	-2.994900	3.668400	-10.986000	24.721629	0.000993	20.781089
755.176193	-3.014400	3.667300	-11.054000	24.719120	0.000990	20.774303
756.175030	-3.001300	3.668800	-11.011000	24.690641	0.000991	20.781761
757.175634	-3.003000	3.667000	-11.011000	24.728638	0.000993	20.789070
758.178144	-3.001600	3.666900	-11.005000	24.751563	0.000991	20.786946
759.178164	-2.993600	3.668000	-10.978000	24.760092	0.000991	20.767530
760.177309	-3.004500	3.666200	-11.014000	24.754146	0.000989	20.762512
761.177518	-3.004500	3.667300	-11.016000	24.769708	0.000990	20.773861
762.178848	-2.993400	3.667200	-10.976000	24.768315	0.000991	20.749229
763.176975	-2.995300	3.666000	-10.980000	24.758663	0.000989	20.776054
764.178226	-3.002700	3.664800	-11.003000	24.757099	0.000989	20.768793
765.178368	-2.985500	3.665400	-10.942000	24.727848	0.000990	20.768837
766.179574	-2.989300	3.665000	-10.953000	24.713618	0.000988	20.754083
767.178329	-2.979500	3.665700	-10.920000	24.682402	0.000989	20.766381
768.181556	-2.999100	3.666300	-10.993000	24.725381	0.000989	20.763043
769.180876	-2.977000	3.666900	-10.915000	24.730248	0.000988	20.754650
770.178589	-2.994100	3.664400	-10.971000	24.742079	0.000987	20.774110
771.179991	-3.003400	3.663900	-11.003000	24.772116	0.000987	20.770114
772.179381	-3.012800	3.663400	-11.035000	24.749713	0.000988	20.756165
773.178426	-3.000100	3.663800	-10.990000	24.685876	0.000987	20.749004
774.180250	-3.004100	3.662600	-11.002000	24.704930	0.000987	20.749631
775.180460	-2.995900	3.661000	-10.966000	24.709226	0.000986	20.748253
776.180968	-2.993100	3.662500	-10.961000	24.747031	0.000984	20.755371
777.183820	-3.005900	3.662900	-11.008000	24.777510	0.000986	20.741861
778.181199	-2.982300	3.661500	-10.918000	24.777032	0.000985	20.761770
779.180743	-3.005900	3.662000	-11.006000	24.774926	0.000985	20.747329
780.179882	-2.986900	3.661500	-10.936000	24.800287	0.000983	20.750020
781.180327	-3.001100	3.662700	-10.990000	24.785069	0.000986	20.744706
782.181635	-2.999600	3.660400	-10.979000	24.802974	0.000984	20.757933
783.180500	-3.011300	3.661200	-11.025000	24.832389	0.000985	20.745728
784.180282	-2.993000	3.661300	-10.957000	24.807619	0.000982	20.755483
785.179987	-3.032400	3.658600	-11.093000	24.836396	0.000983	20.754491
786.181238	-2.990500	3.658600	-10.940000	24.805066	0.000985	20.764775
787.182230	-2.990400	3.659600	-10.943000	24.807871	0.000983	20.782762
788.179834	-2.998400	3.659800	-10.973000	24.773258	0.000983	20.766043
789.184018	-3.005500	3.658200	-10.992000	24.780749	0.000983	20.754595
790.180493	-2.983800	3.658000	-10.914000	24.808693	0.000982	20.734274
791.181873	-3.006700	3.658300	-10.998000	24.791015	0.000982	20.760156
792.181226	-2.994200	3.658200	-10.952000	24.752228	0.000982	20.765802
793.182876	-3.026600	3.656000	-11.063000	24.738097	0.000980	20.768691
794.182594	-3.025000	3.655700	-11.057000	24.701911	0.000979	20.731903
795.184876	-2.991700	3.656600	-10.937000	24.702654	0.000981	20.762995
796.184494	-3.030100	3.654900	-11.074000	24.699696	0.000979	20.746750
797.184003	-3.005400	3.657300	-10.991000	24.716037	0.000979	20.760778
798.187808	-2.998000	3.656500	-10.960000	24.738490	0.000977	20.752016
799.184085	-3.001300	3.654800	-10.968000	24.708146	0.000977	20.753808
800.187702	-2.995800	3.654800	-10.948000	24.710859	0.000979	20.774074
801.187260	-2.993600	3.655500	-10.941000	24.700857	0.000980	20.748863
802.185999	-2.970200	3.656400	-10.859000	24.702225	0.000979	20.768729
803.192234	-2.994300	3.654300	-10.941000	24.682158	0.000978	20.746695
804.189251	-2.998400	3.654400	-10.956000	24.693572	0.000976	20.732544
805.188900	-3.001200	3.654200	-10.966000	24.689271	0.000977	20.737237
806.189564	-2.997900	3.653300	-10.951000	24.675592	0.000977	20.754332
807.188549	-2.981700	3.653900	-10.894000	24.687749	0.000978	20.765108
808.189627	-3.021600	3.651300	-11.032000	24.703195	0.000977	20.757848
809.191107	-3.007700	3.651900	-10.982000	24.675193	0.000976	20.745396
810.189628	-2.968600	3.653900	-10.846000	24.670272	0.000976	20.751837
811.193634	-3.005000	3.651600	-10.971000	24.655446	0.000974	20.730795
812.191586	-3.017400	3.651400	-11.016000	24.655053	0.000974	20.754584
813.193638	-3.003900	3.651200	-10.966000	24.668204	0.000975	20.771100
814.195148	-3.002300	3.651000	-10.959000	24.637115	0.000973	20.726152
815.194162	-3.010900	3.651400	-10.993000	24.632114	0.000974	20.744842
816.193872	-3.015300	3.651000	-11.007000	24.644351	0.000975	20.740526
817.197977	-2.995700	3.653200	-10.942000	24.667652	0.000973	20.738303
818.195002	-3.009300	3.649400	-10.981000	24.672702	0.000973	20.733413
819.195934	-2.985800	3.651600	-10.901000	24.693641	0.000972	20.784771
820.201282	-2.991800	3.651000	-10.921000	24.701206	0.000972	20.749688
821.197781	-3.016400	3.649400	-11.007000	24.693297	0.000971	20.763563
822.198148	-2.996000	3.649100	-10.930000	24.677452	0.000972	20.744818
823.199756	-3.000200	3.648700	-10.946000	24.673126	0.000970	20.731941
824.198069	-2.995900	3.649800	-10.933000	24.723414	0.000972	20.745895
825.201495	-2.950000	3.650500	-10.767000	24.738632	0.000969	20.738407
826.199186	-2.992400	3.649200	-10.919000	24.759594	0.000971	20.757072
827.199346	-3.008700	3.648100	-10.975000	24.759121	0.000971	20.762762
828.199433	-3.005900	3.648600	-10.967000	24.772105	0.000972	20.750187
829.199327	-2.983000	3.648800	-10.884000	24.761213	0.000970	20.742102
830.206764	-2.978800	3.650000	-10.872000	24.742958	0.000970	20.749387
831.199943	-2.974800	3.648700	-10.854000	24.719781	0.000970	20.756949
832.204169	-3.028900	3.646300	-11.042000	24.741743	0.000968	20.749116
833.201362	-2.994100	3.646100	-10.916000	24.773197	0.000969	20.742748
834.199568	-3.002100	3.646700	-10.947000	24.758703	0.000969	20.758076
835.204834	-3.005300	3.646500	-10.957000	24.741270	0.000968	20.756702
836.203660	-2.995200	3.646500	-10.921000	24.715805	0.000969	20.755803
837.203544	-2.992200	3.646200	-10.909000	24.711700	0.000970	20.753580
838.204298	-3.013000	3.643900	-10.978000	24.762306	0.000967	20.754104
839.204908	-2.995900	3.644100	-10.916000	24.762704	0.000967	20.747866
840.205741	-3.025700	3.644300	-11.025000	24.754347	0.000965	20.759868
841.208112	-3.010900	3.643200	-10.969000	24.760238	0.000966	20.770522
842.204786	-3.000500	3.643900	-10.932000	24.782021	0.000967	20.755872
843.205930	-3.001600	3.643200	-10.935000	24.816112	0.000966	20.749781
844.204994	-3.020700	3.641700	-10.999000	24.787046	0.000965	20.754751
845.204867	-2.998700	3.642800	-10.923000	24.824838	0.000964	20.753797
846.213951	-2.994700	3.642300	-10.906000	24.801362	0.000965	20.749677
847.205121	-3.008500	3.642900	-10.958000	24.805344	0.000964	20.753199
848.207129	-3.020400	3.642400	-11.000000	24.808523	0.000966	20.748803
849.205262	-2.990900	3.641800	-10.891000	24.820856	0.000963	20.748378
850.205127	-2.994900	3.641300	-10.904000	24.815107	0.000966	20.756833
851.207791	-3.011300	3.640300	-10.961000	24.815733	0.000963	20.762677
852.204565	-3.014600	3.640700	-10.974000	24.805363	0.000964	20.746106
853.205802	-3.001200	3.641600	-10.927000	24.803394	0.000963	20.770209
854.205688	-3.019800	3.639400	-10.989000	24.778230	0.000962	20.758231
855.205585	-2.994300	3.640500	-10.900000	24.823833	0.000964	20.751840
856.205594	-3.002600	3.639500	-10.926000	24.849842	0.000960	20.747122
857.205989	-2.998100	3.638900	-10.908000	24.855781	0.000963	20.748342
858.205101	-3.008800	3.639000	-10.948000	24.884704	0.000962	20.745601
859.208658	-3.001400	3.637300	-10.916000	24.893846	0.000961	20.729172
860.206099	-2.979900	3.638200	-10.840000	24.908694	0.000960	20.765412
861.205890	-2.989500	3.638900	-10.877000	24.916774	0.000959	20.762617
862.208992	-3.011600	3.637300	-10.953000	24.922664	0.000959	20.762838
863.205788	-2.983300	3.637800	-10.852000	24.906719	0.000959	20.751576
864.209517	-3.001100	3.637000	-10.914000	24.917486	0.000957	20.760013
865.206682	-2.979400	3.637100	-10.836000	24.916744	0.000959	20.738403
866.205945	-2.986200	3.637400	-10.861000	24.909357	0.000959	20.756121
867.208840	-3.002100	3.637000	-10.917000	24.912787	0.000959	20.750554
868.208034	-2.996100	3.636700	-10.895000	24.916763	0.000958	20.762131
869.208412	-3.005600	3.635900	-10.926000	24.871281	0.000958	20.752045
870.206614	-2.999000	3.636000	-10.903000	24.873870	0.000956	20.754169
871.206881	-3.015600	3.634300	-10.958000	24.867680	0.000956	20.771190
872.207745	-3.002400	3.633700	-10.909000	24.871208	0.000957	20.772834
873.207828	-3.011000	3.633600	-10.940000	24.877049	0.000958	20.782016
874.208292	-2.978900	3.636100	-10.830000	24.858225	0.000956	20.765020
875.207552	-3.005200	3.634300	-10.921000	24.897511	0.000957	20.760826
876.209057	-3.003900	3.633600	-10.914000	24.895542	0.000957	20.761221
877.209394	-2.974600	3.633700	-10.808000	24.931077	0.000955	20.762274
878.210249	-2.993300	3.633600	-10.876000	24.963342	0.000954	20.763838
879.208655	-2.999400	3.634700	-10.900000	24.955459	0.000954	20.747865
880.210181	-3.019200	3.631200	-10.962000	24.988906	0.000954	20.752513
881.209964	-2.971600	3.632900	-10.794000	24.959465	0.000952	20.769430
882.211095	-2.985000	3.632400	-10.842000	24.948072	0.000953	20.766056
883.213581	-3.013200	3.630800	-10.940000	24.917789	0.000953	20.760316
884.213522	-2.980200	3.632700	-10.824000	24.893818	0.000953	20.774665
885.214643	-3.012600	3.631200	-10.939000	24.882756	0.000951	20.751707
886.213361	-2.997000	3.631400	-10.882000	24.906954	0.000952	20.784529
887.212759	-2.991700	3.631700	-10.863000	24.930839	0.000953	20.780053
888.215787	-2.994900	3.630500	-10.871000	24.930053	0.000950	20.777841
889.215813	-3.017500	3.630000	-10.952000	24.958146	0.000953	20.776167
890.213753	-3.012800	3.629200	-10.933000	24.954661	0.000949	20.760815
891.214045	-3.017400	3.628500	-10.947000	24.939594	0.000951	20.774615
892.215432	-2.990200	3.630000	-10.854000	24.947127	0.000951	20.778384
893.218003	-2.990700	3.629200	-10.851000	24.950582	0.000950	20.763359
894.213073	-2.978800	3.628500	-10.808000	24.932606	0.000948	20.775188
895.214250	-2.994400	3.628100	-10.863000	24.945041	0.000949	20.780083
896.216595	-2.997300	3.627900	-10.873000	24.956925	0.000948	20.786321
897.217383	-2.996500	3.628300	-10.870000	24.982563	0.000946	20.784079
898.222933	-3.011200	3.625800	-10.916000	24.964857	0.000948	20.799499
899.216929	-3.008200	3.628300	-10.912000	24.950311	0.000945	20.794382
900.221981	-2.995200	3.627300	-10.862000	24.916789	0.000945	20.769745
901.219820	-3.001600	3.625700	-10.882000	24.930397	0.000946	20.778661
902.219429	-3.021200	3.624600	-10.949000	24.933723	0.000946	20.785318
903.222243	-3.012200	3.626600	-10.922000	24.947201	0.000945	20.783200
904.223716	-2.993500	3.626800	-10.856000	24.956152	0.000944	20.795977
905.221635	-3.005600	3.626000	-10.897000	25.014255	0.000943	20.782227
906.221358	-3.014500	3.626100	-10.930000	25.041328	0.000945	20.784745
907.221122	-2.976100	3.627100	-10.792000	25.038322	0.000945	20.784099
908.221309	-2.999200	3.624900	-10.869000	25.043965	0.000943	20.792609
909.226182	-2.992600	3.624400	-10.846000	25.053088	0.000944	20.787067
910.220887	-2.999700	3.624400	-10.871000	25.080331	0.000944	20.782646
911.227362	-3.000400	3.623000	-10.869000	25.104745	0.000942	20.766850
912.223101	-3.007500	3.623000	-10.895000	25.108800	0.000942	20.770446
913.221421	-2.998800	3.624100	-10.867000	25.109228	0.000943	20.777989
914.226424	-3.000200	3.624000	-10.871000	25.093887	0.000941	20.794357
915.221893	-3.007200	3.621700	-10.889000	25.098911	0.000941	20.779960
916.221725	-3.012400	3.621300	-10.907000	25.072509	0.000940	20.771474
917.222546	-2.994100	3.623300	-10.847000	25.094059	0.000941	20.790263
918.224046	-3.009900	3.622100	-10.901000	25.129981	0.000938	20.787442
919.224609	-2.996000	3.622400	-10.851000	25.121981	0.000940	20.792688
920.226086	-2.999600	3.622000	-10.863000	25.093991	0.000940	20.794936
921.223972	-3.009400	3.621300	-10.897000	25.131600	0.000940	20.775791
922.226861	-2.997800	3.620100	-10.851000	25.152283	0.000938	20.781857
923.225285	-3.031000	3.619100	-10.969000	25.123993	0.000939	20.793760
924.224472	-2.988400	3.620000	-10.817000	25.096524	0.000940	20.784203
925.231186	-2.996900	3.621000	-10.850000	25.101180	0.000938	20.786031
926.229065	-2.999400	3.619100	-10.852000	25.084121	0.000938	20.768906
927.227146	-3.006600	3.619800	-10.881000	25.065374	0.000936	20.802245
928.225387	-2.989300	3.619800	-10.820000	25.105351	0.000937	20.803495
929.225725	-2.994700	3.620200	-10.839000	25.082698	0.000934	20.786919
930.226910	-3.025100	3.616900	-10.940000	25.070251	0.000937	20.805718
931.225433	-3.011600	3.617900	-10.895000	25.061601	0.000935	20.799880
932.224704	-3.014300	3.616200	-10.898000	25.053620	0.000937	20.812731
933.225396	-2.988900	3.616900	-10.810000	25.086881	0.000936	20.781161
934.224732	-3.006200	3.616300	-10.870000	25.096112	0.000933	20.807971
935.224970	-3.005000	3.616700	-10.866000	25.100107	0.000934	20.794911
936.226063	-3.007900	3.616900	-10.878000	25.115172	0.000932	20.811931
937.226093	-3.015700	3.615700	-10.903000	25.155988	0.000935	20.785576
938.225894	-3.034200	3.614100	-10.964000	25.180867	0.000934	20.788741
939.226020	-3.003000	3.616500	-10.859000	25.189650	0.000934	20.795662
940.226309	-2.989600	3.617000	-10.813000	25.202948	0.000932	20.813754
941.229866	-3.007100	3.615700	-10.872000	25.212511	0.000933	20.806759
942.225674	-3.012700	3.615100	-10.890000	25.196287	0.000931	20.807066
943.227258	-3.008000	3.614000	-10.870000	25.177174	0.000930	20.812534
944.226383	-3.018500	3.614300	-10.909000	25.204610	0.000931	20.820638
945.228907	-3.001000	3.612900	-10.842000	25.184234	0.000930	20.812035
946.229052	-3.008000	3.614200	-10.870000	25.164274	0.000930	20.793894
947.226153	-3.005500	3.612600	-10.855000	25.121834	0.000929	20.803920
948.226377	-3.009500	3.613500	-10.874000	25.120570	0.000931	20.787004
949.226959	-3.004000	3.613400	-10.854000	25.139659	0.000929	20.800003
950.226989	-3.015000	3.612200	-10.889000	25.174960	0.000928	20.808889
951.229686	-3.018400	3.611800	-10.900000	25.182019	0.000928	20.812183
952.227838	-2.990900	3.611300	-10.800000	25.192858	0.000929	20.809788
953.232634	-3.000600	3.612200	-10.837000	25.208321	0.000926	20.813932
954.227274	-2.992800	3.612000	-10.809000	25.202929	0.000928	20.802829
955.229003	-3.009900	3.609700	-10.864000	25.193226	0.000927	20.811106
956.233160	-3.025500	3.608800	-10.916000	25.176278	0.000927	20.793143
957.227130	-3.016400	3.609200	-10.886000	25.199071	0.000927	20.819345
958.230978	-2.975500	3.611400	-10.745000	25.242974	0.000925	20.807472
959.228618	-3.000200	3.610100	-10.830000	25.249930	0.000922	20.814455
960.228337	-2.992100	3.610200	-10.801000	25.270139	0.000924	20.822417
961.231976	-3.010700	3.609900	-10.868000	25.235964	0.000925	20.799486
962.231225	-2.986900	3.609800	-10.781000	25.260148	0.000924	20.821395
963.231794	-3.019100	3.607500	-10.890000	25.275329	0.000926	20.804868
964.230363	-3.008700	3.609100	-10.857000	25.303295	0.000923	20.821568
965.231777	-2.971300	3.608800	-10.722000	25.295297	0.000922	20.835348
966.232109	-3.022200	3.608200	-10.902000	25.284785	0.000921	20.820052
967.233361	-2.992800	3.606600	-10.792000	25.277603	0.000922	20.823747
968.230888	-3.014800	3.606000	-10.871000	25.245194	0.000922	20.816813
969.235030	-3.014000	3.605600	-10.866000	25.219563	0.000921	20.826641
970.232358	-2.991900	3.606600	-10.790000	25.194261	0.000921	20.829689
971.232152	-2.991900	3.605600	-10.786000	25.191206	0.000920	20.822354
972.234334	-2.991300	3.605500	-10.785000	25.164015	0.000921	20.831092
973.233237	-2.989100	3.605500	-10.776000	25.195132	0.000919	20.823451
974.234065	-3.013100	3.605900	-10.864000	25.150741	0.000920	20.822982
975.232586	-3.008200	3.605000	-10.842000	25.170854	0.000919	20.816621
976.232102	-3.002200	3.604100	-10.818000	25.183753	0.000918	20.825304
977.238314	-2.998500	3.604800	-10.808000	25.188329	0.000918	20.814724
978.232802	-3.033300	3.602000	-10.925000	25.221763	0.000917	20.804195
979.232646	-2.989800	3.605200	-10.778000	25.235509	0.000917	20.826529
980.235422	-2.979900	3.603500	-10.737000	25.222782	0.000918	20.823709
981.235827	-2.994600	3.602900	-10.788000	25.219132	0.000915	20.830001
982.236120	-3.006600	3.602500	-10.830000	25.213391	0.000914	20.830401
983.237865	-3.001500	3.602300	-10.811000	25.239991	0.000916	20.821072
984.237463	-2.999200	3.601200	-10.800000	25.235097	0.000915	20.824219
985.235979	-3.010500	3.600600	-10.839000	25.224357	0.000914	20.827661
986.237871	-3.005400	3.600700	-10.821000	25.209072	0.000913	20.852617
987.239835	-2.988000	3.601000	-10.758000	25.170221	0.000915	20.826891
988.241657	-2.995400	3.600500	-10.784000	25.147673	0.000916	20.813264
989.238981	-2.980400	3.602400	-10.735000	25.134233	0.000912	20.817315
990.238008	-2.978300	3.602200	-10.728000	25.170723	0.000911	20.831662
991.237544	-2.987400	3.601500	-10.759000	25.163737	0.000911	20.823701
992.239350	-2.989700	3.598100	-10.755000	25.198712	0.000909	20.853122
993.239222	-3.019600	3.598600	-10.866000	25.229459	0.000910	20.855542
994.238925	-2.990600	3.599800	-10.764000	25.218179	0.000911	20.833787
995.237006	-2.996400	3.599200	-10.783000	25.179323	0.000911	20.833184
996.239669	-2.991200	3.600500	-10.768000	25.187652	0.000911	20.820683
997.240135	-2.971800	3.600600	-10.698000	25.212089	0.000909	20.846163
998.239699	-3.016400	3.597700	-10.851000	25.249049	0.000909	20.854821
999.244160	-3.009200	3.596300	-10.820000	25.248381	0.000908	20.838029
1000.242232	-2.988400	3.598400	-10.752000	25.249945	0.000906	20.859039
1001.242119	-2.985900	3.598300	-10.743000	25.266774	0.000907	20.829470
1002.242212	-2.978900	3.597700	-10.716000	25.250619	0.000905	20.843596
1003.243928	-3.009700	3.595500	-10.821000	25.287529	0.000906	20.826601
1004.247140	-3.010600	3.595400	-10.823000	25.284199	0.000904	20.843645
1005.242173	-2.981200	3.597700	-10.724000	25.291135	0.000904	20.852505
1006.245533	-3.015400	3.594600	-10.838000	25.309160	0.000904	20.826033
1007.242781	-2.986800	3.596200	-10.740000	25.320292	0.000903	20.836262
1008.243934	-3.010200	3.593400	-10.815000	25.357647	0.000905	20.839156
1009.247268	-3.000400	3.592700	-10.777000	25.336465	0.000902	20.849181
1010.245006	-3.006200	3.595400	-10.807000	25.353918	0.000903	20.848214
1011.245447	-3.000700	3.593800	-10.783000	25.356230	0.000902	20.865707
1012.244436	-2.996900	3.592800	-10.765000	25.375468	0.000901	20.863213
1013.246294	-2.990500	3.592700	-10.743000	25.392725	0.000903	20.857781
1014.248040	-3.008200	3.593200	-10.808000	25.403004	0.000900	20.831594
1015.246838	-2.984900	3.593000	-10.724000	25.406591	0.000900	20.868385
1016.244833	-3.017200	3.591300	-10.833000	25.401391	0.000901	20.869802
1017.249014	-2.993500	3.591300	-10.749000	25.384201	0.000901	20.845903
1018.243648	-3.002400	3.591200	-10.781000	25.382907	0.000900	20.869733
1019.245185	-2.986200	3.591000	-10.723000	25.344062	0.000898	20.868662
1020.248978	-3.015000	3.590400	-10.824000	25.300518	0.000901	20.852917
1021.245405	-2.987400	3.590000	-10.723000	25.273605	0.000899	20.867146
1022.252185	-3.018300	3.590100	-10.834000	25.290311	0.000899	20.847885
1023.246499	-2.995800	3.590100	-10.755000	25.294335	0.000898	20.855718
1024.248753	-3.011200	3.589000	-10.806000	25.291078	0.000899	20.864776
1025.253027	-3.004000	3.589400	-10.781000	25.299180	0.000898	20.872910
1026.249095	-3.002900	3.588800	-10.775000	25.316260	0.000896	20.856395
1027.248322	-2.992300	3.588700	-10.737000	25.325754	0.000896	20.854548
1028.248940	-3.021300	3.588800	-10.842000	25.318725	0.000896	20.855077
1029.250880	-2.975800	3.589400	-10.680000	25.314672	0.000893	20.853378
1030.248047	-3.014000	3.588700	-10.815000	25.308091	0.000893	20.862890
1031.250217	-3.006600	3.587000	-10.783000	25.325189	0.000896	20.868679
1032.251917	-2.997600	3.587500	-10.752000	25.332715	0.000893	20.856321
1033.252630	-2.997700	3.588200	-10.755000	25.332150	0.000894	20.867607
1034.247328	-2.997700	3.586100	-10.749000	25.363661	0.000893	20.857047
1035.250537	-3.022300	3.586400	-10.838000	25.380740	0.000891	20.872773
1036.249370	-3.003400	3.586600	-10.770000	25.388369	0.000892	20.870951
1037.250556	-3.017300	3.582800	-10.810000	25.387903	0.000891	20.868111
1038.248171	-2.994000	3.584700	-10.731000	25.334621	0.000890	20.874355
1039.249497	-3.003500	3.583400	-10.762000	25.301485	0.000891	20.871904
1040.251204	-2.992600	3.585900	-10.730000	25.324802	0.000891	20.866393
1041.250726	-2.982900	3.586300	-10.697000	25.347647	0.000892	20.874632
1042.251137	-2.993400	3.584800	-10.731000	25.349045	0.000890	20.884569
1043.250796	-3.009000	3.584300	-10.784000	25.361464	0.000890	20.859583
1044.250981	-2.990900	3.584600	-10.719000	25.395114	0.000890	20.879619
1045.250241	-3.008100	3.583300	-10.777000	25.403442	0.000888	20.893670
1046.257254	-2.983600	3.583900	-10.691000	25.420594	0.000887	20.887660
1047.258245	-3.014500	3.580200	-10.791000	25.413983	0.000888	20.899513
1048.254683	-3.000000	3.582000	-10.744000	25.416571	0.000889	20.895474
1049.252262	-2.982900	3.582900	-10.685000	25.447386	0.000888	20.889908
1050.253604	-2.968900	3.582900	-10.637000	25.440371	0.000887	20.878597
1051.259377	-2.997800	3.582100	-10.737000	25.431921	0.000886	20.889077
1052.253638	-2.995200	3.580500	-10.724000	25.415694	0.000886	20.903128
1053.255180	-3.012500	3.581300	-10.787000	25.409580	0.000887	20.873757
1054.253109	-2.974700	3.581200	-10.652000	25.441321	0.000887	20.878129
1055.252789	-2.983300	3.580600	-10.681000	25.484977	0.000886	20.884508
1056.253738	-2.997800	3.579900	-10.730000	25.501104	0.000883	20.881738
1057.257181	-3.001100	3.578600	-10.738000	25.497327	0.000884	20.886479
1058.253960	-3.004500	3.578400	-10.750000	25.497100	0.000883	20.885777
1059.255466	-3.002900	3.579800	-10.748000	25.420662	0.000884	20.901004
1060.256126	-2.987400	3.580300	-10.695000	25.400254	0.000881	20.886202
1061.255227	-2.999800	3.579300	-10.736000	25.415738	0.000882	20.877569
1062.261767	-2.990900	3.578700	-10.702000	25.410740	0.000880	20.875870
1063.255326	-2.981800	3.578600	-10.669000	25.423680	0.000881	20.887915
1064.258958	-3.021900	3.577000	-10.808000	25.466024	0.000879	20.883494
1065.255195	-3.020200	3.577300	-10.802000	25.487872	0.000878	20.876985
1066.255064	-2.991900	3.578800	-10.707000	25.503552	0.000880	20.897471
1067.257147	-3.004300	3.577400	-10.747000	25.517318	0.000879	20.874787
1068.256887	-3.029800	3.576000	-10.834000	25.544942	0.000877	20.875028
1069.257125	-2.991800	3.577100	-10.700000	25.519998	0.000878	20.867522
1070.255956	-2.989800	3.575700	-10.690000	25.517711	0.000877	20.865225
1071.258463	-3.000900	3.577200	-10.734000	25.481226	0.000875	20.856088
1072.258060	-3.029400	3.574000	-10.826000	25.458169	0.000876	20.870391
1073.258273	-3.010800	3.573400	-10.758000	25.421897	0.000876	20.888021
1074.256608	-3.017600	3.575500	-10.789000	25.388156	0.000876	20.856987
1075.257744	-2.995900	3.573700	-10.705000	25.376621	0.000876	20.861999
1076.258094	-3.001800	3.573900	-10.727000	25.391308	0.000873	20.890496
1077.262124	-3.010200	3.573400	-10.755000	25.397422	0.000875	20.886204
1078.264139	-2.995800	3.573000	-10.703000	25.402991	0.000874	20.878045
1079.258976	-2.993600	3.573300	-10.696000	25.424589	0.000874	20.860854
1080.258934	-3.003700	3.572600	-10.730000	25.443255	0.000873	20.861580
1081.258395	-3.012700	3.572800	-10.763000	25.487714	0.000873	20.866869
1082.259208	-3.016600	3.571900	-10.774000	25.485347	0.000872	20.846002
1083.261871	-3.009200	3.570200	-10.742000	25.466712	0.000873	20.857633
1084.259642	-3.004400	3.570300	-10.724000	25.409552	0.000871	20.875151
1085.266014	-2.983000	3.571800	-10.654000	25.419425	0.000874	20.863729
1086.260865	-2.978500	3.571000	-10.635000	25.445365	0.000870	20.839992
1087.262188	-2.994500	3.570900	-10.692000	25.406872	0.000869	20.841642
1088.264844	-2.989000	3.570500	-10.672000	25.437319	0.000869	20.872688
1089.260155	-2.982200	3.570000	-10.645000	25.441293	0.000867	20.863403
1090.261410	-3.000200	3.570600	-10.711000	25.479742	0.000869	20.844640
1091.260688	-3.010000	3.570300	-10.745000	25.466772	0.000867	20.862909
1092.261394	-2.998600	3.569900	-10.704000	25.462296	0.000867	20.850355
1093.261029	-3.001900	3.568100	-10.708000	25.485776	0.000865	20.856389
1094.264041	-2.970600	3.570400	-10.605000	25.491172	0.000866	20.861333
1095.263649	-2.979600	3.568400	-10.632000	25.483759	0.000864	20.841088
1096.263301	-3.031100	3.566100	-10.808000	25.475118	0.000866	20.857066
1097.262981	-2.994500	3.566600	-10.679000	25.491166	0.000866	20.838095
1098.262779	-2.975600	3.567800	-10.615000	25.499493	0.000864	20.836026
1099.269053	-2.999300	3.567900	-10.700000	25.525953	0.000864	20.872079
1100.264231	-2.981400	3.566000	-10.631000	25.504834	0.000864	20.872682
1101.265152	-2.986300	3.565500	-10.647000	25.477995	0.000864	20.857584
1102.264816	-2.977200	3.567800	-10.620000	25.457636	0.000863	20.848047
1103.264697	-3.014500	3.564600	-10.743000	25.457759	0.000864	20.843903
1104.269926	-3.001400	3.565300	-10.700000	25.468202	0.000863	20.825466
1105.267014	-3.008300	3.564000	-10.719000	25.510415	0.000863	20.837037
1106.269623	-2.997400	3.564100	-10.681000	25.515854	0.000860	20.842973
1107.267817	-3.010900	3.563200	-10.728000	25.555343	0.000859	20.853232
1108.265192	-2.979600	3.563800	-10.617000	25.577582	0.000861	20.840479
1109.270537	-3.021900	3.562000	-10.762000	25.623323	0.000859	20.844218
1110.266358	-2.998200	3.562300	-10.680000	25.613678	0.000860	20.826946
1111.266090	-2.998400	3.562800	-10.680000	25.618590	0.000860	20.844206
1112.267310	-3.010800	3.561700	-10.723000	25.592373	0.000859	20.842532
1113.269594	-2.995600	3.562600	-10.670000	25.593844	0.000856	20.845431
1114.266682	-2.992600	3.561200	-10.656000	25.588045	0.000858	20.842452
1115.269679	-3.000200	3.561900	-10.685000	25.620045	0.000855	20.827650
1116.266518	-2.989500	3.559600	-10.640000	25.608316	0.000856	20.833887
1117.266921	-2.991700	3.561900	-10.654000	25.617556	0.000854	20.857865
1118.266941	-2.984400	3.560600	-10.625000	25.601774	0.000854	20.832533
1119.268383	-3.003500	3.559400	-10.689000	25.575532	0.000854	20.845532
1120.270874	-2.992400	3.559700	-10.650000	25.571026	0.000853	20.843378
1121.267166	-3.004800	3.559800	-10.695000	25.589114	0.000854	20.851112
1122.270933	-3.007100	3.558800	-10.700000	25.590481	0.000853	20.838261
1123.268048	-2.998000	3.559700	-10.671000	25.576066	0.000852	20.822362
1124.268507	-3.016500	3.557900	-10.731000	25.559143	0.000851	20.844247
1125.271177	-2.984600	3.558000	-10.618000	25.585601	0.000849	20.841895
1126.269973	-2.984200	3.557800	-10.616000	25.612960	0.000849	20.837129
1127.270109	-2.988400	3.557600	-10.630000	25.608981	0.000849	20.825073
1128.270378	-3.006300	3.556600	-10.690000	25.609729	0.000848	20.833884
1129.270500	-3.008500	3.556300	-10.696000	25.611489	0.000847	20.826643
1130.270317	-3.011900	3.556100	-10.709000	25.604505	0.000848	20.816785
1131.271262	-2.993600	3.555600	-10.642000	25.588944	0.000849	20.825813
1132.269873	-2.991100	3.556200	-10.636000	25.612998	0.000847	20.832426
1133.272663	-2.998100	3.556300	-10.661000	25.626934	0.000847	20.828405
1134.268227	-2.987500	3.554700	-10.619000	25.624274	0.000845	20.822888
1135.269221	-3.004900	3.555500	-10.684000	25.608871	0.000843	20.820222
1136.274675	-3.014900	3.554500	-10.716000	25.556356	0.000844	20.825327
1137.270796	-2.991400	3.555000	-10.634000	25.556160	0.000843	20.822285
1138.272661	-3.001400	3.555000	-10.669000	25.570097	0.000844	20.826799
1139.272182	-3.007500	3.553800	-10.686000	25.615740	0.000843	20.793929
1140.273657	-2.995700	3.552400	-10.641000	25.635568	0.000841	20.832335
1141.274377	-2.997200	3.552800	-10.648000	25.633306	0.000840	20.814416
1142.275613	-3.000900	3.552500	-10.658000	25.637353	0.000840	20.833653
1143.273036	-3.017000	3.551000	-10.712000	25.642301	0.000839	20.818708
1144.274469	-3.005100	3.551400	-10.672000	25.665201	0.000839	20.842182
1145.274322	-3.034200	3.550200	-10.771000	25.673006	0.000838	20.827262
1146.276886	-3.010200	3.550900	-10.688000	25.669676	0.000836	20.820125
1147.278125	-2.988400	3.551000	-10.611000	25.690142	0.000836	20.824560
1148.275616	-2.963800	3.552100	-10.525000	25.711416	0.000837	20.834073
1149.277390	-2.990400	3.551500	-10.619000	25.719637	0.000837	20.815778
1150.276065	-2.988300	3.550100	-10.607000	25.672258	0.000837	20.810864
1151.275881	-2.991300	3.551100	-10.622000	25.670940	0.000835	20.803851
1152.277286	-2.999800	3.550300	-10.649000	25.656821	0.000836	20.817171
1153.277509	-3.007000	3.550000	-10.674000	25.661817	0.000833	20.841155
1154.279801	-2.995400	3.548600	-10.628000	25.630585	0.000835	20.821641
1155.275822	-3.003600	3.548100	-10.656000	25.601639	0.000834	20.811062
1156.277585	-2.985200	3.548800	-10.592000	25.576936	0.000834	20.806641
1157.279982	-2.988200	3.547500	-10.599000	25.640027	0.000833	20.795563
1158.279518	-2.999300	3.547700	-10.640000	25.612320	0.000832	20.813728
1159.280299	-3.000500	3.548200	-10.645000	25.614209	0.000831	20.810409
1160.279689	-3.009300	3.548400	-10.677000	25.615846	0.000831	20.835761
1161.279634	-3.002500	3.546500	-10.647000	25.597562	0.000829	20.796536
1162.280725	-2.988200	3.545900	-10.595000	25.576164	0.000831	20.826253
1163.283675	-2.996100	3.547100	-10.625000	25.538497	0.000830	20.799805
1164.281526	-3.002500	3.544900	-10.642000	25.513939	0.000827	20.829197
1165.281879	-2.986000	3.546800	-10.589000	25.508593	0.000828	20.807707
1166.281120	-3.000300	3.544900	-10.634000	25.510689	0.000827	20.810760
1167.283762	-2.997600	3.544100	-10.623000	25.534297	0.000829	20.808864
1168.283058	-3.030000	3.542900	-10.732000	25.533328	0.000827	20.810261
1169.284856	-3.009500	3.543000	-10.662000	25.541728	0.000828	20.806369
1170.281337	-3.023700	3.542600	-10.710000	25.550423	0.000827	20.812257
1171.284085	-3.000000	3.542600	-10.627000	25.569038	0.000826	20.779269
1172.287799	-3.012000	3.542600	-10.669000	25.578131	0.000827	20.804996
1173.283602	-2.981200	3.543100	-10.562000	25.593687	0.000825	20.794066
1174.285946	-2.985700	3.542700	-10.577000	25.582853	0.000824	20.805945
1175.286953	-2.983800	3.542100	-10.568000	25.583723	0.000826	20.807293
1176.286501	-3.011600	3.543400	-10.670000	25.584624	0.000825	20.802508
1177.285312	-3.000700	3.541200	-10.626000	25.567745	0.000823	20.805945
1178.287740	-3.009700	3.539500	-10.651000	25.547792	0.000822	20.785907
1179.284857	-2.995400	3.540900	-10.605000	25.542918	0.000822	20.805668
1180.285218	-2.988600	3.541100	-10.582000	25.544266	0.000823	20.812237
1181.285135	-3.002900	3.539400	-10.626000	25.577635	0.000822	20.793118
1182.285545	-2.986400	3.539600	-10.569000	25.600891	0.000820	20.797983
1183.287781	-2.968700	3.541000	-10.511000	25.628023	0.000819	20.775919
1184.286228	-3.009000	3.538300	-10.646000	25.639929	0.000821	20.816801
1185.288782	-3.013300	3.538400	-10.662000	25.628967	0.000818	20.785877
1186.286097	-3.027900	3.537900	-10.710000	25.611352	0.000818	20.790944
1187.286589	-3.022100	3.537000	-10.688000	25.619746	0.000818	20.809332
1188.288308	-3.001000	3.538700	-10.619000	25.647551	0.000818	20.792213
1189.287022	-2.976300	3.537700	-10.527000	25.646631	0.000817	20.794609
1190.289267	-2.978800	3.538100	-10.538000	25.640095	0.000815	20.806537
1191.288849	-2.995200	3.536800	-10.592000	25.628116	0.000814	20.790711
1192.289323	-3.027300	3.536500	-10.704000	25.641168	0.000813	20.802872
1193.292429	-3.036900	3.534800	-10.733000	25.633382	0.000814	20.773241
1194.288294	-2.994000	3.535600	-10.585000	25.637833	0.000815	20.777238
1195.293250	-3.005000	3.534700	-10.621000	25.647043	0.000813	20.784117
1196.289262	-3.003200	3.535500	-10.617000	25.661929	0.000813	20.804284
1197.288368	-2.988100	3.535800	-10.565000	25.670727	0.000813	20.769497
1198.293857	-2.992400	3.534400	-10.575000	25.684019	0.000812	20.769571
1199.293511	-2.989100	3.533900	-10.562000	25.674277	0.000809	20.782546
1200.289299	-3.016400	3.532000	-10.652000	25.674130	0.000811	20.784295
1201.288699	-2.996300	3.534400	-10.589000	25.674454	0.000808	20.779880
1202.289628	-2.996700	3.534200	-10.588000	25.700910	0.000810	20.795546
1203.289705	-3.009300	3.533100	-10.629000	25.679647	0.000809	20.782250
1204.291568	-3.005100	3.532900	-10.616000	25.667949	0.000806	20.790415
1205.291113	-3.002200	3.531000	-10.599000	25.684166	0.000808	20.789634
1206.295725	-3.003600	3.532200	-10.607000	25.684068	0.000808	20.767250
1207.292445	-3.009700	3.531100	-10.626000	25.726131	0.000806	20.763032
1208.300300	-3.014100	3.530700	-10.641000	25.735376	0.000807	20.764731
1209.294657	-3.020400	3.530400	-10.662000	25.740912	0.000805	20.768396
1210.291704	-3.027300	3.530700	-10.687000	25.763271	0.000806	20.769517
1211.293957	-3.000500	3.531300	-10.595000	25.745284	0.000805	20.766622
1212.294070	-3.021600	3.528000	-10.659000	25.720044	0.000806	20.769719
1213.294674	-3.008100	3.528300	-10.612000	25.707175	0.000804	20.769122
1214.293068	-2.996200	3.529400	-10.573000	25.681800	0.000804	20.777301
1215.299191	-2.996100	3.530000	-10.574000	25.697231	0.000801	20.766721
1216.295248	-3.006200	3.528600	-10.607000	25.702149	0.000802	20.783514
1217.300344	-2.985300	3.529600	-10.534000	25.693553	0.000802	20.766820
1218.293901	-3.022600	3.526600	-10.658000	25.709063	0.000800	20.780976
1219.294571	-3.014700	3.526800	-10.631000	25.721779	0.000800	20.758186
1220.296656	-3.016000	3.526900	-10.636000	25.730999	0.000801	20.778353
1221.294605	-3.020100	3.525900	-10.647000	25.749778	0.000800	20.776826
1222.296060	-2.976200	3.526300	-10.494000	25.764564	0.000798	20.750427
1223.295931	-2.998600	3.526500	-10.574000	25.747963	0.000798	20.777375
1224.295779	-3.015800	3.524700	-10.628000	25.789257	0.000797	20.755790
1225.294879	-2.988800	3.526600	-10.539000	25.800040	0.000798	20.776106
1226.295273	-3.011400	3.526100	-10.617000	25.788731	0.000797	20.769012
1227.296621	-2.995900	3.525900	-10.562000	25.801697	0.000796	20.764493
1228.297181	-2.980500	3.526100	-10.508000	25.767017	0.000797	20.782763
1229.299447	-2.986700	3.524700	-10.526000	25.788210	0.000794	20.770860
1230.298706	-2.997100	3.525200	-10.564000	25.751489	0.000795	20.776648
1231.298315	-3.009800	3.522400	-10.601000	25.769795	0.000795	20.750939
1232.301241	-2.990600	3.522200	-10.533000	25.769593	0.000792	20.766858
1233.306157	-3.017500	3.523100	-10.631000	25.769445	0.000792	20.781409
1234.299507	-2.993900	3.522100	-10.544000	25.786862	0.000791	20.766186
1235.300343	-3.009200	3.520200	-10.592000	25.792717	0.000791	20.769697
1236.303302	-2.984200	3.521600	-10.508000	25.766534	0.000793	20.779433
1237.302010	-3.016300	3.520400	-10.617000	25.713590	0.000792	20.748064
1238.302355	-3.005400	3.520100	-10.578000	25.659094	0.000792	20.769193
1239.313139	-3.010600	3.520600	-10.598000	25.654354	0.000791	20.756371
1240.301517	-2.983300	3.520800	-10.502000	25.667193	0.000792	20.760258
1241.305630	-3.004600	3.519300	-10.572000	25.670626	0.000792	20.750903
1242.303340	-2.994800	3.518600	-10.535000	25.685850	0.000789	20.755289
1243.306847	-3.012800	3.518700	-10.600000	25.685506	0.000789	20.744986
1244.304592	-3.022800	3.518000	-10.633000	25.660412	0.000788	20.743015
1245.303912	-2.989000	3.518400	-10.516000	25.637047	0.000788	20.760326
1246.306473	-3.011400	3.518200	-10.594000	25.599210	0.000787	20.756939
1247.305449	-2.999000	3.519600	-10.553000	25.633742	0.000785	20.737092
1248.304734	-2.979200	3.518600	-10.482000	25.639383	0.000786	20.765517
1249.306875	-2.999700	3.517700	-10.551000	25.650296	0.000785	20.750873
1250.304900	-2.996400	3.516800	-10.537000	25.683061	0.000785	20.746797
1251.305369	-2.999600	3.516300	-10.546000	25.710692	0.000785	20.757955
1252.306057	-2.977400	3.516400	-10.469000	25.680045	0.000783	20.747562
1253.306133	-2.987300	3.515300	-10.500000	25.699627	0.000783	20.762015
1254.324707	-2.977700	3.514500	-10.464000	25.657636	0.000783	20.737382
1255.310681	-3.005900	3.513500	-10.559000	25.630721	0.000780	20.753499
1256.307014	-2.979400	3.515600	-10.473000	25.639942	0.000781	20.731465
1257.311916	-2.988900	3.514400	-10.503000	25.591236	0.000781	20.739920
1258.307245	-3.002900	3.512900	-10.548000	25.555133	0.000782	20.741595
1259.307503	-3.036400	3.512500	-10.664000	25.547371	0.000781	20.766992
1260.309705	-3.000800	3.513400	-10.542000	25.526395	0.000779	20.753512
1261.309624	-2.990200	3.511600	-10.499000	25.517252	0.000778	20.740063
1262.311284	-3.008200	3.511800	-10.563000	25.493767	0.000778	20.722167
1263.316707	-3.007000	3.511600	-10.559000	25.508178	0.000777	20.740907
1264.307773	-2.997800	3.510400	-10.522000	25.522888	0.000779	20.756629
1265.311238	-3.016900	3.511500	-10.593000	25.579864	0.000775	20.746992
1266.310762	-2.998400	3.510800	-10.526000	25.604065	0.000776	20.746641
1267.311647	-3.014200	3.508900	-10.575000	25.619241	0.000776	20.751925
1268.320094	-2.978300	3.511700	-10.458000	25.655445	0.000775	20.750829
1269.310599	-2.959200	3.511800	-10.391000	25.680564	0.000773	20.751402
1270.311475	-2.988400	3.510400	-10.488000	25.696039	0.000772	20.746556
1271.312063	-3.012500	3.508900	-10.570000	25.679718	0.000772	20.745336
1272.312081	-2.993400	3.509900	-10.506000	25.642988	0.000774	20.754913
1273.315061	-3.016100	3.509200	-10.583000	25.637175	0.000773	20.764248
1274.311091	-3.004300	3.508400	-10.540000	25.657996	0.000775	20.762875
1275.321450	-3.008400	3.506600	-10.548000	25.653551	0.000770	20.734702
1276.312662	-2.996400	3.508600	-10.513000	25.641001	0.000771	20.741063
1277.312710	-3.003300	3.506600	-10.530000	25.665152	0.000771	20.738292
1278.319765	-3.006400	3.506600	-10.541000	25.628677	0.000771	20.755713
1279.314809	-2.985400	3.504500	-10.459000	25.636127	0.000769	20.749445
1280.313635	-3.001100	3.503900	-10.514000	25.636501	0.000767	20.757407
1281.312999	-2.981100	3.506400	-10.452000	25.674342	0.000768	20.730927
1282.313764	-2.989900	3.505400	-10.480000	25.672626	0.000768	20.732049
1283.316072	-3.007000	3.505400	-10.539000	25.640947	0.000767	20.761398
1284.318896	-3.016600	3.503300	-10.567000	25.643528	0.000767	20.742653
1285.319525	-2.977800	3.505600	-10.438000	25.626287	0.000766	20.744303
1286.315851	-2.983600	3.504400	-10.455000	25.654012	0.000765	20.738010
1287.315091	-2.987000	3.504700	-10.467000	25.651204	0.000762	20.752734
1288.320895	-3.008500	3.501600	-10.533000	25.661590	0.000764	20.735190
1289.318418	-2.975700	3.504600	-10.428000	25.620365	0.000764	20.736933
1290.316329	-2.962100	3.501700	-10.371000	25.591547	0.000763	20.733120
1291.315825	-2.989100	3.502500	-10.468000	25.573552	0.000764	20.744920
1292.316911	-2.987200	3.502100	-10.460000	25.610560	0.000763	20.734197
1293.316741	-2.987500	3.502100	-10.460000	25.639549	0.000761	20.741028
1294.318830	-3.018000	3.501800	-10.568000	25.680695	0.000764	20.742050
1295.317837	-3.014600	3.502000	-10.555000	25.711955	0.000761	20.708961
1296.321254	-3.005800	3.500300	-10.520000	25.771331	0.000763	20.720712
1297.317014	-3.017600	3.499600	-10.559000	25.785394	0.000762	20.748116
1298.316381	-3.012100	3.498900	-10.538000	25.727430	0.000760	20.736360
1299.322985	-3.006400	3.499300	-10.519000	25.738410	0.000759	20.727474
1300.320416	-2.986000	3.500000	-10.450000	25.725094	0.000761	20.748239
1301.316797	-2.999300	3.498600	-10.492000	25.688292	0.000758	20.725498
1302.318830	-2.975800	3.498600	-10.409000	25.652763	0.000759	20.743867
1303.318097	-2.989600	3.496800	-10.454000	25.663719	0.000757	20.753924
1304.320186	-2.988400	3.499200	-10.456000	25.687948	0.000757	20.762138
1305.321494	-3.018900	3.495300	-10.551000	25.677936	0.000758	20.753030
1306.319542	-2.999900	3.495600	-10.485000	25.718927	0.000756	20.758641
1307.319107	-2.975600	3.497700	-10.406000	25.745259	0.000756	20.753795
1308.320640	-3.015800	3.495200	-10.540000	25.791200	0.000755	20.736878
1309.320446	-2.998900	3.495500	-10.482000	25.804147	0.000755	20.742297
1310.326171	-2.999200	3.494500	-10.479000	25.821680	0.000756	20.715337
1311.320018	-2.993500	3.494300	-10.459000	25.790349	0.000754	20.751197
1312.321808	-2.999300	3.493000	-10.475000	25.774250	0.000754	20.748776
1313.320886	-3.024500	3.493100	-10.564000	25.750476	0.000754	20.746233
1314.319745	-3.000900	3.493800	-10.483000	25.708138	0.000751	20.767718
1315.323045	-3.026700	3.493100	-10.572000	25.695215	0.000751	20.744306
1316.320022	-3.009500	3.493700	-10.513000	25.700629	0.000751	20.763969
1317.320586	-3.028400	3.491800	-10.573000	25.727959	0.000749	20.753962
1318.320585	-3.014800	3.490900	-10.522000	25.738620	0.000748	20.734798
1319.321586	-2.988200	3.492900	-10.436000	25.770690	0.000749	20.750415
1320.321584	-2.985200	3.491400	-10.421000	25.744948	0.000750	20.756328
1321.322585	-2.985200	3.490200	-10.418000	25.744274	0.000749	20.745693
1322.322208	-3.004300	3.490500	-10.485000	25.774957	0.000749	20.766556
1323.327904	-2.999000	3.490800	-10.468000	25.789290	0.000749	20.741598
1324.322258	-2.998500	3.491200	-10.468000	25.818305	0.000748	20.758416
1325.321258	-3.018700	3.489700	-10.534000	25.807743	0.000747	20.760135
1326.324260	-2.987700	3.489400	-10.423000	25.791522	0.000745	20.759962
1327.321836	-3.011200	3.489100	-10.505000	25.758793	0.000747	20.729456
1328.324374	-3.004900	3.487100	-10.477000	25.797623	0.000745	20.746650
1329.321640	-3.001800	3.488200	-10.470000	25.798758	0.000745	20.747316
1330.321541	-3.002700	3.487400	-10.470000	25.814139	0.000746	20.754705
1331.325237	-3.001200	3.487800	-10.467000	25.838132	0.000744	20.747987
1332.325857	-2.994000	3.487200	-10.438000	25.839420	0.000743	20.772515
1333.323954	-2.996000	3.485700	-10.441000	25.872417	0.000742	20.757772
1334.324891	-3.003100	3.486100	-10.468000	25.894669	0.000742	20.761634
1335.325890	-3.009800	3.485300	-10.489000	25.874540	0.000741	20.760853
1336.324890	-3.002900	3.484700	-10.464000	25.871560	0.000741	20.769240
1337.327891	-2.989800	3.484900	-10.419000	25.847507	0.000741	20.757879
1338.325891	-3.007500	3.483600	-10.475000	25.812584	0.000740	20.774006
1339.326890	-2.995800	3.485300	-10.439000	25.810237	0.000741	20.754105
1340.325890	-2.991200	3.484200	-10.421000	25.819481	0.000740	20.771926
1341.326891	-2.999500	3.481900	-10.443000	25.819722	0.000739	20.773590
1342.327889	-2.999400	3.483700	-10.448000	25.821334	0.000740	20.775684
1343.327249	-2.996400	3.482500	-10.433000	25.847576	0.000739	20.766483
1344.327682	-3.014800	3.480400	-10.492000	25.806579	0.000737	20.781251
1345.327690	-2.994600	3.480600	-10.422000	25.809184	0.000738	20.764428
1346.328878	-2.989900	3.480200	-10.404000	25.818870	0.000739	20.774158
1347.330071	-2.979800	3.481600	-10.374000	25.807891	0.000738	20.751274
1348.331537	-3.014100	3.480200	-10.488000	25.831713	0.000739	20.775205
1349.330483	-2.987700	3.480900	-10.399000	25.833178	0.000738	20.781892
1350.330634	-2.983600	3.479600	-10.381000	25.843213	0.000736	20.776800
1351.329331	-2.969100	3.479600	-10.330000	25.813324	0.000737	20.777595
1352.330524	-2.980600	3.478300	-10.366000	25.843533	0.000732	20.783285
1353.332684	-2.966900	3.479300	-10.321000	25.830990	0.000735	20.776375
1354.330420	-2.986100	3.477500	-10.383000	25.857166	0.000732	20.762841
1355.330600	-3.006400	3.479000	-10.458000	25.872349	0.000729	20.763869
1356.332357	-3.004600	3.478000	-10.449000	25.867850	0.000732	20.754133
1357.330681	-3.030000	3.475300	-10.529000	25.850460	0.000731	20.776019
1358.333735	-3.013300	3.476600	-10.475000	25.835178	0.000730	20.760667
1359.331290	-2.998200	3.477000	-10.423000	25.849988	0.000730	20.749940
1360.341259	-2.998400	3.476000	-10.421000	25.827754	0.000729	20.771228
1361.331771	-2.963500	3.476300	-10.302000	25.842160	0.000730	20.772423
1362.333663	-2.982400	3.475300	-10.364000	25.851429	0.000730	20.766086
1363.337767	-3.008800	3.474400	-10.454000	25.864590	0.000729	20.766505
1364.333957	-3.010100	3.474100	-10.457000	25.857884	0.000728	20.781106
1365.341743	-3.012700	3.472200	-10.460000	25.891843	0.000726	20.763063
1366.333267	-2.970600	3.475800	-10.324000	25.889409	0.000727	20.779585
1367.333869	-2.997700	3.473200	-10.410000	25.905432	0.000726	20.785250
1368.333107	-3.002100	3.473100	-10.426000	25.928701	0.000727	20.786815
1369.333337	-2.992100	3.472500	-10.387000	25.922503	0.000724	20.789597
1370.333535	-3.014000	3.472700	-10.466000	25.983754	0.000725	20.783329
1371.334332	-2.985100	3.472500	-10.365000	25.988032	0.000726	20.776246
1372.337433	-3.019600	3.471000	-10.480000	26.001393	0.000723	20.783981
1373.335050	-2.999800	3.472000	-10.415000	25.997544	0.000723	20.789597
1374.338225	-2.993600	3.471700	-10.391000	25.976238	0.000723	20.775777
1375.336804	-2.982100	3.470100	-10.347000	25.954853	0.000722	20.769939
1376.341156	-3.004800	3.469300	-10.423000	25.963245	0.000723	20.776948
1377.339518	-2.989700	3.469400	-10.371000	25.961283	0.000720	20.778296
1378.335856	-3.017700	3.469200	-10.468000	25.981086	0.000722	20.785389
1379.338250	-3.001900	3.469300	-10.414000	25.945615	0.000720	20.793850
1380.339374	-3.005700	3.466700	-10.417000	25.980251	0.000719	20.790240
1381.339499	-2.991900	3.469200	-10.379000	25.989286	0.000719	20.805956
1382.341633	-3.013400	3.467300	-10.448000	25.988329	0.000718	20.776070
1383.340058	-2.994700	3.466100	-10.379000	26.015745	0.000719	20.782278
1384.341373	-2.991100	3.467400	-10.371000	25.978172	0.000719	20.780565
1385.341516	-2.989500	3.467600	-10.366000	25.995039	0.000717	20.806046
1386.341024	-3.009800	3.466200	-10.431000	25.938012	0.000717	20.763926
1387.345448	-3.000700	3.466200	-10.400000	25.928272	0.000716	20.775478
1388.340384	-3.011700	3.464100	-10.432000	25.902264	0.000716	20.783964
1389.341114	-2.990100	3.466100	-10.361000	25.899015	0.000715	20.793028
1390.344415	-3.015100	3.464700	-10.446000	25.846702	0.000717	20.772718
1391.340438	-2.998500	3.464300	-10.386000	25.831273	0.000718	20.804635
1392.340176	-2.992100	3.464300	-10.363000	25.839849	0.000713	20.795231
1393.340340	-3.011500	3.462200	-10.426000	25.866832	0.000714	20.794362
1394.341368	-2.990800	3.461400	-10.351000	25.865790	0.000714	20.796634
1395.341607	-3.004600	3.462600	-10.403000	25.839903	0.000712	20.782009
1396.344179	-3.039400	3.461300	-10.519000	25.838119	0.000713	20.786855
1397.340404	-2.989000	3.462800	-10.349000	25.853867	0.000711	20.798407
1398.340163	-3.015600	3.460900	-10.435000	25.873666	0.000710	20.807866
1399.340762	-3.000200	3.460000	-10.379000	25.871612	0.000711	20.776878
1400.340610	-3.005900	3.459800	-10.398000	25.873972	0.000711	20.781146
1401.343421	-2.998700	3.460000	-10.374000	25.899061	0.000710	20.795445
1402.345133	-3.010200	3.459200	-10.411000	25.934293	0.000709	20.808554
1403.343461	-3.004700	3.457900	-10.390000	25.955709	0.000709	20.801619
1404.345765	-2.995100	3.459800	-10.361000	25.979380	0.000709	20.786995
1405.346732	-3.028900	3.458800	-10.476000	25.984351	0.000709	20.798627
1406.345133	-3.001600	3.458300	-10.379000	26.005171	0.000708	20.790621
1407.345135	-2.993200	3.457800	-10.349000	26.034081	0.000708	20.795011
1408.344096	-3.010800	3.455900	-10.403000	26.063217	0.000707	20.792991
1409.345390	-2.997200	3.457900	-10.362000	26.050230	0.000707	20.787055
1410.346243	-2.997500	3.456500	-10.360000	26.046908	0.000707	20.806950
1411.344084	-3.000900	3.455400	-10.367000	25.979765	0.000705	20.787855
1412.345910	-3.002700	3.456300	-10.377000	25.946070	0.000704	20.799048
1413.343648	-2.987200	3.454900	-10.320000	25.942043	0.000707	20.800219
1414.346034	-3.007300	3.455400	-10.389000	25.928283	0.000706	20.785446
1415.344452	-2.991300	3.454600	-10.333000	25.923036	0.000704	20.796297
1416.343206	-2.982200	3.453800	-10.299000	25.910948	0.000704	20.796006
1417.350411	-3.009100	3.452800	-10.389000	25.931316	0.000703	20.813150
1418.344331	-3.009000	3.452600	-10.388000	25.945107	0.000703	20.794288
1419.344259	-3.008000	3.453100	-10.386000	25.933976	0.000701	20.794485
1420.345216	-2.996900	3.453600	-10.349000	25.930574	0.000703	20.803869
1421.344974	-2.997300	3.452300	-10.347000	25.923175	0.000701	20.787428
1422.343486	-3.022500	3.451100	-10.430000	25.904749	0.000700	20.786460
1423.348424	-2.975600	3.451800	-10.270000	25.891675	0.000701	20.788025
1424.345473	-2.987800	3.451700	-10.311000	25.856011	0.000699	20.815260
1425.344994	-2.988900	3.449800	-10.308000	25.854570	0.000699	20.809071
1426.345421	-3.012100	3.449300	-10.389000	25.866149	0.000699	20.803160
1427.347767	-3.003600	3.448900	-10.358000	25.887567	0.000698	20.805708
1428.350009	-3.003700	3.448700	-10.358000	25.914347	0.000698	20.797525
1429.345886	-3.025200	3.448200	-10.429000	25.915714	0.000697	20.783251
1430.345192	-3.004900	3.448700	-10.362000	25.917484	0.000696	20.788823
1431.344354	-3.013800	3.447400	-10.388000	25.914033	0.000697	20.822339
1432.345854	-3.003200	3.448900	-10.357000	25.914953	0.000696	20.797185
1433.346279	-2.997600	3.447000	-10.332000	25.852852	0.000695	20.801181
1434.345694	-3.004500	3.447300	-10.356000	25.853673	0.000698	20.805799
1435.345610	-2.980900	3.448400	-10.277000	25.830421	0.000694	20.813736
1436.346425	-2.992300	3.446000	-10.311000	25.839371	0.000692	20.794277
1437.346012	-2.995300	3.445900	-10.320000	25.846677	0.000694	20.823427
1438.350934	-2.983100	3.446500	-10.280000	25.877529	0.000695	20.808901
1439.347906	-3.024400	3.443900	-10.415000	25.923617	0.000691	20.802570
1440.351194	-2.993500	3.445100	-10.312000	25.925413	0.000694	20.819072
1441.348629	-2.998400	3.444500	-10.327000	25.934797	0.000692	20.806690
1442.350007	-3.010400	3.442900	-10.363000	25.978995	0.000692	20.812212
1443.351243	-3.027700	3.442500	-10.422000	25.984236	0.000692	20.818900
1444.355152	-2.989300	3.443700	-10.294000	25.974532	0.000690	20.824324
1445.350609	-2.979400	3.443600	-10.259000	26.003340	0.000692	20.815808
1446.351714	-2.996300	3.443000	-10.315000	26.050061	0.000691	20.806325
1447.352146	-2.976600	3.442400	-10.246000	26.006049	0.000691	20.809047
1448.352338	-2.990800	3.442100	-10.294000	26.015971	0.000689	20.807161
1449.355830	-2.984800	3.443000	-10.275000	26.005539	0.000689	20.815647
1450.352866	-3.009400	3.440200	-10.352000	25.994733	0.000689	20.817118
1451.352907	-2.997200	3.440700	-10.311000	25.963039	0.000688	20.827475
1452.351771	-3.006700	3.440000	-10.341000	25.959569	0.000687	20.834420
1453.354958	-2.987800	3.440600	-10.279000	25.959042	0.000688	20.829624
1454.353553	-2.971200	3.439500	-10.218000	25.922185	0.000686	20.832425
1455.353113	-3.006800	3.439600	-10.341000	25.937736	0.000687	20.803478
1456.353054	-3.004500	3.439800	-10.332000	25.958404	0.000686	20.815707
1457.360080	-3.004500	3.438900	-10.331000	25.979967	0.000688	20.825042
1458.356000	-2.998000	3.439000	-10.309000	26.007762	0.000685	20.821674
1459.366101	-2.991700	3.437400	-10.281000	26.021994	0.000687	20.815584
1460.356119	-3.028500	3.437600	-10.410000	26.042243	0.000683	20.822178
1461.356004	-2.985100	3.437100	-10.259000	26.042003	0.000685	20.811506
1462.356953	-3.003200	3.435400	-10.316000	26.061573	0.000685	20.830219
1463.355626	-3.004700	3.435400	-10.320000	26.061145	0.000682	20.818884
1464.358277	-2.996100	3.435900	-10.293000	26.064969	0.000684	20.801864
1465.356186	-2.991200	3.437100	-10.279000	26.058515	0.000684	20.828569
1466.356472	-3.006900	3.435200	-10.328000	26.042794	0.000683	20.832214
1467.356177	-3.000700	3.435800	-10.308000	26.057301	0.000682	20.828772
1468.358942	-2.996400	3.435200	-10.290000	26.002080	0.000682	20.828292
1469.359826	-3.007200	3.433400	-10.324000	25.992794	0.000681	20.841248
1470.357872	-3.006900	3.433700	-10.325000	25.969270	0.000679	20.829468
1471.358484	-2.988800	3.433300	-10.261000	25.984520	0.000680	20.833409
1472.361997	-3.012800	3.432100	-10.339000	25.982313	0.000682	20.823606
1473.357254	-3.007100	3.432800	-10.322000	25.974314	0.000679	20.835010
1474.357361	-3.003900	3.431600	-10.306000	25.956508	0.000678	20.842251
1475.357414	-2.990400	3.430900	-10.259000	25.952108	0.000678	20.831192
1476.358290	-2.976200	3.431800	-10.212000	25.952555	0.000677	20.833538
1477.359359	-3.005000	3.431100	-10.309000	25.940707	0.000674	20.816420
1478.358542	-2.990800	3.430000	-10.258000	25.941700	0.000677	20.834012
1479.361649	-3.005700	3.430300	-10.308000	25.929748	0.000675	20.830066
1480.363552	-3.008500	3.430600	-10.319000	25.948209	0.000676	20.828698
1481.360259	-3.006200	3.428300	-10.305000	25.953376	0.000675	20.854751
1482.362762	-3.012800	3.427100	-10.324000	25.928037	0.000673	20.870545
1483.357431	-2.967600	3.429200	-10.174000	25.956931	0.000675	20.840779
1484.360141	-3.004300	3.428900	-10.300000	25.972997	0.000674	20.861660
1485.362782	-3.001200	3.427800	-10.287000	25.956857	0.000675	20.858722
1486.362566	-3.013400	3.426900	-10.325000	25.980652	0.000673	20.866031
1487.359184	-3.004700	3.427900	-10.299000	26.015673	0.000672	20.847165
1488.360090	-2.969200	3.427900	-10.178000	26.046624	0.000672	20.856450
1489.360281	-2.988700	3.426000	-10.239000	26.060861	0.000672	20.838038
1490.361003	-2.979200	3.426200	-10.204000	26.061731	0.000670	20.842706
1491.364907	-2.997600	3.425500	-10.267000	26.046679	0.000672	20.859350
1492.363372	-2.996500	3.426300	-10.266000	26.030732	0.000670	20.863241
1493.366394	-3.012300	3.425800	-10.318000	26.060935	0.000672	20.852336
1494.365112	-2.996300	3.425200	-10.262000	26.081502	0.000669	20.862096
1495.361291	-3.001200	3.423000	-10.271000	26.082269	0.000670	20.858599
1496.363400	-3.007300	3.424700	-10.297000	26.075239	0.000668	20.853907
1497.362678	-3.007200	3.423400	-10.294000	26.103106	0.000667	20.852983
1498.361400	-3.005600	3.421100	-10.281000	26.114279	0.000668	20.851407
1499.363345	-2.977600	3.423300	-10.192000	26.095905	0.000669	20.855231
1500.362326	-2.986700	3.423000	-10.223000	26.134673	0.000667	20.864787
1501.363026	-3.014200	3.420400	-10.308000	26.141544	0.000667	20.847984
1502.368279	-2.991200	3.422800	-10.238000	26.144951	0.000667	20.851881
1503.363687	-3.012400	3.421100	-10.304000	26.175244	0.000666	20.870465
1504.363472	-3.001200	3.420100	-10.264000	26.172265	0.000665	20.856094
1505.362606	-2.993100	3.420100	-10.235000	26.192727	0.000664	20.861008
1506.363114	-2.985700	3.420200	-10.211000	26.166101	0.000663	20.860805
1507.370667	-2.988200	3.421300	-10.223000	26.191379	0.000662	20.873403
1508.361874	-2.988800	3.419100	-10.218000	26.182316	0.000663	20.872831
1509.361265	-2.994900	3.419700	-10.241000	26.204365	0.000663	20.873650
1510.363900	-3.009100	3.419500	-10.288000	26.211167	0.000662	20.867684
1511.361144	-2.998300	3.417800	-10.246000	26.192342	0.000662	20.866785
1512.367160	-3.021300	3.418400	-10.326000	26.179798	0.000661	20.868879
1513.363545	-2.992500	3.416800	-10.224000	26.180019	0.000661	20.859618
1514.365686	-2.998900	3.416700	-10.245000	26.170282	0.000659	20.857894
1515.367558	-2.997100	3.416700	-10.239000	26.185332	0.000662	20.872543
1516.366035	-3.005300	3.416500	-10.267000	26.185903	0.000659	20.884020
1517.365703	-2.993800	3.416100	-10.226000	26.176864	0.000661	20.878731
1518.367093	-3.002800	3.415900	-10.255000	26.216647	0.000659	20.880775
1519.366233	-3.008000	3.413800	-10.268000	26.227499	0.000658	20.874138
1520.365457	-3.021700	3.415000	-10.318000	26.238744	0.000658	20.890178
1521.365398	-3.011000	3.413400	-10.277000	26.236502	0.000656	20.876072
1522.369241	-3.005500	3.414700	-10.261000	26.215182	0.000656	20.864132
1523.368394	-2.985200	3.414000	-10.190000	26.225238	0.000656	20.860013
1524.367486	-3.008200	3.413100	-10.266000	26.218908	0.000654	20.878306
1525.369591	-3.012500	3.413100	-10.281000	26.180259	0.000655	20.897315
1526.366806	-3.015700	3.411800	-10.287000	26.152621	0.000655	20.861010
1527.367408	-2.991300	3.412000	-10.205000	26.116158	0.000655	20.871312
1528.369306	-2.987500	3.412300	-10.193000	26.128225	0.000655	20.889126
1529.367812	-3.009600	3.410900	-10.264000	26.115435	0.000652	20.891921
1530.376091	-3.014300	3.411200	-10.282000	26.139899	0.000652	20.873357
1531.368842	-3.002900	3.410800	-10.242000	26.142278	0.000652	20.865790
1532.369976	-2.994700	3.410900	-10.214000	26.177496	0.000652	20.855660
1533.371341	-2.990600	3.410300	-10.197000	26.162023	0.000651	20.868086
1534.370864	-3.004700	3.408400	-10.240000	26.182883	0.000652	20.863918
1535.369958	-3.016600	3.409400	-10.284000	26.199226	0.000651	20.860900
1536.370057	-3.019700	3.407600	-10.289000	26.206378	0.000649	20.858604
1537.369672	-2.994300	3.408100	-10.205000	26.260958	0.000650	20.861769
1538.370485	-3.023500	3.406400	-10.297000	26.266069	0.000649	20.853630
1539.375283	-2.999900	3.406600	-10.218000	26.255724	0.000649	20.857458
1540.377852	-3.004000	3.406300	-10.231000	26.262319	0.000646	20.862189
1541.371967	-2.979000	3.407400	-10.150000	26.252258	0.000644	20.876259
1542.369745	-3.008400	3.406900	-10.248000	26.220528	0.000646	20.852435
1543.371624	-2.988800	3.405400	-10.177000	26.171798	0.000646	20.869849
1544.371838	-2.979200	3.406300	-10.147000	26.140881	0.000646	20.844473
1545.373064	-3.007600	3.404700	-10.238000	26.105765	0.000644	20.855655
1546.372553	-3.010400	3.403600	-10.244000	26.114333	0.000644	20.867108
1547.372795	-2.988100	3.404500	-10.172000	26.101095	0.000644	20.861868
1548.373774	-2.998300	3.403800	-10.204000	26.112268	0.000645	20.866930
1549.374091	-2.959700	3.404600	-10.075000	26.052642	0.000644	20.863444
1550.377091	-2.997600	3.403300	-10.201000	26.010015	0.000642	20.853334
1551.374215	-2.987200	3.403400	-10.165000	25.992799	0.000643	20.855477
1552.375993	-3.012600	3.402300	-10.249000	25.981846	0.000640	20.860119
1553.374638	-3.007800	3.401300	-10.230000	26.031828	0.000641	20.854386
1554.373946	-2.991300	3.401500	-10.174000	26.040642	0.000640	20.851388
1555.378233	-2.999400	3.401700	-10.200000	26.052421	0.000639	20.866067
1556.375778	-2.998800	3.400700	-10.197000	26.045833	0.000639	20.869879
1557.377304	-3.029000	3.399700	-10.297000	26.008231	0.000640	20.848222
1558.377478	-2.994900	3.400300	-10.183000	26.020330	0.000639	20.859903
1559.376979	-3.027300	3.398400	-10.287000	26.037614	0.000639	20.853087
1560.380584	-2.995100	3.401300	-10.187000	26.016958	0.000637	20.833283
1561.377350	-2.978700	3.401500	-10.131000	26.037398	0.000635	20.852396
1562.386822	-3.002900	3.399100	-10.207000	26.014948	0.000638	20.849754
1563.376373	-3.018700	3.398500	-10.258000	25.978485	0.000636	20.845838
1564.376493	-3.000500	3.398500	-10.196000	25.928910	0.000636	20.842974
1565.379984	-2.991700	3.398500	-10.166000	25.964706	0.000637	20.843848
1566.376433	-2.996100	3.398300	-10.180000	25.976456	0.000634	20.841902
1567.381866	-2.995700	3.398100	-10.178000	26.012648	0.000633	20.829901
1568.377941	-3.001900	3.397000	-10.197000	26.057879	0.000633	20.841206
1569.379768	-3.014600	3.395800	-10.235000	26.069328	0.000633	20.831847
1570.380783	-2.999300	3.395400	-10.183000	26.077558	0.000633	20.831581
1571.380072	-3.016100	3.396000	-10.241000	26.122983	0.000633	20.815109
1572.379269	-2.997300	3.395600	-10.177000	26.095214	0.000633	20.821821
1573.380459	-2.991100	3.396800	-10.159000	26.134008	0.000630	20.821446
1574.379432	-3.002100	3.394600	-10.190000	26.168160	0.000630	20.834900
1575.378061	-2.997400	3.393900	-10.170000	26.170579	0.000629	20.821685
1576.382488	-3.021000	3.393700	-10.252000	26.147403	0.000630	20.842966
1577.381189	-2.986000	3.393600	-10.132000	26.138118	0.000628	20.839801
1578.382150	-3.006200	3.393500	-10.199000	26.115817	0.000628	20.832565
1579.385915	-3.005600	3.392600	-10.196000	26.098976	0.000627	20.835558
1580.384191	-2.994000	3.392200	-10.155000	26.099827	0.000628	20.825982
1581.384545	-2.993700	3.392000	-10.154000	26.088826	0.000628	20.832472
1582.383235	-3.008700	3.391300	-10.202000	26.091216	0.000627	20.816856
1583.385977	-3.000900	3.392200	-10.179000	26.119977	0.000627	20.831529
1584.383459	-3.003200	3.390200	-10.180000	26.103589	0.000625	20.825020
1585.382189	-2.988200	3.392100	-10.135000	26.115754	0.000626	20.809743
1586.385395	-3.004400	3.389200	-10.181000	26.160913	0.000624	20.814817
1587.392135	-3.010300	3.389400	-10.202000	26.155900	0.000622	20.816417
1588.385840	-3.024900	3.389200	-10.251000	26.159148	0.000624	20.828690
1589.384258	-3.013400	3.390500	-10.216000	26.157567	0.000625	20.832790
1590.387710	-2.993600	3.390800	-10.150000	26.172465	0.000624	20.798449
1591.386792	-2.998200	3.389000	-10.160000	26.187570	0.000623	20.824058
1592.387989	-2.982200	3.390100	-10.110000	26.149177	0.000623	20.815351
1593.387934	-2.987300	3.388100	-10.121000	26.126079	0.000623	20.809212
1594.388597	-3.007200	3.387300	-10.186000	26.106633	0.000621	20.820967
1595.387452	-2.986400	3.387700	-10.115000	26.130454	0.000622	20.809341
1596.386554	-2.999100	3.386900	-10.156000	26.157774	0.000621	20.829206
1597.389473	-3.031600	3.386900	-10.265000	26.164080	0.000618	20.818473
1598.388514	-3.010200	3.384700	-10.188000	26.177317	0.000619	20.806170
1599.390902	-2.984900	3.387400	-10.110000	26.215341	0.000620	20.823516
1600.387285	-3.024300	3.384100	-10.232000	26.242732	0.000619	20.799359
1601.388387	-2.989800	3.386400	-10.124000	26.239056	0.000620	20.801828
1602.389720	-3.004000	3.383200	-10.161000	26.240643	0.000617	20.805320
1603.391492	-2.985200	3.384400	-10.101000	26.215384	0.000618	20.810284
1604.389035	-2.979400	3.384900	-10.085000	26.213423	0.000618	20.792666
1605.388646	-2.989900	3.384600	-10.117000	26.178383	0.000616	20.803448
1606.389316	-3.003400	3.383700	-10.162000	26.147835	0.000617	20.807365
1607.389904	-2.990800	3.383200	-10.117000	26.091429	0.000616	20.817544
1608.390262	-3.009700	3.382900	-10.180000	26.088175	0.000616	20.800524
1609.391296	-3.003100	3.382000	-10.155000	26.028664	0.000614	20.788621
1610.397269	-3.007800	3.382400	-10.172000	26.031869	0.000613	20.833092
1611.389540	-3.002100	3.382400	-10.153000	26.064604	0.000613	20.818566
1612.389706	-3.009000	3.380400	-10.171000	26.099997	0.000612	20.804816
1613.393656	-2.975700	3.383000	-10.066000	26.115195	0.000612	20.792112
1614.397160	-3.011600	3.380600	-10.179000	26.121521	0.000612	20.793726
1615.391031	-3.014300	3.379900	-10.187000	26.116483	0.000611	20.778233
1616.389696	-2.975500	3.381100	-10.060000	26.125154	0.000611	20.795006
1617.389549	-2.995700	3.379000	-10.122000	26.094874	0.000612	20.826221
1618.391824	-3.004600	3.378400	-10.150000	26.093586	0.000610	20.805013
1619.392746	-2.975400	3.379700	-10.055000	26.085289	0.000607	20.805210
1620.390334	-3.003600	3.379000	-10.148000	26.093115	0.000609	20.786995
1621.390294	-3.005500	3.378400	-10.152000	26.100389	0.000609	20.793831
1622.393085	-3.004500	3.377500	-10.146000	26.103987	0.000609	20.804084
1623.390330	-2.982300	3.379500	-10.077000	26.095867	0.000606	20.793554
1624.394171	-3.020900	3.377100	-10.201000	26.099863	0.000606	20.777654
1625.391505	-2.982000	3.377400	-10.070000	26.124333	0.000606	20.768577
1626.393446	-2.985500	3.376500	-10.079000	26.133293	0.000607	20.794650
1627.392694	-3.005400	3.376800	-10.148000	26.129813	0.000606	20.799213
1628.399025	-2.994500	3.375900	-10.108000	26.090542	0.000606	20.790574
1629.394613	-3.025500	3.374800	-10.209000	26.094936	0.000605	20.805421
1630.394766	-2.997900	3.375100	-10.117000	26.078971	0.000605	20.789854
1631.394534	-3.027400	3.373500	-10.211000	26.108725	0.000602	20.793672
1632.393571	-3.000800	3.374400	-10.125000	26.101047	0.000604	20.783111
1633.395312	-2.976200	3.373800	-10.039000	26.127773	0.000605	20.801431
1634.396962	-3.020700	3.373300	-10.189000	26.142646	0.000604	20.774176
1635.397294	-2.988500	3.373700	-10.081000	26.128613	0.000602	20.810335
1636.398379	-2.989300	3.374200	-10.086000	26.142946	0.000600	20.792496
1637.395627	-2.991300	3.372400	-10.087000	26.161718	0.000600	20.782434
1638.394721	-2.992100	3.372100	-10.089000	26.170094	0.000600	20.814559
1639.406322	-2.996000	3.371700	-10.100000	26.185134	0.000600	20.796007
1640.397904	-3.017900	3.370600	-10.171000	26.231828	0.000599	20.786979
1641.396481	-3.015300	3.369500	-10.158000	26.233396	0.000598	20.780494
1642.397374	-2.981800	3.371800	-10.053000	26.253900	0.000599	20.765537
1643.395254	-3.041900	3.370700	-10.252000	26.271707	0.000599	20.781061
1644.395880	-3.004500	3.368700	-10.119000	26.258599	0.000599	20.780217
1645.400201	-3.011100	3.369100	-10.143000	26.253734	0.000596	20.775327
1646.396336	-3.006600	3.369400	-10.129000	26.235051	0.000599	20.782632
1647.398781	-2.994500	3.368100	-10.084000	26.205699	0.000598	20.778265
1648.395250	-2.996300	3.368700	-10.093000	26.254047	0.000595	20.779910
1649.396522	-2.991400	3.367500	-10.073000	26.261572	0.000595	20.794110
1650.402622	-3.003600	3.367700	-10.113000	26.287119	0.000597	20.787066
1651.401937	-3.003900	3.366900	-10.113000	26.286843	0.000594	20.792005
1652.397910	-3.030600	3.366700	-10.202000	26.290991	0.000595	20.780052
1653.397340	-3.013500	3.367300	-10.146000	26.301537	0.000592	20.799660
1654.397900	-3.020700	3.366700	-10.168000	26.338313	0.000591	20.787781
1655.398620	-3.001100	3.365500	-10.099000	26.336947	0.000593	20.792098
1656.396584	-3.034700	3.365100	-10.211000	26.346285	0.000593	20.796741
1657.399002	-3.011000	3.364700	-10.130000	26.343969	0.000590	20.767387
1658.399383	-2.989900	3.366000	-10.062000	26.332095	0.000591	20.780110
1659.398750	-2.999900	3.366600	-10.099000	26.337874	0.000588	20.773589
1660.400548	-2.993400	3.365300	-10.073000	26.382988	0.000588	20.760609
1661.402256	-2.991900	3.363900	-10.064000	26.377976	0.000588	20.780702
1662.403779	-2.956200	3.365300	-9.947200	26.375543	0.000588	20.792956
1663.402747	-2.989900	3.364600	-10.059000	26.345368	0.000588	20.774957
1664.403238	-3.010400	3.363500	-10.125000	26.294910	0.000587	20.789681
1665.399992	-2.981300	3.363400	-10.027000	26.304744	0.000586	20.778227
1666.401258	-2.998000	3.362700	-10.080000	26.348071	0.000587	20.767716
1667.404192	-2.997000	3.361700	-10.075000	26.350312	0.000586	20.767598
1668.404225	-3.004100	3.362400	-10.100000	26.325872	0.000584	20.778123
1669.401978	-3.016500	3.362000	-10.140000	26.325498	0.000585	20.775850
1670.403341	-2.997000	3.362100	-10.075000	26.315162	0.000584	20.773523
1671.405272	-3.003800	3.361300	-10.095000	26.327031	0.000585	20.788771
1672.402843	-3.014400	3.359500	-10.127000	26.326235	0.000583	20.772323
1673.404083	-2.986800	3.361500	-10.039000	26.312700	0.000582	20.762988
1674.402368	-2.999400	3.359900	-10.076000	26.289483	0.000581	20.770001
1675.404240	-3.001400	3.360000	-10.084000	26.279722	0.000583	20.765408
1676.406101	-2.994200	3.359200	-10.057000	26.239488	0.000581	20.763856
1677.410944	-3.007700	3.358700	-10.100000	26.210210	0.000582	20.783747
1678.405664	-2.979800	3.359900	-10.011000	26.206503	0.000580	20.775280
1679.411358	-3.000600	3.358400	-10.076000	26.200173	0.000580	20.755642
1680.406757	-3.001800	3.358400	-10.080000	26.234146	0.000580	20.763703
1681.406644	-3.013100	3.357600	-10.115000	26.284080	0.000579	20.751769
1682.407125	-3.021200	3.356900	-10.140000	26.309858	0.000579	20.786685
1683.404753	-3.006600	3.356800	-10.092000	26.331801	0.000579	20.780762
1684.408592	-3.005200	3.355500	-10.084000	26.348864	0.000579	20.763771
1685.405636	-3.022100	3.354100	-10.135000	26.361946	0.000577	20.761272
1686.405697	-2.985300	3.355900	-10.018000	26.336420	0.000577	20.746049
1687.405108	-2.991100	3.355200	-10.035000	26.323082	0.000576	20.773422
1688.407175	-2.987400	3.356700	-10.027000	26.295466	0.000575	20.775541
1689.407056	-2.988800	3.354700	-10.025000	26.294400	0.000578	20.780633
1690.407537	-3.008300	3.354300	-10.090000	26.253076	0.000576	20.746216
1691.406381	-3.018100	3.353200	-10.119000	26.231612	0.000574	20.761157
1692.404990	-3.011700	3.354100	-10.101000	26.264198	0.000576	20.773515
1693.408613	-3.012900	3.352900	-10.101000	26.258880	0.000573	20.764377
1694.404896	-2.990600	3.352700	-10.025000	26.265412	0.000574	20.765252
1695.408069	-2.986800	3.353100	-10.014000	26.268262	0.000572	20.759581
1696.406796	-3.001200	3.354300	-10.066000	26.296694	0.000572	20.767291
1697.408611	-3.002800	3.351800	-10.065000	26.305683	0.000570	20.742184
1698.410314	-2.998800	3.353300	-10.054000	26.296148	0.000571	20.761527
1699.410250	-2.988000	3.352000	-10.015000	26.297086	0.000570	20.754409
1700.409969	-2.990500	3.351400	-10.022000	26.292895	0.000570	20.740713
1701.411066	-3.004800	3.351800	-10.071000	26.318789	0.000568	20.756305
1702.411898	-2.999800	3.351000	-10.051000	26.277717	0.000568	20.724511
1703.416381	-2.999900	3.350500	-10.051000	26.272975	0.000566	20.770481
1704.413226	-2.987100	3.349200	-10.003000	26.236049	0.000566	20.746175
1705.411691	-2.993200	3.348900	-10.023000	26.238826	0.000566	20.741853
1706.413098	-3.002300	3.349300	-10.055000	26.245033	0.000566	20.737659
1707.414620	-3.001000	3.348200	-10.046000	26.233483	0.000566	20.745967
1708.416040	-2.997900	3.348300	-10.036000	26.248685	0.000565	20.730423
1709.413803	-3.004000	3.346800	-10.052000	26.237833	0.000565	20.755554
1710.414682	-2.999500	3.348300	-10.042000	26.277442	0.000565	20.741305
1711.414245	-3.003800	3.346900	-10.053000	26.310346	0.000567	20.741655
1712.413445	-2.992700	3.346800	-10.016000	26.333636	0.000563	20.746096
1713.415017	-2.999900	3.346900	-10.039000	26.348114	0.000562	20.757802
1714.417028	-3.009500	3.346400	-10.069000	26.336860	0.000560	20.768302
1715.415339	-3.010000	3.345300	-10.068000	26.330481	0.000562	20.746718
1716.418824	-2.998800	3.346600	-10.035000	26.332093	0.000561	20.734587
1717.416940	-2.969300	3.345800	-9.933500	26.319379	0.000562	20.738405
1718.416661	-3.008800	3.344400	-10.061000	26.334555	0.000560	20.740381
1719.420902	-2.976100	3.345800	-9.956400	26.376465	0.000559	20.757372
1720.420444	-3.009000	3.343300	-10.060000	26.413912	0.000558	20.747592
1721.418538	-2.982100	3.345300	-9.974100	26.414040	0.000557	20.740608
1722.418297	-3.014700	3.343600	-10.078000	26.424787	0.000558	20.747143
1723.418195	-2.997300	3.343400	-10.020000	26.446934	0.000556	20.752808
1724.418807	-3.012600	3.343300	-10.071000	26.466649	0.000557	20.740855
1725.418905	-2.985000	3.343600	-9.979800	26.466900	0.000554	20.750117
1726.417260	-2.989400	3.342800	-9.991800	26.480531	0.000555	20.742006
1727.418446	-2.994400	3.341500	-10.004000	26.490806	0.000556	20.740005
1728.419273	-3.005100	3.342500	-10.043000	26.480959	0.000554	20.744807
1729.418726	-3.001900	3.341400	-10.030000	26.484801	0.000556	20.749618
1730.425359	-3.009100	3.339500	-10.048000	26.461441	0.000556	20.748897
1731.421412	-3.023200	3.339000	-10.093000	26.419008	0.000553	20.754137
1732.422485	-3.001500	3.340300	-10.025000	26.367984	0.000552	20.759279
1733.421085	-2.989400	3.340400	-9.983400	26.398453	0.000551	20.738218
1734.420829	-2.978200	3.340700	-9.948000	26.426532	0.000554	20.749845
1735.421713	-3.001700	3.337700	-10.018000	26.420650	0.000550	20.729708
1736.426174	-2.982100	3.338600	-9.955000	26.412649	0.000551	20.737314
1737.422050	-3.004900	3.337800	-10.027000	26.395518	0.000552	20.753288
1738.422559	-2.992400	3.337600	-9.986600	26.389661	0.000548	20.747874
1739.424372	-3.000900	3.336000	-10.009000	26.370839	0.000549	20.737492
1740.423125	-3.001600	3.338100	-10.018000	26.361349	0.000550	20.745498
1741.425600	-2.984900	3.336000	-9.956700	26.369124	0.000550	20.752838
1742.424033	-2.979500	3.337600	-9.943400	26.347225	0.000548	20.744580
1743.425886	-2.999800	3.336500	-10.008000	26.344787	0.000548	20.749242
1744.425390	-2.995900	3.335400	-9.991500	26.347593	0.000547	20.748269
1745.426558	-2.992000	3.334900	-9.977100	26.358586	0.000547	20.750308
1746.431883	-3.068600	3.331600	-10.221000	26.326068	0.000545	20.755560
1747.427610	-3.016100	3.333900	-10.054000	26.366558	0.000545	20.741724
1748.429735	-2.987400	3.333900	-9.958800	26.365919	0.000546	20.738712
1749.429770	-2.994300	3.332600	-9.978200	26.362268	0.000543	20.767285
1750.430713	-2.983400	3.334300	-9.946700	26.375429	0.000544	20.747321
1751.431142	-2.995800	3.333200	-9.983800	26.367261	0.000544	20.737689
1752.434333	-3.004100	3.332400	-10.010000	26.419775	0.000543	20.739260
1753.431658	-3.013600	3.332800	-10.042000	26.411957	0.000543	20.745153
1754.432335	-3.019200	3.330900	-10.055000	26.378726	0.000541	20.729297
1755.434278	-2.989500	3.333900	-9.965500	26.430025	0.000542	20.747666
1756.435451	-3.004500	3.330400	-10.005000	26.431937	0.000541	20.740578
1757.435187	-2.993900	3.331700	-9.973400	26.418556	0.000541	20.737561
1758.434757	-2.990500	3.331700	-9.962500	26.389405	0.000541	20.761368
1759.434674	-3.009100	3.330300	-10.021000	26.380765	0.000538	20.743201
1760.435287	-3.006900	3.329800	-10.011000	26.401921	0.000541	20.750714
1761.438158	-2.974600	3.330500	-9.905100	26.418408	0.000538	20.737412
1762.438289	-2.979100	3.331600	-9.924100	26.449170	0.000538	20.746046
1763.436150	-2.999700	3.328000	-9.981400	26.442596	0.000538	20.739438
1764.437009	-3.004200	3.329700	-10.002000	26.411711	0.000537	20.728310
1765.437584	-2.978100	3.330200	-9.915900	26.371935	0.000535	20.751397
1766.442438	-3.035200	3.328100	-10.100000	26.299775	0.000536	20.750473
1767.442111	-2.994900	3.327900	-9.966400	26.286314	0.000535	20.733625
1768.440114	-2.997700	3.326000	-9.967900	26.315571	0.000533	20.744536
1769.444456	-2.991800	3.325900	-9.948900	26.316190	0.000535	20.766970
1770.448072	-3.022700	3.325500	-10.051000	26.336110	0.000532	20.741943
1771.440268	-3.007100	3.326700	-10.003000	26.355876	0.000532	20.740945
1772.443881	-3.006000	3.324600	-9.992700	26.355177	0.000531	20.749253
1773.440489	-3.015500	3.323600	-10.021000	26.344405	0.000531	20.750281
1774.440557	-2.983600	3.325900	-9.921500	26.345049	0.000531	20.746186
1775.442722	-3.009600	3.323900	-10.003000	26.334051	0.000530	20.758367
1776.441635	-2.997500	3.324200	-9.963500	26.330159	0.000529	20.741653
1777.442298	-2.993400	3.323800	-9.948100	26.358736	0.000531	20.760891
1778.445879	-2.993900	3.323700	-9.949800	26.350072	0.000529	20.753131
1779.441217	-2.991100	3.323500	-9.938800	26.376536	0.000527	20.746063
1780.442324	-3.002600	3.322400	-9.974600	26.366162	0.000527	20.740852
1781.443950	-3.000100	3.323000	-9.968500	26.387171	0.000529	20.745846
1782.443790	-3.000800	3.323100	-9.970500	26.451575	0.000527	20.744670
1783.445731	-3.022200	3.321800	-10.038000	26.485044	0.000526	20.754129
1784.444910	-3.012500	3.320900	-10.003000	26.515362	0.000527	20.759474
1785.444059	-2.995800	3.320700	-9.947100	26.534201	0.000526	20.775565
1786.445024	-2.990600	3.321000	-9.929400	26.543812	0.000526	20.749190
1787.445728	-2.988400	3.320800	-9.921600	26.558159	0.000525	20.768828
1788.451612	-2.992200	3.319900	-9.932500	26.587472	0.000524	20.748508
1789.446530	-2.982700	3.320600	-9.902600	26.595545	0.000523	20.745717
1790.447234	-3.008700	3.319400	-9.986000	26.592838	0.000523	20.754376
1791.448523	-3.002100	3.318700	-9.960800	26.565308	0.000522	20.759419
1792.448722	-3.007700	3.319300	-9.982600	26.574393	0.000520	20.768552
1793.450004	-3.019700	3.318800	-10.021000	26.570148	0.000524	20.782776
1794.447620	-3.005200	3.317400	-9.967500	26.541129	0.000519	20.773521
1795.449629	-2.997600	3.318500	-9.945700	26.552971	0.000519	20.775941
1796.449937	-2.968900	3.319300	-9.853800	26.595870	0.000517	20.750311
1797.449166	-2.998300	3.317400	-9.945700	26.613346	0.000517	20.783053
1798.448266	-3.009400	3.316400	-9.979400	26.621586	0.000518	20.759093
1799.451210	-2.997200	3.315900	-9.937600	26.622583	0.000517	20.757725
1800.449882	-3.004500	3.315200	-9.959400	26.626725	0.000515	20.762363
1801.454820	-3.014900	3.315700	-9.995200	26.632611	0.000517	20.755003
1802.448626	-2.989700	3.314800	-9.909900	26.615582	0.000515	20.758747
1803.449689	-2.974800	3.315700	-9.862700	26.639195	0.000515	20.754036
1804.449142	-2.969000	3.315800	-9.843800	26.611735	0.000514	20.775269
1805.451937	-3.007600	3.314900	-9.969100	26.665106	0.000513	20.754006
1806.450779	-3.026700	3.313800	-10.028000	26.642821	0.000514	20.775700
1807.453822	-3.006300	3.312400	-9.957000	26.615661	0.000512	20.752189
1808.451430	-3.001200	3.313700	-9.943700	26.613076	0.000511	20.767135
1809.452038	-3.010400	3.311300	-9.967100	26.598705	0.000511	20.779715
1810.454435	-3.017200	3.311700	-9.991100	26.574821	0.000511	20.778465
1811.452101	-3.012500	3.312000	-9.976100	26.545650	0.000510	20.771427
1812.451733	-2.996600	3.311500	-9.922900	26.522149	0.000509	20.767244
1813.451737	-2.992800	3.311400	-9.908900	26.514651	0.000509	20.771561
1814.452221	-3.010800	3.309300	-9.962800	26.506411	0.000510	20.766597
1815.459345	-2.998500	3.311000	-9.926800	26.529481	0.000508	20.758493
1816.455142	-2.998300	3.310100	-9.922900	26.541544	0.000509	20.790059
1817.455455	-3.025200	3.309200	-10.010000	26.541544	0.000509	20.755919
1818.453048	-2.995900	3.311200	-9.919200	26.547460	0.000509	20.764712
1819.454658	-3.006200	3.310700	-9.950000	26.573379	0.000508	20.779860
1820.456689	-3.002600	3.309100	-9.934700	26.554487	0.000505	20.780784
1821.456177	-3.014500	3.307900	-9.970900	26.545175	0.000505	20.783752
1822.455922	-3.007000	3.308200	-9.946900	26.544606	0.000508	20.782231
1823.456652	-3.014100	3.307800	-9.969100	26.513497	0.000505	20.759022
1824.455830	-2.982100	3.307700	-9.861500	26.550762	0.000505	20.786049
1825.457008	-2.971300	3.308800	-9.830800	26.525517	0.000505	20.782009
1826.460019	-3.008200	3.305300	-9.940900	26.506054	0.000504	20.791843
1827.456726	-2.997400	3.305900	-9.908500	26.542547	0.000503	20.783007
1828.463199	-2.972400	3.306300	-9.826600	26.570824	0.000502	20.762119
1829.457044	-2.994600	3.306300	-9.899800	26.618690	0.000502	20.793167
1830.456274	-2.969000	3.307000	-9.816400	26.590758	0.000500	20.789269
1831.461687	-3.007500	3.304100	-9.936200	26.601086	0.000500	20.767883
1832.460203	-3.015500	3.304000	-9.962400	26.606972	0.000501	20.785654
1833.462339	-2.987100	3.306400	-9.874500	26.618464	0.000499	20.784879
1834.459351	-2.993100	3.304500	-9.889200	26.640240	0.000498	20.805821
1835.459569	-3.002300	3.303100	-9.915300	26.643364	0.000497	20.773400
1836.462098	-2.991900	3.304900	-9.886700	26.634329	0.000499	20.796560
1837.460161	-3.015100	3.303000	-9.957500	26.649545	0.000497	20.783407
1838.459874	-2.992000	3.303700	-9.884000	26.686333	0.000496	20.792416
1839.459627	-2.996400	3.304200	-9.898900	26.703985	0.000499	20.786929
1840.458448	-2.991700	3.301700	-9.876600	26.732460	0.000494	20.790900
1841.463051	-2.995400	3.302000	-9.890300	26.736257	0.000494	20.779545
1842.463649	-2.991900	3.301100	-9.875500	26.762779	0.000492	20.796253
1843.459404	-2.994700	3.300700	-9.882300	26.792122	0.000492	20.794935
1844.460684	-3.007700	3.299600	-9.922500	26.825310	0.000494	20.783733
1845.461281	-3.017900	3.298800	-9.954500	26.823945	0.000493	20.781412
1846.462243	-2.995400	3.300400	-9.886000	26.805430	0.000492	20.797410
1847.466013	-2.999100	3.298900	-9.892800	26.762785	0.000492	20.775395
1848.460435	-2.977500	3.300300	-9.825900	26.733599	0.000490	20.798210
1849.463290	-2.991100	3.298100	-9.863600	26.670106	0.000492	20.796491
1850.461709	-2.995200	3.299300	-9.881400	26.672165	0.000487	20.792871
1851.461807	-3.009300	3.297000	-9.920800	26.674106	0.000488	20.780123
1852.462934	-2.997700	3.296600	-9.881300	26.676489	0.000489	20.799114
1853.464712	-2.989600	3.297900	-9.858800	26.645635	0.000487	20.791331
1854.464532	-2.989500	3.296700	-9.854800	26.651889	0.000487	20.793350
1855.464841	-3.004100	3.295300	-9.898400	26.623467	0.000486	20.808400
1856.466107	-3.008300	3.295000	-9.910500	26.676470	0.000484	20.805259
1857.463595	-2.984100	3.296000	-9.834200	26.714598	0.000485	20.795228
1858.464117	-2.994300	3.294400	-9.863600	26.743686	0.000487	20.804083
1859.465010	-2.966800	3.296000	-9.777700	26.773776	0.000485	20.811577
1860.467922	-3.002600	3.294400	-9.890500	26.774916	0.000483	20.798024
1861.466393	-3.005500	3.293600	-9.897100	26.732967	0.000483	20.795677
1862.466895	-3.008300	3.294900	-9.910900	26.714304	0.000483	20.812476
1863.474680	-2.991300	3.293200	-9.850400	26.691169	0.000483	20.802494
1864.469648	-2.990100	3.295300	-9.851600	26.715394	0.000480	20.793183
1865.470044	-3.016800	3.292200	-9.930200	26.690349	0.000480	20.798350
1866.467382	-3.006700	3.292200	-9.896800	26.723589	0.000480	20.801422
1867.468501	-3.000800	3.292600	-9.879700	26.743495	0.000480	20.801995
1868.470690	-3.007000	3.292500	-9.898800	26.727858	0.000481	20.790541
1869.473438	-3.008200	3.290700	-9.898000	26.713085	0.000479	20.807457
1870.469485	-2.997000	3.290600	-9.860500	26.733139	0.000478	20.806756
1871.467748	-3.004100	3.290200	-9.883200	26.735320	0.000476	20.809896
1872.470549	-2.997400	3.289800	-9.859600	26.754086	0.000476	20.818332
1873.471811	-2.977300	3.292100	-9.799700	26.769870	0.000477	20.823770
1874.471900	-2.992700	3.290100	-9.845700	26.798299	0.000476	20.806835
1875.468958	-2.991100	3.290400	-9.841000	26.821102	0.000476	20.816011
1876.473200	-2.992200	3.289900	-9.842300	26.820507	0.000475	20.822526
1877.468979	-3.016300	3.287400	-9.914500	26.797394	0.000475	20.821572
1878.469833	-3.035000	3.287900	-9.977400	26.806979	0.000474	20.809872
1879.471266	-2.984700	3.288600	-9.815000	26.781434	0.000471	20.835396
1880.473584	-2.982300	3.288800	-9.807700	26.749291	0.000471	20.798339
1881.471342	-3.005800	3.286800	-9.878400	26.710048	0.000469	20.815784
1882.471552	-2.999700	3.289000	-9.864300	26.706821	0.000470	20.837668
1883.470998	-3.013500	3.286500	-9.903100	26.699520	0.000472	20.820371
1884.469286	-2.994400	3.287700	-9.844400	26.732730	0.000471	20.815353
1885.472289	-3.006800	3.286200	-9.880200	26.750504	0.000470	20.815205
1886.471097	-2.998600	3.285900	-9.851500	26.782598	0.000469	20.821394
1887.472186	-2.998000	3.286000	-9.850300	26.803495	0.000467	20.834818
1888.473077	-3.013900	3.284200	-9.896200	26.819210	0.000467	20.826911
1889.472520	-2.983300	3.285000	-9.799600	26.857977	0.000467	20.835544
1890.476610	-2.978700	3.283200	-9.778700	26.840401	0.000466	20.819768
1891.474192	-2.991800	3.284400	-9.824600	26.862987	0.000464	20.844374
1892.475297	-2.991000	3.284600	-9.823300	26.912677	0.000466	20.827009
1893.473185	-3.035100	3.282200	-9.961100	26.874659	0.000465	20.823394
1894.474497	-3.002900	3.281700	-9.853800	26.865050	0.000465	20.819897
1895.476256	-2.973700	3.284000	-9.764700	26.866312	0.000464	20.834442
1896.476196	-3.011600	3.280800	-9.878900	26.855074	0.000463	20.849220
1897.474300	-2.996600	3.282600	-9.835600	26.864132	0.000464	20.825612
1898.476131	-3.009900	3.281200	-9.875500	26.871780	0.000462	20.854164
1899.475123	-3.007100	3.279700	-9.860700	26.893919	0.000460	20.823320
1900.476655	-2.990500	3.280800	-9.809600	26.892828	0.000458	20.846879
1901.478933	-2.979900	3.279500	-9.771100	26.851833	0.000459	20.830315
1902.477486	-3.005800	3.280100	-9.858800	26.883501	0.000457	20.838923
1903.481931	-3.009700	3.279500	-9.868400	26.910881	0.000458	20.841324
1904.477456	-2.980800	3.280400	-9.777000	26.916416	0.000456	20.830296
1905.476810	-2.984500	3.279800	-9.787600	26.925951	0.000456	20.841779
1906.477048	-2.996900	3.278300	-9.824500	26.893183	0.000457	20.835856
1907.476264	-2.992800	3.278300	-9.810200	26.872195	0.000455	20.843202
1908.477352	-2.979200	3.278500	-9.766000	26.860774	0.000454	20.834563
1909.476760	-3.001200	3.277100	-9.834400	26.873585	0.000454	20.846022
1910.477238	-3.008600	3.277400	-9.859700	26.878606	0.000452	20.843484
1911.478970	-2.974400	3.276400	-9.742800	26.916526	0.000452	20.856957
1912.478482	-3.012300	3.276000	-9.866800	26.950492	0.000451	20.837060
1913.478816	-2.995200	3.275500	-9.809100	26.955673	0.000452	20.841322
1914.477539	-2.976100	3.276600	-9.750400	26.988587	0.000450	20.853082
1915.480888	-2.981400	3.275500	-9.764900	26.988213	0.000451	20.832793
1916.481824	-3.012200	3.273900	-9.860700	27.023949	0.000450	20.845022
1917.481709	-2.999100	3.274300	-9.818900	27.025369	0.000450	20.829855
1918.485855	-2.991300	3.275100	-9.796100	27.046886	0.000448	20.841061
1919.480316	-3.005700	3.273800	-9.839500	27.046346	0.000448	20.852372
1920.481030	-3.002700	3.272700	-9.824400	27.038459	0.000447	20.844915
1921.485939	-2.983700	3.272100	-9.761700	27.062333	0.000446	20.842846
1922.480520	-3.005400	3.272100	-9.832900	27.085037	0.000447	20.854773
1923.480208	-3.007900	3.271600	-9.839600	27.095562	0.000447	20.832168
1924.481581	-3.012000	3.270600	-9.850300	27.114450	0.000446	20.854957
1925.483314	-2.993500	3.271800	-9.793000	27.038574	0.000445	20.853091
1926.484004	-3.019100	3.269900	-9.871300	26.996532	0.000445	20.859175
1927.486712	-2.985300	3.270700	-9.762800	26.932956	0.000444	20.846927
1928.483706	-2.988400	3.270000	-9.771700	26.933134	0.000445	20.864648
1929.483669	-2.999800	3.270600	-9.809800	26.912465	0.000441	20.846710
1930.485107	-3.003300	3.270000	-9.819000	26.913752	0.000442	20.859857
1931.486607	-3.000100	3.268000	-9.803200	26.931743	0.000442	20.859931
1932.488019	-2.977200	3.269300	-9.732200	26.931670	0.000442	20.838521
1933.484385	-3.003600	3.269000	-9.818000	26.962093	0.000441	20.861526
1934.487422	-3.033400	3.266400	-9.906500	26.931768	0.000441	20.850473
1935.486776	-2.988200	3.269300	-9.768300	26.926159	0.000436	20.862376
1936.488026	-3.000900	3.267500	-9.804800	26.945442	0.000438	20.881766
1937.488946	-2.983800	3.267900	-9.749900	26.955761	0.000435	20.870332
1938.485492	-3.012400	3.265800	-9.836700	26.970378	0.000435	20.863694
1939.492042	-2.996900	3.267500	-9.791600	26.949160	0.000436	20.864168
1940.487105	-3.014700	3.265700	-9.843200	26.943998	0.000435	20.825314
1941.486738	-2.988600	3.266500	-9.761800	26.955589	0.000434	20.862573
1942.487553	-2.996000	3.264600	-9.778800	26.951567	0.000434	20.868010
1943.492633	-3.001000	3.263900	-9.792900	26.911334	0.000433	20.885873
1944.489043	-3.012900	3.263700	-9.832000	26.892993	0.000432	20.864113
1945.490961	-2.997800	3.263800	-9.782700	26.874062	0.000432	20.869734
1946.489793	-2.980600	3.265400	-9.732500	26.862611	0.000432	20.892832
1947.489245	-2.989200	3.265100	-9.759200	26.849756	0.000431	20.864735
1948.498558	-2.996900	3.263000	-9.777000	26.855323	0.000431	20.867487
1949.489346	-2.999300	3.263700	-9.788100	26.815092	0.000428	20.880140
1950.493479	-3.022800	3.262100	-9.858000	26.803951	0.000429	20.881741
1951.493849	-3.010700	3.261000	-9.816600	26.808986	0.000430	20.848873
1952.492341	-3.005900	3.261000	-9.800900	26.810902	0.000427	20.856015
1953.492567	-2.997800	3.261200	-9.775400	26.817057	0.000428	20.886858
1954.495776	-2.984200	3.261300	-9.731200	26.830237	0.000426	20.874980
1955.494012	-3.012100	3.261400	-9.822000	26.902704	0.000427	20.882412
1956.491486	-2.990600	3.261300	-9.751500	26.937206	0.000425	20.871113
1957.491430	-2.987500	3.259300	-9.736400	26.987358	0.000426	20.864174
1958.491624	-2.989800	3.259600	-9.743800	27.002250	0.000423	20.880097
1959.496530	-3.005100	3.259000	-9.792800	27.020486	0.000423	20.887529
1960.496165	-2.999000	3.257900	-9.769800	27.023266	0.000422	20.870885
1961.496800	-3.017700	3.257100	-9.827500	27.010290	0.000423	20.883440
1962.494609	-2.987500	3.257900	-9.732100	27.035794	0.000421	20.872579
1963.496593	-3.030900	3.254900	-9.863700	27.076788	0.000420	20.864494
1964.500446	-3.012200	3.257500	-9.811200	27.066538	0.000418	20.873626
1965.495349	-3.000300	3.256300	-9.768600	27.069716	0.000418	20.903372
1966.496842	-3.001100	3.255300	-9.768600	27.099633	0.000418	20.881779
1967.497452	-3.000400	3.256000	-9.768800	27.099516	0.000419	20.879765
1968.498302	-2.980700	3.256000	-9.703100	27.105890	0.000417	20.894235
1969.498411	-2.992500	3.254900	-9.738900	27.090858	0.000418	20.882437
1970.495885	-3.001900	3.254200	-9.767800	27.117701	0.000414	20.871502
1971.497661	-2.992200	3.255800	-9.740300	27.106386	0.000416	20.871976
1972.497602	-3.009400	3.254000	-9.791900	27.123456	0.000413	20.868756
1973.501099	-2.991700	3.254400	-9.735200	27.142565	0.000414	20.892714
1974.500906	-3.010400	3.251400	-9.786700	27.142516	0.000411	20.879389
1975.502282	-3.015300	3.252200	-9.805100	27.154454	0.000413	20.886181
1976.500502	-2.993200	3.251800	-9.731700	27.177285	0.000410	20.891599
1977.503940	-2.991300	3.252500	-9.729000	27.183217	0.000411	20.879074
1978.501272	-2.998000	3.251500	-9.746600	27.175821	0.000408	20.896765
1979.501755	-2.987000	3.251000	-9.709300	27.181429	0.000407	20.882018
1980.504102	-2.987500	3.250700	-9.710500	27.149972	0.000409	20.882147
1981.503330	-2.995700	3.250200	-9.735700	27.136668	0.000409	20.863552
1982.502151	-2.991200	3.248800	-9.716300	27.156027	0.000408	20.874961
1983.502942	-2.990800	3.249800	-9.717300	27.185879	0.000406	20.890760
1984.503590	-3.005900	3.248300	-9.763300	27.179481	0.000407	20.882429
1985.502286	-2.988300	3.249100	-9.708400	27.167946	0.000406	20.861346
1986.503286	-2.997700	3.248900	-9.737900	27.201888	0.000404	20.878888
1987.501853	-3.012800	3.247600	-9.782900	27.191866	0.000405	20.876868
1988.507224	-3.006600	3.247300	-9.762000	27.179841	0.000401	20.879472
1989.502858	-2.980300	3.246700	-9.675600	27.199164	0.000402	20.876148
1990.503524	-2.986600	3.245800	-9.692500	27.228764	0.000402	20.864196
1991.505901	-3.008100	3.245800	-9.762700	27.210409	0.000402	20.889829
1992.504002	-2.980100	3.246000	-9.672300	27.188724	0.000399	20.860907
1993.502656	-2.979000	3.245900	-9.668100	27.204581	0.000400	20.874010
1994.503814	-2.991700	3.245000	-9.707000	27.183073	0.000400	20.852379
1995.503869	-3.008600	3.243300	-9.756300	27.203791	0.000398	20.862311
1996.502149	-2.992100	3.245000	-9.709100	27.182234	0.000399	20.864810
1997.505908	-2.992000	3.243700	-9.703900	27.107998	0.000396	20.856528
1998.502180	-3.004900	3.243000	-9.744000	27.058451	0.000396	20.852691
1999.502512	-2.994200	3.243300	-9.710200	27.012019	0.000396	20.872851
2000.503270	-2.989100	3.242400	-9.690900	27.028281	0.000393	20.833258
2001.502637	-2.982400	3.243600	-9.673100	27.073592	0.000393	20.869815
2002.506726	-3.018700	3.241000	-9.783300	27.091617	0.000394	20.838632
2003.503150	-3.002500	3.241300	-9.731400	27.108222	0.000395	20.851064
2004.503641	-3.017100	3.240000	-9.775000	27.119738	0.000393	20.865491
2005.504429	-2.999300	3.241300	-9.719800	27.175387	0.000390	20.843226
2006.504593	-3.019500	3.239700	-9.781200	27.140231	0.000390	20.854808
2007.503425	-3.022800	3.238700	-9.788400	27.118801	0.000389	20.856488
2008.507075	-3.018200	3.238300	-9.772900	27.101284	0.000390	20.860681
2009.504242	-3.012800	3.238700	-9.756800	27.090348	0.000389	20.859166
2010.504824	-3.013200	3.239700	-9.760300	27.084322	0.000387	20.852158
2011.503256	-3.018900	3.237500	-9.773100	27.101301	0.000387	20.847897
2012.506645	-3.010500	3.237400	-9.745000	27.111294	0.000387	20.837559
2013.512315	-2.985200	3.238300	-9.665700	27.131620	0.000385	20.831450
2014.503325	-3.003500	3.236300	-9.719300	27.113013	0.000385	20.842607
2015.506467	-3.014700	3.236800	-9.757400	27.083415	0.000383	20.818530
2016.504436	-3.007100	3.237100	-9.733400	27.036023	0.000383	20.818758
2017.504960	-3.001800	3.234500	-9.708800	26.992051	0.000384	20.840919
2018.508851	-3.005300	3.235400	-9.722300	27.068089	0.000381	20.845315
2019.505773	-3.004600	3.235700	-9.720100	27.072038	0.000381	20.833166
2020.506900	-3.014200	3.233400	-9.744100	27.074627	0.000380	20.854735
2021.506402	-3.025100	3.233500	-9.781100	27.055376	0.000379	20.843436
2022.507598	-3.006300	3.233600	-9.719900	27.043221	0.000378	20.827894
2023.508929	-3.013500	3.233200	-9.742100	27.023689	0.000379	20.810147
2024.506656	-3.009000	3.232100	-9.724900	27.029916	0.000378	20.823522
2025.510640	-2.969600	3.233500	-9.601400	27.053300	0.000377	20.824279
2026.508063	-2.997400	3.232300	-9.688000	27.054273	0.000375	20.828576
2027.507450	-3.002100	3.231500	-9.698900	27.068496	0.000375	20.824863
2028.509893	-3.010900	3.231300	-9.728600	27.108393	0.000375	20.832745
2029.508659	-3.021600	3.230500	-9.759300	27.144400	0.000372	20.819173
2030.508438	-2.999700	3.229900	-9.688100	27.183559	0.000375	20.827264
2031.506163	-2.989000	3.231000	-9.656200	27.223163	0.000373	20.818735
2032.509551	-3.012400	3.229400	-9.726700	27.277226	0.000372	20.830441
2033.510599	-3.001000	3.228400	-9.687200	27.273381	0.000371	20.827048
2034.511693	-2.987200	3.228100	-9.641000	27.285661	0.000370	20.813796
2035.510927	-3.004500	3.228600	-9.699600	27.283806	0.000370	20.824258
2036.512704	-3.001600	3.228400	-9.689100	27.285196	0.000368	20.835613
2037.510377	-3.018700	3.226800	-9.740000	27.324423	0.000367	20.828131
2038.510004	-3.012900	3.228900	-9.727400	27.349386	0.000369	20.816258
2039.516163	-3.030300	3.225000	-9.770700	27.335686	0.000366	20.819547
2040.511020	-2.984900	3.227600	-9.633500	27.343822	0.000366	20.834843
2041.510124	-3.010000	3.224800	-9.705900	27.357698	0.000365	20.813715
2042.511456	-3.015200	3.224500	-9.721400	27.356388	0.000366	20.823776
2043.512169	-3.003200	3.225300	-9.686200	27.347836	0.000363	20.826553
2044.513820	-3.017900	3.223800	-9.728200	27.330739	0.000363	20.794656
2045.517014	-3.010700	3.225000	-9.708600	27.313108	0.000363	20.826232
2046.514045	-2.990600	3.223800	-9.640000	27.300106	0.000361	20.807938
2047.513882	-2.985400	3.223900	-9.623400	27.377408	0.000361	20.816473
2048.514443	-3.011800	3.221600	-9.701600	27.395771	0.000359	20.807919
2049.513651	-3.015000	3.221300	-9.711200	27.419067	0.000360	20.806700
2050.517132	-3.013000	3.220200	-9.702200	27.430850	0.000359	20.815234
2051.515631	-3.008200	3.221200	-9.688400	27.451637	0.000359	20.812913
2052.516877	-2.981500	3.222400	-9.606800	27.482748	0.000359	20.825246
2053.516189	-2.983500	3.223600	-9.616400	27.516037	0.000358	20.809901
2054.517003	-2.977200	3.220700	-9.587200	27.521496	0.000358	20.798324
2055.516271	-3.000900	3.219300	-9.660200	27.560238	0.000356	20.804113
2056.516157	-2.976500	3.221800	-9.588400	27.584081	0.000356	20.807240
2057.518320	-2.980700	3.219900	-9.596700	27.571039	0.000354	20.819248
2058.517870	-2.976200	3.220000	-9.582400	27.580317	0.000355	20.794918
2059.517902	-2.987600	3.218900	-9.615800	27.571540	0.000351	20.820226
2060.517422	-2.987200	3.218000	-9.611800	27.590286	0.000352	20.804949
2061.520018	-3.008700	3.217400	-9.679000	27.540767	0.000350	20.807282
2062.518580	-2.983700	3.217600	-9.599500	27.526899	0.000350	20.807553
2063.517420	-3.011000	3.215500	-9.680900	27.509339	0.000350	20.815016
2064.516794	-2.990000	3.215000	-9.612100	27.479777	0.000347	20.792860
2065.519488	-2.996000	3.214100	-9.628300	27.422548	0.000349	20.813994
2066.517334	-2.987300	3.214600	-9.601500	27.383532	0.000349	20.784701
2067.521840	-3.003800	3.216500	-9.660800	27.413274	0.000347	20.783802
2068.520971	-3.004200	3.213300	-9.652700	27.441504	0.000345	20.805564
2069.520220	-2.998800	3.212300	-9.631800	27.468270	0.000345	20.784602
2070.523660	-3.009700	3.212700	-9.667700	27.501663	0.000344	20.803026
2071.523626	-2.987300	3.213400	-9.598700	27.473160	0.000345	20.812282
2072.524064	-3.008100	3.213000	-9.664400	27.460092	0.000343	20.777797
2073.523017	-2.982500	3.212200	-9.579700	27.471697	0.000343	20.798956
2074.522426	-2.984800	3.213200	-9.589200	27.490677	0.000341	20.790550
2075.522544	-2.962800	3.211700	-9.514400	27.490132	0.000340	20.793796
2076.524013	-2.979800	3.212000	-9.570700	27.497005	0.000339	20.784589
2077.527032	-2.995000	3.211300	-9.615900	27.467535	0.000339	20.793346
2078.528139	-3.001800	3.211000	-9.638400	27.457417	0.000341	20.795969
2079.523635	-2.988300	3.209500	-9.589600	27.480369	0.000337	20.787766
2080.522483	-2.994200	3.208800	-9.607100	27.476795	0.000338	20.796024
2081.526067	-2.978000	3.209500	-9.556300	27.500463	0.000337	20.793758
2082.523788	-3.018400	3.206900	-9.678400	27.545331	0.000336	20.789589
2083.523058	-3.009500	3.208700	-9.654300	27.551458	0.000335	20.785322
2084.522857	-3.008800	3.207700	-9.650900	27.547541	0.000336	20.804140
2085.524464	-3.002300	3.209500	-9.634000	27.568753	0.000334	20.802723
2086.524467	-2.997600	3.206100	-9.609300	27.535416	0.000334	20.808062
2087.529219	-2.993700	3.205600	-9.595600	27.503008	0.000333	20.789206
2088.526874	-3.001500	3.206300	-9.622500	27.479016	0.000332	20.791621
2089.525653	-3.017200	3.205800	-9.671400	27.452623	0.000332	20.777870
2090.527132	-3.019200	3.203800	-9.671500	27.466842	0.000331	20.788381
2091.528460	-3.009400	3.203000	-9.638200	27.425985	0.000332	20.779046
2092.528750	-3.005900	3.203500	-9.628300	27.446551	0.000330	20.779347
2093.527634	-3.011000	3.204000	-9.646200	27.432687	0.000330	20.771564
2094.529406	-3.007700	3.202900	-9.632500	27.443650	0.000329	20.787334
2095.531048	-2.984800	3.202000	-9.555100	27.424920	0.000328	20.784138
2096.529365	-2.994200	3.202100	-9.586500	27.470220	0.000327	20.778029
2097.530823	-2.989400	3.203600	-9.575700	27.469822	0.000327	20.800863
2098.530221	-3.019700	3.200900	-9.664100	27.447720	0.000326	20.768195
2099.529826	-2.991900	3.200900	-9.575600	27.453370	0.000325	20.786682
2100.529010	-3.006100	3.199300	-9.616800	27.477381	0.000327	20.771010
2101.529418	-3.024800	3.199700	-9.677100	27.487676	0.000324	20.769987
2102.533710	-3.017800	3.200300	-9.656700	27.498938	0.000323	20.778947
2103.531182	-2.995700	3.198200	-9.580300	27.504269	0.000323	20.772457
2104.528948	-3.020300	3.197900	-9.657100	27.513517	0.000324	20.784607
2105.535208	-2.996000	3.199000	-9.582800	27.509447	0.000320	20.786676
2106.529488	-3.003300	3.198700	-9.604800	27.481097	0.000322	20.788499
2107.530434	-3.012100	3.197100	-9.629200	27.513481	0.000320	20.766078
2108.533885	-3.009100	3.196600	-9.617600	27.509197	0.000322	20.768880
2109.528896	-3.017100	3.195300	-9.639700	27.546053	0.000318	20.768504
2110.529744	-3.011200	3.194500	-9.617600	27.570926	0.000318	20.771719
2111.529441	-3.023000	3.194600	-9.656200	27.588087	0.000317	20.785667
2112.530576	-2.979500	3.194400	-9.516700	27.605180	0.000318	20.762088
2113.529611	-2.995400	3.194800	-9.567900	27.621722	0.000316	20.775414
2114.533081	-2.997100	3.194000	-9.571700	27.635234	0.000315	20.780001
2115.529958	-2.976000	3.193100	-9.502200	27.626960	0.000314	20.775943
2116.530409	-2.980200	3.193100	-9.514600	27.614158	0.000314	20.777760
2117.529793	-3.004500	3.191000	-9.586100	27.601906	0.000313	20.777286
2118.535644	-3.003300	3.191900	-9.585400	27.625320	0.000311	20.759594
2119.538651	-3.002400	3.191600	-9.580700	27.620259	0.000310	20.772045
2120.532074	-3.014900	3.192400	-9.623900	27.581746	0.000313	20.761268
2121.531206	-2.998800	3.191400	-9.569500	27.514552	0.000311	20.780432
2122.534142	-3.007900	3.188400	-9.589500	27.466860	0.000310	20.762795
2123.533261	-3.001800	3.188800	-9.571000	27.479010	0.000309	20.769329
2124.535173	-3.008500	3.188300	-9.591100	27.513169	0.000307	20.745374
2125.533184	-2.977300	3.189500	-9.494700	27.546702	0.000307	20.773898
2126.530467	-3.023500	3.187600	-9.636100	27.600351	0.000307	20.750116
2127.532371	-2.993500	3.187900	-9.542500	27.627437	0.000304	20.768836
2128.531665	-3.005000	3.187200	-9.576400	27.652112	0.000305	20.762370
2129.532960	-2.994900	3.186700	-9.543300	27.647693	0.000306	20.765511
2130.533907	-2.998600	3.185600	-9.550600	27.664418	0.000303	20.764322
2131.534243	-3.031300	3.184100	-9.650900	27.647969	0.000305	20.768159
2132.535110	-2.989000	3.185800	-9.521300	27.636311	0.000302	20.761644
2133.534041	-3.023800	3.184600	-9.629000	27.616960	0.000302	20.752604
2134.534505	-2.996300	3.184100	-9.539400	27.598454	0.000301	20.761959
2135.535487	-3.010600	3.182800	-9.579900	27.618589	0.000302	20.752820
2136.536056	-2.992900	3.183100	-9.526200	27.629923	0.000300	20.771338
2137.536230	-2.977600	3.185000	-9.481600	27.638282	0.000298	20.768843
2138.533829	-2.981700	3.183400	-9.491100	27.636936	0.000297	20.738091
2139.534575	-2.995300	3.181600	-9.528500	27.643430	0.000297	20.772601
2140.535849	-3.013400	3.181100	-9.585000	27.620034	0.000296	20.740998
2141.535741	-2.993500	3.180300	-9.519100	27.619116	0.000296	20.764257
2142.533786	-2.980900	3.180800	-9.478900	27.653118	0.000297	20.760063
2143.534190	-2.982600	3.178500	-9.478100	27.687657	0.000295	20.769215
2144.535086	-2.991000	3.179700	-9.509500	27.709356	0.000294	20.759282
2145.535616	-3.009900	3.177200	-9.561000	27.710317	0.000295	20.756930
2146.538660	-2.996600	3.178400	-9.523300	27.670039	0.000295	20.749116
2147.535890	-3.001500	3.178700	-9.538700	27.631149	0.000290	20.776839
2148.539027	-2.984700	3.178700	-9.486400	27.620556	0.000293	20.771396
2149.536196	-2.958500	3.177300	-9.399300	27.629700	0.000291	20.765423
2150.538149	-3.005500	3.175600	-9.543900	27.646370	0.000291	20.758015
2151.534654	-3.000400	3.175000	-9.525800	27.657973	0.000291	20.732231
2152.539231	-3.000000	3.174400	-9.521600	27.653255	0.000289	20.763995
2153.535926	-2.996400	3.175900	-9.515400	27.719816	0.000289	20.741832
2154.537080	-2.986600	3.176000	-9.483800	27.757155	0.000288	20.756649
2155.538603	-2.997400	3.173900	-9.512000	27.808585	0.000288	20.758620
2156.540754	-2.991100	3.174100	-9.492600	27.821452	0.000288	20.773467
2157.543649	-2.998900	3.171700	-9.509200	27.819067	0.000287	20.759211
2158.540131	-2.995500	3.172900	-9.503300	27.792383	0.000288	20.754168
2159.540107	-3.004200	3.171300	-9.527000	27.761758	0.000284	20.750375
2160.538083	-3.008400	3.172700	-9.543600	27.700829	0.000284	20.742640
2161.539551	-3.006200	3.168400	-9.522200	27.649016	0.000283	20.727485
2162.541580	-2.995300	3.170300	-9.494600	27.665238	0.000283	20.745707
2163.542080	-3.007600	3.170800	-9.534400	27.691424	0.000283	20.754987
2164.541168	-3.013600	3.168300	-9.547000	27.693671	0.000281	20.755826
2165.543063	-2.999400	3.169000	-9.504000	27.694392	0.000282	20.763665
2166.540459	-3.024300	3.166400	-9.574500	27.693872	0.000281	20.754132
2167.541485	-2.990500	3.168400	-9.474100	27.674572	0.000280	20.768850
2168.542159	-2.993300	3.167200	-9.478400	27.663642	0.000278	20.750739
2169.541217	-3.021600	3.164900	-9.561900	27.717499	0.000279	20.753726
2170.542610	-3.012400	3.164500	-9.531700	27.761741	0.000278	20.765057
2171.539293	-2.996700	3.163600	-9.477700	27.775576	0.000278	20.744840
2172.541500	-2.989900	3.166000	-9.464200	27.777687	0.000275	20.762138
2173.543533	-3.025200	3.162600	-9.564700	27.790555	0.000276	20.756122
2174.542042	-2.966800	3.163300	-9.383800	27.778207	0.000276	20.738004
2175.547264	-3.008400	3.162900	-9.514100	27.803281	0.000274	20.736686
2176.543564	-2.993000	3.161600	-9.460900	27.822342	0.000274	20.766301
2177.542993	-3.013000	3.163600	-9.530100	27.838685	0.000274	20.755721
2178.544810	-2.998900	3.160900	-9.478200	27.847195	0.000273	20.721611
2179.546273	-2.969700	3.161400	-9.387600	27.877616	0.000273	20.755075
2180.544741	-2.973600	3.160800	-9.398100	27.898002	0.000270	20.753307
2181.543490	-2.977100	3.160400	-9.407800	27.829886	0.000270	20.770574
2182.542752	-2.992500	3.160100	-9.455200	27.818107	0.000271	20.761565
2183.544302	-2.996900	3.158700	-9.465100	27.814368	0.000268	20.737887
2184.547086	-2.987400	3.158500	-9.435000	27.841743	0.000270	20.736039
2185.547565	-3.003300	3.157900	-9.483000	27.822378	0.000268	20.757328
2186.546586	-2.984500	3.157500	-9.422300	27.843848	0.000268	20.751435
2187.545429	-3.013700	3.155100	-9.507200	27.828203	0.000265	20.771251
2188.546008	-2.986700	3.154600	-9.421400	27.803557	0.000267	20.738386
2189.547333	-2.982500	3.156300	-9.413000	27.783120	0.000264	20.732517
2190.543994	-2.989600	3.154600	-9.430400	27.785182	0.000264	20.745498
2191.543577	-2.987300	3.154700	-9.422600	27.828478	0.000265	20.737862
2192.551384	-2.995900	3.153700	-9.445900	27.867508	0.000262	20.726882
2193.544639	-2.987600	3.153700	-9.421400	27.881592	0.000263	20.726359
2194.544071	-3.018100	3.150700	-9.508500	27.903783	0.000263	20.742056
2195.549273	-2.985800	3.152200	-9.410600	27.932049	0.000263	20.740159
2196.547243	-3.032400	3.149600	-9.549300	27.974293	0.000262	20.751860
2197.546669	-2.998300	3.150100	-9.442800	27.999877	0.000259	20.740153
2198.545219	-2.986800	3.149600	-9.406800	28.009127	0.000261	20.751361
2199.549014	-2.995500	3.149000	-9.432500	28.015771	0.000260	20.754729
2200.550316	-2.986300	3.148800	-9.402400	28.042797	0.000259	20.750166
2201.546767	-3.017000	3.148800	-9.498600	28.037115	0.000260	20.744446
2202.549052	-2.996000	3.148500	-9.431700	28.019937	0.000260	20.735214
2203.546262	-2.981400	3.146200	-9.379000	28.004362	0.000257	20.725700
2204.547229	-2.985400	3.146500	-9.392000	27.976624	0.000256	20.747093
2205.550706	-3.012500	3.146600	-9.477800	27.952373	0.000256	20.746866
2206.549860	-3.003300	3.145000	-9.443700	27.969858	0.000256	20.733644
2207.550185	-3.011100	3.144100	-9.465300	28.007836	0.000256	20.766183
2208.549671	-2.987800	3.144900	-9.395700	28.004441	0.000257	20.755179
2209.552007	-3.016900	3.143300	-9.482400	28.002630	0.000254	20.743399
2210.551228	-3.010300	3.141500	-9.456000	28.022714	0.000253	20.734691
2211.551620	-3.016500	3.139700	-9.469200	28.019515	0.000253	20.752334
2212.551029	-3.022700	3.141300	-9.493800	28.037365	0.000253	20.750862
2213.555836	-2.978800	3.140700	-9.354400	28.004313	0.000254	20.747937
2214.549068	-2.996100	3.140900	-9.409300	27.937201	0.000251	20.749612
2215.552177	-3.004000	3.138800	-9.427900	27.943869	0.000250	20.735935
2216.556384	-2.977500	3.138100	-9.342900	27.972305	0.000251	20.742272
2217.551243	-3.008400	3.137800	-9.438500	28.003297	0.000251	20.745493
2218.552667	-2.974000	3.138100	-9.330600	27.997694	0.000251	20.754551
2219.554936	-2.996100	3.135700	-9.392800	27.988646	0.000251	20.764410
2220.552794	-3.013900	3.135400	-9.448200	27.927700	0.000249	20.764232
2221.560222	-3.002900	3.133900	-9.410100	27.864694	0.000250	20.739698
2222.553717	-2.976500	3.134300	-9.327700	27.854433	0.000248	20.728422
2223.558039	-2.995200	3.134800	-9.388100	27.853834	0.000248	20.749631
2224.553587	-3.003000	3.132400	-9.405900	27.857004	0.000248	20.749028
2225.557454	-2.983000	3.131900	-9.341500	27.819711	0.000247	20.752747
2226.556833	-2.996200	3.131300	-9.380700	27.803393	0.000246	20.745807
2227.558134	-3.013700	3.130400	-9.432600	27.832677	0.000247	20.759158
2228.556187	-2.986100	3.130700	-9.348200	27.870171	0.000245	20.755168
2229.553648	-3.020100	3.128500	-9.446200	27.896277	0.000245	20.754891
2230.558737	-2.972600	3.129200	-9.299300	27.904874	0.000245	20.766388
2231.554074	-3.020000	3.127200	-9.442900	27.921313	0.000244	20.767761
2232.557424	-3.010900	3.127200	-9.414400	27.903333	0.000242	20.763888
2233.560575	-3.011700	3.126000	-9.411800	27.913795	0.000241	20.754978
2234.557955	-3.006700	3.124700	-9.394200	27.888796	0.000243	20.736929
2235.554369	-3.005900	3.124100	-9.389300	27.889022	0.000241	20.752330
2236.556818	-2.981100	3.125500	-9.316700	27.897007	0.000240	20.762263
2237.562715	-2.999600	3.123600	-9.368500	27.948001	0.000241	20.763803
2238.561856	-3.019300	3.123600	-9.430200	27.978297	0.000240	20.753519
2239.557877	-2.986800	3.122800	-9.325700	28.013376	0.000240	20.755164
2240.557309	-3.016400	3.119900	-9.410200	28.012703	0.000239	20.765393
2241.558953	-2.994800	3.120400	-9.344100	28.062279	0.000239	20.752708
2242.556429	-2.991700	3.120000	-9.333400	28.078191	0.000237	20.762561
2243.560803	-2.995800	3.120500	-9.346300	28.111235	0.000237	20.732762
2244.560073	-3.024000	3.118300	-9.428300	28.105137	0.000235	20.751754
2245.558845	-2.992500	3.118000	-9.329700	28.058892	0.000236	20.770161
2246.558292	-2.997700	3.117200	-9.343500	28.037377	0.000237	20.757038
2247.559217	-3.001100	3.117600	-9.354000	28.060874	0.000236	20.770734
2248.561475	-3.011900	3.116100	-9.384800	28.067591	0.000235	20.792194
2249.559531	-3.016100	3.115900	-9.397300	28.087074	0.000233	20.761546
2250.562892	-2.982400	3.115400	-9.290400	28.090415	0.000233	20.754952
2251.560596	-3.005900	3.113900	-9.359000	28.087167	0.000234	20.742198
2252.563010	-3.002600	3.112900	-9.346300	28.072045	0.000233	20.760642
2253.562899	-2.988000	3.110900	-9.294500	28.081313	0.000232	20.773765
2254.564794	-3.017900	3.109000	-9.381700	28.045240	0.000232	20.770169
2255.561448	-2.982500	3.112300	-9.281500	27.971603	0.000232	20.756738
2256.563148	-3.005100	3.109600	-9.344500	27.958413	0.000230	20.774757
2257.564734	-3.016900	3.107800	-9.375500	27.932424	0.000231	20.772306
2258.565488	-2.990300	3.108600	-9.293700	27.933287	0.000230	20.770330
2259.565859	-3.008700	3.107400	-9.348300	27.961380	0.000230	20.776796
2260.563856	-3.019800	3.107200	-9.382500	28.002834	0.000231	20.770157
2261.566070	-2.983900	3.105800	-9.265400	27.990489	0.000229	20.766740
2262.565073	-3.002400	3.105900	-9.323700	27.967774	0.000228	20.746720
2263.566451	-3.008900	3.105000	-9.341000	27.935006	0.000228	20.792923
2264.571730	-2.999600	3.103300	-9.307400	27.873359	0.000229	20.777344
2265.566588	-3.020300	3.100900	-9.364500	27.879563	0.000227	20.777897
2266.570117	-2.990700	3.102600	-9.277500	27.866549	0.000228	20.783766
2267.567297	-3.026200	3.100300	-9.379900	27.896743	0.000226	20.764843
2268.571266	-2.991500	3.099300	-9.271300	27.968079	0.000227	20.774055
2269.567347	-2.991600	3.099600	-9.272300	27.985239	0.000228	20.783267
2270.574509	-2.999500	3.098300	-9.292200	28.022030	0.000226	20.785213
2271.568110	-3.000300	3.097100	-9.290800	28.045234	0.000224	20.792923
2272.570063	-3.021300	3.097600	-9.357800	28.083485	0.000225	20.788754
2273.568570	-2.993500	3.095300	-9.265200	28.084972	0.000228	20.788828
2274.570153	-2.987000	3.096700	-9.248700	28.089290	0.000226	20.773734
2275.570305	-3.015300	3.092900	-9.324700	28.086140	0.000224	20.779572
2276.570361	-3.023700	3.091000	-9.345300	28.093701	0.000223	20.796192
2277.574685	-2.996400	3.091500	-9.262000	28.101158	0.000222	20.785207
2278.569461	-2.992000	3.093000	-9.252100	28.138275	0.000224	20.794597
2279.569825	-2.980700	3.091300	-9.212100	28.199062	0.000222	20.794153
2280.568105	-2.993800	3.090800	-9.252000	28.207435	0.000224	20.767496
2281.570019	-3.013700	3.086800	-9.302000	28.253045	0.000224	20.790182
2282.569806	-2.997400	3.088300	-9.255700	28.251888	0.000223	20.781431
2283.569566	-3.022300	3.086900	-9.329300	28.244769	0.000220	20.791333
2284.569413	-3.009300	3.085800	-9.284600	28.206823	0.000220	20.786320
2285.569940	-2.979000	3.086800	-9.194000	28.146611	0.000221	20.790188
2286.571584	-3.015400	3.084000	-9.298600	28.085484	0.000223	20.794085
2287.568849	-2.998300	3.084700	-9.248300	28.062379	0.000220	20.797854
2288.570115	-3.005300	3.082600	-9.263400	28.089026	0.000224	20.784374
2289.570072	-3.002400	3.081500	-9.251200	28.116247	0.000222	20.792811
2290.568823	-2.978200	3.081700	-9.176500	28.144237	0.000221	20.782108
2291.569193	-3.016900	3.079400	-9.289600	28.134671	0.000220	20.812306
2292.572325	-3.005400	3.079900	-9.255500	28.165113	0.000221	20.798857
2293.574119	-2.985500	3.080300	-9.194500	28.189953	0.000218	20.795889
2294.570138	-3.003300	3.078000	-9.243700	28.177757	0.000217	20.779343
2295.570085	-3.019900	3.075300	-9.285200	28.188050	0.000219	20.776903
2296.576203	-2.986900	3.076200	-9.186700	28.204528	0.000217	20.782588
2297.569644	-3.004100	3.075100	-9.237500	28.248431	0.000219	20.786959
2298.572633	-2.994400	3.073500	-9.202200	28.264174	0.000217	20.798068
2299.570680	-2.977100	3.073800	-9.149100	28.196754	0.000218	20.804158
2300.569590	-3.000500	3.072900	-9.219300	28.192545	0.000217	20.804662
2301.570436	-3.007300	3.072500	-9.238600	28.185309	0.000216	20.801171
2302.575026	-3.002000	3.071500	-9.219500	28.205909	0.000216	20.794409
2303.571544	-2.994700	3.070700	-9.195000	28.202466	0.000217	20.796632
2304.575035	-2.991400	3.068400	-9.177600	28.202869	0.000215	20.791822
2305.572904	-2.962900	3.068100	-9.088900	28.249169	0.000215	20.814729
2306.572425	-3.000300	3.066500	-9.199500	28.252539	0.000215	20.802001
2307.574857	-3.006000	3.065900	-9.214800	28.210478	0.000214	20.802328
2308.570939	-3.016000	3.065200	-9.242900	28.184359	0.000213	20.797844
2309.575498	-2.997800	3.063100	-9.181200	28.137903	0.000214	20.809870
2310.572721	-3.007600	3.061100	-9.204000	28.120035	0.000215	20.779555
2311.573346	-3.022300	3.062000	-9.252500	28.105832	0.000215	20.808404
2312.575924	-3.007100	3.061000	-9.203900	28.121925	0.000215	20.792837
2313.574465	-2.989800	3.060200	-9.148300	28.154051	0.000213	20.808108
2314.573844	-3.033600	3.058300	-9.276300	28.170413	0.000216	20.811304
2315.573120	-3.004800	3.057200	-9.185300	28.204873	0.000215	20.809961
2316.575838	-3.027800	3.054700	-9.248100	28.205742	0.000213	20.820319
2317.572849	-2.987000	3.055900	-9.126200	28.234751	0.000212	20.797842
2318.576005	-3.030500	3.052300	-9.249000	28.266769	0.000214	20.795940
2319.572765	-2.994400	3.053000	-9.140700	28.274133	0.000213	20.792448
2320.575549	-3.007500	3.052100	-9.177800	28.259564	0.000211	20.789159
2321.582323	-3.016200	3.051400	-9.201800	28.263087	0.000211	20.804086
2322.576549	-3.016400	3.049900	-9.198600	28.277000	0.000211	20.809085
2323.578675	-2.979600	3.049800	-9.085400	28.327909	0.000211	20.799177
2324.576392	-3.025800	3.047900	-9.220500	28.368284	0.000211	20.800951
2325.580649	-2.991300	3.046900	-9.113600	28.395949	0.000212	20.815058
2326.578249	-2.993200	3.047000	-9.119200	28.413103	0.000211	20.828062
2327.576771	-2.988900	3.046100	-9.102600	28.459920	0.000211	20.808825
2328.577544	-2.988500	3.043400	-9.094100	28.452190	0.000209	20.818585
2329.580969	-2.981500	3.042700	-9.070300	28.493154	0.000212	20.796774
2330.577272	-3.004600	3.040400	-9.133900	28.522125	0.000212	20.815519
2331.576468	-2.986800	3.042400	-9.085100	28.537937	0.000213	20.820063
2332.577974	-2.995700	3.040900	-9.108500	28.528153	0.000211	20.818271
2333.578750	-3.014600	3.037800	-9.156800	28.540071	0.000210	20.823634
2334.583230	-3.006100	3.036200	-9.126600	28.541465	0.000211	20.793270
2335.578106	-2.998600	3.036700	-9.105000	28.576775	0.000208	20.798011
2336.578415	-3.003600	3.034200	-9.112400	28.597643	0.000210	20.810493
2337.579795	-2.996100	3.033500	-9.087900	28.609388	0.000208	20.815210
2338.579111	-3.007300	3.032500	-9.119300	28.604686	0.000207	20.815215
2339.578891	-3.001000	3.030500	-9.093800	28.621084	0.000209	20.824618
2340.577769	-2.985900	3.031900	-9.052000	28.630976	0.000209	20.819883
2341.583447	-3.024200	3.028700	-9.157900	28.590690	0.000209	20.818663
2342.578825	-2.992600	3.027900	-9.060200	28.496968	0.000209	20.807728
2343.581260	-2.993700	3.026700	-9.059400	28.465005	0.000209	20.828645
2344.580416	-3.006100	3.025400	-9.094000	28.428755	0.000207	20.798779
2345.582309	-2.971300	3.024600	-8.986100	28.461024	0.000207	20.809937
2346.578095	-3.005800	3.023000	-9.085000	28.491629	0.000207	20.833170
2347.583220	-3.008700	3.022600	-9.093300	28.479191	0.000208	20.801205
2348.578769	-3.014300	3.020100	-9.102500	28.477381	0.000207	20.819297
2349.578633	-3.017500	3.019200	-9.109600	28.489794	0.000207	20.808564
2350.583051	-3.002300	3.019500	-9.064600	28.528506	0.000207	20.830953
2351.579841	-3.003800	3.017600	-9.061700	28.552199	0.000208	20.805977
2352.578773	-3.005900	3.015600	-9.063200	28.546207	0.000205	20.815589
2353.578808	-3.001200	3.014500	-9.046300	28.562661	0.000207	20.829789
2354.580981	-2.999400	3.013100	-9.036100	28.563009	0.000207	20.819234
2355.578801	-3.023000	3.012200	-9.104900	28.566855	0.000206	20.817418
2356.583492	-3.030200	3.010000	-9.119200	28.583975	0.000203	20.825176
2357.579206	-3.028700	3.008700	-9.111600	28.623973	0.000206	20.823261
2358.579447	-2.990100	3.009700	-8.998300	28.661017	0.000206	20.829277
2359.579835	-2.973700	3.007800	-8.943500	28.676210	0.000205	20.820871
2360.583650	-2.986600	3.006500	-8.978100	28.678515	0.000206	20.828408
2361.585528	-3.032300	3.004400	-9.109900	28.669130	0.000207	20.821801
2362.582192	-2.993200	3.003200	-8.988300	28.612613	0.000206	20.836474
2363.583149	-2.996800	3.003100	-8.998600	28.534740	0.000207	20.821111
2364.582073	-3.018200	3.000600	-9.055000	28.473018	0.000205	20.819171
2365.582670	-2.980900	3.000900	-8.944300	28.446326	0.000204	20.830224
2366.585192	-3.005000	2.997800	-9.007000	28.466206	0.000205	20.834595
2367.585252	-2.995100	2.997600	-8.977600	28.455352	0.000205	20.835045
2368.584729	-3.017200	2.996800	-9.040700	28.446778	0.000204	20.828308
2369.585688	-3.013800	2.993900	-9.021300	28.483736	0.000204	20.834706
2370.584513	-3.006000	2.992800	-8.995200	28.467948	0.000205	20.857686
2371.583789	-3.000300	2.991800	-8.975000	28.458763	0.000206	20.832316
2372.589508	-3.019800	2.989700	-9.026300	28.441567	0.000204	20.846294
2373.589366	-2.997800	2.989500	-8.961000	28.451602	0.000204	20.854976
2374.586843	-3.003600	2.986900	-8.970300	28.400076	0.000205	20.834385
2375.586934	-2.997700	2.986500	-8.950800	28.390560	0.000203	20.834286
2376.592725	-3.024200	2.985500	-9.026900	28.392052	0.000202	20.836737
2377.590351	-2.998300	2.984000	-8.943900	28.424885	0.000203	20.844668
2378.589473	-3.023700	2.982300	-9.015600	28.446973	0.000205	20.828504
2379.591502	-2.992600	2.981500	-8.922000	28.505553	0.000205	20.867580
2380.589357	-2.997200	2.980500	-8.932000	28.519060	0.000205	20.856527
2381.588594	-3.014700	2.978100	-8.977400	28.515961	0.000206	20.828276
2382.591150	-3.015200	2.977800	-8.977300	28.521684	0.000204	20.851109
2383.593609	-2.989300	2.976600	-8.897200	28.550801	0.000204	20.852457
2384.590697	-3.007000	2.973400	-8.939800	28.581055	0.000204	20.852106
2385.591770	-3.016900	2.973100	-8.969000	28.599667	0.000206	20.854729
2386.591639	-2.998200	2.971300	-8.907600	28.623824	0.000203	20.828800
2387.592641	-2.985300	2.969300	-8.862900	28.586955	0.000206	20.849514
2388.595016	-2.991400	2.968400	-8.879300	28.552263	0.000204	20.847291
2389.593701	-3.001700	2.967200	-8.905600	28.478832	0.000204	20.842569
2390.596889	-3.017100	2.965500	-8.945400	28.458085	0.000205	20.832581
2391.593331	-3.007600	2.963400	-8.911700	28.439727	0.000204	20.862457
2392.595420	-3.021100	2.962000	-8.947300	28.459491	0.000204	20.856756
2393.596678	-3.012700	2.960800	-8.918100	28.469875	0.000205	20.861048
2394.595170	-2.999200	2.959300	-8.874700	28.493686	0.000204	20.834768
2395.594789	-3.014800	2.957400	-8.914900	28.466799	0.000203	20.859373
2396.595440	-3.007100	2.957600	-8.891800	28.436291	0.000202	20.875592
2397.594036	-2.999000	2.954900	-8.859400	28.393142	0.000200	20.856326
2398.595937	-2.985900	2.952500	-8.815300	28.401539	0.000202	20.869996
2399.601192	-3.008600	2.950800	-8.876300	28.442651	0.000203	20.845963
2400.597110	-2.984100	2.952600	-8.809300	28.491320	0.000204	20.857989
2401.598405	-3.007900	2.949600	-8.871200	28.554106	0.000203	20.865267
2402.596728	-2.976000	2.948600	-8.774100	28.591201	0.000204	20.849523
2403.601096	-3.004100	2.946300	-8.849500	28.611097	0.000203	20.857232
2404.603457	-3.011600	2.943600	-8.863800	28.645904	0.000204	20.858150
2405.599013	-3.028300	2.940600	-8.903600	28.654849	0.000202	20.873322
2406.602882	-2.987000	2.941200	-8.784400	28.622139	0.000204	20.866456
2407.599653	-2.987300	2.940000	-8.781600	28.595427	0.000200	20.864683
2408.602068	-2.970100	2.938500	-8.726500	28.569209	0.000203	20.870046
2409.602278	-2.998600	2.936300	-8.802900	28.572700	0.000201	20.881148
2410.603301	-2.989500	2.936400	-8.777300	28.595769	0.000201	20.869295
2411.601309	-3.013400	2.932100	-8.834300	28.623570	0.000201	20.900612
2412.600274	-2.986000	2.932800	-8.755100	28.642352	0.000201	20.880176
2413.602364	-2.997000	2.928500	-8.775600	28.611330	0.000200	20.857941
2414.601949	-2.993800	2.930500	-8.772500	28.679531	0.000202	20.883483
2415.605120	-3.025000	2.925900	-8.850000	28.707384	0.000201	20.878347
2416.603708	-3.002800	2.925500	-8.783000	28.712807	0.000203	20.875275
2417.604842	-3.011400	2.923900	-8.804100	28.698245	0.000202	20.869616
2418.603777	-2.992800	2.923200	-8.747800	28.710013	0.000204	20.889529
2419.603446	-2.978400	2.921400	-8.699500	28.732652	0.000201	20.880090
2420.606831	-2.997500	2.920300	-8.752300	28.739939	0.000201	20.871784
2421.603533	-3.000500	2.916900	-8.751300	28.776459	0.000201	20.884388
2422.602460	-2.986700	2.915100	-8.705600	28.813761	0.000202	20.874549
2423.605554	-3.029900	2.912500	-8.823600	28.803607	0.000203	20.896087
2424.601797	-3.005400	2.912700	-8.753300	28.769466	0.000202	20.902472
2425.604141	-3.010000	2.910400	-8.759100	28.755644	0.000201	20.889499
2426.606259	-3.016800	2.908800	-8.774500	28.757674	0.000202	20.903870
2427.604075	-2.985200	2.908300	-8.680900	28.777517	0.000201	20.890669
2428.602202	-2.986200	2.906600	-8.679000	28.792305	0.000200	20.891340
2429.605097	-3.011900	2.903500	-8.743600	28.766386	0.000201	20.914067
2430.606457	-3.011600	2.901400	-8.736500	28.771966	0.000201	20.894086
2431.607557	-3.000800	2.899500	-8.699300	28.808181	0.000201	20.894056
2432.603652	-3.050900	2.895700	-8.833500	28.832760	0.000201	20.887522
2433.605827	-2.977200	2.897800	-8.626800	28.824832	0.000202	20.873847
2434.614441	-3.019700	2.894600	-8.737800	28.764851	0.000200	20.890238
2435.603062	-2.994900	2.893200	-8.663500	28.766862	0.000203	20.893686
2436.606944	-3.006800	2.890700	-8.690900	28.773422	0.000202	20.902189
2437.607060	-2.997500	2.889300	-8.659700	28.755143	0.000201	20.894683
2438.605214	-2.996800	2.887900	-8.652000	28.726374	0.000204	20.888465
2439.605352	-3.006500	2.884400	-8.671100	28.691887	0.000201	20.901617
2440.607280	-3.009400	2.883000	-8.673600	28.707624	0.000200	20.883329
2441.605480	-3.009200	2.880000	-8.664600	28.740569	0.000202	20.880953
2442.608587	-2.991900	2.879200	-8.613100	28.765469	0.000203	20.881852
2443.605901	-3.001800	2.877800	-8.638000	28.761306	0.000199	20.892356
2444.613589	-3.002400	2.876200	-8.634500	28.759869	0.000201	20.886642
2445.608186	-3.011500	2.873700	-8.653100	28.800943	0.000201	20.895300
2446.606946	-3.027300	2.870000	-8.686800	28.815975	0.000203	20.875356
2447.610233	-3.005400	2.869600	-8.622500	28.877145	0.000200	20.888139
2448.608646	-3.008700	2.868600	-8.630300	28.891107	0.000201	20.897461
2449.608103	-3.018400	2.866900	-8.652400	28.890691	0.000202	20.892775
2450.610459	-3.012700	2.864200	-8.626800	28.884866	0.000201	20.895442
2451.608470	-2.986600	2.862900	-8.547900	28.870623	0.000201	20.880621
2452.610348	-2.999700	2.859300	-8.576200	28.828678	0.000200	20.900953
2453.611284	-2.974800	2.859300	-8.504500	28.818965	0.000199	20.885954
2454.611122	-2.969800	2.857900	-8.486000	28.856669	0.000199	20.886003
2455.611364	-2.975100	2.856600	-8.497300	28.844058	0.000201	20.851491
2456.609404	-3.013300	2.852200	-8.593600	28.855581	0.000200	20.861675
2457.612050	-3.022600	2.850300	-8.612800	28.862292	0.000199	20.881237
2458.612896	-3.011600	2.847700	-8.574400	28.902397	0.000201	20.861423
2459.612545	-3.014100	2.845500	-8.575300	28.893081	0.000200	20.883331
2460.614035	-3.022000	2.844600	-8.595300	28.857781	0.000199	20.878590
2461.612576	-3.043000	2.840800	-8.642900	28.856821	0.000198	20.865295
2462.612282	-2.991200	2.842300	-8.500400	28.874353	0.000200	20.887697
2463.612628	-2.970600	2.841000	-8.437100	28.905367	0.000199	20.865364
2464.613360	-3.031500	2.835200	-8.593800	28.890905	0.000201	20.878768
2465.611876	-2.971800	2.835100	-8.424500	28.878913	0.000200	20.879015
2466.613464	-2.988600	2.831500	-8.461700	28.899059	0.000201	20.867543
2467.613372	-2.985100	2.829500	-8.444700	28.843966	0.000200	20.884586
2468.612220	-2.955800	2.827800	-8.357800	28.816440	0.000199	20.874876
2469.615151	-2.988600	2.824300	-8.439600	28.824986	0.000199	20.875425
2470.612785	-2.991200	2.822900	-8.442200	28.876761	0.000200	20.851718
2471.615036	-3.008700	2.819200	-8.481800	28.928514	0.000197	20.874931
2472.616363	-3.035900	2.818300	-8.555300	28.958262	0.000200	20.855591
2473.615027	-2.994900	2.814700	-8.428300	29.008893	0.000200	20.845911
2474.622581	-2.979300	2.814800	-8.385300	29.042208	0.000197	20.861933
2475.616221	-3.007500	2.809900	-8.449600	29.073688	0.000199	20.856194
2476.618179	-2.980800	2.809200	-8.372200	29.037954	0.000200	20.888939
2477.616962	-3.015200	2.807000	-8.463100	28.965828	0.000199	20.869377
2478.616404	-3.008200	2.804400	-8.433900	28.893679	0.000196	20.864967
2479.620058	-2.988500	2.801800	-8.371700	28.858250	0.000198	20.872424
2480.619449	-3.002500	2.799900	-8.404500	28.772791	0.000198	20.860306
2481.617342	-2.987200	2.795900	-8.351000	28.732089	0.000198	20.840645
2482.619056	-2.995100	2.793500	-8.365500	28.753027	0.000198	20.862208
2483.620150	-3.001500	2.791800	-8.379000	28.760803	0.000197	20.872885
2484.620813	-2.987300	2.788500	-8.327700	28.761652	0.000198	20.846241
2485.623656	-2.999300	2.787300	-8.359100	28.824635	0.000197	20.856580
2486.622357	-2.996200	2.783700	-8.338000	28.875669	0.000198	20.846352
2487.625869	-2.995500	2.780000	-8.327000	28.931457	0.000196	20.851345
2488.622251	-2.969800	2.779200	-8.252300	28.968912	0.000197	20.835502
2489.621510	-3.005500	2.775000	-8.338000	29.016499	0.000196	20.852625
2490.626219	-2.984400	2.772500	-8.273600	29.006488	0.000198	20.854867
2491.623621	-3.020200	2.768800	-8.359900	28.980732	0.000197	20.842669
2492.622093	-2.980000	2.768500	-8.249400	28.956951	0.000199	20.858063
2493.628392	-2.973600	2.765700	-8.222700	28.977468	0.000199	20.853130
2494.624122	-3.027200	2.761900	-8.360000	28.942740	0.000197	20.832367
2495.624220	-3.014600	2.758300	-8.314900	28.943314	0.000198	20.836738
2496.626624	-3.039900	2.753800	-8.369200	28.970904	0.000198	20.846991
2497.625152	-3.013100	2.751100	-8.288000	29.022574	0.000198	20.844522
2498.629131	-2.987900	2.748900	-8.211800	29.078996	0.000198	20.851584
2499.625240	-3.033300	2.744900	-8.325000	29.099554	0.000197	20.845273
2500.628131	-3.012500	2.744000	-8.265900	29.135524	0.000197	20.832680
2501.627608	-3.004600	2.741100	-8.234200	29.127739	0.000196	20.826732
2502.627741	-3.020800	2.737100	-8.267500	29.121627	0.000196	20.842384
2503.628163	-2.974300	2.735100	-8.134500	29.135763	0.000198	20.838610
2504.629862	-2.979800	2.730600	-8.135400	29.121206	0.000198	20.822994
2505.630879	-2.998400	2.727200	-8.176700	29.092349	0.000199	20.860771
2506.634552	-3.012300	2.723300	-8.202400	29.127861	0.000198	20.853407
2507.629488	-2.995200	2.721600	-8.150100	29.166427	0.000198	20.825414
2508.635014	-3.010400	2.715200	-8.171800	29.149665	0.000198	20.818954
2509.629196	-3.018400	2.712500	-8.186800	29.106966	0.000198	20.834250
2510.628140	-2.991200	2.711300	-8.109000	29.081042	0.000197	20.822827
2511.632322	-2.987200	2.707600	-8.087700	29.009256	0.000199	20.843431
2512.631178	-2.965100	2.705400	-8.020300	28.957395	0.000199	20.831011
2513.631083	-3.000000	2.699400	-8.097500	28.976251	0.000199	20.825826
2514.631112	-2.987900	2.696200	-8.054800	28.999610	0.000198	20.819964
2515.630351	-3.019800	2.692500	-8.129600	29.067132	0.000198	20.818769
2516.629847	-3.007100	2.687100	-8.079500	29.088509	0.000200	20.846472
2517.631762	-2.995000	2.685900	-8.043200	29.149535	0.000199	20.826884
2518.631646	-2.984200	2.680200	-7.996900	29.179454	0.000200	20.817204
2519.637937	-3.001500	2.676500	-8.032500	29.237236	0.000200	20.824224
2520.632897	-2.983800	2.672600	-7.973400	29.204672	0.000199	20.826496
2521.631769	-3.006100	2.670300	-8.026100	29.132308	0.000199	20.814267
2522.637901	-2.968600	2.667600	-7.918600	29.147444	0.000197	20.838054
2523.634542	-3.029700	2.660000	-8.058000	29.143881	0.000199	20.834938
2524.635709	-2.999400	2.656300	-7.965600	29.191705	0.000199	20.803946
2525.634763	-2.994400	2.652200	-7.940400	29.198451	0.000198	20.824968
2526.634901	-2.998000	2.649400	-7.942400	29.141143	0.000201	20.802307
2527.635946	-3.007700	2.644100	-7.951800	29.138198	0.000201	20.816408
2528.637207	-2.987400	2.641300	-7.889800	29.122620	0.000200	20.831532
2529.635297	-2.974100	2.636600	-7.840100	29.079609	0.000199	20.811901
2530.636155	-2.985400	2.631300	-7.853000	29.071688	0.000201	20.805342
2531.635448	-2.988800	2.627700	-7.852800	29.083978	0.000200	20.802078
2532.634812	-3.001900	2.621300	-7.867700	29.124667	0.000201	20.839283
2533.636445	-2.972000	2.619000	-7.782200	29.149795	0.000200	20.823353
2534.635561	-3.023100	2.612900	-7.898300	29.185036	0.000200	20.807182
2535.645056	-2.995800	2.607200	-7.809100	29.157329	0.000201	20.792539
2536.636907	-2.977200	2.604900	-7.754600	29.178944	0.000199	20.801517
2537.636664	-2.980600	2.598300	-7.743400	29.224566	0.000202	20.796283
2538.643373	-3.023800	2.590800	-7.832200	29.262133	0.000201	20.820390
2539.636596	-2.979000	2.586900	-7.704700	29.265627	0.000201	20.809214
2540.638198	-2.987800	2.581800	-7.713400	29.228983	0.000200	20.807373
2541.635998	-2.991100	2.577300	-7.708100	29.266996	0.000200	20.817231
2542.637704	-2.975200	2.571200	-7.648800	29.321376	0.000200	20.815137
2543.636879	-3.027100	2.564900	-7.763200	29.383830	0.000199	20.812175
2544.640568	-3.027700	2.556700	-7.739500	29.363650	0.000200	20.794207
2545.638383	-2.980300	2.554500	-7.612200	29.346347	0.000200	20.814700
2546.637969	-3.008400	2.546600	-7.660200	29.371550	0.000201	20.814971
2547.637938	-2.988500	2.542700	-7.598500	29.372148	0.000201	20.798030
2548.637520	-3.015900	2.535700	-7.646500	29.395597	0.000201	20.806491
2549.639528	-2.991200	2.531000	-7.569400	29.426621	0.000202	20.815001
2550.637509	-2.965200	2.526100	-7.489400	29.453856	0.000199	20.812581
2551.639552	-3.018700	2.518200	-7.601100	29.486002	0.000200	20.808948
2552.639851	-2.989800	2.512200	-7.509800	29.512637	0.000203	20.821571
2553.641577	-2.993900	2.505300	-7.498500	29.562991	0.000200	20.808320
2554.644090	-3.005600	2.499600	-7.511700	29.580395	0.000199	20.790776
