LabVIEW Measurement	
Writer_Version	2
Reader_Version	2
Separator	Tab
Decimal_Separator	.
Multi_Headings	No
X_Columns	One
Time_Pref	Absolute
Operator	admin
Description	Clolumns are: time, Current, Voltage, Power, Battery Temp, and Chamber Temp
Date	2024/08/16
Time	13:06:06.104549407958984375
***End_of_Header***	
	
Channels	6						
Samples	1	1	1	1	1	1	
Date	2024/09/16	2024/09/16	2024/09/16	2024/09/16	2024/09/16	2024/09/16	
Time	17:05:13.7430510520935058594	17:05:13.7502655982971191406	17:05:13.7630109786987304688	17:05:13.7226557731628417969	17:05:13.7226557731628417969	17:05:13.7226557731628417969	
X_Dimension	Time	Time	Time	Time	Time	Time	
X0	0.0000000000000000E+0	0.0000000000000000E+0	0.0000000000000000E+0	0.0000000000000000E+0	0.0000000000000000E+0	0.0000000000000000E+0	
Delta_X	1.000000	1.000000	1.000000	1.000000	1.000000	1.000000	
***End_of_Header***							
X_Value	Untitled	Untitled 1	Untitled 2	Untitled 3	Untitled 4	Untitled 5	Comment
0.000000	0.030450	4.091300	0.124550	21.004397	0.000952	20.812383
1.001747	-2.983300	3.910700	-11.664000	21.031622	0.000950	20.812586
1.999948	-3.004200	3.900800	-11.717000	21.013602	0.000950	20.809262
3.000471	-3.008800	3.897200	-11.725000	21.042963	0.000946	20.802119
4.003696	-3.007300	3.892400	-11.704000	21.014741	0.000946	20.798548
4.997757	-2.996100	3.890700	-11.656000	21.007754	0.000945	20.811947
5.996790	-3.004800	3.887800	-11.681000	21.033347	0.000945	20.808623
7.004085	-2.987200	3.883600	-11.600000	21.045599	0.000945	20.811868
8.001266	-2.992100	3.881700	-11.613000	21.024937	0.000944	20.808272
9.001941	-2.972100	3.881300	-11.535000	21.021392	0.000942	20.808044
10.005422	-2.988200	3.878300	-11.588000	21.039055	0.000941	20.802478
11.007108	-3.000400	3.875800	-11.628000	21.047656	0.000942	20.806813
12.002700	-2.993100	3.875600	-11.598000	21.064322	0.000941	20.822060
13.009829	-2.997700	3.873800	-11.612000	21.056529	0.000941	20.790557
14.007826	-2.989200	3.872000	-11.572000	21.076093	0.000939	20.814868
15.006785	-3.017600	3.871400	-11.680000	21.069235	0.000938	20.821758
16.006112	-3.021700	3.869400	-11.692000	21.070731	0.000940	20.802392
17.006628	-3.012200	3.866800	-11.646000	21.073046	0.000939	20.815139
18.007643	-3.037300	3.866300	-11.742000	21.087237	0.000939	20.822221
19.008444	-3.038800	3.865900	-11.747000	21.094871	0.000939	20.817529
20.009266	-3.004000	3.864700	-11.609000	21.084245	0.000936	20.816384
21.009010	-3.015500	3.864800	-11.653000	21.112311	0.000936	20.821224
22.011927	-3.016900	3.862400	-11.651000	21.116098	0.000935	20.810787
23.009698	-2.995500	3.861600	-11.564000	21.108760	0.000935	20.836163
24.011574	-3.001600	3.862500	-11.593000	21.090895	0.000935	20.835363
25.006728	-2.976600	3.862200	-11.495000	21.108286	0.000934	20.807714
26.010531	-2.987400	3.861300	-11.535000	21.129587	0.000935	20.826176
27.008145	-2.976900	3.861400	-11.493000	21.125142	0.000933	20.809402
28.010267	-2.998400	3.861000	-11.576000	21.147569	0.000933	20.829464
29.012374	-2.992200	3.858200	-11.543000	21.163094	0.000932	20.820338
30.016089	-2.989800	3.856900	-11.531000	21.151755	0.000932	20.838868
31.015174	-3.008600	3.857400	-11.603000	21.159764	0.000934	20.826016
32.019227	-3.017900	3.855000	-11.633000	21.161611	0.000932	20.830709
33.018300	-2.994400	3.855000	-11.542000	21.182911	0.000933	20.836842
34.014084	-3.014100	3.854700	-11.617000	21.175401	0.000932	20.833123
35.015065	-3.000300	3.854600	-11.564000	21.205514	0.000933	20.852815
36.009452	-3.004300	3.855700	-11.583000	21.185127	0.000932	20.849016
37.013889	-3.017100	3.853500	-11.626000	21.196423	0.000930	20.835661
38.015888	-3.007000	3.853300	-11.585000	21.234791	0.000933	20.838955
39.013213	-3.023900	3.850700	-11.643000	21.223890	0.000928	20.830420
40.018559	-3.010600	3.851400	-11.595000	21.224246	0.000929	20.852113
41.014990	-3.014100	3.850900	-11.606000	21.241901	0.000931	20.815248
42.015075	-2.984000	3.850700	-11.489000	21.237956	0.000931	20.813672
43.018056	-3.008500	3.849900	-11.582000	21.257838	0.000930	20.855846
44.016197	-3.001600	3.850400	-11.556000	21.262208	0.000933	20.835088
45.014844	-3.002100	3.850900	-11.560000	21.273405	0.000931	20.860987
46.018332	-2.997800	3.850100	-11.540000	21.280144	0.000929	20.844971
47.014151	-3.009700	3.848100	-11.579000	21.293859	0.000931	20.838303
48.014715	-3.018100	3.848900	-11.616000	21.306858	0.000929	20.847040
49.019558	-2.996500	3.846500	-11.525000	21.306587	0.000930	20.836338
50.019648	-3.029900	3.847400	-11.656000	21.296560	0.000931	20.839109
51.018836	-3.011200	3.845600	-11.579000	21.317033	0.000930	20.855322
52.019984	-2.993700	3.846800	-11.514000	21.318208	0.000928	20.834688
53.019147	-2.986000	3.846400	-11.483000	21.345351	0.000929	20.855204
54.020463	-3.001700	3.845500	-11.540000	21.339984	0.000928	20.847465
55.022362	-2.991900	3.845400	-11.504000	21.377005	0.000930	20.835192
56.016963	-3.005200	3.845400	-11.556000	21.363256	0.000928	20.847988
57.020791	-2.978800	3.845400	-11.454000	21.361662	0.000931	20.848764
58.024225	-3.007100	3.844500	-11.560000	21.380594	0.000930	20.835938
59.018574	-2.985100	3.844700	-11.475000	21.376082	0.000929	20.854182
60.023542	-2.989300	3.846200	-11.496000	21.403169	0.000928	20.844299
61.019372	-2.984700	3.844600	-11.473000	21.405870	0.000930	20.857907
62.024891	-2.991600	3.843700	-11.497000	21.414431	0.000929	20.860308
63.024848	-3.012100	3.841200	-11.568000	21.435504	0.000929	20.852944
64.030205	-2.994800	3.843000	-11.508000	21.423029	0.000930	20.850894
65.024332	-2.972300	3.844200	-11.425000	21.428075	0.000929	20.861632
66.028314	-3.016300	3.842100	-11.587000	21.446582	0.000929	20.869242
67.020965	-3.016500	3.841400	-11.586000	21.461795	0.000930	20.865024
68.024494	-2.990900	3.842100	-11.490000	21.470804	0.000928	20.842746
69.023522	-2.980100	3.843800	-11.454000	21.469229	0.000929	20.868195
70.021423	-3.007100	3.840500	-11.548000	21.473524	0.000931	20.843571
71.028781	-3.003000	3.841100	-11.534000	21.473758	0.000933	20.861821
72.025320	-3.015100	3.839000	-11.574000	21.486300	0.000931	20.838810
73.025050	-2.999900	3.838400	-11.514000	21.494578	0.000930	20.867006
74.029403	-2.987900	3.838900	-11.468000	21.503261	0.000928	20.870953
75.025243	-3.000700	3.840000	-11.522000	21.529545	0.000932	20.843675
76.022269	-3.011900	3.838900	-11.561000	21.509144	0.000932	20.869728
77.026766	-3.010500	3.838500	-11.555000	21.543637	0.000932	20.853034
78.024123	-2.998500	3.839100	-11.511000	21.517230	0.000934	20.839888
79.024686	-3.003600	3.838700	-11.529000	21.562659	0.000931	20.840775
80.024220	-3.004900	3.839200	-11.535000	21.559520	0.000932	20.853281
81.024237	-2.995200	3.837600	-11.493000	21.558499	0.000932	20.856526
82.023589	-2.992800	3.837300	-11.483000	21.564007	0.000934	20.857296
83.025122	-3.004400	3.835400	-11.522000	21.558340	0.000934	20.855893
84.028487	-3.008000	3.837500	-11.541000	21.588966	0.000931	20.864254
85.034765	-3.000500	3.835400	-11.507000	21.575674	0.000935	20.833411
86.031145	-3.005600	3.837600	-11.534000	21.581834	0.000935	20.847161
87.026295	-3.022500	3.834800	-11.589000	21.593022	0.000935	20.831805
88.033120	-2.993900	3.837400	-11.487000	21.589084	0.000933	20.844933
89.030286	-2.988000	3.836400	-11.461000	21.600875	0.000935	20.829705
90.027411	-3.012600	3.834200	-11.549000	21.610154	0.000933	20.847051
91.030150	-3.010000	3.833300	-11.537000	21.638183	0.000933	20.813935
92.030133	-2.982800	3.834300	-11.436000	21.629397	0.000935	20.837385
93.031712	-2.990600	3.833800	-11.463000	21.651186	0.000935	20.828370
94.031562	-2.995600	3.835900	-11.490000	21.650940	0.000933	20.811529
95.031151	-3.018800	3.833200	-11.570000	21.679116	0.000934	20.850630
96.032040	-2.996600	3.832700	-11.484000	21.662084	0.000936	20.820310
97.030799	-2.981300	3.834000	-11.430000	21.704147	0.000936	20.823525
98.027688	-3.019600	3.831200	-11.566000	21.697262	0.000934	20.842238
99.033511	-3.005400	3.832300	-11.516000	21.716859	0.000934	20.836247
100.030633	-2.992500	3.832500	-11.467000	21.734488	0.000937	20.831604
101.028050	-2.998300	3.831500	-11.487000	21.724243	0.000936	20.844584
102.033836	-3.010300	3.830400	-11.529000	21.748128	0.000938	20.823445
103.032240	-3.006800	3.831200	-11.519000	21.738376	0.000936	20.836444
104.034044	-3.004200	3.829700	-11.503000	21.757425	0.000937	20.835120
105.033899	-2.989700	3.830900	-11.452000	21.742813	0.000937	20.806746
106.032506	-2.986700	3.830400	-11.439000	21.755155	0.000937	20.836641
107.035102	-3.004800	3.829600	-11.506000	21.764132	0.000940	20.820970
108.031784	-2.994200	3.830200	-11.468000	21.756749	0.000938	20.823538
109.033695	-2.986300	3.830700	-11.438000	21.766550	0.000941	20.811537
110.036815	-2.990700	3.830500	-11.455000	21.768864	0.000940	20.819068
111.035309	-2.996000	3.829000	-11.471000	21.764951	0.000941	20.822264
112.039633	-2.990500	3.829300	-11.450000	21.789032	0.000940	20.822184
113.042047	-3.003400	3.827800	-11.494000	21.791973	0.000939	20.818490
114.038199	-2.986900	3.829800	-11.438000	21.796114	0.000937	20.820263
115.048971	-3.006900	3.827300	-11.507000	21.816276	0.000941	20.823373
116.040184	-3.000400	3.828700	-11.486000	21.782000	0.000941	20.816568
117.034498	-2.993300	3.828300	-11.459000	21.807508	0.000941	20.804167
118.035443	-3.016000	3.826500	-11.540000	21.822731	0.000943	20.805178
119.036547	-3.016200	3.825200	-11.537000	21.798047	0.000941	20.807499
120.039636	-2.983400	3.826500	-11.416000	21.828144	0.000940	20.823872
121.037900	-3.000900	3.827900	-11.486000	21.859810	0.000942	20.816212
122.037498	-2.988100	3.826800	-11.433000	21.856814	0.000943	20.813688
123.039925	-3.007700	3.827200	-11.510000	21.851455	0.000943	20.820178
124.040338	-2.983900	3.827100	-11.418000	21.846387	0.000944	20.812734
125.041141	-3.008100	3.826200	-11.509000	21.868430	0.000943	20.794020
126.041134	-2.996300	3.825700	-11.462000	21.878057	0.000944	20.822148
127.044475	-3.016400	3.825300	-11.538000	21.895037	0.000945	20.805005
128.043320	-2.971200	3.827000	-11.370000	21.911537	0.000946	20.790701
129.039129	-2.994900	3.825400	-11.456000	21.904382	0.000946	20.802505
130.038468	-3.011900	3.823500	-11.514000	21.890270	0.000944	20.799759
131.045414	-2.989000	3.825000	-11.432000	21.914428	0.000944	20.810665
132.045943	-3.004800	3.823400	-11.487000	21.911759	0.000944	20.817475
133.042980	-2.991200	3.823900	-11.437000	21.918784	0.000947	20.795111
134.045878	-3.018800	3.822900	-11.539000	21.928091	0.000947	20.803478
135.040643	-2.981800	3.823300	-11.400000	21.946269	0.000945	20.788010
136.044944	-2.997300	3.822800	-11.457000	21.963815	0.000948	20.800831
137.049398	-2.993600	3.823500	-11.445000	21.968872	0.000948	20.791194
138.044342	-3.013500	3.821800	-11.515000	21.972937	0.000948	20.793842
139.042009	-2.997700	3.823400	-11.460000	21.971319	0.000949	20.791748
140.045222	-3.005700	3.822000	-11.486000	21.971867	0.000951	20.789451
141.042538	-3.016300	3.821100	-11.525000	22.004574	0.000948	20.812709
142.041454	-3.006700	3.821300	-11.488000	21.988421	0.000950	20.788478
143.048217	-2.985400	3.821600	-11.408000	22.004969	0.000948	20.787500
144.055539	-3.024600	3.821100	-11.556000	22.010080	0.000950	20.785978
145.046287	-3.022800	3.820300	-11.546000	22.019504	0.000950	20.804421
146.049279	-3.024100	3.818900	-11.547000	22.011279	0.000949	20.798085
147.048577	-2.952700	3.822800	-11.286000	22.006789	0.000950	20.793115
148.043493	-2.994200	3.820100	-11.437000	22.024443	0.000951	20.801305
149.046978	-2.991100	3.820100	-11.426000	22.049798	0.000951	20.786858
150.054731	-3.000800	3.819800	-11.462000	22.033744	0.000950	20.785485
151.043580	-2.991500	3.820000	-11.426000	22.044681	0.000950	20.801650
152.043788	-2.993500	3.820600	-11.435000	22.064180	0.000950	20.792247
153.047443	-3.001600	3.819300	-11.463000	22.069088	0.000950	20.791471
154.047782	-3.010100	3.819300	-11.496000	22.082473	0.000952	20.804871
155.047202	-2.992800	3.818800	-11.428000	22.089233	0.000952	20.796939
156.050035	-2.985800	3.817700	-11.398000	22.085216	0.000954	20.815203
157.046229	-3.002600	3.818600	-11.464000	22.080836	0.000954	20.779524
158.045565	-3.006800	3.817500	-11.477000	22.099449	0.000953	20.796736
159.048127	-2.988300	3.818400	-11.410000	22.101842	0.000955	20.776372
160.046875	-3.005500	3.816600	-11.470000	22.102524	0.000957	20.760459
161.046878	-3.016500	3.816400	-11.511000	22.099633	0.000955	20.781273
162.049563	-2.987600	3.816600	-11.402000	22.121296	0.000957	20.781624
163.047915	-3.025200	3.815500	-11.541000	22.133462	0.000956	20.764880
164.053565	-2.995200	3.816000	-11.429000	22.150665	0.000956	20.785897
165.047781	-3.010900	3.815700	-11.488000	22.120883	0.000956	20.785003
166.050126	-3.020800	3.815400	-11.524000	22.143142	0.000956	20.777891
167.051646	-3.016700	3.815000	-11.507000	22.151765	0.000958	20.768032
168.046187	-3.012600	3.814400	-11.490000	22.159546	0.000957	20.778666
169.049715	-3.002400	3.815700	-11.454000	22.153561	0.000958	20.774572
170.048958	-2.999900	3.814300	-11.441000	22.171687	0.000960	20.780865
171.046598	-3.033900	3.814800	-11.572000	22.212045	0.000960	20.761054
172.052504	-2.997800	3.813400	-11.430000	22.226178	0.000957	20.764299
173.056293	-2.999600	3.814300	-11.440000	22.219406	0.000961	20.755622
174.051544	-2.991800	3.814800	-11.412000	22.254695	0.000960	20.760136
175.054676	-2.989100	3.815800	-11.403000	22.254676	0.000961	20.787618
176.050822	-3.002400	3.813000	-11.447000	22.277752	0.000960	20.780377
177.051336	-2.995400	3.813600	-11.422000	22.260759	0.000962	20.784699
178.051843	-3.004400	3.812800	-11.454000	22.271029	0.000963	20.776491
179.051511	-2.994800	3.812800	-11.418000	22.279128	0.000961	20.778911
180.054211	-3.006600	3.812300	-11.461000	22.285186	0.000964	20.773596
181.052628	-3.005900	3.811700	-11.457000	22.307048	0.000962	20.779366
182.050114	-3.002000	3.812500	-11.444000	22.267481	0.000964	20.783844
183.054427	-2.994100	3.812800	-11.414000	22.282996	0.000965	20.770930
184.051424	-2.998200	3.812700	-11.430000	22.317441	0.000966	20.758952
185.050962	-3.020600	3.811300	-11.511000	22.321155	0.000964	20.761249
186.053905	-3.004900	3.811100	-11.450000	22.327010	0.000966	20.767112
187.053995	-2.997600	3.811200	-11.422000	22.341769	0.000965	20.765295
188.051161	-3.003400	3.811600	-11.446000	22.333374	0.000967	20.760208
189.054192	-3.008200	3.811400	-11.464000	22.349049	0.000969	20.766421
190.053277	-2.999400	3.811300	-11.430000	22.356803	0.000965	20.745262
191.051094	-2.997500	3.810600	-11.420000	22.371950	0.000969	20.761852
192.053643	-3.019000	3.809000	-11.498000	22.368094	0.000968	20.765103
193.051806	-2.983300	3.810900	-11.367000	22.364859	0.000970	20.759018
194.054038	-3.012100	3.809400	-11.473000	22.380085	0.000970	20.756721
195.058140	-2.989600	3.810100	-11.389000	22.380356	0.000969	20.751777
196.054530	-2.988600	3.810200	-11.386000	22.387488	0.000969	20.758920
197.050259	-3.002100	3.809400	-11.434000	22.379285	0.000973	20.742170
198.057270	-2.989500	3.808600	-11.385000	22.358205	0.000971	20.749984
199.051024	-2.993700	3.808300	-11.400000	22.359680	0.000972	20.761419
200.054824	-2.985800	3.809900	-11.374000	22.369649	0.000971	20.760496
201.056164	-2.998100	3.808000	-11.416000	22.380219	0.000974	20.754485
202.053072	-2.996200	3.809000	-11.411000	22.412269	0.000973	20.748173
203.056939	-3.000800	3.808600	-11.426000	22.419371	0.000972	20.748647
204.070987	-3.000100	3.806900	-11.419000	22.410799	0.000975	20.741485
205.057034	-3.002900	3.807600	-11.433000	22.431810	0.000973	20.734077
206.054820	-3.008500	3.805800	-11.449000	22.448179	0.000975	20.755686
207.054565	-3.016800	3.805200	-11.479000	22.462039	0.000974	20.737322
208.053765	-3.005500	3.807300	-11.441000	22.476021	0.000976	20.752273
209.059066	-2.997100	3.806200	-11.407000	22.499245	0.000975	20.757514
210.059329	-2.995900	3.805000	-11.399000	22.495334	0.000978	20.735579
211.064063	-3.009700	3.805900	-11.454000	22.510484	0.000977	20.754546
212.063103	-3.007400	3.805900	-11.445000	22.501519	0.000976	20.757421
213.059425	-3.005500	3.803300	-11.429000	22.511240	0.000978	20.751509
214.065845	-2.973300	3.805200	-11.313000	22.512064	0.000979	20.735264
215.066439	-3.011800	3.804600	-11.457000	22.519669	0.000979	20.741933
216.062737	-3.015800	3.803100	-11.468000	22.507255	0.000978	20.722861
217.065495	-3.022200	3.802800	-11.491000	22.520616	0.000982	20.738613
218.069107	-3.015300	3.804100	-11.469000	22.538883	0.000979	20.747425
219.062597	-2.987800	3.803400	-11.362000	22.548992	0.000982	20.748541
220.068902	-3.002100	3.802500	-11.414000	22.552188	0.000980	20.749371
221.066339	-2.989900	3.804000	-11.371000	22.565346	0.000983	20.715606
222.063162	-2.987000	3.803400	-11.359000	22.575594	0.000982	20.751003
223.067144	-2.990800	3.804300	-11.377000	22.595951	0.000982	20.739148
224.062743	-2.996100	3.802900	-11.393000	22.604872	0.000983	20.738126
225.066464	-2.986500	3.803300	-11.358000	22.602160	0.000984	20.756748
226.068779	-2.995400	3.801900	-11.388000	22.580857	0.000984	20.738255
227.067109	-2.994400	3.801600	-11.381000	22.560007	0.000985	20.734917
228.068306	-3.007300	3.799900	-11.426000	22.582909	0.000988	20.722292
229.067784	-2.989700	3.801300	-11.364000	22.594167	0.000986	20.734516
230.064907	-2.969100	3.801100	-11.284000	22.584508	0.000986	20.728160
231.063755	-2.990300	3.801000	-11.365000	22.598390	0.000987	20.727366
232.071744	-3.006700	3.798900	-11.421000	22.620517	0.000988	20.720130
233.063950	-3.002200	3.800100	-11.408000	22.637534	0.000987	20.752823
234.069700	-2.991800	3.800500	-11.369000	22.626375	0.000989	20.706082
235.067101	-3.012900	3.799300	-11.446000	22.652461	0.000989	20.728418
236.068883	-2.988900	3.799400	-11.355000	22.662482	0.000988	20.728972
237.065824	-2.992900	3.798600	-11.368000	22.645968	0.000990	20.700102
238.071441	-2.983400	3.798500	-11.332000	22.659924	0.000990	20.734471
239.065866	-2.964600	3.799400	-11.262000	22.657286	0.000991	20.720448
240.068407	-2.990400	3.797800	-11.355000	22.644701	0.000992	20.711162
241.069147	-3.012200	3.797600	-11.438000	22.659850	0.000993	20.709265
242.072637	-2.998200	3.797300	-11.383000	22.654870	0.000992	20.712812
243.071282	-2.987800	3.798300	-11.347000	22.649748	0.000992	20.710526
244.073871	-2.966300	3.798400	-11.266000	22.647479	0.000992	20.714893
245.070314	-2.991400	3.796800	-11.356000	22.644344	0.000993	20.720287
246.069680	-2.978400	3.797100	-11.308000	22.644344	0.000995	20.726926
247.072594	-3.009700	3.796200	-11.425000	22.658772	0.000994	20.713876
248.075457	-2.991100	3.796800	-11.356000	22.665977	0.000995	20.711135
249.076483	-2.995800	3.796400	-11.372000	22.689074	0.000997	20.724788
250.070112	-2.998500	3.796600	-11.383000	22.684267	0.000995	20.702427
251.075683	-3.014500	3.795300	-11.438000	22.681585	0.000998	20.734831
252.077677	-2.999700	3.795800	-11.385000	22.686024	0.000996	20.698023
253.073627	-2.994300	3.793900	-11.359000	22.712557	0.000998	20.708954
254.075479	-3.020100	3.794400	-11.459000	22.727384	0.000998	20.704840
255.071775	-2.980000	3.794000	-11.305000	22.732069	0.001001	20.698626
256.077014	-3.005500	3.794300	-11.402000	22.715181	0.000997	20.715851
257.075865	-3.008100	3.793300	-11.410000	22.735443	0.001001	20.739467
258.071651	-2.996800	3.794600	-11.371000	22.732154	0.000999	20.706773
259.075142	-2.982200	3.795100	-11.315000	22.736567	0.001002	20.698391
260.075262	-3.004600	3.792100	-11.393000	22.766167	0.001001	20.706231
261.075849	-3.005400	3.793000	-11.398000	22.752390	0.001001	20.691481
262.074789	-2.991500	3.792500	-11.344000	22.742554	0.001003	20.693008
263.072990	-2.987900	3.793000	-11.333000	22.733960	0.001004	20.700047
264.079355	-3.012100	3.791200	-11.418000	22.731643	0.001003	20.706735
265.075978	-2.993800	3.791300	-11.349000	22.729251	0.001003	20.710504
266.081079	-2.982600	3.791400	-11.307000	22.729306	0.001002	20.692540
267.080636	-3.019500	3.790700	-11.443000	22.746279	0.001005	20.703378
268.076077	-3.002200	3.792000	-11.383000	22.743113	0.001005	20.695465
269.076455	-3.005300	3.790000	-11.389000	22.802753	0.001006	20.701155
270.076950	-3.012100	3.790100	-11.415000	22.771943	0.001006	20.690679
271.076339	-2.996400	3.789100	-11.353000	22.762575	0.001006	20.682716
272.076124	-2.989600	3.790100	-11.329000	22.788381	0.001007	20.703828
273.080549	-2.983700	3.791400	-11.311000	22.826474	0.001009	20.677500
274.080798	-3.004000	3.789100	-11.382000	22.837084	0.001007	20.703778
275.077624	-3.007300	3.790700	-11.398000	22.840047	0.001006	20.692521
276.086109	-2.994700	3.789300	-11.347000	22.848221	0.001011	20.684589
277.082031	-2.993100	3.789000	-11.341000	22.834121	0.001010	20.706500
278.082976	-3.006800	3.787100	-11.386000	22.852008	0.001012	20.671311
279.082976	-3.005300	3.789000	-11.386000	22.858880	0.001009	20.679145
280.083991	-2.994200	3.787600	-11.339000	22.882668	0.001010	20.699658
281.086396	-3.006200	3.787900	-11.386000	22.862248	0.001011	20.686313
282.089520	-2.997600	3.787900	-11.353000	22.885341	0.001012	20.677204
283.082640	-3.007600	3.786100	-11.385000	22.911273	0.001013	20.687538
284.084688	-2.996000	3.785200	-11.339000	22.889072	0.001012	20.689478
285.089808	-2.993400	3.785600	-11.330000	22.897794	0.001013	20.677826
286.085042	-2.999100	3.786600	-11.355000	22.902478	0.001013	20.673035
287.087902	-2.994400	3.785300	-11.334000	22.908310	0.001013	20.695476
288.089890	-2.991000	3.785200	-11.320000	22.914838	0.001015	20.693481
289.089210	-2.993900	3.785600	-11.334000	22.909153	0.001015	20.680197
290.086794	-2.994600	3.785900	-11.336000	22.941716	0.001014	20.688166
291.084471	-2.980700	3.785100	-11.281000	22.925822	0.001016	20.681724
292.085033	-3.017800	3.783800	-11.417000	22.979822	0.001017	20.687464
293.087471	-3.009300	3.783700	-11.385000	22.961513	0.001017	20.694725
294.095000	-2.997400	3.783900	-11.341000	22.963726	0.001017	20.684139
295.092273	-2.992400	3.783200	-11.320000	22.972551	0.001018	20.666427
296.089420	-2.991800	3.783500	-11.319000	22.978851	0.001020	20.682223
297.087370	-3.014100	3.782800	-11.400000	22.989533	0.001018	20.691978
298.091059	-2.997300	3.782900	-11.337000	23.019249	0.001018	20.685241
299.086801	-3.014400	3.782200	-11.400000	23.009483	0.001020	20.689681
300.093181	-2.997500	3.782600	-11.337000	23.024793	0.001021	20.685581
301.092891	-3.017900	3.780700	-11.409000	23.029451	0.001022	20.691197
302.091400	-2.991100	3.781000	-11.307000	23.040305	0.001021	20.694012
303.092166	-2.991500	3.781600	-11.312000	23.027638	0.001020	20.696967
304.095080	-3.010100	3.780400	-11.377000	23.023846	0.001022	20.696961
305.092211	-2.977300	3.782200	-11.260000	23.023994	0.001022	20.704222
306.091136	-2.980800	3.781600	-11.271000	23.036623	0.001023	20.668983
307.094947	-2.996000	3.781300	-11.328000	23.036082	0.001023	20.688832
308.095650	-2.999100	3.780600	-11.337000	23.054852	0.001023	20.682982
309.100073	-3.017400	3.778800	-11.399000	23.088597	0.001024	20.688820
310.099225	-3.014700	3.780300	-11.395000	23.098939	0.001024	20.699184
311.093374	-2.987300	3.780100	-11.291000	23.095178	0.001026	20.677870
312.095033	-2.992800	3.780500	-11.311000	23.106707	0.001026	20.678991
313.092963	-2.985900	3.781000	-11.289000	23.095578	0.001025	20.665467
314.095397	-2.994200	3.779900	-11.317000	23.075470	0.001027	20.687047
315.091582	-2.981600	3.778600	-11.266000	23.089648	0.001027	20.691770
316.097726	-2.991600	3.778000	-11.300000	23.106228	0.001027	20.688469
317.094086	-2.990800	3.778400	-11.299000	23.104606	0.001029	20.668350
318.096010	-3.003700	3.777100	-11.344000	23.105307	0.001028	20.686597
319.100327	-3.001700	3.777400	-11.337000	23.121616	0.001032	20.684448
320.097256	-3.015500	3.777400	-11.390000	23.141570	0.001032	20.688321
321.096513	-3.008400	3.776500	-11.358000	23.162586	0.001031	20.695631
322.097421	-3.009000	3.775400	-11.359000	23.142584	0.001031	20.682225
323.096668	-3.009300	3.776200	-11.361000	23.150776	0.001031	20.679053
324.098885	-3.009000	3.775700	-11.360000	23.155926	0.001031	20.691328
325.097754	-3.009600	3.775000	-11.359000	23.158691	0.001032	20.679399
326.094384	-3.006300	3.775000	-11.348000	23.141725	0.001032	20.698909
327.099641	-2.976400	3.776300	-11.238000	23.134430	0.001031	20.705350
328.098963	-3.002800	3.775500	-11.337000	23.111810	0.001033	20.695485
329.099738	-3.005900	3.775000	-11.346000	23.083916	0.001033	20.683655
330.095579	-2.979700	3.775300	-11.248000	23.078478	0.001032	20.688164
331.097732	-2.994000	3.774000	-11.298000	23.087690	0.001034	20.707353
332.095934	-2.997300	3.773100	-11.308000	23.089208	0.001035	20.709349
333.098143	-2.994900	3.772800	-11.298000	23.094451	0.001035	20.694212
334.098678	-3.005200	3.773000	-11.337000	23.113103	0.001036	20.691090
335.100257	-3.000100	3.772600	-11.318000	23.157360	0.001034	20.710310
336.100167	-3.004800	3.773100	-11.336000	23.171230	0.001036	20.696707
337.099013	-2.991600	3.772600	-11.285000	23.179661	0.001035	20.689983
338.101819	-2.998500	3.771200	-11.306000	23.195251	0.001036	20.698493
339.100502	-2.997200	3.771600	-11.304000	23.197321	0.001036	20.699620
340.100526	-3.003300	3.770900	-11.324000	23.219228	0.001037	20.669888
341.098454	-2.980200	3.770600	-11.235000	23.205009	0.001036	20.694996
342.100859	-3.009200	3.770400	-11.344000	23.210017	0.001039	20.704282
343.100245	-3.015300	3.769700	-11.365000	23.217109	0.001038	20.702380
344.100717	-2.996800	3.770300	-11.297000	23.233245	0.001037	20.713336
345.104341	-2.993900	3.770500	-11.288000	23.236576	0.001039	20.687748
346.098240	-2.999700	3.768800	-11.304000	23.236600	0.001039	20.710534
347.100239	-2.998900	3.769100	-11.303000	23.245688	0.001039	20.701623
348.099450	-2.997600	3.770600	-11.301000	23.247433	0.001040	20.720443
349.101970	-3.011300	3.769100	-11.349000	23.289032	0.001039	20.698594
350.103776	-2.991200	3.768900	-11.273000	23.304098	0.001041	20.726497
351.101422	-2.993800	3.767400	-11.278000	23.263489	0.001041	20.695280
352.098511	-3.001400	3.768200	-11.309000	23.258482	0.001040	20.695003
353.101647	-2.986700	3.768400	-11.254000	23.264258	0.001040	20.712173
354.102292	-2.991200	3.767900	-11.269000	23.259625	0.001039	20.700891
355.101797	-2.997500	3.767300	-11.291000	23.236865	0.001042	20.704161
356.106651	-2.991300	3.767200	-11.268000	23.239102	0.001042	20.697393
357.102651	-3.008600	3.766000	-11.330000	23.254587	0.001039	20.699635
358.105346	-3.013700	3.766500	-11.350000	23.258402	0.001042	20.709624
359.105701	-2.998300	3.765600	-11.289000	23.262857	0.001043	20.691327
360.106305	-3.000600	3.764500	-11.294000	23.265862	0.001045	20.719946
361.107971	-2.962400	3.766500	-11.157000	23.297813	0.001044	20.712137
362.107053	-3.008000	3.765600	-11.326000	23.323385	0.001043	20.722119
363.103310	-3.015400	3.762700	-11.345000	23.343901	0.001044	20.716602
364.107337	-2.986100	3.763800	-11.238000	23.338095	0.001044	20.697505
365.108143	-3.008900	3.763200	-11.321000	23.351470	0.001044	20.712334
366.109593	-3.024600	3.763900	-11.383000	23.346285	0.001045	20.714250
367.114023	-2.989800	3.764200	-11.251000	23.319644	0.001046	20.713628
368.107931	-2.980600	3.762500	-11.213000	23.355722	0.001046	20.709483
369.110755	-2.974000	3.763300	-11.189000	23.348251	0.001047	20.695830
370.112068	-3.002700	3.762400	-11.297000	23.347354	0.001047	20.732866
371.110023	-3.002300	3.762000	-11.293000	23.367445	0.001046	20.716018
372.106810	-3.011500	3.762100	-11.328000	23.392819	0.001047	20.695929
373.113362	-3.014000	3.761600	-11.335000	23.391069	0.001045	20.723574
374.119281	-3.015300	3.760300	-11.337000	23.397440	0.001046	20.720003
375.111735	-2.970700	3.762600	-11.177000	23.379666	0.001047	20.719731
376.114967	-2.999900	3.760400	-11.280000	23.366488	0.001047	20.708893
377.107236	-3.013500	3.759700	-11.329000	23.390320	0.001048	20.713814
378.111558	-2.974000	3.759800	-11.180000	23.419846	0.001051	20.724917
379.114134	-3.012900	3.759700	-11.326000	23.427495	0.001050	20.699865
380.111143	-2.990500	3.759200	-11.241000	23.447732	0.001048	20.718728
381.110448	-3.013200	3.758000	-11.323000	23.461303	0.001049	20.713838
382.114939	-2.983200	3.760600	-11.216000	23.475789	0.001049	20.725515
383.110282	-3.012300	3.756800	-11.315000	23.491522	0.001051	20.726112
384.113130	-2.982600	3.758400	-11.210000	23.510615	0.001051	20.746200
385.118298	-2.996400	3.756600	-11.256000	23.517011	0.001051	20.705193
386.113042	-2.987000	3.757200	-11.221000	23.538444	0.001051	20.707712
387.118411	-2.996900	3.756300	-11.256000	23.523154	0.001051	20.723206
388.121660	-3.014100	3.757200	-11.324000	23.503908	0.001051	20.719561
389.116597	-3.011800	3.755900	-11.310000	23.501967	0.001051	20.722357
390.118616	-3.005300	3.756200	-11.287000	23.477738	0.001050	20.736004
391.125359	-2.986000	3.757600	-11.219000	23.470796	0.001054	20.735209
392.119341	-2.988300	3.756500	-11.224000	23.506992	0.001054	20.734981
393.118871	-3.011500	3.754700	-11.307000	23.493176	0.001053	20.710225
394.117097	-3.025800	3.754200	-11.358000	23.512318	0.001053	20.732259
395.117916	-3.000500	3.753800	-11.260000	23.505346	0.001054	20.732857
396.118967	-3.000900	3.755200	-11.266000	23.505617	0.001055	20.731231
397.120931	-2.994900	3.754300	-11.243000	23.505365	0.001055	20.732876
398.118330	-2.975200	3.754000	-11.167000	23.477579	0.001055	20.732525
399.115214	-2.984200	3.753000	-11.199000	23.449713	0.001056	20.731620
400.116223	-3.000200	3.753400	-11.260000	23.440517	0.001060	20.738999
401.123462	-3.009300	3.751500	-11.287000	23.429274	0.001058	20.744325
402.121553	-2.998100	3.752600	-11.249000	23.416392	0.001056	20.728567
403.118669	-2.995000	3.752200	-11.237000	23.412405	0.001057	20.738796
404.126067	-2.987200	3.753100	-11.210000	23.438773	0.001057	20.743414
405.119994	-2.991800	3.752700	-11.227000	23.475561	0.001057	20.756581
406.121871	-3.011400	3.751300	-11.295000	23.495600	0.001057	20.733519
407.124672	-3.018200	3.751600	-11.323000	23.552848	0.001056	20.734481
408.122114	-3.008200	3.750000	-11.280000	23.546552	0.001057	20.740497
409.123868	-2.998000	3.751500	-11.245000	23.580233	0.001058	20.735380
410.121840	-2.998400	3.750100	-11.243000	23.604147	0.001057	20.760777
411.121455	-2.987300	3.751300	-11.205000	23.597397	0.001056	20.751165
412.126976	-3.030600	3.747800	-11.355000	23.599087	0.001056	20.759023
413.126385	-3.003000	3.749100	-11.258000	23.579522	0.001057	20.740832
414.122502	-2.976000	3.750600	-11.161000	23.583374	0.001059	20.734736
415.123926	-2.980500	3.749900	-11.176000	23.559817	0.001057	20.746683
416.124134	-3.002800	3.747600	-11.252000	23.561458	0.001059	20.750698
417.122574	-2.975600	3.748600	-11.153000	23.576096	0.001058	20.723646
418.131563	-3.006400	3.748800	-11.270000	23.595390	0.001059	20.738247
419.124432	-2.993000	3.747500	-11.215000	23.571858	0.001059	20.735519
420.123749	-2.998800	3.748100	-11.238000	23.582160	0.001058	20.758175
421.125582	-3.000900	3.746500	-11.240000	23.576386	0.001060	20.741007
422.123525	-3.017300	3.745000	-11.299000	23.600852	0.001059	20.745619
423.121224	-2.997800	3.744800	-11.225000	23.611509	0.001057	20.750139
424.126662	-2.997100	3.746500	-11.228000	23.634532	0.001058	20.745718
425.126442	-2.996900	3.746300	-11.226000	23.631393	0.001060	20.753477
426.122455	-2.987200	3.745400	-11.187000	23.622929	0.001061	20.750682
427.129212	-3.009400	3.744500	-11.267000	23.615908	0.001059	20.757868
428.124601	-2.985300	3.744800	-11.178000	23.597235	0.001058	20.742467
429.125235	-3.007600	3.743700	-11.259000	23.579956	0.001061	20.750750
430.129467	-3.012200	3.743400	-11.273000	23.553345	0.001060	20.764378
431.126743	-3.006100	3.743200	-11.252000	23.575073	0.001060	20.758183
432.123496	-2.990500	3.743400	-11.193000	23.591775	0.001061	20.751693
433.126884	-3.000100	3.742300	-11.226000	23.645074	0.001061	20.764822
434.139051	-2.988300	3.743500	-11.185000	23.632323	0.001060	20.762470
435.127635	-3.006100	3.743600	-11.253000	23.609300	0.001059	20.755511
436.130643	-2.994800	3.742000	-11.206000	23.629430	0.001060	20.740129
437.126971	-3.008200	3.742200	-11.257000	23.642974	0.001061	20.762717
438.130028	-3.001300	3.742100	-11.230000	23.666001	0.001061	20.770155
439.133827	-3.009500	3.742000	-11.260000	23.691486	0.001061	20.772945
440.129251	-3.006700	3.741500	-11.249000	23.729222	0.001060	20.779011
441.131312	-3.002300	3.740100	-11.228000	23.714408	0.001060	20.764632
442.134395	-3.004000	3.740800	-11.235000	23.699550	0.001061	20.752107
443.129650	-3.012500	3.739400	-11.264000	23.737379	0.001061	20.758265
444.132625	-3.022900	3.739400	-11.302000	23.770232	0.001063	20.758962
445.134713	-2.991300	3.739400	-11.185000	23.750351	0.001061	20.759891
446.133773	-2.984300	3.739500	-11.159000	23.719250	0.001063	20.769961
447.135046	-3.003300	3.737500	-11.224000	23.732847	0.001064	20.754669
448.137967	-3.019100	3.737300	-11.282000	23.712511	0.001064	20.760834
449.135406	-3.007500	3.736700	-11.236000	23.752379	0.001063	20.755760
450.135916	-2.979600	3.738300	-11.138000	23.780035	0.001064	20.766894
451.134252	-2.994500	3.738300	-11.193000	23.769527	0.001062	20.773428
452.135114	-2.989600	3.737900	-11.174000	23.787970	0.001065	20.760151
453.134767	-2.997900	3.737800	-11.205000	23.798748	0.001065	20.794192
454.135274	-2.997100	3.737100	-11.199000	23.809349	0.001063	20.752663
455.134822	-2.981400	3.736800	-11.139000	23.790231	0.001064	20.759099
456.135062	-3.009600	3.734900	-11.239000	23.823008	0.001064	20.783903
457.134323	-2.998100	3.736600	-11.202000	23.818550	0.001063	20.777536
458.137677	-2.996400	3.735400	-11.192000	23.813545	0.001064	20.781053
459.136966	-2.987400	3.735100	-11.156000	23.838553	0.001063	20.776256
460.139941	-3.013700	3.734600	-11.254000	23.866004	0.001065	20.782445
461.137457	-3.016100	3.733600	-11.260000	23.892687	0.001065	20.786441
462.140255	-2.983100	3.734500	-11.139000	23.883973	0.001063	20.775807
463.139946	-2.989000	3.733400	-11.158000	23.886510	0.001064	20.775505
464.144395	-2.986600	3.734300	-11.152000	23.894597	0.001064	20.772235
465.141918	-2.983500	3.733600	-11.138000	23.883164	0.001065	20.787323
466.140071	-3.009100	3.731200	-11.226000	23.899320	0.001065	20.785032
467.145187	-3.016100	3.730200	-11.248000	23.889035	0.001066	20.798900
468.143557	-2.994700	3.731700	-11.174000	23.896951	0.001066	20.795932
469.144406	-3.009700	3.730900	-11.228000	23.894764	0.001066	20.794214
470.144185	-2.998200	3.731500	-11.187000	23.874745	0.001066	20.802115
471.145520	-2.992300	3.730200	-11.161000	23.867568	0.001068	20.777848
472.148455	-3.010600	3.731000	-11.231000	23.901072	0.001067	20.773987
473.142610	-2.992800	3.730500	-11.164000	23.907515	0.001066	20.783766
474.147850	-3.014800	3.728700	-11.240000	23.895540	0.001068	20.781242
475.144385	-3.011800	3.728200	-11.228000	23.923482	0.001065	20.799777
476.144175	-2.977400	3.730000	-11.104000	23.955758	0.001067	20.806065
477.142818	-3.006500	3.728800	-11.210000	23.939824	0.001066	20.795776
478.146198	-3.001700	3.728600	-11.191000	23.953511	0.001068	20.796700
479.145710	-2.986300	3.728900	-11.134000	23.975354	0.001066	20.805802
480.144078	-2.990500	3.728300	-11.148000	23.978763	0.001066	20.797366
481.148151	-3.005200	3.728200	-11.203000	23.968434	0.001066	20.802181
482.143923	-3.015600	3.726900	-11.238000	23.956204	0.001067	20.795132
483.142527	-2.999300	3.725400	-11.172000	23.940699	0.001067	20.808507
484.157428	-2.996500	3.725900	-11.163000	23.910161	0.001067	20.804911
485.143248	-3.005200	3.725700	-11.194000	23.888207	0.001065	20.782423
486.148429	-3.005300	3.726600	-11.198000	23.916272	0.001068	20.778797
487.153830	-3.006200	3.724500	-11.195000	23.929468	0.001066	20.812418
488.146735	-3.000500	3.725900	-11.178000	23.954892	0.001067	20.804248
489.146765	-3.015200	3.725000	-11.231000	23.952596	0.001069	20.797204
490.155438	-2.983200	3.724700	-11.110000	23.961973	0.001067	20.807082
491.148270	-2.992000	3.723900	-11.141000	23.985910	0.001067	20.807378
492.150052	-3.020900	3.723400	-11.248000	24.009698	0.001066	20.799465
493.150678	-2.986600	3.725600	-11.126000	24.022158	0.001066	20.820969
494.153093	-3.018600	3.722800	-11.237000	23.993292	0.001065	20.806246
495.150043	-3.017500	3.722800	-11.233000	23.998906	0.001070	20.802867
496.152620	-2.976500	3.724000	-11.084000	23.952165	0.001069	20.817634
497.149761	-3.018700	3.723000	-11.238000	23.949371	0.001067	20.811040
498.154043	-2.960100	3.725100	-11.025000	23.943298	0.001068	20.812536
499.160033	-2.993000	3.721600	-11.138000	23.921838	0.001067	20.809034
500.155902	-3.014100	3.720800	-11.214000	23.956970	0.001067	20.809176
501.155262	-3.004400	3.720300	-11.177000	23.970977	0.001067	20.817533
502.162065	-3.023700	3.719400	-11.246000	23.988398	0.001067	20.809398
503.156717	-2.993400	3.722000	-11.140000	23.993366	0.001067	20.825287
504.159870	-2.994000	3.721100	-11.140000	24.019636	0.001069	20.824130
505.159990	-3.017900	3.719200	-11.223000	24.043921	0.001068	20.828096
506.157540	-2.979700	3.720300	-11.084000	24.037898	0.001068	20.820159
507.157752	-2.994400	3.719200	-11.136000	24.045211	0.001067	20.813269
508.161986	-3.011800	3.719200	-11.201000	24.098009	0.001067	20.832081
509.161963	-2.988800	3.719700	-11.116000	24.085540	0.001068	20.818153
510.158759	-2.973400	3.720000	-11.061000	24.124749	0.001067	20.820020
511.162824	-2.984600	3.718600	-11.097000	24.099141	0.001069	20.841751
512.161491	-3.009800	3.717100	-11.187000	24.114299	0.001070	20.841306
513.157238	-3.011700	3.717400	-11.195000	24.134519	0.001069	20.834559
514.163514	-2.995500	3.717300	-11.134000	24.135538	0.001068	20.819935
515.164024	-3.002000	3.717200	-11.158000	24.177213	0.001070	20.844190
516.159039	-3.011000	3.716000	-11.188000	24.193483	0.001069	20.832534
517.162841	-2.989700	3.717600	-11.114000	24.178025	0.001068	20.831728
518.165051	-2.989800	3.716800	-11.111000	24.136000	0.001069	20.842209
519.159238	-3.022300	3.714500	-11.225000	24.171623	0.001068	20.845695
520.162348	-3.009500	3.714800	-11.179000	24.175700	0.001067	20.845043
521.167139	-3.029300	3.714600	-11.252000	24.222801	0.001070	20.851508
522.164722	-3.024100	3.713400	-11.229000	24.196973	0.001067	20.820862
523.164668	-2.994500	3.713700	-11.119000	24.187715	0.001069	20.808257
524.165180	-2.994600	3.715000	-11.124000	24.180575	0.001067	20.852303
525.164018	-2.995400	3.714300	-11.125000	24.158873	0.001068	20.828640
526.166859	-3.021300	3.711600	-11.212000	24.169992	0.001068	20.832206
527.165622	-2.994100	3.713100	-11.116000	24.202788	0.001069	20.844711
528.162536	-3.044400	3.711600	-11.299000	24.204108	0.001068	20.843190
529.168339	-2.996800	3.710800	-11.118000	24.208633	0.001066	20.835401
530.167405	-3.007300	3.711600	-11.161000	24.216319	0.001068	20.840740
531.167387	-3.007800	3.711500	-11.162000	24.202911	0.001068	20.861429
532.173282	-3.029100	3.710400	-11.238000	24.216068	0.001068	20.847600
533.171752	-2.987000	3.711500	-11.085000	24.224282	0.001067	20.862476
534.167993	-2.978200	3.712000	-11.053000	24.230077	0.001069	20.836048
535.165634	-2.968600	3.710700	-11.014000	24.265470	0.001067	20.839781
536.165338	-3.000000	3.710400	-11.130000	24.259650	0.001068	20.848642
537.164946	-3.010300	3.710100	-11.167000	24.278509	0.001067	20.835791
538.175149	-2.979500	3.710200	-11.053000	24.298460	0.001066	20.841105
539.166631	-3.008800	3.709000	-11.159000	24.281468	0.001066	20.835914
540.170200	-3.006300	3.708200	-11.147000	24.276214	0.001067	20.884221
541.168918	-3.013400	3.708000	-11.172000	24.234026	0.001067	20.867508
542.168982	-2.988200	3.709500	-11.083000	24.245562	0.001065	20.856795
543.165972	-2.994500	3.707200	-11.099000	24.236354	0.001066	20.850879
544.170968	-2.994700	3.706900	-11.100000	24.245858	0.001065	20.856617
545.170132	-2.999200	3.707700	-11.119000	24.241101	0.001065	20.869863
546.167224	-2.982700	3.707100	-11.056000	24.264810	0.001067	20.863773
547.167788	-2.998800	3.706900	-11.116000	24.249782	0.001068	20.846329
548.169123	-3.010600	3.706300	-11.157000	24.272072	0.001065	20.869162
549.175255	-3.004400	3.706500	-11.135000	24.273392	0.001066	20.862425
550.175582	-2.997400	3.706400	-11.107000	24.276026	0.001066	20.856533
551.172503	-3.004300	3.705500	-11.131000	24.311103	0.001064	20.854261
552.172436	-3.014000	3.704700	-11.164000	24.319286	0.001066	20.861521
553.173609	-2.978700	3.705400	-11.035000	24.316775	0.001066	20.861847
554.173427	-2.976700	3.706500	-11.032000	24.301846	0.001067	20.871053
555.171809	-2.992400	3.704100	-11.083000	24.289079	0.001065	20.868203
556.170704	-2.986900	3.703000	-11.060000	24.280467	0.001065	20.871892
557.170316	-2.998200	3.703500	-11.103000	24.272909	0.001066	20.879009
558.177741	-2.995400	3.702900	-11.091000	24.273800	0.001063	20.858093
559.175311	-3.003100	3.703500	-11.121000	24.312259	0.001067	20.871541
560.174500	-2.994600	3.703200	-11.089000	24.299369	0.001064	20.850551
561.174795	-3.009200	3.701500	-11.138000	24.307109	0.001064	20.864953
562.175007	-3.003700	3.702800	-11.121000	24.299462	0.001065	20.883359
563.174957	-3.000000	3.702000	-11.105000	24.318295	0.001064	20.847725
564.175442	-3.015100	3.700800	-11.157000	24.358792	0.001065	20.855158
565.175763	-2.982000	3.702400	-11.039000	24.357423	0.001062	20.877017
566.174812	-2.984700	3.701300	-11.045000	24.368215	0.001063	20.861766
567.173325	-2.990300	3.702000	-11.069000	24.354207	0.001063	20.849611
568.176851	-3.013000	3.699800	-11.146000	24.371100	0.001064	20.861815
569.176228	-3.005300	3.700200	-11.118000	24.389621	0.001062	20.855740
570.177451	-3.014500	3.699100	-11.150000	24.389818	0.001062	20.842662
571.175311	-2.999500	3.699500	-11.095000	24.371311	0.001064	20.852544
572.177340	-2.976500	3.700500	-11.014000	24.366136	0.001063	20.857310
573.176487	-2.985200	3.699900	-11.044000	24.363798	0.001063	20.838370
574.176536	-2.985800	3.698100	-11.041000	24.398847	0.001064	20.844607
575.174274	-2.975100	3.698300	-11.002000	24.405907	0.001064	20.850741
576.173537	-2.991000	3.697800	-11.059000	24.427998	0.001063	20.841609
577.180698	-2.985300	3.698300	-11.040000	24.425708	0.001063	20.845951
578.177877	-2.992200	3.697400	-11.061000	24.451175	0.001062	20.859646
579.175571	-2.991300	3.696800	-11.056000	24.472670	0.001062	20.860347
580.176679	-2.985500	3.696300	-11.035000	24.463370	0.001063	20.842958
581.178412	-3.004500	3.696100	-11.103000	24.456527	0.001064	20.856954
582.180334	-2.988900	3.697300	-11.050000	24.452967	0.001061	20.855754
583.179358	-2.988000	3.695800	-11.042000	24.430656	0.001061	20.865138
584.176775	-2.991600	3.695300	-11.054000	24.411825	0.001062	20.845773
585.179508	-2.976700	3.695700	-11.000000	24.432945	0.001060	20.855107
586.176764	-2.987600	3.695400	-11.039000	24.460352	0.001062	20.845145
587.180534	-2.988800	3.694100	-11.040000	24.464832	0.001062	20.848217
588.177694	-2.966200	3.695500	-10.960000	24.481329	0.001060	20.829208
589.180413	-2.992500	3.693200	-11.051000	24.470233	0.001061	20.833722
590.185688	-3.007000	3.692100	-11.102000	24.521396	0.001061	20.840009
591.181765	-3.008400	3.692400	-11.107000	24.480778	0.001060	20.821542
592.181115	-3.014800	3.690700	-11.125000	24.456153	0.001060	20.833346
593.184236	-2.983200	3.693100	-11.017000	24.434910	0.001060	20.825311
594.188805	-3.012200	3.691400	-11.118000	24.430730	0.001060	20.833919
595.179123	-3.011600	3.691600	-11.117000	24.431552	0.001061	20.848020
596.180114	-3.003200	3.691300	-11.084000	24.446607	0.001059	20.819503
597.182203	-3.013000	3.690000	-11.117000	24.479168	0.001059	20.827514
598.180389	-2.989000	3.691400	-11.033000	24.485184	0.001060	20.830230
599.183739	-3.012400	3.689000	-11.112000	24.461726	0.001060	20.829454
600.191243	-2.975400	3.691100	-10.980000	24.454194	0.001060	20.825691
601.187765	-2.999000	3.689000	-11.062000	24.419121	0.001059	20.832231
602.196866	-3.013700	3.687000	-11.110000	24.450216	0.001061	20.819804
603.188506	-2.997900	3.688500	-11.057000	24.455213	0.001058	20.827188
604.185859	-2.994200	3.688100	-11.042000	24.476387	0.001058	20.833732
605.185922	-3.014100	3.687200	-11.112000	24.507204	0.001059	20.821503
606.185365	-3.007200	3.687700	-11.088000	24.483102	0.001058	20.839046
607.185907	-3.024000	3.686400	-11.146000	24.479725	0.001058	20.818590
608.187027	-2.974100	3.688400	-10.968000	24.436491	0.001058	20.824052
609.188198	-3.022400	3.684600	-11.135000	24.433483	0.001058	20.814396
610.186482	-3.022500	3.685200	-11.137000	24.425325	0.001057	20.814273
611.189937	-3.005800	3.685800	-11.077000	24.388159	0.001058	20.801170
612.187538	-3.001700	3.686000	-11.063000	24.394732	0.001058	20.819143
613.188450	-3.051900	3.684100	-11.243000	24.362046	0.001055	20.808638
614.188755	-3.039600	3.683800	-11.197000	24.343735	0.001055	20.804968
615.182259	-3.006300	3.685400	-11.078000	24.315405	0.001056	20.815429
616.181750	-3.019100	3.684000	-11.121000	24.350057	0.001055	20.807043
617.185078	-3.009300	3.684300	-11.086000	24.364261	0.001056	20.806119
618.182285	-3.027000	3.683600	-11.149000	24.392945	0.001054	20.805971
619.186404	-2.992800	3.684000	-11.023000	24.415066	0.001056	20.795920
620.188606	-2.996200	3.683900	-11.037000	24.456706	0.001056	20.811617
621.186895	-2.982400	3.682600	-10.981000	24.476487	0.001054	20.806806
622.189045	-2.999600	3.682300	-11.044000	24.459315	0.001057	20.793846
623.189546	-2.985800	3.683300	-10.997000	24.485590	0.001055	20.786541
624.181952	-2.997100	3.682300	-11.035000	24.437610	0.001055	20.795303
625.185977	-2.993500	3.682600	-11.022000	24.438265	0.001053	20.813504
626.187207	-2.984300	3.683600	-10.993000	24.460252	0.001054	20.803794
627.184825	-2.989300	3.682800	-11.007000	24.466671	0.001053	20.799329
628.189339	-3.012000	3.680700	-11.085000	24.475828	0.001055	20.813732
629.189406	-3.008100	3.680700	-11.072000	24.482696	0.001053	20.811139
630.188948	-3.016900	3.680300	-11.103000	24.495156	0.001053	20.793768
631.193272	-3.000100	3.681300	-11.042000	24.475459	0.001053	20.794396
632.190598	-3.021000	3.678900	-11.113000	24.438650	0.001053	20.799192
633.188015	-3.024300	3.678600	-11.124000	24.433377	0.001052	20.793428
634.191801	-2.997200	3.678700	-11.024000	24.418504	0.001054	20.793680
635.187971	-3.008000	3.679100	-11.065000	24.454429	0.001051	20.795108
636.192733	-3.015400	3.677400	-11.088000	24.459879	0.001053	20.774497
637.196206	-2.979400	3.679200	-10.960000	24.435702	0.001053	20.786751
638.190164	-2.983400	3.679600	-10.977000	24.464709	0.001052	20.793093
639.195106	-2.996400	3.678100	-11.019000	24.480605	0.001051	20.803826
640.193968	-2.994800	3.677300	-11.012000	24.488689	0.001053	20.792021
641.190700	-3.016500	3.676500	-11.089000	24.535530	0.001051	20.781170
642.191958	-3.001800	3.676400	-11.034000	24.534560	0.001051	20.781620
643.196476	-3.006000	3.676000	-11.049000	24.573611	0.001051	20.776231
644.192025	-2.997100	3.675100	-11.013000	24.575654	0.001052	20.785394
645.194680	-3.000000	3.675700	-11.026000	24.601497	0.001051	20.778608
646.193738	-3.007400	3.675400	-11.052000	24.624554	0.001048	20.789414
647.195310	-3.000500	3.674800	-11.024000	24.646498	0.001051	20.796261
648.194376	-3.006400	3.675500	-11.049000	24.653630	0.001050	20.785399
649.192296	-3.006500	3.673000	-11.042000	24.635157	0.001051	20.781562
650.202967	-3.002600	3.674400	-11.032000	24.656446	0.001050	20.789173
651.194922	-3.004500	3.674500	-11.039000	24.663036	0.001050	20.783458
652.196589	-2.999500	3.672900	-11.014000	24.662293	0.001050	20.768488
653.199256	-2.997000	3.673400	-11.008000	24.654088	0.001049	20.770212
654.196674	-3.006500	3.673500	-11.043000	24.622158	0.001049	20.782743
655.197451	-2.970000	3.674300	-10.911000	24.637058	0.001049	20.761183
656.196671	-2.998700	3.673600	-11.015000	24.624152	0.001045	20.780476
657.192122	-3.004300	3.672000	-11.029000	24.600899	0.001049	20.762359
658.195306	-3.015100	3.671300	-11.067000	24.600579	0.001048	20.779108
659.195394	-2.993800	3.671900	-10.992000	24.621174	0.001049	20.788868
660.195942	-3.011200	3.671300	-11.053000	24.642990	0.001047	20.766662
661.195207	-2.982400	3.672300	-10.951000	24.651220	0.001047	20.781559
662.197362	-2.983900	3.671700	-10.954000	24.644359	0.001047	20.749068
663.200460	-3.003700	3.669700	-11.022000	24.631379	0.001047	20.791995
664.199337	-3.004400	3.669100	-11.022000	24.659878	0.001047	20.758952
665.198181	-2.977600	3.669200	-10.925000	24.665002	0.001049	20.764094
666.197218	-2.989000	3.668600	-10.964000	24.653539	0.001048	20.773928
667.199196	-2.980700	3.670300	-10.939000	24.635558	0.001045	20.761101
668.199981	-3.007500	3.668100	-11.031000	24.636730	0.001048	20.772234
669.205417	-2.986100	3.669500	-10.957000	24.641706	0.001046	20.795720
670.204404	-2.987300	3.668800	-10.959000	24.644719	0.001046	20.768397
671.200140	-3.004700	3.668300	-11.020000	24.667198	0.001044	20.767720
672.206562	-3.042400	3.666000	-11.152000	24.680803	0.001045	20.755293
673.198886	-3.002000	3.667400	-11.009000	24.707288	0.001045	20.770965
674.202730	-3.006100	3.667000	-11.022000	24.723954	0.001045	20.742644
675.203680	-3.008400	3.667300	-11.031000	24.738730	0.001046	20.758420
676.204120	-2.998800	3.666000	-10.992000	24.736613	0.001044	20.745864
677.204722	-3.014300	3.665300	-11.047000	24.722733	0.001044	20.752799
678.210624	-2.988200	3.665900	-10.954000	24.690313	0.001045	20.762465
679.205197	-3.007200	3.664600	-11.019000	24.723058	0.001045	20.749331
680.202395	-2.994500	3.664700	-10.973000	24.737514	0.001042	20.733966
681.207793	-2.996900	3.664900	-10.982000	24.738759	0.001041	20.753708
682.210918	-2.997200	3.664500	-10.982000	24.768270	0.001043	20.769098
683.208368	-2.998500	3.663600	-10.984000	24.740748	0.001044	20.751436
684.208104	-3.021300	3.663900	-11.068000	24.773123	0.001042	20.760218
685.203484	-2.983500	3.664600	-10.933000	24.781933	0.001043	20.751041
686.202897	-2.987900	3.664400	-10.948000	24.790142	0.001041	20.738417
687.206686	-3.001500	3.662400	-10.992000	24.806600	0.001042	20.754933
688.205402	-3.007500	3.661500	-11.011000	24.818515	0.001043	20.752667
689.205408	-2.996100	3.661700	-10.968000	24.809888	0.001042	20.752069
690.205551	-2.983300	3.662900	-10.926000	24.836817	0.001043	20.745905
691.202654	-3.007600	3.660800	-11.010000	24.831872	0.001042	20.750899
692.207694	-3.014400	3.661000	-11.034000	24.824706	0.001041	20.756035
693.210778	-2.991100	3.662100	-10.952000	24.800487	0.001042	20.749273
694.208595	-3.016500	3.661300	-11.043000	24.778478	0.001043	20.741410
695.206821	-3.016000	3.659800	-11.037000	24.703229	0.001039	20.738916
696.215375	-2.998700	3.659800	-10.973000	24.714200	0.001041	20.721949
697.211558	-3.039600	3.658800	-11.120000	24.745656	0.001042	20.728385
698.206003	-2.999500	3.660000	-10.977000	24.701142	0.001039	20.749150
699.212378	-3.016000	3.659500	-11.034000	24.691766	0.001041	20.747327
700.209571	-3.006700	3.658400	-10.999000	24.711759	0.001041	20.745105
701.210702	-2.992000	3.658800	-10.946000	24.706487	0.001040	20.754988
702.213341	-3.008600	3.658100	-11.004000	24.712409	0.001040	20.749550
703.212172	-2.996000	3.657500	-10.956000	24.710912	0.001039	20.727184
704.209410	-3.028300	3.656900	-11.073000	24.736279	0.001038	20.733201
705.212915	-3.001600	3.657600	-10.977000	24.757689	0.001039	20.739987
706.212934	-3.037200	3.655500	-11.101000	24.756026	0.001039	20.742586
707.212927	-3.027300	3.656700	-11.069000	24.767242	0.001036	20.732505
708.217033	-3.018300	3.656000	-11.034000	24.763192	0.001038	20.730336
709.213329	-2.997600	3.656000	-10.958000	24.764481	0.001038	20.722621
710.214285	-3.010700	3.655300	-11.004000	24.736058	0.001040	20.732030
711.211407	-3.013400	3.655200	-11.013000	24.698381	0.001036	20.736895
712.214371	-3.007200	3.655400	-10.991000	24.689280	0.001036	20.738669
713.210773	-3.022000	3.654700	-11.043000	24.721288	0.001034	20.743761
714.218828	-2.995500	3.655500	-10.949000	24.717680	0.001036	20.724019
715.215670	-2.988300	3.654900	-10.921000	24.721140	0.001038	20.727491
716.213523	-2.968500	3.655500	-10.848000	24.741611	0.001035	20.715316
717.220786	-3.020600	3.654300	-11.036000	24.754136	0.001036	20.742111
718.211546	-3.008700	3.654000	-10.992000	24.786024	0.001035	20.748034
719.212132	-2.976300	3.653800	-10.873000	24.777691	0.001034	20.723076
720.216265	-3.006000	3.654100	-10.984000	24.800517	0.001036	20.738872
721.216917	-3.004100	3.653800	-10.976000	24.791890	0.001035	20.739222
722.216471	-3.000600	3.653200	-10.961000	24.816281	0.001033	20.734303
723.220733	-3.003500	3.652800	-10.969000	24.847015	0.001034	20.737172
724.219122	-3.007000	3.651900	-10.980000	24.862985	0.001032	20.729018
725.216878	-3.019100	3.651200	-11.022000	24.854904	0.001033	20.710475
726.228602	-2.971200	3.652700	-10.852000	24.887024	0.001033	20.719005
727.220818	-3.018700	3.651100	-11.020000	24.902019	0.001033	20.742117
728.217315	-2.992500	3.651800	-10.927000	24.901994	0.001032	20.705580
729.218479	-2.976700	3.652300	-10.870000	24.922254	0.001033	20.729709
730.218307	-3.012400	3.649600	-10.993000	24.946770	0.001033	20.734401
731.212547	-2.985000	3.650100	-10.894000	24.944408	0.001032	20.708795
732.217945	-3.003000	3.649400	-10.958000	24.931382	0.001033	20.725595
733.219698	-3.003800	3.649100	-10.961000	24.947518	0.001030	20.710969
734.220771	-3.015600	3.650100	-11.006000	24.925064	0.001031	20.716407
735.220246	-2.982100	3.648900	-10.881000	24.910468	0.001030	20.720724
736.218441	-3.030900	3.647900	-11.055000	24.866857	0.001031	20.727215
737.213196	-3.015400	3.648200	-11.000000	24.889859	0.001028	20.711893
738.218626	-3.008700	3.647600	-10.973000	24.892570	0.001028	20.712718
739.218564	-3.001400	3.647100	-10.946000	24.906541	0.001029	20.715360
740.215369	-3.011600	3.648400	-10.986000	24.940585	0.001026	20.723925
741.218671	-3.002800	3.646300	-10.948000	24.913302	0.001028	20.719776
742.224162	-2.997300	3.647100	-10.930000	24.906394	0.001028	20.716634
743.220393	-2.990300	3.646900	-10.903000	24.880760	0.001026	20.735004
744.221168	-2.989900	3.646400	-10.902000	24.864249	0.001027	20.706104
745.225841	-2.987500	3.646700	-10.893000	24.885238	0.001027	20.722903
746.217200	-3.018300	3.646200	-11.003000	24.874716	0.001027	20.709023
747.223340	-2.990900	3.645400	-10.901000	24.876661	0.001026	20.715242
748.222238	-2.999600	3.643300	-10.927000	24.900817	0.001026	20.696338
749.219746	-2.981500	3.645400	-10.868000	24.922456	0.001026	20.727066
750.222064	-2.996300	3.645100	-10.920000	24.909534	0.001026	20.720735
751.220831	-3.007600	3.643300	-10.956000	24.887600	0.001026	20.700142
752.235734	-3.017900	3.643100	-10.993000	24.926713	0.001023	20.707156
753.224864	-3.008600	3.642900	-10.958000	24.934099	0.001025	20.707458
754.221434	-3.022200	3.642500	-11.007000	24.921718	0.001025	20.709256
755.225206	-3.002100	3.642800	-10.934000	24.950038	0.001023	20.699747
756.228294	-3.005900	3.641000	-10.944000	24.921369	0.001024	20.703214
757.227271	-2.990100	3.643000	-10.893000	24.898024	0.001024	20.712027
758.222881	-3.007300	3.639600	-10.944000	24.905184	0.001024	20.699298
759.230214	-2.998300	3.641000	-10.916000	24.904515	0.001022	20.690565
760.222228	-3.008300	3.640300	-10.950000	24.914061	0.001022	20.692560
761.225646	-2.989900	3.640900	-10.884000	24.944694	0.001023	20.707186
762.230376	-2.981100	3.641100	-10.853000	24.925847	0.001020	20.693010
763.225498	-2.995600	3.639700	-10.902000	24.949517	0.001021	20.706336
764.223351	-2.991300	3.641900	-10.893000	24.952277	0.001021	20.710056
765.229714	-2.993200	3.640000	-10.894000	24.976320	0.001021	20.701471
766.226968	-2.982300	3.639700	-10.852000	24.978013	0.001022	20.701274
767.227653	-3.006900	3.638200	-10.938000	24.946313	0.001019	20.713079
768.228587	-2.979100	3.639000	-10.840000	24.951638	0.001019	20.720795
769.226783	-2.997800	3.638400	-10.906000	24.913496	0.001020	20.707641
770.227579	-3.016100	3.638000	-10.971000	24.908974	0.001018	20.723492
771.231730	-2.976000	3.639900	-10.832000	24.900391	0.001019	20.687848
772.231831	-2.996100	3.638500	-10.900000	24.922344	0.001018	20.684751
773.230898	-2.980700	3.639000	-10.846000	24.940625	0.001017	20.682237
774.229757	-3.027800	3.636600	-11.010000	24.918938	0.001019	20.707414
775.232010	-2.997300	3.637500	-10.902000	24.881002	0.001018	20.689726
776.227195	-3.010400	3.636900	-10.947000	24.894752	0.001019	20.695465
777.238243	-3.005600	3.636500	-10.929000	24.866480	0.001017	20.698859
778.231141	-2.980700	3.637800	-10.842000	24.859167	0.001017	20.688199
779.227796	-3.004100	3.635400	-10.920000	24.835250	0.001015	20.699284
780.230880	-2.989600	3.635700	-10.868000	24.865639	0.001015	20.710818
781.236149	-3.005900	3.635600	-10.926000	24.875412	0.001015	20.705928
782.233952	-3.016400	3.633000	-10.958000	24.902169	0.001013	20.696745
783.238756	-3.007300	3.633800	-10.926000	24.912384	0.001017	20.710319
784.238845	-3.010700	3.634600	-10.942000	24.904610	0.001014	20.711525
785.236868	-3.003000	3.633900	-10.912000	24.928102	0.001014	20.690532
786.238440	-3.003600	3.632600	-10.910000	24.897824	0.001015	20.692859
787.237440	-2.988900	3.633500	-10.859000	24.902242	0.001015	20.719581
788.234411	-2.996500	3.633600	-10.887000	24.875816	0.001015	20.688788
789.241530	-3.014800	3.630900	-10.945000	24.885738	0.001013	20.681675
790.237301	-3.016200	3.631900	-10.954000	24.898873	0.001011	20.709085
791.234775	-2.994900	3.633000	-10.880000	24.874926	0.001016	20.676988
792.233723	-3.011000	3.632100	-10.935000	24.895339	0.001013	20.690838
793.236429	-2.996300	3.631300	-10.879000	24.925770	0.001013	20.705262
794.231030	-3.003100	3.630900	-10.903000	24.911033	0.001012	20.683355
795.240338	-2.992300	3.632300	-10.867000	24.873312	0.001012	20.709036
796.235641	-2.983100	3.631700	-10.833000	24.900492	0.001012	20.661868
797.233110	-3.014700	3.630300	-10.943000	24.888386	0.001011	20.688602
798.241696	-3.015400	3.629200	-10.943000	24.895970	0.001011	20.681039
799.240418	-2.992100	3.629500	-10.859000	24.922824	0.001010	20.694717
800.238755	-2.979200	3.629100	-10.810000	24.945750	0.001010	20.705875
801.246418	-3.021900	3.628000	-10.962000	24.967560	0.001008	20.697894
802.240282	-2.989300	3.629800	-10.849000	24.989732	0.001010	20.709244
803.239619	-3.001300	3.628600	-10.889000	24.995100	0.001008	20.694717
804.246085	-2.987300	3.627800	-10.835000	24.992394	0.001007	20.703381
805.244802	-2.989000	3.627800	-10.841000	24.980413	0.001008	20.704631
806.242779	-2.982900	3.627900	-10.820000	24.985431	0.001006	20.706824
807.241060	-2.979800	3.627800	-10.808000	24.983591	0.001006	20.704502
808.244569	-2.995200	3.626700	-10.862000	24.989216	0.001006	20.699716
809.240070	-2.970400	3.627900	-10.776000	24.997148	0.001006	20.703411
810.245164	-2.971200	3.627000	-10.776000	24.998019	0.001005	20.695750
811.248771	-3.007100	3.626400	-10.904000	25.008259	0.001006	20.699390
812.241343	-2.990600	3.626000	-10.843000	25.048317	0.001006	20.701194
813.249240	-2.993400	3.626800	-10.855000	25.049035	0.001006	20.713769
814.242159	-2.994500	3.626000	-10.856000	25.057936	0.001005	20.705160
815.246192	-3.006400	3.624400	-10.895000	25.075211	0.001007	20.700689
816.246783	-2.997200	3.625300	-10.864000	25.050550	0.001004	20.688736
817.246899	-2.991100	3.624600	-10.841000	25.031214	0.001006	20.694456
818.246074	-2.989600	3.623500	-10.831000	25.037802	0.001004	20.713399
819.252062	-2.996400	3.624000	-10.857000	25.052421	0.001004	20.703417
820.246291	-3.022700	3.623200	-10.950000	25.074296	0.001003	20.687916
821.248242	-2.990300	3.623600	-10.835000	25.105618	0.001004	20.700868
822.246364	-3.001300	3.622100	-10.869000	25.127222	0.001002	20.709754
823.244354	-3.014200	3.622000	-10.917000	25.158297	0.001002	20.709181
824.245749	-3.030400	3.621900	-10.973000	25.159910	0.001003	20.705585
825.250998	-3.023600	3.620000	-10.945000	25.167320	0.001002	20.724878
826.249724	-3.013000	3.621300	-10.909000	25.192819	0.001001	20.711596
827.246860	-3.005500	3.621000	-10.882000	25.168879	0.001003	20.711270
828.247917	-3.014100	3.620400	-10.911000	25.170241	0.001003	20.701731
829.254086	-3.010300	3.619700	-10.895000	25.137253	0.001000	20.705124
830.249734	-2.991500	3.621100	-10.832000	25.129647	0.001003	20.679943
831.249311	-3.014400	3.619300	-10.909000	25.131462	0.001000	20.715433
832.249265	-3.017700	3.619300	-10.920000	25.102842	0.001001	20.710409
833.250152	-3.026800	3.618300	-10.951000	25.075550	0.001001	20.701978
834.262530	-3.008200	3.619300	-10.886000	25.076721	0.000999	20.697463
835.254764	-3.010500	3.617500	-10.890000	25.063066	0.000997	20.706517
836.251395	-3.011000	3.618400	-10.894000	25.075268	0.000997	20.717344
837.255427	-3.017500	3.619200	-10.919000	25.081507	0.000998	20.715546
838.254279	-3.019700	3.615900	-10.918000	25.069133	0.000997	20.730152
839.248178	-2.996800	3.618500	-10.843000	25.115270	0.000997	20.706764
840.254282	-2.990900	3.618500	-10.821000	25.144480	0.000993	20.700999
841.252748	-3.008100	3.618000	-10.881000	25.147093	0.000997	20.722116
842.250661	-3.015500	3.616200	-10.904000	25.165832	0.000997	20.706788
843.254366	-2.986700	3.618100	-10.806000	25.195267	0.000995	20.723538
844.256995	-3.000800	3.615900	-10.848000	25.205535	0.000995	20.703025
845.249350	-3.035600	3.614900	-10.970000	25.220520	0.000993	20.707638
846.256209	-2.985800	3.616500	-10.796000	25.232179	0.000994	20.701325
847.262183	-3.011200	3.613600	-10.880000	25.230315	0.000994	20.709886
848.253366	-3.005600	3.613800	-10.861000	25.227107	0.000993	20.697181
849.254265	-3.003700	3.613700	-10.854000	25.215177	0.000994	20.707016
850.256970	-3.027400	3.613300	-10.937000	25.225071	0.000992	20.714104
851.253777	-3.007200	3.613100	-10.864000	25.258056	0.000992	20.710236
852.252140	-2.985900	3.613000	-10.786000	25.266085	0.000992	20.707865
853.255470	-3.012200	3.611600	-10.878000	25.255921	0.000991	20.713783
854.253679	-2.977800	3.613900	-10.760000	25.221421	0.000991	20.705223
855.265412	-2.991400	3.614200	-10.810000	25.219384	0.000990	20.705549
856.255305	-3.013900	3.612000	-10.885000	25.219310	0.000991	20.720649
857.256194	-3.011600	3.612800	-10.879000	25.256290	0.000990	20.704195
858.261923	-2.994700	3.612300	-10.815000	25.259901	0.000988	20.700709
859.261274	-3.001300	3.612000	-10.839000	25.269494	0.000990	20.721247
860.255995	-3.024600	3.610600	-10.919000	25.298425	0.000989	20.727535
861.256041	-3.004300	3.610300	-10.844000	25.284538	0.000988	20.728765
862.260984	-3.005500	3.610100	-10.850000	25.295228	0.000990	20.722428
863.255274	-3.021500	3.609400	-10.905000	25.310738	0.000987	20.731838
864.264723	-3.021700	3.609100	-10.902000	25.329156	0.000987	20.713819
865.260109	-2.999300	3.610300	-10.827000	25.330725	0.000987	20.708756
866.264927	-2.991700	3.609300	-10.797000	25.365542	0.000985	20.703885
867.261829	-3.017700	3.609300	-10.890000	25.377342	0.000986	20.738495
868.260466	-2.974500	3.610100	-10.737000	25.351965	0.000988	20.732929
869.263655	-2.985800	3.609300	-10.775000	25.333744	0.000987	20.732652
870.260280	-3.017000	3.607300	-10.882000	25.313910	0.000986	20.753990
871.268281	-3.035500	3.605700	-10.943000	25.303423	0.000984	20.740614
872.263871	-3.005900	3.607100	-10.841000	25.283834	0.000984	20.744180
873.260693	-3.002100	3.606900	-10.826000	25.263005	0.000984	20.720896
874.259464	-2.996400	3.608100	-10.809000	25.246195	0.000983	20.735788
875.259637	-3.001300	3.607000	-10.824000	25.231574	0.000981	20.734858
876.274342	-3.019400	3.605600	-10.884000	25.233419	0.000983	20.750936
877.269568	-2.999400	3.606200	-10.816000	25.211738	0.000983	20.729642
878.271296	-3.011900	3.605400	-10.858000	25.207880	0.000981	20.723873
879.264786	-3.007000	3.604100	-10.836000	25.171759	0.000982	20.734552
880.262533	-3.007000	3.604600	-10.837000	25.147996	0.000979	20.722075
881.263288	-2.996300	3.604700	-10.799000	25.143052	0.000979	20.733707
882.262887	-2.990900	3.605900	-10.784000	25.153438	0.000981	20.726589
883.267639	-3.007200	3.602500	-10.832000	25.143942	0.000979	20.742188
884.265084	-2.974200	3.606200	-10.723000	25.145752	0.000980	20.721244
885.266138	-2.987000	3.603500	-10.761000	25.183561	0.000977	20.716053
886.281475	-3.012100	3.602900	-10.851000	25.200141	0.000977	20.718948
887.273234	-2.997700	3.602400	-10.797000	25.235931	0.000977	20.724534
888.267294	-3.003500	3.603700	-10.823000	25.254177	0.000979	20.711084
889.265209	-3.003700	3.603200	-10.822000	25.270750	0.000976	20.747640
890.264616	-3.027700	3.600400	-10.897000	25.318822	0.000978	20.737583
891.272198	-3.000000	3.603000	-10.808000	25.313411	0.000976	20.749221
892.266698	-2.989300	3.601900	-10.766000	25.369964	0.000976	20.757641
893.268628	-2.988400	3.602200	-10.763000	25.373073	0.000977	20.753650
894.262789	-3.000900	3.602600	-10.809000	25.355852	0.000976	20.724504
895.273671	-3.017100	3.599500	-10.858000	25.338434	0.000976	20.747793
896.276387	-3.000700	3.600400	-10.802000	25.307714	0.000975	20.752036
897.264799	-2.981700	3.600200	-10.733000	25.335920	0.000973	20.722508
898.270396	-3.020500	3.598500	-10.868000	25.320656	0.000975	20.725674
899.266143	-2.997500	3.599200	-10.788000	25.324557	0.000972	20.728642
900.267387	-2.992500	3.599400	-10.771000	25.325078	0.000974	20.739598
901.270591	-3.004300	3.599600	-10.812000	25.329077	0.000975	20.752148
902.267215	-2.983800	3.599800	-10.740000	25.360023	0.000974	20.753349
903.268388	-2.974700	3.599500	-10.706000	25.330740	0.000970	20.752869
904.268306	-3.003000	3.598200	-10.804000	25.331709	0.000970	20.724918
905.266324	-2.985200	3.598400	-10.740000	25.291047	0.000970	20.745258
906.270866	-2.992200	3.597300	-10.763000	25.266066	0.000971	20.752894
907.267922	-2.989700	3.596600	-10.752000	25.265367	0.000969	20.741286
908.274403	-2.987300	3.597200	-10.744000	25.271133	0.000969	20.753714
909.268300	-3.006900	3.595200	-10.809000	25.302252	0.000969	20.744181
910.270559	-2.994300	3.596300	-10.767000	25.307723	0.000967	20.748725
911.277428	-2.986900	3.595700	-10.738000	25.333145	0.000969	20.755284
912.270998	-2.996500	3.596100	-10.775000	25.379270	0.000967	20.751812
913.272547	-3.006200	3.595800	-10.808000	25.379895	0.000968	20.745327
914.267357	-3.009900	3.594400	-10.817000	25.363220	0.000969	20.751817
915.270936	-2.969100	3.596000	-10.676000	25.345354	0.000967	20.759957
916.268426	-2.983200	3.594800	-10.724000	25.304564	0.000967	20.736071
917.277230	-3.016600	3.592800	-10.837000	25.301878	0.000965	20.755660
918.275342	-3.008000	3.592100	-10.804000	25.285699	0.000966	20.758856
919.274566	-3.004200	3.592800	-10.792000	25.305760	0.000964	20.788007
920.270738	-3.022500	3.591500	-10.855000	25.318161	0.000964	20.771060
921.268118	-3.001400	3.592500	-10.780000	25.323129	0.000967	20.758979
922.271262	-3.012100	3.590500	-10.813000	25.322037	0.000964	20.762624
923.274619	-3.006800	3.591100	-10.797000	25.320080	0.000961	20.753072
924.273733	-2.994200	3.591600	-10.753000	25.361257	0.000965	20.765494
925.271818	-3.011300	3.590900	-10.812000	25.368886	0.000962	20.772206
926.271087	-3.032700	3.589100	-10.883000	25.367598	0.000962	20.761903
927.272028	-2.990800	3.590200	-10.736000	25.390491	0.000961	20.787261
928.269442	-2.976400	3.591400	-10.687000	25.383880	0.000960	20.765450
929.272090	-3.000100	3.590900	-10.772000	25.402173	0.000960	20.761059
930.269203	-3.003000	3.589900	-10.780000	25.430333	0.000958	20.763731
931.274103	-2.995100	3.588400	-10.747000	25.441439	0.000959	20.782945
932.272591	-2.988300	3.590300	-10.728000	25.482578	0.000958	20.763090
933.270201	-2.981900	3.589100	-10.700000	25.496762	0.000956	20.772592
934.271514	-2.997200	3.587600	-10.752000	25.472657	0.000958	20.769249
935.275084	-2.995300	3.588100	-10.746000	25.485706	0.000959	20.764808
936.277527	-3.015000	3.587400	-10.816000	25.519750	0.000956	20.771022
937.275408	-2.999200	3.588200	-10.760000	25.533374	0.000957	20.761470
938.282546	-2.996600	3.587400	-10.749000	25.558742	0.000955	20.771299
939.273159	-2.999800	3.586200	-10.756000	25.585186	0.000956	20.771778
940.276754	-3.006800	3.586300	-10.781000	25.557546	0.000954	20.757296
941.275989	-3.004100	3.585300	-10.769000	25.547342	0.000954	20.761747
942.278405	-2.980800	3.586100	-10.688000	25.552339	0.000955	20.794266
943.279119	-2.984400	3.585700	-10.701000	25.556392	0.000951	20.788853
944.275394	-3.007000	3.584400	-10.778000	25.538598	0.000953	20.778570
945.276144	-2.991400	3.584800	-10.721000	25.578557	0.000955	20.786458
946.285388	-3.009800	3.584900	-10.789000	25.581881	0.000951	20.763243
947.276219	-3.005000	3.584300	-10.770000	25.574928	0.000953	20.757682
948.272517	-2.990500	3.583300	-10.715000	25.553283	0.000949	20.784309
949.275314	-3.010200	3.582800	-10.783000	25.536911	0.000950	20.767393
950.272403	-2.986600	3.584300	-10.704000	25.532962	0.000950	20.778126
951.280420	-3.013400	3.582500	-10.795000	25.523396	0.000950	20.768519
952.273416	-2.995700	3.581900	-10.729000	25.541726	0.000949	20.776495
953.277420	-3.001700	3.582800	-10.754000	25.593046	0.000950	20.768766
954.276950	-3.006400	3.581900	-10.767000	25.582463	0.000950	20.784216
955.278289	-3.006300	3.583000	-10.770000	25.578784	0.000950	20.768667
956.279405	-3.020800	3.580500	-10.815000	25.603825	0.000946	20.791920
957.276391	-2.996500	3.583300	-10.735000	25.592426	0.000947	20.769092
958.277752	-3.007500	3.580600	-10.767000	25.598981	0.000947	20.783262
959.274582	-3.008300	3.580400	-10.769000	25.582482	0.000946	20.777597
960.276968	-2.993700	3.580100	-10.716000	25.583224	0.000944	20.787826
961.277826	-2.994800	3.579400	-10.718000	25.574057	0.000946	20.804224
962.275084	-3.002800	3.578900	-10.745000	25.568116	0.000946	20.807740
963.273345	-2.980400	3.579200	-10.666000	25.534791	0.000945	20.789446
964.278251	-3.014500	3.577600	-10.784000	25.552358	0.000945	20.786225
965.277310	-3.015600	3.576700	-10.784000	25.531112	0.000944	20.778639
966.278144	-3.002700	3.577700	-10.741000	25.541273	0.000943	20.785049
967.278384	-3.023900	3.576400	-10.814000	25.540083	0.000943	20.781484
968.280445	-3.022900	3.575900	-10.808000	25.545847	0.000942	20.783953
969.281705	-3.021200	3.575500	-10.800000	25.587842	0.000942	20.774919
970.277205	-3.017300	3.576300	-10.790000	25.552776	0.000941	20.770049
971.277284	-3.007100	3.575700	-10.751000	25.529469	0.000940	20.787420
972.275427	-2.985400	3.577800	-10.680000	25.521890	0.000939	20.813948
973.278768	-2.991300	3.576600	-10.697000	25.511877	0.000940	20.786348
974.275654	-2.990500	3.574500	-10.688000	25.547612	0.000939	20.807063
975.279698	-3.018900	3.572900	-10.785000	25.554271	0.000939	20.771077
976.278509	-3.005800	3.574300	-10.742000	25.497687	0.000937	20.799600
977.281144	-2.994400	3.574900	-10.704000	25.490280	0.000936	20.778411
978.279978	-2.998800	3.573700	-10.716000	25.472141	0.000937	20.796232
979.278967	-3.016100	3.572800	-10.774000	25.453328	0.000937	20.813849
980.278977	-3.012400	3.572900	-10.761000	25.437022	0.000937	20.799847
981.276183	-3.004300	3.571600	-10.730000	25.443019	0.000936	20.806816
982.280684	-2.998700	3.572800	-10.712000	25.468615	0.000935	20.805967
983.282255	-3.002300	3.573200	-10.726000	25.485092	0.000934	20.813030
984.281403	-3.007800	3.571400	-10.741000	25.510888	0.000936	20.814279
985.281967	-2.990500	3.571500	-10.680000	25.524526	0.000935	20.790517
986.279440	-3.003700	3.571700	-10.727000	25.522226	0.000932	20.825190
987.281576	-3.019100	3.570300	-10.776000	25.515162	0.000932	20.800080
988.280789	-3.000400	3.570500	-10.712000	25.487611	0.000933	20.774308
989.280914	-2.984700	3.572300	-10.662000	25.468344	0.000932	20.804273
990.278580	-2.992400	3.570800	-10.684000	25.463033	0.000932	20.797517
991.279752	-2.967800	3.570300	-10.594000	25.470091	0.000931	20.801285
992.283643	-3.006600	3.568300	-10.727000	25.514125	0.000929	20.803305
993.281706	-3.017900	3.568300	-10.767000	25.537536	0.000931	20.799315
994.282576	-3.003500	3.568400	-10.716000	25.582291	0.000930	20.831458
995.284935	-3.001800	3.569200	-10.713000	25.601304	0.000929	20.793181
996.281693	-3.003700	3.567700	-10.716000	25.626448	0.000928	20.808477
997.283522	-2.987000	3.568000	-10.655000	25.653584	0.000926	20.814869
998.282227	-3.005700	3.569200	-10.726000	25.616583	0.000928	20.815165
999.282792	-3.018300	3.566600	-10.764000	25.624093	0.000925	20.816069
1000.283074	-3.007700	3.567200	-10.727000	25.615276	0.000925	20.820016
1001.286689	-3.009000	3.567400	-10.732000	25.606325	0.000926	20.810078
1002.284801	-3.028400	3.565500	-10.796000	25.598624	0.000925	20.825102
1003.288166	-2.969600	3.566500	-10.590000	25.572883	0.000924	20.821062
1004.288120	-2.981800	3.565900	-10.630000	25.589954	0.000926	20.792688
1005.284021	-3.006000	3.564500	-10.714000	25.601707	0.000925	20.818716
1006.293839	-3.005500	3.564600	-10.712000	25.610034	0.000922	20.824708
1007.287581	-2.999800	3.564200	-10.690000	25.617789	0.000921	20.806419
1008.294455	-3.007200	3.565600	-10.721000	25.645368	0.000922	20.810883
1009.286911	-2.998800	3.563400	-10.684000	25.649346	0.000923	20.819621
1010.286640	-2.991500	3.564100	-10.662000	25.672552	0.000922	20.830600
1011.287044	-2.983400	3.564200	-10.632000	25.661119	0.000923	20.828599
1012.289119	-3.003300	3.563100	-10.701000	25.679860	0.000921	20.810439
1013.294149	-2.998000	3.563800	-10.683000	25.677942	0.000922	20.823685
1014.290022	-3.013300	3.561400	-10.729000	25.664871	0.000920	20.830945
1015.291546	-2.997700	3.561300	-10.675000	25.653418	0.000919	20.821339
1016.290812	-2.972300	3.562000	-10.586000	25.644650	0.000919	20.835292
1017.287149	-2.995700	3.561400	-10.667000	25.649868	0.000918	20.792169
1018.291795	-2.991800	3.562100	-10.656000	25.649218	0.000916	20.846992
1019.288168	-2.986900	3.560300	-10.633000	25.633920	0.000918	20.824516
1020.290831	-2.996100	3.561200	-10.669000	25.617642	0.000915	20.828556
1021.292564	-3.020400	3.559800	-10.751000	25.612866	0.000917	20.822337
1022.288061	-2.984600	3.560100	-10.624000	25.618856	0.000914	20.824560
1023.291070	-3.001900	3.559900	-10.685000	25.587072	0.000914	20.822984
1024.292820	-3.015300	3.558200	-10.728000	25.570553	0.000912	20.825360
1025.296140	-3.011700	3.559000	-10.718000	25.531483	0.000913	20.841124
1026.293835	-3.013200	3.557700	-10.719000	25.540950	0.000916	20.806537
1027.294972	-2.982400	3.559600	-10.614000	25.573050	0.000911	20.827868
1028.290531	-2.981000	3.558300	-10.606000	25.579941	0.000911	20.811081
1029.295222	-3.001500	3.556700	-10.675000	25.604063	0.000913	20.830090
1030.294888	-3.013600	3.557600	-10.720000	25.624934	0.000913	20.840620
1031.295424	-3.016500	3.556700	-10.727000	25.638404	0.000909	20.826174
1032.298263	-3.013600	3.556700	-10.718000	25.648421	0.000910	20.845718
1033.294800	-3.019400	3.556500	-10.738000	25.673841	0.000909	20.825256
1034.293571	-3.016400	3.556500	-10.727000	25.690713	0.000909	20.826081
1035.293623	-3.032100	3.555100	-10.778000	25.716947	0.000909	20.840576
1036.298618	-3.003400	3.554300	-10.674000	25.720625	0.000908	20.809658
1037.293699	-3.005500	3.555600	-10.685000	25.727234	0.000907	20.830995
1038.300436	-2.996500	3.555500	-10.652000	25.739281	0.000906	20.806586
1039.296596	-2.978200	3.556200	-10.590000	25.706408	0.000907	20.806759
1040.297106	-2.988500	3.554900	-10.623000	25.708897	0.000905	20.811629
1041.295598	-3.004900	3.553700	-10.678000	25.687831	0.000904	20.837411
1042.299980	-2.998100	3.552800	-10.650000	25.694814	0.000905	20.814553
1043.296155	-2.984400	3.552800	-10.602000	25.741120	0.000904	20.831192
1044.297882	-3.001800	3.553300	-10.666000	25.748752	0.000901	20.826530
1045.300034	-3.017200	3.552600	-10.718000	25.760278	0.000901	20.813452
1046.298142	-3.011100	3.552100	-10.695000	25.748826	0.000901	20.819966
1047.303469	-3.003800	3.551000	-10.665000	25.762239	0.000901	20.812103
1048.302500	-3.016700	3.550800	-10.710000	25.728950	0.000900	20.818969
1049.298793	-3.017600	3.551400	-10.716000	25.720385	0.000901	20.822219
1050.300748	-3.019300	3.549700	-10.717000	25.723886	0.000898	20.804399
1051.309618	-3.003100	3.550500	-10.661000	25.722892	0.000899	20.809565
1052.312310	-3.022700	3.548800	-10.725000	25.740683	0.000900	20.813210
1053.301955	-2.987500	3.548500	-10.600000	25.783792	0.000896	20.820002
1054.304054	-3.010600	3.548300	-10.681000	25.803667	0.000898	20.804878
1055.300535	-3.002600	3.548000	-10.652000	25.788586	0.000895	20.797791
1056.302342	-3.014800	3.547600	-10.693000	25.765186	0.000895	20.812692
1057.304162	-3.009400	3.547100	-10.673000	25.739071	0.000896	20.796892
1058.299474	-2.990500	3.547700	-10.608000	25.672686	0.000894	20.808924
1059.301980	-2.999800	3.546400	-10.637000	25.632342	0.000893	20.803017
1060.304564	-3.007000	3.546900	-10.664000	25.640816	0.000893	20.795880
1061.305162	-3.013700	3.545500	-10.684000	25.642257	0.000893	20.784999
1062.303678	-3.000300	3.545900	-10.638000	25.623973	0.000891	20.801249
1063.302190	-2.992100	3.546300	-10.610000	25.620196	0.000893	20.792715
1064.302575	-2.989100	3.545000	-10.595000	25.633912	0.000893	20.802222
1065.303624	-3.008100	3.546300	-10.665000	25.675933	0.000893	20.801754
1066.306438	-2.999800	3.545200	-10.633000	25.686810	0.000889	20.788497
1067.306406	-2.985900	3.543800	-10.579000	25.735070	0.000892	20.812788
1068.305156	-3.007000	3.543300	-10.654000	25.741403	0.000891	20.785484
1069.309589	-3.038300	3.542300	-10.761000	25.748735	0.000889	20.767718
1070.305368	-2.980700	3.544100	-10.563000	25.762872	0.000890	20.790453
1071.310008	-3.004700	3.543000	-10.646000	25.754877	0.000890	20.789061
1072.309998	-3.019400	3.542100	-10.694000	25.779153	0.000888	20.782626
1073.306606	-3.008400	3.542100	-10.655000	25.784769	0.000888	20.775464
1074.308856	-2.981600	3.543200	-10.564000	25.781066	0.000887	20.788814
1075.318263	-3.006200	3.541800	-10.647000	25.765391	0.000887	20.767379
1076.313367	-3.040600	3.540200	-10.763000	25.767505	0.000887	20.787047
1077.317166	-2.995800	3.541600	-10.609000	25.744271	0.000884	20.784572
1078.312006	-3.006300	3.542400	-10.649000	25.680125	0.000885	20.791739
1079.310007	-3.002200	3.541900	-10.632000	25.635906	0.000884	20.766767
1080.313540	-3.000300	3.540200	-10.621000	25.618340	0.000883	20.782790
1081.318681	-2.992300	3.541600	-10.595000	25.591596	0.000883	20.781061
1082.315027	-3.010200	3.538800	-10.652000	25.626532	0.000883	20.798604
1083.310251	-2.998100	3.538800	-10.609000	25.653172	0.000882	20.778419
1084.312023	-3.011100	3.539100	-10.655000	25.675611	0.000880	20.776300
1085.313941	-2.984700	3.539800	-10.564000	25.735692	0.000880	20.787334
1086.311466	-3.015200	3.538300	-10.667000	25.729801	0.000880	20.783788
1087.318323	-3.014900	3.536300	-10.660000	25.765180	0.000879	20.775228
1088.311063	-2.994800	3.537600	-10.593000	25.764586	0.000881	20.767518
1089.313345	-3.005500	3.535900	-10.625000	25.799443	0.000879	20.781195
1090.317064	-2.991500	3.537400	-10.581000	25.823565	0.000879	20.770339
1091.315054	-3.000800	3.535700	-10.608000	25.850243	0.000877	20.785758
1092.316010	-2.999300	3.534400	-10.599000	25.838522	0.000877	20.764501
1093.316052	-2.984900	3.537700	-10.558000	25.817833	0.000874	20.756993
1094.312102	-3.002000	3.534600	-10.609000	25.798076	0.000878	20.770339
1095.310891	-2.979000	3.535400	-10.532000	25.791694	0.000876	20.774359
1096.317111	-3.016000	3.534800	-10.659000	25.756512	0.000876	20.757986
1097.311833	-2.994500	3.534900	-10.584000	25.748064	0.000874	20.758983
1098.312303	-2.994500	3.534600	-10.583000	25.699029	0.000873	20.775165
1099.316747	-2.990800	3.533700	-10.568000	25.662251	0.000873	20.767622
1100.315590	-2.998600	3.532300	-10.591000	25.688221	0.000874	20.756722
1101.311263	-2.995400	3.532900	-10.582000	25.687970	0.000871	20.765953
1102.316563	-3.019600	3.531300	-10.662000	25.749240	0.000873	20.747836
1103.314447	-2.997800	3.532000	-10.587000	25.771396	0.000871	20.756341
1104.312404	-2.996000	3.532200	-10.580000	25.782583	0.000873	20.755724
1105.323656	-2.972900	3.531700	-10.497000	25.796867	0.000871	20.785246
1106.312648	-2.984300	3.531500	-10.539000	25.777735	0.000872	20.750854
1107.316869	-3.027500	3.530700	-10.686000	25.732271	0.000869	20.757818
1108.319279	-3.003400	3.530100	-10.602000	25.678779	0.000869	20.751506
1109.314721	-3.002900	3.531400	-10.603000	25.664090	0.000867	20.764728
1110.318933	-3.001200	3.529500	-10.592000	25.661208	0.000869	20.762782
1111.320279	-3.010600	3.528000	-10.620000	25.694854	0.000868	20.762437
1112.321481	-2.993300	3.528600	-10.560000	25.730199	0.000867	20.768066
1113.317606	-2.997200	3.529300	-10.577000	25.758749	0.000867	20.768294
1114.318305	-2.998600	3.527700	-10.577000	25.768539	0.000869	20.746359
1115.320467	-2.981900	3.528700	-10.521000	25.802348	0.000866	20.759932
1116.323855	-3.006500	3.527500	-10.603000	25.765107	0.000865	20.778473
1117.319712	-2.973800	3.528300	-10.490000	25.737556	0.000865	20.755067
1118.332842	-3.001400	3.526800	-10.584000	25.735545	0.000866	20.761107
1119.319634	-2.992000	3.525800	-10.549000	25.745158	0.000864	20.763651
1120.328841	-3.020300	3.524100	-10.642000	25.763268	0.000863	20.766669
1121.321204	-3.001900	3.526600	-10.585000	25.757609	0.000863	20.752449
1122.321973	-3.011100	3.525900	-10.616000	25.791811	0.000862	20.752666
1123.327595	-3.015500	3.524100	-10.626000	25.748487	0.000863	20.751347
1124.323329	-2.993400	3.524900	-10.551000	25.728887	0.000859	20.742091
1125.322964	-3.011900	3.523800	-10.613000	25.733485	0.000860	20.743865
1126.332463	-3.007300	3.523400	-10.595000	25.722829	0.000860	20.754499
1127.324356	-3.016500	3.523300	-10.628000	25.740620	0.000858	20.757196
1128.321883	-3.023200	3.522600	-10.648000	25.774504	0.000859	20.757092
1129.325217	-3.006600	3.523300	-10.592000	25.777631	0.000858	20.746482
1130.324754	-3.018600	3.521600	-10.630000	25.779047	0.000857	20.735102
1131.324816	-3.007500	3.521900	-10.590000	25.807552	0.000856	20.736234
1132.329557	-2.986800	3.523600	-10.522000	25.862202	0.000855	20.756993
1133.326634	-2.991900	3.522400	-10.538000	25.876563	0.000855	20.733013
1134.322382	-2.981300	3.522100	-10.500000	25.877709	0.000853	20.749338
1135.333522	-2.975900	3.521600	-10.478000	25.888418	0.000854	20.747293
1136.326969	-2.978200	3.521300	-10.486000	25.909682	0.000852	20.750637
1137.324058	-2.990300	3.519700	-10.524000	25.916437	0.000854	20.759320
1138.330041	-3.001200	3.521300	-10.567000	25.920193	0.000852	20.737963
1139.330509	-2.992100	3.518900	-10.527000	25.926648	0.000852	20.744448
1140.327649	-3.006400	3.519600	-10.580000	25.912838	0.000852	20.763292
1141.332197	-2.985500	3.520000	-10.508000	25.957945	0.000851	20.736535
1142.333302	-3.001500	3.518500	-10.559000	25.952778	0.000850	20.738457
1143.332644	-2.970400	3.520600	-10.456000	25.948255	0.000851	20.729645
1144.330101	-3.000200	3.518200	-10.554000	25.967581	0.000851	20.757122
1145.334138	-2.973100	3.517800	-10.458000	25.953570	0.000850	20.734036
1146.330450	-3.011500	3.515900	-10.586000	25.909376	0.000849	20.725673
1147.334834	-3.000900	3.516200	-10.549000	25.890393	0.000850	20.743588
1148.339139	-2.987600	3.515000	-10.500000	25.861833	0.000849	20.744769
1149.333348	-2.999300	3.514700	-10.539000	25.854049	0.000848	20.743588
1150.340905	-3.015000	3.514500	-10.595000	25.890418	0.000848	20.725594
1151.334743	-2.987300	3.514300	-10.498000	25.857083	0.000847	20.737626
1152.335532	-3.001200	3.514900	-10.549000	25.837584	0.000848	20.725624
1153.341286	-2.998000	3.514300	-10.535000	25.846424	0.000847	20.720279
1154.332655	-2.987700	3.515800	-10.503000	25.863937	0.000846	20.735502
1155.333805	-3.031200	3.512100	-10.644000	25.889375	0.000844	20.731185
1156.339680	-3.006500	3.512100	-10.557000	25.883957	0.000844	20.728587
1157.339209	-2.987500	3.512600	-10.493000	25.853872	0.000844	20.728710
1158.336664	-2.996700	3.512700	-10.526000	25.840066	0.000844	20.720531
1159.341458	-2.999700	3.511700	-10.532000	25.853607	0.000844	20.728444
1160.340090	-2.998900	3.510900	-10.527000	25.887212	0.000840	20.724744
1161.344226	-3.006200	3.510500	-10.553000	25.930315	0.000839	20.721578
1162.341424	-2.990400	3.510800	-10.496000	25.921402	0.000840	20.729694
1163.341776	-3.025000	3.509700	-10.616000	25.941893	0.000838	20.731314
1164.335878	-2.998900	3.511100	-10.527000	25.931314	0.000837	20.711201
1165.343243	-2.992800	3.510900	-10.507000	25.924332	0.000839	20.735957
1166.340261	-3.012200	3.509100	-10.569000	25.891795	0.000837	20.728874
1167.341046	-3.011200	3.509300	-10.567000	25.891293	0.000838	20.722680
1168.342061	-2.990600	3.509500	-10.494000	25.895921	0.000834	20.729225
1169.344358	-3.017100	3.507300	-10.581000	25.877728	0.000835	20.748883
1170.339336	-3.013900	3.508900	-10.574000	25.871666	0.000835	20.732361
1171.345750	-2.995700	3.508000	-10.507000	25.907144	0.000836	20.723905
1172.345037	-2.987300	3.507900	-10.478000	25.911668	0.000834	20.730821
1173.350446	-2.991400	3.507000	-10.489000	25.892439	0.000834	20.733789
1174.347126	-2.978600	3.506700	-10.444000	25.892660	0.000833	20.701292
1175.347191	-2.985200	3.506700	-10.466000	25.881332	0.000834	20.708405
1176.342812	-2.975600	3.506400	-10.433000	25.923443	0.000833	20.708035
1177.346120	-2.994300	3.505200	-10.494000	25.916560	0.000832	20.717716
1178.347720	-2.967300	3.505400	-10.400000	25.959681	0.000833	20.725950
1179.341137	-2.990600	3.506800	-10.485000	25.987899	0.000832	20.715419
1180.348152	-2.999600	3.504900	-10.512000	26.018128	0.000831	20.717341
1181.363266	-2.995200	3.504200	-10.494000	25.988573	0.000830	20.717045
1182.349559	-3.026500	3.501600	-10.596000	25.948452	0.000830	20.723678
1183.351638	-2.996500	3.504000	-10.499000	25.897129	0.000830	20.729965
1184.346891	-2.997600	3.503400	-10.501000	25.888677	0.000829	20.713887
1185.345279	-2.998000	3.501800	-10.497000	25.915733	0.000828	20.720679
1186.350221	-3.007400	3.501600	-10.530000	25.922911	0.000827	20.707975
1187.345355	-2.967800	3.501700	-10.390000	25.934263	0.000827	20.699464
1188.347310	-3.000000	3.499600	-10.498000	25.922881	0.000826	20.695141
1189.351828	-2.997000	3.499800	-10.487000	25.898883	0.000825	20.706122
1190.346411	-2.993600	3.501200	-10.479000	25.900643	0.000825	20.724960
1191.349003	-3.005400	3.499300	-10.516000	25.877810	0.000826	20.730947
1192.353029	-3.011500	3.499100	-10.536000	25.903789	0.000825	20.716740
1193.350177	-2.980200	3.500100	-10.430000	25.902569	0.000824	20.705083
1194.347805	-3.016600	3.499500	-10.556000	25.930441	0.000823	20.714591
1195.350368	-3.017700	3.497800	-10.554000	25.924649	0.000822	20.709247
1196.348565	-3.007800	3.496600	-10.516000	25.894191	0.000820	20.697140
1197.349621	-3.017400	3.496800	-10.549000	25.900671	0.000822	20.714082
1198.348387	-2.989500	3.497600	-10.455000	25.876624	0.000821	20.721219
1199.346691	-2.991100	3.496900	-10.457000	25.806540	0.000821	20.710085
1200.352430	-2.988000	3.498000	-10.451000	25.817735	0.000820	20.706632
1201.350866	-3.010600	3.494600	-10.520000	25.774234	0.000818	20.697074
1202.348352	-2.999600	3.496000	-10.485000	25.764242	0.000819	20.733033
1203.353433	-3.036500	3.494200	-10.609000	25.778379	0.000819	20.718308
1204.349706	-3.011700	3.495500	-10.525000	25.756236	0.000819	20.720249
1205.348458	-3.028900	3.493600	-10.581000	25.753625	0.000817	20.715729
1206.361602	-3.004500	3.494200	-10.497000	25.764998	0.000816	20.687796
1207.353210	-2.991200	3.494600	-10.452000	25.759009	0.000817	20.711179
1208.350991	-2.994900	3.493800	-10.463000	25.807353	0.000817	20.698099
1209.352103	-3.005800	3.492800	-10.497000	25.768665	0.000814	20.712344
1210.354732	-2.995900	3.493300	-10.464000	25.758870	0.000815	20.703927
1211.354008	-2.975100	3.493800	-10.392000	25.736034	0.000815	20.702800
1212.354429	-2.982600	3.492300	-10.415000	25.728230	0.000814	20.708239
1213.352115	-3.013500	3.490000	-10.516000	25.758510	0.000812	20.700246
1214.352560	-3.014300	3.488600	-10.515000	25.805364	0.000813	20.726450
1215.352292	-2.996800	3.491900	-10.463000	25.826955	0.000812	20.700720
1216.353910	-3.001900	3.491300	-10.479000	25.784142	0.000811	20.693276
1217.353730	-2.998300	3.490400	-10.464000	25.777160	0.000810	20.689581
1218.356996	-2.996500	3.489800	-10.457000	25.800107	0.000810	20.692243
1219.357619	-2.997500	3.488700	-10.456000	25.826142	0.000810	20.708439
1220.356422	-3.014000	3.489400	-10.516000	25.873111	0.000809	20.689713
1221.353785	-3.010500	3.488100	-10.499000	25.866724	0.000808	20.711273
1222.362668	-2.996800	3.489200	-10.456000	25.904434	0.000808	20.702215
1223.354213	-3.003100	3.487100	-10.471000	25.930161	0.000809	20.690127
1224.353456	-2.994300	3.487200	-10.441000	25.909247	0.000807	20.702782
1225.354888	-3.029500	3.486700	-10.562000	25.909492	0.000806	20.722470
1226.357400	-3.003400	3.486400	-10.469000	25.861589	0.000806	20.712754
1227.356122	-2.998800	3.486400	-10.454000	25.844887	0.000805	20.688387
1228.354682	-3.014800	3.485500	-10.508000	25.841258	0.000804	20.700864
1229.356115	-2.986300	3.486000	-10.409000	25.874942	0.000803	20.703408
1230.356164	-3.005900	3.486700	-10.480000	25.892401	0.000804	20.705773
1231.353719	-3.027100	3.484300	-10.545000	25.869371	0.000805	20.712511
1232.358272	-2.990300	3.484000	-10.417000	25.861140	0.000802	20.698551
1233.359797	-3.043200	3.482500	-10.597000	25.863647	0.000802	20.687318
1234.356219	-2.997200	3.483500	-10.440000	25.838528	0.000800	20.692430
1235.359697	-3.020500	3.480900	-10.513000	25.855520	0.000801	20.689111
1236.357812	-2.982700	3.483900	-10.390000	25.844383	0.000799	20.692623
1237.359247	-3.007300	3.480700	-10.466000	25.820157	0.000800	20.697211
1238.360599	-2.998500	3.482300	-10.441000	25.823732	0.000799	20.704595
1239.358407	-2.997200	3.480800	-10.431000	25.827926	0.000799	20.690315
1240.357378	-2.980300	3.481000	-10.374000	25.872142	0.000799	20.698697
1241.358971	-2.972800	3.481300	-10.349000	25.858232	0.000796	20.676662
1242.354838	-3.011000	3.478900	-10.473000	25.847420	0.000795	20.705632
1243.358408	-2.991900	3.480300	-10.412000	25.838703	0.000795	20.727222
1244.357718	-2.996200	3.478300	-10.421000	25.831519	0.000795	20.701038
1245.359764	-3.024500	3.477900	-10.518000	25.864432	0.000796	20.697116
1246.354904	-2.999400	3.479000	-10.434000	25.887235	0.000797	20.700583
1247.359207	-2.996400	3.477100	-10.418000	25.899782	0.000794	20.727415
1248.358141	-2.978000	3.477600	-10.355000	25.887087	0.000793	20.709445
1249.358217	-3.000000	3.477900	-10.433000	25.885794	0.000792	20.692023
1250.360870	-3.019600	3.476100	-10.495000	25.879757	0.000792	20.697338
1251.359212	-2.993700	3.477000	-10.408000	25.851363	0.000791	20.695841
1252.364318	-3.011100	3.475800	-10.466000	25.855139	0.000790	20.719551
1253.360682	-3.006500	3.475200	-10.447000	25.848850	0.000791	20.706120
1254.359614	-2.987900	3.476300	-10.385000	25.898985	0.000790	20.696740
1255.363419	-3.020600	3.473100	-10.489000	25.883011	0.000790	20.717679
1256.364268	-2.989700	3.474900	-10.388000	25.905863	0.000788	20.682786
1257.363693	-3.000100	3.472700	-10.418000	25.920224	0.000789	20.682040
1258.362131	-2.989700	3.474300	-10.385000	25.944595	0.000789	20.731183
1259.365870	-3.002400	3.472400	-10.425000	25.952466	0.000787	20.695466
1260.363470	-3.009200	3.472800	-10.449000	26.009449	0.000786	20.690601
1261.366054	-3.004800	3.472100	-10.431000	26.017374	0.000787	20.701408
1262.364790	-2.998500	3.472100	-10.410000	26.053540	0.000787	20.714039
1263.365233	-2.992700	3.472600	-10.391000	26.071320	0.000788	20.694918
1264.368423	-3.003200	3.471600	-10.424000	26.055949	0.000786	20.710294
1265.363967	-3.000000	3.470500	-10.411000	26.016203	0.000784	20.704974
1266.362184	-3.007900	3.469600	-10.435000	26.006549	0.000784	20.691954
1267.362714	-3.008300	3.468700	-10.433000	26.003614	0.000783	20.724095
1268.368117	-3.027800	3.467100	-10.495000	26.014572	0.000782	20.697645
1269.365187	-2.989000	3.469000	-10.367000	26.012438	0.000781	20.703562
1270.366552	-3.023600	3.468300	-10.485000	26.017310	0.000783	20.690438
1271.368958	-2.989900	3.468300	-10.369000	26.040975	0.000783	20.699991
1272.368953	-3.002200	3.467500	-10.410000	26.060777	0.000780	20.699972
1273.370568	-3.000000	3.467400	-10.400000	26.080027	0.000782	20.723108
1274.371279	-2.999600	3.466800	-10.397000	26.085965	0.000781	20.717695
1275.368205	-2.988900	3.465600	-10.356000	26.102260	0.000779	20.720792
1276.368499	-2.994300	3.466300	-10.378000	26.132461	0.000778	20.721740
1277.371460	-2.988100	3.466600	-10.357000	26.133784	0.000780	20.719750
1278.372386	-2.991100	3.465200	-10.362000	26.118787	0.000777	20.707525
1279.370649	-2.994300	3.464600	-10.373000	26.090007	0.000778	20.718437
1280.371907	-2.985000	3.465400	-10.343000	26.043975	0.000777	20.732405
1281.370210	-2.989200	3.463900	-10.353000	25.998522	0.000777	20.698590
1282.371586	-2.990100	3.462400	-10.352000	25.926564	0.000776	20.705480
1283.370691	-2.985400	3.463300	-10.337000	25.922248	0.000775	20.716792
1284.370303	-2.979800	3.463400	-10.318000	25.952508	0.000775	20.696457
1285.370164	-3.012900	3.460200	-10.425000	25.949646	0.000775	20.720136
1286.374965	-2.999100	3.462300	-10.383000	25.970271	0.000775	20.715252
1287.374890	-3.008700	3.461500	-10.413000	25.972207	0.000775	20.720517
1288.373863	-3.010500	3.459900	-10.415000	25.953801	0.000774	20.718146
1289.375111	-2.997000	3.461800	-10.374000	25.940812	0.000772	20.711735
1290.373029	-3.010900	3.462200	-10.423000	25.916172	0.000771	20.739139
1291.372958	-2.992000	3.460900	-10.353000	25.921614	0.000772	20.703827
1292.373409	-2.970200	3.461200	-10.280000	25.935700	0.000771	20.709918
1293.376204	-3.005600	3.459700	-10.397000	25.947996	0.000772	20.740290
1294.371232	-2.989100	3.458300	-10.336000	26.002344	0.000770	20.738467
1295.375094	-3.008900	3.457500	-10.402000	25.988363	0.000769	20.712565
1296.372235	-3.012300	3.457900	-10.414000	26.004212	0.000769	20.706203
1297.373918	-3.013500	3.457200	-10.417000	26.019014	0.000769	20.700686
1298.376166	-2.992300	3.457100	-10.344000	26.010967	0.000767	20.716309
1299.376714	-3.018400	3.456100	-10.431000	26.008735	0.000766	20.720232
1300.374901	-3.013200	3.456400	-10.414000	26.001381	0.000766	20.706678
1301.376190	-2.999600	3.456300	-10.365000	25.948129	0.000767	20.720983
1302.375706	-3.027200	3.455500	-10.459000	25.983452	0.000765	20.698622
1303.373791	-2.991000	3.454800	-10.333000	26.001489	0.000764	20.716271
1304.373027	-3.004300	3.455600	-10.380000	26.016690	0.000765	20.729172
1305.376273	-2.999100	3.454700	-10.360000	26.029830	0.000766	20.732892
1306.371762	-3.019000	3.454100	-10.426000	26.011823	0.000764	20.715747
1307.372918	-3.009500	3.453500	-10.392000	26.055167	0.000763	20.725631
1308.376010	-2.988800	3.453400	-10.320000	26.042498	0.000765	20.718118
1309.376427	-2.994700	3.454400	-10.344000	26.029235	0.000761	20.730872
1310.375751	-3.009700	3.451500	-10.387000	26.059866	0.000763	20.737940
1311.373230	-2.998000	3.452700	-10.350000	26.077701	0.000762	20.704649
1312.375003	-3.019200	3.450100	-10.416000	26.103729	0.000761	20.710413
1313.376739	-3.013600	3.450700	-10.398000	26.147688	0.000760	20.726135
1314.374690	-3.008100	3.449800	-10.376000	26.112425	0.000761	20.715832
1315.375653	-3.037500	3.447700	-10.472000	26.130460	0.000760	20.734903
1316.378833	-2.997300	3.449700	-10.339000	26.116947	0.000759	20.746456
1317.375589	-2.986200	3.450500	-10.302000	26.086402	0.000760	20.708650
1318.376483	-3.001100	3.449500	-10.351000	26.066686	0.000759	20.735309
1319.375495	-3.026500	3.448400	-10.435000	26.045449	0.000756	20.736731
1320.377154	-3.004500	3.447500	-10.357000	25.987874	0.000758	20.725351
1321.377389	-3.007700	3.447700	-10.368000	25.990307	0.000759	20.719735
1322.378374	-3.008200	3.447800	-10.370000	25.929651	0.000756	20.716643
1323.374779	-2.995500	3.447000	-10.324000	25.889066	0.000757	20.723761
1324.378426	-3.025500	3.446500	-10.427000	25.851606	0.000754	20.715053
1325.378976	-3.013500	3.445300	-10.381000	25.831260	0.000755	20.723539
1326.378686	-3.007600	3.446000	-10.363000	25.792230	0.000756	20.724635
1327.373743	-3.024300	3.445200	-10.418000	25.785449	0.000755	20.719721
1328.378167	-2.995600	3.444400	-10.317000	25.834491	0.000757	20.725362
1329.378159	-2.998500	3.444900	-10.328000	25.878436	0.000754	20.726834
1330.379460	-3.007600	3.442700	-10.353000	25.922729	0.000753	20.726285
1331.383383	-2.995000	3.443900	-10.313000	25.983288	0.000752	20.719795
1332.376601	-3.006700	3.442900	-10.351000	26.024297	0.000750	20.727807
1333.379292	-3.010700	3.443200	-10.365000	26.043695	0.000750	20.725011
1334.382953	-2.982200	3.444100	-10.270000	26.067714	0.000752	20.722591
1335.382689	-2.979600	3.442000	-10.255000	25.996600	0.000752	20.735542
1336.376945	-2.992800	3.441000	-10.297000	26.015852	0.000750	20.733546
1337.377996	-3.002500	3.441300	-10.331000	26.049132	0.000749	20.721464
1338.382476	-2.992500	3.439700	-10.292000	26.053802	0.000749	20.730899
1339.376632	-2.992200	3.440100	-10.293000	26.078091	0.000749	20.731121
1340.382485	-3.002600	3.440200	-10.328000	26.093442	0.000749	20.745598
1341.379835	-2.998300	3.438800	-10.309000	26.124691	0.000747	20.739538
1342.380472	-3.018600	3.437700	-10.375000	26.126873	0.000746	20.726083
1343.384140	-3.014700	3.438500	-10.365000	26.153347	0.000747	20.728503
1344.385086	-2.993200	3.439000	-10.293000	26.147429	0.000745	20.724452
1345.383561	-3.010900	3.437000	-10.347000	26.142115	0.000743	20.734761
1346.384392	-2.998800	3.437800	-10.308000	26.144903	0.000743	20.755580
1347.384551	-3.014100	3.436000	-10.355000	26.129006	0.000744	20.738658
1348.384305	-3.014400	3.436100	-10.356000	26.122002	0.000743	20.745845
1349.387466	-3.019500	3.436300	-10.374000	26.091500	0.000744	20.758820
1350.385099	-3.002900	3.435500	-10.315000	26.067059	0.000740	20.737107
1351.381101	-3.012700	3.434700	-10.347000	26.064533	0.000741	20.728404
1352.388334	-2.992200	3.435800	-10.278000	26.033234	0.000740	20.742002
1353.384529	-3.011000	3.433700	-10.338000	26.022251	0.000741	20.750408
1354.387753	-3.005100	3.435500	-10.323000	26.037781	0.000739	20.750839
1355.386149	-2.997500	3.435000	-10.295000	26.052013	0.000738	20.733842
1356.386992	-3.020100	3.433300	-10.368000	26.078961	0.000737	20.734366
1357.382746	-3.009700	3.432500	-10.330000	26.067463	0.000737	20.738935
1358.385844	-3.012300	3.431300	-10.335000	26.036764	0.000738	20.737488
1359.384236	-2.997500	3.432400	-10.287000	26.060856	0.000737	20.722339
1360.383075	-3.014800	3.430900	-10.342000	26.098039	0.000736	20.738362
1361.388410	-2.985900	3.431900	-10.246000	26.108745	0.000737	20.725411
1362.386478	-3.011200	3.430500	-10.329000	26.145154	0.000736	20.717898
1363.385075	-3.002000	3.430600	-10.298000	26.143566	0.000733	20.752815
1364.384405	-3.006200	3.429300	-10.308000	26.129213	0.000735	20.728908
1365.388066	-3.001600	3.429600	-10.293000	26.127926	0.000733	20.737098
1366.416502	-3.013300	3.429300	-10.332000	26.107935	0.000732	20.753996
1367.388014	-3.006600	3.428100	-10.306000	26.098398	0.000734	20.743465
1368.386014	-3.033600	3.426800	-10.395000	26.120435	0.000729	20.745219
1369.385832	-3.015400	3.427800	-10.335000	26.138588	0.000733	20.758244
1370.385531	-3.004900	3.427300	-10.298000	26.159522	0.000731	20.760313
1371.388114	-3.009600	3.427300	-10.314000	26.182797	0.000731	20.720636
1372.388988	-2.999900	3.427700	-10.281000	26.200885	0.000728	20.726485
1373.388478	-3.018700	3.426000	-10.341000	26.220526	0.000730	20.744326
1374.391065	-3.008900	3.425100	-10.304000	26.237321	0.000729	20.753143
1375.386147	-2.999700	3.425300	-10.274000	26.240550	0.000728	20.758285
1376.387031	-3.023400	3.425000	-10.353000	26.224390	0.000728	20.751054
1377.387291	-3.007400	3.425300	-10.299000	26.268001	0.000729	20.759318
1378.389092	-3.006600	3.424100	-10.294000	26.259041	0.000728	20.755056
1379.393055	-3.024200	3.423200	-10.351000	26.282185	0.000731	20.738959
1380.393994	-3.005000	3.423600	-10.287000	26.260536	0.000727	20.757032
1381.391445	-3.000600	3.422400	-10.269000	26.215417	0.000726	20.740614
1382.392183	-2.993300	3.422700	-10.244000	26.175811	0.000727	20.751550
1383.390750	-3.006400	3.420900	-10.284000	26.172115	0.000727	20.756846
1384.393219	-3.001000	3.421700	-10.267000	26.152400	0.000724	20.746992
1385.392759	-2.993100	3.421400	-10.239000	26.171035	0.000723	20.757657
1386.390370	-3.001400	3.420200	-10.263000	26.139597	0.000724	20.745032
1387.393621	-2.999900	3.420200	-10.259000	26.129687	0.000723	20.752619
1388.389906	-2.963600	3.421700	-10.139000	26.116278	0.000724	20.752422
1389.393047	-2.986800	3.420700	-10.215000	26.130863	0.000723	20.749533
1390.393241	-2.975400	3.420500	-10.177000	26.180985	0.000724	20.741102
1391.394404	-3.012400	3.419600	-10.300000	26.209670	0.000723	20.762815
1392.394635	-3.007200	3.419300	-10.281000	26.256166	0.000722	20.752167
1393.392016	-2.988400	3.419100	-10.216000	26.297515	0.000721	20.750572
1394.396019	-2.997500	3.417200	-10.241000	26.300498	0.000721	20.755467
1395.393717	-3.000000	3.418400	-10.254000	26.286914	0.000719	20.737547
1396.397384	-2.984700	3.417900	-10.200000	26.302042	0.000720	20.755121
1397.390015	-2.976000	3.419300	-10.175000	26.305914	0.000718	20.751427
1398.396962	-2.994500	3.417600	-10.232000	26.355287	0.000719	20.748414
1399.396978	-2.974900	3.416700	-10.163000	26.363111	0.000719	20.769555
1400.393853	-2.983600	3.416300	-10.191000	26.389658	0.000715	20.751665
1401.397164	-3.000400	3.415700	-10.248000	26.391619	0.000717	20.753636
1402.392727	-3.012800	3.415000	-10.288000	26.410470	0.000714	20.764997
1403.394823	-3.001100	3.414400	-10.246000	26.369726	0.000715	20.782368
1404.394019	-2.997400	3.413500	-10.230000	26.361932	0.000714	20.766474
1405.397428	-2.990000	3.414500	-10.208000	26.371093	0.000716	20.764775
1406.394826	-2.981300	3.412800	-10.173000	26.365167	0.000714	20.763086
1407.397202	-3.018000	3.413200	-10.300000	26.303141	0.000711	20.768080
1408.399242	-3.006900	3.410500	-10.253000	26.271627	0.000713	20.762015
1409.396752	-2.990400	3.412500	-10.205000	26.286063	0.000711	20.762771
1410.398282	-2.992700	3.414200	-10.216000	26.281020	0.000712	20.780463
1411.392530	-2.999100	3.411800	-10.231000	26.274941	0.000713	20.780044
1412.396988	-2.999700	3.411400	-10.231000	26.328776	0.000711	20.770610
1413.398493	-3.024900	3.410000	-10.313000	26.336551	0.000709	20.774631
1414.396240	-2.996700	3.410300	-10.218000	26.312839	0.000709	20.772611
1415.398466	-2.990200	3.410300	-10.197000	26.243732	0.000708	20.786614
1416.397207	-3.000100	3.408500	-10.225000	26.217290	0.000705	20.783275
1417.398497	-3.007600	3.409100	-10.253000	26.229828	0.000706	20.769322
1418.402119	-3.003400	3.408600	-10.236000	26.254143	0.000706	20.766255
1419.400357	-3.004400	3.408200	-10.238000	26.251121	0.000707	20.775546
1420.398139	-2.990100	3.408200	-10.190000	26.200383	0.000706	20.773397
1421.397795	-3.012700	3.406700	-10.262000	26.169068	0.000705	20.760422
1422.401421	-2.975300	3.407700	-10.137000	26.133978	0.000705	20.768785
1423.398704	-2.987600	3.407000	-10.178000	26.126556	0.000704	20.785983
1424.400995	-2.981000	3.406900	-10.155000	26.125042	0.000703	20.774031
1425.403629	-3.018100	3.405700	-10.277000	26.109647	0.000704	20.767571
1426.399979	-2.990200	3.405900	-10.182000	26.162896	0.000704	20.782196
1427.396610	-2.996300	3.404800	-10.201000	26.195454	0.000701	20.796420
1428.399694	-3.009200	3.403800	-10.241000	26.210608	0.000701	20.779880
1429.397172	-3.012300	3.402600	-10.249000	26.234923	0.000701	20.786770
1430.400287	-3.012200	3.403200	-10.250000	26.256854	0.000702	20.772299
1431.401256	-3.000600	3.404000	-10.213000	26.214364	0.000699	20.799775
1432.400338	-3.012700	3.403400	-10.252000	26.179128	0.000700	20.767686
1433.399931	-3.011200	3.401600	-10.242000	26.159334	0.000700	20.781935
1434.398470	-3.006000	3.402300	-10.227000	26.161846	0.000698	20.786831
1435.401770	-3.019900	3.400800	-10.269000	26.179605	0.000698	20.789977
1436.399726	-3.001000	3.401100	-10.206000	26.192375	0.000696	20.781472
1437.400989	-3.018600	3.400000	-10.261000	26.171687	0.000696	20.791029
1438.398241	-3.005900	3.399700	-10.218000	26.201439	0.000696	20.794847
1439.400705	-3.030500	3.397300	-10.294000	26.211181	0.000697	20.797525
1440.400798	-3.009700	3.400000	-10.231000	26.190341	0.000695	20.803610
1441.404769	-3.003500	3.399000	-10.208000	26.218038	0.000694	20.793510
1442.401991	-3.014200	3.398200	-10.241000	26.243021	0.000696	20.797753
1443.404202	-3.024600	3.397000	-10.274000	26.235644	0.000694	20.779433
1444.403854	-2.996700	3.397900	-10.181000	26.224276	0.000695	20.777019
1445.406162	-2.985800	3.398200	-10.146000	26.216437	0.000693	20.804229
1446.402241	-2.982700	3.399600	-10.139000	26.225029	0.000692	20.781094
1447.406674	-2.995200	3.398000	-10.176000	26.277830	0.000692	20.795750
1448.397951	-3.011600	3.396200	-10.227000	26.270207	0.000691	20.805633
1449.399536	-2.969300	3.397500	-10.087000	26.305097	0.000690	20.794703
1450.402058	-2.969300	3.397200	-10.087000	26.333209	0.000690	20.795454
1451.399315	-2.992700	3.396000	-10.161000	26.359708	0.000689	20.781783
1452.401379	-2.984400	3.395100	-10.131000	26.360725	0.000690	20.819789
1453.400148	-2.972300	3.395300	-10.091000	26.368549	0.000689	20.790668
1454.404714	-3.003700	3.395000	-10.197000	26.404159	0.000690	20.790896
1455.404819	-2.996600	3.394300	-10.170000	26.398326	0.000690	20.794516
1456.402118	-2.995700	3.392800	-10.163000	26.392100	0.000689	20.783044
1457.404552	-2.997200	3.394000	-10.172000	26.374503	0.000686	20.806609
1458.404351	-3.001700	3.394200	-10.187000	26.342367	0.000688	20.782846
1459.404459	-2.974200	3.394400	-10.094000	26.303808	0.000686	20.794355
1460.402049	-2.992400	3.391900	-10.149000	26.290052	0.000686	20.790962
1461.404698	-2.989300	3.392900	-10.142000	26.265842	0.000684	20.791762
1462.402484	-3.000300	3.391600	-10.175000	26.280700	0.000685	20.787728
1463.406870	-3.021100	3.389900	-10.240000	26.314021	0.000684	20.794662
1464.409378	-3.002400	3.390700	-10.178000	26.315540	0.000683	20.803775
1465.406938	-3.025200	3.390000	-10.255000	26.327537	0.000682	20.803978
1466.406746	-3.010200	3.389900	-10.203000	26.303481	0.000684	20.815838
1467.406530	-3.014600	3.390300	-10.219000	26.301839	0.000682	20.819403
1468.406538	-3.000900	3.388800	-10.169000	26.332334	0.000682	20.799316
1469.407950	-3.005100	3.388700	-10.182000	26.344754	0.000683	20.805634
1470.406006	-3.008700	3.388700	-10.194000	26.361015	0.000680	20.812968
1471.403041	-2.999800	3.387700	-10.162000	26.392079	0.000679	20.789661
1472.406702	-3.012800	3.387500	-10.205000	26.372087	0.000679	20.799914
1473.404952	-2.992200	3.388900	-10.138000	26.374127	0.000679	20.807180
1474.405408	-3.002700	3.388100	-10.172000	26.348406	0.000677	20.821632
1475.407727	-3.028400	3.385000	-10.250000	26.364416	0.000679	20.788885
1476.410428	-2.990400	3.387800	-10.130000	26.370451	0.000677	20.799692
1477.407094	-3.003900	3.386100	-10.171000	26.384187	0.000677	20.826773
1478.407870	-2.993500	3.385400	-10.133000	26.399456	0.000677	20.809402
1479.408091	-3.003100	3.386600	-10.169000	26.415054	0.000675	20.813226
1480.404691	-2.990500	3.385400	-10.121000	26.415997	0.000676	20.820338
1481.408335	-3.022700	3.382700	-10.223000	26.411727	0.000674	20.802296
1482.407739	-3.008700	3.382400	-10.175000	26.434396	0.000675	20.821286
1483.409718	-2.980200	3.382600	-10.079000	26.456273	0.000675	20.820516
1484.411845	-2.999500	3.382900	-10.146000	26.480455	0.000675	20.824907
1485.405106	-2.996500	3.383100	-10.136000	26.482213	0.000672	20.827623
1486.406874	-3.004300	3.381900	-10.159000	26.449124	0.000672	20.835615
1487.412307	-2.993600	3.381800	-10.123000	26.397550	0.000672	20.825504
1488.410024	-2.995000	3.381200	-10.126000	26.363189	0.000673	20.827006
1489.407603	-2.999200	3.381600	-10.141000	26.329839	0.000672	20.828577
1490.410695	-2.995500	3.380400	-10.125000	26.329630	0.000669	20.795176
1491.407810	-2.972300	3.381500	-10.049000	26.332229	0.000671	20.820072
1492.412004	-3.005100	3.379000	-10.153000	26.356773	0.000669	20.838575
1493.416283	-3.004900	3.379100	-10.153000	26.359598	0.000670	20.831932
1494.412975	-3.014100	3.378900	-10.183000	26.322081	0.000668	20.825521
1495.414282	-3.006000	3.378100	-10.153000	26.283147	0.000669	20.823378
1496.410432	-3.000100	3.377500	-10.132000	26.271977	0.000666	20.817842
1497.412277	-3.019100	3.377400	-10.196000	26.282976	0.000665	20.827947
1498.411240	-2.996500	3.378300	-10.121000	26.331051	0.000667	20.826475
1499.412847	-3.016500	3.376400	-10.184000	26.346571	0.000665	20.804141
1500.414458	-2.968100	3.378200	-10.026000	26.331045	0.000664	20.823625
1501.417737	-2.995500	3.376400	-10.113000	26.359156	0.000665	20.836703
1502.412336	-2.992000	3.377600	-10.105000	26.377758	0.000663	20.818889
1503.416519	-3.005900	3.375100	-10.145000	26.401676	0.000663	20.817324
1504.414665	-3.009800	3.375600	-10.158000	26.424517	0.000664	20.822737
1505.415252	-3.005100	3.375700	-10.144000	26.461534	0.000664	20.805890
1506.414382	-3.017500	3.374800	-10.182000	26.490689	0.000662	20.813383
1507.417403	-2.987300	3.375000	-10.081000	26.539521	0.000660	20.810785
1508.417239	-3.018400	3.372700	-10.179000	26.551442	0.000658	20.804276
1509.416226	-3.011000	3.373100	-10.155000	26.583045	0.000660	20.773455
1510.418256	-3.007600	3.373900	-10.145000	26.610029	0.000659	20.803426
1511.420527	-2.951800	3.375200	-9.960900	26.613478	0.000658	20.795513
1512.421374	-2.970700	3.372700	-10.018000	26.647609	0.000657	20.811807
1513.415887	-3.003800	3.372600	-10.130000	26.609165	0.000656	20.802557
1514.419621	-2.984700	3.371900	-10.063000	26.604350	0.000656	20.799614
1515.419608	-3.003700	3.371700	-10.126000	26.609342	0.000657	20.799416
1516.420034	-2.984600	3.371100	-10.060000	26.560011	0.000656	20.814786
1517.416442	-3.006800	3.370600	-10.132000	26.564085	0.000657	20.788061
1518.419984	-2.988900	3.370400	-10.073000	26.534024	0.000656	20.801941
1519.418549	-2.981900	3.370500	-10.050000	26.527843	0.000654	20.785296
1520.422211	-2.998900	3.369500	-10.103000	26.537130	0.000655	20.799373
1521.423214	-3.019100	3.368900	-10.170000	26.584379	0.000655	20.821737
1522.419376	-2.974800	3.369100	-10.022000	26.542417	0.000655	20.796152
1523.422331	-2.985100	3.368700	-10.055000	26.564219	0.000652	20.803843
1524.419190	-2.985900	3.368900	-10.058000	26.569432	0.000651	20.797704
1525.423554	-3.006100	3.368100	-10.124000	26.577236	0.000652	20.808867
1526.427620	-2.997900	3.367000	-10.094000	26.594565	0.000653	20.794045
1527.423632	-2.991300	3.368000	-10.073000	26.622198	0.000651	20.801434
1528.425282	-3.004600	3.365900	-10.112000	26.631582	0.000649	20.816084
1529.427405	-2.982600	3.367800	-10.044000	26.654497	0.000649	20.801662
1530.424294	-2.987400	3.365800	-10.054000	26.659759	0.000651	20.801736
1531.427117	-3.001100	3.366100	-10.101000	26.660579	0.000650	20.800190
1532.426299	-3.006400	3.364700	-10.114000	26.631067	0.000649	20.802764
1533.422469	-3.020400	3.363600	-10.159000	26.568713	0.000647	20.780860
1534.427576	-3.008300	3.364300	-10.120000	26.517916	0.000647	20.782430
1535.426821	-2.988000	3.366000	-10.057000	26.495648	0.000646	20.782806
1536.425322	-3.006900	3.364800	-10.116000	26.446391	0.000648	20.780238
1537.429774	-2.996900	3.363400	-10.078000	26.411083	0.000646	20.790269
1538.426665	-3.010200	3.362800	-10.121000	26.394817	0.000645	20.799524
1539.422735	-2.996600	3.363000	-10.077000	26.412204	0.000645	20.776697
1540.427373	-2.998100	3.362200	-10.080000	26.433654	0.000645	20.799678
1541.426552	-3.009100	3.361600	-10.114000	26.448774	0.000644	20.778840
1542.426912	-3.010100	3.361000	-10.116000	26.465800	0.000642	20.772719
1543.428022	-3.028100	3.360600	-10.175000	26.460789	0.000642	20.787122
1544.430122	-3.001300	3.361400	-10.088000	26.495751	0.000642	20.790971
1545.430934	-2.986100	3.360900	-10.036000	26.541109	0.000642	20.778717
1546.432609	-2.978400	3.359400	-10.005000	26.546028	0.000641	20.772281
1547.427245	-2.979500	3.359500	-10.009000	26.496468	0.000640	20.767509
1548.425284	-2.982800	3.360000	-10.020000	26.517965	0.000640	20.789118
1549.429584	-2.970200	3.359100	-9.976400	26.535473	0.000639	20.778267
1550.430397	-2.996100	3.357300	-10.058000	26.535572	0.000638	20.767460
1551.427528	-2.985100	3.357700	-10.022000	26.551181	0.000639	20.796427
1552.433228	-2.991100	3.358100	-10.043000	26.550121	0.000637	20.766912
1553.427325	-2.988700	3.356500	-10.030000	26.576536	0.000637	20.774024
1554.431760	-2.993600	3.355700	-10.045000	26.609297	0.000638	20.784198
1555.435016	-3.003200	3.357200	-10.081000	26.608334	0.000634	20.764738
1556.433691	-2.994100	3.357200	-10.050000	26.646515	0.000636	20.777042
1557.432373	-2.993000	3.356300	-10.045000	26.666556	0.000633	20.775853
1558.437150	-2.996700	3.354800	-10.052000	26.661191	0.000633	20.775674
1559.433752	-2.980800	3.355100	-10.000000	26.653001	0.000636	20.780717
1560.436968	-2.998400	3.354500	-10.057000	26.619832	0.000634	20.762071
1561.434537	-3.006700	3.354000	-10.084000	26.624824	0.000633	20.788427
1562.437435	-2.994000	3.355400	-10.045000	26.641681	0.000633	20.788304
1563.433498	-3.007400	3.352600	-10.082000	26.631806	0.000633	20.759885
1564.434099	-3.007800	3.354800	-10.088000	26.598391	0.000629	20.784615
1565.436469	-3.001400	3.353000	-10.063000	26.582728	0.000632	20.780249
1566.437941	-3.015600	3.351000	-10.104000	26.558053	0.000630	20.772040
1567.433024	-3.014100	3.352700	-10.105000	26.543528	0.000633	20.762656
1568.437431	-3.006900	3.351300	-10.076000	26.538438	0.000630	20.776031
1569.437345	-3.024700	3.349400	-10.129000	26.548943	0.000630	20.773789
1570.433111	-2.987600	3.351600	-10.012000	26.556491	0.000631	20.778057
1571.435944	-2.986700	3.350600	-10.006000	26.586526	0.000629	20.759410
1572.436042	-3.011200	3.350300	-10.088000	26.598225	0.000627	20.744144
1573.433198	-2.994200	3.349900	-10.029000	26.586256	0.000629	20.776209
1574.438327	-3.007100	3.349300	-10.071000	26.609987	0.000626	20.763555
1575.439384	-3.018700	3.349800	-10.111000	26.608823	0.000627	20.769971
1576.434424	-2.997100	3.348000	-10.034000	26.595671	0.000627	20.769078
1577.441020	-3.027500	3.346800	-10.132000	26.613044	0.000626	20.759515
1578.434774	-3.012600	3.346900	-10.082000	26.613496	0.000626	20.768031
1579.435976	-3.002000	3.347500	-10.048000	26.647849	0.000623	20.763209
1580.439540	-3.006600	3.346000	-10.059000	26.647486	0.000623	20.754784
1581.433757	-2.994200	3.347200	-10.021000	26.648209	0.000625	20.751718
1582.433959	-2.989200	3.346200	-10.001000	26.656001	0.000623	20.757180
1583.440135	-3.002800	3.345800	-10.046000	26.681200	0.000623	20.774927
1584.440641	-2.999800	3.346600	-10.038000	26.701731	0.000621	20.749574
1585.436614	-3.004000	3.346100	-10.050000	26.694510	0.000621	20.768393
1586.444389	-3.016100	3.344900	-10.087000	26.710839	0.000621	20.759206
1587.440736	-3.002500	3.343900	-10.038000	26.693615	0.000619	20.756114
1588.436178	-3.007100	3.344300	-10.055000	26.696819	0.000620	20.769292
1589.440994	-3.009600	3.343800	-10.061000	26.657304	0.000618	20.741895
1590.436704	-3.007500	3.342400	-10.051000	26.627369	0.000618	20.781503
1591.438520	-3.026300	3.342800	-10.115000	26.598475	0.000619	20.775690
1592.440425	-2.997600	3.341700	-10.016000	26.572685	0.000616	20.768731
1593.440336	-2.983400	3.341200	-9.967700	26.507792	0.000617	20.739061
1594.446346	-2.997100	3.341200	-10.010000	26.490608	0.000618	20.766834
1595.441341	-2.991600	3.340100	-9.991600	26.454015	0.000614	20.745699
1596.443271	-2.991200	3.340600	-9.991000	26.495748	0.000616	20.757776
1597.446162	-3.007600	3.340000	-10.045000	26.477858	0.000614	20.752596
1598.446354	-3.005200	3.338900	-10.033000	26.505212	0.000613	20.754961
1599.445792	-2.997800	3.339900	-10.012000	26.497193	0.000615	20.752590
1600.444023	-2.997700	3.339000	-10.008000	26.454020	0.000610	20.750447
1601.443315	-3.019900	3.338700	-10.082000	26.410595	0.000612	20.759432
1602.444447	-3.011900	3.339300	-10.056000	26.367247	0.000612	20.745261
1603.448399	-2.981000	3.339800	-9.954800	26.326127	0.000610	20.747558
1604.445148	-3.004000	3.337000	-10.023000	26.359870	0.000610	20.748753
1605.447653	-2.992200	3.336800	-9.983500	26.355256	0.000609	20.748383
1606.446896	-3.006000	3.337500	-10.031000	26.400552	0.000609	20.774943
1607.451670	-3.001200	3.337100	-10.014000	26.394970	0.000608	20.762694
1608.449514	-2.995700	3.335400	-9.990900	26.409644	0.000609	20.738561
1609.448706	-2.989500	3.335900	-9.971400	26.418828	0.000604	20.742576
1610.449404	-2.981300	3.336900	-9.947200	26.441900	0.000605	20.750593
1611.446824	-3.015000	3.335100	-10.055000	26.461978	0.000606	20.736633
1612.446198	-2.968700	3.334800	-9.898300	26.434647	0.000607	20.739509
1613.450066	-3.003100	3.333800	-10.011000	26.446220	0.000604	20.729329
1614.452069	-2.972700	3.335900	-9.915000	26.426553	0.000604	20.735641
1615.449104	-3.009700	3.333100	-10.030000	26.400637	0.000603	20.746104
1616.455688	-2.989000	3.335000	-9.967900	26.399173	0.000602	20.760754
1617.451991	-3.009900	3.332300	-10.029000	26.401378	0.000604	20.738314
1618.447154	-3.005800	3.333900	-10.020000	26.457400	0.000601	20.744835
1619.451455	-2.993600	3.333500	-9.978300	26.500120	0.000600	20.737514
1620.447667	-2.986700	3.333500	-9.954900	26.527883	0.000601	20.749774
1621.448160	-3.025100	3.331400	-10.077000	26.565472	0.000600	20.740617
1622.451390	-2.997000	3.331700	-9.984100	26.589032	0.000600	20.758611
1623.447639	-2.994700	3.332300	-9.978500	26.624383	0.000602	20.722549
1624.450425	-3.016400	3.330800	-10.046000	26.659954	0.000599	20.745032
1625.456728	-2.998300	3.329300	-9.980500	26.671892	0.000599	20.730481
1626.452940	-3.000700	3.329900	-9.990100	26.725334	0.000599	20.749121
1627.453671	-3.026600	3.327000	-10.068000	26.746066	0.000597	20.761431
1628.452158	-3.003600	3.328100	-9.994400	26.750556	0.000598	20.737020
1629.450664	-2.986500	3.328400	-9.939300	26.738465	0.000597	20.728658
1630.453615	-3.000100	3.327200	-9.980100	26.731857	0.000597	20.751413
1631.450284	-2.994100	3.328300	-9.963400	26.735336	0.000595	20.725037
1632.450798	-2.995300	3.327400	-9.966200	26.751163	0.000596	20.737157
1633.452225	-3.019300	3.325200	-10.039000	26.751591	0.000595	20.716724
1634.457497	-3.030100	3.325400	-10.074000	26.754145	0.000594	20.733991
1635.454904	-3.009400	3.325300	-10.006000	26.740310	0.000594	20.727668
1636.452839	-2.989200	3.326100	-9.941700	26.768661	0.000592	20.735784
1637.454731	-2.986700	3.327100	-9.935000	26.756719	0.000593	20.738001
1638.454372	-3.002000	3.325200	-9.980400	26.771614	0.000592	20.742545
1639.452669	-3.011700	3.325000	-10.012000	26.767952	0.000591	20.729854
1640.452119	-3.015200	3.323200	-10.019000	26.739661	0.000590	20.745508
1641.453147	-3.006900	3.324100	-9.994000	26.722457	0.000592	20.733900
1642.455032	-3.015500	3.322000	-10.015000	26.728361	0.000591	20.732250
1643.452750	-2.985500	3.323700	-9.921600	26.675312	0.000589	20.730126
1644.456870	-2.993600	3.323000	-9.947400	26.697228	0.000589	20.747892
1645.458882	-2.997700	3.323700	-9.962800	26.696113	0.000589	20.728278
1646.457165	-3.003200	3.322700	-9.977100	26.666443	0.000587	20.725951
1647.454923	-3.003200	3.321800	-9.975300	26.644924	0.000587	20.722336
1648.457082	-3.003000	3.322600	-9.976700	26.625605	0.000585	20.727571
1649.454138	-3.014200	3.320800	-10.009000	26.612993	0.000585	20.738126
1650.459942	-3.011500	3.319800	-9.996100	26.589035	0.000584	20.731586
1651.458398	-3.005400	3.320300	-9.978100	26.589281	0.000584	20.715710
1652.460267	-2.981900	3.321700	-9.904200	26.612044	0.000582	20.731482
1653.461566	-2.983100	3.320600	-9.904000	26.612074	0.000582	20.729141
1654.457274	-2.986000	3.321500	-9.916600	26.660153	0.000583	20.735749
1655.469271	-2.991700	3.317900	-9.925300	26.691949	0.000582	20.734998
1656.463821	-3.012400	3.318500	-9.995600	26.735241	0.000581	20.748176
1657.463868	-2.998600	3.319200	-9.950500	26.757652	0.000580	20.759803
1658.463282	-3.002100	3.317200	-9.956600	26.770582	0.000581	20.727756
1659.463507	-3.002000	3.317100	-9.957000	26.774232	0.000579	20.720995
1660.456846	-3.004000	3.316900	-9.963200	26.795061	0.000579	20.726764
1661.461792	-3.037200	3.315400	-10.068000	26.815536	0.000577	20.724591
1662.474918	-2.980900	3.316900	-9.885200	26.817863	0.000576	20.725983
1663.459362	-2.999400	3.315600	-9.943300	26.800960	0.000576	20.732221
1664.462556	-2.984300	3.317500	-9.899100	26.779512	0.000574	20.709707
1665.463811	-2.971300	3.316200	-9.852500	26.773081	0.000574	20.733589
1666.464085	-2.993500	3.314900	-9.922700	26.792520	0.000574	20.719468
1667.464364	-2.992100	3.314400	-9.915600	26.817367	0.000575	20.720268
1668.466880	-2.980500	3.315800	-9.881400	26.838730	0.000574	20.715669
1669.459897	-3.000800	3.313300	-9.940600	26.853458	0.000571	20.723840
1670.465528	-2.987900	3.314100	-9.901200	26.828085	0.000573	20.701646
1671.470146	-3.009800	3.311500	-9.966100	26.819921	0.000571	20.712404
1672.461051	-3.004800	3.313300	-9.954700	26.848761	0.000571	20.702994
1673.463923	-3.002700	3.312500	-9.944500	26.845858	0.000571	20.692014
1674.464298	-2.999600	3.312000	-9.933800	26.855234	0.000568	20.728946
1675.464571	-3.002400	3.311500	-9.941700	26.873901	0.000570	20.731594
1676.465554	-3.036200	3.309300	-10.046000	26.876877	0.000566	20.708981
1677.470671	-3.000200	3.311100	-9.933500	26.867967	0.000565	20.726101
1678.465039	-2.996000	3.309200	-9.914200	26.852533	0.000566	20.714849
1679.466393	-3.017900	3.309000	-9.985000	26.851290	0.000566	20.726402
1680.466802	-2.981200	3.310900	-9.868900	26.887949	0.000566	20.705415
1681.467178	-2.996400	3.308600	-9.913200	26.887655	0.000565	20.696583
1682.464344	-3.001700	3.307100	-9.924500	26.869613	0.000563	20.721118
1683.471733	-2.995700	3.308700	-9.911500	26.806619	0.000563	20.717996
1684.468447	-2.969000	3.309800	-9.825300	26.777852	0.000564	20.727005
1685.465652	-3.001600	3.308000	-9.928400	26.723862	0.000563	20.685049
1686.469643	-3.003700	3.306700	-9.931600	26.713767	0.000563	20.683435
1687.473382	-2.982000	3.309100	-9.866400	26.701878	0.000561	20.701830
1688.471679	-3.012000	3.306100	-9.956400	26.683656	0.000560	20.708641
1689.470212	-3.013600	3.305900	-9.961700	26.688574	0.000562	20.716431
1690.470939	-3.000800	3.305200	-9.916900	26.681004	0.000560	20.699810
1691.475539	-3.003600	3.305800	-9.926900	26.692942	0.000560	20.687154
1692.469592	-2.999900	3.305100	-9.913700	26.680453	0.000558	20.686453
1693.471156	-2.997100	3.304300	-9.902700	26.682522	0.000559	20.702285
1694.470891	-2.993200	3.304000	-9.888400	26.668269	0.000558	20.708819
1695.472909	-2.975900	3.305200	-9.835000	26.655982	0.000557	20.711640
1696.477797	-2.989500	3.303700	-9.874800	26.658616	0.000556	20.678723
1697.470448	-3.009900	3.302400	-9.938300	26.711366	0.000557	20.690978
1698.477468	-2.990100	3.303300	-9.876400	26.685524	0.000556	20.694396
1699.473442	-3.020400	3.302200	-9.972900	26.683717	0.000555	20.690683
1700.471393	-3.000300	3.301200	-9.902700	26.703354	0.000554	20.704736
1701.476699	-2.981800	3.300700	-9.840700	26.683545	0.000553	20.694778
1702.474826	-2.991300	3.301400	-9.874100	26.693351	0.000553	20.693731
1703.475017	-3.016400	3.300300	-9.954000	26.671901	0.000552	20.690658
1704.480904	-3.006500	3.299800	-9.919600	26.606493	0.000552	20.697924
1705.475168	-3.008700	3.299600	-9.927200	26.589464	0.000551	20.718739
1706.477458	-3.018500	3.298700	-9.956400	26.564985	0.000552	20.696976
1707.475472	-3.010600	3.299100	-9.930500	26.496361	0.000548	20.691058
1708.475911	-3.003700	3.297900	-9.904700	26.464976	0.000549	20.692228
1709.480694	-3.032200	3.296500	-9.994900	26.474618	0.000547	20.702869
1710.476941	-3.013500	3.296400	-9.932700	26.494744	0.000548	20.692278
1711.477088	-2.977200	3.299600	-9.821400	26.494223	0.000548	20.710722
1712.476026	-2.991000	3.297800	-9.862500	26.561377	0.000547	20.706153
1713.481420	-3.001500	3.297600	-9.896100	26.618947	0.000545	20.694322
1714.476813	-2.987200	3.297600	-9.850100	26.693149	0.000543	20.688312
1715.478394	-3.008100	3.296500	-9.915600	26.704016	0.000544	20.693072
1716.477036	-3.001100	3.295500	-9.888800	26.744324	0.000545	20.686181
1717.477153	-3.006300	3.294700	-9.903600	26.773766	0.000543	20.706775
1718.477824	-2.999500	3.294800	-9.881700	26.746854	0.000542	20.673076
1719.481816	-2.987200	3.295500	-9.843300	26.705051	0.000543	20.690794
1720.478621	-3.016300	3.293800	-9.934000	26.705057	0.000545	20.707871
1721.484167	-3.050500	3.292100	-10.040000	26.704402	0.000540	20.685400
1722.484586	-2.997300	3.293500	-9.871000	26.697573	0.000542	20.691337
1723.482289	-2.977700	3.293200	-9.805400	26.672852	0.000539	20.686398
1724.485052	-3.001000	3.291600	-9.877100	26.663664	0.000539	20.694231
1725.486147	-2.998900	3.291400	-9.869700	26.697249	0.000539	20.691011
1726.479419	-2.996400	3.291100	-9.861100	26.747045	0.000540	20.688917
1727.479876	-3.006200	3.291400	-9.893500	26.760544	0.000535	20.663131
1728.483577	-2.995800	3.290700	-9.857700	26.811078	0.000537	20.681699
1729.480392	-3.021000	3.290500	-9.939700	26.820431	0.000537	20.685887
1730.483108	-3.023900	3.289400	-9.946500	26.859007	0.000536	20.698598
1731.492325	-2.999900	3.289500	-9.866700	26.895734	0.000534	20.688110
1732.483520	-3.021700	3.287800	-9.934000	26.894374	0.000534	20.695753
1733.485919	-3.013900	3.288100	-9.909200	26.831307	0.000533	20.705360
1734.485815	-3.016000	3.288900	-9.917900	26.813136	0.000535	20.688985
1735.484788	-3.000100	3.288000	-9.862200	26.840806	0.000533	20.680770
1736.484019	-2.993900	3.289800	-9.847600	26.865009	0.000532	20.695149
1737.486419	-2.990900	3.287200	-9.830300	26.886450	0.000532	20.696794
1738.481586	-3.003100	3.287500	-9.871000	26.910829	0.000530	20.704713
1739.484645	-2.996000	3.287800	-9.849900	26.873969	0.000529	20.708901
1740.485755	-3.005500	3.286300	-9.875200	26.817626	0.000529	20.685912
1741.485522	-3.021700	3.286100	-9.928700	26.773847	0.000529	20.689785
1742.484204	-3.007100	3.287600	-9.885100	26.762970	0.000528	20.706826
1743.486927	-3.009500	3.285300	-9.886400	26.781392	0.000528	20.709227
1744.482991	-2.989200	3.285600	-9.820600	26.784345	0.000525	20.670466
1745.481087	-3.004800	3.286100	-9.873200	26.792166	0.000528	20.678330
1746.481475	-2.990200	3.285900	-9.824000	26.818776	0.000526	20.704140
1747.484620	-2.996100	3.284700	-9.839300	26.828429	0.000525	20.689188
1748.483036	-2.982200	3.285000	-9.795100	26.894398	0.000527	20.678706
1749.480678	-2.993400	3.281700	-9.822700	26.897473	0.000522	20.710250
1750.485043	-3.014700	3.282900	-9.896200	26.930652	0.000522	20.702361
1751.482228	-3.005600	3.283500	-9.867600	26.966341	0.000524	20.704584
1752.480673	-3.002500	3.283100	-9.855900	26.995427	0.000524	20.694952
1753.481640	-3.003000	3.282500	-9.855400	26.952372	0.000521	20.680578
1754.488627	-2.997400	3.281900	-9.835900	26.942678	0.000521	20.672251
1755.483597	-3.007600	3.281000	-9.867000	26.917259	0.000521	20.694108
1756.485995	-3.006200	3.281500	-9.862000	26.935128	0.000520	20.682678
1757.486160	-3.022500	3.280200	-9.913800	26.918501	0.000520	20.698203
1758.483971	-3.008500	3.278600	-9.862500	26.875468	0.000519	20.681483
1759.488246	-3.006900	3.279900	-9.861900	26.834516	0.000519	20.694835
1760.487231	-3.013400	3.278900	-9.879900	26.811763	0.000515	20.692346
1761.483797	-2.991200	3.280000	-9.810300	26.824545	0.000518	20.699508
1762.485205	-3.008900	3.280300	-9.867600	26.859465	0.000516	20.714233
1763.488283	-3.008000	3.277900	-9.859000	26.906596	0.000515	20.703776
1764.488290	-3.009700	3.278400	-9.865200	26.925016	0.000515	20.698590
1765.490796	-3.002900	3.277300	-9.840200	26.934796	0.000515	20.705106
1766.489899	-3.005700	3.276600	-9.847200	26.962867	0.000515	20.698245
1767.488735	-3.015400	3.277200	-9.880500	27.026838	0.000514	20.701411
1768.485626	-3.007300	3.276700	-9.853400	27.049102	0.000513	20.711473
1769.489202	-3.022500	3.274800	-9.896900	27.047314	0.000514	20.692130
1770.506252	-3.013900	3.274300	-9.866000	27.052843	0.000510	20.692001
1771.489944	-3.013800	3.273400	-9.863000	27.038980	0.000510	20.701767
1772.491045	-3.011700	3.274800	-9.861000	27.032796	0.000509	20.684641
1773.490665	-2.986900	3.274900	-9.780500	26.997213	0.000510	20.720458
1774.489594	-3.004700	3.274000	-9.836200	26.955696	0.000509	20.691508
1775.491706	-3.001100	3.272700	-9.821000	26.923509	0.000507	20.696126
1776.490519	-2.987400	3.274300	-9.780600	26.928347	0.000507	20.689137
1777.490828	-3.014100	3.271500	-9.859600	26.917532	0.000508	20.722835
1778.488672	-3.009000	3.273100	-9.846800	26.946792	0.000507	20.693459
1779.500784	-2.993300	3.272500	-9.794200	26.940190	0.000506	20.695830
1780.490803	-3.008700	3.270500	-9.838500	26.920435	0.000505	20.711528
1781.490400	-2.973400	3.271700	-9.727500	26.940784	0.000505	20.696902
1782.491191	-3.001600	3.270100	-9.814900	26.927930	0.000505	20.692985
1783.497528	-2.992200	3.270100	-9.783800	26.938647	0.000503	20.709927
1784.492238	-3.051700	3.268700	-9.973500	26.965224	0.000503	20.711997
1785.497009	-3.008800	3.269000	-9.834800	26.960239	0.000502	20.706509
1786.504868	-2.974000	3.271000	-9.727100	26.958206	0.000502	20.700197
1787.490839	-3.007100	3.268800	-9.827800	26.961782	0.000499	20.702371
1788.494101	-3.007100	3.268500	-9.827900	26.942695	0.000499	20.700720
1789.497530	-3.010600	3.268500	-9.838400	26.895266	0.000499	20.701392
1790.493161	-3.005700	3.267800	-9.820300	26.900140	0.000497	20.719570
1791.491385	-2.975100	3.270000	-9.728300	26.889937	0.000497	20.691766
1792.497246	-3.022300	3.266100	-9.869700	26.892393	0.000497	20.707038
1793.494629	-2.989200	3.266500	-9.762700	26.859954	0.000497	20.704766
1794.493775	-2.993400	3.268300	-9.782200	26.838513	0.000497	20.701699
1795.493824	-2.998700	3.264500	-9.788600	26.845390	0.000497	20.701502
1796.495706	-2.999900	3.265500	-9.795000	26.833111	0.000496	20.702905
1797.494930	-2.990100	3.265400	-9.762900	26.815907	0.000495	20.710265
1798.500401	-2.999100	3.265600	-9.792900	26.795825	0.000494	20.696236
1799.499746	-3.007200	3.263800	-9.812900	26.816777	0.000492	20.708768
1800.498488	-2.979700	3.264000	-9.724500	26.861644	0.000493	20.704569
1801.497811	-3.012900	3.262700	-9.828700	26.960747	0.000492	20.707020
1802.497482	-2.991000	3.262200	-9.755800	26.977697	0.000492	20.705098
1803.495467	-3.026000	3.261300	-9.866300	27.036181	0.000490	20.705591
1804.494077	-2.993000	3.262300	-9.763000	27.040179	0.000491	20.688274
1805.503570	-3.019100	3.260700	-9.843100	27.083285	0.000489	20.707444
1806.498380	-3.015000	3.261900	-9.833600	27.077750	0.000489	20.714206
1807.495871	-3.015300	3.259500	-9.827300	27.088117	0.000491	20.717046
1808.500191	-3.003300	3.261100	-9.792500	27.116857	0.000488	20.706120
1809.505705	-2.993000	3.260400	-9.757300	27.131796	0.000486	20.702653
1810.499799	-3.003300	3.259400	-9.787300	27.122293	0.000486	20.710640
1811.498544	-3.002400	3.260100	-9.786800	27.123629	0.000487	20.709138
1812.501500	-3.014600	3.258100	-9.819600	27.131722	0.000488	20.727237
1813.502283	-3.003400	3.259000	-9.787300	27.142413	0.000486	20.704797
1814.496651	-3.001300	3.259400	-9.781000	27.134747	0.000483	20.722692
1815.501819	-2.998100	3.257500	-9.765300	27.179533	0.000484	20.723641
1816.510953	-2.994900	3.256900	-9.753000	27.200270	0.000484	20.711780
1817.498455	-3.005300	3.256600	-9.786200	27.209979	0.000482	20.706847
1818.502505	-3.006000	3.257200	-9.790000	27.257865	0.000480	20.724669
1819.498120	-3.002500	3.257600	-9.780100	27.273990	0.000481	20.734251
1820.501273	-3.005200	3.255900	-9.783700	27.280884	0.000480	20.707993
1821.509354	-3.029000	3.255400	-9.858200	27.240516	0.000479	20.734245
1822.505766	-3.015600	3.253800	-9.811100	27.239696	0.000480	20.727256
1823.503103	-2.984000	3.255900	-9.714200	27.223178	0.000481	20.722969
1824.501982	-3.009500	3.254800	-9.793900	27.252154	0.000477	20.714182
1825.504433	-3.018700	3.254500	-9.822500	27.278129	0.000477	20.703325
1826.500995	-2.995500	3.253900	-9.746200	27.284508	0.000476	20.719225
1827.509175	-3.028600	3.252500	-9.849400	27.303106	0.000476	20.727028
1828.500800	-2.987700	3.252600	-9.716400	27.274034	0.000476	20.732398
1829.506600	-3.007600	3.252800	-9.782200	27.300253	0.000473	20.729374
1830.506006	-2.990700	3.252400	-9.726600	27.320051	0.000473	20.715623
1831.502148	-3.010400	3.251900	-9.788200	27.351239	0.000471	20.742257
1832.502284	-2.991600	3.251200	-9.726000	27.330028	0.000471	20.728980
1833.504877	-3.004800	3.250200	-9.765200	27.288322	0.000470	20.725907
1834.499575	-2.971500	3.250800	-9.657800	27.239176	0.000469	20.721991
1835.504196	-3.034900	3.248900	-9.858900	27.201022	0.000468	20.721073
1836.508483	-2.989700	3.250900	-9.717200	27.190915	0.000470	20.731770
1837.507369	-2.995400	3.249100	-9.731500	27.195041	0.000467	20.728807
1838.505916	-3.003400	3.249700	-9.758400	27.220325	0.000468	20.729583
1839.503022	-2.988000	3.249900	-9.709600	27.249625	0.000466	20.738667
1840.508762	-3.005600	3.247700	-9.760000	27.255282	0.000466	20.737718
1841.510956	-2.984600	3.248900	-9.695100	27.250966	0.000465	20.725316
1842.511205	-2.994100	3.246500	-9.719300	27.264220	0.000464	20.722051
1843.513392	-3.016600	3.247100	-9.794300	27.310586	0.000464	20.740717
1844.508853	-2.997600	3.247700	-9.734000	27.338873	0.000463	20.711323
1845.507077	-2.996000	3.246900	-9.726300	27.379880	0.000463	20.734084
1846.506002	-3.009700	3.244400	-9.763900	27.435789	0.000461	20.710671
1847.510820	-2.996300	3.245800	-9.725100	27.448000	0.000461	20.729595
1848.508258	-3.006300	3.243900	-9.751100	27.460131	0.000460	20.731368
1849.516960	-2.989000	3.245000	-9.697700	27.430935	0.000458	20.735660
1850.511591	-2.986400	3.243400	-9.685400	27.354978	0.000459	20.710929
1851.509940	-2.985200	3.243800	-9.682300	27.334569	0.000458	20.736867
1852.511872	-2.977800	3.244600	-9.661600	27.354733	0.000457	20.730598
1853.509345	-2.964700	3.243400	-9.613700	27.369699	0.000457	20.744232
1854.511047	-2.981700	3.243100	-9.669100	27.376475	0.000457	20.722598
1855.510254	-2.986200	3.242800	-9.681300	27.391729	0.000456	20.743160
1856.513518	-3.000800	3.240900	-9.724900	27.382902	0.000456	20.722899
1857.521594	-2.993600	3.241100	-9.702300	27.411408	0.000457	20.743043
1858.513250	-2.994600	3.241500	-9.705500	27.396522	0.000453	20.751775
1859.511902	-3.015400	3.240900	-9.771000	27.397072	0.000454	20.743320
1860.511569	-3.014000	3.239800	-9.764100	27.390449	0.000454	20.739027
1861.516190	-3.006000	3.238700	-9.734400	27.429305	0.000452	20.748720
1862.519480	-2.990700	3.240300	-9.690000	27.438872	0.000451	20.769251
1863.514124	-3.008800	3.237500	-9.739200	27.441834	0.000451	20.744729
1864.513526	-2.998100	3.238300	-9.708400	27.397794	0.000450	20.733614
1865.513101	-3.014600	3.237500	-9.758900	27.358655	0.000450	20.753036
1866.512416	-2.987300	3.237500	-9.670900	27.314525	0.000449	20.733299
1867.515326	-2.996400	3.237400	-9.699900	27.306365	0.000448	20.743583
1868.512320	-2.987700	3.238400	-9.674300	27.294709	0.000447	20.751299
1869.512550	-2.988200	3.236200	-9.669800	27.319618	0.000447	20.736052
1870.515213	-3.001800	3.236000	-9.712700	27.339145	0.000445	20.736729
1871.514190	-3.009600	3.235400	-9.735900	27.336611	0.000444	20.754095
1872.516567	-2.990100	3.235600	-9.673900	27.341954	0.000444	20.744297
1873.514636	-3.003500	3.234700	-9.714700	27.315828	0.000441	20.746465
1874.515224	-3.007200	3.234000	-9.724000	27.275963	0.000443	20.740029
1875.517362	-2.990200	3.233600	-9.667600	27.277623	0.000441	20.745492
1876.517734	-2.994500	3.233300	-9.681300	27.297818	0.000442	20.732141
1877.516289	-2.985900	3.233200	-9.653700	27.303799	0.000440	20.732941
1878.516102	-3.004500	3.231600	-9.708100	27.299905	0.000439	20.743724
1879.515749	-3.003600	3.231600	-9.705200	27.276612	0.000440	20.734992
1880.520289	-3.011200	3.230300	-9.725100	27.288794	0.000437	20.736340
1881.522267	-3.012000	3.232500	-9.735800	27.310673	0.000437	20.748392
1882.519673	-3.010600	3.229800	-9.722200	27.318588	0.000437	20.758251
1883.521608	-3.013800	3.230100	-9.733900	27.313685	0.000435	20.758059
1884.521891	-3.011100	3.229600	-9.723100	27.268653	0.000434	20.765868
1885.518388	-2.988200	3.230500	-9.651400	27.279544	0.000435	20.741734
1886.527805	-3.005700	3.228400	-9.702300	27.332509	0.000435	20.749020
1887.520906	-2.992200	3.228800	-9.660200	27.364909	0.000432	20.755061
1888.520938	-2.984000	3.228900	-9.633500	27.404201	0.000431	20.768510
1889.527187	-3.002000	3.229100	-9.692700	27.404476	0.000431	20.744130
1890.520665	-3.013500	3.227100	-9.723300	27.413260	0.000431	20.762924
1891.521424	-3.020900	3.226900	-9.747700	27.461107	0.000429	20.766964
1892.525811	-3.021100	3.226200	-9.745500	27.501766	0.000430	20.749075
1893.522984	-2.993000	3.228300	-9.659800	27.531725	0.000430	20.746027
1894.526030	-3.006700	3.225900	-9.698700	27.505285	0.000427	20.753564
1895.527152	-2.998400	3.225800	-9.671300	27.490431	0.000428	20.759956
1896.521963	-2.991400	3.226100	-9.648200	27.502610	0.000427	20.775055
1897.527305	-3.000400	3.222900	-9.668700	27.528010	0.000426	20.761729
1898.525399	-3.015200	3.223800	-9.719500	27.523322	0.000425	20.769341
1899.524542	-2.992500	3.225500	-9.650400	27.537111	0.000425	20.760929
1900.529943	-3.009700	3.222600	-9.697900	27.515800	0.000426	20.759876
1901.529862	-2.997000	3.222800	-9.657900	27.556879	0.000424	20.756637
1902.529475	-3.009900	3.222300	-9.697400	27.605491	0.000421	20.756711
1903.529234	-2.972100	3.222600	-9.576600	27.614646	0.000421	20.764026
1904.526972	-2.999500	3.220800	-9.659900	27.629077	0.000423	20.759580
1905.526431	-3.012800	3.221700	-9.705300	27.597082	0.000421	20.778596
1906.525347	-2.998500	3.219900	-9.654000	27.570919	0.000420	20.764125
1907.523649	-2.993400	3.219900	-9.637100	27.542625	0.000418	20.792082
1908.525847	-3.013100	3.220000	-9.700500	27.514098	0.000419	20.788984
1909.527015	-2.982900	3.221400	-9.607100	27.491079	0.000417	20.772463
1910.528278	-2.987400	3.219500	-9.616800	27.517416	0.000416	20.761502
1911.531503	-2.992400	3.219200	-9.632100	27.567694	0.000416	20.754716
1912.527094	-2.992500	3.218800	-9.631700	27.594677	0.000417	20.776176
1913.532618	-3.007700	3.217100	-9.675300	27.626977	0.000413	20.769322
1914.525270	-2.995300	3.216600	-9.632900	27.637191	0.000413	20.786238
1915.530538	-3.008000	3.215800	-9.672300	27.677416	0.000413	20.785936
1916.529969	-2.997600	3.216900	-9.641400	27.702217	0.000410	20.777229
1917.529899	-2.988900	3.216300	-9.612600	27.697652	0.000413	20.789705
1918.535775	-2.995900	3.214800	-9.630600	27.724938	0.000410	20.771169
1919.526965	-2.989300	3.215900	-9.612100	27.711445	0.000410	20.784618
1920.536456	-2.954700	3.217700	-9.506100	27.726651	0.000409	20.777161
1921.535317	-3.040300	3.212800	-9.765600	27.738583	0.000409	20.790591
1922.531501	-2.957900	3.214500	-9.507000	27.732042	0.000406	20.771680
1923.531692	-2.999200	3.213600	-9.637400	27.686704	0.000407	20.792912
1924.535503	-3.008600	3.213800	-9.667600	27.700191	0.000407	20.771397
1925.534679	-3.023900	3.212900	-9.713800	27.662532	0.000404	20.769062
1926.534623	-3.018000	3.212300	-9.693300	27.663370	0.000403	20.794088
1927.533288	-2.980200	3.213500	-9.576400	27.672108	0.000404	20.807623
1928.536162	-2.988200	3.212400	-9.598500	27.720415	0.000404	20.778946
1929.532361	-3.010900	3.209600	-9.662900	27.731130	0.000401	20.783564
1930.534075	-2.979600	3.214100	-9.576200	27.699517	0.000401	20.777831
1931.536655	-3.000500	3.210600	-9.632000	27.681985	0.000400	20.789112
1932.538213	-3.013600	3.210500	-9.673700	27.642355	0.000400	20.771045
1933.533009	-3.004400	3.212400	-9.650300	27.652525	0.000399	20.781279
1934.536234	-2.992800	3.208800	-9.601300	27.601462	0.000398	20.801969
1935.533646	-3.000700	3.206500	-9.620800	27.586131	0.000395	20.798872
1936.530043	-3.003600	3.208200	-9.635300	27.573591	0.000396	20.785306
1937.533074	-2.995500	3.207500	-9.607000	27.606804	0.000396	20.785533
1938.533350	-2.982500	3.207200	-9.564200	27.676195	0.000394	20.796088
1939.533167	-2.992700	3.208400	-9.601500	27.678930	0.000396	20.803108
1940.531714	-2.994200	3.206600	-9.600500	27.718259	0.000392	20.800010
1941.536901	-3.009100	3.206300	-9.646600	27.738599	0.000392	20.797245
1942.534751	-3.001700	3.205200	-9.620300	27.766625	0.000392	20.794628
1943.534596	-2.993100	3.205300	-9.593400	27.737712	0.000392	20.793981
1944.537667	-3.001800	3.203900	-9.616500	27.685784	0.000390	20.796254
1945.538096	-3.007500	3.203200	-9.632400	27.694497	0.000391	20.795065
1946.536344	-3.007100	3.203400	-9.631600	27.745929	0.000390	20.782810
1947.534954	-2.999100	3.204500	-9.610200	27.780942	0.000391	20.799554
1948.532850	-3.014300	3.203300	-9.654100	27.811818	0.000388	20.797435
1949.532938	-3.004600	3.203300	-9.623300	27.837540	0.000385	20.788235
1950.535534	-3.011600	3.202600	-9.644400	27.839847	0.000386	20.827066
1951.533159	-3.011000	3.201600	-9.638400	27.823265	0.000385	20.806111
1952.536726	-2.994800	3.200300	-9.583000	27.797426	0.000383	20.811401
1953.534983	-3.020500	3.199200	-9.662000	27.780715	0.000382	20.793635
1954.544415	-2.997600	3.200600	-9.592700	27.772901	0.000381	20.793358
1955.534700	-2.983400	3.200800	-9.547900	27.798251	0.000381	20.788998
1956.536020	-3.023900	3.198900	-9.672200	27.813034	0.000380	20.791547
1957.535527	-3.009700	3.199300	-9.628300	27.862031	0.000381	20.807668
1958.536444	-3.013800	3.199100	-9.640900	27.894116	0.000379	20.803450
1959.537488	-3.005800	3.197000	-9.608800	27.889607	0.000380	20.816455
1960.535777	-2.985700	3.197100	-9.545100	27.883085	0.000378	20.812262
1961.538383	-3.001600	3.197700	-9.596700	27.907906	0.000376	20.805476
1962.538312	-2.970700	3.196800	-9.495300	27.900442	0.000376	20.822145
1963.539052	-2.962700	3.196400	-9.469300	27.919017	0.000376	20.790580
1964.539164	-2.987700	3.196100	-9.548100	27.927570	0.000374	20.812939
1965.538793	-3.001000	3.194600	-9.586000	27.934838	0.000376	20.813616
1966.536576	-2.988000	3.194300	-9.543300	27.934783	0.000373	20.831104
1967.538373	-2.983100	3.195600	-9.531000	27.937370	0.000373	20.790087
1968.540180	-3.003100	3.193000	-9.588300	27.966571	0.000372	20.817108
1969.539823	-2.987200	3.196300	-9.545800	27.965262	0.000372	20.820057
1970.535743	-2.985300	3.193700	-9.532500	27.957376	0.000370	20.796473
1971.536418	-2.988100	3.191800	-9.536700	27.918350	0.000370	20.824996
1972.539213	-2.977600	3.192600	-9.505300	27.853343	0.000368	20.815045
1973.538543	-2.998200	3.192300	-9.569200	27.843615	0.000367	20.813789
1974.537385	-3.005200	3.190300	-9.585300	27.810121	0.000369	20.818961
1975.536949	-2.982900	3.191300	-9.517600	27.844391	0.000367	20.827372
1976.539567	-3.010200	3.188900	-9.597700	27.825197	0.000366	20.813745
1977.538522	-3.024800	3.189000	-9.644900	27.853691	0.000365	20.819189
1978.539183	-3.002700	3.190100	-9.577300	27.851905	0.000365	20.812649
1979.539838	-2.998300	3.189100	-9.560900	27.877247	0.000364	20.826301
1980.538443	-3.011000	3.188000	-9.598000	27.892941	0.000363	20.836406
1981.536594	-3.013800	3.185500	-9.598400	27.905293	0.000362	20.835088
1982.539836	-3.010100	3.187700	-9.592200	27.931742	0.000361	20.823302
1983.537673	-3.043300	3.185500	-9.692800	27.969654	0.000362	20.839651
1984.539673	-3.032200	3.185700	-9.659100	27.992186	0.000361	20.826295
1985.537129	-3.015900	3.185300	-9.605500	28.015396	0.000359	20.836855
1986.538134	-3.006400	3.186100	-9.578000	28.029601	0.000358	20.813222
1987.538849	-3.003700	3.186700	-9.571300	28.067547	0.000358	20.836246
1988.542213	-2.974900	3.185900	-9.477100	28.100794	0.000357	20.821825
1989.539611	-2.990400	3.185200	-9.524200	28.125984	0.000357	20.845759
1990.539343	-2.983300	3.185800	-9.503400	28.133397	0.000354	20.832834
1991.539464	-3.001800	3.184200	-9.557600	28.145117	0.000354	20.823771
1992.539808	-2.981700	3.183500	-9.491000	28.121115	0.000354	20.829953
1993.541397	-3.013000	3.182600	-9.588300	28.081403	0.000350	20.818426
1994.540833	-2.995600	3.181900	-9.531000	28.057479	0.000352	20.798610
1995.540610	-2.995300	3.180600	-9.525700	28.037273	0.000351	20.811936
1996.540143	-2.995100	3.181000	-9.525800	28.056212	0.000351	20.807767
1997.538718	-2.996600	3.181600	-9.532400	28.065034	0.000349	20.817121
1998.543639	-3.011600	3.180700	-9.576900	28.059088	0.000350	20.830575
1999.543156	-3.004600	3.180900	-9.555700	28.086285	0.000349	20.811960
2000.542506	-3.002300	3.181300	-9.549900	28.065902	0.000347	20.813254
2001.540205	-2.983400	3.180000	-9.486000	28.101498	0.000348	20.821111
2002.539904	-2.985200	3.179900	-9.491300	28.128498	0.000345	20.797083
2003.543447	-2.993000	3.178300	-9.511800	28.122326	0.000343	20.824535
2004.542063	-3.005400	3.177500	-9.548700	28.125427	0.000343	20.804423
2005.546031	-2.985000	3.177600	-9.484200	28.118436	0.000344	20.797859
2006.548836	-2.991900	3.177800	-9.507000	28.139606	0.000342	20.823438
2007.547259	-2.991000	3.175900	-9.498200	28.132248	0.000343	20.801806
2008.545534	-3.006000	3.174800	-9.542400	28.100213	0.000338	20.812706
2009.550683	-3.013000	3.175600	-9.566300	28.120442	0.000339	20.813629
2010.544088	-2.997900	3.177300	-9.523500	28.084180	0.000336	20.787557
2011.545070	-2.971100	3.175500	-9.434000	28.027926	0.000338	20.821018
2012.547856	-2.985400	3.173200	-9.471900	28.066006	0.000336	20.803401
2013.542559	-2.995700	3.171800	-9.501000	28.078357	0.000337	20.810618
2014.550591	-2.985100	3.173900	-9.473700	28.105749	0.000336	20.804528
2015.543549	-2.990500	3.171600	-9.484100	28.126351	0.000333	20.790180
2016.546652	-3.005300	3.169500	-9.524600	28.131342	0.000332	20.794256
2017.547576	-2.995900	3.170600	-9.497900	28.149857	0.000331	20.803413
2018.547133	-2.993900	3.171700	-9.495300	28.149637	0.000332	20.787070
2019.549462	-3.011600	3.170300	-9.546800	28.146322	0.000332	20.803172
2020.549554	-3.036900	3.167800	-9.619800	28.161791	0.000331	20.806417
2021.546839	-3.016500	3.167600	-9.554400	28.196619	0.000331	20.814927
2022.548546	-2.994100	3.168800	-9.487400	28.208448	0.000329	20.769938
2023.549947	-3.004600	3.167600	-9.516200	28.232173	0.000326	20.778177
2024.548797	-3.015200	3.168300	-9.552100	28.239194	0.000326	20.795203
2025.550406	-2.971700	3.167200	-9.410400	28.223108	0.000328	20.785172
2026.544614	-3.009600	3.166300	-9.527400	28.225909	0.000328	20.778983
2027.548875	-3.010200	3.164200	-9.523500	28.190519	0.000324	20.797882
2028.549981	-2.968800	3.166700	-9.399100	28.127731	0.000324	20.776397
2029.549737	-2.995700	3.163600	-9.475500	28.051573	0.000323	20.797882
2030.550187	-2.993600	3.164300	-9.470600	27.989670	0.000320	20.808590
2031.548262	-2.976500	3.164700	-9.418600	27.959106	0.000322	20.777351
2032.548293	-2.989000	3.164500	-9.458100	27.968631	0.000323	20.796896
2033.546859	-3.018100	3.162200	-9.542500	27.974014	0.000321	20.796625
2034.546531	-3.002000	3.162200	-9.492100	27.998516	0.000320	20.784303
2035.548866	-2.973000	3.162000	-9.400400	28.026809	0.000319	20.767738
2036.546373	-3.021700	3.159900	-9.547100	28.045950	0.000318	20.792695
2037.550310	-2.995000	3.159900	-9.462300	28.018777	0.000316	20.798533
2038.549090	-2.995100	3.159900	-9.462500	28.019823	0.000316	20.764498
2039.550237	-2.992200	3.159700	-9.454000	27.987301	0.000317	20.754996
2040.551024	-2.997100	3.158300	-9.465200	28.021462	0.000315	20.766623
2041.553130	-3.020200	3.157200	-9.534200	28.047228	0.000316	20.746091
2042.550561	-3.010700	3.156800	-9.503500	28.079754	0.000315	20.772195
2043.549730	-3.009900	3.158500	-9.505400	28.106284	0.000313	20.770452
2044.549711	-2.992600	3.156900	-9.446100	28.109110	0.000310	20.764762
2045.551486	-3.004700	3.155800	-9.481900	28.090917	0.000311	20.767312
2046.552972	-3.009800	3.155100	-9.495900	28.053015	0.000311	20.775625
2047.553330	-3.009200	3.154300	-9.490900	28.021211	0.000312	20.777749
2048.550869	-3.002300	3.156200	-9.474700	28.043943	0.000311	20.781666
2049.551812	-3.026300	3.153300	-9.541700	28.057107	0.000309	20.787805
2050.550560	-3.008700	3.153600	-9.485200	28.094000	0.000309	20.762354
2051.553843	-3.003200	3.153200	-9.468600	28.150019	0.000310	20.771807
2052.549862	-3.016600	3.152000	-9.507500	28.168222	0.000307	20.763580
2053.550737	-3.025200	3.151400	-9.532100	28.199826	0.000308	20.760310
2054.554136	-2.985400	3.152100	-9.409100	28.207882	0.000306	20.763204
2055.549716	-3.012500	3.150600	-9.491000	28.255944	0.000306	20.765125
2056.557608	-2.990400	3.150100	-9.419400	28.301532	0.000307	20.750333
2057.556418	-2.965300	3.150200	-9.339900	28.335139	0.000304	20.761412
2058.550426	-2.998900	3.149800	-9.444600	28.373526	0.000303	20.745062
2059.556034	-2.991400	3.149100	-9.418900	28.393432	0.000301	20.743295
2060.554543	-2.981600	3.148500	-9.385800	28.391817	0.000302	20.756369
2061.552792	-3.000900	3.146400	-9.440400	28.393878	0.000300	20.755599
2062.559464	-3.008300	3.146700	-9.465100	28.399211	0.000301	20.752907
2063.552460	-2.991700	3.145600	-9.409600	28.360402	0.000300	20.749391
2064.559845	-2.973700	3.146900	-9.355300	28.335566	0.000299	20.754256
2065.555728	-3.012600	3.144500	-9.472200	28.350042	0.000298	20.764090
2066.553526	-2.995100	3.145400	-9.419500	28.356989	0.000297	20.734574
2067.554456	-3.014500	3.142900	-9.473300	28.342514	0.000298	20.758406
2068.556494	-3.008800	3.143100	-9.455800	28.344373	0.000295	20.768813
2069.555841	-3.004100	3.143100	-9.440800	28.313837	0.000297	20.759404
2070.554807	-2.982600	3.142400	-9.370900	28.239136	0.000294	20.764798
2071.555973	-2.982400	3.142100	-9.370100	28.170693	0.000293	20.750894
2072.555881	-2.983900	3.142100	-9.374000	28.073238	0.000292	20.745721
2073.563792	-2.996700	3.141700	-9.414000	28.058520	0.000293	20.745604
2074.559350	-3.035100	3.139900	-9.528900	28.075275	0.000291	20.752987
2075.554622	-3.007000	3.139700	-9.440300	28.096575	0.000292	20.746453
2076.556985	-3.003700	3.137800	-9.423300	28.113605	0.000291	20.744157
2077.554958	-2.998400	3.136900	-9.404200	28.134206	0.000290	20.753991
2078.558483	-3.021500	3.136500	-9.475600	28.104527	0.000288	20.747347
2079.556349	-3.018800	3.136000	-9.466800	28.131747	0.000288	20.747248
2080.565475	-3.006400	3.134700	-9.422800	28.170986	0.000287	20.742180
2081.568014	-2.987900	3.137300	-9.373300	28.167445	0.000286	20.747624
2082.560517	-2.984700	3.135700	-9.357900	28.165855	0.000284	20.753609
2083.567186	-2.985800	3.134800	-9.359400	28.177427	0.000284	20.746768
2084.563098	-3.024700	3.131300	-9.468900	28.233521	0.000283	20.735911
2085.562509	-2.985200	3.133200	-9.352500	28.241057	0.000284	20.743498
2086.564467	-3.000900	3.132400	-9.399600	28.238653	0.000283	20.753880
2087.558985	-2.994100	3.133000	-9.379500	28.242543	0.000280	20.750210
2088.558970	-3.005500	3.130300	-9.407400	28.268616	0.000282	20.754650
2089.563463	-2.987300	3.129800	-9.348600	28.283863	0.000281	20.737759
2090.559886	-2.980500	3.130200	-9.328300	28.331298	0.000283	20.745690
2091.559308	-2.964200	3.130600	-9.277900	28.305948	0.000281	20.750038
2092.559186	-3.000100	3.129000	-9.386700	28.316730	0.000279	20.742402
2093.559253	-2.983400	3.127200	-9.328900	28.275337	0.000280	20.738183
2094.561286	-2.992900	3.127900	-9.360100	28.318344	0.000276	20.729328
2095.561142	-2.986900	3.125900	-9.336500	28.309421	0.000276	20.750690
2096.564322	-2.992000	3.126000	-9.351300	28.321488	0.000277	20.740554
2097.561137	-3.001600	3.126600	-9.383500	28.302510	0.000276	20.740412
2098.563778	-3.015600	3.124500	-9.421100	28.315048	0.000275	20.744027
2099.564827	-2.990900	3.124000	-9.342800	28.290162	0.000276	20.736040
2100.565356	-2.996300	3.122600	-9.355600	28.274989	0.000272	20.759170
2101.561562	-2.995700	3.123700	-9.357400	28.276560	0.000274	20.711438
2102.562688	-3.008100	3.121600	-9.389600	28.259607	0.000271	20.732302
2103.563094	-2.984800	3.122500	-9.318900	28.270879	0.000270	20.732271
2104.564575	-2.979400	3.121700	-9.299300	28.279936	0.000270	20.739969
2105.567765	-2.990400	3.120900	-9.332000	28.256958	0.000270	20.725368
2106.568820	-3.005000	3.118500	-9.370900	28.215343	0.000268	20.750327
2107.569335	-3.005500	3.117800	-9.370000	28.233716	0.000269	20.756971
2108.562796	-2.996600	3.117800	-9.342300	28.221270	0.000268	20.745388
2109.564863	-3.009900	3.116600	-9.378700	28.242193	0.000269	20.747488
2110.571696	-2.998300	3.116200	-9.342800	28.288180	0.000267	20.728828
2111.566330	-2.996800	3.116700	-9.338400	28.329792	0.000266	20.705291
2112.565684	-2.989900	3.115700	-9.314400	28.371134	0.000266	20.751663
2113.569504	-2.986200	3.114800	-9.300000	28.400952	0.000265	20.739014
2114.570058	-2.999800	3.112800	-9.336600	28.435595	0.000264	20.718895
2115.574526	-3.011100	3.112700	-9.371700	28.445116	0.000266	20.728483
2116.574667	-3.001500	3.111800	-9.339400	28.418522	0.000263	20.727307
2117.567923	-2.980700	3.111600	-9.273200	28.387945	0.000263	20.703628
2118.567504	-3.000500	3.109200	-9.328000	28.328239	0.000262	20.726488
2119.568496	-3.033300	3.108500	-9.427700	28.294681	0.000261	20.722571
2120.568727	-2.990000	3.109200	-9.294100	28.238964	0.000259	20.727165
2121.574579	-2.994800	3.110600	-9.313400	28.166263	0.000258	20.713241
2122.572458	-3.035900	3.106000	-9.428500	28.104667	0.000258	20.738004
2123.571918	-3.013300	3.106300	-9.359100	28.035352	0.000259	20.730343
2124.581698	-3.002700	3.106000	-9.325300	28.012822	0.000256	20.726629
2125.577025	-3.026100	3.106000	-9.397000	28.002330	0.000258	20.727448
2126.574447	-3.016600	3.105400	-9.367100	28.029883	0.000256	20.740011
2127.574876	-3.000300	3.103800	-9.311900	28.060446	0.000257	20.717195
2128.571354	-2.999800	3.103500	-9.309100	28.112735	0.000255	20.713407
2129.571906	-2.995900	3.103700	-9.297100	28.185591	0.000254	20.731278
2130.573661	-2.969100	3.102600	-9.210400	28.244192	0.000254	20.751871
2131.577210	-2.981300	3.102100	-9.246800	28.300846	0.000252	20.706966
2132.577091	-2.993200	3.100400	-9.278700	28.359862	0.000253	20.739364
2133.575682	-2.985000	3.100700	-9.253700	28.411470	0.000251	20.730164
2134.573615	-3.006600	3.098700	-9.315500	28.405294	0.000251	20.711141
2135.575641	-2.996400	3.099000	-9.283400	28.409635	0.000252	20.722626
2136.573593	-2.956500	3.099900	-9.163600	28.365623	0.000251	20.707704
2137.580725	-3.023100	3.096100	-9.359000	28.303708	0.000249	20.722651
2138.574311	-3.015900	3.097100	-9.339400	28.283855	0.000250	20.720206
2139.580678	-3.022800	3.094900	-9.354100	28.278803	0.000248	20.702316
2140.579279	-3.022100	3.095400	-9.354300	28.301683	0.000250	20.709232
2141.578618	-2.986700	3.094900	-9.242900	28.307261	0.000247	20.723857
2142.581149	-2.999400	3.093000	-9.276200	28.331406	0.000246	20.705019
2143.582635	-3.001100	3.092300	-9.278900	28.347961	0.000246	20.702722
2144.579507	-2.999400	3.091600	-9.271800	28.393289	0.000246	20.717071
2145.577889	-2.982800	3.090700	-9.217900	28.442883	0.000244	20.714854
2146.578655	-2.986400	3.092900	-9.236000	28.462090	0.000244	20.719497
2147.580595	-2.996600	3.090900	-9.260300	28.428066	0.000245	20.729332
2148.579125	-2.997300	3.089000	-9.257900	28.458849	0.000244	20.703904
2149.583207	-3.003700	3.088000	-9.274200	28.481028	0.000242	20.737147
2150.582485	-2.990100	3.087900	-9.231200	28.483927	0.000245	20.715408
2151.578946	-3.025300	3.085700	-9.334000	28.507951	0.000244	20.682701
2152.581100	-2.995100	3.085800	-9.240500	28.551487	0.000242	20.708055
2153.579198	-2.970100	3.085000	-9.162300	28.557436	0.000242	20.700770
2154.577642	-2.991100	3.085000	-9.227100	28.565587	0.000240	20.706608
2155.582207	-3.000200	3.083100	-9.249300	28.562695	0.000241	20.719343
2156.578938	-2.995300	3.083900	-9.236400	28.580389	0.000240	20.701127
2157.585016	-3.002000	3.081000	-9.248400	28.589310	0.000239	20.707741
2158.580484	-3.023000	3.080300	-9.310700	28.598383	0.000238	20.693170
2159.585377	-2.990600	3.079100	-9.206200	28.645633	0.000238	20.693817
2160.581187	-2.994300	3.079400	-9.218700	28.596623	0.000239	20.689500
2161.581756	-3.010700	3.077100	-9.262700	28.598090	0.000239	20.686236
2162.580223	-3.011400	3.075900	-9.261500	28.649704	0.000238	20.706453
2163.585948	-2.984200	3.076400	-9.179500	28.667918	0.000235	20.714367
2164.582982	-3.011000	3.075800	-9.259800	28.636547	0.000234	20.701262
2165.582592	-2.996600	3.073700	-9.209700	28.690715	0.000236	20.707457
2166.584407	-2.984700	3.075300	-9.177800	28.718318	0.000235	20.681678
2167.584338	-3.005500	3.072800	-9.234300	28.734421	0.000233	20.680828
2168.589449	-2.986100	3.073300	-9.176100	28.731004	0.000235	20.682128
2169.588279	-3.009100	3.071100	-9.239800	28.746171	0.000232	20.686026
2170.582910	-3.000400	3.072000	-9.216500	28.700784	0.000234	20.679664
2171.586675	-3.012400	3.068800	-9.243900	28.676256	0.000233	20.700480
2172.583682	-3.025000	3.067700	-9.278300	28.662030	0.000233	20.699427
2173.586164	-3.023500	3.066300	-9.270200	28.634829	0.000230	20.683883
2174.587206	-2.986200	3.067000	-9.157600	28.589022	0.000232	20.695596
2175.587492	-3.000300	3.065500	-9.195700	28.496241	0.000233	20.696988
2176.587028	-3.007400	3.064100	-9.214200	28.458353	0.000230	20.710992
2177.586087	-3.012500	3.062000	-9.223100	28.419865	0.000232	20.677447
2178.588254	-2.976300	3.063500	-9.117400	28.409781	0.000229	20.693373
2179.587866	-2.990200	3.061700	-9.154200	28.449963	0.000231	20.676462
2180.594390	-3.018300	3.059800	-9.234400	28.488799	0.000230	20.688070
2181.588071	-2.990000	3.060900	-9.151100	28.539569	0.000229	20.700793
2182.590742	-2.989000	3.060300	-9.146000	28.564822	0.000229	20.669324
2183.599328	-2.990400	3.059200	-9.146600	28.562076	0.000229	20.688372
2184.594677	-2.977400	3.057400	-9.100700	28.558707	0.000230	20.679288
2185.590106	-2.982200	3.057600	-9.116900	28.526942	0.000226	20.674799
2186.590363	-2.998400	3.055000	-9.158200	28.543274	0.000226	20.674177
2187.586149	-2.969900	3.054900	-9.071700	28.531430	0.000227	20.692122
2188.587204	-3.009600	3.052800	-9.186900	28.580621	0.000225	20.694721
2189.589455	-2.985200	3.052700	-9.111600	28.580872	0.000228	20.659883
2190.592745	-2.989000	3.051600	-9.120000	28.587188	0.000227	20.683316
2191.589718	-3.003500	3.050100	-9.160200	28.619923	0.000225	20.680249
2192.585550	-2.986500	3.049700	-9.107100	28.596585	0.000228	20.676184
2193.590941	-2.997300	3.048400	-9.136000	28.632811	0.000227	20.676634
2194.589540	-2.997900	3.047000	-9.134100	28.654167	0.000225	20.686290
2195.598099	-3.012100	3.045000	-9.171000	28.702196	0.000223	20.689622
2196.586622	-3.013400	3.044500	-9.174200	28.719491	0.000222	20.669108
2197.596270	-3.007500	3.044600	-9.155800	28.751158	0.000225	20.679670
2198.592949	-2.991800	3.044000	-9.106400	28.805309	0.000222	20.701027
2199.589972	-2.981200	3.043000	-9.069800	28.809630	0.000223	20.688784
2200.597294	-3.017100	3.041100	-9.174400	28.758867	0.000223	20.670838
2201.590066	-2.967100	3.040700	-9.021100	28.720818	0.000224	20.674238
2202.592917	-3.002100	3.039200	-9.122800	28.743633	0.000223	20.677305
2203.586088	-2.999800	3.038200	-9.112600	28.713286	0.000221	20.684196
2204.589016	-3.016300	3.035900	-9.155600	28.700900	0.000223	20.683100
2205.593149	-3.005600	3.035200	-9.121500	28.681104	0.000224	20.666952
2206.594042	-3.020500	3.034500	-9.164700	28.657346	0.000221	20.685699
2207.589150	-3.019500	3.032000	-9.154200	28.645503	0.000222	20.696057
2208.590988	-2.991500	3.032400	-9.069100	28.613166	0.000221	20.660166
2209.592833	-3.018500	3.030600	-9.145900	28.634676	0.000222	20.671873
2210.590129	-3.014700	3.029000	-9.129700	28.654301	0.000219	20.683106
2211.594711	-3.015100	3.028600	-9.130300	28.656900	0.000219	20.671972
2212.592220	-3.000800	3.027700	-9.084800	28.672661	0.000219	20.677890
2213.597448	-3.002400	3.026000	-9.084100	28.665428	0.000218	20.680088
2214.589004	-2.993600	3.025900	-9.056700	28.661784	0.000221	20.689221
2215.591640	-3.008000	3.024700	-9.097400	28.597857	0.000219	20.673197
2216.592506	-3.006000	3.023100	-9.086400	28.562180	0.000218	20.682312
2217.594353	-3.004000	3.021500	-9.074900	28.527810	0.000219	20.668560
2218.590702	-3.013100	3.021600	-9.102600	28.512175	0.000215	20.683636
2219.594771	-2.987200	3.020900	-9.023600	28.499096	0.000218	20.668566
2220.593197	-3.010100	3.018000	-9.083400	28.537801	0.000217	20.713239
2221.595327	-3.009000	3.016700	-9.076500	28.541544	0.000221	20.693772
2222.596795	-3.004700	3.016000	-9.060900	28.594848	0.000219	20.677280
2223.597493	-3.007400	3.015600	-9.067600	28.644604	0.000217	20.679029
2224.595497	-2.995000	3.014200	-9.027100	28.673639	0.000218	20.665123
2225.592269	-3.006300	3.011900	-9.053100	28.662390	0.000217	20.678450
2226.605813	-3.006100	3.011000	-9.048900	28.678328	0.000215	20.665579
2227.598498	-2.993800	3.009700	-9.008800	28.651220	0.000216	20.683796
2228.600232	-2.985600	3.009900	-8.986000	28.593644	0.000215	20.682706
2229.598667	-3.005600	3.008100	-9.040000	28.566882	0.000219	20.678986
2230.598265	-2.996000	3.007700	-9.010000	28.504813	0.000216	20.678118
2231.599136	-3.000600	3.006000	-9.018700	28.486028	0.000217	20.682435
2232.602593	-2.994200	3.005100	-8.996400	28.421613	0.000216	20.689166
2233.601090	-3.021000	3.003400	-9.072100	28.397280	0.000216	20.685052
2234.596383	-2.982500	3.003000	-8.955100	28.445829	0.000217	20.695534
2235.598639	-2.983800	3.001100	-8.953500	28.470154	0.000216	20.674509
2236.597762	-2.985200	2.999300	-8.952200	28.472955	0.000215	20.683020
2237.600422	-3.007100	2.999100	-9.017800	28.497879	0.000215	20.672557
2238.601671	-3.000700	2.996800	-8.991800	28.493617	0.000216	20.695768
2239.601079	-2.991300	2.996700	-8.962900	28.539440	0.000214	20.685489
2240.600540	-3.027700	2.994100	-9.063800	28.607113	0.000215	20.715714
2241.599477	-3.001500	2.993000	-8.982200	28.633110	0.000215	20.687842
2242.601122	-3.012400	2.991200	-9.008500	28.686973	0.000214	20.692781
2243.603104	-2.959800	2.991300	-8.851600	28.705827	0.000212	20.698496
2244.599677	-2.974300	2.990600	-8.892800	28.734444	0.000215	20.687017
2245.601895	-3.003700	2.987600	-8.972800	28.739891	0.000214	20.679700
2246.601824	-3.000300	2.986300	-8.958300	28.756049	0.000214	20.692183
2247.602713	-3.014700	2.985400	-8.999300	28.719191	0.000213	20.685877
2248.598028	-2.996300	2.983600	-8.939400	28.700233	0.000215	20.697129
2249.608725	-3.016600	2.981900	-8.993700	28.677864	0.000213	20.683605
2250.599069	-2.989300	2.980900	-8.910300	28.682718	0.000212	20.694185
2251.599362	-3.008800	2.979000	-8.962000	28.720928	0.000212	20.700904
2252.598367	-2.971700	2.978800	-8.850300	28.776467	0.000212	20.683826
2253.601506	-3.027000	2.976800	-9.010000	28.763373	0.000213	20.706674
2254.606318	-2.977700	2.975400	-8.859300	28.744641	0.000214	20.688753
2255.604308	-2.988300	2.975700	-8.890900	28.723281	0.000211	20.693317
2256.606946	-3.028900	2.971100	-8.998200	28.714515	0.000213	20.676898
2257.600904	-3.020000	2.970900	-8.971300	28.693680	0.000213	20.682940
2258.603965	-3.013000	2.970000	-8.947200	28.655518	0.000213	20.691919
2259.608172	-3.040200	2.967700	-9.020200	28.665508	0.000213	20.695817
2260.605207	-3.009800	2.966600	-8.927600	28.659834	0.000214	20.710018
2261.606384	-2.973500	2.966200	-8.819600	28.700539	0.000215	20.690798
2262.607307	-3.016700	2.963800	-8.939800	28.744813	0.000211	20.689874
2263.605931	-2.995800	2.962700	-8.874400	28.784677	0.000213	20.707746
2264.611176	-2.998000	2.962100	-8.878900	28.809869	0.000211	20.693766
2265.603626	-2.989800	2.960300	-8.849300	28.774046	0.000210	20.708417
2266.606563	-3.002900	2.957300	-8.879400	28.784304	0.000211	20.704525
2267.605162	-2.963100	2.957600	-8.761900	28.768294	0.000212	20.700725
2268.604264	-3.006100	2.954900	-8.881400	28.777439	0.000211	20.699506
2269.610440	-3.015900	2.952100	-8.902900	28.740918	0.000212	20.695435
2270.605016	-2.997400	2.951200	-8.845100	28.765341	0.000212	20.689215
2271.611223	-3.011700	2.950100	-8.882700	28.813628	0.000212	20.676689
2272.604854	-2.998100	2.949500	-8.842600	28.849718	0.000213	20.704512
2273.608678	-2.991600	2.947600	-8.817200	28.911675	0.000211	20.684898
2274.608446	-3.022200	2.944100	-8.895100	28.942236	0.000212	20.708577
2275.613261	-3.021700	2.943000	-8.891300	28.966312	0.000211	20.702012
2276.609072	-2.983400	2.942000	-8.775500	29.009584	0.000210	20.719533
2277.607926	-2.964700	2.941800	-8.719900	29.031183	0.000211	20.716638
2278.609684	-2.977200	2.939700	-8.749700	29.056644	0.000211	20.714791
2279.610107	-3.000200	2.936300	-8.808400	29.086566	0.000211	20.707481
2280.612506	-3.032700	2.935500	-8.901400	29.062267	0.000211	20.715240
2281.608014	-3.014300	2.932600	-8.838500	29.051657	0.000214	20.712136
2282.613872	-3.005600	2.931300	-8.808500	29.074202	0.000210	20.729638
2283.611799	-2.983000	2.931500	-8.743900	29.096606	0.000210	20.710960
2284.609571	-3.027300	2.927900	-8.862800	29.052922	0.000212	20.707721
2285.609375	-3.006600	2.926200	-8.796600	28.995484	0.000212	20.700109
2286.610852	-3.009900	2.926100	-8.805600	29.016191	0.000211	20.713387
2287.609745	-2.972100	2.925600	-8.694200	29.046309	0.000212	20.727612
2288.609164	-3.016400	2.923000	-8.814700	29.029050	0.000210	20.700263
2289.612562	-2.994400	2.921900	-8.748200	29.023122	0.000208	20.724638
2290.613131	-3.016500	2.920000	-8.807600	29.001572	0.000211	20.717624
2291.616866	-3.001500	2.917800	-8.757200	29.008191	0.000211	20.710541
2292.615283	-2.980200	2.917700	-8.694500	29.020689	0.000212	20.731196
2293.614962	-3.007500	2.914600	-8.764000	29.061435	0.000211	20.712980
2294.614466	-3.005600	2.911700	-8.749600	29.071073	0.000211	20.718898
2295.619190	-3.003100	2.911300	-8.741600	29.083681	0.000209	20.710264
2296.621045	-2.998000	2.910000	-8.724100	29.079360	0.000209	20.717291
2297.611131	-2.972700	2.907100	-8.639800	29.112942	0.000210	20.728844
2298.614915	-3.007700	2.904900	-8.735100	29.129191	0.000210	20.721509
2299.616530	-3.003700	2.904100	-8.722100	29.132064	0.000210	20.712549
2300.615937	-2.982700	2.903400	-8.659000	29.160559	0.000208	20.714237
2301.616141	-2.994900	2.901400	-8.688700	29.179136	0.000209	20.730587
2302.619002	-3.007700	2.898500	-8.717100	29.161574	0.000211	20.721423
2303.616792	-3.016900	2.895400	-8.734300	29.155933	0.000210	20.708152
2304.617080	-3.026300	2.895000	-8.758700	29.122298	0.000209	20.708873
2305.621954	-2.984700	2.894100	-8.637500	29.107387	0.000210	20.712340
2306.620254	-3.000800	2.891100	-8.674400	29.096118	0.000210	20.730858
2307.621899	-2.979500	2.889800	-8.609700	29.123380	0.000209	20.721817
2308.618891	-2.970900	2.889500	-8.582800	29.092549	0.000209	20.709716
2309.623058	-3.030400	2.883700	-8.737200	29.086871	0.000209	20.733869
2310.615998	-3.016300	2.882500	-8.693800	29.121223	0.000208	20.710634
2311.619918	-3.012500	2.881100	-8.678100	29.169322	0.000209	20.733974
2312.619898	-2.998800	2.879900	-8.635100	29.135761	0.000208	20.745200
2313.620028	-3.017200	2.877700	-8.679800	29.120905	0.000212	20.726910
2314.619761	-3.022800	2.875300	-8.690000	29.095024	0.000209	20.720746
2315.618718	-3.020700	2.873200	-8.678400	29.089255	0.000208	20.744806
2316.618968	-2.974400	2.872600	-8.543400	29.057054	0.000207	20.729429
2317.628863	-2.979500	2.870200	-8.550800	29.078358	0.000211	20.735723
2318.619781	-3.007300	2.869300	-8.628000	29.086382	0.000209	20.748550
2319.617441	-3.013800	2.865300	-8.634700	29.098965	0.000209	20.749849
2320.618146	-2.969400	2.865200	-8.506700	29.106641	0.000209	20.722495
2321.616657	-3.021400	2.862500	-8.647200	29.141346	0.000208	20.727594
2322.618599	-2.994500	2.860300	-8.564100	29.163884	0.000209	20.738925
2323.625552	-2.979600	2.859600	-8.519100	29.187215	0.000208	20.717864
2324.621065	-3.004300	2.856800	-8.581200	29.193827	0.000209	20.749184
2325.625620	-2.996400	2.855000	-8.552900	29.217970	0.000209	20.729417
2326.618539	-2.995400	2.853100	-8.544400	29.193332	0.000208	20.737305
2327.621775	-2.973900	2.850900	-8.476000	29.153807	0.000209	20.755324
2328.621041	-2.999200	2.847500	-8.539400	29.153367	0.000210	20.764838
2329.622753	-2.983300	2.846100	-8.489800	29.163621	0.000209	20.745773
2330.629161	-3.002000	2.842700	-8.532600	29.165650	0.000209	20.730273
2331.623339	-2.997400	2.840700	-8.514200	29.145923	0.000208	20.753070
2332.625468	-2.994400	2.839100	-8.500600	29.108371	0.000209	20.760749
2333.624869	-3.013900	2.837700	-8.551500	29.065255	0.000208	20.751918
2334.623647	-2.990200	2.834800	-8.475600	29.063354	0.000209	20.729139
2335.628335	-2.991900	2.832100	-8.472000	29.044946	0.000207	20.736197
2336.621837	-3.005900	2.830900	-8.508800	29.018446	0.000207	20.727988
2337.629493	-3.001700	2.827800	-8.487400	28.962547	0.000206	20.744215
2338.622383	-3.012500	2.826000	-8.511600	28.954717	0.000208	20.746758
2339.629155	-3.009700	2.822200	-8.492700	28.992349	0.000210	20.745791
2340.625262	-3.015200	2.820000	-8.500300	29.021184	0.000209	20.754455
2341.624429	-2.990700	2.818700	-8.428600	29.058062	0.000207	20.757473
2342.628507	-2.989200	2.816200	-8.417300	29.100524	0.000206	20.749997
2343.630508	-2.990800	2.813800	-8.414600	29.134453	0.000206	20.743882
2344.632288	-3.007400	2.812200	-8.456800	29.161940	0.000208	20.747872
2345.628651	-2.984600	2.809700	-8.384700	29.180144	0.000207	20.746776
2346.634979	-2.982100	2.808800	-8.375100	29.177920	0.000209	20.760657
2347.629359	-2.974500	2.805700	-8.345300	29.132675	0.000207	20.734977
2348.629647	-3.000500	2.802300	-8.407500	29.150287	0.000207	20.766950
2349.630129	-2.980400	2.801100	-8.347400	29.153208	0.000205	20.765626
2350.627962	-3.015600	2.796600	-8.432100	29.175030	0.000206	20.755373
2351.628502	-3.028300	2.793300	-8.458500	29.151827	0.000208	20.746216
2352.633060	-2.990600	2.791900	-8.348300	29.111536	0.000210	20.759197
2353.632531	-3.006500	2.790300	-8.387300	29.123820	0.000207	20.767781
2354.632768	-3.048400	2.785600	-8.488800	29.133005	0.000208	20.762338
2355.633081	-3.016600	2.783400	-8.395000	29.111689	0.000206	20.768834
2356.631342	-3.016100	2.780400	-8.384300	29.088686	0.000208	20.780744
2357.636235	-2.981700	2.781100	-8.291500	29.115160	0.000209	20.760952
2358.636143	-2.993800	2.777500	-8.314300	29.124950	0.000209	20.754696
2359.633832	-3.011100	2.772400	-8.346700	29.149144	0.000209	20.761531
2360.635052	-2.974400	2.770300	-8.238200	29.177352	0.000208	20.768145
2361.631850	-3.036900	2.765600	-8.397700	29.138621	0.000209	20.754246
2362.633895	-2.993200	2.765400	-8.276300	29.109703	0.000208	20.773946
2363.636515	-3.009600	2.761800	-8.310900	29.074037	0.000208	20.750810
2364.637447	-2.992500	2.760200	-8.259500	29.072283	0.000207	20.764216
2365.639544	-2.999100	2.755800	-8.263600	29.076250	0.000208	20.781015
2366.640502	-2.985800	2.753400	-8.220700	29.110082	0.000207	20.767689
2367.638319	-2.990600	2.751300	-8.227400	29.178311	0.000207	20.750619
2368.639182	-3.002200	2.746900	-8.245800	29.227301	0.000208	20.772486
2369.640725	-3.016900	2.743500	-8.275200	29.216228	0.000210	20.756112
2370.637193	-2.986300	2.742100	-8.188100	29.187655	0.000207	20.761457
2371.639712	-2.984100	2.738300	-8.170100	29.188156	0.000206	20.781403
2372.642723	-2.974200	2.735200	-8.134100	29.222009	0.000208	20.769524
2373.645496	-2.974400	2.731300	-8.123200	29.269304	0.000211	20.774038
2374.640007	-3.006900	2.727900	-8.201800	29.323067	0.000209	20.782228
2375.636289	-3.012600	2.724200	-8.205500	29.358724	0.000208	20.783078
2376.643634	-3.028800	2.719000	-8.234500	29.388320	0.000209	20.775923
2377.639839	-3.005300	2.717700	-8.166200	29.421250	0.000208	20.772604
2378.637307	-2.983700	2.715100	-8.099300	29.428434	0.000210	20.763724
2379.638869	-2.989800	2.710100	-8.100500	29.404345	0.000209	20.757461
2380.640703	-3.007300	2.706600	-8.136800	29.404547	0.000208	20.773312
2381.638265	-3.001500	2.705500	-8.119600	29.371023	0.000208	20.778879
2382.640632	-3.002200	2.699800	-8.103100	29.356592	0.000209	20.779507
2383.643278	-3.038500	2.695400	-8.188200	29.327002	0.000208	20.776711
2384.638576	-2.993100	2.692100	-8.056900	29.327271	0.000209	20.804009
2385.641828	-2.989700	2.689000	-8.037500	29.358205	0.000211	20.781607
2386.637935	-3.003900	2.685100	-8.064800	29.430603	0.000209	20.786299
2387.644396	-3.013100	2.680800	-8.076800	29.437489	0.000210	20.773324
2388.643116	-2.993400	2.677800	-8.014800	29.439297	0.000210	20.794113
2389.638662	-2.970500	2.674900	-7.944900	29.437788	0.000209	20.777419
2390.641441	-3.002900	2.670300	-8.017700	29.413235	0.000207	20.760731
2391.641496	-2.983600	2.665900	-7.953100	29.397729	0.000210	20.799631
2392.650502	-3.000100	2.662400	-7.985000	29.399910	0.000209	20.768638
2393.642778	-3.015900	2.657900	-8.015000	29.452444	0.000209	20.777019
2394.642645	-2.992100	2.654300	-7.940800	29.494438	0.000210	20.785209
2395.643949	-3.007200	2.649200	-7.965100	29.498324	0.000209	20.790074
2396.645045	-2.972500	2.646200	-7.865200	29.517756	0.000209	20.792592
2397.647778	-2.981900	2.641000	-7.873800	29.532784	0.000210	20.773601
2398.650019	-3.002700	2.636200	-7.915000	29.564030	0.000209	20.808418
2399.641578	-2.998800	2.633000	-7.894800	29.605445	0.000210	20.788054
2400.646219	-3.000100	2.626500	-7.879000	29.680770	0.000207	20.769162
2401.641340	-2.953100	2.623900	-7.747400	29.692974	0.000208	20.805173
2402.642517	-3.003900	2.619400	-7.867700	29.745323	0.000209	20.799157
2403.649418	-3.029500	2.610000	-7.905800	29.769032	0.000206	20.790819
2404.645147	-2.985800	2.607600	-7.784800	29.765618	0.000207	20.819145
2405.650128	-2.977400	2.602400	-7.746900	29.748419	0.000206	20.794692
2406.646667	-3.027200	2.596400	-7.857800	29.711902	0.000208	20.805290
2407.645237	-3.009000	2.591200	-7.795200	29.659405	0.000207	20.789347
2408.643927	-3.036000	2.585700	-7.849100	29.599178	0.000208	20.794538
2409.644674	-3.018500	2.581000	-7.788900	29.586503	0.000209	20.807839
2410.644785	-2.988700	2.575800	-7.697200	29.552234	0.000206	20.813122
2411.645176	-2.990200	2.570900	-7.685300	29.580339	0.000207	20.806842
2412.644380	-2.993100	2.565400	-7.677200	29.622200	0.000206	20.820592
2413.643984	-3.003000	2.559400	-7.685000	29.703461	0.000207	20.812901
2414.648839	-3.003200	2.552700	-7.664600	29.713636	0.000208	20.822211
2415.653300	-2.989100	2.548300	-7.615900	29.729278	0.000207	20.815222
2416.649332	-2.957500	2.543000	-7.518600	29.693670	0.000207	20.793073
2417.650409	-2.952200	2.536300	-7.486200	29.736314	0.000207	20.827532
2418.647076	-2.991100	2.529900	-7.565700	29.757477	0.000207	20.820894
2419.651359	-3.001400	2.522300	-7.569100	29.788240	0.000205	20.802125
2420.651863	-3.023600	2.515800	-7.605300	29.782248	0.000207	20.812679
2421.649366	-3.044700	2.509800	-7.640300	29.818311	0.000208	20.800678
2422.651019	-2.973700	2.505200	-7.448800	29.810018	0.000208	20.794212
2423.646139	-3.000300	2.498700	-7.496000	29.814030	0.000209	20.803473
