LabVIEW Measurement	
Writer_Version	2
Reader_Version	2
Separator	Tab
Decimal_Separator	.
Multi_Headings	No
X_Columns	One
Time_Pref	Absolute
Operator	admin
Description	Clolumns are: time, Current, Voltage, Power, Battery Temp, and Chamber Temp
Date	2024/08/16
Time	13:06:06.104549407958984375
***End_of_Header***	
	
Channels	6						
Samples	1	1	1	1	1	1	
Date	2024/08/31	2024/08/31	2024/08/31	2024/08/31	2024/08/31	2024/08/31	
Time	01:00:01.9786481857299804688	01:00:01.9856600761413574219	01:00:01.990795135498046875	01:00:01.9633498191833496094	01:00:01.9633498191833496094	01:00:01.9633498191833496094	
X_Dimension	Time	Time	Time	Time	Time	Time	
X0	0.0000000000000000E+0	0.0000000000000000E+0	0.0000000000000000E+0	0.0000000000000000E+0	0.0000000000000000E+0	0.0000000000000000E+0	
Delta_X	1.000000	1.000000	1.000000	1.000000	1.000000	1.000000	
***End_of_Header***							
X_Value	Untitled	Untitled 1	Untitled 2	Untitled 3	Untitled 4	Untitled 5	Comment
0.000000	0.024588	4.104300	0.100890	21.060309	0.000961	20.845546
1.003742	-2.996500	3.940900	-11.807000	21.061334	0.000962	20.844201
2.002638	-3.003700	3.932400	-11.811000	21.078312	0.000959	20.858337
3.001102	-3.003600	3.927800	-11.796000	21.055774	0.000961	20.835321
4.001940	-3.011200	3.922000	-11.809000	21.069893	0.000957	20.864614
5.002649	-2.999300	3.919600	-11.755000	21.036658	0.000958	20.844175
6.002262	-2.981900	3.917200	-11.680000	21.059361	0.000956	20.830848
7.001577	-2.989400	3.914200	-11.699000	21.058413	0.000957	20.844124
8.003664	-2.996200	3.912100	-11.720000	21.074644	0.000956	20.843763
9.004174	-2.981600	3.911700	-11.661000	21.069507	0.000952	20.842892
10.002210	-2.981000	3.909500	-11.653000	21.059361	0.000952	20.841753
11.007749	-3.010100	3.906800	-11.758000	21.077694	0.000953	20.823107
12.002825	-3.012400	3.904000	-11.759000	21.075272	0.000951	20.834435
13.001904	-3.011600	3.902500	-11.752000	21.095053	0.000950	20.846160
14.007245	-2.990800	3.902100	-11.670000	21.099294	0.000951	20.843763
15.005096	-3.004400	3.901100	-11.719000	21.105636	0.000949	20.824978
16.005319	-2.968800	3.900800	-11.580000	21.090045	0.000950	20.844469
17.003165	-2.980400	3.898800	-11.619000	21.075412	0.000949	20.823669
18.003219	-3.010400	3.896700	-11.729000	21.126493	0.000949	20.843944
19.003026	-3.001800	3.895700	-11.693000	21.110068	0.000947	20.850273
20.007164	-2.999200	3.896000	-11.684000	21.104611	0.000946	20.820159
21.005443	-2.983600	3.894700	-11.620000	21.125839	0.000945	20.822901
22.009331	-2.992800	3.893500	-11.651000	21.110182	0.000945	20.845171
23.005048	-3.001400	3.894000	-11.686000	21.110696	0.000947	20.829565
24.005258	-3.017200	3.892400	-11.742000	21.132450	0.000945	20.818608
25.010521	-3.008200	3.891700	-11.705000	21.129513	0.000945	20.827999
26.004876	-2.968000	3.892000	-11.549000	21.143775	0.000943	20.838945
27.010021	-2.984500	3.890700	-11.611000	21.160504	0.000945	20.827231
28.005650	-3.002800	3.887700	-11.672000	21.139787	0.000942	20.831638
29.008496	-3.002800	3.887300	-11.672000	21.150962	0.000942	20.836177
30.010365	-2.987900	3.889300	-11.620000	21.160978	0.000942	20.808739
31.010947	-3.008200	3.887800	-11.695000	21.171098	0.000942	20.809853
32.010575	-3.012200	3.886600	-11.706000	21.172457	0.000942	20.821170
33.009149	-3.006400	3.885900	-11.681000	21.194529	0.000940	20.820016
34.009728	-2.994200	3.886300	-11.634000	21.200500	0.000941	20.819351
35.014277	-2.989100	3.884800	-11.611000	21.186064	0.000939	20.827668
36.012240	-3.004400	3.884100	-11.669000	21.202499	0.000940	20.828936
37.010708	-2.990600	3.883000	-11.612000	21.192891	0.000940	20.820747
38.012318	-2.979200	3.883800	-11.568000	21.207610	0.000938	20.831678
39.010533	-2.995300	3.883100	-11.630000	21.226749	0.000938	20.819531
40.013455	-3.004200	3.881700	-11.660000	21.222241	0.000939	20.828771
41.011657	-2.982300	3.882000	-11.576000	21.214915	0.000939	20.825710
42.011970	-3.016000	3.881900	-11.707000	21.235667	0.000938	20.810908
43.011899	-3.002200	3.881100	-11.651000	21.242828	0.000937	20.819020
44.011824	-2.996500	3.881200	-11.629000	21.250334	0.000938	20.830322
45.016460	-3.008300	3.880000	-11.671000	21.251040	0.000936	20.808269
46.012863	-2.997400	3.881300	-11.633000	21.269128	0.000936	20.816881
47.012355	-2.993200	3.879000	-11.609000	21.248876	0.000936	20.828863
48.013287	-3.025300	3.878600	-11.733000	21.245275	0.000938	20.833796
49.012763	-3.015600	3.878600	-11.695000	21.275727	0.000934	20.804991
50.012827	-2.999900	3.877500	-11.632000	21.260457	0.000934	20.826224
51.017302	-3.014900	3.877400	-11.689000	21.297889	0.000934	20.824791
52.015798	-3.025300	3.875800	-11.724000	21.297080	0.000936	20.804542
53.014633	-3.009200	3.876600	-11.665000	21.299156	0.000936	20.825585
54.015150	-3.016600	3.875600	-11.690000	21.286911	0.000935	20.826136
55.013728	-3.004100	3.877000	-11.646000	21.302077	0.000934	20.806696
56.018845	-2.992400	3.876600	-11.599000	21.293072	0.000935	20.806696
57.015386	-3.022100	3.874100	-11.706000	21.314352	0.000933	20.807597
58.037290	-2.981900	3.876600	-11.559000	21.312530	0.000933	20.808145
59.015947	-2.990900	3.875100	-11.588000	21.315259	0.000935	20.804712
60.017922	-2.990500	3.874200	-11.584000	21.349140	0.000934	20.811107
61.020246	-2.997400	3.875100	-11.615000	21.332130	0.000932	20.819694
62.016796	-3.001400	3.873700	-11.626000	21.336205	0.000933	20.813339
63.021179	-3.016900	3.874800	-11.689000	21.325536	0.000931	20.812622
64.017198	-3.001700	3.871600	-11.620000	21.345467	0.000932	20.808380
65.018160	-2.984000	3.874400	-11.560000	21.356635	0.000933	20.793002
66.019501	-2.989400	3.875000	-11.583000	21.378656	0.000931	20.801283
67.024952	-2.998700	3.873100	-11.614000	21.378440	0.000931	20.804385
68.017570	-2.987900	3.873600	-11.572000	21.376184	0.000933	20.798335
69.018383	-3.008900	3.872200	-11.649000	21.368730	0.000930	20.816482
70.018044	-2.996600	3.871900	-11.602000	21.386022	0.000932	20.815291
71.017509	-2.992900	3.870100	-11.581000	21.387712	0.000934	20.812714
72.022885	-2.975800	3.871200	-11.519000	21.395732	0.000933	20.800824
73.018591	-2.978300	3.871500	-11.529000	21.419427	0.000930	20.810781
74.019771	-2.986000	3.870400	-11.556000	21.429214	0.000931	20.787857
75.020241	-2.995000	3.869600	-11.588000	21.427653	0.000933	20.805261
76.028424	-3.010400	3.869400	-11.648000	21.458940	0.000932	20.799582
77.021404	-2.980300	3.870900	-11.535000	21.455675	0.000932	20.805797
78.022822	-3.018800	3.868800	-11.678000	21.441741	0.000932	20.814615
79.018729	-2.997500	3.869300	-11.596000	21.466126	0.000929	20.800607
80.022568	-3.018700	3.868200	-11.676000	21.467805	0.000930	20.819831
81.019921	-2.975400	3.868700	-11.510000	21.471662	0.000932	20.813259
82.020377	-3.002400	3.870100	-11.619000	21.473120	0.000934	20.818511
83.024227	-2.995200	3.867900	-11.584000	21.512338	0.000931	20.809863
84.024726	-2.995900	3.870000	-11.592000	21.505858	0.000930	20.794370
85.028859	-3.000600	3.868200	-11.607000	21.494217	0.000932	20.809749
86.025901	-3.013500	3.865900	-11.648000	21.537210	0.000929	20.801560
87.021862	-2.993800	3.866800	-11.575000	21.541834	0.000929	20.806187
88.026773	-2.999700	3.867400	-11.599000	21.529360	0.000930	20.804136
89.025682	-2.992200	3.867700	-11.571000	21.556359	0.000929	20.807919
90.024540	-3.002000	3.866100	-11.604000	21.539043	0.000932	20.795333
91.025870	-3.001600	3.864700	-11.599000	21.560979	0.000931	20.793576
92.028532	-3.004700	3.865300	-11.612000	21.543333	0.000932	20.802946
93.027104	-2.983000	3.866900	-11.533000	21.565119	0.000930	20.813840
94.033186	-3.008700	3.864700	-11.627000	21.569101	0.000931	20.805971
95.031674	-3.001600	3.864900	-11.600000	21.572510	0.000930	20.803218
96.030140	-2.994300	3.865000	-11.572000	21.565747	0.000931	20.822055
97.031342	-2.993300	3.864200	-11.566000	21.561343	0.000932	20.800579
98.027048	-3.001200	3.864800	-11.598000	21.561292	0.000931	20.816174
99.035346	-3.022900	3.864100	-11.679000	21.587636	0.000932	20.803656
100.030221	-3.008700	3.863500	-11.623000	21.575867	0.000932	20.793302
101.028155	-3.003300	3.863200	-11.601000	21.588635	0.000932	20.786163
102.046924	-2.999700	3.864500	-11.591000	21.581028	0.000930	20.805578
103.032434	-3.002300	3.863300	-11.598000	21.608576	0.000934	20.811334
104.031141	-3.011800	3.861600	-11.630000	21.636516	0.000930	20.796146
105.027826	-3.005700	3.862800	-11.610000	21.610611	0.000931	20.800094
106.027627	-2.994300	3.863300	-11.567000	21.629373	0.000931	20.802274
107.030611	-3.018200	3.860600	-11.651000	21.648006	0.000930	20.829929
108.030747	-2.994700	3.862900	-11.566000	21.651297	0.000932	20.807618
109.032259	-2.999400	3.861100	-11.579000	21.646955	0.000932	20.796161
110.031344	-2.989200	3.863400	-11.547000	21.667009	0.000933	20.824291
111.031882	-2.989900	3.861600	-11.544000	21.675038	0.000932	20.796290
112.034124	-2.997700	3.859700	-11.569000	21.675372	0.000933	20.815591
113.031029	-2.987100	3.861000	-11.532000	21.673987	0.000931	20.811360
114.036583	-3.002500	3.859900	-11.588000	21.674759	0.000931	20.821141
115.033469	-3.005400	3.860000	-11.600000	21.690471	0.000934	20.822167
116.032785	-2.985200	3.862100	-11.528000	21.676577	0.000933	20.809210
117.030694	-3.018200	3.859700	-11.648000	21.684158	0.000934	20.809684
118.036841	-2.985600	3.860100	-11.524000	21.690688	0.000932	20.818590
119.033014	-3.001100	3.858200	-11.577000	21.715340	0.000933	20.821924
120.033390	-3.004500	3.859100	-11.593000	21.712909	0.000930	20.819965
121.032697	-2.970500	3.858900	-11.461000	21.738837	0.000931	20.813673
122.032402	-3.011800	3.857300	-11.616000	21.733832	0.000934	20.822887
123.034677	-3.013100	3.858500	-11.625000	21.755280	0.000933	20.815430
124.045174	-3.019100	3.858600	-11.649000	21.744460	0.000933	20.807447
125.032756	-2.999800	3.858600	-11.574000	21.742540	0.000933	20.830180
126.036384	-3.022300	3.858600	-11.661000	21.747200	0.000933	20.804499
127.033341	-3.000600	3.857200	-11.573000	21.785461	0.000935	20.796324
128.033740	-2.990300	3.856800	-11.532000	21.796331	0.000933	20.821429
129.033774	-3.002300	3.859100	-11.585000	21.795193	0.000936	20.810806
130.034698	-3.004300	3.857800	-11.589000	21.784539	0.000934	20.819584
131.033465	-2.993500	3.856700	-11.544000	21.792314	0.000935	20.821201
132.034025	-2.986000	3.856700	-11.515000	21.819930	0.000934	20.808539
133.035577	-3.006200	3.857700	-11.596000	21.802711	0.000935	20.830184
134.034973	-2.992200	3.856800	-11.540000	21.843462	0.000935	20.824979
135.044998	-3.013400	3.856200	-11.620000	21.845306	0.000934	20.830143
136.036205	-2.981500	3.857800	-11.500000	21.818061	0.000934	20.826582
137.037646	-2.972500	3.856800	-11.464000	21.843822	0.000936	20.831978
138.037889	-2.991700	3.855600	-11.532000	21.871324	0.000936	20.845753
139.035981	-2.977400	3.855900	-11.479000	21.860006	0.000937	20.824943
140.041245	-3.010900	3.856300	-11.610000	21.863157	0.000937	20.824303
141.039806	-2.996400	3.855700	-11.553000	21.867534	0.000938	20.845279
142.036592	-2.999600	3.854100	-11.560000	21.862529	0.000937	20.838847
143.036124	-2.982800	3.855000	-11.498000	21.858971	0.000937	20.848562
144.036225	-3.004100	3.855500	-11.580000	21.867560	0.000938	20.860477
145.037890	-3.006400	3.854400	-11.586000	21.886611	0.000936	20.832132
146.054562	-3.024000	3.853200	-11.651000	21.874089	0.000938	20.828133
147.038035	-3.012300	3.853000	-11.605000	21.897290	0.000939	20.841398
148.045681	-2.980100	3.854400	-11.485000	21.886534	0.000939	20.833003
149.040172	-3.001100	3.852300	-11.560000	21.915841	0.000939	20.835312
150.043568	-2.999500	3.853500	-11.558000	21.895688	0.000937	20.855916
151.040182	-2.996700	3.852600	-11.543000	21.907083	0.000937	20.835554
152.040181	-2.991800	3.854300	-11.530000	21.900719	0.000940	20.816382
153.042349	-2.991300	3.853600	-11.526000	21.930973	0.000939	20.867527
154.040956	-2.991200	3.853300	-11.523000	21.942074	0.000941	20.846871
155.043094	-2.993900	3.853000	-11.534000	21.942970	0.000941	20.834492
156.040825	-2.987800	3.853600	-11.513000	21.927349	0.000940	20.848727
157.044213	-2.977600	3.854300	-11.476000	21.946466	0.000941	20.846052
158.042929	-3.007700	3.851000	-11.582000	21.954081	0.000941	20.838502
159.042391	-3.013800	3.850600	-11.604000	21.957283	0.000942	20.877267
160.044923	-3.012900	3.851300	-11.603000	21.982810	0.000942	20.837863
161.041882	-2.983700	3.852200	-11.492000	21.956094	0.000943	20.817758
162.042858	-3.001700	3.851300	-11.560000	21.975092	0.000943	20.845783
163.046072	-3.011800	3.849800	-11.593000	21.983449	0.000944	20.853200
164.045306	-3.014300	3.850100	-11.603000	21.988082	0.000943	20.853097
165.044704	-2.999200	3.850300	-11.547000	21.995367	0.000942	20.837631
166.042585	-3.002500	3.849800	-11.558000	22.005715	0.000944	20.833765
167.044837	-3.004000	3.849800	-11.564000	21.994296	0.000945	20.849834
168.045144	-3.001800	3.849300	-11.554000	22.034927	0.000945	20.858739
169.044593	-3.007500	3.850800	-11.580000	22.019744	0.000944	20.866300
170.048249	-3.005300	3.848900	-11.567000	22.017798	0.000944	20.873360
171.045273	-2.977300	3.849300	-11.460000	21.997406	0.000947	20.841094
172.046089	-2.993000	3.849900	-11.522000	22.023879	0.000946	20.869964
173.045901	-2.984500	3.848700	-11.484000	22.033583	0.000945	20.863084
174.046529	-3.022800	3.848500	-11.632000	22.059659	0.000946	20.866903
175.047801	-3.002100	3.848500	-11.552000	22.057919	0.000946	20.847618
176.045995	-3.021300	3.847400	-11.624000	22.077940	0.000948	20.869556
177.046789	-3.008100	3.848300	-11.575000	22.095247	0.000947	20.841840
178.050297	-3.004400	3.847600	-11.559000	22.079886	0.000948	20.860600
179.050005	-2.992800	3.848800	-11.518000	22.106063	0.000949	20.862151
180.047628	-2.997700	3.848300	-11.534000	22.093456	0.000948	20.859486
181.050991	-3.015400	3.846000	-11.595000	22.100164	0.000948	20.865253
182.049350	-2.987600	3.847400	-11.493000	22.109790	0.000950	20.872045
183.047723	-2.991400	3.847400	-11.508000	22.123026	0.000949	20.867278
184.055259	-3.017600	3.846100	-11.605000	22.146309	0.000949	20.879682
185.048837	-3.007200	3.847100	-11.568000	22.145465	0.000951	20.884053
186.049169	-3.010300	3.845000	-11.573000	22.149727	0.000950	20.878837
187.050761	-2.994200	3.846400	-11.516000	22.147246	0.000951	20.852173
188.048523	-3.008000	3.846400	-11.569000	22.168058	0.000950	20.865896
189.052150	-3.001600	3.845300	-11.541000	22.175599	0.000952	20.894307
190.053566	-3.007500	3.844300	-11.561000	22.183624	0.000954	20.877213
191.050807	-2.997300	3.844100	-11.521000	22.162225	0.000951	20.860531
192.054286	-2.983500	3.845500	-11.472000	22.175023	0.000951	20.888989
193.049391	-2.987600	3.846100	-11.489000	22.180016	0.000952	20.875023
194.052982	-2.990800	3.844900	-11.499000	22.196132	0.000951	20.864607
195.049973	-3.009100	3.843700	-11.564000	22.202237	0.000953	20.879728
196.051966	-3.002500	3.842600	-11.536000	22.217803	0.000954	20.873028
197.051436	-2.998200	3.844300	-11.524000	22.221232	0.000957	20.874564
198.051443	-2.999900	3.844200	-11.531000	22.235274	0.000955	20.892415
199.052706	-2.994200	3.843700	-11.508000	22.232190	0.000956	20.884587
200.053659	-2.991000	3.844800	-11.498000	22.249315	0.000956	20.880871
201.055557	-3.012600	3.842500	-11.575000	22.262920	0.000955	20.899233
202.056112	-3.009900	3.844000	-11.570000	22.266404	0.000956	20.881386
203.052642	-3.009400	3.841000	-11.558000	22.278665	0.000956	20.879912
204.055922	-2.994800	3.844300	-11.511000	22.289762	0.000956	20.875851
205.057765	-3.022300	3.842400	-11.610000	22.290302	0.000958	20.888245
206.055050	-3.027600	3.840800	-11.626000	22.279730	0.000960	20.875289
207.054026	-2.997700	3.842600	-11.517000	22.317854	0.000960	20.883117
208.055622	-3.006800	3.841900	-11.551000	22.311137	0.000961	20.883978
209.052856	-3.002800	3.842300	-11.537000	22.322465	0.000958	20.893424
210.061242	-2.993500	3.840800	-11.496000	22.351453	0.000959	20.912491
211.056384	-3.013100	3.840500	-11.570000	22.326984	0.000959	20.917387
212.056650	-3.000400	3.841200	-11.524000	22.352364	0.000960	20.911032
213.054574	-3.006000	3.841900	-11.548000	22.324709	0.000961	20.895196
214.061043	-2.992100	3.840900	-11.491000	22.336495	0.000961	20.901782
215.058858	-2.989100	3.840500	-11.479000	22.347324	0.000961	20.904564
216.057079	-2.988400	3.840600	-11.475000	22.370398	0.000961	20.919607
217.056197	-2.986800	3.839100	-11.466000	22.334143	0.000962	20.913650
218.057349	-3.003000	3.840100	-11.531000	22.347823	0.000962	20.901745
219.059155	-2.987600	3.840400	-11.472000	22.362018	0.000962	20.912639
220.065159	-3.003900	3.838600	-11.530000	22.355235	0.000964	20.920071
221.059634	-2.990900	3.839400	-11.482000	22.361251	0.000965	20.906182
222.057588	-3.012600	3.836500	-11.557000	22.369954	0.000964	20.897354
223.062005	-3.002700	3.838300	-11.523000	22.383634	0.000964	20.902044
224.063213	-3.009800	3.837900	-11.551000	22.363608	0.000965	20.909490
225.061389	-2.996700	3.836600	-11.496000	22.368538	0.000967	20.909211
226.060108	-3.001000	3.836400	-11.511000	22.380875	0.000968	20.917297
227.061782	-3.007700	3.837200	-11.539000	22.395502	0.000968	20.908237
228.061314	-2.970900	3.838100	-11.401000	22.398229	0.000968	20.928984
229.060875	-2.976900	3.837700	-11.423000	22.397874	0.000968	20.908242
230.063793	-2.991600	3.837100	-11.478000	22.408826	0.000969	20.924424
231.060173	-3.011000	3.835800	-11.548000	22.404426	0.000968	20.945619
232.063381	-3.003900	3.836800	-11.524000	22.427461	0.000969	20.912267
233.063672	-2.983900	3.836000	-11.445000	22.404044	0.000970	20.921532
234.064895	-3.002100	3.836400	-11.516000	22.424852	0.000970	20.909654
235.063573	-2.992700	3.836400	-11.480000	22.449884	0.000970	20.930452
236.065332	-2.979600	3.837200	-11.433000	22.469476	0.000972	20.914987
237.061572	-3.000100	3.836100	-11.507000	22.458267	0.000971	20.930787
238.063710	-3.009100	3.835300	-11.540000	22.468339	0.000974	20.929493
239.064163	-3.010200	3.835400	-11.544000	22.435875	0.000972	20.933492
240.063162	-3.003000	3.834000	-11.513000	22.458015	0.000973	20.936697
241.064713	-3.010200	3.835300	-11.544000	22.440280	0.000973	20.902345
242.068235	-3.009800	3.835300	-11.543000	22.468945	0.000974	20.938160
243.063337	-3.004100	3.834600	-11.517000	22.471863	0.000976	20.935867
244.063854	-3.004100	3.834400	-11.518000	22.504954	0.000976	20.934867
245.069415	-2.996300	3.834100	-11.486000	22.494733	0.000975	20.939330
246.067908	-2.994800	3.832900	-11.477000	22.513696	0.000976	20.936511
247.066839	-3.002600	3.834100	-11.510000	22.520083	0.000977	20.932002
248.065240	-3.016900	3.832600	-11.562000	22.554911	0.000979	20.950759
249.068355	-3.000200	3.833400	-11.500000	22.539802	0.000980	20.937526
250.066193	-2.990400	3.834100	-11.465000	22.565444	0.000978	20.952300
251.069186	-2.989500	3.833300	-11.459000	22.563694	0.000978	20.925420
252.067536	-3.003000	3.832100	-11.507000	22.547444	0.000978	20.947548
253.068232	-2.997600	3.834100	-11.491000	22.574444	0.000978	20.949934
254.069067	-3.019100	3.831400	-11.566000	22.562238	0.000978	20.954778
255.069331	-3.002400	3.832000	-11.505000	22.586155	0.000980	20.939854
256.072375	-3.012600	3.830700	-11.540000	22.617858	0.000982	20.961173
257.069590	-3.009000	3.831500	-11.527000	22.618897	0.000982	20.955102
258.071434	-2.999800	3.832300	-11.495000	22.611606	0.000982	20.932629
259.073709	-3.010100	3.830900	-11.530000	22.644641	0.000983	20.942482
260.070421	-3.000000	3.832100	-11.495000	22.618439	0.000983	20.953221
261.073069	-3.000200	3.830300	-11.491000	22.621629	0.000983	20.941719
262.074897	-2.998900	3.830300	-11.485000	22.613937	0.000982	20.961038
263.073411	-2.973400	3.830800	-11.390000	22.629831	0.000984	20.956096
264.070647	-3.009100	3.830300	-11.523000	22.615717	0.000982	20.958080
265.070622	-3.002000	3.829900	-11.494000	22.619633	0.000985	20.962476
266.073262	-3.001100	3.829700	-11.492000	22.638532	0.000984	20.964336
267.074944	-2.999800	3.829300	-11.486000	22.639505	0.000986	20.966732
268.072415	-2.987300	3.828800	-11.437000	22.634107	0.000987	20.965119
269.075217	-3.005700	3.828300	-11.505000	22.641897	0.000985	20.959172
270.077803	-2.991300	3.830100	-11.457000	22.651123	0.000986	20.953241
271.074214	-3.004000	3.828100	-11.497000	22.652533	0.000988	20.975986
272.073856	-3.002000	3.827900	-11.489000	22.683071	0.000988	20.964851
273.072477	-3.001100	3.828100	-11.487000	22.684187	0.000990	20.956961
274.073086	-3.010400	3.827600	-11.521000	22.693217	0.000989	20.968375
275.074447	-2.998000	3.827800	-11.475000	22.707099	0.000988	20.987019
276.076238	-2.985100	3.827800	-11.425000	22.734183	0.000989	20.971003
277.076010	-3.012600	3.827700	-11.530000	22.717580	0.000990	20.961485
278.073130	-2.983600	3.829200	-11.423000	22.735989	0.000990	20.968545
279.076514	-2.989300	3.827000	-11.439000	22.741006	0.000989	20.959821
280.073614	-3.007000	3.826800	-11.505000	22.752968	0.000991	20.997876
281.075369	-3.003500	3.827100	-11.494000	22.759723	0.000992	20.985205
282.076124	-3.011200	3.825600	-11.519000	22.763021	0.000991	20.988982
283.074500	-2.983200	3.827000	-11.416000	22.774268	0.000995	20.970379
284.078890	-3.006900	3.825200	-11.501000	22.757768	0.000994	20.970446
285.076293	-3.014000	3.824200	-11.525000	22.779974	0.000994	20.975620
286.076878	-2.978700	3.826500	-11.397000	22.797425	0.000993	20.991203
287.077685	-2.996000	3.825600	-11.460000	22.787922	0.000995	20.991640
288.081795	-2.996100	3.825300	-11.460000	22.765331	0.000996	20.987977
289.079891	-2.999200	3.825100	-11.472000	22.784290	0.000997	20.971410
290.081116	-2.993200	3.824300	-11.445000	22.782206	0.000996	20.999189
291.081825	-2.995200	3.824500	-11.454000	22.793041	0.000996	20.983967
292.080902	-2.979800	3.824700	-11.396000	22.757747	0.000998	20.991759
293.081896	-2.984300	3.824300	-11.411000	22.796267	0.000999	20.983406
294.080846	-2.990400	3.824000	-11.435000	22.794692	0.000999	20.997473
295.080994	-2.987800	3.824200	-11.425000	22.806001	0.000999	20.992681
296.081067	-3.005900	3.821900	-11.487000	22.770491	0.001000	20.986508
297.080056	-2.984700	3.824300	-11.413000	22.796601	0.001000	20.994170
298.081900	-3.011100	3.823400	-11.511000	22.823863	0.001001	21.009149
299.081887	-3.006600	3.823700	-11.496000	22.817823	0.001000	20.998833
300.082017	-3.010900	3.821800	-11.507000	22.824131	0.001002	20.993299
301.082133	-3.018300	3.820900	-11.531000	22.839724	0.001002	20.981896
302.083102	-3.024200	3.819700	-11.550000	22.831652	0.001003	20.997514
303.083116	-3.011400	3.820300	-11.503000	22.861419	0.001002	21.015477
304.086349	-3.002900	3.820100	-11.471000	22.865987	0.001002	21.004409
305.084454	-3.004800	3.821300	-11.481000	22.857802	0.001004	21.004744
306.084293	-2.991900	3.821500	-11.433000	22.867793	0.001004	21.008114
307.084541	-3.008200	3.820400	-11.491000	22.855832	0.001004	20.999452
308.084662	-2.984700	3.820500	-11.401000	22.878513	0.001003	21.014111
309.086212	-3.016200	3.819100	-11.517000	22.885958	0.001005	21.004501
310.084732	-2.999400	3.819000	-11.453000	22.885638	0.001006	20.998019
311.087206	-3.002200	3.820200	-11.467000	22.902728	0.001006	20.984796
312.083999	-3.001600	3.819000	-11.462000	22.902677	0.001006	20.993752
313.085248	-2.995000	3.819000	-11.436000	22.919370	0.001007	20.992933
314.088099	-3.005600	3.818600	-11.476000	22.872937	0.001008	20.996674
315.090278	-2.989200	3.820400	-11.419000	22.885000	0.001007	21.006861
316.086718	-3.003000	3.819500	-11.469000	22.871121	0.001008	20.985373
317.087085	-2.978800	3.819000	-11.375000	22.875560	0.001007	20.993139
318.087985	-2.982100	3.818400	-11.386000	22.853789	0.001009	20.988398
319.087956	-2.987400	3.817500	-11.404000	22.875972	0.001009	20.977906
320.092291	-3.004100	3.817700	-11.468000	22.863512	0.001010	20.975856
321.089935	-2.995700	3.817500	-11.434000	22.864129	0.001012	20.966044
322.090902	-2.984000	3.817500	-11.391000	22.892192	0.001010	20.967605
323.090928	-2.985100	3.817400	-11.394000	22.897707	0.001010	20.966492
324.090844	-2.985100	3.816500	-11.390000	22.915907	0.001011	20.960072
325.094392	-2.979600	3.816300	-11.370000	22.919555	0.001013	20.979844
326.090837	-2.996600	3.815900	-11.434000	22.930414	0.001012	20.969862
327.090777	-2.978200	3.816900	-11.367000	22.939560	0.001013	20.973809
328.091124	-2.992300	3.816900	-11.420000	22.944113	0.001012	20.962725
329.091575	-2.993500	3.817100	-11.426000	22.975759	0.001012	20.959819
330.092144	-3.006800	3.814900	-11.469000	22.987210	0.001015	20.966074
331.094021	-3.038400	3.813400	-11.586000	22.989242	0.001015	20.966214
332.093745	-3.017200	3.814800	-11.509000	22.983295	0.001014	20.976375
333.092633	-2.992800	3.815200	-11.417000	22.964776	0.001014	20.952609
334.092867	-3.003000	3.814100	-11.453000	22.967986	0.001017	20.958195
335.093302	-3.019200	3.813400	-11.512000	22.948650	0.001020	20.957788
336.096430	-3.014900	3.811400	-11.490000	22.949082	0.001019	20.953006
337.094901	-2.995800	3.813000	-11.423000	22.959277	0.001018	20.979812
338.095134	-3.026900	3.813500	-11.541000	22.971916	0.001018	20.945539
339.095107	-3.003900	3.812700	-11.452000	23.003829	0.001018	20.957597
340.094658	-3.002000	3.812300	-11.443000	22.980280	0.001018	20.948229
341.097605	-2.990200	3.812100	-11.397000	23.005748	0.001020	20.967105
342.098141	-3.008600	3.812600	-11.468000	22.989709	0.001020	20.941081
343.096558	-3.005800	3.812600	-11.459000	23.019394	0.001021	20.964657
344.097299	-2.999500	3.811800	-11.431000	23.020444	0.001021	20.961915
345.097443	-2.998100	3.811500	-11.426000	23.039836	0.001020	20.961431
346.096511	-2.989300	3.810900	-11.390000	23.038185	0.001022	20.963570
347.099178	-3.002900	3.811100	-11.444000	23.048354	0.001022	20.969016
348.097283	-2.982100	3.810100	-11.362000	23.055236	0.001022	20.959318
349.099154	-2.982000	3.811700	-11.365000	23.062653	0.001024	20.948734
350.097572	-2.993900	3.810100	-11.406000	23.011889	0.001022	20.950501
351.097709	-2.997900	3.808700	-11.417000	23.002502	0.001023	20.963379
352.101515	-2.984300	3.811000	-11.372000	23.016982	0.001025	20.965084
353.097138	-2.979700	3.809400	-11.350000	23.031832	0.001025	20.936819
354.100243	-3.002900	3.809800	-11.440000	23.035016	0.001023	20.954706
355.097972	-2.988600	3.809200	-11.383000	23.057936	0.001026	20.919829
356.099421	-2.991100	3.808100	-11.390000	23.045694	0.001026	20.946914
357.099351	-3.006200	3.807300	-11.445000	23.068244	0.001026	20.944853
358.100873	-3.001900	3.806400	-11.425000	23.059021	0.001028	20.949362
359.102106	-3.007100	3.808400	-11.450000	23.062272	0.001027	20.950248
360.099141	-3.000700	3.807000	-11.422000	23.048281	0.001028	20.953299
361.098814	-2.995900	3.808300	-11.408000	23.030746	0.001026	20.947584
362.099072	-3.011900	3.807300	-11.465000	23.027423	0.001029	20.953263
363.106309	-2.999000	3.806200	-11.414000	23.044449	0.001029	20.958467
364.100675	-3.004200	3.805900	-11.432000	23.051301	0.001029	20.956324
365.101102	-3.024900	3.806200	-11.513000	23.081797	0.001031	20.932356
366.100963	-2.998600	3.807200	-11.415000	23.082434	0.001030	20.942951
367.101087	-3.013000	3.806700	-11.469000	23.091451	0.001029	20.949140
368.108219	-2.990100	3.806600	-11.381000	23.125572	0.001033	20.940184
369.103407	-3.014600	3.804500	-11.467000	23.127377	0.001031	20.945311
370.106590	-2.996900	3.805700	-11.403000	23.112030	0.001031	20.937046
371.105521	-2.993100	3.805700	-11.389000	23.151906	0.001031	20.929589
372.107514	-2.993900	3.805900	-11.391000	23.144206	0.001035	20.934201
373.108774	-2.982000	3.804200	-11.344000	23.168328	0.001035	20.944621
374.108731	-3.016200	3.805000	-11.474000	23.183916	0.001033	20.922312
375.109210	-2.988600	3.804200	-11.368000	23.201603	0.001034	20.942879
376.108413	-3.015700	3.803900	-11.469000	23.164532	0.001033	20.941766
377.110225	-3.008100	3.803300	-11.440000	23.142534	0.001034	20.953386
378.108736	-3.004700	3.804100	-11.429000	23.139582	0.001034	20.918189
379.110579	-2.995500	3.803900	-11.394000	23.144376	0.001034	20.940534
380.110675	-3.024000	3.801300	-11.494000	23.116052	0.001036	20.931119
381.111974	-3.026600	3.803300	-11.510000	23.132716	0.001036	20.928852
382.110002	-3.010600	3.802400	-11.446000	23.093400	0.001036	20.938292
383.109962	-3.007800	3.801300	-11.433000	23.088581	0.001037	20.933464
384.115190	-3.010700	3.800400	-11.440000	23.092315	0.001038	20.922034
385.112330	-2.999300	3.801800	-11.402000	23.095704	0.001035	20.935860
386.117042	-3.014400	3.801400	-11.458000	23.113212	0.001038	20.932067
387.112549	-3.013600	3.800400	-11.451000	23.128879	0.001039	20.935912
388.113051	-3.007700	3.801500	-11.433000	23.148048	0.001038	20.929042
389.113374	-3.010000	3.801100	-11.440000	23.166106	0.001038	20.924379
390.116724	-2.974000	3.801400	-11.303000	23.174561	0.001038	20.939962
391.114099	-3.005300	3.799800	-11.418000	23.192129	0.001037	20.933861
392.118183	-2.996200	3.800600	-11.386000	23.187439	0.001038	20.922997
393.114969	-2.998600	3.800300	-11.395000	23.194511	0.001041	20.917282
394.114168	-3.016500	3.800800	-11.463000	23.169572	0.001040	20.932593
395.114956	-2.989900	3.799900	-11.360000	23.172540	0.001040	20.920869
396.114317	-2.983000	3.799300	-11.332000	23.176824	0.001038	20.944600
397.114066	-2.998000	3.799700	-11.390000	23.180701	0.001042	20.933314
398.114842	-2.997900	3.798600	-11.386000	23.177199	0.001042	20.946872
399.115598	-2.998100	3.799100	-11.389000	23.192633	0.001042	20.923935
400.115625	-2.989700	3.798300	-11.353000	23.209091	0.001041	20.922410
401.114759	-2.991600	3.799000	-11.363000	23.239089	0.001042	20.932083
402.117074	-3.013600	3.796500	-11.440000	23.249395	0.001042	20.940039
403.114896	-2.975600	3.798300	-11.301000	23.255932	0.001043	20.913876
404.118086	-3.003700	3.797400	-11.406000	23.254744	0.001043	20.925960
405.116563	-2.998100	3.796800	-11.382000	23.256508	0.001044	20.940529
406.118424	-2.977400	3.795900	-11.301000	23.254805	0.001045	20.936927
407.115337	-3.000300	3.795800	-11.387000	23.259305	0.001045	20.916782
408.118571	-3.004900	3.796400	-11.405000	23.246505	0.001045	20.945677
409.115594	-2.997100	3.794800	-11.372000	23.260241	0.001047	20.927676
410.115833	-3.015000	3.794500	-11.440000	23.257798	0.001047	20.915747
411.119377	-3.002100	3.794700	-11.392000	23.264489	0.001045	20.931459
412.116437	-3.004500	3.795100	-11.400000	23.270650	0.001046	20.929099
413.119670	-3.020200	3.792900	-11.454000	23.289523	0.001046	20.912928
414.117977	-2.989300	3.796100	-11.347000	23.309610	0.001048	20.935427
415.120209	-3.000600	3.793200	-11.381000	23.300405	0.001048	20.916246
416.122657	-2.997800	3.794500	-11.373000	23.321515	0.001046	20.921755
417.119760	-2.967200	3.793500	-11.255000	23.345632	0.001047	20.917952
418.123342	-3.000500	3.792900	-11.380000	23.353700	0.001049	20.933149
419.119288	-2.977400	3.793200	-11.293000	23.384564	0.001050	20.934685
420.120137	-2.986500	3.792600	-11.326000	23.373123	0.001048	20.922745
421.119360	-2.988800	3.792700	-11.335000	23.362396	0.001050	20.894453
422.121665	-3.001900	3.792600	-11.384000	23.345699	0.001048	20.918493
423.119448	-2.977700	3.791800	-11.289000	23.343143	0.001048	20.926362
424.124534	-3.001600	3.791600	-11.380000	23.372382	0.001051	20.935277
425.121671	-2.987100	3.790800	-11.322000	23.358601	0.001049	20.923837
426.121736	-3.000600	3.790600	-11.373000	23.324692	0.001050	20.906450
427.124541	-3.005400	3.791700	-11.395000	23.336494	0.001050	20.917328
428.123656	-2.997500	3.789700	-11.358000	23.372665	0.001051	20.920390
429.124120	-2.964500	3.791100	-11.237000	23.396437	0.001052	20.935679
430.122682	-2.993300	3.789700	-11.343000	23.409132	0.001052	20.925172
431.121225	-2.971400	3.791100	-11.263000	23.415858	0.001052	20.918637
432.122947	-3.013800	3.788900	-11.417000	23.427762	0.001053	20.926774
433.123277	-3.003500	3.787700	-11.374000	23.439794	0.001051	20.931721
434.123757	-2.990200	3.790600	-11.333000	23.441979	0.001053	20.913051
435.124749	-2.989100	3.788700	-11.324000	23.436328	0.001052	20.927774
436.122926	-3.014000	3.787700	-11.415000	23.447902	0.001052	20.905238
437.125187	-2.996000	3.787700	-11.347000	23.440626	0.001054	20.911696
438.125709	-3.005800	3.787100	-11.382000	23.427124	0.001055	20.919972
439.124307	-3.001800	3.787800	-11.370000	23.406438	0.001053	20.901136
440.125110	-2.992300	3.787300	-11.331000	23.408536	0.001054	20.941641
441.125591	-2.987600	3.786700	-11.312000	23.379360	0.001055	20.898652
442.125576	-3.011600	3.787800	-11.406000	23.418943	0.001054	20.912721
443.126678	-2.997200	3.787000	-11.349000	23.416130	0.001055	20.917488
444.127398	-2.974200	3.787200	-11.263000	23.426388	0.001055	20.910701
445.126659	-3.002600	3.785100	-11.364000	23.446385	0.001056	20.907985
446.128464	-3.000300	3.784500	-11.352000	23.466942	0.001058	20.921951
447.130270	-2.979700	3.785800	-11.279000	23.468145	0.001055	20.893762
448.128707	-2.990500	3.785200	-11.319000	23.450195	0.001055	20.914174
449.134487	-3.022600	3.783000	-11.433000	23.456216	0.001057	20.920209
450.132757	-2.991600	3.784900	-11.322000	23.428013	0.001056	20.911381
451.131052	-3.011400	3.784000	-11.394000	23.456026	0.001057	20.901528
452.129552	-2.992100	3.785200	-11.325000	23.451218	0.001059	20.928000
453.134276	-3.006600	3.783500	-11.375000	23.469235	0.001057	20.918086
454.131683	-2.998300	3.783900	-11.344000	23.490686	0.001059	20.916828
455.131542	-3.005200	3.781600	-11.364000	23.482876	0.001059	20.898570
456.134319	-3.001600	3.782500	-11.353000	23.483683	0.001059	20.910283
457.133932	-3.008500	3.783200	-11.379000	23.505062	0.001060	20.922703
458.133188	-2.990100	3.783400	-11.312000	23.489514	0.001058	20.907593
459.135066	-3.003400	3.781400	-11.355000	23.494080	0.001058	20.900317
460.132972	-2.987900	3.782700	-11.302000	23.477919	0.001058	20.913989
461.132968	-2.991100	3.781000	-11.308000	23.487267	0.001061	20.911030
462.135466	-2.980300	3.781300	-11.268000	23.481220	0.001060	20.899755
463.134773	-2.985900	3.780400	-11.286000	23.472197	0.001061	20.894504
464.131812	-2.995200	3.780400	-11.322000	23.474012	0.001060	20.902960
465.134933	-2.992100	3.780500	-11.311000	23.474665	0.001058	20.903141
466.133869	-3.018200	3.779200	-11.405000	23.465024	0.001059	20.915287
467.133506	-2.988700	3.778800	-11.292000	23.475713	0.001060	20.908459
468.132914	-3.005600	3.778500	-11.355000	23.500846	0.001062	20.896194
469.137179	-3.004000	3.779200	-11.352000	23.469374	0.001062	20.907794
470.134937	-2.993600	3.779500	-11.313000	23.483323	0.001063	20.901863
471.134964	-2.998700	3.779600	-11.333000	23.479220	0.001062	20.902017
472.136993	-2.988100	3.777500	-11.287000	23.521715	0.001063	20.885346
473.134577	-3.015000	3.777600	-11.388000	23.514224	0.001062	20.907706
474.136302	-2.967900	3.777000	-11.208000	23.514275	0.001063	20.922929
475.137306	-3.008200	3.776900	-11.360000	23.554826	0.001063	20.900517
476.135145	-3.005000	3.775500	-11.344000	23.539870	0.001062	20.884578
477.133794	-3.001000	3.775100	-11.327000	23.523201	0.001064	20.907222
478.139832	-3.007800	3.775800	-11.356000	23.521129	0.001064	20.905145
479.136752	-3.019300	3.774800	-11.396000	23.517052	0.001065	20.897266
480.137128	-3.001000	3.775100	-11.328000	23.529006	0.001064	20.894076
481.148552	-3.007400	3.775700	-11.353000	23.527818	0.001063	20.897626
482.140325	-2.997000	3.775900	-11.315000	23.565720	0.001064	20.883939
483.141538	-3.008600	3.774800	-11.356000	23.536831	0.001063	20.903816
484.139255	-2.968500	3.774500	-11.202000	23.538250	0.001066	20.919461
485.138269	-3.012800	3.773200	-11.367000	23.544055	0.001067	20.907263
486.138765	-2.979000	3.774900	-11.245000	23.541448	0.001066	20.903228
487.138119	-3.014400	3.772200	-11.370000	23.542522	0.001066	20.915210
488.141197	-2.998700	3.773300	-11.314000	23.563000	0.001067	20.897333
489.141856	-3.016500	3.772500	-11.378000	23.564676	0.001067	20.899487
490.139100	-2.992400	3.773100	-11.288000	23.565648	0.001066	20.876755
491.141074	-3.007300	3.772100	-11.343000	23.574902	0.001067	20.900729
492.139242	-2.984900	3.772700	-11.261000	23.571262	0.001066	20.891391
493.140379	-3.001800	3.771000	-11.320000	23.594819	0.001066	20.895565
494.142578	-2.999600	3.770900	-11.309000	23.633711	0.001067	20.896147
495.140898	-3.013000	3.770900	-11.361000	23.629388	0.001066	20.894658
496.140336	-3.002800	3.771400	-11.323000	23.596177	0.001067	20.901667
497.145987	-3.016000	3.770100	-11.369000	23.611045	0.001064	20.913725
498.141490	-3.005000	3.771500	-11.333000	23.605328	0.001067	20.894720
499.139722	-3.011100	3.770000	-11.350000	23.619543	0.001068	20.870091
500.145028	-3.002000	3.769400	-11.315000	23.618638	0.001068	20.885304
501.143684	-3.001000	3.769000	-11.309000	23.642502	0.001069	20.882676
502.139868	-3.010500	3.766900	-11.339000	23.679331	0.001068	20.867917
503.143053	-2.992400	3.769900	-11.280000	23.686785	0.001067	20.885820
504.142421	-3.007800	3.767900	-11.331000	23.684930	0.001069	20.884908
505.140221	-2.995200	3.768700	-11.286000	23.665641	0.001067	20.878373
506.143686	-2.985600	3.769000	-11.251000	23.658891	0.001068	20.872081
507.142450	-3.000700	3.767300	-11.303000	23.661842	0.001068	20.895426
508.142593	-2.986800	3.768800	-11.255000	23.658532	0.001069	20.875039
509.141703	-2.993000	3.768600	-11.278000	23.696064	0.001069	20.892751
510.143645	-2.995700	3.767100	-11.283000	23.683382	0.001069	20.878141
511.145288	-3.007600	3.766000	-11.325000	23.709574	0.001066	20.877847
512.144621	-3.000500	3.766000	-11.299000	23.705929	0.001068	20.882728
513.148031	-3.012900	3.765200	-11.343000	23.699591	0.001067	20.881589
514.146099	-2.995400	3.766300	-11.278000	23.695961	0.001069	20.880321
515.146995	-3.008100	3.765400	-11.324000	23.709995	0.001070	20.870210
516.145618	-3.031800	3.764400	-11.412000	23.698414	0.001068	20.867607
517.145554	-2.999200	3.765300	-11.293000	23.735025	0.001068	20.860217
518.147729	-2.990300	3.763700	-11.254000	23.688266	0.001069	20.885882
519.147465	-2.993400	3.765400	-11.269000	23.708690	0.001069	20.868901
520.148036	-3.014800	3.763000	-11.344000	23.686143	0.001070	20.853409
521.148734	-3.005500	3.763000	-11.308000	23.721371	0.001071	20.876873
522.147872	-2.981200	3.763100	-11.218000	23.750832	0.001071	20.861841
523.147528	-2.997600	3.762400	-11.277000	23.729488	0.001070	20.878847
524.146987	-2.999700	3.762000	-11.284000	23.751176	0.001069	20.882099
525.153223	-2.980600	3.762600	-11.213000	23.766618	0.001069	20.868185
526.147856	-3.007900	3.760700	-11.311000	23.767779	0.001071	20.871720
527.147602	-2.995400	3.761400	-11.265000	23.786876	0.001070	20.853409
528.148310	-2.988600	3.763100	-11.243000	23.799428	0.001071	20.878796
529.148258	-2.992000	3.761300	-11.253000	23.783144	0.001072	20.861521
530.150126	-3.002300	3.760600	-11.290000	23.792987	0.001069	20.849580
531.149111	-2.999700	3.759900	-11.277000	23.770350	0.001068	20.885676
532.151820	-2.987800	3.760500	-11.235000	23.777176	0.001071	20.861701
533.149400	-2.995100	3.760200	-11.261000	23.765430	0.001070	20.858460
534.149485	-3.007800	3.758000	-11.303000	23.787297	0.001071	20.873271
535.152487	-3.000100	3.757600	-11.271000	23.769686	0.001071	20.877899
536.151512	-2.992000	3.758000	-11.242000	23.763611	0.001068	20.852842
537.150899	-2.981200	3.759300	-11.207000	23.740196	0.001071	20.857816
538.164921	-2.999600	3.758200	-11.271000	23.717958	0.001072	20.854012
539.150854	-2.974000	3.759600	-11.179000	23.719439	0.001073	20.873987
540.155923	-3.008100	3.757500	-11.303000	23.687202	0.001073	20.858738
541.151302	-2.982800	3.758000	-11.208000	23.691422	0.001070	20.844004
542.152425	-2.986900	3.758200	-11.224000	23.663986	0.001070	20.849214
543.156925	-3.000000	3.757900	-11.273000	23.696393	0.001070	20.856574
544.154332	-3.008300	3.755800	-11.297000	23.709163	0.001071	20.852306
545.157155	-3.006100	3.756000	-11.289000	23.709929	0.001070	20.846911
546.157957	-2.991000	3.756600	-11.235000	23.723016	0.001071	20.858609
547.155703	-2.977400	3.755800	-11.181000	23.716447	0.001069	20.862928
548.157251	-2.998200	3.754500	-11.255000	23.689962	0.001070	20.855816
549.154991	-2.983700	3.755700	-11.205000	23.676823	0.001071	20.833161
550.156099	-3.019400	3.754400	-11.335000	23.711270	0.001073	20.836877
551.157952	-3.016600	3.754200	-11.324000	23.695869	0.001069	20.845617
552.155612	-2.998000	3.753700	-11.252000	23.691561	0.001072	20.844143
553.156929	-2.997800	3.753300	-11.251000	23.681105	0.001071	20.853100
554.158614	-3.021600	3.754200	-11.342000	23.708906	0.001072	20.839721
555.159308	-2.989100	3.752900	-11.217000	23.713825	0.001073	20.844653
556.160309	-3.010500	3.754000	-11.299000	23.725767	0.001072	20.858996
557.161346	-3.007300	3.751500	-11.281000	23.744005	0.001072	20.845988
558.162137	-2.989000	3.753200	-11.217000	23.763076	0.001072	20.853729
559.160048	-2.985300	3.751100	-11.197000	23.751279	0.001071	20.845220
560.162347	-2.995400	3.752700	-11.240000	23.753900	0.001072	20.842633
561.161778	-3.024500	3.750000	-11.340000	23.719274	0.001072	20.823564
562.165549	-2.985500	3.751200	-11.198000	23.713676	0.001071	20.826487
563.162265	-2.994400	3.750100	-11.228000	23.734177	0.001069	20.821436
564.168254	-2.998400	3.750500	-11.244000	23.732120	0.001073	20.847823
565.166476	-2.988200	3.749000	-11.202000	23.749618	0.001072	20.838814
566.164188	-2.994100	3.749800	-11.225000	23.757314	0.001071	20.836098
567.164752	-2.992900	3.749600	-11.220000	23.793332	0.001072	20.843762
568.165752	-3.001000	3.749400	-11.251000	23.809909	0.001071	20.836675
569.165748	-2.979700	3.750500	-11.174000	23.842538	0.001071	20.834305
570.165392	-3.007700	3.748200	-11.273000	23.827267	0.001072	20.823735
571.166916	-2.983900	3.747100	-11.180000	23.836519	0.001071	20.836804
572.165253	-3.008400	3.747800	-11.274000	23.833491	0.001072	20.846570
573.166126	-2.996000	3.748400	-11.230000	23.814093	0.001073	20.818586
574.164311	-2.999300	3.746800	-11.236000	23.818693	0.001072	20.827940
575.165313	-2.988400	3.748000	-11.200000	23.794524	0.001071	20.825044
576.165040	-2.999200	3.745900	-11.233000	23.797860	0.001070	20.833130
577.165380	-3.008300	3.745700	-11.266000	23.776312	0.001072	20.823853
578.167618	-2.994500	3.746000	-11.216000	23.772796	0.001073	20.834552
579.167586	-2.990200	3.745900	-11.200000	23.768566	0.001072	20.831259
580.168220	-2.973300	3.745900	-11.136000	23.784799	0.001074	20.843741
581.167057	-2.982700	3.746100	-11.172000	23.787122	0.001076	20.817622
582.169030	-2.984500	3.745700	-11.178000	23.785375	0.001071	20.838155
583.167723	-3.004600	3.745200	-11.252000	23.782897	0.001071	20.819076
584.168946	-3.007300	3.744100	-11.258000	23.799191	0.001071	20.828775
585.168303	-3.016200	3.744100	-11.291000	23.806491	0.001071	20.814757
586.168014	-3.013200	3.744400	-11.282000	23.775022	0.001071	20.819715
587.167611	-2.988900	3.744300	-11.190000	23.789199	0.001071	20.829187
588.171759	-2.998800	3.743400	-11.225000	23.791831	0.001071	20.810489
589.168082	-3.007600	3.743400	-11.258000	23.814915	0.001071	20.817040
590.171093	-3.005500	3.742600	-11.247000	23.844296	0.001070	20.822317
591.168272	-3.011300	3.743400	-11.271000	23.880198	0.001072	20.841247
592.167854	-3.008500	3.742600	-11.260000	23.884479	0.001072	20.827522
593.170055	-2.990000	3.742300	-11.189000	23.884659	0.001070	20.815849
594.168005	-2.999300	3.740900	-11.219000	23.879638	0.001073	20.821719
595.168221	-2.998700	3.741700	-11.219000	23.878142	0.001072	20.831599
596.170005	-2.997300	3.742100	-11.215000	23.882269	0.001071	20.833841
597.167704	-3.004200	3.739400	-11.233000	23.879612	0.001073	20.818375
598.167908	-2.995100	3.740600	-11.202000	23.886705	0.001072	20.812211
599.182912	-3.014500	3.738900	-11.270000	23.863827	0.001072	20.800177
600.174382	-3.013300	3.738500	-11.264000	23.875639	0.001069	20.829563
601.172315	-3.004400	3.739300	-11.233000	23.890935	0.001073	20.839685
602.170907	-3.014700	3.738900	-11.271000	23.881555	0.001072	20.817004
603.173731	-2.996100	3.740500	-11.206000	23.873927	0.001071	20.819313
604.169998	-3.012300	3.738100	-11.259000	23.858230	0.001072	20.823487
605.171452	-3.004700	3.738600	-11.231000	23.856585	0.001072	20.836536
606.171648	-2.991600	3.738300	-11.183000	23.885430	0.001072	20.831795
607.173928	-2.995000	3.737400	-11.192000	23.871563	0.001070	20.832114
608.172556	-2.991200	3.739000	-11.183000	23.891716	0.001068	20.818658
609.173962	-3.005200	3.736800	-11.229000	23.886962	0.001069	20.833805
610.179263	-3.019900	3.736100	-11.282000	23.872139	0.001070	20.821312
611.172754	-2.996200	3.735300	-11.191000	23.923130	0.001071	20.835933
612.172082	-3.011700	3.735400	-11.248000	23.910620	0.001068	20.834769
613.174048	-3.012700	3.734800	-11.250000	23.891552	0.001070	20.838881
614.178343	-3.024200	3.734300	-11.293000	23.894337	0.001071	20.835511
615.174454	-3.006900	3.735200	-11.231000	23.889927	0.001069	20.841046
616.178647	-2.983900	3.735700	-11.146000	23.915066	0.001069	20.836856
617.177982	-2.982900	3.734900	-11.140000	23.918365	0.001070	20.827363
618.175722	-2.998800	3.733700	-11.195000	23.909571	0.001069	20.840355
619.174182	-3.001800	3.734000	-11.208000	23.936832	0.001070	20.807000
620.177685	-2.984400	3.733700	-11.142000	23.963526	0.001070	20.835191
621.176778	-2.999500	3.732900	-11.196000	23.998094	0.001069	20.827657
622.175993	-2.988400	3.732900	-11.154000	23.993838	0.001069	20.825286
623.175604	-3.015700	3.733500	-11.258000	23.994311	0.001069	20.819122
624.176178	-3.015900	3.732500	-11.256000	24.010351	0.001068	20.841845
625.176387	-2.990500	3.732400	-11.160000	23.998515	0.001069	20.834243
626.177719	-2.993400	3.733400	-11.175000	24.015649	0.001070	20.837675
627.179775	-3.014200	3.729500	-11.240000	23.997261	0.001070	20.836779
628.180557	-2.993100	3.732000	-11.169000	23.998119	0.001068	20.836217
629.180840	-3.004300	3.731400	-11.210000	23.979232	0.001069	20.835294
630.180827	-3.004600	3.729600	-11.205000	23.983498	0.001069	20.828667
631.178532	-3.009000	3.731200	-11.226000	24.007406	0.001067	20.829883
632.184951	-2.986300	3.730700	-11.140000	23.994578	0.001068	20.844993
633.185117	-3.007000	3.729500	-11.213000	24.043837	0.001070	20.828486
634.182185	-2.988400	3.730500	-11.147000	24.056500	0.001069	20.860150
635.184979	-2.992200	3.729600	-11.159000	24.072626	0.001069	20.831280
636.180855	-2.997100	3.729000	-11.175000	24.086799	0.001070	20.833166
637.181080	-3.003400	3.728000	-11.196000	24.099461	0.001067	20.842545
638.184980	-2.995900	3.728300	-11.170000	24.047008	0.001070	20.827873
639.182430	-3.005500	3.728700	-11.206000	24.050163	0.001067	20.851425
640.183108	-2.988300	3.728600	-11.141000	24.016903	0.001068	20.841303
641.184767	-3.005600	3.726200	-11.198000	24.016405	0.001069	20.851234
642.187054	-3.006600	3.727200	-11.206000	24.034258	0.001068	20.857285
643.185797	-3.005400	3.728100	-11.203000	24.050585	0.001067	20.836201
644.187086	-2.984600	3.727800	-11.124000	24.078952	0.001066	20.842839
645.191350	-3.004100	3.726800	-11.194000	24.097991	0.001069	20.834434
646.189539	-2.979200	3.726800	-11.102000	24.107462	0.001069	20.842035
647.189412	-2.957400	3.726500	-11.020000	24.110463	0.001068	20.849312
648.190499	-2.993100	3.724900	-11.148000	24.102822	0.001065	20.843545
649.191097	-3.000500	3.724900	-11.176000	24.112775	0.001068	20.852580
650.188572	-3.007000	3.723400	-11.195000	24.088320	0.001068	20.844648
651.191055	-2.979500	3.725500	-11.098000	24.061973	0.001067	20.842880
652.189209	-2.984200	3.726200	-11.119000	24.033107	0.001066	20.850441
653.187952	-2.991400	3.724200	-11.140000	24.016240	0.001067	20.842535
654.189914	-2.996600	3.723300	-11.157000	24.021518	0.001067	20.858259
655.190265	-3.009200	3.723400	-11.204000	24.032290	0.001065	20.853889
656.189822	-3.004000	3.722100	-11.180000	24.027870	0.001068	20.857517
657.189847	-2.978700	3.721500	-11.084000	24.033338	0.001066	20.859207
658.190099	-2.982400	3.724300	-11.107000	24.043334	0.001066	20.866860
659.192360	-3.012900	3.721700	-11.212000	24.067276	0.001066	20.834923
660.192132	-3.004700	3.721400	-11.180000	24.090648	0.001066	20.853621
661.193594	-2.992200	3.721500	-11.134000	24.088490	0.001066	20.849560
662.191918	-3.004500	3.721800	-11.180000	24.090751	0.001064	20.848982
663.192003	-3.009500	3.720900	-11.197000	24.074651	0.001064	20.858913
664.192300	-3.016400	3.721100	-11.224000	24.064594	0.001066	20.861155
665.193101	-3.012300	3.719500	-11.203000	24.069347	0.001065	20.853595
666.192289	-3.025300	3.720800	-11.255000	24.077333	0.001066	20.867767
667.193136	-2.996700	3.720000	-11.147000	24.108053	0.001064	20.859223
668.194273	-3.014400	3.718600	-11.208000	24.140416	0.001066	20.873663
669.193935	-2.999100	3.719200	-11.153000	24.139969	0.001063	20.860887
670.192979	-3.013300	3.718800	-11.204000	24.130283	0.001063	20.856388
671.194120	-2.997600	3.719600	-11.148000	24.120930	0.001065	20.876879
672.194249	-3.003700	3.718800	-11.170000	24.098099	0.001065	20.864412
673.197430	-3.014000	3.717800	-11.204000	24.121876	0.001063	20.865974
674.195694	-3.006700	3.717400	-11.176000	24.130951	0.001064	20.867963
675.192554	-3.002800	3.718300	-11.163000	24.142055	0.001064	20.859186
676.195848	-2.986400	3.718900	-11.104000	24.169243	0.001061	20.849946
677.197104	-2.996700	3.718100	-11.141000	24.147816	0.001064	20.844576
678.196397	-2.978900	3.717900	-11.074000	24.165194	0.001064	20.865799
679.198078	-2.978400	3.719100	-11.075000	24.196318	0.001063	20.856713
680.197745	-2.982400	3.715200	-11.079000	24.205839	0.001063	20.881434
681.195823	-2.990100	3.715100	-11.107000	24.177537	0.001062	20.872488
682.196664	-3.001600	3.714800	-11.149000	24.158576	0.001061	20.872910
683.197616	-3.010900	3.715300	-11.186000	24.159778	0.001061	20.895452
684.198271	-2.987700	3.715600	-11.099000	24.134990	0.001061	20.861583
685.196310	-3.011700	3.715300	-11.188000	24.165210	0.001060	20.880512
686.199420	-3.023500	3.713000	-11.224000	24.184016	0.001062	20.886098
687.197973	-3.004500	3.714900	-11.160000	24.212431	0.001060	20.875719
688.196963	-2.992500	3.714500	-11.115000	24.215052	0.001059	20.866494
689.196782	-3.000100	3.714600	-11.142000	24.185126	0.001061	20.878677
690.198655	-2.992400	3.714200	-11.113000	24.200803	0.001060	20.871168
691.199317	-2.989100	3.713400	-11.100000	24.218613	0.001060	20.884289
692.201983	-3.002300	3.713200	-11.147000	24.225554	0.001059	20.879399
693.198293	-2.979800	3.713800	-11.065000	24.235070	0.001060	20.875193
694.197577	-3.023100	3.711700	-11.220000	24.229732	0.001059	20.886433
695.203226	-3.003600	3.712200	-11.149000	24.236452	0.001059	20.877528
696.201008	-3.006700	3.711400	-11.159000	24.248306	0.001061	20.858125
697.200069	-3.001700	3.711000	-11.137000	24.244375	0.001062	20.880259
698.202727	-3.007400	3.712000	-11.162000	24.282140	0.001060	20.897276
699.199162	-2.999600	3.710300	-11.129000	24.279340	0.001059	20.899208
700.199674	-3.014400	3.711000	-11.184000	24.299526	0.001060	20.888165
701.204390	-3.012800	3.708800	-11.174000	24.281616	0.001060	20.885372
702.199710	-2.999500	3.709400	-11.126000	24.281606	0.001059	20.884413
703.202658	-3.020100	3.708300	-11.198000	24.260730	0.001059	20.896663
704.201535	-2.985300	3.710300	-11.075000	24.284950	0.001059	20.878286
705.203361	-2.963100	3.708300	-10.986000	24.276355	0.001058	20.887206
706.203893	-3.006900	3.708700	-11.151000	24.292030	0.001060	20.886809
707.205117	-3.023000	3.707900	-11.208000	24.305086	0.001058	20.888525
708.211557	-2.999300	3.709100	-11.124000	24.278888	0.001061	20.899703
709.204078	-3.014800	3.707400	-11.175000	24.271109	0.001057	20.890479
710.204690	-3.012200	3.706700	-11.165000	24.255967	0.001058	20.887144
711.205563	-2.997800	3.708000	-11.116000	24.257745	0.001057	20.887505
712.206999	-2.983200	3.708700	-11.062000	24.253629	0.001057	20.894282
713.206186	-3.012600	3.705900	-11.163000	24.295663	0.001057	20.881445
714.206106	-2.995400	3.706000	-11.100000	24.311724	0.001057	20.901821
715.207825	-3.002500	3.705400	-11.124000	24.306319	0.001057	20.911572
716.209200	-3.006700	3.705600	-11.140000	24.297620	0.001057	20.891942
717.207675	-3.006100	3.704800	-11.137000	24.293125	0.001057	20.908294
718.207529	-2.998000	3.705100	-11.107000	24.327862	0.001056	20.897621
719.208743	-3.007900	3.705400	-11.144000	24.315012	0.001054	20.895637
720.208731	-2.996700	3.704900	-11.101000	24.304983	0.001055	20.914499
721.208745	-2.993200	3.706500	-11.093000	24.292858	0.001055	20.911345
722.207741	-3.005200	3.703800	-11.129000	24.270580	0.001055	20.912705
723.210298	-3.003600	3.703500	-11.123000	24.283419	0.001056	20.900930
724.208736	-2.983300	3.703800	-11.049000	24.287484	0.001056	20.912592
725.211966	-2.985000	3.704400	-11.057000	24.320237	0.001055	20.909412
726.209073	-3.013600	3.703100	-11.159000	24.340973	0.001057	20.909825
727.210648	-2.982200	3.703000	-11.042000	24.340141	0.001055	20.909938
728.211215	-2.975700	3.703500	-11.020000	24.339761	0.001054	20.912401
729.209681	-2.991800	3.701900	-11.074000	24.337947	0.001052	20.915797
730.210163	-2.985400	3.703400	-11.055000	24.294574	0.001053	20.927763
731.211076	-3.004400	3.700600	-11.116000	24.283512	0.001053	20.907186
732.214925	-2.993700	3.702300	-11.081000	24.330384	0.001053	20.919116
733.214048	-2.987100	3.701900	-11.057000	24.301859	0.001051	20.920848
734.210098	-2.992300	3.701800	-11.075000	24.305590	0.001053	20.919848
735.214578	-3.000700	3.700200	-11.102000	24.326017	0.001055	20.903831
736.211091	-3.005400	3.701300	-11.123000	24.335368	0.001053	20.935019
737.211809	-2.996700	3.701200	-11.089000	24.365618	0.001054	20.911788
738.216341	-2.994500	3.699800	-11.078000	24.354326	0.001052	20.929382
739.215338	-3.015100	3.700000	-11.154000	24.384180	0.001051	20.926614
740.213562	-3.000800	3.699500	-11.100000	24.404899	0.001049	20.913262
741.214185	-3.007000	3.698900	-11.122000	24.377280	0.001051	20.909263
742.213104	-2.999100	3.698600	-11.092000	24.407560	0.001050	20.905975
743.212514	-2.983400	3.700500	-11.039000	24.433462	0.001052	20.920106
744.217348	-2.996900	3.698000	-11.081000	24.438446	0.001050	20.932690
745.214037	-3.008400	3.696200	-11.117000	24.472689	0.001050	20.951870
746.212420	-2.976000	3.699400	-11.008000	24.463674	0.001050	20.936189
747.216426	-2.994100	3.697500	-11.070000	24.495965	0.001051	20.916906
748.212463	-3.008500	3.697600	-11.123000	24.512162	0.001051	20.953066
749.213872	-2.978200	3.696600	-11.009000	24.518444	0.001049	20.947516
750.212760	-2.973900	3.698000	-10.996000	24.522980	0.001049	20.920776
751.214137	-2.993400	3.697400	-11.067000	24.523247	0.001050	20.936689
752.213807	-3.030800	3.695000	-11.198000	24.529904	0.001048	20.945738
753.213936	-3.001600	3.694700	-11.088000	24.528333	0.001049	20.947006
754.217280	-2.996200	3.695300	-11.070000	24.547159	0.001048	20.936498
755.214280	-3.000000	3.696500	-11.088000	24.545818	0.001050	20.950799
756.213947	-3.010000	3.694900	-11.120000	24.531487	0.001048	20.937843
757.218554	-2.985400	3.694500	-11.027000	24.526684	0.001047	20.944403
758.215893	-3.006000	3.694100	-11.103000	24.514946	0.001047	20.933102
759.217416	-3.010100	3.693900	-11.117000	24.479897	0.001048	20.930655
760.218733	-3.030300	3.693000	-11.189000	24.474482	0.001047	20.951772
761.218608	-2.998200	3.694300	-11.075000	24.455295	0.001047	20.951963
762.220902	-2.979900	3.694100	-11.007000	24.433236	0.001047	20.938843
763.221450	-3.002400	3.692400	-11.085000	24.401801	0.001047	20.939549
764.222157	-3.000400	3.693000	-11.080000	24.405069	0.001046	20.955153
765.219884	-3.001900	3.692800	-11.084000	24.389831	0.001048	20.946032
766.223035	-2.991900	3.694000	-11.052000	24.421472	0.001046	20.932257
767.221726	-3.003900	3.691500	-11.087000	24.439982	0.001048	20.960780
768.221066	-3.009800	3.690600	-11.106000	24.438615	0.001045	20.939972
769.220541	-2.998500	3.692400	-11.070000	24.457443	0.001046	20.949376
770.221749	-2.986500	3.691700	-11.024000	24.477113	0.001047	20.952514
771.223177	-2.986300	3.690000	-11.018000	24.484777	0.001046	20.947877
772.223952	-2.993000	3.689700	-11.042000	24.421893	0.001046	20.953066
773.228603	-3.001400	3.689300	-11.073000	24.455999	0.001047	20.957410
774.226470	-3.019100	3.689900	-11.139000	24.452999	0.001043	20.965779
775.230492	-3.020300	3.689000	-11.141000	24.469756	0.001044	20.957462
776.229472	-2.985800	3.689300	-11.015000	24.465503	0.001044	20.946083
777.226079	-2.999100	3.688700	-11.062000	24.461928	0.001043	20.966201
778.225418	-3.036000	3.687000	-11.193000	24.491974	0.001044	20.963630
779.226327	-3.027500	3.688500	-11.166000	24.473810	0.001044	20.975276
780.228158	-2.996000	3.689500	-11.053000	24.484782	0.001043	20.964001
781.226177	-2.988000	3.687200	-11.016000	24.486313	0.001042	20.962692
782.231862	-2.987700	3.689000	-11.019000	24.502130	0.001043	20.956277
783.228441	-2.992400	3.688200	-11.035000	24.480493	0.001040	20.971550
784.228545	-3.003700	3.687800	-11.076000	24.517458	0.001042	20.966439
785.233927	-3.011600	3.687000	-11.103000	24.500024	0.001044	20.955112
786.229947	-2.999100	3.687300	-11.057000	24.467070	0.001041	20.974678
787.231000	-3.024000	3.686400	-11.147000	24.476127	0.001038	20.972385
788.231024	-2.978700	3.688100	-10.984000	24.465565	0.001040	20.979332
789.230494	-3.006900	3.686400	-11.084000	24.467635	0.001040	20.991364
790.229973	-2.985100	3.687300	-11.007000	24.488353	0.001039	20.971849
791.229535	-3.017900	3.686600	-11.125000	24.507436	0.001040	20.977245
792.230424	-2.991800	3.684800	-11.023000	24.517685	0.001044	20.962873
793.230318	-3.005800	3.684200	-11.072000	24.524337	0.001040	20.968598
794.229834	-2.993600	3.684400	-11.028000	24.547699	0.001039	20.970700
795.229894	-2.990200	3.684900	-11.017000	24.531621	0.001040	20.999609
796.229170	-2.993800	3.685100	-11.032000	24.558326	0.001040	20.975199
797.231864	-2.987500	3.684700	-11.007000	24.571522	0.001039	20.994126
798.233530	-3.012300	3.683000	-11.093000	24.564434	0.001039	20.994126
799.232130	-3.009900	3.684100	-11.088000	24.560129	0.001037	21.004504
800.232727	-3.000200	3.683200	-11.049000	24.559965	0.001038	20.978265
801.231508	-3.004000	3.684200	-11.066000	24.585751	0.001040	20.991333
802.232451	-3.006500	3.682800	-11.071000	24.574974	0.001039	20.989056
803.233460	-2.996500	3.681600	-11.031000	24.537816	0.001038	20.997764
804.232568	-2.980000	3.682600	-10.971000	24.551613	0.001037	20.985531
805.234362	-2.986600	3.682300	-10.996000	24.571255	0.001037	20.977740
806.232073	-2.988000	3.682700	-11.003000	24.600939	0.001036	20.998038
807.231718	-3.000100	3.681200	-11.042000	24.588360	0.001036	20.989211
808.235112	-2.998400	3.680900	-11.036000	24.630073	0.001037	21.008302
809.232440	-3.001000	3.680500	-11.043000	24.604864	0.001036	21.006241
810.233907	-2.989100	3.681400	-11.003000	24.611515	0.001036	20.995373
811.239674	-2.990600	3.680500	-11.006000	24.612846	0.001033	20.981538
812.234649	-2.997900	3.680100	-11.031000	24.635338	0.001035	21.005999
813.234126	-3.004200	3.679700	-11.052000	24.622101	0.001035	20.989401
814.232779	-2.986500	3.679100	-10.986000	24.609075	0.001034	20.994348
815.235299	-3.006700	3.677800	-11.056000	24.637135	0.001035	21.000691
816.234798	-3.003800	3.679200	-11.051000	24.634952	0.001035	21.015568
817.235283	-3.015700	3.677800	-11.090000	24.656612	0.001035	21.019283
818.235322	-3.002700	3.678600	-11.045000	24.637993	0.001034	20.989226
819.234901	-3.009100	3.678500	-11.068000	24.657428	0.001031	21.009199
820.237027	-3.000500	3.677500	-11.033000	24.665333	0.001032	21.003855
821.236016	-2.998100	3.678600	-11.027000	24.664480	0.001031	20.999681
822.234969	-3.002600	3.676900	-11.040000	24.671286	0.001032	21.018361
823.237665	-2.983700	3.678000	-10.974000	24.676930	0.001031	21.007431
824.236188	-3.004700	3.676200	-11.045000	24.689894	0.001032	20.986778
825.235960	-2.984500	3.677700	-10.975000	24.659997	0.001031	20.987124
826.236112	-2.992400	3.676600	-11.000000	24.618619	0.001032	20.991122
827.237216	-3.010300	3.675000	-11.062000	24.613904	0.001029	20.985444
828.237901	-3.000800	3.676000	-11.029000	24.586280	0.001031	21.007509
829.240788	-2.989300	3.674100	-10.983000	24.574440	0.001032	20.997053
830.245032	-3.010500	3.674200	-11.060000	24.597431	0.001030	20.998785
831.238060	-2.996700	3.673900	-11.008000	24.612897	0.001030	20.994389
832.236621	-2.992100	3.675300	-10.995000	24.618465	0.001028	20.986701
833.240022	-3.008200	3.674900	-11.053000	24.605680	0.001028	20.997105
834.235871	-3.010000	3.674300	-11.059000	24.582818	0.001028	20.992658
835.238057	-3.002400	3.673300	-11.027000	24.569252	0.001029	20.996590
836.238110	-3.013000	3.672900	-11.065000	24.542778	0.001029	20.994683
837.238734	-3.012200	3.672400	-11.061000	24.547463	0.001030	20.976153
838.240173	-2.996500	3.673600	-11.007000	24.560797	0.001027	20.982893
839.239529	-2.993800	3.673900	-10.998000	24.582612	0.001028	20.966377
840.243464	-3.013000	3.672400	-11.064000	24.584323	0.001026	20.965249
841.244707	-3.008200	3.671900	-11.045000	24.604376	0.001026	20.981574
842.241846	-3.007400	3.672100	-11.041000	24.579572	0.001027	20.951949
843.241617	-2.997900	3.671500	-11.006000	24.555101	0.001026	20.956793
844.241189	-2.989100	3.669600	-10.967000	24.561871	0.001027	20.959792
845.242417	-3.006800	3.670900	-11.037000	24.525277	0.001025	20.967171
846.245882	-3.017700	3.669900	-11.073000	24.504802	0.001026	20.957060
847.244389	-2.998500	3.669700	-11.002000	24.520654	0.001025	20.967748
848.244698	-2.984300	3.670700	-10.953000	24.526998	0.001024	20.957045
849.246381	-3.004200	3.670100	-11.025000	24.552440	0.001023	20.954597
850.244693	-2.990000	3.671000	-10.975000	24.549225	0.001023	20.953742
851.245256	-2.992300	3.670300	-10.982000	24.592064	0.001024	20.943147
852.246073	-2.971600	3.669700	-10.903000	24.611921	0.001022	20.956906
853.247336	-2.999700	3.667900	-11.001000	24.603749	0.001023	20.970515
854.245078	-2.993500	3.668900	-10.982000	24.602383	0.001021	20.936906
855.247187	-2.994600	3.667700	-10.983000	24.624926	0.001023	20.966161
856.246689	-3.010100	3.666100	-11.034000	24.643134	0.001020	20.957406
857.249500	-3.000400	3.667100	-11.001000	24.622651	0.001021	20.961034
858.247061	-3.003000	3.666700	-11.010000	24.601782	0.001024	20.952423
859.250895	-3.005700	3.667200	-11.022000	24.584287	0.001022	20.946723
860.250043	-3.011900	3.666800	-11.042000	24.560443	0.001022	20.966419
861.248188	-3.005500	3.666000	-11.016000	24.578359	0.001022	20.946940
862.248455	-3.020400	3.666000	-11.072000	24.588566	0.001022	20.941534
863.250249	-3.016200	3.665400	-11.055000	24.612322	0.001023	20.942611
864.246237	-2.991900	3.666200	-10.969000	24.603379	0.001021	20.939803
865.250496	-2.987800	3.666700	-10.955000	24.620011	0.001021	20.945111
866.251714	-3.012300	3.664600	-11.038000	24.632744	0.001022	20.948403
867.248310	-2.998000	3.665000	-10.987000	24.617992	0.001018	20.954463
868.252046	-3.005200	3.665300	-11.014000	24.622985	0.001019	20.932923
869.249888	-2.972500	3.664500	-10.892000	24.662986	0.001021	20.955989
870.251541	-3.010200	3.662600	-11.023000	24.681748	0.001017	20.949687
871.253719	-3.005800	3.663800	-11.010000	24.707659	0.001019	20.934912
872.250852	-2.998900	3.663400	-10.985000	24.722512	0.001020	20.928007
873.253076	-3.012900	3.663000	-11.034000	24.702143	0.001019	20.945023
874.254942	-3.003200	3.662700	-10.999000	24.716257	0.001017	20.930264
875.254101	-2.990500	3.662600	-10.952000	24.712092	0.001017	20.936041
876.254187	-2.992200	3.663000	-10.960000	24.709513	0.001017	20.938195
877.253396	-2.995900	3.663000	-10.973000	24.742717	0.001016	20.933583
878.254520	-3.005100	3.660500	-10.999000	24.725414	0.001015	20.931393
879.253126	-3.001100	3.661800	-10.988000	24.777629	0.001015	20.935902
880.254209	-2.997700	3.661000	-10.974000	24.754400	0.001015	20.931558
881.255934	-3.007200	3.661200	-11.009000	24.719066	0.001016	20.916964
882.253831	-3.027900	3.660600	-11.081000	24.705209	0.001014	20.938144
883.253627	-2.996800	3.661700	-10.972000	24.679488	0.001015	20.944575
884.256696	-2.991600	3.661600	-10.953000	24.674958	0.001013	20.919169
885.254801	-3.011500	3.659300	-11.018000	24.689899	0.001014	20.940323
886.256370	-2.995800	3.659600	-10.963000	24.718835	0.001013	20.934748
887.254944	-2.993800	3.659700	-10.956000	24.746635	0.001013	20.914284
888.254733	-2.984800	3.658800	-10.919000	24.751858	0.001012	20.915732
889.254725	-2.985700	3.658500	-10.921000	24.752803	0.001013	20.933748
890.255109	-2.985600	3.660000	-10.927000	24.766988	0.001012	20.915742
891.255724	-2.979700	3.657600	-10.898000	24.763732	0.001012	20.941395
892.254884	-3.002300	3.658700	-10.984000	24.784623	0.001013	20.932016
893.256803	-3.022800	3.657300	-11.055000	24.788275	0.001010	20.944214
894.259301	-2.999500	3.657500	-10.969000	24.794632	0.001010	20.934474
895.256719	-2.996600	3.658100	-10.960000	24.755314	0.001009	20.911140
896.257599	-3.026000	3.656000	-11.062000	24.715995	0.001010	20.933320
897.260464	-3.006000	3.655600	-10.987000	24.712507	0.001010	20.916072
898.257789	-3.024200	3.655000	-11.053000	24.686555	0.001009	20.918952
899.257700	-3.004000	3.654700	-10.978000	24.653520	0.001007	20.927053
900.258414	-3.021500	3.655800	-11.045000	24.654131	0.001008	20.905858
901.257987	-2.992300	3.656800	-10.941000	24.638065	0.001008	20.921503
902.259365	-2.985400	3.656500	-10.916000	24.660911	0.001008	20.915979
903.262965	-3.006500	3.654900	-10.987000	24.635265	0.001008	20.908738
904.258285	-2.998600	3.654300	-10.957000	24.631254	0.001008	20.927471
905.258326	-2.990700	3.654500	-10.928000	24.619055	0.001006	20.919498
906.263390	-2.985800	3.654200	-10.909000	24.644151	0.001008	20.929506
907.258933	-3.012600	3.653800	-11.007000	24.673905	0.001007	20.901518
908.260141	-3.010500	3.653200	-10.997000	24.702856	0.001005	20.917767
909.261804	-2.991100	3.655000	-10.932000	24.714936	0.001008	20.902389
910.262478	-2.987300	3.654500	-10.916000	24.774136	0.001006	20.913433
911.260207	-2.989200	3.654900	-10.924000	24.740030	0.001005	20.926146
912.265179	-3.005200	3.653500	-10.978000	24.741329	0.001005	20.901848
913.262831	-3.030200	3.651300	-11.063000	24.731150	0.001006	20.900642
914.259966	-3.002400	3.653500	-10.967000	24.718546	0.001006	20.899848
915.262336	-3.001500	3.652400	-10.962000	24.697499	0.001004	20.895324
916.258977	-3.001500	3.651600	-10.957000	24.728530	0.001003	20.896117
917.263176	-2.975500	3.652200	-10.866000	24.746845	0.001004	20.904064
918.259555	-2.983400	3.650900	-10.891000	24.739156	0.001003	20.921951
919.260629	-3.003900	3.650600	-10.965000	24.761579	0.001005	20.900359
920.261379	-2.996300	3.649400	-10.934000	24.772395	0.001002	20.912634
921.262514	-3.012400	3.650300	-10.995000	24.751924	0.001004	20.917220
922.261716	-2.998800	3.651400	-10.948000	24.723590	0.001002	20.923873
923.261150	-3.009600	3.651300	-10.987000	24.710981	0.001002	20.906955
924.261655	-2.984900	3.651500	-10.897000	24.748668	0.001002	20.913005
925.264385	-3.008000	3.650200	-10.979000	24.758908	0.001000	20.898627
926.265810	-3.009300	3.648700	-10.979000	24.796491	0.001000	20.883713
927.262726	-3.026800	3.648400	-11.042000	24.811188	0.001000	20.898936
928.263673	-2.988200	3.650200	-10.906000	24.837004	0.001000	20.899714
929.263361	-3.003500	3.649200	-10.960000	24.845662	0.001000	20.924048
930.262812	-2.988500	3.649100	-10.904000	24.844717	0.000999	20.909825
931.265587	-3.002600	3.648700	-10.955000	24.871338	0.001000	20.894344
932.267826	-3.026600	3.644800	-11.029000	24.885372	0.001000	20.897524
933.269226	-2.992300	3.647900	-10.915000	24.879215	0.000998	20.897034
934.263921	-2.995500	3.646600	-10.923000	24.908752	0.000997	20.887800
935.264431	-2.987700	3.647400	-10.897000	24.910996	0.000997	20.889103
936.264174	-2.972200	3.648400	-10.843000	24.890682	0.000995	20.894319
937.263752	-3.022300	3.645700	-11.017000	24.893799	0.000995	20.884646
938.263827	-3.016000	3.645800	-10.996000	24.898549	0.000996	20.903162
939.264579	-3.018200	3.645900	-11.003000	24.902544	0.000997	20.901482
940.263944	-3.000800	3.646200	-10.941000	24.922704	0.000996	20.900853
941.264778	-3.005500	3.645400	-10.956000	24.916244	0.000996	20.912860
942.266940	-3.012800	3.643900	-10.976000	24.869114	0.000994	20.893061
943.263673	-3.005600	3.643400	-10.948000	24.857381	0.000996	20.907362
944.264147	-3.003900	3.644800	-10.948000	24.842211	0.000994	20.893561
945.266701	-3.007000	3.643700	-10.956000	24.822024	0.000996	20.898431
946.265624	-2.984600	3.645600	-10.879000	24.843654	0.000995	20.900224
947.264923	-3.022400	3.642100	-11.007000	24.859193	0.000994	20.886898
948.270513	-3.003200	3.643000	-10.939000	24.875729	0.000991	20.901595
949.265241	-2.984500	3.644400	-10.874000	24.848671	0.000995	20.900044
950.265726	-2.980600	3.642900	-10.857000	24.830359	0.000993	20.900157
951.266315	-2.999500	3.641500	-10.920000	24.827488	0.000992	20.886846
952.265597	-3.029300	3.640500	-11.027000	24.787786	0.000991	20.900580
953.265237	-3.016500	3.642700	-10.986000	24.791273	0.000991	20.892226
954.274004	-3.002000	3.642000	-10.932000	24.826199	0.000992	20.892664
955.268712	-2.983800	3.643100	-10.869000	24.833209	0.000991	20.894009
956.269784	-2.984700	3.640600	-10.864000	24.832171	0.000989	20.902925
957.269061	-2.988800	3.640200	-10.879000	24.830220	0.000991	20.881528
958.269037	-3.008500	3.640800	-10.952000	24.846566	0.000990	20.910732
959.268886	-2.986400	3.640700	-10.870000	24.842822	0.000990	20.873313
960.269177	-2.997800	3.640400	-10.913000	24.852065	0.000987	20.892546
961.269388	-3.010000	3.639100	-10.953000	24.865679	0.000989	20.887717
962.271573	-3.014900	3.638400	-10.968000	24.878943	0.000987	20.882064
963.270974	-3.001400	3.639300	-10.922000	24.881562	0.000987	20.881847
964.273820	-3.008200	3.639700	-10.947000	24.892531	0.000987	20.908501
965.272478	-3.000800	3.638500	-10.916000	24.912958	0.000987	20.892494
966.272529	-3.000800	3.638500	-10.918000	24.935890	0.000986	20.909820
967.272540	-3.012900	3.637500	-10.958000	24.916033	0.000987	20.882306
968.271405	-2.999500	3.637800	-10.910000	24.884320	0.000985	20.899786
969.271655	-3.015900	3.637400	-10.969000	24.877156	0.000983	20.897338
970.271611	-3.000200	3.638900	-10.916000	24.909091	0.000984	20.873442
971.273837	-2.997600	3.636900	-10.901000	24.900793	0.000985	20.865114
972.273453	-2.984100	3.638100	-10.856000	24.916496	0.000985	20.872339
973.273336	-3.002700	3.636300	-10.918000	24.924973	0.000984	20.881796
974.273242	-2.987400	3.636100	-10.861000	24.953395	0.000984	20.878554
975.274608	-2.971200	3.637000	-10.805000	24.929225	0.000985	20.879899
976.274643	-3.005000	3.635600	-10.925000	24.951505	0.000983	20.885666
977.274805	-2.989900	3.636700	-10.871000	24.947063	0.000984	20.876467
978.274100	-2.993400	3.635800	-10.882000	24.936481	0.000982	20.880543
979.274927	-3.021800	3.634600	-10.982000	24.916049	0.000982	20.892278
980.273248	-3.010200	3.634900	-10.939000	24.910457	0.000982	20.891407
981.275054	-3.015900	3.635700	-10.962000	24.914354	0.000981	20.877776
982.277170	-2.978900	3.635300	-10.827000	24.937769	0.000981	20.888949
983.278884	-3.022500	3.634700	-10.984000	24.943782	0.000980	20.862743
984.276597	-3.011000	3.634200	-10.941000	24.936825	0.000978	20.863820
985.277433	-2.990100	3.633400	-10.863000	24.956193	0.000980	20.866665
986.281257	-3.014500	3.633700	-10.952000	24.957369	0.000979	20.855992
987.278735	-2.994800	3.633300	-10.880000	24.955721	0.000981	20.884208
988.277385	-2.980800	3.633100	-10.828000	24.983058	0.000979	20.875137
989.278032	-2.995700	3.632000	-10.879000	24.984665	0.000977	20.864897
990.277509	-2.987500	3.632400	-10.851000	25.006384	0.000979	20.869628
991.277110	-3.011400	3.631800	-10.935000	25.010076	0.000978	20.859584
992.277765	-2.992400	3.631900	-10.867000	24.965518	0.000976	20.863697
993.279919	-2.966900	3.631700	-10.774000	24.965030	0.000977	20.845664
994.278532	-2.973000	3.632400	-10.798000	24.951089	0.000978	20.858224
995.277618	-3.012900	3.629700	-10.935000	24.966411	0.000978	20.858904
996.280519	-2.991900	3.629600	-10.858000	24.994195	0.000975	20.860239
997.278923	-3.017100	3.629400	-10.949000	25.026214	0.000977	20.855394
998.278526	-3.010100	3.629800	-10.925000	25.054976	0.000973	20.862929
999.280056	-3.003200	3.629700	-10.900000	25.037792	0.000974	20.877920
1000.280865	-3.011000	3.628000	-10.923000	25.051033	0.000974	20.878884
1001.280361	-3.023100	3.627800	-10.966000	25.043003	0.000974	20.876514
1002.280148	-3.016100	3.627900	-10.941000	25.028170	0.000974	20.860203
1003.280545	-2.994100	3.628100	-10.861000	24.985056	0.000974	20.845850
1004.280073	-3.009400	3.627900	-10.917000	25.001065	0.000975	20.857178
1005.280669	-2.996400	3.627100	-10.866000	24.978339	0.000973	20.859497
1006.284587	-3.007800	3.627400	-10.910000	24.974370	0.000972	20.851720
1007.284104	-3.005700	3.625800	-10.896000	24.957698	0.000972	20.862960
1008.281505	-3.003200	3.627300	-10.893000	24.944789	0.000972	20.859961
1009.283095	-3.003400	3.627400	-10.893000	24.931064	0.000971	20.855668
1010.286682	-2.976700	3.627000	-10.795000	24.923454	0.000972	20.860832
1011.282702	-2.987500	3.625700	-10.830000	24.928127	0.000970	20.869788
1012.283795	-2.998700	3.625600	-10.870000	24.921693	0.000968	20.865228
1013.292797	-3.003000	3.626600	-10.889000	24.945518	0.000969	20.862115
1014.283317	-2.976600	3.625900	-10.792000	24.974026	0.000969	20.845685
1015.285332	-2.980300	3.626000	-10.804000	24.993831	0.000970	20.848494
1016.286825	-2.985900	3.625400	-10.824000	25.004593	0.000969	20.856925
1017.284020	-2.984300	3.624400	-10.815000	24.970797	0.000967	20.858090
1018.285573	-2.992200	3.624600	-10.845000	24.953559	0.000966	20.850272
1019.287303	-2.991000	3.624100	-10.838000	24.974129	0.000966	20.850530
1020.285292	-3.001200	3.623400	-10.874000	24.950484	0.000967	20.838176
1021.285549	-2.985800	3.624200	-10.820000	25.007463	0.000967	20.859806
1022.285849	-2.982900	3.624100	-10.810000	25.009060	0.000967	20.836280
1023.288526	-3.009000	3.622200	-10.898000	24.987150	0.000964	20.827565
1024.287173	-2.996800	3.621300	-10.851000	25.013860	0.000965	20.841573
1025.287221	-2.992600	3.622400	-10.840000	24.977805	0.000965	20.841892
1026.291068	-2.996200	3.622700	-10.853000	24.954571	0.000966	20.849865
1027.287243	-3.004400	3.622200	-10.880000	24.960491	0.000964	20.844902
1028.287128	-3.026000	3.621000	-10.956000	24.935978	0.000963	20.854436
1029.290452	-3.000500	3.620600	-10.863000	24.899438	0.000962	20.843840
1030.287914	-2.997400	3.620500	-10.851000	24.924003	0.000962	20.845737
1031.290163	-2.995300	3.620800	-10.843000	24.931726	0.000961	20.837841
1032.296261	-3.002000	3.620400	-10.867000	24.942170	0.000963	20.850220
1033.289845	-3.021800	3.619200	-10.935000	24.959639	0.000961	20.852581
1034.290733	-3.008100	3.618900	-10.884000	24.975742	0.000962	20.846458
1035.290218	-2.980800	3.619100	-10.787000	24.959829	0.000960	20.861306
1036.290149	-3.004900	3.618200	-10.871000	24.958848	0.000958	20.845149
1037.290145	-2.986900	3.620400	-10.812000	24.962345	0.000959	20.841073
1038.291450	-2.997700	3.619800	-10.849000	24.981025	0.000957	20.852235
1039.290547	-3.007200	3.618100	-10.880000	25.021752	0.000960	20.848071
1040.289524	-2.990100	3.617500	-10.816000	25.031302	0.000959	20.820674
1041.290257	-2.996900	3.617100	-10.838000	25.081295	0.000958	20.830080
1042.292210	-2.993700	3.618600	-10.831000	25.060999	0.000958	20.841001
1043.291631	-2.999400	3.617700	-10.848000	25.072715	0.000956	20.836166
1044.291306	-3.017000	3.616800	-10.911000	25.030820	0.000957	20.834889
1045.292768	-2.992800	3.618000	-10.827000	25.021054	0.000958	20.826983
1046.292472	-2.987000	3.617100	-10.803000	25.015267	0.000956	20.853890
1047.290928	-2.999700	3.614200	-10.840000	24.990729	0.000956	20.823571
1048.292168	-2.971500	3.616100	-10.743000	24.943593	0.000956	20.834105
1049.291378	-3.009800	3.615100	-10.880000	24.954535	0.000954	20.841769
1050.295124	-2.995600	3.614400	-10.826000	24.960471	0.000956	20.821174
1051.293631	-3.005300	3.613100	-10.857000	24.966833	0.000954	20.838939
1052.293563	-3.017200	3.614100	-10.903000	24.955213	0.000954	20.826328
1053.292613	-3.010000	3.613800	-10.877000	24.929051	0.000954	20.836579
1054.292011	-2.988300	3.615000	-10.800000	24.929154	0.000954	20.822932
1055.295476	-3.008700	3.613700	-10.872000	24.899048	0.000953	20.824957
1056.293335	-3.026400	3.613600	-10.934000	24.875924	0.000952	20.804121
1057.291130	-3.012700	3.611600	-10.879000	24.901538	0.000953	20.820345
1058.295357	-3.013200	3.613300	-10.886000	24.932528	0.000954	20.829163
1059.291760	-3.001800	3.612300	-10.842000	24.944209	0.000951	20.838991
1060.291771	-3.007200	3.611700	-10.859000	24.965457	0.000953	20.833291
1061.294454	-2.988100	3.611800	-10.790000	24.973092	0.000950	20.817722
1062.293504	-3.002800	3.611100	-10.843000	24.967716	0.000951	20.825128
1063.292880	-2.999500	3.612400	-10.834000	25.008958	0.000950	20.839970
1064.293955	-3.010700	3.610200	-10.868000	24.995541	0.000948	20.851633
1065.294344	-3.006300	3.609900	-10.851000	24.992594	0.000950	20.838244
1066.293068	-3.009100	3.609900	-10.861000	25.006175	0.000950	20.801142
1067.292021	-2.989700	3.610000	-10.791000	24.970607	0.000948	20.839409
1068.292900	-3.010500	3.610700	-10.868000	24.971742	0.000948	20.815418
1069.293460	-2.998300	3.610200	-10.824000	24.956590	0.000947	20.841460
1070.295787	-2.991000	3.608600	-10.791000	24.938346	0.000949	20.826942
1071.294296	-3.001400	3.609200	-10.831000	24.963958	0.000947	20.818511
1072.294801	-2.984500	3.609300	-10.771000	25.000881	0.000945	20.828071
1073.296721	-3.005100	3.607700	-10.840000	25.018662	0.000945	20.815099
1074.296514	-2.980900	3.608400	-10.755000	25.032746	0.000943	20.824968
1075.296230	-3.003800	3.607500	-10.836000	25.071099	0.000944	20.832647
1076.296576	-3.002500	3.608100	-10.832000	25.075704	0.000944	20.821623
1077.297348	-3.003700	3.605700	-10.830000	25.075350	0.000942	20.814156
1078.297376	-2.996600	3.607700	-10.809000	25.083981	0.000944	20.819500
1079.297235	-2.995100	3.608300	-10.806000	25.070627	0.000943	20.810837
1080.300765	-2.992600	3.606700	-10.792000	25.063644	0.000943	20.840337
1081.295978	-3.001400	3.607400	-10.827000	25.091513	0.000942	20.829431
1082.297853	-3.000400	3.606000	-10.818000	25.129761	0.000942	20.819938
1083.299379	-3.020700	3.604300	-10.886000	25.138607	0.000943	20.827870
1084.299906	-2.987000	3.605300	-10.768000	25.185098	0.000942	20.815274
1085.296376	-3.007100	3.604200	-10.837000	25.188938	0.000941	20.830509
1086.298265	-3.002300	3.603900	-10.818000	25.172639	0.000940	20.820310
1087.298973	-3.012500	3.603800	-10.855000	25.189719	0.000940	20.829396
1088.299594	-3.009000	3.604400	-10.844000	25.184128	0.000939	20.826628
1089.298729	-3.017900	3.603800	-10.874000	25.168517	0.000939	20.842723
1090.309787	-3.008900	3.603800	-10.843000	25.156442	0.000939	20.816851
1091.298876	-3.013700	3.601100	-10.852000	25.185098	0.000940	20.812904
1092.299525	-2.995800	3.603400	-10.794000	25.177403	0.000936	20.826041
1093.300612	-3.011800	3.603800	-10.852000	25.151950	0.000939	20.817558
1094.300856	-2.991200	3.602100	-10.774000	25.148644	0.000938	20.810920
1095.300736	-3.007600	3.602400	-10.834000	25.140527	0.000937	20.822212
1096.301534	-2.999100	3.601500	-10.800000	25.146770	0.000936	20.826108
1097.302225	-3.012400	3.600900	-10.846000	25.136035	0.000935	20.806323
1098.302583	-2.999100	3.602100	-10.802000	25.109739	0.000934	20.809322
1099.303841	-2.992400	3.600700	-10.774000	25.110376	0.000934	20.839358
1100.304684	-2.992600	3.600900	-10.775000	25.129156	0.000934	20.837348
1101.303730	-2.995200	3.599900	-10.782000	25.140019	0.000933	20.822176
1102.306027	-3.012400	3.599800	-10.843000	25.152289	0.000934	20.825484
1103.308731	-3.011400	3.599300	-10.838000	25.147145	0.000933	20.830277
1104.310456	-3.002600	3.599000	-10.806000	25.156627	0.000932	20.827469
1105.307372	-3.011500	3.598400	-10.835000	25.186311	0.000930	20.847785
1106.311478	-3.012700	3.596800	-10.835000	25.167255	0.000931	20.830551
1107.312006	-3.016900	3.598600	-10.854000	25.192528	0.000932	20.840276
1108.306636	-3.003400	3.598100	-10.805000	25.214192	0.000931	20.833102
1109.309820	-2.967400	3.599400	-10.679000	25.191126	0.000931	20.826067
1110.308190	-2.994600	3.597600	-10.772000	25.233529	0.000929	20.829757
1111.308926	-3.023800	3.596700	-10.874000	25.218699	0.000928	20.845213
1112.309561	-3.019900	3.595300	-10.855000	25.195926	0.000930	20.836576
1113.308184	-2.991600	3.597200	-10.760000	25.222528	0.000928	20.842894
1114.309424	-2.997900	3.596800	-10.782000	25.217436	0.000928	20.822609
1115.310751	-3.022200	3.593500	-10.858000	25.217092	0.000927	20.844074
1116.309201	-3.011600	3.596400	-10.830000	25.263857	0.000925	20.824171
1117.308015	-3.009600	3.594500	-10.817000	25.293420	0.000927	20.819239
1118.309591	-2.995400	3.594700	-10.766000	25.257913	0.000928	20.831005
1119.311470	-2.990000	3.594400	-10.746000	25.245686	0.000926	20.821573
1120.311009	-3.007700	3.593400	-10.806000	25.246733	0.000927	20.833056
1121.308633	-3.004800	3.593800	-10.798000	25.247282	0.000927	20.844038
1122.315195	-2.984100	3.593900	-10.722000	25.212282	0.000925	20.834030
1123.310974	-2.976000	3.593200	-10.693000	25.216102	0.000923	20.844977
1124.310520	-2.979500	3.593500	-10.705000	25.235183	0.000925	20.848012
1125.314816	-2.985800	3.593300	-10.728000	25.229284	0.000921	20.843513
1126.310128	-3.011100	3.590600	-10.810000	25.256374	0.000923	20.832304
1127.316072	-2.981500	3.592600	-10.710000	25.246328	0.000922	20.823640
1128.312187	-2.987700	3.591100	-10.728000	25.263037	0.000922	20.838519
1129.311549	-3.001000	3.591000	-10.775000	25.262960	0.000921	20.837019
1130.309941	-3.001000	3.592100	-10.778000	25.218309	0.000921	20.849089
1131.313914	-2.983500	3.590500	-10.712000	25.172676	0.000921	20.839313
1132.312296	-3.007400	3.589200	-10.793000	25.133069	0.000920	20.852656
1133.310709	-3.002000	3.590600	-10.777000	25.107040	0.000920	20.834587
1134.309165	-3.005900	3.589400	-10.789000	25.110819	0.000919	20.862087
1135.314814	-3.005400	3.590200	-10.789000	25.136873	0.000918	20.855052
1136.311164	-3.014900	3.589200	-10.819000	25.152065	0.000918	20.852285
1137.311606	-3.013400	3.588200	-10.812000	25.132777	0.000919	20.861845
1138.312197	-3.014900	3.589900	-10.822000	25.167266	0.000919	20.844312
1139.313756	-2.997900	3.588500	-10.756000	25.154683	0.000919	20.863922
1140.310891	-3.012900	3.587500	-10.808000	25.172502	0.000917	20.864267
1141.312963	-3.021700	3.585600	-10.834000	25.171429	0.000915	20.861293
1142.311668	-3.006800	3.587500	-10.786000	25.137130	0.000917	20.846776
1143.312194	-3.012200	3.586800	-10.803000	25.119680	0.000916	20.872404
1144.312209	-3.021800	3.586000	-10.834000	25.094123	0.000914	20.861448
1145.310915	-3.008300	3.586100	-10.786000	25.088496	0.000914	20.861015
1146.310765	-3.033600	3.584200	-10.872000	25.075322	0.000914	20.862489
1147.312000	-3.015400	3.584400	-10.807000	25.101670	0.000915	20.869024
1148.312287	-3.010400	3.586400	-10.796000	25.098251	0.000914	20.845678
1149.311164	-3.005500	3.586300	-10.777000	25.135780	0.000912	20.872446
1150.310988	-3.017800	3.584300	-10.815000	25.174956	0.000911	20.855351
1151.312275	-3.010000	3.586100	-10.793000	25.201636	0.000913	20.860325
1152.317153	-2.985900	3.584300	-10.702000	25.224254	0.000911	20.870230
1153.313159	-3.020500	3.582800	-10.820000	25.234121	0.000911	20.846946
1154.312225	-3.002100	3.583600	-10.757000	25.240723	0.000909	20.859263
1155.316906	-3.010700	3.583000	-10.786000	25.275439	0.000910	20.871833
1156.317214	-2.981600	3.584900	-10.687000	25.252237	0.000909	20.849487
1157.314494	-2.976000	3.583900	-10.665000	25.275301	0.000910	20.869323
1158.325058	-2.985700	3.584400	-10.701000	25.258084	0.000910	20.868158
1159.318789	-2.989700	3.583100	-10.711000	25.207232	0.000909	20.864046
1160.318748	-2.989700	3.583800	-10.714000	25.200363	0.000909	20.854306
1161.318738	-2.982600	3.582200	-10.683000	25.187078	0.000906	20.865623
1162.316823	-3.006800	3.581200	-10.766000	25.170460	0.000908	20.884026
1163.316218	-2.997600	3.581700	-10.735000	25.170932	0.000907	20.842777
1164.320970	-3.016700	3.581100	-10.802000	25.183787	0.000906	20.863742
1165.317976	-2.995900	3.581600	-10.729000	25.206519	0.000905	20.860485
1166.317420	-2.993000	3.580700	-10.716000	25.225657	0.000904	20.883016
1167.316522	-2.961400	3.580900	-10.603000	25.237628	0.000905	20.890293
1168.318037	-3.015800	3.579100	-10.793000	25.219784	0.000903	20.871905
1169.316005	-3.001200	3.580000	-10.744000	25.221766	0.000903	20.879110
1170.317531	-3.007800	3.579400	-10.765000	25.225580	0.000901	20.869664
1171.316712	-3.008900	3.579600	-10.768000	25.227192	0.000904	20.887876
1172.316530	-2.972700	3.578700	-10.637000	25.213316	0.000903	20.869679
1173.319020	-3.007000	3.578400	-10.760000	25.198752	0.000903	20.878291
1174.318753	-2.979300	3.579000	-10.662000	25.197412	0.000900	20.880265
1175.320452	-3.005300	3.578200	-10.753000	25.212577	0.000900	20.887902
1176.320601	-2.989200	3.577800	-10.694000	25.203398	0.000899	20.888644
1177.321657	-2.996500	3.575700	-10.714000	25.212757	0.000901	20.889979
1178.321301	-3.010000	3.576300	-10.764000	25.194148	0.000900	20.870824
1179.321494	-3.002600	3.577000	-10.739000	25.157703	0.000900	20.866954
1180.324112	-3.006100	3.576500	-10.750000	25.140382	0.000899	20.885599
1181.321607	-3.040000	3.573900	-10.863000	25.150198	0.000896	20.885970
1182.321442	-3.003700	3.576400	-10.742000	25.163458	0.000896	20.896436
1183.325217	-3.005700	3.574700	-10.744000	25.207002	0.000896	20.902219
1184.323534	-2.990100	3.575400	-10.689000	25.244836	0.000897	20.887099
1185.326083	-2.997300	3.574900	-10.713000	25.264147	0.000896	20.888944
1186.326130	-2.994500	3.574500	-10.703000	25.256566	0.000894	20.886547
1187.325141	-2.965400	3.574500	-10.599000	25.245616	0.000895	20.894046
1188.326361	-2.993400	3.574300	-10.698000	25.236971	0.000894	20.885841
1189.328300	-3.013500	3.573600	-10.767000	25.239718	0.000893	20.882909
1190.328474	-3.018800	3.571400	-10.780000	25.238163	0.000894	20.885141
1191.330804	-2.985900	3.574300	-10.672000	25.281919	0.000893	20.901570
1192.328427	-3.003600	3.573500	-10.732000	25.242911	0.000893	20.889908
1193.331881	-2.994000	3.573200	-10.697000	25.239492	0.000893	20.896432
1194.329333	-2.986200	3.573600	-10.671000	25.220945	0.000894	20.910052
1195.329948	-2.992500	3.572000	-10.688000	25.244344	0.000891	20.894664
1196.330318	-2.996700	3.571200	-10.701000	25.251382	0.000891	20.901256
1197.333693	-3.007500	3.570300	-10.737000	25.300147	0.000891	20.903276
1198.330852	-2.993900	3.570900	-10.689000	25.316168	0.000889	20.913196
1199.330850	-2.989900	3.571800	-10.679000	25.353526	0.000890	20.884801
1200.333691	-3.016600	3.568600	-10.764000	25.390985	0.000888	20.919566
1201.333656	-2.996300	3.570000	-10.696000	25.417059	0.000887	20.913506
1202.331610	-2.992100	3.569900	-10.679000	25.410361	0.000888	20.888290
1203.336884	-3.026200	3.566900	-10.792000	25.440951	0.000886	20.903359
1204.336833	-3.009800	3.567500	-10.736000	25.439534	0.000887	20.890558
1205.335659	-2.995600	3.568200	-10.686000	25.408462	0.000887	20.925735
1206.341229	-3.025000	3.567900	-10.790000	25.379811	0.000885	20.908348
1207.339006	-2.994000	3.568200	-10.682000	25.312206	0.000884	20.910641
1208.336356	-3.006300	3.566900	-10.722000	25.301498	0.000883	20.903684
1209.339082	-2.974000	3.566800	-10.606000	25.305241	0.000885	20.932568
1210.337543	-2.988900	3.566500	-10.657000	25.277824	0.000885	20.885606
1211.339563	-3.018300	3.565400	-10.760000	25.288050	0.000883	20.891131
1212.338173	-3.004300	3.566400	-10.713000	25.269098	0.000883	20.944169
1213.340724	-2.998000	3.565500	-10.688000	25.243313	0.000881	20.926344
1214.338530	-2.999600	3.565300	-10.694000	25.250079	0.000883	20.925550
1215.340012	-2.990600	3.566000	-10.663000	25.286787	0.000880	20.912146
1216.339623	-2.977900	3.566000	-10.618000	25.309892	0.000880	20.920644
1217.339877	-2.992900	3.563800	-10.664000	25.324901	0.000879	20.934764
1218.341325	-3.011700	3.563500	-10.730000	25.326205	0.000880	20.910946
1219.341687	-3.010500	3.562200	-10.724000	25.275141	0.000879	20.932219
1220.340820	-2.995600	3.563300	-10.673000	25.242220	0.000878	20.916238
1221.341609	-2.988400	3.561900	-10.643000	25.218735	0.000879	20.904989
1222.345922	-3.014800	3.562400	-10.739000	25.257795	0.000878	20.929029
1223.340044	-3.008400	3.562100	-10.715000	25.259443	0.000878	20.930684
1224.342440	-3.008200	3.561000	-10.709000	25.296495	0.000878	20.915729
1225.342948	-3.023600	3.561500	-10.768000	25.325481	0.000875	20.927287
1226.341591	-2.972200	3.562600	-10.588000	25.324881	0.000877	20.928107
1227.342687	-2.989100	3.562200	-10.647000	25.329552	0.000875	20.929952
1228.344348	-2.987500	3.561000	-10.637000	25.335347	0.000874	20.927236
1229.342640	-2.983000	3.560400	-10.620000	25.343580	0.000874	20.922701
1230.345840	-3.011600	3.559500	-10.719000	25.385788	0.000876	20.936156
1231.344321	-2.984500	3.560800	-10.626000	25.376559	0.000874	20.947751
1232.346700	-3.002600	3.559900	-10.688000	25.373844	0.000872	20.936492
1233.344361	-2.998600	3.560000	-10.673000	25.345202	0.000873	20.925278
1234.345333	-3.015300	3.559100	-10.731000	25.302177	0.000874	20.923804
1235.349032	-3.015400	3.558000	-10.727000	25.278185	0.000872	20.955662
1236.351189	-3.012100	3.557400	-10.714000	25.286085	0.000871	20.933724
1237.345186	-2.990100	3.558400	-10.639000	25.306582	0.000871	20.930122
1238.348100	-3.023200	3.558400	-10.756000	25.335542	0.000872	20.953507
1239.346985	-3.010100	3.557800	-10.708000	25.350361	0.000868	20.947999
1240.347589	-3.008800	3.557400	-10.702000	25.396931	0.000870	20.949715
1241.347925	-2.990700	3.557600	-10.638000	25.401566	0.000869	20.933508
1242.349648	-3.011700	3.556100	-10.709000	25.396972	0.000868	20.936956
1243.347960	-2.989400	3.557600	-10.634000	25.351460	0.000869	20.935353
1244.348168	-3.010000	3.556400	-10.702000	25.351460	0.000868	20.932508
1245.347708	-3.016900	3.554900	-10.724000	25.375261	0.000866	20.951188
1246.349110	-2.991100	3.553900	-10.629000	25.360201	0.000868	20.942232
1247.348460	-2.996500	3.555900	-10.654000	25.388257	0.000864	20.950488
1248.348873	-3.008900	3.554300	-10.694000	25.353349	0.000865	20.938672
1249.350910	-2.982900	3.554900	-10.603000	25.360140	0.000865	20.952127
1250.351837	-3.007900	3.553700	-10.688000	25.349433	0.000864	20.938059
1251.350778	-2.980300	3.554000	-10.591000	25.374563	0.000864	20.953807
1252.354580	-3.023700	3.551300	-10.736000	25.378951	0.000861	20.952049
1253.353484	-2.987300	3.552700	-10.612000	25.346127	0.000863	20.950385
1254.352485	-2.990700	3.554100	-10.628000	25.389340	0.000861	20.956790
1255.352510	-3.007000	3.552400	-10.681000	25.379285	0.000862	20.967555
1256.352095	-3.003300	3.551300	-10.665000	25.366751	0.000860	20.958764
1257.353585	-2.987900	3.552000	-10.613000	25.383201	0.000861	20.960583
1258.352152	-2.996300	3.552000	-10.642000	25.380635	0.000860	20.966540
1259.352760	-3.016500	3.549300	-10.705000	25.430232	0.000860	20.965607
1260.354882	-2.984600	3.551700	-10.600000	25.464598	0.000860	20.963134
1261.353022	-2.995400	3.550200	-10.633000	25.469895	0.000858	20.971770
1262.353513	-2.999500	3.549500	-10.646000	25.498071	0.000859	20.952652
1263.353496	-3.014400	3.547900	-10.693000	25.515608	0.000856	20.960779
1264.355164	-2.987300	3.549800	-10.603000	25.493468	0.000857	20.958460
1265.358884	-3.006100	3.549700	-10.670000	25.490265	0.000856	20.978001
1266.355990	-2.990700	3.549700	-10.615000	25.505220	0.000857	20.975476
1267.356548	-2.995500	3.548200	-10.627000	25.507391	0.000856	20.955374
1268.355174	-2.997500	3.547900	-10.634000	25.530578	0.000858	20.968700
1269.359160	-2.981300	3.547300	-10.574000	25.523650	0.000855	20.977388
1270.358026	-2.992700	3.547700	-10.616000	25.498780	0.000854	20.967113
1271.356353	-2.999800	3.548000	-10.642000	25.483696	0.000854	20.983731
1272.360020	-2.989000	3.547900	-10.603000	25.478975	0.000852	20.974724
1273.357388	-2.982800	3.547900	-10.581000	25.451322	0.000853	20.976352
1274.356935	-3.005200	3.546400	-10.656000	25.420681	0.000853	20.972611
1275.358570	-2.992000	3.546800	-10.612000	25.426938	0.000853	20.987901
1276.357138	-2.984300	3.546400	-10.582000	25.394674	0.000852	20.979213
1277.360267	-3.025900	3.544300	-10.724000	25.366213	0.000851	21.003262
1278.364917	-3.009800	3.543800	-10.665000	25.357744	0.000849	20.980538
1279.357096	-2.997800	3.544000	-10.623000	25.342248	0.000850	20.983943
1280.358381	-3.003200	3.544100	-10.643000	25.361994	0.000850	20.995234
1281.358660	-3.004600	3.543200	-10.645000	25.368451	0.000849	20.998872
1282.358689	-2.994500	3.546000	-10.618000	25.375381	0.000849	20.997769
1283.357656	-2.990700	3.544500	-10.599000	25.387330	0.000848	20.989854
1284.364428	-2.979000	3.544100	-10.557000	25.425116	0.000846	20.998398
1285.359394	-2.979200	3.543500	-10.556000	25.417628	0.000845	20.981398
1286.360508	-3.007800	3.543400	-10.657000	25.451231	0.000848	20.992854
1287.360260	-2.985800	3.544400	-10.581000	25.471611	0.000844	21.000990
1288.360781	-3.006100	3.543500	-10.650000	25.511771	0.000845	20.986794
1289.360175	-2.999700	3.543200	-10.627000	25.531765	0.000846	21.017773
1290.360677	-3.009600	3.541400	-10.657000	25.532217	0.000843	20.992153
1291.365832	-3.000100	3.541000	-10.623000	25.517401	0.000844	21.003825
1292.361318	-3.017500	3.541700	-10.686000	25.508395	0.000843	21.000945
1293.361515	-2.996800	3.541300	-10.612000	25.541429	0.000844	20.982440
1294.367193	-2.981800	3.542000	-10.560000	25.547188	0.000842	21.007185
1295.362865	-3.004000	3.541200	-10.636000	25.574340	0.000841	21.000790
1296.363261	-2.979500	3.541100	-10.548000	25.550981	0.000841	20.983023
1297.368736	-3.008000	3.539300	-10.646000	25.583404	0.000840	20.996142
1298.363666	-2.974300	3.540300	-10.529000	25.578862	0.000840	21.028559
1299.364585	-2.995300	3.539500	-10.601000	25.607944	0.000841	20.997080
1300.368847	-2.994200	3.539000	-10.596000	25.608862	0.000838	20.988047
1301.364541	-3.020000	3.537300	-10.681000	25.594904	0.000837	21.012905
1302.364312	-3.001300	3.537600	-10.616000	25.625007	0.000840	21.016111
1303.369234	-2.987700	3.538000	-10.570000	25.632709	0.000839	21.018630
1304.372540	-3.036400	3.535500	-10.734000	25.614518	0.000836	21.025963
1305.365575	-2.995500	3.538200	-10.598000	25.616422	0.000837	20.998483
1306.368294	-2.991300	3.537800	-10.581000	25.611855	0.000836	21.015230
1307.371160	-2.997200	3.537400	-10.602000	25.575091	0.000835	21.027617
1308.368395	-3.013000	3.536900	-10.655000	25.544074	0.000835	21.007851
1309.370047	-3.000500	3.536100	-10.609000	25.545552	0.000837	20.997009
1310.369888	-2.996400	3.536600	-10.595000	25.534313	0.000835	21.005161
1311.369445	-3.007000	3.535700	-10.631000	25.533816	0.000834	20.991862
1312.369689	-3.001000	3.535500	-10.609000	25.522587	0.000835	21.007609
1313.371286	-2.983700	3.535100	-10.547000	25.517840	0.000831	21.000946
1314.370504	-2.992600	3.534900	-10.578000	25.532045	0.000832	21.015210
1315.371049	-3.015600	3.532900	-10.653000	25.528166	0.000831	21.017477
1316.371049	-2.994400	3.533900	-10.581000	25.515751	0.000831	21.033930
1317.373077	-3.011000	3.533700	-10.640000	25.528731	0.000831	21.007141
1318.371086	-3.001700	3.533700	-10.606000	25.512282	0.000830	21.003900
1319.371118	-3.008000	3.532300	-10.624000	25.489069	0.000831	21.018045
1320.371570	-2.999100	3.533300	-10.596000	25.490958	0.000829	20.998608
1321.370695	-3.016100	3.530600	-10.647000	25.473883	0.000827	21.005641
1322.370664	-2.988600	3.531800	-10.554000	25.439378	0.000827	21.012243
1323.371009	-3.022000	3.530500	-10.669000	25.463090	0.000827	20.996166
1324.372654	-2.991800	3.531400	-10.563000	25.452908	0.000827	21.010656
1325.372559	-3.005900	3.529900	-10.610000	25.494279	0.000825	21.008105
1326.372592	-3.000900	3.530900	-10.594000	25.493145	0.000828	21.017396
1327.372885	-3.019600	3.529500	-10.656000	25.503009	0.000826	20.991271
1328.377302	-2.996900	3.529000	-10.574000	25.531939	0.000827	20.995666
1329.374333	-3.001700	3.527900	-10.588000	25.544645	0.000826	21.006054
1330.376789	-3.008800	3.528900	-10.616000	25.572989	0.000823	20.983314
1331.374997	-2.998400	3.527600	-10.576000	25.620381	0.000823	20.979228
1332.373786	-3.020000	3.527000	-10.650000	25.618133	0.000822	20.993564
1333.373900	-2.992800	3.528900	-10.559000	25.644201	0.000823	21.002200
1334.374510	-2.980900	3.529100	-10.519000	25.648322	0.000822	20.989745
1335.374675	-3.023100	3.525900	-10.657000	25.631737	0.000820	21.002010
1336.374645	-2.996000	3.526900	-10.564000	25.638423	0.000820	20.984072
1337.374950	-2.993200	3.527600	-10.557000	25.687495	0.000822	20.979306
1338.375095	-2.976700	3.527500	-10.499000	25.666569	0.000819	20.969669
1339.375504	-2.978200	3.525900	-10.500000	25.648004	0.000820	20.983263
1340.378098	-2.990000	3.526700	-10.543000	25.610579	0.000819	20.982660
1341.378422	-3.013800	3.524100	-10.620000	25.558138	0.000819	20.978357
1342.377374	-3.013000	3.525400	-10.622000	25.566954	0.000818	20.985314
1343.380265	-3.012000	3.523200	-10.611000	25.576904	0.000819	20.975394
1344.379526	-3.008600	3.525000	-10.603000	25.579024	0.000817	20.979419
1345.376865	-2.980500	3.525600	-10.506000	25.588441	0.000818	20.962800
1346.379675	-2.989100	3.523600	-10.531000	25.575288	0.000817	20.985623
1347.382124	-3.003000	3.523700	-10.581000	25.579660	0.000816	20.964887
1348.378411	-3.017000	3.520800	-10.622000	25.585470	0.000817	20.967876
1349.384492	-2.994700	3.522300	-10.547000	25.592725	0.000813	20.975162
1350.378181	-3.001800	3.522100	-10.571000	25.591694	0.000815	20.960852
1351.381083	-3.014900	3.520600	-10.613000	25.605386	0.000816	20.972230
1352.381988	-3.035100	3.520600	-10.685000	25.636493	0.000814	20.966015
1353.379589	-3.004400	3.521200	-10.578000	25.652237	0.000814	20.968076
1354.379645	-2.996100	3.520700	-10.547000	25.620647	0.000813	20.955318
1355.379200	-3.000500	3.521600	-10.564000	25.629807	0.000811	20.976368
1356.382388	-2.997700	3.520900	-10.554000	25.630074	0.000810	20.958146
1357.380179	-3.003400	3.520100	-10.571000	25.620298	0.000813	20.980093
1358.382933	-3.015700	3.520100	-10.615000	25.628580	0.000812	20.960914
1359.383416	-3.000300	3.519900	-10.560000	25.604692	0.000810	20.963948
1360.382912	-3.007800	3.519500	-10.584000	25.594906	0.000809	20.967396
1361.382643	-3.021700	3.518800	-10.632000	25.560220	0.000809	20.939677
1362.386766	-2.999400	3.518200	-10.551000	25.582959	0.000810	20.950184
1363.393342	-2.977300	3.518500	-10.472000	25.541694	0.000809	20.947149
1364.385082	-3.010200	3.517900	-10.589000	25.539292	0.000809	20.976975
1365.390033	-3.000200	3.516500	-10.550000	25.521710	0.000807	20.954106
1366.387803	-2.995400	3.517800	-10.537000	25.518173	0.000808	20.959089
1367.385322	-3.009300	3.516500	-10.579000	25.509212	0.000807	20.964313
1368.394404	-3.023200	3.515000	-10.626000	25.525548	0.000806	20.952271
1369.387897	-2.996700	3.516000	-10.534000	25.521058	0.000805	20.952029
1370.385838	-3.011200	3.515500	-10.585000	25.533128	0.000806	20.945659
1371.389288	-3.020600	3.514200	-10.614000	25.505830	0.000804	20.941954
1372.388119	-3.001300	3.516700	-10.553000	25.492574	0.000801	20.966571
1373.389628	-3.032100	3.513000	-10.651000	25.486574	0.000804	20.947272
1374.388738	-3.017400	3.512900	-10.598000	25.467842	0.000802	20.940789
1375.388172	-3.012500	3.514300	-10.585000	25.472512	0.000802	20.955435
1376.389496	-2.999700	3.514700	-10.542000	25.479990	0.000802	20.957728
1377.389637	-3.032500	3.513000	-10.652000	25.465789	0.000801	20.960063
1378.392045	-3.000200	3.513200	-10.539000	25.517213	0.000802	20.956228
1379.390464	-3.013900	3.512400	-10.585000	25.546451	0.000802	20.946237
1380.391075	-3.011800	3.512200	-10.576000	25.560348	0.000799	20.944546
1381.396486	-3.011400	3.512500	-10.576000	25.597287	0.000799	20.960779
1382.393554	-3.011600	3.512900	-10.579000	25.595465	0.000798	20.960846
1383.393746	-2.979900	3.512400	-10.465000	25.597338	0.000798	20.969838
1384.396320	-2.985100	3.511600	-10.481000	25.601577	0.000798	20.946123
1385.397192	-2.995600	3.511800	-10.518000	25.580511	0.000798	20.946778
1386.393955	-3.004100	3.510800	-10.546000	25.595645	0.000797	20.948700
1387.396568	-3.008700	3.509500	-10.558000	25.620375	0.000797	20.941769
1388.395816	-3.018000	3.509100	-10.589000	25.611363	0.000794	20.937461
1389.395937	-3.003300	3.510900	-10.543000	25.590323	0.000796	20.947623
1390.398593	-3.005000	3.509700	-10.546000	25.583688	0.000796	20.942856
1391.399858	-3.013700	3.509200	-10.574000	25.570751	0.000794	20.962578
1392.398222	-3.013100	3.507500	-10.567000	25.600048	0.000795	20.951225
1393.400398	-3.017300	3.506900	-10.579000	25.578279	0.000795	20.933632
1394.399425	-3.015800	3.505900	-10.572000	25.601429	0.000793	20.932226
1395.400230	-2.985000	3.508900	-10.473000	25.604287	0.000793	20.952638
1396.404001	-2.980400	3.507800	-10.454000	25.616434	0.000794	20.951087
1397.404788	-2.989900	3.508000	-10.488000	25.597180	0.000794	20.946923
1398.402613	-3.013600	3.505200	-10.560000	25.620914	0.000793	20.927614
1399.402718	-3.003300	3.506200	-10.529000	25.667575	0.000791	20.934648
1400.401866	-3.015500	3.506000	-10.571000	25.664029	0.000790	20.927769
1401.402168	-3.015900	3.507200	-10.576000	25.678551	0.000789	20.944723
1402.401624	-2.995200	3.505900	-10.500000	25.687977	0.000790	20.946604
1403.405432	-3.013100	3.504400	-10.559000	25.637566	0.000789	20.930587
1404.404052	-3.007900	3.505000	-10.541000	25.634072	0.000788	20.938457
1405.404105	-3.002700	3.503900	-10.520000	25.628416	0.000788	20.933726
1406.402518	-3.004300	3.503700	-10.525000	25.632973	0.000787	20.934983
1407.405118	-3.005800	3.503400	-10.529000	25.617805	0.000787	20.953886
1408.405176	-2.981500	3.503600	-10.446000	25.614397	0.000787	20.936241
1409.406652	-3.002400	3.501500	-10.510000	25.592166	0.000788	20.943785
1410.407380	-2.985300	3.503200	-10.457000	25.564516	0.000787	20.939724
1411.405374	-3.013400	3.500600	-10.547000	25.559040	0.000786	20.942285
1412.406675	-3.004700	3.503300	-10.524000	25.556018	0.000787	20.940672
1413.404960	-3.020900	3.500700	-10.573000	25.557881	0.000785	20.943491
1414.404854	-2.995300	3.502600	-10.490000	25.577135	0.000785	20.933432
1415.409290	-2.983200	3.501200	-10.443000	25.603462	0.000784	20.927156
1416.405802	-2.998800	3.500400	-10.495000	25.604252	0.000783	20.912778
1417.404306	-2.980100	3.500900	-10.432000	25.572620	0.000785	20.936009
1418.409760	-2.994000	3.500100	-10.478000	25.575366	0.000782	20.948722
1419.406832	-3.000000	3.499200	-10.497000	25.589488	0.000783	20.946310
1420.406334	-3.005100	3.499800	-10.515000	25.566077	0.000783	20.929913
1421.408739	-2.997100	3.499800	-10.488000	25.550609	0.000782	20.916751
1422.407100	-3.023700	3.497700	-10.575000	25.540402	0.000780	20.943955
1423.408823	-2.977900	3.499700	-10.421000	25.518786	0.000781	20.928887
1424.408126	-3.009700	3.496600	-10.522000	25.484128	0.000780	20.920637
1425.411848	-3.002200	3.498200	-10.502000	25.478694	0.000780	20.936041
1426.408649	-2.996000	3.497400	-10.477000	25.509692	0.000781	20.932557
1427.408739	-3.011800	3.496200	-10.528000	25.516785	0.000779	20.947264
1428.408804	-2.961400	3.498300	-10.358000	25.550271	0.000777	20.923049
1429.411001	-3.015100	3.495300	-10.537000	25.516216	0.000778	20.946693
1430.409286	-2.994500	3.496800	-10.470000	25.497940	0.000778	20.931187
1431.412533	-3.007300	3.495000	-10.510000	25.498797	0.000776	20.932522
1432.412675	-2.984600	3.496300	-10.434000	25.530149	0.000775	20.929393
1433.412028	-2.988700	3.494800	-10.444000	25.547085	0.000777	20.926013
1434.419607	-2.997100	3.494500	-10.473000	25.537427	0.000777	20.940968
1435.411394	-2.988000	3.493100	-10.435000	25.530052	0.000775	20.920762
1436.411779	-3.023900	3.491400	-10.556000	25.567582	0.000771	20.931899
1437.410698	-3.025700	3.491900	-10.564000	25.564011	0.000775	20.926890
1438.410845	-2.990800	3.494700	-10.451000	25.571128	0.000775	20.924081
1439.409958	-2.984600	3.492800	-10.423000	25.561727	0.000773	20.916063
1440.410860	-2.978500	3.493700	-10.405000	25.546439	0.000773	20.948595
1441.409431	-2.987500	3.493700	-10.437000	25.516797	0.000772	20.925468
1442.409993	-2.990900	3.492700	-10.446000	25.487471	0.000771	20.924468
1443.409420	-3.018200	3.489600	-10.531000	25.486758	0.000771	20.939397
1444.412452	-3.005200	3.489400	-10.484000	25.487086	0.000771	20.925029
1445.413008	-2.990100	3.491400	-10.438000	25.470766	0.000771	20.937088
1446.412745	-2.999400	3.491100	-10.470000	25.473942	0.000769	20.930796
1447.413203	-2.998200	3.489300	-10.461000	25.475590	0.000770	20.929606
1448.418318	-3.007600	3.489100	-10.492000	25.501790	0.000769	20.917511
1449.413801	-3.004900	3.489100	-10.483000	25.537443	0.000767	20.916805
1450.417011	-3.008900	3.487500	-10.493000	25.566715	0.000767	20.917753
1451.417474	-2.982400	3.488600	-10.404000	25.565042	0.000768	20.920340
1452.415688	-3.009400	3.487900	-10.495000	25.548517	0.000767	20.920814
1453.419752	-3.018500	3.485600	-10.520000	25.525331	0.000766	20.909858
1454.418342	-2.981900	3.487400	-10.398000	25.509062	0.000765	20.930976
1455.415501	-3.004800	3.487000	-10.477000	25.522755	0.000765	20.912486
1456.421362	-3.005700	3.486300	-10.476000	25.525597	0.000765	20.925771
1457.419449	-3.004500	3.484900	-10.469000	25.520686	0.000767	20.907565
1458.416338	-3.001100	3.484300	-10.455000	25.488975	0.000763	20.906539
1459.420680	-2.960200	3.486000	-10.318000	25.495800	0.000764	20.898221
1460.419537	-3.019900	3.483000	-10.517000	25.516996	0.000763	20.923297
1461.417278	-2.996300	3.484700	-10.440000	25.520532	0.000761	20.924004
1462.420099	-3.008000	3.484300	-10.480000	25.517381	0.000761	20.914676
1463.417203	-2.977300	3.484300	-10.373000	25.521974	0.000763	20.921185
1464.417560	-2.995900	3.481900	-10.431000	25.534225	0.000761	20.923530
1465.417109	-3.010200	3.481700	-10.480000	25.538705	0.000759	20.920917
1466.419130	-2.967900	3.483000	-10.336000	25.556990	0.000759	20.921736
1467.417106	-2.981300	3.481600	-10.378000	25.519639	0.000759	20.912203
1468.421176	-3.027600	3.481900	-10.540000	25.547239	0.000758	20.910997
1469.417377	-3.024200	3.480100	-10.523000	25.583860	0.000758	20.899886
1470.419252	-3.003600	3.481700	-10.457000	25.615790	0.000758	20.896392
1471.419990	-3.020100	3.480100	-10.509000	25.609319	0.000758	20.909806
1472.424250	-2.989400	3.480100	-10.403000	25.599594	0.000758	20.914264
1473.422015	-3.007500	3.480000	-10.465000	25.565986	0.000756	20.906117
1474.420833	-3.006600	3.478600	-10.457000	25.533598	0.000755	20.909626
1475.426102	-3.024300	3.478800	-10.519000	25.504720	0.000754	20.905281
1476.423501	-3.005100	3.480100	-10.457000	25.525700	0.000754	20.920659
1477.421216	-3.000700	3.478800	-10.437000	25.549625	0.000755	20.919082
1478.423446	-3.017700	3.478200	-10.496000	25.578734	0.000753	20.903272
1479.421220	-3.001500	3.478400	-10.440000	25.593678	0.000754	20.905478
1480.423960	-3.018500	3.477700	-10.496000	25.600580	0.000753	20.909090
1481.431539	-3.012300	3.476300	-10.469000	25.587068	0.000754	20.912115
1482.422729	-3.016900	3.475800	-10.485000	25.617807	0.000751	20.910271
1483.422936	-3.014400	3.476000	-10.477000	25.629712	0.000752	20.915589
1484.424791	-2.985300	3.476900	-10.379000	25.628065	0.000751	20.896392
1485.423309	-2.999200	3.476100	-10.425000	25.632596	0.000751	20.906632
1486.422562	-2.980900	3.476600	-10.362000	25.650356	0.000753	20.902659
1487.422139	-2.975700	3.475300	-10.340000	25.698027	0.000752	20.890322
1488.422894	-2.986600	3.475100	-10.377000	25.705221	0.000751	20.913667
1489.422667	-2.999500	3.474600	-10.420000	25.705195	0.000749	20.896099
1490.422853	-3.031300	3.472200	-10.523000	25.682741	0.000750	20.887771
1491.423606	-3.006500	3.474600	-10.445000	25.675875	0.000749	20.895099
1492.423847	-3.004600	3.474200	-10.437000	25.678518	0.000749	20.882107
1493.423564	-3.023700	3.471400	-10.494000	25.711229	0.000747	20.889832
1494.423005	-3.007400	3.473400	-10.445000	25.705015	0.000747	20.902082
1495.424529	-3.026800	3.470500	-10.504000	25.659670	0.000746	20.902056
1496.423746	-3.004200	3.470700	-10.424000	25.641540	0.000746	20.883375
1497.423713	-3.005300	3.471100	-10.430000	25.639334	0.000747	20.879737
1498.425168	-3.010000	3.472700	-10.451000	25.638159	0.000746	20.888987
1499.424417	-2.998300	3.471300	-10.407000	25.681668	0.000743	20.894754
1500.427278	-2.991600	3.470300	-10.380000	25.701701	0.000744	20.895908
1501.424934	-2.993400	3.469600	-10.385000	25.723590	0.000744	20.892290
1502.423234	-3.008400	3.469000	-10.436000	25.713461	0.000742	20.897763
1503.427508	-3.012100	3.469700	-10.450000	25.685060	0.000743	20.878247
1504.425094	-2.986400	3.469600	-10.360000	25.673309	0.000745	20.888729
1505.426222	-2.996900	3.469900	-10.397000	25.710741	0.000741	20.866584
1506.426916	-2.989500	3.468900	-10.370000	25.714235	0.000742	20.886688
1507.427744	-2.980200	3.469400	-10.338000	25.692228	0.000741	20.893032
1508.429987	-2.997500	3.468200	-10.395000	25.659053	0.000740	20.888162
1509.431538	-3.000700	3.467300	-10.403000	25.604058	0.000741	20.883663
1510.429110	-3.011300	3.467400	-10.440000	25.576383	0.000741	20.878628
1511.430971	-3.013700	3.466400	-10.446000	25.570933	0.000740	20.872681
1512.430412	-2.994500	3.466400	-10.379000	25.573663	0.000737	20.880637
1513.431600	-3.007300	3.466000	-10.422000	25.607347	0.000740	20.860889
1514.429060	-2.999500	3.465100	-10.393000	25.620531	0.000740	20.884559
1515.430551	-3.003800	3.465500	-10.409000	25.644772	0.000738	20.897051
1516.430861	-3.011000	3.464200	-10.429000	25.641390	0.000739	20.877061
1517.432802	-2.966600	3.465400	-10.278000	25.646301	0.000736	20.875829
1518.432093	-3.007900	3.463400	-10.416000	25.669151	0.000738	20.890717
1519.433856	-3.006100	3.462000	-10.406000	25.685510	0.000738	20.881544
1520.435068	-2.999000	3.464000	-10.387000	25.676258	0.000737	20.879838
1521.432250	-3.014700	3.460300	-10.430000	25.682610	0.000736	20.862986
1522.432542	-3.018300	3.462900	-10.452000	25.721320	0.000735	20.844020
1523.436617	-3.022800	3.460000	-10.457000	25.742306	0.000735	20.852771
1524.432919	-2.986900	3.464000	-10.346000	25.764241	0.000733	20.872433
1525.434254	-2.960400	3.461700	-10.247000	25.780137	0.000732	20.870381
1526.433901	-3.010100	3.459300	-10.410000	25.769762	0.000733	20.893149
1527.435416	-3.003000	3.460100	-10.389000	25.797689	0.000731	20.868572
1528.434976	-2.987900	3.460000	-10.337000	25.800572	0.000732	20.862460
1529.436405	-2.989600	3.460600	-10.344000	25.823471	0.000731	20.867443
1530.438714	-3.011800	3.458700	-10.415000	25.804994	0.000731	20.863109
1531.437016	-3.012600	3.458000	-10.416000	25.799982	0.000733	20.881306
1532.440617	-3.017100	3.458500	-10.433000	25.798566	0.000728	20.859970
1533.436316	-3.015000	3.458500	-10.426000	25.798479	0.000730	20.865098
1534.437941	-3.025400	3.457700	-10.459000	25.813722	0.000729	20.867608
1535.436796	-3.011100	3.457300	-10.409000	25.830407	0.000729	20.859238
1536.437485	-3.010700	3.457900	-10.410000	25.826174	0.000728	20.863995
1537.436308	-3.004800	3.456600	-10.385000	25.827857	0.000728	20.880858
1538.440384	-3.011200	3.455000	-10.402000	25.829273	0.000725	20.857625
1539.435447	-3.002900	3.456000	-10.377000	25.816760	0.000726	20.869711
1540.435115	-3.025600	3.452700	-10.445000	25.822080	0.000727	20.854194
1541.439749	-3.004100	3.453800	-10.374000	25.816297	0.000728	20.854074
1542.436445	-2.983700	3.455500	-10.309000	25.845604	0.000724	20.884460
1543.436747	-2.975800	3.455600	-10.282000	25.852848	0.000724	20.864237
1544.438550	-2.992600	3.453300	-10.334000	25.800341	0.000724	20.850849
1545.439170	-2.993800	3.452600	-10.336000	25.772861	0.000724	20.863547
1546.438338	-2.993700	3.454200	-10.339000	25.793990	0.000722	20.864382
1547.441390	-2.997100	3.453200	-10.348000	25.798479	0.000724	20.855142
1548.440845	-3.013800	3.454100	-10.408000	25.840781	0.000721	20.858754
1549.438569	-2.992200	3.452700	-10.330000	25.840730	0.000722	20.853487
1550.443314	-2.996400	3.451900	-10.342000	25.853002	0.000723	20.843056
1551.439705	-3.028700	3.449400	-10.446000	25.853885	0.000721	20.859589
1552.440253	-3.007700	3.450900	-10.378000	25.854967	0.000720	20.841711
1553.440744	-3.028600	3.450300	-10.449000	25.843408	0.000720	20.838634
1554.443279	-3.016200	3.450300	-10.405000	25.874842	0.000720	20.852194
1555.439121	-2.987500	3.451200	-10.310000	25.899119	0.000720	20.819211
1556.439553	-3.022600	3.448300	-10.421000	25.885380	0.000719	20.843814
1557.440925	-3.004200	3.450900	-10.365000	25.882677	0.000718	20.845366
1558.443242	-3.012500	3.450000	-10.392000	25.912463	0.000718	20.843995
1559.439342	-2.999700	3.449900	-10.348000	25.922503	0.000718	20.850287
1560.442980	-3.015300	3.449300	-10.400000	25.950349	0.000720	20.854080
1561.440444	-3.004800	3.449000	-10.361000	25.968094	0.000719	20.857209
1562.443237	-2.990800	3.449600	-10.316000	25.961718	0.000716	20.830415
1563.442421	-3.006100	3.447800	-10.363000	25.952904	0.000715	20.845742
1564.442113	-3.010200	3.446800	-10.374000	25.947867	0.000714	20.843052
1565.441899	-3.014100	3.446300	-10.386000	25.912100	0.000715	20.836044
1566.444218	-3.012000	3.446000	-10.378000	25.834821	0.000713	20.850397
1567.443562	-3.010100	3.444300	-10.366000	25.812533	0.000713	20.841759
1568.444005	-2.980700	3.447100	-10.272000	25.811409	0.000715	20.835889
1569.446985	-2.980000	3.447500	-10.272000	25.812928	0.000713	20.832673
1570.444242	-2.979900	3.444000	-10.262000	25.811287	0.000712	20.849516
1571.443890	-3.021700	3.444800	-10.408000	25.817433	0.000712	20.843362
1572.447103	-3.003700	3.443900	-10.343000	25.851623	0.000712	20.830292
1573.445152	-2.996300	3.444000	-10.319000	25.840398	0.000712	20.848887
1574.443811	-2.996000	3.445200	-10.320000	25.862916	0.000712	20.837843
1575.449416	-3.005000	3.442100	-10.342000	25.842071	0.000709	20.833498
1576.443465	-3.004300	3.442200	-10.340000	25.826433	0.000712	20.845764
1577.442275	-2.991200	3.441600	-10.293000	25.823791	0.000708	20.829834
1578.444153	-2.985200	3.443400	-10.278000	25.800420	0.000710	20.827696
1579.445345	-3.016900	3.441000	-10.381000	25.782714	0.000710	20.830298
1580.446406	-3.019200	3.441300	-10.390000	25.800513	0.000709	20.836323
1581.445421	-2.998300	3.440900	-10.316000	25.804264	0.000705	20.830608
1582.447175	-3.016300	3.440000	-10.374000	25.800375	0.000707	20.837133
1583.445377	-3.010300	3.439400	-10.353000	25.785158	0.000708	20.838916
1584.447598	-2.991800	3.441500	-10.296000	25.812022	0.000706	20.814219
1585.448580	-3.009100	3.439000	-10.348000	25.810262	0.000707	20.834736
1586.448266	-3.004700	3.438600	-10.331000	25.774757	0.000705	20.817090
1587.448686	-2.988600	3.439100	-10.277000	25.741858	0.000704	20.808226
1588.449086	-2.988500	3.437800	-10.273000	25.702882	0.000706	20.833562
1589.452896	-2.992600	3.438300	-10.289000	25.666060	0.000705	20.817915
1590.449156	-3.001900	3.437900	-10.320000	25.665665	0.000704	20.815622
1591.448643	-3.017600	3.437100	-10.371000	25.693733	0.000704	20.834804
1592.450235	-3.001100	3.437300	-10.315000	25.689895	0.000704	20.811035
1593.451002	-2.998600	3.437100	-10.304000	25.702933	0.000702	20.827924
1594.453901	-3.022100	3.435200	-10.379000	25.755717	0.000704	20.828785
1595.453729	-2.979900	3.435800	-10.238000	25.741453	0.000702	20.813035
1596.453158	-3.004800	3.434200	-10.318000	25.787929	0.000702	20.811355
1597.452302	-2.993900	3.436100	-10.286000	25.782152	0.000701	20.812190
1598.457422	-3.010700	3.434600	-10.340000	25.779371	0.000704	20.804655
1599.460269	-2.994800	3.434100	-10.284000	25.773783	0.000701	20.818009
1600.454329	-2.991400	3.434000	-10.271000	25.806980	0.000700	20.821008
1601.457278	-3.008600	3.433100	-10.328000	25.796672	0.000700	20.818241
1602.455447	-3.027800	3.432600	-10.392000	25.799643	0.000699	20.825492
1603.454571	-3.010500	3.431800	-10.331000	25.828632	0.000699	20.813835
1604.458113	-3.011900	3.432800	-10.338000	25.834855	0.000698	20.812974
1605.459256	-3.017900	3.432600	-10.358000	25.862960	0.000697	20.817025
1606.455641	-3.009400	3.430900	-10.323000	25.866007	0.000699	20.809655
1607.460253	-3.009100	3.431000	-10.323000	25.835240	0.000697	20.818576
1608.458121	-3.011900	3.431100	-10.333000	25.823603	0.000696	20.821111
1609.456747	-3.003300	3.429800	-10.300000	25.848774	0.000695	20.809887
1610.460397	-2.999600	3.429800	-10.287000	25.849477	0.000695	20.826714
1611.460053	-3.014400	3.428300	-10.333000	25.836569	0.000695	20.833187
1612.457688	-3.002500	3.428800	-10.293000	25.847733	0.000695	20.821643
1613.462372	-2.998600	3.428000	-10.278000	25.814358	0.000696	20.817041
1614.462959	-2.985700	3.428900	-10.237000	25.780716	0.000694	20.826869
1615.461903	-2.990700	3.429100	-10.255000	25.792430	0.000693	20.797858
1616.460998	-3.009300	3.427200	-10.312000	25.796781	0.000694	20.825462
1617.463029	-3.001600	3.427500	-10.287000	25.833460	0.000694	20.804935
1618.459521	-2.986300	3.427900	-10.236000	25.818530	0.000692	20.822653
1619.460099	-3.021000	3.426200	-10.349000	25.814795	0.000691	20.826488
1620.466017	-2.976400	3.427000	-10.199000	25.793965	0.000691	20.819314
1621.461273	-3.011800	3.426600	-10.319000	25.790506	0.000690	20.827694
1622.462348	-3.018200	3.426500	-10.341000	25.800840	0.000691	20.839496
1623.465522	-2.990400	3.425900	-10.244000	25.782825	0.000690	20.810496
1624.468798	-2.981400	3.425900	-10.213000	25.763298	0.000691	20.822175
1625.465574	-2.996300	3.424800	-10.261000	25.747987	0.000689	20.808693
1626.467309	-2.993800	3.423500	-10.249000	25.701992	0.000688	20.817495
1627.465070	-2.998900	3.424200	-10.267000	25.688369	0.000688	20.815666
1628.464674	-3.020300	3.423400	-10.337000	25.695829	0.000688	20.820314
1629.464115	-2.989400	3.423300	-10.233000	25.719705	0.000688	20.812053
1630.465873	-2.993200	3.423300	-10.246000	25.705527	0.000686	20.817253
1631.464674	-3.029900	3.421100	-10.364000	25.700463	0.000686	20.822124
1632.464566	-2.989400	3.422200	-10.229000	25.689836	0.000688	20.819511
1633.466216	-2.975600	3.423600	-10.187000	25.719869	0.000685	20.804632
1634.466802	-2.995100	3.421900	-10.247000	25.755068	0.000685	20.806322
1635.466817	-3.003700	3.421900	-10.278000	25.769348	0.000684	20.810708
1636.467501	-2.999000	3.420900	-10.258000	25.789722	0.000684	20.835441
1637.467257	-2.977300	3.421100	-10.185000	25.770215	0.000686	20.807786
1638.471013	-2.974200	3.420600	-10.172000	25.812698	0.000683	20.822010
1639.469537	-3.011200	3.419000	-10.294000	25.825725	0.000683	20.827510
1640.472206	-2.999000	3.419300	-10.254000	25.843343	0.000682	20.830509
1641.472929	-3.025100	3.416900	-10.336000	25.874736	0.000682	20.831226
1642.471707	-2.977500	3.420400	-10.184000	25.857924	0.000681	20.824294
1643.471220	-3.021500	3.419100	-10.329000	25.889015	0.000682	20.816646
1644.473237	-2.986700	3.418800	-10.210000	25.858945	0.000682	20.816311
1645.470572	-2.999800	3.416900	-10.249000	25.855580	0.000679	20.828577
1646.470741	-3.003200	3.417500	-10.262000	25.869268	0.000679	20.834741
1647.472065	-3.017200	3.416600	-10.308000	25.876820	0.000681	20.826681
1648.469432	-2.982600	3.417500	-10.191000	25.902230	0.000677	20.834664
1649.471380	-2.996300	3.415600	-10.233000	25.927794	0.000678	20.826207
1650.484240	-3.010000	3.416200	-10.282000	25.951890	0.000678	20.829551
1651.472731	-2.997000	3.415500	-10.235000	25.938650	0.000679	20.826207
1652.471733	-2.988100	3.415700	-10.206000	25.914605	0.000677	20.837612
1653.472727	-2.992100	3.415000	-10.216000	25.905422	0.000678	20.816059
1654.472718	-2.998500	3.415600	-10.240000	25.846756	0.000676	20.840102
1655.473079	-3.019200	3.413100	-10.305000	25.862615	0.000678	20.839437
1656.475389	-2.982100	3.416200	-10.185000	25.838122	0.000675	20.828583
1657.471984	-2.994100	3.413700	-10.219000	25.851287	0.000675	20.830428
1658.473610	-3.010600	3.412400	-10.272000	25.825034	0.000676	20.845781
1659.476962	-2.975100	3.413900	-10.156000	25.853509	0.000674	20.821755
1660.473913	-3.006300	3.413000	-10.259000	25.858383	0.000672	20.833763
1661.474396	-3.006200	3.412500	-10.257000	25.858537	0.000674	20.825384
1662.476286	-2.956200	3.413600	-10.090000	25.844274	0.000672	20.832392
1663.476962	-2.977800	3.411000	-10.156000	25.815892	0.000674	20.820003
1664.474413	-2.974400	3.411000	-10.144000	25.753660	0.000672	20.831460
1665.473757	-3.005000	3.410700	-10.248000	25.734511	0.000671	20.839253
1666.477630	-3.008300	3.409400	-10.255000	25.718359	0.000672	20.836779
1667.475010	-2.996300	3.410200	-10.217000	25.765134	0.000669	20.819278
1668.474164	-2.988000	3.410500	-10.189000	25.769193	0.000669	20.836156
1669.476372	-2.997800	3.409700	-10.221000	25.763005	0.000669	20.836105
1670.486804	-3.017900	3.409300	-10.287000	25.780049	0.000670	20.844691
1671.475706	-2.983300	3.410200	-10.172000	25.818997	0.000669	20.837346
1672.476329	-3.014200	3.407700	-10.270000	25.866686	0.000669	20.844949
1673.476257	-2.987200	3.409000	-10.182000	25.840494	0.000668	20.838079
1674.475573	-2.980800	3.408600	-10.160000	25.811296	0.000667	20.836724
1675.476913	-3.011400	3.408200	-10.263000	25.828659	0.000666	20.840888
1676.476222	-3.008800	3.407200	-10.250000	25.841290	0.000666	20.843145
1677.475852	-3.004800	3.406200	-10.235000	25.849315	0.000665	20.836033
1678.476008	-3.001200	3.406800	-10.222000	25.886895	0.000667	20.835379
1679.474735	-2.999900	3.405600	-10.215000	25.894411	0.000664	20.854783
1680.475649	-2.990100	3.405100	-10.181000	25.895545	0.000666	20.855447
1681.478468	-2.997300	3.405800	-10.207000	25.886705	0.000664	20.855576
1682.477105	-2.967900	3.405300	-10.104000	25.888542	0.000663	20.823757
1683.475634	-3.011100	3.403100	-10.245000	25.908914	0.000663	20.851335
1684.477424	-3.036600	3.403400	-10.334000	25.903327	0.000662	20.865162
1685.475978	-3.016500	3.403400	-10.265000	25.922704	0.000661	20.853809
1686.477220	-2.992800	3.403900	-10.186000	25.936186	0.000661	20.827999
1687.478435	-2.996500	3.403400	-10.197000	25.934263	0.000660	20.861153
1688.476543	-3.012000	3.402400	-10.247000	25.915753	0.000661	20.853938
1689.476996	-3.005000	3.402300	-10.222000	25.910484	0.000663	20.847696
1690.481678	-3.032400	3.401500	-10.313000	25.923340	0.000660	20.841172
1691.476018	-3.016400	3.401400	-10.259000	25.943994	0.000660	20.860024
1692.491302	-2.996500	3.402500	-10.196000	25.952962	0.000658	20.847696
1693.477876	-3.001800	3.401200	-10.209000	25.931071	0.000659	20.844197
1694.481354	-3.015700	3.400400	-10.254000	25.937653	0.000660	20.872145
1695.484581	-3.032400	3.398900	-10.305000	25.956044	0.000658	20.856008
1696.481075	-3.003900	3.400700	-10.214000	25.935380	0.000659	20.868913
1697.485130	-2.993100	3.399400	-10.174000	25.895185	0.000657	20.847974
1698.481459	-2.997300	3.400300	-10.190000	25.902891	0.000658	20.829637
1699.480488	-3.000800	3.398400	-10.197000	25.882811	0.000655	20.857353
1700.482162	-3.007300	3.398100	-10.218000	25.887685	0.000655	20.855612
1701.482843	-2.967800	3.398800	-10.085000	25.875782	0.000657	20.855508
1702.480156	-2.993700	3.397400	-10.170000	25.847401	0.000656	20.859240
1703.483629	-2.993300	3.396100	-10.163000	25.855599	0.000654	20.861785
1704.480298	-3.006700	3.396200	-10.210000	25.880528	0.000653	20.851741
1705.480203	-3.005600	3.395500	-10.205000	25.895272	0.000652	20.885043
1706.485170	-2.993500	3.395900	-10.164000	25.861940	0.000652	20.872896
1707.480078	-3.003300	3.396700	-10.201000	25.853967	0.000652	20.872948
1708.481976	-3.003600	3.395200	-10.197000	25.867450	0.000654	20.842871
1709.486563	-2.992900	3.394900	-10.160000	25.839396	0.000651	20.883440
1710.485560	-2.989600	3.394800	-10.148000	25.850304	0.000652	20.864527
1711.483448	-2.973600	3.395700	-10.096000	25.865751	0.000651	20.861553
1712.484113	-2.975600	3.393900	-10.097000	25.898361	0.000651	20.884827
1713.483258	-2.997500	3.393700	-10.171000	25.896524	0.000649	20.860224
1714.483018	-2.971300	3.394700	-10.085000	25.911319	0.000649	20.872716
1715.485713	-3.021300	3.392300	-10.248000	25.899073	0.000648	20.856147
1716.483166	-2.987100	3.393600	-10.137000	25.890157	0.000649	20.877060
1717.483314	-2.993600	3.390600	-10.150000	25.897519	0.000648	20.871180
1718.482613	-3.001800	3.392100	-10.182000	25.879988	0.000649	20.864949
1719.483346	-3.003400	3.391200	-10.184000	25.849119	0.000647	20.867130
1720.484120	-2.982400	3.392100	-10.116000	25.839361	0.000647	20.881982
1721.484507	-2.979800	3.391500	-10.105000	25.855650	0.000645	20.890284
1722.484386	-2.996200	3.391800	-10.162000	25.908015	0.000646	20.865604
1723.484359	-2.982800	3.391000	-10.112000	25.899802	0.000647	20.876793
1724.485124	-3.002200	3.390700	-10.179000	25.890311	0.000644	20.883379
1725.484678	-2.996400	3.390400	-10.158000	25.869338	0.000644	20.897396
1726.487365	-3.000700	3.388200	-10.166000	25.851135	0.000643	20.870103
1727.483994	-2.984100	3.389800	-10.115000	25.880399	0.000644	20.865836
1728.483756	-3.000400	3.390000	-10.170000	25.884965	0.000643	20.885594
1729.490106	-2.981900	3.388700	-10.103000	25.915034	0.000643	20.875973
1730.491874	-2.990800	3.388000	-10.132000	25.925023	0.000641	20.896912
1731.487743	-3.004700	3.388200	-10.179000	25.909370	0.000642	20.896834
1732.486773	-2.983900	3.386800	-10.104000	25.905671	0.000641	20.895015
1733.484906	-3.004300	3.386700	-10.174000	25.879128	0.000641	20.898221
1734.485181	-3.022100	3.385600	-10.229000	25.861115	0.000642	20.885817
1735.486791	-3.033200	3.387100	-10.272000	25.868185	0.000639	20.894341
1736.490219	-2.999400	3.387000	-10.158000	25.882293	0.000639	20.877695
1737.498721	-2.976600	3.386800	-10.080000	25.878887	0.000639	20.893712
1738.491269	-2.970300	3.387700	-10.060000	25.890122	0.000638	20.893619
1739.494438	-3.003800	3.387100	-10.173000	25.919555	0.000639	20.882411
1740.495673	-3.013100	3.384400	-10.197000	25.894206	0.000637	20.890135
1741.493088	-2.988400	3.384500	-10.113000	25.891364	0.000639	20.889652
1742.495688	-2.995300	3.384800	-10.136000	25.883392	0.000636	20.891600
1743.495629	-3.031100	3.384300	-10.256000	25.890025	0.000637	20.894944
1744.496211	-2.989500	3.383000	-10.112000	25.916825	0.000635	20.886781
1745.499317	-2.996300	3.383400	-10.137000	25.954239	0.000636	20.928632
1746.497474	-3.000400	3.383100	-10.149000	25.990760	0.000634	20.899418
1747.499047	-3.003700	3.383300	-10.161000	25.974713	0.000633	20.903210
1748.499282	-2.991400	3.382500	-10.117000	25.958969	0.000635	20.897350
1749.498978	-2.962200	3.383100	-10.020000	25.933807	0.000633	20.905736
1750.498389	-3.015400	3.382200	-10.198000	25.932837	0.000636	20.899072
1751.498179	-3.008100	3.381800	-10.172000	25.954204	0.000633	20.912477
1752.497665	-2.981600	3.384100	-10.088000	25.945821	0.000636	20.895996
1753.500304	-3.007300	3.380400	-10.165000	25.977847	0.000631	20.892135
1754.499468	-3.003800	3.381900	-10.157000	25.962812	0.000633	20.905478
1755.500941	-3.020100	3.379300	-10.205000	25.966218	0.000631	20.919804
1756.502999	-2.997200	3.380400	-10.130000	25.917015	0.000632	20.910203
1757.499813	-2.985700	3.379300	-10.089000	25.935833	0.000631	20.914408
1758.504809	-2.973000	3.380500	-10.050000	25.919253	0.000629	20.911028
1759.502054	-3.018100	3.378400	-10.195000	25.924968	0.000629	20.908235
1760.498732	-2.994000	3.379200	-10.116000	25.898675	0.000630	20.924968
1761.501933	-3.001300	3.377300	-10.135000	25.895525	0.000628	20.924174
1762.504806	-2.970900	3.379800	-10.040000	25.886445	0.000627	20.914105
1763.499749	-2.996100	3.377900	-10.119000	25.909341	0.000629	20.934259
1764.500732	-2.987600	3.376300	-10.085000	25.913460	0.000628	20.910899
1765.505404	-2.977400	3.377600	-10.056000	25.898004	0.000626	20.908174
1766.510911	-3.002200	3.378400	-10.140000	25.913486	0.000625	20.918037
1767.504372	-3.007800	3.376600	-10.155000	25.937737	0.000625	20.893564
1768.506345	-2.997800	3.375400	-10.118000	25.970215	0.000627	20.913863
1769.505898	-2.996100	3.375600	-10.113000	26.010674	0.000626	20.929380
1770.504168	-3.008800	3.374700	-10.153000	26.021949	0.000622	20.928380
1771.505517	-3.019800	3.373900	-10.187000	26.044130	0.000624	20.920794
1772.503809	-2.998900	3.374800	-10.119000	26.019297	0.000624	20.926190
1773.506136	-2.976800	3.373600	-10.042000	26.022360	0.000623	20.923103
1774.505474	-2.981400	3.375100	-10.062000	26.008623	0.000623	20.929689
1775.504806	-3.008800	3.374100	-10.151000	26.056467	0.000622	20.930344
1776.504884	-2.985700	3.374500	-10.074000	26.043545	0.000624	20.933482
1777.505422	-3.004500	3.372800	-10.133000	26.086772	0.000621	20.921913
1778.508059	-3.011400	3.372700	-10.156000	26.103298	0.000620	20.920027
1779.508432	-2.993900	3.372700	-10.097000	26.096236	0.000623	20.951807
1780.507524	-3.006700	3.372100	-10.138000	26.122071	0.000620	20.932724
1781.507626	-3.016700	3.371000	-10.169000	26.092675	0.000617	20.939697
1782.503911	-3.004500	3.371300	-10.128000	26.112444	0.000618	20.939171
1783.504232	-2.976800	3.372100	-10.037000	26.097369	0.000619	20.942516
1784.505661	-2.997300	3.370300	-10.101000	26.081375	0.000617	20.934033
1785.506169	-2.996500	3.370100	-10.098000	26.078826	0.000617	20.959918
1786.506066	-3.000700	3.370200	-10.112000	26.071035	0.000617	20.924119
1787.509589	-3.023800	3.369200	-10.187000	26.032681	0.000616	20.939161
1788.505965	-3.003100	3.370800	-10.122000	26.044618	0.000615	20.928396
1789.506618	-2.975100	3.370100	-10.026000	26.055728	0.000616	20.931024
1790.510887	-3.024300	3.368600	-10.187000	26.054415	0.000615	20.948195
1791.507169	-2.998600	3.367400	-10.096000	26.025757	0.000615	20.949746
1792.507099	-2.991300	3.367700	-10.073000	25.999723	0.000615	20.943980
1793.509502	-3.005300	3.369100	-10.124000	25.957822	0.000613	20.952617
1794.507174	-3.000400	3.368100	-10.104000	25.929161	0.000613	20.953220
1795.507405	-3.002500	3.366900	-10.107000	25.956124	0.000615	20.947592
1796.511970	-3.002400	3.368100	-10.111000	25.952569	0.000614	20.964881
1797.508556	-2.991700	3.366600	-10.071000	26.014035	0.000611	20.950772
1798.509540	-2.998100	3.364700	-10.087000	26.060489	0.000611	20.946711
1799.509867	-2.992100	3.366500	-10.072000	26.069000	0.000611	20.964743
1800.510051	-3.011400	3.366200	-10.136000	26.071703	0.000611	20.964140
1801.509728	-2.998400	3.366400	-10.093000	26.111025	0.000610	20.963820
1802.509185	-2.986500	3.365200	-10.050000	26.135373	0.000609	20.966475
1803.514162	-3.029400	3.364300	-10.191000	26.142281	0.000609	20.937858
1804.510426	-3.005900	3.363800	-10.110000	26.171948	0.000607	20.967191
1805.509984	-2.998400	3.363700	-10.084000	26.177903	0.000608	20.945676
1806.514804	-2.988800	3.364100	-10.053000	26.141087	0.000609	20.974111
1807.512335	-2.992400	3.363500	-10.064000	26.140538	0.000608	20.963130
1808.511592	-3.025600	3.362100	-10.171000	26.146098	0.000606	20.965872
1809.511978	-3.004700	3.362500	-10.102000	26.125146	0.000605	20.962837
1810.516284	-2.989700	3.363400	-10.055000	26.086287	0.000606	20.959354
1811.511392	-2.995600	3.361300	-10.068000	26.052473	0.000605	20.947192
1812.511585	-3.000100	3.361600	-10.084000	26.087436	0.000604	20.969516
1813.512187	-3.001000	3.361500	-10.087000	26.064476	0.000605	20.959250
1814.511923	-2.997100	3.361600	-10.074000	26.071186	0.000604	20.965991
1815.511627	-2.996200	3.360400	-10.067000	26.120787	0.000604	20.973628
1816.514459	-2.989400	3.359400	-10.042000	26.119560	0.000602	20.988988
1817.515291	-2.997700	3.361200	-10.075000	26.143668	0.000602	20.962008
1818.515577	-3.003600	3.359800	-10.090000	26.111898	0.000601	20.980342
1819.514497	-3.014700	3.360400	-10.130000	26.079757	0.000603	20.976498
1820.519022	-2.998000	3.360100	-10.073000	26.068817	0.000601	20.968826
1821.513415	-3.019600	3.357700	-10.137000	26.088499	0.000602	20.969161
1822.515244	-2.992100	3.359600	-10.051000	26.117535	0.000601	20.982687
1823.517774	-2.994200	3.357500	-10.052000	26.124115	0.000601	20.978868
1824.513762	-3.009100	3.356200	-10.097000	26.145048	0.000600	20.979039
1825.514928	-3.014800	3.357000	-10.120000	26.118803	0.000599	20.977798
1826.515294	-3.012600	3.357400	-10.114000	26.152521	0.000598	20.993658
1827.515074	-3.001900	3.356200	-10.073000	26.174356	0.000597	20.980039
1828.515577	-3.002200	3.358200	-10.081000	26.188357	0.000597	20.978936
1829.515088	-3.012600	3.357000	-10.112000	26.150547	0.000597	20.996890
1830.519771	-2.993500	3.356000	-10.044000	26.161057	0.000596	20.976633
1831.519141	-2.993700	3.355700	-10.045000	26.171910	0.000595	20.997019
1832.515297	-3.001900	3.356500	-10.075000	26.167637	0.000595	21.000785
1833.518179	-2.992100	3.355100	-10.038000	26.217500	0.000594	21.000156
1834.519976	-3.003800	3.353700	-10.073000	26.213012	0.000596	20.980003
1835.517227	-2.993700	3.354900	-10.043000	26.189128	0.000594	21.000569
1836.518246	-2.994900	3.353400	-10.042000	26.158518	0.000594	21.023860
1837.520505	-2.978000	3.353700	-9.986100	26.153215	0.000595	20.999569
1838.522856	-3.000100	3.352400	-10.056000	26.173900	0.000592	20.987166
1839.521103	-2.996900	3.353100	-10.048000	26.199560	0.000592	21.008206
1840.520793	-2.995200	3.353400	-10.042000	26.218854	0.000593	21.013369
1841.518411	-2.996100	3.353100	-10.044000	26.257227	0.000590	21.006887
1842.520157	-2.995500	3.351800	-10.038000	26.274505	0.000591	21.009077
1843.523053	-2.984000	3.351900	-10.001000	26.263566	0.000591	20.999034
1844.525420	-3.000400	3.351500	-10.055000	26.284198	0.000591	21.014549
1845.521819	-3.013900	3.351200	-10.099000	26.308707	0.000591	21.007413
1846.520133	-3.011100	3.350100	-10.086000	26.314025	0.000588	20.999482
1847.522388	-3.006700	3.350500	-10.073000	26.303671	0.000589	21.005197
1848.523927	-3.013400	3.350700	-10.095000	26.290357	0.000588	20.989449
1849.523405	-3.013600	3.350000	-10.094000	26.233995	0.000589	20.982596
1850.522008	-3.006300	3.350500	-10.072000	26.190113	0.000587	20.990181
1851.531358	-3.012900	3.349700	-10.092000	26.197319	0.000588	21.010221
1852.524766	-3.014800	3.349300	-10.096000	26.167223	0.000589	20.970028
1853.525728	-3.004900	3.349800	-10.065000	26.174275	0.000587	20.989914
1854.526169	-2.997700	3.348600	-10.037000	26.164263	0.000587	20.981277
1855.529552	-3.002900	3.349200	-10.056000	26.198064	0.000587	20.994851
1856.527094	-3.019600	3.346700	-10.104000	26.200330	0.000584	20.998076
1857.524121	-3.014600	3.346900	-10.088000	26.185195	0.000583	20.967700
1858.527467	-3.014500	3.348000	-10.092000	26.177199	0.000584	20.971044
1859.524390	-3.033400	3.346100	-10.149000	26.174712	0.000586	20.989404
1860.526347	-2.998500	3.346200	-10.032000	26.200844	0.000583	20.976785
1861.532579	-3.009800	3.346700	-10.072000	26.209045	0.000581	20.983128
1862.525330	-3.001700	3.344900	-10.039000	26.218302	0.000582	20.992903
1863.525860	-3.006800	3.344900	-10.057000	26.256383	0.000581	20.963372
1864.527726	-3.019300	3.345000	-10.098000	26.284615	0.000580	20.982258
1865.528854	-3.009800	3.344300	-10.063000	26.276877	0.000579	20.950304
1866.528090	-3.012000	3.343700	-10.070000	26.302534	0.000581	20.964233
1867.531580	-3.036600	3.344200	-10.154000	26.298076	0.000578	20.950745
1868.531688	-3.015400	3.344300	-10.083000	26.305237	0.000579	20.958889
1869.531709	-3.031000	3.342900	-10.132000	26.266686	0.000579	20.956657
1870.528234	-2.984300	3.344100	-9.978600	26.260424	0.000578	20.958898
1871.530562	-3.010500	3.344500	-10.068000	26.264378	0.000578	20.945805
1872.535106	-2.998500	3.343700	-10.025000	26.249829	0.000578	20.954416
1873.530306	-3.006300	3.342000	-10.045000	26.222565	0.000575	20.955467
1874.534716	-3.001200	3.341700	-10.028000	26.214277	0.000575	20.968000
1875.531390	-2.991200	3.342200	-9.996300	26.182140	0.000574	20.941873
1876.532212	-2.984800	3.342300	-9.975400	26.143430	0.000576	20.938538
1877.534799	-3.010000	3.341000	-10.055000	26.166542	0.000574	20.950855
1878.535353	-3.001600	3.341400	-10.028000	26.171553	0.000574	20.950200
1879.535751	-2.985200	3.341900	-9.975200	26.239817	0.000574	20.962372
1880.535197	-3.005700	3.340100	-10.038000	26.213969	0.000575	20.947304
1881.543157	-2.999200	3.341000	-10.019000	26.231822	0.000574	20.945330
1882.535637	-3.028900	3.339100	-10.112000	26.229453	0.000572	20.951958
1883.535490	-2.992200	3.339900	-9.992300	26.239114	0.000570	20.953132
1884.538598	-2.998300	3.339200	-10.011000	26.221287	0.000570	20.933797
1885.537542	-2.995400	3.339600	-10.002000	26.208650	0.000570	20.959502
1886.541568	-3.002600	3.338900	-10.024000	26.185340	0.000570	20.941770
1887.537993	-3.006500	3.338400	-10.036000	26.171665	0.000571	20.941780
1888.540827	-2.981600	3.338300	-9.951700	26.158659	0.000571	20.922074
1889.539846	-3.009500	3.338600	-10.047000	26.172384	0.000570	20.941554
1890.538333	-2.992200	3.336800	-9.984000	26.169701	0.000567	20.930324
1891.542135	-2.996100	3.335500	-9.992700	26.161628	0.000568	20.952081
1892.539839	-2.966400	3.336200	-9.894600	26.144185	0.000567	20.938822
1893.539294	-2.993400	3.335400	-9.982300	26.109608	0.000566	20.970931
1894.542761	-2.976100	3.337300	-9.931000	26.112809	0.000565	20.943331
1895.540973	-2.977900	3.335600	-9.932100	26.122057	0.000567	20.918487
1896.540104	-2.990700	3.336200	-9.976100	26.134208	0.000565	20.936858
1897.542234	-2.987700	3.335700	-9.965100	26.141671	0.000565	20.950046
1898.540632	-2.984400	3.334700	-9.950900	26.133700	0.000564	20.930185
1899.539950	-3.000300	3.334100	-10.002000	26.123027	0.000564	20.929418
1900.539064	-3.012300	3.333300	-10.039000	26.168112	0.000562	20.927779
1901.540070	-2.988500	3.333700	-9.961100	26.189124	0.000562	20.919971
1902.540014	-3.004900	3.332600	-10.013000	26.216928	0.000560	20.935107
1903.541753	-2.983100	3.334000	-9.945000	26.246259	0.000564	20.917642
1904.541502	-3.000500	3.333700	-10.002000	26.234515	0.000562	20.929072
1905.540339	-3.007000	3.332900	-10.021000	26.247839	0.000561	20.917333
1906.541642	-3.001300	3.332100	-10.000000	26.281328	0.000560	20.936761
1907.544728	-3.014500	3.331500	-10.041000	26.257455	0.000559	20.931262
1908.541091	-2.995700	3.331100	-9.978500	26.264661	0.000559	20.930443
1909.542982	-2.995900	3.331500	-9.979500	26.277374	0.000558	20.931840
1910.546585	-2.992200	3.330500	-9.964200	26.297791	0.000560	20.914901
1911.544497	-2.991800	3.330700	-9.963700	26.309929	0.000558	20.921884
1912.543387	-3.000300	3.329100	-9.988000	26.355969	0.000557	20.926428
1913.547599	-3.031200	3.328100	-10.087000	26.354262	0.000556	20.937987
1914.545134	-3.026700	3.327300	-10.068000	26.346319	0.000556	20.901084
1915.545855	-2.998000	3.329600	-9.980700	26.365748	0.000555	20.903068
1916.544054	-3.007800	3.328100	-10.009000	26.359323	0.000555	20.934539
1917.545408	-3.008200	3.328400	-10.011000	26.358938	0.000556	20.930834
1918.544281	-2.997100	3.329200	-9.976600	26.342743	0.000554	20.925464
1919.544891	-3.014100	3.328700	-10.031000	26.309117	0.000555	20.932920
1920.546409	-2.982900	3.328000	-9.926400	26.269665	0.000552	20.929782
1921.547435	-3.005900	3.327300	-10.001000	26.293230	0.000552	20.905577
1922.547072	-3.023900	3.325500	-10.054000	26.291455	0.000551	20.903793
1923.550535	-2.996400	3.326300	-9.966400	26.288573	0.000552	20.908009
1924.548869	-3.006700	3.325800	-9.999400	26.298009	0.000551	20.903268
1925.547891	-3.009000	3.326400	-10.008000	26.318768	0.000552	20.906587
1926.547433	-3.030300	3.325400	-10.075000	26.355491	0.000552	20.898923
1927.551394	-2.981500	3.324800	-9.910900	26.405602	0.000550	20.911828
1928.547308	-2.992200	3.323700	-9.944700	26.412611	0.000550	20.912234
1929.546432	-2.998400	3.325100	-9.968900	26.406571	0.000548	20.932714
1930.547116	-2.997900	3.324400	-9.965200	26.422191	0.000548	20.894837
1931.547882	-2.985700	3.324400	-9.923800	26.455858	0.000549	20.910183
1932.547342	-2.982700	3.324000	-9.913400	26.432235	0.000548	20.905880
1933.548110	-2.979600	3.322900	-9.900400	26.433128	0.000547	20.912940
1934.551746	-2.985700	3.324000	-9.923700	26.433282	0.000546	20.897924
1935.548835	-3.013200	3.323100	-10.013000	26.428282	0.000547	20.916130
1936.550475	-2.981600	3.322700	-9.906300	26.431369	0.000547	20.900742
1937.551457	-3.007700	3.321000	-9.987700	26.418170	0.000545	20.905493
1938.553828	-2.997600	3.322300	-9.957700	26.433420	0.000545	20.904226
1939.548690	-3.005000	3.320400	-9.977300	26.425503	0.000544	20.890580
1940.551443	-3.004300	3.320700	-9.976200	26.417216	0.000543	20.898372
1941.551158	-3.017400	3.319900	-10.016000	26.413391	0.000544	20.891683
1942.549577	-2.995300	3.320100	-9.943500	26.436481	0.000543	20.895450
1943.551167	-3.018300	3.318400	-10.016000	26.451869	0.000544	20.911389
1944.548878	-2.997500	3.319000	-9.946400	26.431748	0.000541	20.911079
1945.549653	-3.004400	3.319900	-9.971800	26.460858	0.000540	20.901933
1946.556985	-3.011900	3.317400	-9.990300	26.468954	0.000540	20.895372
1947.553985	-2.992700	3.319100	-9.932700	26.509128	0.000540	20.895924
1948.550291	-3.018800	3.316200	-10.010000	26.490895	0.000538	20.907941
1949.549605	-3.001500	3.318500	-9.959300	26.450659	0.000538	20.891683
1950.550873	-3.021600	3.315600	-10.017000	26.431446	0.000538	20.893708
1951.549120	-3.012200	3.316900	-9.989800	26.402884	0.000536	20.920000
1952.552873	-2.972900	3.317300	-9.860600	26.381577	0.000538	20.890054
1953.552357	-3.022100	3.315900	-10.020000	26.343234	0.000535	20.906993
1954.551591	-3.001900	3.315400	-9.951600	26.315106	0.000536	20.882994
1955.552336	-2.997300	3.315700	-9.936300	26.247893	0.000535	20.899372
1956.556736	-3.000600	3.315800	-9.947800	26.257227	0.000536	20.886467
1957.553601	-2.990900	3.316600	-9.918700	26.246641	0.000534	20.892899
1958.554036	-2.992900	3.314600	-9.918400	26.234297	0.000533	20.894718
1959.553610	-2.993800	3.315700	-9.925700	26.208191	0.000533	20.894089
1960.552371	-2.980400	3.316600	-9.883700	26.206766	0.000532	20.907354
1961.553581	-2.995400	3.313900	-9.925500	26.218521	0.000533	20.894037
1962.554976	-2.978700	3.313800	-9.870300	26.242626	0.000532	20.904509
1963.554700	-3.005600	3.312300	-9.954400	26.263043	0.000533	20.898001
1964.555257	-3.022800	3.312500	-10.012000	26.259930	0.000532	20.890131
1965.553400	-2.980500	3.312600	-9.872200	26.302445	0.000528	20.898717
1966.554402	-3.015000	3.311900	-9.985100	26.329286	0.000529	20.887287
1967.553810	-2.984200	3.311300	-9.880800	26.358194	0.000529	20.884097
1968.554220	-2.992900	3.311300	-9.910000	26.356968	0.000528	20.882391
1969.555617	-2.990500	3.309800	-9.896800	26.371936	0.000527	20.886055
1970.555623	-2.998000	3.310200	-9.923000	26.360424	0.000529	20.887287
1971.555872	-2.968000	3.311000	-9.826000	26.364475	0.000528	20.882823
1972.556981	-2.984900	3.310600	-9.880900	26.382967	0.000527	20.899510
1973.561004	-2.996900	3.309000	-9.915000	26.351906	0.000526	20.893898
1974.558593	-2.992700	3.310300	-9.905900	26.313271	0.000527	20.921922
1975.561809	-3.008200	3.309500	-9.954400	26.250031	0.000526	20.885400
1976.560937	-3.001800	3.310000	-9.935200	26.265858	0.000525	20.894666
1977.559477	-3.018800	3.308000	-9.984200	26.262324	0.000525	20.882581
1978.559355	-3.027600	3.306400	-10.008000	26.310193	0.000524	20.889435
1979.563572	-2.994100	3.307700	-9.902200	26.333388	0.000524	20.872918
1980.560157	-2.991000	3.307600	-9.892000	26.339049	0.000522	20.883823
1981.560934	-3.023700	3.306900	-9.998200	26.322460	0.000521	20.889435
1982.566906	-2.984000	3.308300	-9.870700	26.342506	0.000522	20.875918
1983.560404	-3.017200	3.306200	-9.974100	26.374366	0.000521	20.876643
1984.560482	-3.016600	3.305800	-9.971300	26.398863	0.000521	20.880875
1985.566183	-2.990300	3.306400	-9.886000	26.437479	0.000519	20.875118
1986.560232	-3.004400	3.304500	-9.926900	26.454083	0.000518	20.884694
1987.558935	-3.004600	3.305700	-9.931200	26.488366	0.000517	20.877901
1988.559894	-2.989700	3.304700	-9.879400	26.483376	0.000518	20.874308
1989.559725	-3.001800	3.303700	-9.916100	26.466204	0.000518	20.869377
1990.563330	-3.023200	3.304800	-9.990400	26.446699	0.000518	20.900978
1991.563494	-2.995900	3.305100	-9.900900	26.444735	0.000519	20.883832
1992.562110	-3.024900	3.302900	-9.989000	26.469978	0.000519	20.893083
1993.561338	-2.998500	3.303000	-9.903100	26.426141	0.000518	20.877472
1994.563027	-3.009400	3.302400	-9.936400	26.400426	0.000516	20.887187
1995.562514	-2.990500	3.303400	-9.877800	26.417794	0.000514	20.877143
1996.562121	-2.990600	3.301900	-9.873400	26.374899	0.000516	20.864377
1997.563201	-2.996700	3.302800	-9.896600	26.365781	0.000515	20.877972
1998.562758	-3.000000	3.301100	-9.902200	26.343280	0.000515	20.870057
1999.566807	-2.987300	3.301900	-9.862700	26.397431	0.000515	20.905987
2000.562963	-2.983700	3.302500	-9.852800	26.434649	0.000513	20.875118
2001.564474	-3.022500	3.300300	-9.973400	26.461651	0.000513	20.869067
2002.567524	-2.982000	3.300600	-9.841700	26.431234	0.000513	20.882591
2003.561975	-3.001800	3.301300	-9.909200	26.435291	0.000511	20.886667
2004.569734	-2.997700	3.299700	-9.890900	26.493401	0.000510	20.863523
2005.567437	-3.005200	3.299700	-9.914600	26.483459	0.000510	20.868228
2006.562404	-3.011200	3.297900	-9.928300	26.490279	0.000509	20.878401
2007.563933	-3.008700	3.299300	-9.925600	26.477009	0.000509	20.886400
2008.564947	-3.011200	3.298700	-9.931300	26.465036	0.000508	20.867254
2009.562453	-3.029600	3.296500	-9.986100	26.479050	0.000507	20.881339
2010.562942	-3.000600	3.298000	-9.894900	26.488982	0.000508	20.876150
2011.563043	-3.020900	3.296700	-9.958200	26.487721	0.000508	20.864926
2012.564452	-2.999100	3.296600	-9.885700	26.454279	0.000506	20.860236
2013.567467	-2.990500	3.296100	-9.856500	26.463955	0.000507	20.861900
2014.566236	-3.021500	3.295000	-9.954500	26.477051	0.000504	20.872692
2015.565569	-2.990300	3.296700	-9.856800	26.489598	0.000505	20.856856
2016.568296	-3.005200	3.296400	-9.905500	26.478543	0.000504	20.863761
2017.568141	-2.992400	3.294000	-9.855700	26.458936	0.000503	20.854959
2018.568569	-2.964200	3.296700	-9.771000	26.452983	0.000504	20.857036
2019.568132	-2.984500	3.295400	-9.834000	26.446301	0.000504	20.855062
2020.568079	-2.993200	3.293300	-9.856700	26.417781	0.000502	20.869544
2021.567707	-2.998000	3.293500	-9.873500	26.448111	0.000501	20.872528
2022.568801	-2.989900	3.293700	-9.847000	26.488937	0.000500	20.861881
2023.572219	-3.011100	3.292700	-9.913500	26.468120	0.000500	20.878414
2024.568974	-2.985600	3.292900	-9.829400	26.450890	0.000497	20.855882
2025.568738	-2.982800	3.291900	-9.818000	26.455229	0.000499	20.861190
2026.574146	-2.990600	3.291100	-9.841300	26.466413	0.000498	20.867215
2027.574022	-2.984500	3.292800	-9.826600	26.509760	0.000497	20.862423
2028.569145	-2.974900	3.292200	-9.791700	26.523148	0.000496	20.862603
2029.574032	-3.004500	3.291900	-9.889200	26.526132	0.000498	20.866551
2030.575119	-2.986900	3.291200	-9.828900	26.526116	0.000496	20.865587
2031.576117	-3.007900	3.289600	-9.893200	26.509330	0.000496	20.856301
2032.575829	-2.998400	3.291500	-9.868200	26.465460	0.000494	20.850611
2033.574719	-3.007300	3.288400	-9.887200	26.484836	0.000494	20.851595
2034.571769	-2.976800	3.290100	-9.792600	26.509812	0.000493	20.843035
2035.580904	-2.994100	3.288500	-9.843700	26.523209	0.000492	20.856975
2036.575421	-2.999900	3.289100	-9.865100	26.519400	0.000491	20.849353
2037.571801	-3.029100	3.288100	-9.958300	26.555721	0.000488	20.852198
2038.574031	-3.001900	3.288300	-9.869500	26.599168	0.000490	20.853198
2039.575599	-3.003900	3.286600	-9.871600	26.639413	0.000491	20.876585
2040.573464	-2.992400	3.286800	-9.834000	26.645160	0.000490	20.839690
2041.573213	-2.999200	3.287300	-9.857900	26.672490	0.000489	20.872853
2042.575235	-3.002000	3.287700	-9.868800	26.659146	0.000490	20.840948
2043.574733	-3.021400	3.286300	-9.928400	26.617563	0.000488	20.845612
2044.572655	-3.004100	3.286200	-9.870800	26.627734	0.000488	20.879543
2045.574060	-2.987000	3.285600	-9.812300	26.621028	0.000486	20.829656
2046.573357	-2.986500	3.284800	-9.809000	26.625719	0.000485	20.855233
2047.574728	-3.006600	3.285200	-9.875700	26.602848	0.000486	20.839829
2048.576623	-3.000100	3.284200	-9.851700	26.567523	0.000484	20.841303
2049.573442	-2.991600	3.284300	-9.823800	26.515636	0.000485	20.841303
2050.573732	-3.017900	3.284100	-9.908300	26.460161	0.000483	20.841019
2051.574170	-2.991000	3.283300	-9.819100	26.454363	0.000484	20.839458
2052.574094	-2.996100	3.282300	-9.833800	26.465290	0.000483	20.847121
2053.573829	-2.992100	3.283600	-9.824000	26.499110	0.000484	20.830382
2054.574628	-2.992100	3.282400	-9.820000	26.525465	0.000483	20.847863
2055.573155	-2.990000	3.281700	-9.810900	26.562482	0.000481	20.847615
2056.574258	-2.989600	3.282200	-9.810200	26.593389	0.000481	20.849286
2057.573222	-3.017800	3.281300	-9.899900	26.638919	0.000478	20.850486
2058.574442	-2.984500	3.280900	-9.790500	26.648112	0.000478	20.832701
2059.574822	-3.001500	3.279300	-9.841500	26.627359	0.000478	20.863519
2060.573360	-3.003700	3.279800	-9.850300	26.606349	0.000479	20.849037
2061.576837	-3.005100	3.278800	-9.851800	26.636751	0.000476	20.831236
2062.573963	-3.012000	3.277700	-9.871600	26.678692	0.000475	20.823615
2063.575434	-3.040500	3.277300	-9.963800	26.667142	0.000476	20.821486
2064.576684	-2.998900	3.278200	-9.829900	26.626159	0.000474	20.822960
2065.576211	-3.002500	3.279200	-9.845100	26.597413	0.000474	20.825830
2066.574857	-3.011600	3.277000	-9.867000	26.615028	0.000475	20.816986
2067.577106	-2.996700	3.278000	-9.822400	26.634290	0.000473	20.835875
2068.574936	-3.013300	3.276700	-9.872200	26.641647	0.000472	20.823357
2069.582168	-2.990600	3.277800	-9.801500	26.630224	0.000473	20.817564
2070.575875	-2.996400	3.275600	-9.814200	26.629563	0.000471	20.820692
2071.580443	-3.003600	3.276000	-9.838600	26.633054	0.000471	20.818986
2072.581373	-3.018700	3.275800	-9.888300	26.672878	0.000472	20.822511
2073.577011	-2.997000	3.276900	-9.819600	26.718678	0.000469	20.820666
2074.581568	-2.988700	3.275800	-9.788500	26.685090	0.000470	20.814874
2075.581362	-2.985800	3.276200	-9.780100	26.710369	0.000467	20.852140
2076.576481	-3.013900	3.275400	-9.870400	26.701331	0.000467	20.818399
2077.579586	-2.979700	3.275000	-9.756600	26.710292	0.000468	20.822666
2078.580852	-3.009100	3.273300	-9.847800	26.713952	0.000466	20.822553
2079.579033	-2.989400	3.272700	-9.782200	26.715085	0.000465	20.821795
2080.580421	-3.010100	3.273500	-9.851900	26.687413	0.000463	20.824321
2081.579410	-2.988900	3.273500	-9.782500	26.676985	0.000464	20.818580
2082.579745	-3.021000	3.273800	-9.888600	26.718582	0.000463	20.807294
2083.578737	-3.016500	3.270500	-9.863900	26.713506	0.000464	20.823053
2084.582738	-3.010700	3.271300	-9.847900	26.738923	0.000462	20.805458
2085.582522	-2.998700	3.271800	-9.810500	26.726420	0.000463	20.822760
2086.581595	-2.976100	3.272200	-9.736600	26.782464	0.000462	20.817467
2087.582810	-2.993800	3.271200	-9.793000	26.787463	0.000459	20.822018
2088.582877	-2.994200	3.270200	-9.790900	26.806618	0.000461	20.809035
2089.582096	-2.998700	3.270200	-9.805000	26.810227	0.000460	20.793224
2090.583148	-2.997400	3.269200	-9.798000	26.820381	0.000457	20.807700
2091.581217	-3.000400	3.268900	-9.807600	26.819197	0.000457	20.814570
2092.583304	-3.004400	3.269100	-9.820400	26.798909	0.000457	20.790853
2093.583158	-2.998400	3.269800	-9.801100	26.724841	0.000457	20.793198
2094.584485	-2.998300	3.269200	-9.800500	26.664600	0.000456	20.798543
2095.581415	-3.005300	3.268000	-9.819600	26.602264	0.000456	20.807000
2096.585574	-2.984300	3.268600	-9.754500	26.610600	0.000454	20.817276
2097.582725	-3.000400	3.267100	-9.800900	26.598250	0.000455	20.826672
2098.583746	-3.016500	3.265700	-9.849600	26.624003	0.000456	20.798033
2099.583866	-2.972900	3.268600	-9.716700	26.661033	0.000456	20.805387
2100.586240	-2.975300	3.268100	-9.722500	26.707115	0.000453	20.803826
2101.583413	-2.985500	3.267000	-9.752800	26.748146	0.000453	20.809990
2102.582598	-3.009300	3.264600	-9.823100	26.773777	0.000451	20.821060
2103.586380	-2.982300	3.265000	-9.736400	26.770492	0.000450	20.799739
2104.583825	-2.990400	3.265000	-9.763100	26.817676	0.000449	20.805929
2105.584963	-2.991200	3.265700	-9.767900	26.783507	0.000450	20.827524
2106.589714	-2.977500	3.264100	-9.716900	26.774495	0.000449	20.814196
2107.585895	-2.993600	3.264000	-9.769200	26.739109	0.000448	20.795688
2108.585825	-3.038200	3.261500	-9.908300	26.755589	0.000448	20.801826
2109.590186	-2.986100	3.263600	-9.744400	26.787058	0.000447	20.810706
2110.588864	-2.991100	3.262600	-9.757500	26.833787	0.000446	20.792730
2111.586661	-2.988700	3.261800	-9.747200	26.869642	0.000444	20.788953
2112.586469	-2.988700	3.261500	-9.746300	26.894275	0.000445	20.799497
2113.586390	-3.007200	3.261800	-9.806900	26.868991	0.000444	20.802049
2114.586739	-2.998900	3.260800	-9.778100	26.900293	0.000442	20.808867
2115.586695	-3.008400	3.261500	-9.810100	26.864250	0.000443	20.808661
2116.586166	-3.016600	3.259200	-9.831000	26.819030	0.000442	20.807764
2117.586417	-2.996000	3.260800	-9.768200	26.788823	0.000440	20.803471
2118.587269	-2.986300	3.261200	-9.738700	26.769770	0.000441	20.827462
2119.589212	-3.017900	3.259700	-9.836500	26.740161	0.000443	20.829462
2120.589880	-2.989900	3.260800	-9.747800	26.704000	0.000440	20.803539
2121.590889	-2.981300	3.258700	-9.714100	26.695459	0.000440	20.802065
2122.596052	-2.987500	3.258700	-9.734100	26.678111	0.000438	20.809754
2123.593877	-3.015100	3.257000	-9.819100	26.673574	0.000438	20.821315
2124.592667	-3.009800	3.259000	-9.808100	26.678891	0.000437	20.792995
2125.596376	-2.996600	3.256200	-9.756100	26.699935	0.000436	20.798504
2126.594718	-3.006500	3.256400	-9.790000	26.702601	0.000437	20.838167
2127.591844	-3.011000	3.256900	-9.805000	26.697875	0.000437	20.797381
2128.595566	-2.997200	3.255000	-9.755900	26.678066	0.000434	20.803071
2129.597187	-3.020400	3.254700	-9.828700	26.659354	0.000436	20.834520
2130.592633	-2.992100	3.256200	-9.741800	26.651542	0.000435	20.806751
2131.597240	-2.993500	3.255900	-9.745700	26.690063	0.000434	20.819399
2132.595519	-2.987000	3.256000	-9.724400	26.684926	0.000434	20.804752
2133.598731	-3.006100	3.254000	-9.780500	26.732535	0.000433	20.796665
2134.599378	-2.986900	3.255500	-9.722100	26.755034	0.000432	20.817389
2135.596041	-2.994800	3.252100	-9.737700	26.774165	0.000428	20.818131
2136.596900	-2.977700	3.254400	-9.689000	26.771935	0.000430	20.788389
2137.598891	-2.997200	3.252800	-9.747700	26.806326	0.000429	20.802103
2138.597567	-2.995700	3.253400	-9.745400	26.833078	0.000428	20.805768
2139.597886	-3.010300	3.250700	-9.783900	26.858199	0.000428	20.816802
2140.600548	-2.987500	3.250900	-9.711100	26.816967	0.000426	20.809483
2141.600514	-3.019900	3.249500	-9.812600	26.818485	0.000426	20.808164
2142.598776	-2.983500	3.250700	-9.697300	26.830685	0.000426	20.804310
2143.600700	-3.002600	3.249700	-9.757300	26.841136	0.000426	20.811974
2144.600224	-3.026500	3.248900	-9.832200	26.828660	0.000424	20.806068
2145.602179	-2.993200	3.251400	-9.730900	26.835975	0.000424	20.827172
2146.601139	-2.997300	3.249000	-9.737000	26.837133	0.000422	20.798465
2147.602949	-2.988700	3.249200	-9.709500	26.871102	0.000424	20.806542
2148.601750	-3.005200	3.246700	-9.756300	26.902628	0.000423	20.813112
2149.602425	-2.999300	3.247900	-9.738700	26.859159	0.000422	20.820611
2150.603742	-2.985600	3.246000	-9.690000	26.854408	0.000420	20.817257
2151.609907	-2.971400	3.247700	-9.649000	26.815010	0.000420	20.816525
2152.605187	-2.996600	3.245600	-9.724700	26.795486	0.000419	20.794049
2153.605300	-2.999600	3.246000	-9.736000	26.795881	0.000418	20.825740
2154.606585	-3.006000	3.245400	-9.754300	26.824981	0.000418	20.836032
2155.602931	-3.011700	3.243800	-9.767600	26.879837	0.000417	20.819118
2156.608245	-2.959000	3.247000	-9.605600	26.908995	0.000417	20.823782
2157.605561	-3.003800	3.244000	-9.743300	26.929092	0.000417	20.825024
2158.606786	-3.018200	3.243100	-9.787400	26.906724	0.000415	20.824817
2159.603654	-2.993700	3.243000	-9.707100	26.952479	0.000416	20.808713
2160.607594	-3.007400	3.242300	-9.750300	27.015096	0.000414	20.816205
2161.605320	-2.990800	3.243200	-9.698900	27.050227	0.000415	20.819292
2162.604633	-3.000200	3.241800	-9.724700	27.058053	0.000411	20.811516
2163.612217	-2.996400	3.241800	-9.712800	27.042391	0.000411	20.813783
2164.604461	-2.987900	3.241700	-9.685400	27.032259	0.000412	20.814973
2165.605761	-3.017800	3.240700	-9.778500	27.024517	0.000410	20.820463
2166.609402	-3.026600	3.240400	-9.805600	27.010776	0.000412	20.833671
2167.605382	-3.022300	3.241800	-9.796200	26.990184	0.000410	20.840464
2168.605319	-2.999300	3.239700	-9.715400	27.023583	0.000409	20.824740
2169.609714	-3.026500	3.239700	-9.804200	27.036330	0.000408	20.824282
2170.607325	-2.988900	3.239300	-9.680200	27.075103	0.000407	20.820602
2171.606633	-3.018600	3.238300	-9.774200	27.104426	0.000407	20.859100
2172.610425	-2.980700	3.238100	-9.650300	27.111533	0.000407	20.849179
2173.606297	-3.002400	3.238100	-9.720800	27.138380	0.000406	20.811222
2174.607683	-3.000900	3.239300	-9.720000	27.128127	0.000405	20.820824
2175.608325	-3.003800	3.238500	-9.725800	27.141558	0.000404	20.829117
2176.607073	-2.997800	3.236400	-9.700700	27.131703	0.000404	20.830110
2177.607918	-3.001700	3.237300	-9.716700	27.108849	0.000403	20.840790
2178.607089	-3.012900	3.234600	-9.742500	27.094808	0.000404	20.844686
2179.609288	-3.011900	3.236500	-9.746300	27.106543	0.000401	20.835626
2180.608114	-2.998400	3.235500	-9.698900	27.127569	0.000399	20.837806
2181.607852	-3.005200	3.233000	-9.714900	27.153524	0.000400	20.848737
2182.613197	-2.996900	3.233700	-9.689900	27.155650	0.000400	20.851824
2183.607358	-3.014300	3.234600	-9.749500	27.159155	0.000398	20.825479
2184.606225	-2.998600	3.233700	-9.695000	27.147103	0.000397	20.838487
2185.608680	-2.999000	3.232600	-9.693900	27.143281	0.000396	20.850763
2186.610829	-3.004000	3.232200	-9.708400	27.124843	0.000397	20.840280
2187.608619	-3.009300	3.231300	-9.723000	27.105058	0.000396	20.835081
2188.609972	-2.993700	3.230600	-9.670000	27.084590	0.000396	20.829668
2189.611513	-2.987400	3.231800	-9.653400	27.072778	0.000398	20.848608
2190.614139	-3.018200	3.230600	-9.748100	27.054929	0.000393	20.853891
2191.612989	-3.001200	3.230200	-9.692300	27.009573	0.000394	20.837203
2192.611208	-3.002700	3.229200	-9.695200	26.989161	0.000392	20.849866
2193.613049	-2.999600	3.230700	-9.690200	26.962070	0.000391	20.844435
2194.612113	-2.998400	3.229500	-9.681900	26.936300	0.000391	20.844125
2195.614833	-3.006000	3.231700	-9.713300	26.957544	0.000392	20.837987
2196.622675	-3.002200	3.229200	-9.693600	26.946648	0.000391	20.839832
2197.610984	-2.984400	3.228200	-9.633700	26.960116	0.000390	20.838677
2198.609047	-3.000400	3.227000	-9.681000	26.936771	0.000389	20.851237
2199.610265	-2.985400	3.227600	-9.634800	26.910837	0.000390	20.861194
2200.611085	-2.973500	3.226300	-9.592400	26.923199	0.000388	20.842332
2201.612338	-2.992900	3.225900	-9.654200	26.969383	0.000388	20.838039
2202.615167	-3.001200	3.224700	-9.676500	27.007293	0.000387	20.870470
2203.610832	-2.996000	3.225600	-9.662800	27.004069	0.000387	20.851108
2204.612750	-3.002600	3.224000	-9.679300	27.010045	0.000386	20.871815
2205.614871	-2.989700	3.225000	-9.640600	27.010414	0.000384	20.873134
2206.612406	-2.993000	3.224900	-9.651100	27.015145	0.000386	20.845650
2207.613449	-2.985100	3.225700	-9.627700	27.040066	0.000383	20.867393
2208.615120	-2.998000	3.224200	-9.665700	27.043803	0.000383	20.861194
2209.611878	-2.982700	3.223200	-9.613100	27.084632	0.000383	20.851521
2210.615590	-2.990900	3.223600	-9.640200	27.046478	0.000383	20.860090
2211.615222	-3.006200	3.222600	-9.686700	27.038308	0.000382	20.854720
2212.612939	-3.016300	3.221200	-9.715400	27.000528	0.000382	20.861771
2213.611651	-2.991700	3.221500	-9.637000	26.958743	0.000379	20.862900
2214.615297	-2.994400	3.221100	-9.644600	26.957416	0.000379	20.864883
2215.612374	-3.010800	3.219700	-9.692400	27.014493	0.000378	20.867754
2216.613384	-3.004500	3.219600	-9.672200	27.021806	0.000379	20.866573
2217.616885	-3.009200	3.219400	-9.687300	27.032744	0.000377	20.864296
2218.615847	-2.988900	3.219000	-9.620000	27.003495	0.000378	20.841522
2219.611217	-2.968100	3.219000	-9.552400	27.020982	0.000376	20.867167
2220.612597	-3.000400	3.217000	-9.651600	27.068473	0.000375	20.876994
2221.613373	-3.039000	3.215800	-9.771600	27.078297	0.000375	20.875021
2222.611969	-2.997100	3.217100	-9.641000	27.061985	0.000374	20.867625
2223.614979	-3.008400	3.217200	-9.677700	27.107640	0.000372	20.881771
2224.613626	-3.001400	3.216400	-9.651900	27.111489	0.000373	20.879004
2225.613218	-3.020400	3.215200	-9.709400	27.082310	0.000374	20.891382
2226.612943	-3.024100	3.213900	-9.718700	27.038976	0.000372	20.884313
2227.617619	-2.990500	3.216000	-9.616400	27.019122	0.000371	20.879994
2228.614559	-3.010000	3.214000	-9.673200	26.963484	0.000370	20.873356
2229.614291	-3.012600	3.212900	-9.679000	26.951379	0.000370	20.868770
2230.616578	-3.012700	3.212700	-9.677700	26.951199	0.000368	20.868115
2231.614161	-2.979300	3.213000	-9.571300	26.913211	0.000368	20.867847
2232.614922	-3.014100	3.212600	-9.682400	26.932518	0.000368	20.857865
2233.616742	-2.988800	3.213900	-9.604000	26.963561	0.000368	20.878175
2234.613798	-2.986700	3.211400	-9.589400	26.988106	0.000367	20.860184
2235.614931	-2.992900	3.212000	-9.612400	27.026348	0.000366	20.887735
2236.616226	-3.005800	3.210800	-9.650000	27.029982	0.000366	20.870054
2237.617073	-3.009400	3.209800	-9.658400	27.103352	0.000366	20.875562
2238.616712	-3.023600	3.210300	-9.705800	27.147976	0.000365	20.891044
2239.618720	-3.008300	3.210800	-9.658200	27.169129	0.000362	20.870121
2240.615336	-2.991100	3.209600	-9.599500	27.161330	0.000362	20.890250
2241.616805	-3.008600	3.207900	-9.651100	27.166490	0.000363	20.882165
2242.616815	-2.997400	3.209000	-9.617800	27.152716	0.000360	20.874950
2243.619797	-3.005200	3.208400	-9.639800	27.208969	0.000360	20.878897
2244.623083	-2.992800	3.208000	-9.600700	27.254531	0.000360	20.880629
2245.619370	-3.025400	3.204800	-9.695900	27.265844	0.000360	20.889164
2246.621602	-2.995300	3.205200	-9.599700	27.292164	0.000360	20.899043
2247.620517	-2.989400	3.206700	-9.584500	27.323059	0.000359	20.907360
2248.618346	-3.001600	3.207200	-9.625000	27.325339	0.000359	20.879310
2249.617681	-3.018600	3.204200	-9.671800	27.367135	0.000357	20.887690
2250.619041	-2.966600	3.206100	-9.510200	27.365644	0.000356	20.909895
2251.618811	-2.972200	3.205000	-9.524800	27.354486	0.000354	20.891086
2252.617982	-3.016400	3.203700	-9.662300	27.377915	0.000356	20.889051
2253.620520	-2.991600	3.205700	-9.589100	27.388474	0.000355	20.880707
2254.619070	-2.976700	3.203900	-9.536700	27.368626	0.000356	20.884448
2255.617047	-2.972100	3.203100	-9.518400	27.383555	0.000354	20.894250
2256.622049	-3.018000	3.203000	-9.665900	27.365096	0.000353	20.891328
2257.618832	-2.968800	3.203800	-9.509000	27.385415	0.000353	20.887586
2258.619758	-2.976300	3.203400	-9.533300	27.413043	0.000351	20.911111
2259.621040	-2.991000	3.200900	-9.573500	27.425083	0.000351	20.920377
2260.620547	-3.010500	3.199500	-9.631200	27.426086	0.000351	20.918542
2261.619673	-2.987600	3.203500	-9.570700	27.421809	0.000349	20.909499
2262.624737	-2.988500	3.200500	-9.564400	27.399596	0.000349	20.906593
2263.620990	-2.993200	3.200400	-9.578200	27.354332	0.000349	20.920326
2264.620184	-2.987200	3.199800	-9.557700	27.300168	0.000347	20.917523
2265.624925	-3.000100	3.198100	-9.593700	27.242618	0.000346	20.903258
2266.623240	-2.983700	3.199000	-9.544300	27.227190	0.000347	20.906706
2267.620662	-2.991000	3.196100	-9.558700	27.237166	0.000349	20.921006
2268.623088	-3.013500	3.195900	-9.629500	27.276942	0.000347	20.906964
2269.621372	-2.989000	3.196100	-9.551700	27.309185	0.000346	20.890086
2270.626072	-2.997200	3.196900	-9.580900	27.338701	0.000345	20.906499
2271.624635	-2.999500	3.194500	-9.581400	27.384882	0.000344	20.923083
2272.624434	-3.001300	3.194500	-9.586900	27.420103	0.000342	20.922006
2273.624618	-3.031000	3.192800	-9.676800	27.414207	0.000344	20.928402
2274.626229	-3.023400	3.195600	-9.660800	27.376998	0.000344	20.908989
2275.624107	-3.015300	3.191600	-9.622200	27.382895	0.000343	20.915395
2276.625461	-2.996600	3.192600	-9.566300	27.384668	0.000341	20.933298
2277.625292	-3.025800	3.191800	-9.655800	27.412004	0.000342	20.920971
2278.625501	-3.018300	3.191100	-9.630800	27.452777	0.000342	20.945392
2279.624102	-3.000200	3.189700	-9.568400	27.473986	0.000340	20.926428
2280.623690	-3.011100	3.189500	-9.603300	27.444929	0.000338	20.928489
2281.629363	-2.988100	3.191300	-9.534800	27.422168	0.000338	20.925980
2282.625298	-2.987400	3.190500	-9.530400	27.447644	0.000338	20.903248
2283.624133	-3.001200	3.189100	-9.569800	27.444243	0.000338	20.934436
2284.623668	-3.001700	3.188600	-9.570100	27.414601	0.000337	20.941599
2285.624836	-3.001700	3.187700	-9.567100	27.379150	0.000336	20.932014
2286.623558	-2.999200	3.187800	-9.559700	27.431210	0.000335	20.927489
2287.623729	-3.001500	3.188900	-9.571100	27.438013	0.000335	20.929592
2288.623784	-3.024100	3.186000	-9.634000	27.458151	0.000334	20.916662
2289.624417	-3.005500	3.185400	-9.573100	27.478288	0.000335	20.925541
2290.626048	-3.000300	3.185700	-9.557500	27.482059	0.000331	20.897095
2291.626972	-3.008400	3.186000	-9.583600	27.525801	0.000332	20.925454
2292.633544	-3.026900	3.183700	-9.635100	27.537214	0.000331	20.944995
2293.627820	-3.000500	3.182800	-9.549500	27.565970	0.000329	20.938367
2294.633035	-3.005600	3.183300	-9.566200	27.571676	0.000331	20.941264
2295.632068	-2.973600	3.182600	-9.462700	27.594116	0.000332	20.928282
2296.627521	-3.001500	3.182500	-9.551200	27.536486	0.000331	20.936203
2297.631645	-2.987900	3.181900	-9.506000	27.549553	0.000328	20.929437
2298.631170	-3.000600	3.181000	-9.543200	27.576809	0.000327	20.936471
2299.629228	-2.990100	3.182100	-9.513500	27.571471	0.000329	20.930153
2300.632729	-2.994400	3.182200	-9.528200	27.595187	0.000328	20.937893
2301.628250	-3.016700	3.179600	-9.591100	27.584676	0.000326	20.947230
2302.628168	-2.987400	3.179400	-9.497300	27.549297	0.000325	20.947669
2303.628917	-2.993500	3.180500	-9.520300	27.518732	0.000326	20.948211
2304.629429	-2.983500	3.180700	-9.488300	27.559449	0.000326	20.943186
2305.629970	-2.995000	3.178200	-9.518100	27.566973	0.000324	20.947436
2306.635675	-2.997200	3.178600	-9.526200	27.526856	0.000324	20.927463
2307.629872	-2.997800	3.178600	-9.526900	27.498451	0.000324	20.946772
2308.629201	-3.013300	3.176400	-9.569400	27.498896	0.000323	20.951961
2309.629268	-2.990900	3.178300	-9.504300	27.527962	0.000323	20.963659
2310.630046	-3.009700	3.176800	-9.560400	27.548165	0.000322	20.974975
2311.631328	-3.011000	3.175400	-9.560300	27.556135	0.000320	20.944592
2312.630685	-2.979300	3.175400	-9.458500	27.560812	0.000319	20.952616
2313.634402	-3.001800	3.174900	-9.529500	27.580656	0.000319	20.965468
2314.632091	-3.000600	3.173800	-9.522700	27.554368	0.000319	20.939970
2315.630600	-2.971400	3.174600	-9.431500	27.540933	0.000321	20.960588
2316.632329	-3.011400	3.172000	-9.551100	27.533787	0.000318	20.940125
2317.634569	-2.991000	3.174400	-9.493100	27.500326	0.000317	20.966200
2318.630220	-2.984000	3.172900	-9.466500	27.473197	0.000319	20.979681
2319.632568	-2.967500	3.171400	-9.410000	27.474114	0.000317	20.960218
2320.631739	-3.015100	3.169100	-9.554500	27.497044	0.000316	20.962898
2321.634375	-3.028700	3.170300	-9.600400	27.567708	0.000317	20.970457
2322.634109	-3.003100	3.168600	-9.515400	27.603907	0.000315	20.983644
2323.633798	-2.994400	3.168900	-9.488400	27.566233	0.000315	20.962337
2324.633326	-2.991200	3.168400	-9.476100	27.569147	0.000314	20.973327
2325.635950	-3.026100	3.167300	-9.584200	27.585176	0.000315	20.979023
2326.637195	-2.980800	3.167900	-9.441700	27.602544	0.000312	20.983222
2327.633529	-2.983900	3.167000	-9.448900	27.614213	0.000312	20.970309
2328.634722	-2.986100	3.166500	-9.454700	27.625548	0.000312	20.950897
2329.634368	-2.998400	3.166100	-9.492300	27.640781	0.000310	20.979497
2330.634827	-3.014800	3.164200	-9.538800	27.635418	0.000311	20.965094
2331.635262	-2.969700	3.165100	-9.398800	27.625231	0.000311	20.968119
2332.635975	-2.997000	3.167200	-9.489400	27.604769	0.000309	20.981194
2333.635188	-3.000800	3.162700	-9.489200	27.653888	0.000311	20.983203
2334.633620	-2.977300	3.163700	-9.418300	27.646615	0.000309	20.954077
2335.639842	-3.012300	3.161700	-9.522400	27.653331	0.000310	20.969841
2336.635963	-2.985600	3.159900	-9.433200	27.644249	0.000308	20.971135
2337.637851	-2.988900	3.160400	-9.445200	27.690418	0.000307	20.996251
2338.641123	-2.999400	3.159800	-9.475600	27.720051	0.000307	20.977236
2339.640121	-2.994200	3.159700	-9.460100	27.745101	0.000304	20.970677
2340.636592	-2.996900	3.158900	-9.465700	27.744835	0.000304	20.976098
2341.639819	-2.992700	3.157100	-9.447600	27.737604	0.000306	20.994423
2342.635972	-2.992000	3.160700	-9.456100	27.730074	0.000305	20.980684
2343.638680	-3.000600	3.158300	-9.476100	27.686562	0.000303	20.981468
2344.639647	-2.976600	3.158800	-9.401000	27.726664	0.000302	20.968245
2345.639759	-2.992900	3.157400	-9.448000	27.738802	0.000303	20.968132
2346.642858	-3.009000	3.157700	-9.501400	27.760691	0.000303	20.959815
2347.639766	-2.996400	3.154900	-9.452200	27.730578	0.000302	20.987828
2348.641068	-3.005800	3.153800	-9.478300	27.750204	0.000302	20.968700
2349.642364	-3.038100	3.153900	-9.580400	27.742537	0.000301	20.969519
2350.640079	-3.015000	3.152700	-9.503500	27.726199	0.000302	20.960666
2351.643104	-2.973400	3.153000	-9.373300	27.699291	0.000299	20.959667
2352.640623	-3.002000	3.151900	-9.461600	27.721898	0.000299	20.977198
2353.640553	-3.002100	3.151100	-9.459300	27.739957	0.000299	20.972612
2354.641833	-2.985800	3.150900	-9.406200	27.718814	0.000299	20.965088
2355.643005	-2.994900	3.151200	-9.436700	27.719696	0.000298	20.965027
2356.638729	-2.992800	3.150100	-9.426000	27.719978	0.000298	20.957251
2357.642571	-3.006700	3.149200	-9.467900	27.693771	0.000296	20.947002
2358.641690	-2.991000	3.149200	-9.418900	27.673013	0.000296	20.960251
2359.642854	-3.011400	3.147200	-9.476300	27.668137	0.000296	20.946337
2360.640773	-2.995100	3.146500	-9.423500	27.623055	0.000297	20.956922
2361.642043	-3.019900	3.145800	-9.499000	27.609174	0.000295	20.933950
2362.642041	-3.014000	3.146900	-9.484800	27.593444	0.000295	20.968378
2363.644284	-3.003800	3.144300	-9.443400	27.567526	0.000294	20.946096
2364.643778	-2.987300	3.145100	-9.394500	27.588312	0.000294	20.972696
2365.642974	-2.999300	3.144200	-9.430100	27.595396	0.000295	20.942845
2366.644971	-3.016100	3.142700	-9.477500	27.625667	0.000293	20.939639
2367.644599	-3.018700	3.141400	-9.482300	27.609293	0.000294	20.954455
2368.644081	-3.022000	3.138900	-9.483900	27.632332	0.000292	20.940181
2369.647369	-2.969500	3.141900	-9.328900	27.642433	0.000291	20.934698
2370.644382	-2.988500	3.141100	-9.386100	27.671673	0.000292	20.948947
2371.649189	-3.006000	3.139000	-9.435000	27.687797	0.000292	20.943361
2372.646211	-2.991300	3.138600	-9.385900	27.618932	0.000293	20.922433
2373.649332	-2.996000	3.138600	-9.402100	27.573290	0.000290	20.948102
2374.649546	-2.986800	3.137600	-9.370100	27.580727	0.000291	20.959377
2375.646307	-3.001200	3.136900	-9.413600	27.551689	0.000291	20.938223
2376.649584	-2.984700	3.135700	-9.358100	27.538039	0.000291	20.924491
2377.646040	-3.005300	3.134000	-9.417400	27.556213	0.000289	20.926655
2378.647649	-3.004100	3.134200	-9.413800	27.545605	0.000291	20.934473
2379.645649	-3.019700	3.132700	-9.459400	27.551414	0.000289	20.933205
2380.653525	-3.016800	3.131600	-9.445800	27.600792	0.000289	20.930731
2381.650062	-2.987700	3.132800	-9.358700	27.634634	0.000289	20.936334
2382.646994	-3.015900	3.132200	-9.445500	27.695865	0.000288	20.925878
2383.651817	-3.000100	3.131000	-9.392300	27.673385	0.000288	20.935972
2384.648254	-2.973800	3.131600	-9.312000	27.693611	0.000286	20.920766
2385.647877	-3.014500	3.128600	-9.430700	27.727133	0.000288	20.943590
2386.649598	-3.010900	3.129200	-9.418700	27.739239	0.000287	20.937756
2387.648614	-2.982900	3.129000	-9.332200	27.763080	0.000286	20.940410
2388.649769	-2.997300	3.128700	-9.375600	27.756868	0.000287	20.921359
2389.648696	-2.998800	3.128600	-9.380800	27.798407	0.000285	20.935186
2390.648307	-2.984100	3.128100	-9.333700	27.816730	0.000285	20.923282
2391.649775	-3.025100	3.125200	-9.453000	27.831781	0.000285	20.903343
2392.650256	-2.967300	3.126400	-9.275500	27.825579	0.000285	20.930764
2393.650002	-2.946000	3.124900	-9.204100	27.781830	0.000285	20.900015
2394.653248	-2.999400	3.123500	-9.366400	27.679037	0.000284	20.901834
2395.650084	-2.988100	3.122900	-9.329300	27.626732	0.000283	20.913687
2396.651554	-2.973000	3.123100	-9.283200	27.563090	0.000281	20.910816
2397.656950	-3.011700	3.122400	-9.402300	27.541787	0.000282	20.916409
2398.654270	-2.998900	3.121300	-9.360000	27.543836	0.000281	20.922263
2399.650881	-3.005900	3.119400	-9.375400	27.551247	0.000281	20.923082
2400.653139	-3.002600	3.119200	-9.364900	27.567578	0.000280	20.912487
2401.650665	-2.997400	3.117100	-9.342600	27.612054	0.000279	20.925469
2402.650609	-3.006500	3.117500	-9.372700	27.647739	0.000280	20.913487
2403.653856	-3.030900	3.115200	-9.441000	27.636763	0.000280	20.921408
2404.651385	-3.009600	3.116800	-9.378900	27.631999	0.000278	20.910452
2405.653410	-2.991200	3.114300	-9.313600	27.668420	0.000278	20.903479
2406.651632	-2.993900	3.113400	-9.321100	27.693881	0.000279	20.939527
2407.653387	-3.002100	3.113100	-9.345200	27.681964	0.000275	20.916632
2408.652848	-3.009500	3.111200	-9.361800	27.659304	0.000274	20.905211
2409.654699	-2.988600	3.112300	-9.300100	27.620680	0.000281	20.926562
2410.653469	-3.020300	3.110100	-9.392400	27.594952	0.000275	20.923908
2411.652770	-3.024100	3.109500	-9.402000	27.607666	0.000277	20.912046
2412.652524	-2.995200	3.110000	-9.314700	27.640129	0.000276	20.917683
2413.653569	-3.020700	3.106600	-9.383100	27.675162	0.000275	20.920692
2414.657265	-3.027400	3.105800	-9.400800	27.713585	0.000277	20.907201
2415.655520	-2.997000	3.107200	-9.310000	27.730470	0.000276	20.901435
2416.656860	-2.982300	3.106300	-9.263200	27.772087	0.000277	20.912968
2417.655494	-3.003600	3.106200	-9.328600	27.817429	0.000274	20.908814
2418.658606	-2.984900	3.105400	-9.268800	27.817583	0.000275	20.906598
2419.659167	-2.983900	3.103500	-9.259900	27.829515	0.000273	20.910546
2420.655272	-3.013800	3.102500	-9.349400	27.849594	0.000274	20.911788
2421.655158	-3.009600	3.101800	-9.335100	27.883832	0.000274	20.912107
2422.663078	-3.020300	3.099500	-9.360700	27.913957	0.000275	20.902599
2423.657598	-3.014200	3.100900	-9.345300	27.928484	0.000274	20.909633
2424.656145	-3.003200	3.098700	-9.304000	27.931387	0.000272	20.905443
2425.660589	-3.023000	3.097200	-9.361200	27.916210	0.000272	20.904392
2426.656978	-3.004700	3.097100	-9.304600	27.863472	0.000271	20.907262
2427.656249	-2.997300	3.095900	-9.278700	27.802910	0.000273	20.920753
2428.660165	-2.989100	3.096400	-9.254400	27.752651	0.000274	20.913323
2429.658211	-3.031000	3.094500	-9.378800	27.712953	0.000272	20.889023
2430.656478	-3.002500	3.094100	-9.288900	27.723044	0.000271	20.911978
2431.658457	-2.990400	3.092200	-9.245900	27.751580	0.000272	20.904660
2432.659162	-2.987400	3.092500	-9.237300	27.772388	0.000270	20.908056
2433.655984	-2.976800	3.092400	-9.204200	27.784141	0.000269	20.910875
2434.656958	-2.978100	3.090500	-9.202300	27.802327	0.000271	20.895513
2435.659157	-3.002200	3.089200	-9.273700	27.831470	0.000271	20.899712
2436.655576	-2.985500	3.090000	-9.223100	27.893341	0.000270	20.903660
2437.657481	-2.994500	3.088100	-9.246100	27.909932	0.000270	20.894755
2438.659527	-2.999000	3.087800	-9.258300	27.895020	0.000269	20.915306
2439.658942	-2.987100	3.085800	-9.216900	27.896459	0.000269	20.890678
2440.657483	-3.004400	3.084200	-9.265300	27.926215	0.000268	20.900712
2441.658734	-3.010500	3.083700	-9.282300	27.911826	0.000268	20.911358
2442.657397	-2.984600	3.084200	-9.203900	27.855180	0.000268	20.909349
2443.660204	-2.974500	3.082300	-9.167300	27.889238	0.000269	20.889575
2444.667697	-2.965600	3.082300	-9.139300	27.908220	0.000269	20.909152
2445.659790	-3.009900	3.079600	-9.268100	27.941299	0.000267	20.894558
2446.658168	-3.006600	3.079100	-9.256800	27.959200	0.000266	20.889343
2447.662652	-2.993100	3.077600	-9.210300	27.906720	0.000266	20.889627
2448.660202	-3.016200	3.076700	-9.278600	27.828105	0.000268	20.876887
2449.661117	-3.014500	3.077600	-9.276100	27.777247	0.000267	20.893032
2450.664480	-2.991300	3.076000	-9.199600	27.759051	0.000267	20.899376
2451.663783	-2.992000	3.076100	-9.202000	27.765913	0.000268	20.889688
2452.661594	-2.978100	3.074400	-9.154400	27.799417	0.000265	20.904437
2453.663192	-2.977800	3.072600	-9.148400	27.857161	0.000267	20.878154
2454.661525	-2.982500	3.072100	-9.161500	27.892889	0.000266	20.908894
2455.661576	-2.969500	3.072500	-9.123600	27.936050	0.000266	20.900179
2456.661895	-2.995700	3.068900	-9.193000	27.948160	0.000264	20.890084
2457.665428	-2.989400	3.071200	-9.179500	27.934140	0.000267	20.895412
2458.667733	-3.001700	3.066900	-9.204700	27.937832	0.000265	20.886801
2459.664192	-2.986400	3.067400	-9.159900	27.943279	0.000265	20.894180
2460.667135	-2.978400	3.067000	-9.134100	27.937043	0.000265	20.882215
2461.667914	-3.006800	3.064600	-9.213400	27.926397	0.000263	20.876241
2462.667297	-2.993600	3.064600	-9.173700	27.913360	0.000263	20.874974
2463.669592	-2.979800	3.064700	-9.131000	27.888315	0.000264	20.887223
2464.665896	-2.980200	3.062400	-9.124900	27.879159	0.000264	20.890336
2465.665419	-3.000100	3.061100	-9.182300	27.886072	0.000264	20.902034
2466.665164	-2.998000	3.060100	-9.173500	27.880143	0.000264	20.890378
2467.666202	-2.999400	3.057700	-9.170000	27.814487	0.000265	20.874087
2468.665418	-3.018600	3.058400	-9.231100	27.808910	0.000263	20.864208
2469.666291	-2.994700	3.058500	-9.157700	27.809278	0.000260	20.864104
2470.665215	-3.003800	3.056400	-9.179500	27.824114	0.000265	20.876190
2471.666479	-2.973700	3.055200	-9.084800	27.878114	0.000263	20.890707
2472.669163	-3.008300	3.053000	-9.182900	27.922869	0.000262	20.893077
2473.665030	-3.004700	3.051700	-9.168600	27.965317	0.000263	20.895974
2474.667868	-3.020800	3.050300	-9.213100	27.993693	0.000262	20.877122
2475.667244	-2.996900	3.051500	-9.144300	28.003945	0.000263	20.901663
2476.670044	-3.012800	3.049700	-9.186600	27.982439	0.000263	20.877647
2477.668617	-3.017200	3.048400	-9.196800	27.959322	0.000261	20.878560
2478.668387	-3.014000	3.048000	-9.185800	27.918030	0.000263	20.875406
2479.672087	-3.018000	3.046000	-9.191700	27.917472	0.000261	20.881482
2480.670928	-3.026300	3.044500	-9.212400	27.949951	0.000260	20.893784
2481.668356	-3.013600	3.043300	-9.171000	27.999808	0.000261	20.871897
2482.672122	-2.996400	3.043600	-9.119600	28.003534	0.000261	20.878967
2483.670579	-2.997300	3.041900	-9.116200	28.007508	0.000262	20.857363
2484.671914	-3.014400	3.039400	-9.160800	27.968067	0.000262	20.853225
2485.670296	-2.995400	3.040800	-9.105900	27.974636	0.000261	20.859837
2486.673658	-2.988500	3.038100	-9.078800	27.934063	0.000260	20.881586
2487.672640	-2.994200	3.037400	-9.094000	27.916668	0.000260	20.871664
2488.675875	-3.010100	3.036600	-9.140100	27.902929	0.000260	20.876802
2489.675890	-2.979200	3.036100	-9.044500	27.892770	0.000259	20.886965
2490.672878	-2.997500	3.033800	-9.092600	27.850446	0.000260	20.875190
2491.672805	-3.011300	3.032900	-9.132200	27.869086	0.000260	20.884940
2492.681642	-2.979300	3.030900	-9.029300	27.905413	0.000259	20.883569
2493.674152	-2.986400	3.029700	-9.047100	27.948333	0.000261	20.875561
2494.674918	-3.010700	3.029700	-9.120500	27.995312	0.000260	20.856467
2495.680938	-2.987800	3.029100	-9.049900	28.030907	0.000258	20.879018
2496.675001	-3.003600	3.025700	-9.086400	28.042494	0.000260	20.848958
2497.676212	-2.988800	3.025900	-9.043100	28.052943	0.000258	20.859950
2498.678905	-3.017400	3.024900	-9.126800	28.084338	0.000260	20.874009
2499.678603	-3.004100	3.022600	-9.079100	28.085623	0.000258	20.863450
2500.674542	-2.996300	3.022900	-9.056700	28.102939	0.000259	20.878983
2501.680153	-2.995500	3.022400	-9.052500	28.096764	0.000258	20.862337
2502.677874	-2.975900	3.020600	-8.987700	28.118783	0.000261	20.860795
2503.679943	-3.041800	3.018000	-9.179300	28.126319	0.000259	20.877389
2504.677447	-3.013600	3.017100	-9.091900	28.134223	0.000259	20.859743
2505.677922	-2.985100	3.017400	-9.006100	28.172210	0.000258	20.860053
2506.680632	-3.004100	3.016300	-9.060600	28.175456	0.000258	20.854786
2507.678732	-3.025200	3.013300	-9.115000	28.139593	0.000258	20.860882
2508.679885	-3.036900	3.010300	-9.140900	28.099497	0.000258	20.886423
2509.679618	-3.000000	3.011400	-9.032800	28.112695	0.000258	20.874580
2510.679979	-3.001700	3.010000	-9.034500	28.135380	0.000260	20.858063
2511.679906	-3.043800	3.007100	-9.151100	28.149648	0.000259	20.865788
2512.679225	-3.005100	3.008800	-9.040600	28.135912	0.000256	20.849590
2513.679317	-3.012600	3.006800	-9.056000	28.149801	0.000258	20.856460
2514.680490	-3.007100	3.006600	-9.040400	28.168487	0.000260	20.850141
2515.681689	-2.994900	3.004100	-8.996600	28.179355	0.000258	20.858711
2516.682188	-3.008800	3.001900	-9.031400	28.189194	0.000259	20.863875
2517.682159	-2.999100	3.000800	-8.999100	28.192020	0.000258	20.822151
2518.682277	-3.018000	2.999700	-9.052200	28.168025	0.000257	20.858211
2519.682262	-2.957700	3.001000	-8.875100	28.198126	0.000258	20.862436
2520.682872	-2.973500	2.998200	-8.914000	28.181684	0.000257	20.873857
2521.682031	-3.002400	2.996500	-8.994900	28.111147	0.000258	20.852634
2522.688906	-3.002500	2.996400	-8.995900	28.097616	0.000257	20.845652
2523.684980	-2.992500	2.994000	-8.958000	28.138834	0.000259	20.854902
2524.684117	-3.028900	2.991600	-9.058500	28.130099	0.000258	20.832359
2525.688003	-3.012600	2.990900	-9.008800	28.111310	0.000258	20.841894
2526.687126	-3.004800	2.992200	-8.989600	28.135229	0.000259	20.849851
2527.684696	-3.002800	2.988200	-8.971600	28.152134	0.000257	20.849325
2528.688764	-2.984800	2.988500	-8.919200	28.184641	0.000258	20.865929
2529.686750	-2.987900	2.986800	-8.922300	28.183218	0.000257	20.833679
2530.687378	-3.006600	2.985600	-8.976000	28.182302	0.000256	20.852196
2531.688271	-3.009100	2.982900	-8.975100	28.112938	0.000258	20.853489
2532.690985	-2.988200	2.982900	-8.913000	28.095075	0.000257	20.851628
2533.691852	-3.044000	2.978700	-9.065300	28.114540	0.000258	20.849886
2534.688752	-3.009700	2.979700	-8.966600	28.096453	0.000255	20.842110
2535.692029	-2.996900	2.979100	-8.927200	28.031845	0.000257	20.838239
2536.689243	-3.004600	2.976400	-8.941900	28.046928	0.000257	20.836352
2537.690856	-2.994600	2.975400	-8.909900	27.999583	0.000255	20.836585
2538.692765	-2.986700	2.974200	-8.882700	27.975738	0.000258	20.852886
2539.692885	-3.007200	2.972700	-8.939000	27.995112	0.000257	20.843939
2540.690456	-2.995000	2.971600	-8.898600	27.978298	0.000256	20.837446
2541.690757	-2.985700	2.969400	-8.864600	27.972133	0.000257	20.842145
2542.695206	-2.988100	2.968600	-8.869200	27.994837	0.000256	20.831334
2543.691118	-2.986600	2.967300	-8.861600	28.028496	0.000256	20.825860
2544.692050	-2.999800	2.966200	-8.896900	28.055970	0.000255	20.841187
2545.693712	-2.993700	2.964700	-8.873600	28.102928	0.000256	20.820654
2546.693798	-2.997200	2.963600	-8.881100	28.138305	0.000256	20.837301
2547.692448	-2.982400	2.960600	-8.828500	28.178399	0.000256	20.833569
2548.696213	-3.003400	2.958200	-8.883400	28.131429	0.000256	20.848870
2549.693890	-2.983500	2.959700	-8.828700	28.099811	0.000256	20.821783
2550.692623	-3.010600	2.957100	-8.900900	28.093303	0.000257	20.826137
2551.693453	-3.012000	2.954900	-8.899500	28.038475	0.000254	20.810300
2552.695002	-3.002200	2.955800	-8.872800	28.059175	0.000258	20.824025
2553.692565	-3.014600	2.951500	-8.896800	28.106430	0.000256	20.830818
2554.694013	-3.025100	2.950800	-8.924900	28.124389	0.000255	20.816655
2555.703993	-3.000800	2.948300	-8.845700	28.151682	0.000256	20.828008
2556.694581	-2.993600	2.948000	-8.824400	28.207917	0.000258	20.809707
2557.696049	-2.997900	2.944000	-8.825200	28.181036	0.000255	20.829111
2558.702439	-2.967300	2.946800	-8.743200	28.170521	0.000257	20.799559
2559.697524	-2.992100	2.943300	-8.805100	28.165161	0.000254	20.832095
2560.697853	-2.995500	2.940800	-8.807300	28.176429	0.000257	20.816887
2561.701168	-2.984700	2.941100	-8.777300	28.228895	0.000255	20.838888
2562.698235	-2.993100	2.939800	-8.797800	28.257495	0.000255	20.831646
2563.701033	-2.988200	2.938600	-8.780500	28.292857	0.000256	20.809878
2564.698184	-2.993700	2.935300	-8.786300	28.307071	0.000255	20.836991
2565.700023	-3.004200	2.932800	-8.809700	28.284544	0.000256	20.818103
2566.705904	-2.996700	2.933600	-8.790300	28.206776	0.000256	20.841749
2567.701628	-3.007800	2.930500	-8.812900	28.125306	0.000257	20.821844
2568.702552	-2.976600	2.930900	-8.722900	28.055243	0.000255	20.819119
2569.703570	-2.994000	2.928100	-8.765500	28.031794	0.000255	20.809739
2570.705371	-3.025900	2.925200	-8.849900	27.999041	0.000256	20.833195
2571.705710	-2.999500	2.924600	-8.770600	27.970428	0.000255	20.811033
2572.704336	-3.029000	2.922000	-8.849600	27.942240	0.000254	20.819645
2573.705032	-3.012400	2.921700	-8.801200	27.960843	0.000257	20.829834
2574.705642	-2.968800	2.920400	-8.669600	28.039183	0.000256	20.811488
2575.706160	-2.997500	2.917100	-8.742400	28.102637	0.000253	20.808507
2576.706237	-2.996800	2.916300	-8.739600	28.151945	0.000253	20.822109
2577.706582	-3.014200	2.914900	-8.785500	28.198469	0.000254	20.829592
2578.706717	-2.983300	2.913000	-8.689200	28.232849	0.000256	20.803988
2579.707306	-2.972400	2.912100	-8.655400	28.265293	0.000254	20.830963
2580.708220	-3.025700	2.909500	-8.801400	28.315596	0.000255	20.828505
2581.707048	-2.991000	2.909000	-8.698700	28.347121	0.000254	20.821841
2582.708322	-2.988900	2.906100	-8.684700	28.372335	0.000254	20.813565
2583.706832	-3.002400	2.904600	-8.719700	28.379501	0.000255	20.809875
2584.707231	-3.002900	2.901900	-8.713100	28.349364	0.000255	20.820306
2585.707554	-2.975700	2.902600	-8.635800	28.321888	0.000255	20.818719
2586.708382	-2.995900	2.898800	-8.683900	28.292031	0.000254	20.829908
2587.713098	-3.035600	2.897500	-8.794600	28.290173	0.000255	20.821400
2588.710084	-2.984100	2.897400	-8.644700	28.265633	0.000257	20.833202
2589.711482	-3.031400	2.893000	-8.768600	28.267312	0.000255	20.818771
2590.713739	-3.025400	2.893500	-8.753300	28.281148	0.000255	20.813736
2591.710338	-3.003200	2.891300	-8.682600	28.275651	0.000254	20.830486
2592.709776	-2.999100	2.889600	-8.665000	28.228736	0.000253	20.835882
2593.710653	-3.001200	2.888600	-8.668200	28.199142	0.000254	20.825528
2594.709076	-2.963900	2.888700	-8.559300	28.221636	0.000255	20.814984
2595.711989	-2.983100	2.884100	-8.602800	28.246760	0.000253	20.823209
2596.710314	-3.002300	2.882600	-8.653300	28.302065	0.000255	20.831002
2597.710628	-2.996400	2.880000	-8.628000	28.367358	0.000255	20.819458
2598.711711	-3.053700	2.876500	-8.782200	28.410858	0.000253	20.818216
2599.711883	-2.964400	2.877800	-8.530000	28.445523	0.000255	20.826570
2600.711800	-3.002500	2.875500	-8.633100	28.413556	0.000256	20.824251
2601.712161	-3.008400	2.872500	-8.641000	28.416432	0.000257	20.824777
2602.710933	-3.001000	2.870700	-8.614300	28.387990	0.000254	20.827906
2603.712314	-2.981800	2.869200	-8.554500	28.368393	0.000254	20.824293
2604.713920	-2.989100	2.866300	-8.567000	28.324941	0.000256	20.803302
2605.713989	-3.003700	2.864500	-8.602700	28.290580	0.000254	20.816594
2606.711749	-3.016400	2.863400	-8.635100	28.294921	0.000254	20.829025
2607.712388	-2.996800	2.862100	-8.576500	28.329119	0.000256	20.817939
2608.716436	-2.984900	2.859300	-8.533700	28.361765	0.000256	20.803870
2609.714199	-3.011300	2.855700	-8.597100	28.382218	0.000256	20.826361
2610.713084	-2.994600	2.854500	-8.546800	28.375482	0.000254	20.812940
2611.714662	-3.009500	2.852800	-8.584600	28.387219	0.000254	20.811482
2612.717390	-2.985300	2.851000	-8.510000	28.404632	0.000254	20.819533
2613.712511	-2.988200	2.849900	-8.515300	28.396508	0.000254	20.829844
2614.714990	-3.002400	2.848800	-8.551900	28.352398	0.000256	20.831896
2615.714382	-3.003700	2.845300	-8.545200	28.328398	0.000252	20.820533
2616.714229	-3.018100	2.842100	-8.576400	28.308184	0.000254	20.815352
2617.715699	-3.009200	2.838700	-8.541300	28.268094	0.000253	20.835679
2618.714166	-2.978900	2.840100	-8.459800	28.297266	0.000254	20.813369
2619.714048	-2.988700	2.838600	-8.482600	28.314168	0.000254	20.825645
2620.715145	-2.997300	2.833600	-8.492500	28.365942	0.000255	20.835102
2621.715533	-2.975900	2.832800	-8.428800	28.388263	0.000256	20.827232
2622.718014	-2.983200	2.831200	-8.444600	28.408553	0.000253	20.808782
2623.716171	-2.944400	2.830700	-8.334000	28.478608	0.000255	20.833335
2624.717830	-2.990400	2.826900	-8.452100	28.471075	0.000255	20.805360
2625.717479	-3.023200	2.823400	-8.534900	28.463480	0.000255	20.830903
2626.716015	-3.028900	2.820300	-8.541400	28.483000	0.000255	20.830645
2627.719232	-3.008600	2.819300	-8.480900	28.437164	0.000255	20.835696
2628.719458	-3.002800	2.816600	-8.456400	28.384246	0.000256	20.849739
2629.719964	-2.995600	2.813300	-8.426600	28.345444	0.000255	20.823945
2630.721956	-2.997700	2.812500	-8.430000	28.342250	0.000255	20.824997
2631.719598	-3.020500	2.808000	-8.480400	28.318910	0.000253	20.841798
2632.719769	-2.985900	2.807300	-8.381900	28.276167	0.000253	20.824368
2633.720832	-3.027600	2.805700	-8.493200	28.225879	0.000256	20.826842
2634.721712	-3.008800	2.803000	-8.432000	28.232463	0.000255	20.843901
2635.723429	-2.971400	2.801900	-8.324500	28.261344	0.000255	20.829358
2636.720168	-3.033000	2.795900	-8.478700	28.294130	0.000255	20.848617
2637.722735	-2.971300	2.798500	-8.314100	28.353568	0.000253	20.836393
2638.721761	-2.993100	2.793300	-8.359300	28.399689	0.000254	20.844427
2639.721230	-3.003100	2.789300	-8.375300	28.436674	0.000253	20.840892
2640.720865	-3.011900	2.786000	-8.388400	28.450748	0.000253	20.849849
2641.721012	-3.015800	2.784500	-8.396200	28.454096	0.000254	20.855116
2642.721388	-2.982800	2.782600	-8.298600	28.449781	0.000254	20.860728
2643.722153	-3.018000	2.779700	-8.387900	28.451793	0.000255	20.846633
2644.720868	-3.007800	2.777500	-8.353100	28.510485	0.000254	20.855003
2645.722455	-3.002900	2.773400	-8.327700	28.562813	0.000254	20.850804
2646.721470	-3.007300	2.771500	-8.333500	28.609816	0.000253	20.845037
2647.725151	-2.984300	2.768200	-8.260100	28.662808	0.000256	20.847675
2648.722351	-3.023100	2.766100	-8.361100	28.631206	0.000255	20.848088
2649.725175	-3.025400	2.762300	-8.355700	28.631507	0.000253	20.847443
2650.725537	-2.997200	2.761200	-8.275300	28.640698	0.000253	20.837735
2651.722879	-3.047900	2.755600	-8.397000	28.649352	0.000253	20.859726
2652.722339	-3.018800	2.752700	-8.309700	28.661652	0.000252	20.831339
2653.722706	-3.006500	2.751200	-8.269900	28.635622	0.000254	20.861071
2654.724803	-3.016300	2.747800	-8.287600	28.659298	0.000255	20.855045
2655.723289	-3.034800	2.744100	-8.326500	28.655472	0.000254	20.857355
2656.722910	-2.996700	2.743600	-8.220600	28.615747	0.000254	20.862864
2657.725638	-2.947000	2.740200	-8.074500	28.585274	0.000252	20.838338
2658.723392	-3.014700	2.735300	-8.244900	28.574112	0.000254	20.863131
2659.722524	-2.987900	2.733200	-8.165900	28.591574	0.000253	20.862699
2660.726043	-3.016100	2.729300	-8.230700	28.605304	0.000254	20.850449
2661.723241	-3.003800	2.726100	-8.187600	28.682228	0.000254	20.868657
2662.724778	-3.007700	2.722700	-8.188300	28.749073	0.000253	20.849691
2663.724810	-3.006900	2.719800	-8.177300	28.800381	0.000254	20.870553
2664.723561	-2.993100	2.716500	-8.129400	28.837300	0.000251	20.857958
2665.723888	-3.021200	2.713300	-8.196400	28.861689	0.000254	20.869250
2666.725387	-2.988200	2.710900	-8.099400	28.868861	0.000253	20.857984
2667.728664	-2.978500	2.706200	-8.058800	28.845737	0.000253	20.890163
2668.727048	-3.023300	2.702200	-8.169000	28.841904	0.000255	20.856907
2669.725884	-3.008700	2.699600	-8.121200	28.820996	0.000255	20.851491
2670.727624	-3.021100	2.694100	-8.138400	28.813653	0.000254	20.857845
2671.728051	-2.991300	2.691300	-8.049200	28.813243	0.000254	20.871182
2672.726239	-3.006700	2.687300	-8.079300	28.804239	0.000256	20.871121
2673.731169	-3.010100	2.683400	-8.076600	28.773986	0.000253	20.888060
2674.729087	-3.030300	2.680200	-8.120900	28.737158	0.000252	20.860448
2675.726590	-2.964800	2.678500	-7.939200	28.716788	0.000252	20.863164
2676.731946	-3.000200	2.671900	-8.016100	28.662120	0.000253	20.871637
2677.728625	-2.985900	2.668000	-7.965400	28.633054	0.000255	20.882190
2678.727091	-2.990200	2.664600	-7.966200	28.656849	0.000256	20.862535
2679.727371	-2.986500	2.659400	-7.941200	28.677819	0.000253	20.885551
2680.728429	-3.010200	2.656600	-7.996700	28.696940	0.000254	20.875888
2681.726517	-3.022300	2.651200	-8.011600	28.761507	0.000255	20.858423
2682.731104	-2.980700	2.648500	-7.893500	28.814287	0.000253	20.860380
2683.727621	-3.025600	2.643300	-7.996600	28.833157	0.000256	20.869431
2684.727888	-3.022300	2.639000	-7.975600	28.887473	0.000252	20.880526
2685.727485	-2.995900	2.636300	-7.898100	28.921856	0.000255	20.890508
2686.730433	-3.042800	2.629900	-8.000200	28.964214	0.000254	20.873440
2687.729017	-3.030100	2.625300	-7.953300	28.971693	0.000254	20.898991
2688.727604	-2.997700	2.622400	-7.860700	28.985734	0.000253	20.892276
2689.729757	-3.025900	2.615300	-7.912000	28.980266	0.000255	20.889137
2690.727936	-3.028600	2.609500	-7.902600	29.028320	0.000257	20.883974
2691.729780	-3.015100	2.605900	-7.856400	29.062913	0.000254	20.896068
2692.728754	-2.987000	2.602300	-7.771300	29.102595	0.000254	20.890060
2693.730378	-3.012100	2.596100	-7.818800	29.165828	0.000255	20.889292
2694.727554	-2.993800	2.590600	-7.755400	29.168370	0.000255	20.892801
2695.729774	-3.029500	2.584400	-7.828600	29.140419	0.000255	20.901145
2696.731256	-3.006800	2.579500	-7.755600	29.084243	0.000254	20.878207
2697.731297	-3.014700	2.573200	-7.756700	29.088350	0.000253	20.880448
2698.731764	-2.978000	2.570000	-7.652100	29.080008	0.000255	20.877733
2699.735059	-2.975100	2.565600	-7.631900	29.094698	0.000254	20.879258
2700.734982	-3.016700	2.557400	-7.713900	29.089582	0.000254	20.899232
2701.735346	-3.000000	2.553700	-7.660200	29.088597	0.000256	20.893024
2702.735756	-2.980200	2.548900	-7.595600	29.053809	0.000256	20.895904
2703.733947	-3.027800	2.539500	-7.688700	29.035814	0.000255	20.889628
2704.735184	-3.013400	2.535000	-7.638200	29.072939	0.000255	20.891473
2705.739304	-3.015200	2.529100	-7.625600	29.102851	0.000256	20.891266
2706.737349	-3.023300	2.521900	-7.623400	29.047656	0.000254	20.892076
2707.734753	-3.000400	2.517300	-7.552200	28.998233	0.000257	20.897756
2708.738998	-3.004500	2.509900	-7.539800	29.019385	0.000254	20.900100
2709.737854	-2.998000	2.505500	-7.510100	29.027401	0.000256	20.922400
2710.735851	-2.971700	2.499100	-7.425300	29.017570	0.000257	20.903013
