LabVIEW Measurement	
Writer_Version	2
Reader_Version	2
Separator	Tab
Decimal_Separator	.
Multi_Headings	No
X_Columns	One
Time_Pref	Absolute
Operator	admin
Description	Clolumns are: time, Current, Voltage, Power, Battery Temp, and Chamber Temp
Date	2024/08/16
Time	13:06:06.104549407958984375
***End_of_Header***	
	
Channels	6						
Samples	1	1	1	1	1	1	
Date	2024/09/15	2024/09/15	2024/09/15	2024/09/15	2024/09/15	2024/09/15	
Time	18:40:41.9939446449279785157	18:40:42.0027832984924316406	18:40:42.01277923583984375	18:40:41.9726343154907226563	18:40:41.9726343154907226563	18:40:41.9726343154907226563	
X_Dimension	Time	Time	Time	Time	Time	Time	
X0	0.0000000000000000E+0	0.0000000000000000E+0	0.0000000000000000E+0	0.0000000000000000E+0	0.0000000000000000E+0	0.0000000000000000E+0	
Delta_X	1.000000	1.000000	1.000000	1.000000	1.000000	1.000000	
***End_of_Header***							
X_Value	Untitled	Untitled 1	Untitled 2	Untitled 3	Untitled 4	Untitled 5	Comment
0.000000	0.070215	4.091600	0.289030	21.036427	0.000943	20.851531
1.001137	-2.992900	3.911600	-11.705000	21.040218	0.000944	20.826874
1.997854	-2.996000	3.903900	-11.695000	21.033032	0.000944	20.830118
2.998017	-3.005000	3.899800	-11.718000	21.042935	0.000942	20.829592
3.997838	-2.984000	3.896000	-11.624000	21.055708	0.000939	20.857539
4.999354	-3.018800	3.892400	-11.748000	21.042759	0.000940	20.843166
5.998458	-3.005600	3.888800	-11.687000	21.051290	0.000940	20.843638
7.003676	-2.995300	3.886900	-11.642000	21.041558	0.000938	20.847180
7.996564	-3.001800	3.884400	-11.660000	21.044477	0.000936	20.856737
9.000095	-2.995500	3.884200	-11.633000	21.041184	0.000937	20.842538
9.999286	-2.998700	3.881900	-11.640000	21.066207	0.000939	20.846704
11.000156	-2.985200	3.880300	-11.582000	21.058796	0.000939	20.847352
12.008739	-3.004100	3.877700	-11.648000	21.074836	0.000937	20.845852
13.001625	-2.997200	3.874900	-11.613000	21.065331	0.000938	20.843457
14.005915	-2.997500	3.874800	-11.613000	21.084392	0.000935	20.831703
15.001231	-3.014700	3.873800	-11.677000	21.079848	0.000934	20.836641
16.002037	-3.008000	3.871600	-11.645000	21.073708	0.000934	20.809163
16.999106	-3.016400	3.869400	-11.670000	21.076426	0.000934	20.826580
18.003239	-2.992700	3.869600	-11.580000	21.074478	0.000935	20.839804
18.999174	-2.981000	3.871400	-11.539000	21.082283	0.000933	20.825327
20.008395	-3.004000	3.867500	-11.617000	21.096179	0.000934	20.842071
21.009390	-3.020600	3.866800	-11.679000	21.075893	0.000933	20.826521
22.002917	-2.975500	3.869100	-11.511000	21.106904	0.000932	20.820556
23.004071	-3.021400	3.864900	-11.677000	21.123766	0.000931	20.858284
24.002416	-2.972500	3.864500	-11.485000	21.123987	0.000933	20.832902
25.010852	-2.984400	3.865200	-11.534000	21.124508	0.000929	20.832949
26.013462	-2.986600	3.864500	-11.540000	21.112981	0.000928	20.840859
27.007413	-3.003600	3.862000	-11.598000	21.128172	0.000928	20.812433
28.001478	-3.000700	3.860000	-11.581000	21.149649	0.000929	20.823485
29.005181	-2.982400	3.861300	-11.515000	21.137521	0.000931	20.816095
30.008355	-2.991600	3.862000	-11.551000	21.160249	0.000926	20.833614
31.002055	-2.995600	3.859200	-11.560000	21.153536	0.000927	20.826425
32.005663	-2.988400	3.860900	-11.537000	21.148670	0.000927	20.831988
33.014817	-3.008900	3.859900	-11.613000	21.172244	0.000927	20.841819
34.009183	-3.009500	3.858400	-11.610000	21.193224	0.000926	20.815865
35.007775	-2.998500	3.858400	-11.568000	21.195817	0.000929	20.829365
36.017164	-3.002000	3.857200	-11.578000	21.208737	0.000927	20.836599
37.013988	-3.002100	3.856800	-11.578000	21.211283	0.000925	20.826818
38.011130	-3.004500	3.855700	-11.583000	21.204248	0.000927	20.828315
39.022142	-2.985900	3.855500	-11.511000	21.231587	0.000927	20.802560
40.009788	-3.002500	3.855500	-11.575000	21.242836	0.000925	20.822822
41.012415	-3.012400	3.854200	-11.610000	21.241218	0.000926	20.816461
42.016555	-2.994300	3.853900	-11.539000	21.229242	0.000925	20.824869
43.021612	-2.996500	3.853100	-11.544000	21.227522	0.000926	20.811769
44.015925	-3.009000	3.853500	-11.595000	21.235427	0.000929	20.800711
45.018043	-3.016800	3.851400	-11.617000	21.236749	0.000926	20.816258
46.012773	-3.025200	3.851400	-11.650000	21.276260	0.000928	20.814059
47.014197	-3.001800	3.852000	-11.562000	21.268153	0.000928	20.814958
48.033426	-2.987200	3.852600	-11.508000	21.308216	0.000928	20.812363
49.016185	-2.998800	3.850900	-11.547000	21.284613	0.000927	20.811510
50.019131	-3.000700	3.850800	-11.554000	21.290874	0.000928	20.815403
51.019767	-2.986300	3.850700	-11.498000	21.296685	0.000927	20.808889
52.014635	-2.992600	3.850700	-11.521000	21.298378	0.000930	20.815798
53.016645	-3.002900	3.850100	-11.561000	21.298579	0.000927	20.842551
54.016011	-3.021400	3.848500	-11.627000	21.296480	0.000927	20.812003
55.013479	-3.004800	3.849300	-11.566000	21.313515	0.000928	20.823829
56.019065	-3.003200	3.849200	-11.559000	21.326935	0.000928	20.824927
57.025738	-2.991200	3.848500	-11.511000	21.321593	0.000929	20.803936
58.013781	-2.996700	3.847400	-11.528000	21.345737	0.000927	20.802486
59.018998	-2.990200	3.848500	-11.506000	21.359253	0.000927	20.815535
60.020196	-2.993000	3.847500	-11.515000	21.347529	0.000927	20.803805
61.020514	-2.997600	3.847100	-11.531000	21.365859	0.000926	20.795591
62.018198	-2.995600	3.846700	-11.521000	21.355432	0.000927	20.793221
63.019558	-3.010900	3.845300	-11.576000	21.348270	0.000928	20.795063
64.032641	-2.998200	3.845800	-11.529000	21.364458	0.000926	20.814104
65.019423	-3.012200	3.844800	-11.580000	21.404163	0.000925	20.795509
66.031473	-2.983700	3.846100	-11.474000	21.396454	0.000924	20.818141
67.016659	-2.997300	3.845400	-11.524000	21.413662	0.000925	20.795529
68.025023	-3.015000	3.843200	-11.587000	21.413161	0.000924	20.795028
69.018550	-2.995500	3.845500	-11.519000	21.423262	0.000926	20.789962
70.027188	-2.996800	3.844100	-11.519000	21.410164	0.000926	20.814315
71.023926	-2.996900	3.842700	-11.515000	21.420064	0.000925	20.806677
72.022800	-2.995300	3.843800	-11.512000	21.427072	0.000924	20.809895
73.025803	-3.000400	3.842900	-11.529000	21.438867	0.000927	20.804153
74.024975	-2.996800	3.842000	-11.512000	21.460116	0.000927	20.815930
75.026111	-2.990000	3.842500	-11.488000	21.453179	0.000927	20.817525
76.020862	-3.009500	3.841700	-11.561000	21.444674	0.000927	20.815179
77.029081	-2.983700	3.844000	-11.469000	21.470388	0.000928	20.837113
78.027077	-3.003600	3.841300	-11.536000	21.480062	0.000929	20.819293
79.027617	-2.985800	3.843300	-11.474000	21.473924	0.000927	20.800350
80.023882	-3.004000	3.840300	-11.535000	21.518667	0.000928	20.797704
81.023660	-3.006300	3.840500	-11.544000	21.517742	0.000928	20.818589
82.025746	-3.018900	3.839100	-11.588000	21.531231	0.000930	20.800319
83.031587	-2.998100	3.840000	-11.512000	21.549409	0.000931	20.805707
84.021440	-3.002000	3.840600	-11.529000	21.543922	0.000930	20.796422
85.025139	-2.990000	3.840200	-11.481000	21.540377	0.000929	20.798091
86.025990	-2.997700	3.839300	-11.508000	21.557682	0.000931	20.801657
87.022430	-2.987900	3.838800	-11.468000	21.565462	0.000931	20.805649
88.026975	-3.016300	3.838700	-11.576000	21.574188	0.000931	20.803949
89.037155	-2.994400	3.837900	-11.491000	21.573063	0.000930	20.790969
90.024386	-3.003100	3.838100	-11.525000	21.578248	0.000931	20.796158
91.024725	-3.008400	3.837900	-11.545000	21.583557	0.000932	20.808583
92.028606	-2.994500	3.837300	-11.490000	21.602434	0.000931	20.807559
93.026479	-2.990500	3.838700	-11.477000	21.590783	0.000932	20.809650
94.029113	-3.016900	3.834700	-11.568000	21.589585	0.000932	20.810822
95.026086	-3.017600	3.835800	-11.574000	21.580554	0.000935	20.799414
96.024549	-3.010400	3.835200	-11.544000	21.608084	0.000932	20.805625
97.030823	-3.011400	3.835100	-11.548000	21.637208	0.000932	20.805847
98.030975	-2.995300	3.835800	-11.488000	21.647655	0.000933	20.800180
99.024188	-3.008600	3.835500	-11.539000	21.645207	0.000934	20.792041
100.031260	-3.003800	3.835600	-11.521000	21.650717	0.000932	20.792340
101.031578	-3.006400	3.835400	-11.530000	21.675676	0.000933	20.808782
102.028244	-3.016900	3.834000	-11.564000	21.665399	0.000929	20.777635
103.028055	-3.004500	3.834600	-11.520000	21.685171	0.000932	20.777981
104.032295	-3.017300	3.833700	-11.567000	21.698633	0.000931	20.785765
105.027614	-3.014700	3.832900	-11.554000	21.716511	0.000929	20.805079
106.040007	-2.988500	3.834400	-11.458000	21.728378	0.000931	20.801783
107.025099	-3.007800	3.832700	-11.527000	21.704537	0.000930	20.790724
108.026089	-2.999800	3.833300	-11.499000	21.740219	0.000933	20.807469
109.026276	-2.977000	3.834500	-11.413000	21.733185	0.000930	20.789998
110.032452	-3.013200	3.832900	-11.548000	21.742935	0.000932	20.799282
111.035870	-3.002700	3.832800	-11.507000	21.740788	0.000932	20.801875
112.030159	-2.999900	3.833800	-11.500000	21.752333	0.000932	20.803946
113.030389	-2.991700	3.832400	-11.464000	21.766318	0.000932	20.801822
114.028268	-2.988900	3.831500	-11.451000	21.798808	0.000933	20.802097
115.030251	-3.017900	3.830600	-11.559000	21.774020	0.000934	20.792935
116.036518	-2.993100	3.831500	-11.467000	21.777537	0.000935	20.796929
117.028822	-3.000200	3.831500	-11.495000	21.806109	0.000935	20.801344
118.033168	-3.013400	3.830800	-11.542000	21.798902	0.000935	20.793656
119.045241	-2.974600	3.832100	-11.398000	21.799699	0.000935	20.783548
120.032259	-2.998500	3.831200	-11.487000	21.783066	0.000936	20.791083
121.037811	-3.001800	3.829600	-11.493000	21.806877	0.000935	20.794052
122.030823	-2.992800	3.830400	-11.461000	21.810069	0.000938	20.805781
123.029502	-2.986600	3.829500	-11.436000	21.805628	0.000938	20.790905
124.039094	-2.990900	3.830000	-11.453000	21.815500	0.000938	20.783716
125.030478	-2.999800	3.830300	-11.489000	21.841504	0.000940	20.778449
126.037461	-3.005100	3.828900	-11.504000	21.851078	0.000940	20.782816
127.035545	-3.005200	3.828100	-11.503000	21.849330	0.000940	20.775851
128.031879	-2.998400	3.828900	-11.479000	21.866357	0.000940	20.791946
129.031800	-3.005400	3.828300	-11.505000	21.876502	0.000941	20.773176
130.035349	-3.017800	3.828000	-11.551000	21.892356	0.000941	20.786201
131.032187	-2.983400	3.828800	-11.422000	21.885151	0.000943	20.778041
132.035475	-2.977600	3.828200	-11.398000	21.886644	0.000941	20.766258
133.036567	-3.006600	3.827900	-11.508000	21.918853	0.000942	20.780955
134.029315	-2.981700	3.827400	-11.410000	21.899455	0.000944	20.774340
135.037826	-3.000500	3.826500	-11.480000	21.921990	0.000944	20.790733
136.036214	-2.995100	3.825600	-11.456000	21.909199	0.000943	20.762756
137.030232	-2.997300	3.825800	-11.467000	21.940636	0.000944	20.772887
138.030262	-2.989300	3.826900	-11.438000	21.945245	0.000944	20.784139
139.036638	-3.015200	3.825300	-11.533000	21.945740	0.000945	20.783687
140.034666	-3.002800	3.826300	-11.488000	21.952446	0.000945	20.786132
141.035793	-3.002900	3.826300	-11.488000	21.969146	0.000945	20.772502
142.036504	-2.981700	3.825100	-11.404000	21.958872	0.000946	20.773124
143.030534	-3.000600	3.824400	-11.474000	21.975174	0.000947	20.789443
144.039781	-2.978800	3.827600	-11.399000	21.964601	0.000947	20.764159
145.037673	-3.001000	3.823700	-11.474000	21.973674	0.000947	20.779880
146.039899	-3.002000	3.824200	-11.479000	21.958961	0.000946	20.776532
147.038671	-3.019900	3.824300	-11.549000	21.973867	0.000947	20.786238
148.035147	-2.998900	3.823400	-11.466000	21.976759	0.000948	20.791029
149.037714	-2.993600	3.824000	-11.446000	21.983086	0.000951	20.767964
150.041624	-2.987200	3.824700	-11.424000	22.020254	0.000948	20.781939
151.037633	-2.989600	3.823200	-11.429000	22.036206	0.000951	20.778467
152.041973	-2.997700	3.823700	-11.461000	22.052606	0.000951	20.777816
153.041420	-2.981900	3.823000	-11.399000	22.042807	0.000952	20.785076
154.035319	-2.984700	3.823100	-11.409000	22.061402	0.000952	20.777138
155.042142	-2.997900	3.822500	-11.458000	22.065612	0.000952	20.779456
156.038680	-3.014900	3.821200	-11.519000	22.089091	0.000952	20.795849
157.036903	-3.003700	3.821700	-11.478000	22.087294	0.000954	20.776032
158.042278	-3.024300	3.821700	-11.554000	22.086768	0.000953	20.787833
159.035541	-3.004500	3.820700	-11.478000	22.087215	0.000954	20.777375
160.039525	-3.014400	3.821200	-11.518000	22.101521	0.000954	20.776051
161.043502	-3.010300	3.820100	-11.498000	22.095686	0.000954	20.787752
162.037246	-3.013900	3.819400	-11.510000	22.109118	0.000955	20.773699
163.039564	-2.980800	3.819900	-11.385000	22.136137	0.000958	20.772774
164.041123	-2.995100	3.820200	-11.440000	22.125191	0.000956	20.790739
165.040259	-2.997500	3.819000	-11.447000	22.155748	0.000957	20.794779
166.037828	-2.989300	3.820100	-11.418000	22.146573	0.000958	20.769946
167.046905	-3.005500	3.818900	-11.476000	22.150759	0.000957	20.772715
168.042799	-2.992900	3.819400	-11.430000	22.153273	0.000958	20.787086
169.042264	-2.986700	3.819200	-11.406000	22.165087	0.000959	20.778999
170.053946	-3.012900	3.817500	-11.500000	22.159126	0.000962	20.782988
171.049956	-2.995800	3.818200	-11.437000	22.157406	0.000961	20.769885
172.044234	-2.988400	3.819000	-11.411000	22.159996	0.000958	20.774850
173.047261	-3.008700	3.817600	-11.485000	22.181754	0.000958	20.791419
174.048115	-3.014000	3.818000	-11.507000	22.193268	0.000959	20.779713
175.043957	-3.035100	3.816500	-11.583000	22.207348	0.000962	20.785275
176.046040	-2.981200	3.818100	-11.380000	22.192715	0.000962	20.789117
177.044203	-2.997400	3.816200	-11.437000	22.236953	0.000961	20.781252
178.044463	-2.983500	3.817600	-11.388000	22.235506	0.000962	20.791183
179.047602	-3.005200	3.815500	-11.466000	22.236303	0.000962	20.768273
180.045302	-2.987700	3.816700	-11.402000	22.227527	0.000962	20.785565
181.042808	-2.995300	3.816700	-11.431000	22.260898	0.000963	20.784365
182.052785	-3.004700	3.814800	-11.460000	22.256485	0.000964	20.779946
183.047322	-3.007200	3.814300	-11.469000	22.241480	0.000966	20.783414
184.048405	-2.985700	3.816900	-11.394000	22.249031	0.000961	20.783388
185.046898	-3.001500	3.815200	-11.449000	22.261466	0.000962	20.787778
186.046609	-3.007400	3.813800	-11.468000	22.263483	0.000963	20.798807
187.047505	-3.004000	3.813900	-11.455000	22.235168	0.000963	20.790844
188.047167	-2.996300	3.814900	-11.429000	22.230531	0.000963	20.782883
189.050550	-2.989700	3.814200	-11.402000	22.237009	0.000965	20.795059
190.046185	-2.974700	3.813500	-11.343000	22.241570	0.000964	20.783978
191.054435	-3.013100	3.813200	-11.488000	22.234041	0.000962	20.773595
192.051771	-2.979400	3.813000	-11.360000	22.280224	0.000965	20.781904
193.046421	-3.025500	3.811900	-11.531000	22.298318	0.000964	20.784375
194.053966	-2.993300	3.813100	-11.413000	22.304746	0.000966	20.795078
195.049355	-3.003000	3.811000	-11.442000	22.300783	0.000966	20.802965
196.048017	-3.006300	3.812000	-11.460000	22.307287	0.000965	20.793356
197.051420	-3.001500	3.811800	-11.439000	22.306017	0.000967	20.779282
198.049276	-3.003400	3.810900	-11.445000	22.323735	0.000968	20.781850
199.047625	-2.992800	3.812200	-11.408000	22.321642	0.000970	20.783074
200.051679	-2.997600	3.811200	-11.423000	22.348259	0.000972	20.802614
201.048186	-3.007200	3.812200	-11.463000	22.352371	0.000968	20.788240
202.050387	-3.020700	3.809600	-11.507000	22.344146	0.000971	20.806556
203.058016	-3.008700	3.810700	-11.464000	22.360194	0.000973	20.799393
204.051012	-3.018800	3.809800	-11.500000	22.354637	0.000970	20.794302
205.050954	-3.013300	3.809900	-11.479000	22.350274	0.000972	20.800365
206.052651	-2.992100	3.810300	-11.400000	22.377736	0.000973	20.792303
207.060874	-3.004000	3.809800	-11.444000	22.383095	0.000973	20.801462
208.052233	-2.995200	3.809200	-11.408000	22.390695	0.000974	20.796744
209.053949	-2.986800	3.809400	-11.377000	22.413397	0.000974	20.785814
210.049443	-3.007300	3.807800	-11.450000	22.436522	0.000975	20.800437
211.050602	-2.997600	3.809000	-11.417000	22.412100	0.000974	20.802058
212.049668	-3.002700	3.807900	-11.433000	22.437244	0.000977	20.773659
213.048934	-3.007300	3.809400	-11.455000	22.441353	0.000977	20.791999
214.058705	-2.983700	3.809300	-11.365000	22.469262	0.000979	20.779644
215.052830	-3.013300	3.807200	-11.470000	22.457674	0.000978	20.778945
216.051628	-3.034600	3.807700	-11.554000	22.468239	0.000979	20.807544
217.053835	-2.982900	3.806900	-11.355000	22.488820	0.000979	20.783584
218.052986	-2.996800	3.806200	-11.404000	22.484061	0.000980	20.784508
219.050686	-3.008700	3.805900	-11.449000	22.497565	0.000980	20.787600
220.055790	-2.998200	3.808000	-11.416000	22.496792	0.000979	20.803896
221.051106	-2.984300	3.808800	-11.365000	22.502323	0.000980	20.792840
222.051518	-3.014200	3.804400	-11.465000	22.491806	0.000979	20.806489
223.050049	-2.971500	3.806200	-11.307000	22.504563	0.000982	20.798402
224.051718	-3.000000	3.804500	-11.412000	22.519962	0.000982	20.792962
225.052144	-2.982200	3.804700	-11.345000	22.532743	0.000982	20.813349
226.057139	-2.987800	3.805100	-11.368000	22.519785	0.000981	20.823604
227.051236	-3.007800	3.803200	-11.439000	22.542211	0.000981	20.801494
228.051865	-3.003400	3.803400	-11.422000	22.535209	0.000985	20.795429
229.052815	-2.991300	3.805000	-11.381000	22.537849	0.000984	20.804712
230.054527	-3.014400	3.803000	-11.462000	22.544876	0.000983	20.808905
231.058613	-3.001000	3.804600	-11.417000	22.551804	0.000983	20.774117
232.057850	-2.991000	3.804100	-11.376000	22.543431	0.000985	20.819311
233.055629	-3.004900	3.802800	-11.426000	22.530251	0.000985	20.815594
234.053483	-2.996100	3.802200	-11.389000	22.551505	0.000984	20.791362
235.054590	-3.015000	3.800800	-11.458000	22.539144	0.000986	20.801741
236.060009	-3.004200	3.802700	-11.423000	22.541537	0.000985	20.809354
237.053509	-3.004100	3.802300	-11.421000	22.547991	0.000986	20.813447
238.054615	-2.978400	3.804100	-11.329000	22.577344	0.000988	20.799697
239.058965	-2.999400	3.801100	-11.400000	22.571961	0.000985	20.816116
240.054836	-3.010100	3.800800	-11.440000	22.590700	0.000987	20.819712
241.060144	-3.005600	3.800200	-11.421000	22.588558	0.000987	20.815670
242.058434	-2.993700	3.802000	-11.380000	22.610732	0.000989	20.828396
243.054943	-2.995300	3.801400	-11.385000	22.605052	0.000988	20.806586
244.058900	-2.982100	3.800700	-11.333000	22.612104	0.000990	20.812700
245.057800	-2.999600	3.799900	-11.396000	22.619853	0.000989	20.816195
246.061644	-3.008100	3.800800	-11.432000	22.627477	0.000989	20.803917
247.059106	-2.977700	3.799200	-11.312000	22.599497	0.000990	20.805289
248.059135	-2.994800	3.798800	-11.375000	22.621100	0.000988	20.797055
249.056046	-3.011500	3.798100	-11.437000	22.626184	0.000991	20.817794
250.059906	-3.000500	3.798300	-11.395000	22.628726	0.000993	20.818444
251.055513	-3.007800	3.798200	-11.423000	22.628303	0.000991	20.810907
252.056443	-2.989500	3.797900	-11.353000	22.633558	0.000990	20.807637
253.064043	-2.994300	3.798400	-11.372000	22.640511	0.000994	20.817446
254.060313	-2.975200	3.798100	-11.299000	22.657156	0.000994	20.804246
255.063567	-3.000200	3.797100	-11.391000	22.677835	0.000992	20.812157
256.062590	-2.995400	3.797700	-11.374000	22.699188	0.000994	20.811260
257.060779	-2.981000	3.797600	-11.318000	22.717250	0.000994	20.812757
258.064752	-2.997100	3.797000	-11.379000	22.697445	0.000995	20.806194
259.072762	-3.025500	3.795400	-11.482000	22.723878	0.000996	20.827931
260.059814	-2.976000	3.798500	-11.302000	22.698891	0.000995	20.820445
261.062672	-3.009800	3.795600	-11.423000	22.721091	0.000994	20.795267
262.064451	-3.019100	3.793900	-11.453000	22.734195	0.000995	20.809342
263.062402	-3.007600	3.793600	-11.408000	22.739976	0.000996	20.801382
264.064036	-2.999400	3.795600	-11.383000	22.743788	0.000997	20.795243
265.061984	-2.997300	3.793700	-11.370000	22.758114	0.000997	20.805800
266.064485	-2.994000	3.794300	-11.359000	22.753258	0.000998	20.816583
267.065706	-3.004000	3.793300	-11.394000	22.761405	0.000999	20.812890
268.069493	-2.989000	3.795700	-11.343000	22.770623	0.000998	20.803633
269.062175	-2.991600	3.794200	-11.349000	22.765094	0.000999	20.832706
270.064679	-2.986500	3.794600	-11.331000	22.774014	0.000998	20.819357
271.066238	-2.977200	3.795400	-11.298000	22.776630	0.000999	20.797796
272.063974	-2.999800	3.794300	-11.381000	22.792624	0.001000	20.801964
273.068673	-3.016100	3.792100	-11.437000	22.804134	0.001000	20.832934
274.074534	-3.021400	3.791500	-11.453000	22.844493	0.001002	20.822630
275.073943	-3.003400	3.793000	-11.391000	22.835576	0.001001	20.826025
276.068428	-3.006700	3.791700	-11.399000	22.857573	0.001002	20.807285
277.063294	-3.023400	3.792100	-11.464000	22.878947	0.001004	20.795033
278.066244	-2.990000	3.792200	-11.337000	22.904183	0.001003	20.793288
279.063192	-2.995200	3.792400	-11.358000	22.894344	0.001004	20.814252
280.070310	-2.994700	3.792000	-11.355000	22.894298	0.001003	20.814679
281.069977	-2.963600	3.791400	-11.235000	22.896563	0.001006	20.819794
282.064931	-3.000100	3.790400	-11.369000	22.882218	0.001007	20.823440
283.072176	-3.021400	3.790300	-11.451000	22.896318	0.001008	20.811013
284.066537	-3.011800	3.789800	-11.412000	22.906134	0.001006	20.789079
285.065835	-2.997600	3.789500	-11.358000	22.933807	0.001009	20.819648
286.063564	-3.019100	3.789100	-11.439000	22.930047	0.001011	20.827735
287.064372	-3.010500	3.788600	-11.403000	22.951868	0.001011	20.814510
288.071839	-2.997700	3.789100	-11.357000	22.963378	0.001012	20.824145
289.065257	-2.993600	3.789400	-11.344000	22.978172	0.001010	20.817630
290.068676	-2.992100	3.788500	-11.334000	23.012644	0.001012	20.821349
291.075663	-3.011300	3.788400	-11.406000	23.004400	0.001013	20.810244
292.070578	-2.998200	3.788500	-11.357000	23.010926	0.001013	20.813464
293.073865	-3.001300	3.787300	-11.366000	23.002807	0.001014	20.821924
294.072840	-3.005200	3.787200	-11.380000	22.992619	0.001012	20.820725
295.068800	-3.004600	3.787000	-11.378000	22.986890	0.001015	20.828736
296.070512	-3.009300	3.787600	-11.397000	22.987811	0.001014	20.820175
297.067303	-3.000100	3.786800	-11.360000	22.962579	0.001015	20.808172
298.067232	-2.995700	3.786600	-11.343000	22.979292	0.001017	20.815908
299.071909	-3.021700	3.783800	-11.431000	22.979615	0.001017	20.818128
300.071565	-3.018700	3.786300	-11.429000	22.991770	0.001016	20.816556
301.075453	-2.986800	3.785700	-11.306000	23.019392	0.001016	20.822894
302.071995	-3.007300	3.784900	-11.380000	23.002604	0.001018	20.827884
303.068977	-2.997800	3.784800	-11.345000	23.014958	0.001019	20.824615
304.071187	-2.982900	3.784800	-11.288000	23.036824	0.001017	20.822343
305.094016	-2.978400	3.784200	-11.270000	23.042852	0.001019	20.823641
306.071982	-3.021300	3.782800	-11.428000	23.076174	0.001019	20.824312
307.078282	-3.015800	3.782200	-11.405000	23.091864	0.001018	20.825335
308.080383	-2.996900	3.783700	-11.339000	23.108252	0.001018	20.842704
309.072677	-2.997200	3.782400	-11.335000	23.123816	0.001019	20.811360
310.075258	-2.999800	3.783100	-11.348000	23.124987	0.001020	20.839085
311.071691	-2.989400	3.783800	-11.311000	23.128573	0.001022	20.837463
312.072845	-3.014600	3.781800	-11.400000	23.116369	0.001021	20.834717
313.076798	-3.012300	3.781400	-11.389000	23.098387	0.001022	20.827130
314.073304	-2.992500	3.782200	-11.317000	23.103194	0.001022	20.822464
315.080033	-3.015100	3.779400	-11.394000	23.105734	0.001021	20.845871
316.076351	-3.016400	3.780400	-11.403000	23.111686	0.001023	20.831447
317.073153	-3.004200	3.781500	-11.360000	23.105210	0.001023	20.845346
318.074357	-2.988800	3.780700	-11.297000	23.104737	0.001023	20.825906
319.072912	-2.990300	3.781500	-11.307000	23.107452	0.001024	20.838109
320.073851	-2.981700	3.780700	-11.272000	23.123291	0.001023	20.839282
321.084237	-2.980600	3.780500	-11.266000	23.127650	0.001026	20.829900
322.077948	-2.994600	3.779300	-11.316000	23.146027	0.001025	20.846417
323.075939	-3.011600	3.778800	-11.379000	23.157434	0.001024	20.835563
324.082082	-2.992400	3.779800	-11.309000	23.180768	0.001024	20.851359
325.078583	-3.006900	3.778800	-11.361000	23.204227	0.001026	20.848789
326.075581	-2.999700	3.778900	-11.335000	23.212345	0.001025	20.844123
327.082612	-2.993300	3.778900	-11.309000	23.211473	0.001026	20.855102
328.078106	-3.006700	3.777600	-11.357000	23.206294	0.001025	20.853705
329.076117	-3.006000	3.777400	-11.354000	23.236326	0.001028	20.834491
330.089651	-2.986100	3.778400	-11.281000	23.222805	0.001025	20.860768
331.081268	-2.985100	3.777900	-11.277000	23.231347	0.001026	20.858897
332.081591	-3.019600	3.777000	-11.404000	23.228559	0.001026	20.849465
333.084620	-3.012500	3.775900	-11.374000	23.224675	0.001025	20.844150
334.083099	-3.004600	3.776400	-11.344000	23.236056	0.001027	20.848918
335.077384	-2.995000	3.775000	-11.306000	23.261059	0.001028	20.857379
336.089364	-3.002900	3.774700	-11.335000	23.248683	0.001029	20.828856
337.083113	-3.021000	3.775400	-11.404000	23.284692	0.001031	20.859726
338.087943	-2.995900	3.775500	-11.310000	23.282598	0.001031	20.841507
339.084816	-2.989400	3.775800	-11.286000	23.289995	0.001029	20.858877
340.086958	-2.974100	3.774700	-11.225000	23.307278	0.001031	20.854388
341.091958	-2.984700	3.773900	-11.263000	23.282951	0.001029	20.848499
342.086318	-2.988900	3.773500	-11.278000	23.306185	0.001030	20.856611
343.082991	-3.005200	3.772500	-11.336000	23.302524	0.001030	20.870959
344.088075	-2.994800	3.773700	-11.300000	23.307629	0.001029	20.849523
345.083335	-2.990100	3.774300	-11.284000	23.340325	0.001031	20.849102
346.082383	-2.994200	3.772500	-11.295000	23.339852	0.001032	20.844361
347.083182	-3.005600	3.773000	-11.338000	23.305963	0.001033	20.861129
348.085387	-3.015100	3.772600	-11.373000	23.313059	0.001034	20.848328
349.090205	-2.993300	3.770800	-11.284000	23.336914	0.001034	20.869390
350.090688	-2.997100	3.771300	-11.303000	23.349764	0.001032	20.856190
351.086184	-2.999800	3.770400	-11.309000	23.327081	0.001034	20.861432
352.091014	-2.989300	3.771200	-11.271000	23.352627	0.001033	20.867120
353.086051	-3.002800	3.770700	-11.321000	23.349416	0.001036	20.882393
354.089160	-3.006100	3.770600	-11.334000	23.341698	0.001033	20.865650
355.088448	-3.018700	3.769000	-11.376000	23.372101	0.001034	20.862931
356.098162	-2.996200	3.770400	-11.295000	23.381063	0.001036	20.878076
357.088707	-3.007200	3.769300	-11.333000	23.400336	0.001036	20.855195
358.090232	-2.987400	3.769000	-11.257000	23.411664	0.001037	20.857066
359.088809	-2.977700	3.769800	-11.224000	23.424338	0.001037	20.872614
360.085924	-3.025200	3.768100	-11.399000	23.418936	0.001036	20.869096
361.090656	-3.000900	3.768400	-11.308000	23.418887	0.001038	20.881847
362.091860	-2.993400	3.767600	-11.277000	23.421027	0.001037	20.868821
363.085494	-2.972800	3.769000	-11.203000	23.455636	0.001037	20.854673
364.091186	-3.011000	3.766400	-11.339000	23.471843	0.001039	20.864280
365.092358	-3.007000	3.766300	-11.325000	23.454465	0.001036	20.860611
366.087823	-2.990400	3.768400	-11.268000	23.460839	0.001039	20.893077
367.091710	-3.011900	3.766400	-11.343000	23.466790	0.001038	20.893352
368.088160	-3.012500	3.766900	-11.347000	23.415178	0.001038	20.872441
369.086771	-3.011900	3.766300	-11.342000	23.441047	0.001040	20.868025
370.091252	-3.025200	3.764900	-11.388000	23.434051	0.001040	20.862909
371.094386	-2.988200	3.766600	-11.253000	23.438432	0.001040	20.900488
372.092374	-3.001100	3.763300	-11.293000	23.455288	0.001040	20.871867
373.097338	-2.999000	3.765300	-11.292000	23.471148	0.001039	20.859790
374.094003	-2.996800	3.764200	-11.280000	23.503789	0.001039	20.888239
375.092091	-2.995600	3.765000	-11.277000	23.490195	0.001041	20.870821
376.096314	-3.005000	3.763900	-11.310000	23.479067	0.001041	20.872943
377.087618	-2.996700	3.764100	-11.279000	23.491738	0.001043	20.884695
378.097012	-2.978100	3.763200	-11.206000	23.528834	0.001041	20.884895
379.090576	-2.980000	3.763800	-11.215000	23.541283	0.001041	20.876512
380.101795	-3.014600	3.762200	-11.341000	23.527764	0.001040	20.869599
381.094647	-3.006900	3.762100	-11.311000	23.544021	0.001042	20.894429
382.099959	-3.010300	3.760800	-11.320000	23.552337	0.001045	20.871946
383.103971	-3.007200	3.760700	-11.308000	23.562395	0.001044	20.877762
384.096655	-2.993200	3.761100	-11.256000	23.554555	0.001046	20.884126
385.093747	-2.995100	3.762000	-11.266000	23.569692	0.001044	20.887446
386.097245	-3.028200	3.759400	-11.384000	23.562895	0.001046	20.895330
387.095330	-3.009000	3.760100	-11.313000	23.583359	0.001045	20.887870
388.096639	-2.986500	3.761400	-11.232000	23.588438	0.001047	20.880160
389.097692	-3.003000	3.759800	-11.290000	23.602976	0.001047	20.888096
390.098578	-2.990000	3.759300	-11.239000	23.578158	0.001048	20.888820
391.100710	-2.981400	3.758800	-11.206000	23.579079	0.001048	20.891166
392.104974	-3.003900	3.758100	-11.287000	23.564067	0.001050	20.900298
393.100588	-3.003300	3.758200	-11.286000	23.579750	0.001050	20.893261
394.102781	-2.978000	3.759700	-11.195000	23.590082	0.001049	20.873748
395.101025	-2.981600	3.759700	-11.209000	23.593393	0.001050	20.915944
396.105012	-2.974000	3.758200	-11.175000	23.601807	0.001050	20.900199
397.100219	-3.017200	3.755200	-11.329000	23.599416	0.001051	20.886897
398.102808	-3.014200	3.755900	-11.320000	23.611613	0.001051	20.890589
399.097379	-2.992900	3.757600	-11.245000	23.600484	0.001051	20.916415
400.108481	-3.010400	3.755700	-11.306000	23.594536	0.001052	20.897651
401.101580	-3.002400	3.756200	-11.277000	23.564661	0.001052	20.900894
402.099982	-2.989600	3.754500	-11.223000	23.567225	0.001052	20.893033
403.103836	-3.005700	3.755800	-11.289000	23.575190	0.001051	20.901491
404.102130	-2.984700	3.755700	-11.207000	23.599835	0.001050	20.911023
405.102878	-2.987300	3.755000	-11.216000	23.629632	0.001052	20.888265
406.104055	-3.013100	3.753900	-11.310000	23.625473	0.001052	20.912069
407.110230	-3.022400	3.753300	-11.343000	23.598687	0.001053	20.917458
408.106569	-3.004400	3.754300	-11.279000	23.608296	0.001052	20.912392
409.104265	-3.040800	3.752500	-11.408000	23.613075	0.001052	20.919080
410.111399	-3.006100	3.752400	-11.279000	23.646357	0.001054	20.895074
411.103299	-2.992900	3.754700	-11.236000	23.649967	0.001052	20.922872
412.101368	-3.011400	3.752600	-11.299000	23.680982	0.001054	20.924568
413.107609	-2.993100	3.752800	-11.232000	23.709408	0.001052	20.915136
414.099388	-3.018800	3.752600	-11.326000	23.692133	0.001054	20.894973
415.099360	-3.006900	3.751200	-11.278000	23.710776	0.001054	20.907973
416.107290	-3.006100	3.750900	-11.274000	23.711596	0.001054	20.905003
417.103500	-2.996900	3.751000	-11.240000	23.718043	0.001053	20.912888
418.108971	-2.988600	3.751800	-11.211000	23.755378	0.001054	20.909543
419.107996	-3.015900	3.750500	-11.310000	23.756972	0.001054	20.901185
420.103529	-3.006800	3.750200	-11.275000	23.784723	0.001056	20.925214
421.104933	-3.001200	3.749600	-11.253000	23.780292	0.001055	20.885687
422.110503	-2.969700	3.750500	-11.136000	23.785469	0.001055	20.918376
423.104071	-2.993200	3.749100	-11.221000	23.783502	0.001057	20.923515
424.104625	-3.010700	3.747900	-11.283000	23.781809	0.001056	20.904750
425.104280	-2.997800	3.748700	-11.236000	23.770434	0.001055	20.896191
426.102750	-2.990400	3.748900	-11.210000	23.766773	0.001057	20.892521
427.106702	-2.981400	3.750100	-11.179000	23.758708	0.001056	20.892495
428.108812	-2.990400	3.747300	-11.205000	23.782750	0.001057	20.905694
429.103313	-2.980100	3.749300	-11.173000	23.742404	0.001058	20.892743
430.113133	-2.981600	3.747300	-11.172000	23.766322	0.001056	20.892543
431.115111	-2.994100	3.747400	-11.219000	23.732544	0.001055	20.901823
432.109328	-3.003500	3.747200	-11.252000	23.751959	0.001058	20.878142
433.108963	-3.015700	3.745200	-11.292000	23.735405	0.001058	20.903269
434.112889	-3.006400	3.746000	-11.261000	23.695429	0.001058	20.908708
435.114136	-2.991900	3.745400	-11.204000	23.688583	0.001057	20.884303
436.111338	-2.992300	3.745400	-11.206000	23.719123	0.001056	20.898325
437.112674	-2.995900	3.746500	-11.223000	23.692165	0.001055	20.883153
438.104045	-2.994500	3.744700	-11.213000	23.689625	0.001055	20.906683
439.109830	-2.998200	3.743600	-11.224000	23.686662	0.001055	20.897075
440.109646	-2.995900	3.743800	-11.215000	23.703938	0.001056	20.878361
441.118995	-2.996900	3.744600	-11.221000	23.680040	0.001057	20.877161
442.110934	-2.992200	3.745100	-11.205000	23.682728	0.001055	20.906407
443.111945	-2.998900	3.741800	-11.220000	23.696816	0.001057	20.902513
444.105650	-2.982300	3.742700	-11.160000	23.683124	0.001058	20.898743
445.113050	-3.010900	3.742100	-11.265000	23.722479	0.001055	20.903585
446.109927	-3.000600	3.742200	-11.228000	23.717847	0.001056	20.916485
447.110035	-3.000800	3.743000	-11.230000	23.709931	0.001059	20.867301
448.109557	-2.986600	3.742700	-11.176000	23.714436	0.001056	20.879877
449.115278	-2.988500	3.740700	-11.178000	23.732085	0.001059	20.891881
450.105976	-2.982700	3.740600	-11.155000	23.730317	0.001057	20.882523
451.108707	-3.038000	3.740100	-11.362000	23.772656	0.001057	20.880402
452.119553	-3.011100	3.737900	-11.254000	23.770515	0.001055	20.892479
453.113847	-3.006800	3.739100	-11.242000	23.793985	0.001057	20.879977
454.115481	-2.989500	3.739400	-11.177000	23.817605	0.001056	20.887063
455.121956	-3.005600	3.739300	-11.238000	23.830050	0.001056	20.882947
456.113964	-2.991700	3.738500	-11.183000	23.856108	0.001055	20.869247
457.119074	-2.991200	3.739400	-11.184000	23.852949	0.001055	20.874139
458.112745	-2.984300	3.739400	-11.159000	23.838289	0.001056	20.882199
459.121092	-3.008500	3.738700	-11.247000	23.880449	0.001054	20.871369
460.116174	-2.986200	3.738900	-11.164000	23.895035	0.001056	20.880778
461.123559	-2.999500	3.737100	-11.208000	23.880077	0.001056	20.879056
462.114984	-3.003600	3.737100	-11.224000	23.890232	0.001057	20.888764
463.120620	-3.002800	3.735900	-11.218000	23.892373	0.001059	20.883798
464.116068	-3.022600	3.735300	-11.289000	23.912730	0.001057	20.887616
465.122556	-2.993400	3.736300	-11.183000	23.915718	0.001058	20.859320
466.123787	-3.008400	3.735000	-11.235000	23.904791	0.001057	20.867803
467.120942	-2.989200	3.735200	-11.164000	23.895511	0.001058	20.869402
468.117770	-2.990700	3.734900	-11.169000	23.872762	0.001060	20.866980
469.112472	-2.986400	3.735000	-11.153000	23.867909	0.001059	20.860692
470.119244	-3.017500	3.733500	-11.264000	23.846705	0.001058	20.877361
471.115960	-2.993300	3.734500	-11.178000	23.854295	0.001060	20.866481
472.118151	-3.019400	3.733300	-11.272000	23.842897	0.001060	20.872595
473.118934	-3.019200	3.731900	-11.267000	23.830825	0.001062	20.858595
474.119906	-3.024600	3.733500	-11.290000	23.862957	0.001061	20.857149
475.124655	-2.971700	3.734700	-11.098000	23.901706	0.001059	20.848589
476.124905	-2.982300	3.733000	-11.132000	23.905115	0.001061	20.867653
477.120839	-2.989800	3.732100	-11.156000	23.931619	0.001061	20.875738
478.126586	-2.985800	3.731900	-11.142000	23.896703	0.001061	20.870598
479.126576	-2.984300	3.731700	-11.135000	23.896429	0.001060	20.880279
480.126577	-3.006900	3.730500	-11.216000	23.900212	0.001062	20.852306
481.122437	-3.013500	3.730100	-11.239000	23.914422	0.001062	20.857072
482.120432	-3.003300	3.730800	-11.203000	23.895009	0.001062	20.876959
483.120339	-2.982300	3.730500	-11.123000	23.928505	0.001062	20.857444
484.127434	-2.976400	3.730600	-11.103000	23.891821	0.001061	20.842471
485.119648	-2.999800	3.731200	-11.191000	23.894882	0.001063	20.871617
486.123188	-3.003300	3.729700	-11.201000	23.902421	0.001064	20.857366
487.122187	-2.996000	3.729700	-11.173000	23.934226	0.001065	20.844215
488.122917	-2.987500	3.729200	-11.139000	23.918871	0.001065	20.857740
489.122171	-3.016300	3.727700	-11.243000	23.926509	0.001064	20.869666
490.119920	-3.010300	3.728200	-11.222000	23.943555	0.001064	20.854518
491.122428	-2.994500	3.729100	-11.165000	23.992056	0.001063	20.855740
492.127709	-2.991500	3.727700	-11.150000	23.972519	0.001062	20.852269
493.126615	-2.972600	3.727800	-11.080000	23.970029	0.001065	20.847402
494.126796	-2.992800	3.727400	-11.154000	23.953181	0.001065	20.847576
495.129693	-3.004700	3.725700	-11.194000	23.936928	0.001065	20.854037
496.122604	-2.981400	3.726800	-11.110000	23.945737	0.001066	20.844853
497.124757	-3.024000	3.724700	-11.262000	23.950912	0.001065	20.879438
498.122782	-3.000800	3.725200	-11.176000	23.921295	0.001065	20.850688
499.125643	-3.005700	3.725100	-11.195000	23.936002	0.001065	20.868754
500.124243	-3.008100	3.725000	-11.204000	23.896331	0.001065	20.857898
501.129710	-3.024200	3.723500	-11.260000	23.889885	0.001065	20.845271
502.129672	-3.002100	3.723200	-11.176000	23.883461	0.001064	20.846415
503.129377	-3.021400	3.723000	-11.247000	23.864869	0.001065	20.839627
504.131248	-3.019000	3.722500	-11.236000	23.876664	0.001065	20.842918
505.132767	-2.996700	3.724400	-11.159000	23.893960	0.001068	20.857416
506.126563	-3.007300	3.723000	-11.194000	23.870638	0.001068	20.854419
507.134211	-3.020000	3.720800	-11.236000	23.919166	0.001066	20.843338
508.127216	-3.012500	3.721600	-11.211000	23.920559	0.001066	20.846158
509.123568	-2.999000	3.722800	-11.163000	23.941114	0.001066	20.836423
510.126172	-3.001300	3.721500	-11.168000	23.960947	0.001064	20.858207
511.128915	-2.992800	3.721800	-11.137000	23.973388	0.001065	20.849347
512.129968	-2.989300	3.721500	-11.124000	24.014546	0.001063	20.856483
513.129093	-3.004200	3.721300	-11.177000	24.017207	0.001063	20.862944
514.128907	-2.995500	3.721200	-11.146000	24.042165	0.001063	20.856679
515.123710	-3.017400	3.719700	-11.223000	24.084837	0.001062	20.860120
516.133351	-3.007800	3.718700	-11.185000	24.088247	0.001064	20.864962
517.128208	-3.008000	3.719600	-11.188000	24.104743	0.001062	20.837412
518.130977	-2.998700	3.720300	-11.154000	24.098347	0.001063	20.836213
519.129061	-3.001600	3.719600	-11.164000	24.088568	0.001060	20.855328
520.130046	-2.997100	3.718200	-11.143000	24.075180	0.001062	20.857548
521.125189	-3.004200	3.719700	-11.174000	24.066892	0.001061	20.861564
522.130758	-3.001100	3.718900	-11.160000	24.054227	0.001062	20.859293
523.127833	-3.000500	3.718100	-11.156000	24.051016	0.001061	20.874564
524.126770	-2.994400	3.716900	-11.129000	24.074505	0.001063	20.874888
525.133251	-3.013700	3.717200	-11.201000	24.075525	0.001062	20.860265
526.128247	-3.013400	3.716700	-11.199000	24.104714	0.001061	20.841176
527.128545	-2.991400	3.716600	-11.117000	24.111282	0.001062	20.852030
528.132516	-3.011100	3.715600	-11.187000	24.128326	0.001064	20.841624
529.128741	-3.010200	3.715100	-11.182000	24.132755	0.001062	20.838480
530.138123	-2.965200	3.715800	-11.017000	24.122480	0.001061	20.830545
531.138566	-3.005300	3.715200	-11.163000	24.128202	0.001061	20.865681
532.135440	-3.002500	3.712900	-11.148000	24.156542	0.001061	20.845268
533.134630	-3.005700	3.713200	-11.159000	24.159852	0.001059	20.852854
534.132699	-2.996600	3.712000	-11.123000	24.195607	0.001062	20.834664
535.140779	-3.003200	3.713300	-11.149000	24.210359	0.001059	20.851831
536.132501	-3.013200	3.713900	-11.189000	24.216855	0.001061	20.825156
537.133777	-2.999800	3.713100	-11.136000	24.227727	0.001060	20.831320
538.129519	-2.986900	3.713600	-11.090000	24.204341	0.001061	20.855277
539.136255	-2.986500	3.712400	-11.086000	24.247557	0.001061	20.833667
540.153174	-3.015100	3.711300	-11.188000	24.266017	0.001060	20.836537
541.130176	-3.008100	3.712100	-11.165000	24.251438	0.001063	20.852258
542.133195	-2.974400	3.711600	-11.038000	24.254846	0.001061	20.845246
543.134160	-3.004600	3.710400	-11.147000	24.239622	0.001060	20.834242
544.135183	-2.999800	3.709900	-11.128000	24.250718	0.001061	20.825933
545.134769	-2.993300	3.710900	-11.107000	24.265819	0.001061	20.842027
546.139896	-2.987300	3.709700	-11.080000	24.276020	0.001062	20.821440
547.141682	-2.978200	3.711900	-11.053000	24.277487	0.001061	20.818171
548.137618	-3.005100	3.708900	-11.144000	24.255568	0.001060	20.850711
549.147534	-3.009900	3.708400	-11.160000	24.267659	0.001060	20.841502
550.142519	-3.003500	3.707700	-11.135000	24.263953	0.001063	20.833044
551.141306	-2.998300	3.709700	-11.122000	24.250616	0.001060	20.839580
552.134760	-2.997300	3.708400	-11.114000	24.284673	0.001061	20.828698
553.141332	-3.014100	3.707900	-11.175000	24.277609	0.001062	20.820190
554.139417	-3.022700	3.707200	-11.204000	24.261536	0.001061	20.836309
555.139872	-3.000000	3.707100	-11.119000	24.234865	0.001062	20.814298
556.142346	-3.014100	3.706600	-11.171000	24.228023	0.001060	20.823082
557.138675	-3.020100	3.705000	-11.188000	24.237302	0.001063	20.819113
558.146100	-2.989500	3.704900	-11.074000	24.241804	0.001062	20.836431
559.140815	-2.996000	3.707300	-11.106000	24.238495	0.001062	20.818414
560.139676	-2.997700	3.704600	-11.104000	24.207893	0.001058	20.821383
561.142753	-2.986500	3.706100	-11.068000	24.202469	0.001058	20.812149
562.142087	-2.995400	3.705600	-11.099000	24.207419	0.001060	20.810951
563.147708	-3.007600	3.705700	-11.144000	24.200552	0.001059	20.814968
564.143512	-2.983900	3.706000	-11.057000	24.244888	0.001060	20.836679
565.165015	-3.003600	3.703900	-11.124000	24.248096	0.001058	20.828992
566.139151	-2.992900	3.703900	-11.084000	24.266234	0.001060	20.814469
567.146943	-2.996900	3.704100	-11.100000	24.265662	0.001058	20.826697
568.145659	-2.981600	3.703600	-11.042000	24.275911	0.001057	20.814693
569.138970	-3.001800	3.703000	-11.115000	24.287977	0.001059	20.812573
570.138417	-2.995500	3.702300	-11.089000	24.309471	0.001059	20.813271
571.143981	-2.978700	3.702500	-11.028000	24.330145	0.001057	20.816939
572.142121	-3.015600	3.702300	-11.164000	24.323428	0.001059	20.825374
573.139446	-2.964900	3.702400	-10.976000	24.310939	0.001059	20.801941
574.138801	-3.016300	3.700900	-11.162000	24.290440	0.001059	20.791809
575.140759	-2.998100	3.702600	-11.099000	24.295366	0.001057	20.826621
576.149273	-3.026400	3.700400	-11.198000	24.305689	0.001057	20.795726
577.140642	-3.002100	3.701800	-11.112000	24.294942	0.001060	20.796800
578.140214	-3.006500	3.700200	-11.123000	24.300265	0.001058	20.823950
579.137002	-3.011000	3.699300	-11.137000	24.302704	0.001058	20.800792
580.143373	-3.009400	3.699500	-11.133000	24.328775	0.001059	20.825523
581.144881	-3.011000	3.699600	-11.137000	24.341959	0.001059	20.810773
582.143329	-3.002400	3.699500	-11.107000	24.337531	0.001059	20.814865
583.150518	-2.993300	3.698100	-11.068000	24.363550	0.001058	20.793552
584.140261	-3.004900	3.699200	-11.115000	24.365267	0.001059	20.812344
585.143970	-2.998600	3.697800	-11.087000	24.392009	0.001059	20.818782
586.146778	-3.000700	3.698100	-11.096000	24.377530	0.001060	20.799516
587.147192	-2.991700	3.697700	-11.062000	24.351510	0.001058	20.796172
588.141983	-3.014600	3.696400	-11.142000	24.354792	0.001057	20.816060
589.142470	-2.987200	3.697100	-11.043000	24.334766	0.001060	20.795496
590.145057	-2.993300	3.696900	-11.066000	24.339193	0.001055	20.802309
591.144150	-2.984300	3.697600	-11.034000	24.368199	0.001059	20.794896
592.141153	-3.019900	3.695700	-11.159000	24.345410	0.001058	20.805226
593.144410	-2.993900	3.697200	-11.068000	24.367873	0.001057	20.816854
594.143064	-3.007900	3.695600	-11.115000	24.372076	0.001058	20.819648
595.147917	-3.021300	3.693700	-11.158000	24.410658	0.001055	20.787705
596.154123	-2.989500	3.694500	-11.043000	24.406577	0.001056	20.803051
597.140152	-2.999900	3.693400	-11.078000	24.426477	0.001055	20.786505
598.148508	-2.981700	3.695300	-11.018000	24.420433	0.001057	20.814581
599.141687	-3.004600	3.693700	-11.097000	24.456101	0.001056	20.793466
600.143008	-2.975800	3.693900	-10.991000	24.470577	0.001056	20.801351
601.146677	-2.981800	3.694100	-11.015000	24.456274	0.001056	20.784156
602.147156	-2.992400	3.692200	-11.048000	24.449159	0.001056	20.800726
603.145061	-3.019300	3.691500	-11.144000	24.427914	0.001056	20.796956
604.148803	-3.002600	3.691300	-11.082000	24.408411	0.001058	20.788296
605.149263	-3.004100	3.692000	-11.090000	24.384606	0.001055	20.807088
606.145572	-3.027500	3.690100	-11.171000	24.353509	0.001055	20.801496
607.149187	-3.007700	3.690000	-11.097000	24.362116	0.001055	20.801122
608.148301	-3.018500	3.689400	-11.136000	24.372637	0.001056	20.802193
609.146405	-2.997400	3.690000	-11.060000	24.365671	0.001055	20.786671
610.148510	-2.989100	3.691000	-11.031000	24.382760	0.001052	20.803340
611.143444	-3.000600	3.690600	-11.072000	24.365173	0.001053	20.780955
612.144399	-2.992700	3.687600	-11.035000	24.378133	0.001053	20.774516
613.157273	-3.021600	3.687100	-11.139000	24.404277	0.001056	20.794106
614.145935	-3.001600	3.688500	-11.069000	24.407510	0.001053	20.791659
615.144198	-3.011100	3.687900	-11.103000	24.389476	0.001054	20.792533
616.154801	-2.983600	3.688700	-11.004000	24.393979	0.001054	20.809852
617.154914	-2.993300	3.688300	-11.039000	24.369822	0.001055	20.783248
618.145182	-2.986300	3.688000	-11.013000	24.341413	0.001054	20.790785
619.156476	-2.985300	3.687300	-11.007000	24.364945	0.001053	20.791632
620.155550	-2.981100	3.686300	-10.987000	24.316335	0.001052	20.802138
621.148279	-3.000400	3.686500	-11.060000	24.344546	0.001053	20.787763
622.151653	-3.012200	3.686100	-11.103000	24.353427	0.001054	20.774861
623.158594	-2.991800	3.684400	-11.022000	24.357306	0.001053	20.785391
624.153999	-2.995100	3.686100	-11.039000	24.322503	0.001054	20.776557
625.156153	-2.980100	3.685900	-10.983000	24.323573	0.001053	20.785691
626.158074	-2.999400	3.683900	-11.048000	24.326932	0.001052	20.800440
627.150577	-2.998600	3.685200	-11.049000	24.344470	0.001053	20.808550
628.158467	-3.009500	3.685400	-11.091000	24.339020	0.001051	20.794075
629.151377	-2.997800	3.683100	-11.039000	24.355314	0.001052	20.756840
630.151993	-2.989200	3.683200	-11.009000	24.365314	0.001053	20.774458
631.154577	-2.997600	3.684600	-11.044000	24.396733	0.001052	20.790330
632.159337	-3.003700	3.682900	-11.061000	24.395389	0.001053	20.795621
633.155173	-3.000200	3.683200	-11.049000	24.386706	0.001053	20.775055
634.162320	-3.016100	3.681800	-11.104000	24.373844	0.001053	20.787283
635.155918	-2.997100	3.681900	-11.033000	24.357699	0.001052	20.767293
636.155364	-3.001300	3.681900	-11.050000	24.364739	0.001053	20.776252
637.163630	-2.976700	3.683100	-10.962000	24.391629	0.001050	20.772408
638.154078	-3.016300	3.680700	-11.101000	24.425384	0.001051	20.788728
639.158536	-2.988100	3.682100	-11.001000	24.439811	0.001052	20.792296
640.166571	-2.995800	3.681000	-11.027000	24.484809	0.001051	20.778645
641.156214	-2.994800	3.680900	-11.021000	24.493364	0.001050	20.782013
642.159118	-2.998500	3.679200	-11.030000	24.517366	0.001051	20.812733
643.165931	-2.978700	3.681000	-10.963000	24.492145	0.001049	20.797386
644.158056	-2.995400	3.679100	-11.019000	24.496422	0.001049	20.790771
645.159742	-3.016800	3.679500	-11.099000	24.488239	0.001048	20.786829
646.164327	-3.017900	3.679500	-11.102000	24.495826	0.001047	20.768361
647.156229	-3.012900	3.678600	-11.081000	24.513634	0.001047	20.785755
648.160823	-3.000700	3.678000	-11.035000	24.528236	0.001049	20.776697
649.164836	-3.010800	3.677900	-11.072000	24.523434	0.001048	20.784208
650.160429	-2.997300	3.676800	-11.020000	24.521519	0.001046	20.790347
651.159778	-3.015200	3.676400	-11.084000	24.531518	0.001045	20.788999
652.170129	-3.006600	3.677000	-11.054000	24.503337	0.001047	20.790123
653.159966	-2.994700	3.676500	-11.009000	24.491995	0.001046	20.793442
654.157486	-3.001100	3.675900	-11.030000	24.469510	0.001046	20.777047
655.167043	-2.985100	3.677600	-10.977000	24.441253	0.001046	20.789475
656.160599	-3.007300	3.675400	-11.052000	24.430558	0.001042	20.785857
657.161468	-3.006600	3.675000	-11.047000	24.418119	0.001045	20.780491
658.161501	-2.977100	3.675200	-10.941000	24.379140	0.001046	20.785484
659.157178	-2.988700	3.675300	-10.983000	24.389812	0.001043	20.793344
660.163734	-2.992200	3.674200	-10.993000	24.391853	0.001043	20.779745
661.175503	-2.975600	3.676200	-10.937000	24.444092	0.001045	20.779521
662.164059	-2.996900	3.674000	-11.009000	24.487548	0.001043	20.772385
663.168294	-3.006500	3.673800	-11.045000	24.528167	0.001043	20.779947
664.173150	-2.993100	3.673900	-10.994000	24.548713	0.001043	20.781595
665.160021	-3.024500	3.672200	-11.106000	24.578062	0.001041	20.789232
666.175397	-3.003100	3.673000	-11.029000	24.574805	0.001041	20.784068
667.163935	-3.003000	3.671400	-11.024000	24.570925	0.001040	20.783494
668.161807	-3.006500	3.672500	-11.040000	24.569907	0.001041	20.771566
669.168691	-2.982200	3.672400	-10.951000	24.559437	0.001041	20.774337
670.175113	-3.002800	3.672000	-11.025000	24.556751	0.001041	20.786342
671.161526	-2.992800	3.672000	-10.988000	24.564488	0.001039	20.789837
672.164598	-2.987000	3.671900	-10.966000	24.562946	0.001039	20.761736
673.165085	-3.007000	3.670300	-11.036000	24.558893	0.001041	20.792284
674.161524	-2.995900	3.670700	-10.996000	24.550115	0.001039	20.767355
675.162471	-2.985500	3.671700	-10.961000	24.523005	0.001039	20.768604
676.163624	-3.002900	3.670400	-11.020000	24.500421	0.001040	20.752109
677.162887	-2.995000	3.670500	-10.992000	24.491965	0.001040	20.772075
678.164833	-3.021300	3.668600	-11.083000	24.504153	0.001039	20.791416
679.166217	-2.991200	3.668000	-10.971000	24.515025	0.001040	20.774348
680.170818	-3.007600	3.668100	-11.032000	24.503286	0.001039	20.768260
681.171455	-2.985600	3.667600	-10.949000	24.509381	0.001039	20.794290
682.166281	-3.020100	3.667100	-11.073000	24.518758	0.001037	20.774775
683.163394	-3.007200	3.667600	-11.028000	24.547736	0.001038	20.793417
684.166291	-3.004100	3.667200	-11.014000	24.562487	0.001039	20.764595
685.167732	-3.013900	3.667300	-11.051000	24.578580	0.001038	20.768889
686.165776	-3.018700	3.666100	-11.066000	24.624270	0.001037	20.778698
687.171643	-2.989100	3.666000	-10.957000	24.645385	0.001037	20.780445
688.168908	-3.013700	3.665200	-11.044000	24.668094	0.001037	20.786637
689.166953	-3.014700	3.665600	-11.049000	24.702539	0.001038	20.781372
690.165054	-2.998800	3.666400	-10.994000	24.693265	0.001037	20.772540
691.166072	-2.996400	3.665500	-10.981000	24.680009	0.001038	20.758764
692.171452	-3.019600	3.664000	-11.063000	24.651087	0.001038	20.771942
693.170210	-3.008300	3.665100	-11.024000	24.631093	0.001035	20.773217
694.170967	-2.997500	3.664300	-10.983000	24.628981	0.001038	20.779158
695.170581	-3.001800	3.662800	-10.995000	24.624827	0.001037	20.776887
696.170359	-3.002500	3.663200	-10.996000	24.611001	0.001036	20.789566
697.174062	-2.984400	3.663800	-10.933000	24.583594	0.001037	20.775342
698.172610	-3.008200	3.662500	-11.017000	24.608217	0.001035	20.766384
699.179281	-3.011900	3.663300	-11.032000	24.615480	0.001036	20.781732
700.171588	-2.984600	3.662700	-10.929000	24.682107	0.001036	20.767982
701.176532	-2.977200	3.663100	-10.904000	24.691037	0.001037	20.759398
702.175250	-2.978900	3.663800	-10.912000	24.731573	0.001036	20.797706
703.174187	-3.010700	3.660900	-11.021000	24.739108	0.001036	20.771602
704.172999	-2.995700	3.661400	-10.968000	24.743733	0.001036	20.789046
705.170328	-3.003300	3.661700	-10.997000	24.761465	0.001034	20.778391
706.174227	-2.997900	3.662100	-10.977000	24.747911	0.001035	20.779963
707.176483	-3.009400	3.659800	-11.012000	24.728192	0.001036	20.776295
708.178911	-3.003300	3.661100	-10.994000	24.712426	0.001036	20.780862
709.181376	-2.984400	3.661100	-10.925000	24.688552	0.001036	20.782984
710.181421	-3.027400	3.659400	-11.078000	24.713919	0.001036	20.804172
711.183458	-3.012700	3.659000	-11.021000	24.700590	0.001036	20.772304
712.175675	-3.023700	3.658800	-11.062000	24.706856	0.001034	20.759152
713.179946	-3.003400	3.658600	-10.986000	24.732422	0.001032	20.768686
714.178478	-3.015900	3.658700	-11.033000	24.758358	0.001034	20.775273
715.177927	-2.999700	3.658400	-10.973000	24.767809	0.001034	20.805146
716.174299	-2.999400	3.657600	-10.969000	24.772955	0.001031	20.769533
717.183408	-2.989000	3.658100	-10.933000	24.792153	0.001034	20.786903
718.184864	-2.961000	3.658400	-10.831000	24.780116	0.001032	20.776719
719.177378	-2.994900	3.657100	-10.952000	24.808141	0.001030	20.790146
720.177299	-2.995700	3.658400	-10.958000	24.800257	0.001034	20.781760
721.176020	-2.999700	3.656100	-10.966000	24.808264	0.001033	20.787899
722.184648	-3.005500	3.655700	-10.985000	24.817689	0.001032	20.788822
723.179735	-3.016300	3.656600	-11.028000	24.807194	0.001032	20.766910
724.179892	-3.025800	3.653700	-11.055000	24.822138	0.001031	20.781908
725.182753	-2.982800	3.655400	-10.902000	24.833626	0.001033	20.784428
726.187182	-3.006300	3.654900	-10.985000	24.839244	0.001032	20.787696
727.184916	-2.989000	3.654800	-10.923000	24.841730	0.001032	20.801097
728.177503	-3.007600	3.653500	-10.987000	24.874252	0.001033	20.783950
729.185622	-3.008100	3.654500	-10.992000	24.884546	0.001031	20.787644
730.179225	-3.014600	3.653800	-11.014000	24.899688	0.001033	20.796677
731.188744	-2.993100	3.653400	-10.935000	24.908712	0.001030	20.792458
732.187675	-2.999500	3.651600	-10.952000	24.941134	0.001032	20.782799
733.180583	-2.971400	3.652600	-10.852000	24.927233	0.001031	20.792555
734.179142	-2.990800	3.651700	-10.921000	24.953140	0.001031	20.805756
735.181766	-2.985200	3.654300	-10.908000	24.932653	0.001028	20.801314
736.185271	-3.034800	3.650600	-11.077000	24.958905	0.001030	20.791628
737.189132	-2.997000	3.651400	-10.942000	24.950726	0.001029	20.780099
738.187401	-2.985200	3.652100	-10.900000	24.972155	0.001031	20.785487
739.184031	-2.999600	3.651700	-10.953000	24.970639	0.001028	20.789181
740.191276	-2.995500	3.650300	-10.933000	24.991348	0.001029	20.795269
741.185535	-3.001700	3.651300	-10.959000	24.959472	0.001028	20.818750
742.183094	-3.009100	3.650100	-10.982000	24.900023	0.001027	20.798910
743.185770	-3.003200	3.651100	-10.962000	24.903751	0.001026	20.810238
744.187632	-3.023000	3.648700	-11.029000	24.864067	0.001026	20.808341
745.185671	-2.994400	3.649600	-10.927000	24.843402	0.001027	20.808465
746.192900	-3.007200	3.649200	-10.972000	24.839870	0.001026	20.831471
747.193619	-3.005600	3.647400	-10.960000	24.832161	0.001024	20.821838
748.186783	-2.992400	3.647400	-10.913000	24.866623	0.001024	20.801424
749.186783	-2.992500	3.648000	-10.916000	24.875400	0.001026	20.834888
750.184304	-3.012900	3.647000	-10.987000	24.878233	0.001025	20.813076
751.186623	-3.022900	3.646500	-11.022000	24.872860	0.001023	20.814321
752.188573	-3.008500	3.647400	-10.972000	24.861943	0.001024	20.815693
753.186212	-2.991500	3.646400	-10.907000	24.872535	0.001021	20.810202
754.189226	-3.003300	3.646100	-10.949000	24.909258	0.001020	20.841369
755.188516	-2.987200	3.645900	-10.890000	24.900704	0.001022	20.798171
756.190149	-2.986000	3.645900	-10.886000	24.880091	0.001019	20.830587
757.206726	-2.991600	3.646100	-10.907000	24.875813	0.001022	20.812070
758.196387	-3.019500	3.645400	-11.006000	24.860943	0.001021	20.828914
759.198078	-3.027000	3.645000	-11.032000	24.862857	0.001021	20.817558
760.190222	-3.020700	3.644900	-11.009000	24.916066	0.001018	20.810745
761.192368	-3.018800	3.644900	-11.003000	24.911590	0.001020	20.839916
762.199806	-2.996600	3.644700	-10.921000	24.942793	0.001020	20.812914
763.199505	-3.004100	3.644000	-10.945000	24.948809	0.001017	20.813737
764.189858	-2.989100	3.644600	-10.893000	24.959450	0.001016	20.818727
765.200791	-3.001900	3.643000	-10.934000	24.936500	0.001016	20.803753
766.208314	-2.983300	3.642900	-10.866000	24.977177	0.001015	20.828459
767.195853	-2.997900	3.642500	-10.917000	24.988911	0.001015	20.828858
768.194631	-2.999000	3.642100	-10.920000	24.976230	0.001016	20.834147
769.198287	-3.009400	3.641300	-10.957000	24.996319	0.001014	20.842931
770.196197	-3.010800	3.641900	-10.964000	24.999302	0.001013	20.833598
771.200895	-2.983300	3.643800	-10.870000	25.002907	0.001014	20.823466
772.196351	-2.998900	3.640200	-10.916000	25.033735	0.001016	20.828806
773.198555	-3.001300	3.641300	-10.928000	25.015810	0.001013	20.842107
774.202014	-3.016200	3.640600	-10.978000	25.059242	0.001014	20.834021
775.202791	-2.989300	3.641000	-10.883000	25.051187	0.001013	20.834471
776.204505	-2.981000	3.641200	-10.852000	25.048850	0.001013	20.836866
777.202243	-3.002500	3.640200	-10.929000	25.053100	0.001012	20.847296
778.198618	-2.988700	3.639800	-10.877000	25.033585	0.001013	20.849991
779.196562	-2.988800	3.638900	-10.875000	24.996641	0.001013	20.829030
780.208695	-2.995900	3.640200	-10.905000	24.997212	0.001012	20.840035
781.200564	-3.005000	3.638400	-10.932000	24.995895	0.001013	20.848670
782.199387	-3.004500	3.638200	-10.930000	25.015561	0.001012	20.829530
783.205654	-2.997600	3.638800	-10.907000	25.019737	0.001012	20.841308
784.208274	-3.024500	3.636100	-10.997000	25.030901	0.001011	20.829280
785.207758	-3.015100	3.637100	-10.965000	25.031299	0.001012	20.845801
786.205384	-3.025300	3.636100	-10.999000	25.004746	0.001012	20.845226
787.201012	-2.987100	3.636100	-10.859000	25.005567	0.001010	20.839886
788.197967	-3.018200	3.635100	-10.971000	25.006265	0.001009	20.846276
789.198699	-3.017000	3.635200	-10.965000	25.015786	0.001009	20.843979
790.201441	-2.987100	3.635600	-10.859000	25.044352	0.001009	20.858902
791.202746	-2.991500	3.635300	-10.873000	25.059791	0.001009	20.856382
792.207819	-3.012500	3.634900	-10.949000	25.047534	0.001010	20.843606
793.209776	-3.023400	3.634300	-10.987000	25.091737	0.001007	20.841510
794.203910	-3.024000	3.633200	-10.986000	25.089252	0.001007	20.849447
795.207191	-2.993500	3.634800	-10.879000	25.111079	0.001006	20.838167
796.204530	-2.990700	3.634300	-10.868000	25.114560	0.001007	20.843558
797.206135	-2.995500	3.633800	-10.883000	25.049949	0.001006	20.858357
798.203669	-2.977200	3.634900	-10.821000	25.054349	0.001005	20.860403
799.205166	-2.986100	3.634200	-10.851000	25.041073	0.001004	20.863197
800.209820	-3.003000	3.632700	-10.908000	25.082269	0.001005	20.857610
801.210605	-2.989000	3.634200	-10.860000	25.053331	0.001007	20.832355
802.211633	-3.004200	3.632500	-10.912000	25.044630	0.001006	20.853966
803.210876	-3.011000	3.631800	-10.934000	25.045328	0.001003	20.843287
804.204337	-3.010100	3.631400	-10.928000	25.033717	0.001006	20.846805
805.218082	-2.996900	3.632100	-10.885000	25.052215	0.001005	20.841191
806.205454	-3.007900	3.631500	-10.922000	25.059946	0.001004	20.854167
807.205946	-3.007500	3.631000	-10.918000	25.033967	0.001004	20.856065
808.208180	-3.007400	3.630900	-10.919000	25.022233	0.001001	20.833382
809.210379	-3.001300	3.630000	-10.894000	25.005676	0.001001	20.864176
810.211090	-3.002500	3.629200	-10.896000	25.017610	0.001001	20.838224
811.207023	-3.022400	3.628700	-10.967000	25.016492	0.001002	20.851326
812.207782	-3.003900	3.629800	-10.902000	25.024671	0.000999	20.862380
813.210357	-3.029000	3.628100	-10.989000	25.041354	0.001001	20.828868
814.214762	-2.990900	3.630200	-10.856000	25.045209	0.001001	20.869245
815.206610	-3.013200	3.629300	-10.933000	25.021169	0.001003	20.853176
816.206325	-2.996200	3.628500	-10.871000	25.025868	0.001001	20.844616
817.213621	-2.999100	3.628500	-10.882000	25.026788	0.000999	20.866875
818.212838	-3.017700	3.626700	-10.943000	25.064850	0.001000	20.871418
819.211604	-3.006900	3.627000	-10.905000	25.082404	0.000999	20.849684
820.215288	-2.981300	3.628800	-10.817000	25.088321	0.000997	20.857521
821.208625	-2.958600	3.628600	-10.735000	25.094712	0.000998	20.862987
822.211580	-2.998300	3.625600	-10.870000	25.125090	0.000998	20.854602
823.205222	-2.995200	3.626500	-10.862000	25.130410	0.001000	20.873219
824.207651	-3.007100	3.627600	-10.905000	25.137696	0.000998	20.867731
825.209135	-2.987000	3.627800	-10.834000	25.133719	0.000996	20.858997
826.215592	-2.992800	3.625000	-10.848000	25.109482	0.000996	20.874495
827.212851	-2.999900	3.625300	-10.875000	25.089670	0.000996	20.861720
828.208933	-2.980700	3.625100	-10.803000	25.076221	0.000996	20.873349
829.213210	-3.003500	3.625100	-10.887000	25.098943	0.000996	20.868657
830.211523	-3.005800	3.623100	-10.890000	25.118237	0.000993	20.863844
831.213323	-2.989400	3.624500	-10.833000	25.118909	0.000993	20.856458
832.207937	-3.013000	3.624300	-10.918000	25.099643	0.000994	20.861300
833.208276	-3.012500	3.622800	-10.912000	25.115555	0.000993	20.870634
834.211087	-2.989500	3.623300	-10.830000	25.139668	0.000994	20.857858
835.216484	-2.979300	3.624000	-10.796000	25.103102	0.000993	20.863823
836.213329	-2.998300	3.621800	-10.859000	25.100219	0.000993	20.866619
837.214864	-2.964300	3.623900	-10.741000	25.053832	0.000994	20.853720
838.212858	-2.979700	3.622500	-10.793000	25.070117	0.000990	20.867221
839.217087	-2.974100	3.623300	-10.775000	25.083144	0.000995	20.882668
840.213539	-2.991900	3.621100	-10.833000	25.128167	0.000993	20.866700
841.217480	-2.975900	3.621700	-10.777000	25.172863	0.000993	20.850405
842.211781	-2.999000	3.621200	-10.858000	25.191582	0.000992	20.845964
843.212496	-2.998400	3.620300	-10.855000	25.193422	0.000992	20.869148
844.213030	-3.006000	3.620000	-10.881000	25.205926	0.000991	20.859890
845.217949	-2.989100	3.621600	-10.824000	25.193996	0.000991	20.862612
846.220025	-3.000500	3.621400	-10.864000	25.200461	0.000990	20.866257
847.215055	-3.020500	3.619600	-10.932000	25.180401	0.000991	20.885472
848.227227	-3.016000	3.619200	-10.914000	25.145749	0.000990	20.884349
849.226364	-2.999500	3.619500	-10.856000	25.131905	0.000989	20.856703
850.211219	-3.015700	3.619100	-10.913000	25.091037	0.000991	20.862618
851.216870	-2.998600	3.617600	-10.846000	25.085618	0.000989	20.881359
852.221744	-2.994200	3.618600	-10.834000	25.100784	0.000992	20.853910
853.213423	-2.993500	3.617100	-10.827000	25.093575	0.000988	20.878441
854.221781	-2.991800	3.618000	-10.823000	25.114160	0.000988	20.876346
855.220460	-3.020100	3.616600	-10.922000	25.103422	0.000987	20.874101
856.213925	-3.014100	3.615900	-10.898000	25.107948	0.000987	20.880541
857.224232	-2.994100	3.617000	-10.827000	25.115554	0.000987	20.877271
858.216042	-2.981100	3.617900	-10.784000	25.144541	0.000988	20.875551
859.213673	-2.984100	3.615400	-10.787000	25.173701	0.000984	20.882064
860.213619	-2.992700	3.615400	-10.818000	25.223293	0.000986	20.875428
861.217821	-3.001400	3.615600	-10.851000	25.239773	0.000987	20.877749
862.232460	-2.991500	3.615000	-10.813000	25.250362	0.000986	20.866570
863.220887	-2.990300	3.615200	-10.810000	25.259783	0.000985	20.894518
864.218782	-2.990800	3.614900	-10.810000	25.227146	0.000983	20.857961
865.215199	-2.998200	3.614600	-10.837000	25.222351	0.000984	20.883490
866.217434	-3.017900	3.613400	-10.904000	25.174923	0.000984	20.895618
867.215045	-2.981900	3.614600	-10.777000	25.159387	0.000984	20.907047
868.215982	-3.008800	3.614100	-10.874000	25.133036	0.000981	20.891975
869.218589	-3.006100	3.612300	-10.857000	25.165080	0.000981	20.891901
870.216032	-3.003900	3.613200	-10.853000	25.181784	0.000980	20.891601
871.214433	-2.996000	3.612600	-10.822000	25.213578	0.000981	20.886063
872.214668	-3.019600	3.612100	-10.907000	25.221955	0.000982	20.891628
873.217718	-2.992800	3.611000	-10.805000	25.201323	0.000982	20.874234
874.219854	-3.014400	3.611000	-10.884000	25.200927	0.000980	20.886163
875.216989	-2.992500	3.611000	-10.805000	25.195932	0.000980	20.903433
876.224775	-3.013500	3.609600	-10.876000	25.214872	0.000981	20.883095
877.218018	-2.996100	3.610300	-10.815000	25.211293	0.000977	20.910794
878.220029	-3.018800	3.610000	-10.897000	25.197848	0.000977	20.879279
879.226589	-3.010900	3.610900	-10.870000	25.198868	0.000979	20.903061
880.217499	-3.022400	3.609600	-10.908000	25.195239	0.000976	20.875713
881.226757	-3.002800	3.608900	-10.835000	25.253257	0.000977	20.889863
882.222272	-2.994600	3.609800	-10.809000	25.256066	0.000978	20.903588
883.222962	-2.988700	3.609200	-10.785000	25.292629	0.000979	20.889565
884.225820	-2.992900	3.607200	-10.794000	25.303591	0.000976	20.882554
885.220050	-3.005700	3.608600	-10.845000	25.313112	0.000977	20.894008
886.219443	-2.975100	3.610100	-10.739000	25.328970	0.000976	20.892861
887.230251	-3.006800	3.607400	-10.845000	25.358771	0.000975	20.875844
888.224356	-3.022800	3.605500	-10.898000	25.389391	0.000975	20.886674
889.227488	-3.007600	3.606600	-10.846000	25.394436	0.000974	20.895059
890.240240	-2.972700	3.607400	-10.723000	25.386683	0.000975	20.885852
891.222664	-3.000200	3.606800	-10.821000	25.423316	0.000973	20.898454
892.233853	-2.992400	3.605900	-10.789000	25.425254	0.000974	20.866263
893.232462	-2.976800	3.607200	-10.737000	25.445834	0.000974	20.875548
894.228764	-3.004900	3.603800	-10.828000	25.444366	0.000974	20.885928
895.232342	-2.999700	3.603900	-10.809000	25.413403	0.000972	20.903197
896.229478	-2.987100	3.603800	-10.763000	25.441262	0.000971	20.890396
897.234617	-3.001200	3.603300	-10.813000	25.379678	0.000971	20.895887
898.226567	-3.015100	3.602500	-10.861000	25.370309	0.000971	20.863248
899.228631	-3.004700	3.601900	-10.822000	25.332432	0.000972	20.877847
900.230457	-2.999300	3.602800	-10.805000	25.338820	0.000970	20.862925
901.227823	-3.019600	3.601600	-10.873000	25.329102	0.000971	20.870236
902.232248	-2.988600	3.603400	-10.768000	25.330991	0.000971	20.874977
903.230493	-3.016100	3.603200	-10.866000	25.377618	0.000968	20.878647
904.229486	-2.997100	3.601800	-10.794000	25.360194	0.000969	20.863049
905.231239	-2.996200	3.602300	-10.790000	25.384975	0.000970	20.873707
906.230106	-2.990100	3.601900	-10.769000	25.408062	0.000969	20.870811
907.233922	-3.015000	3.600500	-10.855000	25.414128	0.000969	20.851298
908.235734	-3.006700	3.601400	-10.827000	25.430454	0.000968	20.840191
909.231938	-3.011800	3.599800	-10.841000	25.445490	0.000968	20.841065
910.231346	-2.995200	3.601000	-10.783000	25.445564	0.000968	20.849200
911.232245	-3.022100	3.599300	-10.875000	25.385620	0.000968	20.860130
912.233315	-2.992800	3.599000	-10.770000	25.390913	0.000968	20.854066
913.236186	-3.003300	3.599900	-10.811000	25.378461	0.000968	20.859580
914.234379	-3.008400	3.598900	-10.827000	25.412334	0.000968	20.850920
915.235415	-3.007700	3.598200	-10.821000	25.413776	0.000966	20.849996
916.235348	-3.012300	3.598100	-10.838000	25.392377	0.000965	20.865966
917.239108	-3.004200	3.597700	-10.807000	25.375303	0.000965	20.865417
918.236156	-3.002400	3.596900	-10.798000	25.360613	0.000964	20.833125
919.238245	-2.995700	3.597500	-10.776000	25.338392	0.000965	20.839263
920.241937	-2.999000	3.597500	-10.787000	25.299246	0.000965	20.863967
921.240306	-2.996400	3.597200	-10.778000	25.309958	0.000965	20.851489
922.237418	-2.991600	3.596800	-10.759000	25.290645	0.000964	20.846324
923.240746	-3.014300	3.596700	-10.840000	25.248712	0.000963	20.846896
924.236496	-3.001700	3.595700	-10.791000	25.252191	0.000965	20.859872
925.244242	-2.991300	3.596500	-10.756000	25.278438	0.000961	20.870102
926.244288	-3.002200	3.593800	-10.788000	25.300137	0.000961	20.860121
927.237142	-3.002800	3.595400	-10.794000	25.275753	0.000958	20.862665
928.243340	-3.004400	3.595400	-10.800000	25.257360	0.000960	20.855578
929.243806	-2.998400	3.594600	-10.778000	25.238567	0.000961	20.835289
930.239989	-2.976100	3.596200	-10.701000	25.267003	0.000959	20.859570
931.249418	-3.013900	3.592600	-10.827000	25.270161	0.000958	20.820542
932.249347	-2.991600	3.593900	-10.751000	25.292033	0.000956	20.834916
933.240759	-3.020600	3.591900	-10.847000	25.302124	0.000957	20.844098
934.240859	-2.993300	3.592400	-10.752000	25.252935	0.000957	20.844972
935.246278	-3.006100	3.592900	-10.797000	25.252910	0.000957	20.861068
936.243336	-3.012300	3.591200	-10.815000	25.236131	0.000956	20.856550
937.243050	-3.011700	3.590500	-10.811000	25.235437	0.000957	20.846845
938.254867	-2.991000	3.592800	-10.744000	25.216769	0.000954	20.854655
939.254095	-3.001700	3.592300	-10.781000	25.256689	0.000955	20.845423
940.248089	-3.014100	3.589100	-10.817000	25.299566	0.000954	20.842004
941.253310	-3.004700	3.590500	-10.787000	25.327578	0.000956	20.839784
942.255829	-3.002800	3.589400	-10.776000	25.356186	0.000953	20.832947
943.245426	-3.002700	3.590400	-10.779000	25.369282	0.000953	20.837088
944.254172	-3.013600	3.588100	-10.813000	25.405817	0.000951	20.835367
945.250820	-2.987300	3.590000	-10.723000	25.397914	0.000953	20.838811
946.253897	-2.974400	3.589900	-10.677000	25.392125	0.000955	20.821145
947.253459	-2.993400	3.588000	-10.739000	25.406291	0.000952	20.844851
948.251863	-2.992700	3.589400	-10.741000	25.419214	0.000951	20.830327
949.251691	-2.986000	3.587900	-10.713000	25.419512	0.000953	20.833946
950.252827	-3.010500	3.587800	-10.800000	25.416977	0.000951	20.826185
951.252820	-2.991900	3.587500	-10.731000	25.421823	0.000950	20.822990
952.254789	-2.986200	3.588400	-10.715000	25.404973	0.000949	20.829779
953.254962	-3.014700	3.587400	-10.812000	25.449856	0.000951	20.819847
954.249983	-3.017400	3.587400	-10.823000	25.428359	0.000948	20.821493
955.252484	-3.003700	3.587200	-10.774000	25.404576	0.000949	20.832224
956.255440	-2.987100	3.587600	-10.715000	25.380170	0.000947	20.814356
957.258332	-2.971000	3.585900	-10.653000	25.378155	0.000947	20.828454
958.251744	-2.998600	3.583100	-10.743000	25.376144	0.000946	20.828331
959.253239	-2.995300	3.584800	-10.736000	25.343584	0.000945	20.803225
960.259188	-3.002300	3.584000	-10.760000	25.329790	0.000945	20.818298
961.253067	-3.006200	3.583500	-10.772000	25.337049	0.000944	20.839810
962.257357	-3.006300	3.582700	-10.769000	25.361083	0.000942	20.817002
963.255476	-3.000200	3.583200	-10.748000	25.408005	0.000941	20.819072
964.250055	-3.026400	3.581400	-10.836000	25.392323	0.000941	20.816128
965.254012	-2.977200	3.583700	-10.668000	25.432560	0.000940	20.821444
966.256172	-2.992900	3.581800	-10.719000	25.453064	0.000942	20.816429
967.256887	-3.005000	3.582900	-10.766000	25.467030	0.000940	20.815281
968.255806	-3.000400	3.582300	-10.746000	25.483483	0.000942	20.824216
969.255521	-3.003100	3.581700	-10.755000	25.476027	0.000941	20.837591
970.255231	-2.977000	3.582400	-10.663000	25.458632	0.000938	20.801158
971.256207	-2.999900	3.580300	-10.739000	25.435943	0.000939	20.816780
972.253554	-3.002300	3.579200	-10.745000	25.424237	0.000938	20.821621
973.265078	-2.992900	3.580400	-10.715000	25.425181	0.000939	20.806449
974.256595	-2.983700	3.580400	-10.682000	25.438604	0.000939	20.794322
975.259455	-3.015800	3.580000	-10.795000	25.431371	0.000939	20.816931
976.253582	-3.015700	3.579100	-10.792000	25.447053	0.000938	20.818928
977.260088	-3.017700	3.579300	-10.801000	25.483038	0.000937	20.804804
978.257995	-2.984800	3.579300	-10.681000	25.520736	0.000937	20.808048
979.257807	-2.993300	3.578500	-10.710000	25.527023	0.000938	20.788283
980.257941	-3.013000	3.576600	-10.775000	25.542455	0.000937	20.814212
981.261211	-3.000500	3.578000	-10.736000	25.546033	0.000938	20.793149
982.261780	-2.977100	3.578800	-10.653000	25.558756	0.000934	20.813512
983.262583	-3.002000	3.577600	-10.738000	25.562109	0.000938	20.796966
984.259584	-3.002500	3.576700	-10.738000	25.550081	0.000936	20.808594
985.258419	-2.994400	3.576400	-10.708000	25.551870	0.000934	20.818452
986.265031	-2.993400	3.575000	-10.700000	25.546030	0.000935	20.817802
987.256563	-2.984600	3.576600	-10.673000	25.556193	0.000934	20.805723
988.262580	-3.003500	3.576400	-10.740000	25.525429	0.000935	20.804700
989.257981	-2.996700	3.575700	-10.715000	25.517948	0.000933	20.809515
990.260522	-2.985800	3.575500	-10.675000	25.507633	0.000932	20.815752
991.257483	-2.998000	3.573900	-10.713000	25.523537	0.000935	20.804696
992.259755	-3.002900	3.574700	-10.733000	25.539241	0.000931	20.816200
993.266830	-2.989200	3.574800	-10.685000	25.572042	0.000931	20.815950
994.259042	-2.998400	3.573400	-10.714000	25.592616	0.000931	20.779714
995.262604	-3.009300	3.572300	-10.749000	25.616767	0.000931	20.810607
996.269054	-3.011500	3.572400	-10.757000	25.605235	0.000930	20.810880
997.257936	-3.013900	3.571500	-10.762000	25.595743	0.000929	20.796131
998.259636	-3.001000	3.570400	-10.713000	25.573628	0.000927	20.794309
999.258340	-3.039500	3.569500	-10.848000	25.555140	0.000929	20.812727
1000.259953	-2.992400	3.571900	-10.686000	25.560555	0.000927	20.802992
1001.258420	-2.991800	3.570600	-10.682000	25.554690	0.000926	20.792360
1002.266346	-2.996100	3.570800	-10.697000	25.539853	0.000927	20.820134
1003.260182	-2.976000	3.570600	-10.624000	25.503200	0.000925	20.810352
1004.259761	-3.029700	3.569400	-10.813000	25.464679	0.000925	20.799170
1005.267137	-3.007000	3.569300	-10.732000	25.444251	0.000923	20.804260
1006.263858	-2.974100	3.570700	-10.618000	25.419248	0.000921	20.823250
1007.263592	-2.979600	3.568400	-10.632000	25.440521	0.000923	20.812843
1008.269995	-3.035500	3.567900	-10.830000	25.423174	0.000922	20.817235
1009.261980	-2.997600	3.569800	-10.699000	25.397873	0.000920	20.800838
1010.264392	-3.003100	3.568100	-10.714000	25.444869	0.000918	20.805829
1011.264166	-2.987000	3.568100	-10.656000	25.456300	0.000919	20.816834
1012.260036	-2.985700	3.567500	-10.651000	25.466640	0.000921	20.817260
1013.278283	-2.996600	3.567600	-10.689000	25.461569	0.000920	20.814538
1014.266933	-2.980500	3.568100	-10.633000	25.489227	0.000920	20.814338
1015.265219	-2.980800	3.567400	-10.632000	25.505976	0.000918	20.818355
1016.271382	-3.013300	3.565800	-10.743000	25.509232	0.000917	20.801710
1017.263647	-3.015100	3.565800	-10.750000	25.519123	0.000918	20.795997
1018.272290	-2.998100	3.566400	-10.692000	25.504137	0.000917	20.798491
1019.267482	-2.993900	3.565600	-10.674000	25.545786	0.000918	20.789583
1020.268178	-3.003000	3.564500	-10.703000	25.543325	0.000917	20.797542
1021.270485	-3.004500	3.563800	-10.706000	25.561391	0.000917	20.788184
1022.267648	-2.990600	3.565500	-10.661000	25.543400	0.000915	20.794298
1023.268983	-2.998800	3.564700	-10.688000	25.535993	0.000915	20.780695
1024.271934	-2.988000	3.564000	-10.648000	25.545785	0.000916	20.808073
1025.268049	-3.008600	3.563000	-10.718000	25.559849	0.000916	20.785213
1026.273915	-2.998000	3.564000	-10.682000	25.601247	0.000913	20.821099
1027.267488	-2.991200	3.563900	-10.659000	25.608726	0.000912	20.788307
1028.267773	-2.998500	3.563100	-10.682000	25.629026	0.000914	20.782143
1029.270439	-3.009200	3.562300	-10.718000	25.602040	0.000914	20.800559
1030.287083	-3.008700	3.561400	-10.713000	25.611681	0.000912	20.783214
1031.278575	-3.010800	3.560200	-10.718000	25.574159	0.000912	20.799585
1032.270819	-2.995600	3.562000	-10.669000	25.586583	0.000913	20.799734
1033.274366	-3.012400	3.560600	-10.725000	25.570033	0.000912	20.805872
1034.267492	-3.026700	3.560000	-10.775000	25.504503	0.000913	20.807867
1035.275532	-3.005600	3.559700	-10.698000	25.495208	0.000910	20.789524
1036.274364	-2.978900	3.561300	-10.607000	25.506466	0.000910	20.803674
1037.273986	-3.005600	3.558400	-10.694000	25.535364	0.000909	20.807090
1038.268286	-2.981600	3.559300	-10.611000	25.565531	0.000911	20.802773
1039.272168	-2.985500	3.557600	-10.619000	25.561604	0.000910	20.780811
1040.268199	-3.002000	3.557500	-10.679000	25.594352	0.000909	20.800424
1041.276744	-3.005200	3.556200	-10.687000	25.619349	0.000908	20.803244
1042.278059	-3.009600	3.558500	-10.709000	25.620368	0.000906	20.793361
1043.269471	-3.021000	3.557500	-10.745000	25.618105	0.000907	20.770226
1044.277636	-3.000200	3.557200	-10.671000	25.633310	0.000905	20.795455
1045.273202	-2.982100	3.558000	-10.608000	25.626427	0.000907	20.778110
1046.271228	-2.989200	3.556800	-10.630000	25.612461	0.000906	20.783524
1047.270806	-2.970100	3.556700	-10.563000	25.596109	0.000906	20.796499
1048.273267	-3.002700	3.555800	-10.676000	25.595190	0.000904	20.788937
1049.275949	-2.984600	3.557100	-10.615000	25.612680	0.000903	20.808874
1050.277328	-2.998000	3.555800	-10.659000	25.633627	0.000903	20.785341
1051.273791	-3.022400	3.553600	-10.738000	25.640557	0.000904	20.788034
1052.278000	-3.008700	3.554100	-10.692000	25.695493	0.000905	20.792002
1053.276363	-2.987900	3.555500	-10.623000	25.716088	0.000900	20.779497
1054.273911	-2.995100	3.554200	-10.644000	25.717777	0.000902	20.789254
1055.274863	-3.001000	3.552500	-10.660000	25.724459	0.000902	20.791698
1056.275419	-3.012100	3.553200	-10.702000	25.672431	0.000900	20.767890
1057.273214	-3.006100	3.551700	-10.676000	25.677125	0.000898	20.797735
1058.278688	-3.010900	3.553200	-10.698000	25.669819	0.000898	20.794190
1059.281174	-3.012100	3.552600	-10.699000	25.695186	0.000899	20.790746
1060.272678	-3.015100	3.551700	-10.708000	25.703658	0.000895	20.808263
1061.277559	-3.006900	3.551400	-10.677000	25.751907	0.000897	20.789397
1062.279113	-2.997500	3.550100	-10.641000	25.759160	0.000897	20.799053
1063.272745	-2.992900	3.549000	-10.620000	25.789147	0.000897	20.790293
1064.279966	-2.983400	3.550100	-10.590000	25.759357	0.000894	20.760844
1065.279343	-2.999200	3.549900	-10.646000	25.721195	0.000894	20.774670
1066.274940	-2.990900	3.549600	-10.615000	25.730536	0.000893	20.800173
1067.284258	-3.000300	3.549500	-10.649000	25.714609	0.000892	20.787969
1068.278430	-2.999700	3.547900	-10.642000	25.725367	0.000892	20.791188
1069.281898	-2.990900	3.549400	-10.615000	25.722434	0.000891	20.769749
1070.282867	-2.983300	3.549400	-10.588000	25.721490	0.000890	20.789664
1071.281483	-3.007000	3.547700	-10.667000	25.716718	0.000892	20.782501
1072.287150	-3.018700	3.548300	-10.710000	25.738009	0.000891	20.773540
1073.285788	-2.999700	3.547500	-10.640000	25.765661	0.000889	20.785669
1074.291015	-2.995000	3.548200	-10.625000	25.750629	0.000890	20.774836
1075.298480	-3.005900	3.545800	-10.656000	25.741039	0.000888	20.796972
1076.289316	-3.004100	3.545300	-10.650000	25.738503	0.000889	20.785891
1077.290258	-3.011800	3.545400	-10.677000	25.712788	0.000888	20.762431
1078.293986	-3.001000	3.545800	-10.640000	25.705731	0.000888	20.769568
1079.285136	-2.991600	3.545600	-10.606000	25.675641	0.000888	20.762579
1080.301061	-3.013200	3.543500	-10.676000	25.637078	0.000887	20.793074
1081.291502	-2.992800	3.543600	-10.604000	25.598414	0.000888	20.775106
1082.286152	-2.998000	3.545400	-10.627000	25.594908	0.000887	20.778697
1083.292124	-2.990200	3.545000	-10.599000	25.552193	0.000884	20.768515
1084.286862	-3.014600	3.543100	-10.680000	25.571972	0.000884	20.783637
1085.285693	-3.023600	3.542100	-10.708000	25.537753	0.000884	20.771557
1086.291926	-2.973400	3.543100	-10.533000	25.530273	0.000884	20.770683
1087.297262	-2.999500	3.543100	-10.626000	25.502614	0.000884	20.795539
1088.290633	-3.016000	3.541800	-10.682000	25.482831	0.000882	20.782310
1089.291928	-2.998900	3.542000	-10.621000	25.468839	0.000884	20.775372
1090.285479	-2.993000	3.541800	-10.599000	25.475970	0.000881	20.780637
1091.290568	-2.997400	3.541500	-10.614000	25.477535	0.000881	20.767034
1092.299932	-2.998500	3.540600	-10.615000	25.510884	0.000880	20.783929
1093.284588	-3.023900	3.540300	-10.705000	25.540330	0.000880	20.763239
1094.289555	-2.997900	3.539500	-10.610000	25.556456	0.000879	20.773270
1095.289702	-3.007800	3.538200	-10.640000	25.610724	0.000877	20.770400
1096.287916	-2.987600	3.540400	-10.576000	25.649635	0.000879	20.782927
1097.295172	-3.004500	3.539000	-10.631000	25.681338	0.000878	20.778733
1098.290688	-3.003300	3.539000	-10.629000	25.730433	0.000879	20.776836
1099.290701	-2.996900	3.538400	-10.603000	25.745289	0.000875	20.786542
1100.290816	-3.003500	3.537400	-10.624000	25.795375	0.000876	20.786592
1101.297058	-2.987400	3.538900	-10.570000	25.797188	0.000874	20.774662
1102.293098	-2.993200	3.537200	-10.587000	25.758653	0.000876	20.774362
1103.289135	-2.979200	3.538200	-10.540000	25.724391	0.000871	20.769819
1104.298653	-3.006100	3.536500	-10.630000	25.740938	0.000872	20.785966
1105.295255	-2.965300	3.538700	-10.492000	25.726974	0.000872	20.778577
1106.291637	-3.013400	3.536700	-10.657000	25.667766	0.000871	20.778378
1107.299684	-3.020200	3.536400	-10.678000	25.677754	0.000870	20.785090
1108.304612	-2.998200	3.536300	-10.600000	25.718327	0.000870	20.756615
1109.294317	-3.003900	3.535300	-10.619000	25.718576	0.000868	20.768245
1110.301800	-2.999700	3.534500	-10.601000	25.750277	0.000869	20.793924
1111.293914	-2.983500	3.535200	-10.547000	25.722973	0.000869	20.789732
1112.293525	-2.978700	3.533700	-10.525000	25.737110	0.000868	20.759834
1113.297206	-2.992400	3.532500	-10.570000	25.728315	0.000865	20.786562
1114.295781	-3.000100	3.532900	-10.597000	25.714053	0.000867	20.772237
1115.304367	-2.986600	3.533600	-10.551000	25.771694	0.000866	20.779400
1116.303291	-3.006400	3.532500	-10.618000	25.769955	0.000865	20.779076
1117.303795	-3.003300	3.532300	-10.607000	25.746179	0.000864	20.783643
1118.296943	-3.011100	3.531400	-10.633000	25.716315	0.000867	20.774509
1119.304199	-3.002700	3.530700	-10.601000	25.738974	0.000865	20.779251
1120.302508	-3.015900	3.531700	-10.650000	25.723793	0.000863	20.765424
1121.300843	-3.018700	3.529600	-10.653000	25.730427	0.000865	20.781098
1122.302486	-2.991100	3.530600	-10.560000	25.737035	0.000863	20.781097
1123.302255	-3.001400	3.528800	-10.590000	25.743023	0.000862	20.776680
1124.304790	-2.996300	3.530100	-10.576000	25.745681	0.000864	20.786462
1125.313056	-2.976700	3.530300	-10.506000	25.762303	0.000861	20.787037
1126.308265	-3.010400	3.528400	-10.621000	25.745284	0.000862	20.776580
1127.305923	-3.018800	3.528200	-10.649000	25.763196	0.000861	20.782718
1128.316042	-2.974700	3.528300	-10.494000	25.773010	0.000859	20.785938
1129.311123	-2.995000	3.527200	-10.563000	25.747518	0.000858	20.784039
1130.310472	-2.992400	3.528800	-10.558000	25.746002	0.000860	20.788681
1131.308731	-3.002900	3.527400	-10.591000	25.733480	0.000857	20.781319
1132.307734	-2.982600	3.528800	-10.523000	25.738747	0.000856	20.797041
1133.311219	-2.995500	3.526100	-10.562000	25.783839	0.000856	20.763150
1134.311630	-2.988200	3.526700	-10.537000	25.745133	0.000855	20.775480
1135.311274	-2.998000	3.527100	-10.573000	25.748859	0.000854	20.790602
1136.311229	-3.001200	3.526100	-10.581000	25.775192	0.000853	20.778647
1137.312592	-3.004100	3.524000	-10.586000	25.772361	0.000853	20.781967
1138.314728	-2.999600	3.524600	-10.571000	25.801851	0.000851	20.788830
1139.303781	-3.005500	3.525200	-10.594000	25.775764	0.000853	20.794869
1140.311543	-3.008500	3.524300	-10.602000	25.775739	0.000851	20.793420
1141.310531	-3.001000	3.524700	-10.576000	25.784062	0.000851	20.773331
1142.313011	-3.008200	3.524000	-10.599000	25.772808	0.000849	20.780045
1143.307456	-3.036800	3.521300	-10.692000	25.731243	0.000849	20.786658
1144.312350	-2.985200	3.523400	-10.517000	25.710870	0.000848	20.781368
1145.312196	-3.002300	3.522500	-10.575000	25.724485	0.000847	20.782716
1146.316395	-3.025500	3.520700	-10.651000	25.728461	0.000846	20.798089
1147.304179	-2.996200	3.521200	-10.549000	25.748015	0.000845	20.792599
1148.305221	-3.000600	3.520300	-10.562000	25.785928	0.000847	20.783266
1149.326537	-3.003600	3.519900	-10.571000	25.803393	0.000842	20.777102
1150.317385	-2.987600	3.521400	-10.519000	25.813630	0.000843	20.789282
1151.315570	-3.011100	3.521600	-10.603000	25.832362	0.000841	20.789607
1152.317224	-3.000000	3.520100	-10.559000	25.808488	0.000843	20.782220
1153.307560	-3.002900	3.518100	-10.564000	25.817780	0.000842	20.776856
1154.304766	-3.017600	3.519300	-10.619000	25.826476	0.000841	20.797445
1155.316623	-3.005600	3.517500	-10.571000	25.800515	0.000842	20.801238
1156.305882	-3.030300	3.516600	-10.655000	25.793758	0.000841	20.798244
1157.315560	-2.991800	3.517200	-10.522000	25.759772	0.000840	20.785443
1158.309236	-2.980900	3.517800	-10.485000	25.725586	0.000839	20.786667
1159.308387	-2.996600	3.518300	-10.542000	25.729661	0.000837	20.782699
1160.311914	-3.000900	3.517800	-10.555000	25.757688	0.000837	20.793307
1161.314213	-2.996800	3.516900	-10.537000	25.781414	0.000837	20.792483
1162.309384	-3.008700	3.515200	-10.574000	25.799327	0.000835	20.787717
1163.310688	-3.000900	3.517200	-10.554000	25.797788	0.000837	20.781904
1164.318703	-3.019700	3.514800	-10.612000	25.768498	0.000836	20.780458
1165.312576	-3.015400	3.515600	-10.599000	25.738138	0.000836	20.799274
1166.315339	-2.995600	3.515300	-10.529000	25.690882	0.000835	20.799225
1167.322768	-2.980300	3.515800	-10.476000	25.652694	0.000835	20.777464
1168.314653	-2.991900	3.513800	-10.511000	25.653067	0.000835	20.773571
1169.321620	-2.997900	3.513900	-10.533000	25.631003	0.000834	20.781757
1170.319010	-3.032700	3.512400	-10.651000	25.650633	0.000834	20.781084
1171.315997	-3.023900	3.510600	-10.614000	25.678512	0.000833	20.790593
1172.316561	-3.025700	3.510600	-10.620000	25.714290	0.000834	20.800451
1173.328860	-3.018800	3.510000	-10.594000	25.726342	0.000834	20.788374
1174.323101	-3.005200	3.511700	-10.552000	25.771956	0.000833	20.785353
1175.320967	-2.984600	3.512100	-10.482000	25.812601	0.000834	20.789672
1176.323878	-3.024500	3.510000	-10.613000	25.797323	0.000831	20.797558
1177.314662	-2.979500	3.510300	-10.458000	25.809720	0.000829	20.791044
1178.319483	-2.994700	3.509800	-10.510000	25.825521	0.000829	20.802175
1179.313498	-3.017000	3.509500	-10.587000	25.873342	0.000830	20.803747
1180.322011	-2.984300	3.510600	-10.475000	25.889888	0.000828	20.805669
1181.321523	-3.010600	3.508900	-10.563000	25.919498	0.000828	20.778517
1182.313999	-2.990100	3.510300	-10.495000	25.895179	0.000829	20.802924
1183.319066	-2.989900	3.507400	-10.486000	25.884944	0.000827	20.800228
1184.321195	-3.005700	3.506900	-10.539000	25.896347	0.000826	20.789399
1185.321372	-3.046600	3.507500	-10.683000	25.893416	0.000825	20.800679
1186.326778	-2.999800	3.508000	-10.522000	25.901613	0.000823	20.788525
1187.318757	-3.019700	3.506000	-10.586000	25.921039	0.000823	20.790497
1188.315502	-3.025400	3.507000	-10.607000	25.920964	0.000823	20.785680
1189.323469	-3.009700	3.505500	-10.549000	25.944439	0.000824	20.793616
1190.320904	-3.007600	3.506900	-10.546000	25.935174	0.000823	20.780989
1191.318815	-2.988200	3.505700	-10.474000	25.939049	0.000824	20.810012
1192.325399	-3.009600	3.504600	-10.546000	25.934380	0.000821	20.795839
1193.318897	-3.015100	3.503700	-10.563000	25.934802	0.000821	20.794840
1194.322382	-2.992300	3.504600	-10.486000	25.942130	0.000822	20.802677
1195.322861	-2.981400	3.504500	-10.447000	25.927300	0.000819	20.807218
1196.325381	-2.988300	3.503000	-10.466000	25.960885	0.000818	20.799708
1197.320519	-3.015000	3.503500	-10.562000	25.939025	0.000819	20.804773
1198.325598	-2.965400	3.503500	-10.388000	25.962127	0.000818	20.819922
1199.324820	-2.995400	3.503500	-10.493000	25.967517	0.000817	20.783137
1200.328165	-2.996200	3.502500	-10.492000	25.957185	0.000815	20.795990
1201.323654	-3.001600	3.501300	-10.509000	25.959868	0.000816	20.795366
1202.325392	-2.978400	3.501800	-10.430000	25.970698	0.000816	20.814782
1203.322391	-2.997300	3.501000	-10.493000	25.955149	0.000817	20.790152
1204.332081	-2.999700	3.501600	-10.502000	25.970052	0.000814	20.796590
1205.325881	-3.014300	3.499600	-10.547000	25.980064	0.000814	20.820872
1206.322534	-2.980500	3.500300	-10.432000	25.984386	0.000815	20.816680
1207.330287	-2.987200	3.500900	-10.457000	25.997079	0.000813	20.792923
1208.320824	-2.990200	3.498600	-10.461000	26.014021	0.000813	20.809944
1209.325057	-2.978600	3.498100	-10.419000	26.057413	0.000814	20.795220
1210.330663	-2.997000	3.498300	-10.483000	26.035110	0.000811	20.814537
1211.323029	-2.982100	3.497400	-10.429000	25.985483	0.000812	20.806403
1212.331818	-3.020800	3.496100	-10.559000	25.968916	0.000808	20.811095
1213.333341	-2.992600	3.496600	-10.463000	25.947629	0.000809	20.790657
1214.327719	-2.985700	3.495000	-10.434000	25.915436	0.000809	20.787713
1215.322606	-2.991000	3.496200	-10.456000	25.919487	0.000809	20.812171
1216.326958	-2.999200	3.495700	-10.482000	25.872116	0.000807	20.806308
1217.328346	-3.021500	3.494100	-10.557000	25.865334	0.000809	20.824151
1218.324256	-3.021600	3.494500	-10.557000	25.905529	0.000807	20.807158
1219.333398	-3.019000	3.493300	-10.545000	25.909281	0.000807	20.817091
1220.329554	-2.993900	3.493900	-10.459000	25.906277	0.000807	20.791788
1221.328178	-3.003000	3.493300	-10.489000	25.903222	0.000804	20.807211
1222.332906	-2.991100	3.495300	-10.452000	25.935294	0.000806	20.803395
1223.327048	-2.998300	3.492700	-10.470000	25.951615	0.000804	20.815051
1224.327937	-3.002300	3.492500	-10.484000	25.964559	0.000805	20.824735
1225.338060	-3.006600	3.492500	-10.499000	25.965801	0.000803	20.798957
1226.326307	-3.016000	3.491600	-10.530000	25.936367	0.000804	20.794990
1227.328986	-3.018600	3.489700	-10.533000	25.974597	0.000803	20.822966
1228.334998	-2.968400	3.492200	-10.365000	25.962352	0.000800	20.812561
1229.329316	-2.975600	3.492200	-10.389000	25.983989	0.000801	20.801108
1230.334694	-3.001700	3.488800	-10.472000	26.025273	0.000798	20.807024
1231.341219	-3.003900	3.490000	-10.482000	26.001131	0.000800	20.826865
1232.332084	-2.987800	3.490800	-10.429000	26.003468	0.000800	20.821626
1233.330768	-3.005700	3.488800	-10.485000	26.015814	0.000799	20.808900
1234.335223	-3.004500	3.488000	-10.478000	26.019293	0.000799	20.814293
1235.330958	-3.013700	3.487300	-10.509000	26.011546	0.000796	20.828794
1236.330368	-2.983100	3.489600	-10.409000	26.026351	0.000797	20.808581
1237.342176	-3.015800	3.487200	-10.515000	26.036386	0.000797	20.806810
1238.332834	-2.974200	3.488200	-10.374000	26.001863	0.000797	20.811005
1239.333817	-3.017800	3.486300	-10.519000	26.018558	0.000797	20.821615
1240.337708	-2.976700	3.487400	-10.378000	25.999757	0.000797	20.814579
1241.329979	-2.998700	3.486200	-10.453000	26.003808	0.000793	20.814382
1242.332836	-3.012400	3.485900	-10.500000	25.997350	0.000795	20.812161
1243.341254	-2.999800	3.484000	-10.450000	25.986821	0.000794	20.799687
1244.330185	-3.014700	3.484000	-10.502000	25.986202	0.000795	20.812341
1245.337048	-2.997500	3.485100	-10.446000	25.994723	0.000794	20.814263
1246.341306	-2.971600	3.484900	-10.353000	26.006151	0.000796	20.796348
1247.338394	-2.992500	3.483700	-10.424000	26.013604	0.000794	20.833707
1248.340597	-3.008800	3.483600	-10.481000	26.011147	0.000793	20.810376
1249.338510	-2.996900	3.483600	-10.439000	26.021879	0.000794	20.824951
1250.335922	-3.022000	3.481200	-10.518000	26.029232	0.000794	20.800570
1251.341797	-3.018600	3.481900	-10.510000	26.040732	0.000792	20.817815
1252.339364	-3.001400	3.481400	-10.448000	26.023396	0.000793	20.835484
1253.336100	-3.009100	3.481900	-10.476000	25.988499	0.000793	20.817019
1254.347265	-2.995800	3.481800	-10.430000	25.989344	0.000791	20.829721
1255.347582	-2.990900	3.481600	-10.412000	25.988103	0.000789	20.806189
1256.344505	-3.012800	3.480500	-10.485000	26.031496	0.000790	20.809958
1257.341805	-3.005900	3.479300	-10.457000	26.019103	0.000792	20.836861
1258.345790	-2.999200	3.479300	-10.432000	26.000724	0.000788	20.819818
1259.343504	-2.997700	3.479000	-10.428000	25.991930	0.000791	20.836587
1260.351767	-3.011800	3.477600	-10.473000	25.967785	0.000787	20.824183
1261.346373	-2.984500	3.477400	-10.376000	25.964631	0.000785	20.817696
1262.352677	-3.005700	3.477900	-10.451000	25.971985	0.000786	20.828876
1263.344843	-3.015900	3.477300	-10.485000	25.947145	0.000784	20.823836
1264.354199	-2.997300	3.476800	-10.418000	25.926328	0.000784	20.822837
1265.347518	-3.001700	3.475600	-10.432000	25.923620	0.000783	20.830547
1266.348513	-3.006600	3.476800	-10.453000	25.922999	0.000782	20.815700
1267.362354	-3.006100	3.476300	-10.449000	25.936191	0.000781	20.821366
1268.354457	-3.009500	3.475500	-10.459000	25.950947	0.000783	20.829078
1269.347188	-3.004700	3.474300	-10.438000	25.929211	0.000782	20.845172
1270.351290	-2.986900	3.474600	-10.378000	25.964708	0.000781	20.820618
1271.360960	-3.015200	3.472900	-10.470000	25.961480	0.000782	20.827332
1272.346181	-2.992000	3.472600	-10.389000	25.951197	0.000780	20.804200
1273.352900	-2.995000	3.473000	-10.401000	25.959642	0.000780	20.819321
1274.349708	-2.991700	3.472400	-10.387000	25.946999	0.000779	20.818948
1275.349470	-2.987000	3.474000	-10.375000	25.959694	0.000780	20.831227
1276.348668	-3.001800	3.473600	-10.426000	26.004431	0.000778	20.842034
1277.350172	-2.970400	3.472800	-10.315000	26.018565	0.000776	20.829208
1278.344872	-3.008500	3.470400	-10.439000	26.030960	0.000779	20.845928
1279.348374	-2.993500	3.471800	-10.393000	25.998719	0.000776	20.832976
1280.347380	-2.991000	3.470200	-10.378000	25.973609	0.000776	20.841413
1281.348636	-2.976400	3.470200	-10.327000	25.938288	0.000777	20.842438
1282.352083	-2.992300	3.471000	-10.386000	25.935779	0.000777	20.833280
1283.348630	-3.003900	3.469100	-10.420000	25.991719	0.000775	20.822625
1284.357503	-3.005700	3.470100	-10.428000	26.006300	0.000775	20.846282
1285.352876	-2.992100	3.469300	-10.378000	26.022223	0.000773	20.830512
1286.352849	-3.015000	3.467900	-10.454000	26.016138	0.000774	20.846683
1287.357296	-2.996300	3.468400	-10.392000	26.061666	0.000773	20.853072
1288.351932	-2.996900	3.468800	-10.393000	26.054219	0.000773	20.847012
1289.353679	-3.018400	3.465900	-10.460000	26.052480	0.000772	20.839101
1290.352295	-3.003900	3.466500	-10.411000	26.071805	0.000774	20.829594
1291.353710	-3.001200	3.466400	-10.401000	26.067434	0.000773	20.851280
1292.350638	-3.008900	3.466400	-10.429000	26.054669	0.000772	20.843671
1293.356263	-3.028400	3.464100	-10.489000	26.029607	0.000771	20.833190
1294.352371	-3.014200	3.464300	-10.441000	26.041085	0.000770	20.835713
1295.353060	-3.011000	3.464600	-10.430000	26.028317	0.000772	20.857496
1296.357303	-3.016900	3.463800	-10.449000	26.041606	0.000769	20.878908
1297.355703	-3.001400	3.462800	-10.393000	26.070743	0.000771	20.849863
1298.360667	-2.992300	3.463800	-10.363000	26.076751	0.000769	20.840253
1299.355868	-3.002800	3.463600	-10.400000	26.066842	0.000769	20.853531
1300.357874	-2.975500	3.462500	-10.302000	26.051741	0.000767	20.866806
1301.353725	-2.993300	3.463500	-10.366000	26.078914	0.000768	20.856650
1302.358318	-3.024900	3.461300	-10.468000	26.068755	0.000767	20.839331
1303.365718	-3.004700	3.460800	-10.398000	26.108345	0.000768	20.857773
1304.358510	-2.991000	3.460600	-10.349000	26.076131	0.000767	20.880879
1305.356578	-2.988400	3.461700	-10.344000	26.095256	0.000765	20.849837
1306.354002	-3.030500	3.457800	-10.478000	26.086016	0.000764	20.879906
1307.359186	-3.010700	3.461400	-10.420000	26.066890	0.000765	20.865432
1308.357823	-2.982200	3.461400	-10.321000	26.126871	0.000764	20.874016
1309.362956	-2.994800	3.459700	-10.359000	26.132684	0.000763	20.857098
1310.355154	-2.980700	3.458900	-10.309000	26.147461	0.000762	20.859618
1311.355792	-2.998100	3.458600	-10.368000	26.137749	0.000763	20.852705
1312.360166	-2.986500	3.459700	-10.331000	26.141127	0.000761	20.847090
1313.362308	-3.003300	3.457600	-10.383000	26.146169	0.000761	20.862113
1314.360354	-2.986800	3.457200	-10.325000	26.174580	0.000762	20.854627
1315.356593	-2.982700	3.457400	-10.311000	26.174281	0.000761	20.855275
1316.356322	-2.989700	3.456400	-10.331000	26.197254	0.000758	20.878358
1317.363318	-3.008200	3.455800	-10.395000	26.214016	0.000760	20.890460
1318.360922	-3.000900	3.456100	-10.370000	26.210664	0.000758	20.860066
1319.361588	-3.001600	3.455500	-10.370000	26.213668	0.000758	20.863559
1320.361390	-3.006800	3.454900	-10.387000	26.171822	0.000757	20.859441
1321.362048	-2.978600	3.455300	-10.290000	26.179892	0.000757	20.886515
1322.366635	-2.995000	3.452400	-10.339000	26.173387	0.000758	20.889462
1323.366462	-2.988400	3.453300	-10.318000	26.161564	0.000757	20.875212
1324.358722	-2.990600	3.453600	-10.327000	26.206939	0.000756	20.891882
1325.361954	-2.961800	3.454500	-10.231000	26.188236	0.000755	20.864082
1326.359721	-2.989200	3.453500	-10.323000	26.198518	0.000755	20.884369
1327.364014	-3.000600	3.452400	-10.358000	26.226953	0.000754	20.879278
1328.360883	-2.986500	3.452500	-10.310000	26.239519	0.000755	20.884794
1329.365306	-2.986200	3.452200	-10.307000	26.201894	0.000751	20.889184
1330.363366	-3.011600	3.451900	-10.394000	26.167673	0.000750	20.887987
1331.364226	-3.006300	3.450500	-10.372000	26.122920	0.000752	20.876684
1332.373396	-2.973800	3.451100	-10.262000	26.076326	0.000749	20.883446
1333.365015	-3.009000	3.450100	-10.381000	26.071533	0.000750	20.902336
1334.363389	-3.015400	3.448500	-10.398000	26.075035	0.000749	20.879305
1335.364605	-3.039600	3.447400	-10.478000	26.048310	0.000749	20.896547
1336.365813	-3.003900	3.449500	-10.361000	26.047392	0.000748	20.895151
1337.364651	-3.006700	3.448000	-10.365000	26.015202	0.000749	20.891733
1338.365399	-3.012700	3.447300	-10.384000	25.991281	0.000748	20.888089
1339.368421	-3.002000	3.448000	-10.350000	25.985842	0.000750	20.893055
1340.369728	-2.997800	3.447400	-10.333000	25.995108	0.000747	20.889563
1341.373448	-2.991300	3.445800	-10.306000	26.002908	0.000749	20.891235
1342.367069	-3.005800	3.446000	-10.356000	26.008471	0.000746	20.885445
1343.374821	-2.982500	3.446700	-10.279000	26.003703	0.000747	20.891560
1344.369693	-3.028700	3.444600	-10.431000	25.985943	0.000746	20.895053
1345.370721	-3.014600	3.443200	-10.379000	25.960581	0.000747	20.898970
1346.375437	-2.991900	3.444300	-10.305000	25.953999	0.000748	20.906107
1347.373358	-3.012900	3.444300	-10.377000	25.964207	0.000745	20.887915
1348.376949	-3.002600	3.443300	-10.338000	25.972925	0.000746	20.871070
1349.374755	-3.019200	3.442000	-10.392000	26.003303	0.000746	20.905381
1350.373646	-2.995700	3.443300	-10.314000	26.018778	0.000748	20.885369
1351.368002	-3.006900	3.441500	-10.345000	26.029259	0.000745	20.899218
1352.368830	-3.018400	3.440100	-10.382000	26.072849	0.000744	20.895125
1353.369385	-3.007600	3.440900	-10.348000	26.080895	0.000744	20.887562
1354.371113	-2.996500	3.441300	-10.310000	26.135186	0.000744	20.885215
1355.379126	-2.981500	3.442300	-10.263000	26.161636	0.000744	20.896145
1356.370646	-2.986000	3.440300	-10.271000	26.153986	0.000742	20.906949
1357.371367	-2.983300	3.440900	-10.265000	26.177975	0.000742	20.884115
1358.371508	-3.001900	3.439300	-10.323000	26.173354	0.000741	20.889429
1359.370912	-2.975700	3.439600	-10.234000	26.206805	0.000741	20.885584
1360.370802	-3.003400	3.438900	-10.328000	26.209983	0.000740	20.895889
1361.375942	-3.028000	3.436800	-10.404000	26.198360	0.000738	20.897960
1362.372603	-2.989200	3.438400	-10.276000	26.194759	0.000738	20.875851
1363.377261	-2.998800	3.437100	-10.305000	26.184624	0.000739	20.903597
1364.374014	-2.994200	3.437600	-10.292000	26.179756	0.000737	20.867887
1365.373236	-2.985500	3.437000	-10.260000	26.174415	0.000738	20.906614
1366.376756	-2.976400	3.436700	-10.228000	26.172652	0.000736	20.861223
1367.376594	-2.994500	3.435600	-10.287000	26.169349	0.000736	20.882559
1368.377795	-2.995800	3.436200	-10.292000	26.112200	0.000736	20.882508
1369.378597	-2.987200	3.435300	-10.261000	26.098367	0.000735	20.885203
1370.373055	-2.996500	3.434300	-10.290000	26.098017	0.000734	20.885326
1371.375350	-2.993100	3.434200	-10.277000	26.057085	0.000735	20.865538
1372.375913	-2.993200	3.433700	-10.276000	26.021146	0.000732	20.870680
1373.377868	-2.993800	3.434400	-10.282000	26.015059	0.000732	20.881633
1374.377395	-2.982700	3.432600	-10.238000	26.050677	0.000732	20.884702
1375.377507	-2.995900	3.432900	-10.284000	26.086443	0.000730	20.883654
1376.377724	-2.994100	3.432200	-10.276000	26.058750	0.000732	20.889494
1377.385958	-2.985600	3.430900	-10.242000	26.041637	0.000731	20.878939
1378.381364	-2.989900	3.430900	-10.257000	26.003112	0.000731	20.890966
1379.382027	-2.989500	3.433100	-10.262000	25.952861	0.000730	20.868931
1380.380799	-2.995700	3.430000	-10.274000	25.932169	0.000730	20.863790
1381.383556	-3.017500	3.428500	-10.344000	25.917512	0.000729	20.887944
1382.382350	-2.970500	3.430300	-10.189000	25.917289	0.000729	20.882031
1383.385207	-2.976300	3.430900	-10.210000	25.958276	0.000730	20.861569
1384.379999	-2.991700	3.428600	-10.256000	25.992406	0.000727	20.868358
1385.381408	-2.974400	3.430300	-10.202000	26.043770	0.000727	20.865910
1386.388498	-3.000100	3.428300	-10.284000	26.077599	0.000728	20.870502
1387.379369	-2.975300	3.427900	-10.199000	26.073375	0.000727	20.874792
1388.384415	-3.009200	3.426800	-10.310000	26.094039	0.000727	20.872321
1389.388073	-3.001400	3.426600	-10.283000	26.125631	0.000726	20.877985
1390.383540	-2.990800	3.426800	-10.247000	26.128113	0.000726	20.863411
1391.392375	-3.035500	3.424100	-10.393000	26.129603	0.000727	20.863485
1392.388482	-2.994100	3.425600	-10.256000	26.138419	0.000726	20.878507
1393.381745	-2.985100	3.425800	-10.226000	26.171275	0.000727	20.857470
1394.386844	-2.995400	3.425500	-10.260000	26.214163	0.000725	20.881125
1395.389194	-3.001200	3.424500	-10.277000	26.239742	0.000722	20.857044
1396.383279	-2.982600	3.425300	-10.216000	26.230030	0.000723	20.870992
1397.389670	-2.986800	3.423500	-10.224000	26.229260	0.000723	20.865002
1398.381300	-3.011400	3.422700	-10.307000	26.144273	0.000723	20.831761
1399.393507	-2.991200	3.422000	-10.235000	26.127980	0.000721	20.848579
1400.387566	-3.000500	3.421700	-10.265000	26.132326	0.000721	20.864799
1401.386595	-3.005100	3.420600	-10.278000	26.137392	0.000719	20.874156
1402.385855	-3.014000	3.420900	-10.310000	26.137465	0.000720	20.842937
1403.386106	-2.990300	3.422200	-10.233000	26.128872	0.000721	20.870811
1404.384355	-2.997500	3.421000	-10.253000	26.106195	0.000719	20.873155
1405.385974	-3.008700	3.421000	-10.292000	26.069362	0.000718	20.848002
1406.386622	-3.007900	3.420300	-10.286000	26.077507	0.000719	20.875624
1407.391406	-3.002100	3.419000	-10.263000	26.079667	0.000717	20.856459
1408.390569	-2.992200	3.419900	-10.232000	26.118238	0.000717	20.848273
1409.386479	-3.035500	3.417300	-10.372000	26.134777	0.000717	20.862521
1410.386212	-3.016900	3.416500	-10.306000	26.115927	0.000718	20.854011
1411.388587	-3.017000	3.416300	-10.306000	26.116769	0.000717	20.862918
1412.390261	-3.001700	3.418300	-10.260000	26.076011	0.000716	20.878862
1413.387595	-2.990700	3.417400	-10.218000	26.056986	0.000717	20.859274
1414.388717	-2.990500	3.416700	-10.216000	26.020944	0.000715	20.860520
1415.393763	-2.993600	3.416000	-10.226000	26.016596	0.000714	20.865160
1416.388443	-2.985400	3.416200	-10.197000	26.017364	0.000714	20.859294
1417.395427	-2.984200	3.416000	-10.193000	26.008868	0.000711	20.865457
1418.390624	-2.972800	3.415700	-10.152000	26.042672	0.000713	20.880453
1419.392867	-3.005300	3.415900	-10.265000	26.054893	0.000710	20.846740
1420.395247	-2.981400	3.414200	-10.177000	26.079455	0.000711	20.849133
1421.394831	-3.005100	3.413100	-10.255000	26.086532	0.000711	20.864779
1422.393732	-2.983700	3.415100	-10.187000	26.122346	0.000709	20.841970
1423.399983	-2.977300	3.414400	-10.165000	26.134589	0.000710	20.850005
1424.393456	-2.985800	3.414400	-10.194000	26.147776	0.000709	20.853298
1425.394536	-2.976400	3.413000	-10.157000	26.192901	0.000708	20.858812
1426.400859	-2.990900	3.412900	-10.206000	26.240208	0.000708	20.852297
1427.397634	-3.021100	3.412100	-10.307000	26.223519	0.000707	20.869190
1428.396537	-2.978100	3.413500	-10.164000	26.215025	0.000708	20.864922
1429.397768	-2.987700	3.411800	-10.193000	26.204295	0.000709	20.855563
1430.395751	-2.987900	3.410300	-10.188000	26.205262	0.000707	20.838992
1431.397367	-3.011900	3.408800	-10.266000	26.226270	0.000705	20.862946
1432.394876	-2.998100	3.409800	-10.222000	26.217404	0.000708	20.850244
1433.394209	-3.010500	3.408800	-10.261000	26.250234	0.000706	20.841510
1434.395432	-2.997600	3.409000	-10.218000	26.270694	0.000705	20.848321
1435.400494	-3.007900	3.408500	-10.251000	26.259817	0.000705	20.853036
1436.398075	-2.980100	3.408700	-10.157000	26.231728	0.000703	20.852785
1437.398040	-2.986300	3.407700	-10.176000	26.236894	0.000704	20.857027
1438.398440	-3.019300	3.406000	-10.283000	26.184666	0.000703	20.856227
1439.398372	-2.991200	3.406900	-10.189000	26.182108	0.000703	20.833268
1440.414018	-2.990200	3.406600	-10.185000	26.160822	0.000700	20.857397
1441.399840	-2.993000	3.405700	-10.192000	26.160151	0.000700	20.857671
1442.400146	-2.974400	3.406700	-10.131000	26.198719	0.000700	20.850434
1443.398244	-3.002700	3.403500	-10.218000	26.240141	0.000701	20.869772
1444.398639	-2.990100	3.404800	-10.180000	26.255164	0.000698	20.849783
1445.401454	-2.994700	3.405000	-10.195000	26.242301	0.000698	20.859615
1446.404246	-2.983200	3.404700	-10.156000	26.242821	0.000696	20.855397
1447.407640	-2.992900	3.403800	-10.187000	26.267877	0.000694	20.845016
1448.402633	-2.996500	3.404800	-10.201000	26.284440	0.000695	20.875409
1449.401387	-2.992000	3.404300	-10.184000	26.212696	0.000695	20.850255
1450.404783	-3.008600	3.402500	-10.236000	26.201072	0.000695	20.838575
1451.404427	-2.999400	3.402500	-10.205000	26.188730	0.000693	20.839448
1452.398153	-3.012000	3.401400	-10.244000	26.206784	0.000695	20.839573
1453.405001	-3.003700	3.400000	-10.211000	26.206238	0.000692	20.836653
1454.411485	-2.988500	3.401800	-10.165000	26.227621	0.000692	20.860985
1455.397806	-2.999200	3.400800	-10.199000	26.282005	0.000692	20.858264
1456.401446	-2.984200	3.400600	-10.147000	26.312498	0.000692	20.843391
1457.401767	-2.979100	3.400700	-10.129000	26.302169	0.000691	20.840597
1458.403497	-3.008900	3.399200	-10.227000	26.347238	0.000689	20.838475
1459.402937	-3.014700	3.399100	-10.246000	26.347015	0.000690	20.842518
1460.400392	-3.006700	3.398300	-10.217000	26.336139	0.000688	20.831114
1461.408010	-3.005600	3.398300	-10.212000	26.334077	0.000690	20.857016
1462.400084	-3.003700	3.397800	-10.204000	26.337257	0.000687	20.831764
1463.403821	-3.006800	3.396600	-10.212000	26.307956	0.000685	20.855895
1464.402607	-3.022000	3.396200	-10.262000	26.244833	0.000687	20.833712
1465.405610	-2.995900	3.395900	-10.172000	26.215305	0.000685	20.837704
1466.406826	-3.033500	3.395400	-10.299000	26.208130	0.000683	20.821011
1467.404545	-3.015500	3.393900	-10.232000	26.225763	0.000685	20.842997
1468.408157	-2.986700	3.396000	-10.141000	26.201922	0.000683	20.829946
1469.403926	-3.003300	3.394800	-10.194000	26.211460	0.000681	20.835736
1470.402217	-3.019500	3.394600	-10.249000	26.215683	0.000682	20.827652
1471.402466	-2.995100	3.392800	-10.161000	26.256509	0.000681	20.834066
1472.401345	-2.996200	3.392600	-10.164000	26.265625	0.000681	20.854606
1473.406198	-3.012700	3.393500	-10.222000	26.269996	0.000681	20.847145
1474.406239	-2.999000	3.392700	-10.174000	26.279682	0.000680	20.831749
1475.405974	-2.997100	3.391700	-10.164000	26.297389	0.000681	20.832474
1476.407338	-3.001600	3.391700	-10.179000	26.284849	0.000680	20.812760
1477.412910	-2.985800	3.392400	-10.127000	26.276209	0.000679	20.831104
1478.412897	-3.000600	3.393000	-10.179000	26.305164	0.000677	20.838391
1479.409370	-2.998600	3.391000	-10.168000	26.292924	0.000678	20.805702
1480.406982	-2.999100	3.390700	-10.167000	26.285102	0.000678	20.842886
1481.405456	-3.012800	3.390000	-10.213000	26.323494	0.000678	20.821726
1482.412986	-2.993600	3.389900	-10.146000	26.342169	0.000673	20.822950
1483.410219	-3.001600	3.388900	-10.171000	26.358807	0.000675	20.811697
1484.407443	-3.000800	3.389500	-10.169000	26.346320	0.000674	20.829018
1485.415715	-3.014000	3.388400	-10.212000	26.318832	0.000674	20.820833
1486.407400	-3.006300	3.387200	-10.181000	26.297255	0.000675	20.810055
1487.415762	-2.989500	3.388800	-10.130000	26.279377	0.000673	20.821011
1488.409571	-2.978500	3.388100	-10.091000	26.291645	0.000674	20.823383
1489.407795	-2.977600	3.388300	-10.088000	26.327802	0.000673	20.813727
1490.409186	-2.963100	3.389400	-10.041000	26.358446	0.000671	20.820343
1491.413311	-2.997600	3.386700	-10.150000	26.382955	0.000671	20.812259
1492.411483	-2.991900	3.385900	-10.129000	26.402671	0.000671	20.805048
1493.415258	-2.998000	3.385500	-10.149000	26.373101	0.000671	20.800932
1494.415650	-2.997000	3.387000	-10.149000	26.321032	0.000672	20.792699
1495.408153	-3.004200	3.384900	-10.168000	26.333673	0.000670	20.820101
1496.411739	-2.975900	3.386700	-10.078000	26.322598	0.000669	20.830308
1497.420358	-3.019000	3.384000	-10.215000	26.372015	0.000670	20.815962
1498.417262	-3.018900	3.384000	-10.214000	26.404916	0.000667	20.804459
1499.411313	-3.007900	3.383700	-10.177000	26.390740	0.000668	20.815341
1500.416566	-3.012300	3.383900	-10.191000	26.393124	0.000667	20.781702
1501.408161	-3.006300	3.382800	-10.169000	26.369042	0.000667	20.802069
1502.412920	-2.982700	3.383400	-10.090000	26.360774	0.000665	20.790914
1503.411895	-3.010400	3.383200	-10.182000	26.359708	0.000666	20.800274
1504.414798	-3.006000	3.382700	-10.167000	26.339470	0.000666	20.802695
1505.416100	-3.007200	3.381700	-10.169000	26.353129	0.000665	20.784179
1506.410078	-2.987500	3.380900	-10.099000	26.331479	0.000663	20.789447
1507.411958	-2.992100	3.382000	-10.119000	26.312879	0.000663	20.789721
1508.415914	-3.020800	3.380800	-10.211000	26.303221	0.000664	20.774799
1509.411473	-2.997200	3.379100	-10.127000	26.289092	0.000663	20.787627
1510.409420	-3.005900	3.379700	-10.157000	26.274392	0.000664	20.776173
1511.409120	-3.011200	3.379400	-10.174000	26.238583	0.000664	20.785706
1512.411293	-2.980800	3.379500	-10.073000	26.210942	0.000663	20.787802
1513.417307	-2.970400	3.379700	-10.038000	26.192865	0.000664	20.793818
1514.416646	-2.990200	3.378100	-10.101000	26.182781	0.000660	20.797436
1515.411372	-2.976600	3.378000	-10.054000	26.173418	0.000661	20.778070
1516.413577	-2.991000	3.378600	-10.104000	26.185589	0.000661	20.789352
1517.412547	-3.000000	3.376900	-10.129000	26.217872	0.000661	20.795239
1518.418460	-2.986800	3.377200	-10.087000	26.248071	0.000657	20.775326
1519.414970	-2.990400	3.375900	-10.094000	26.280377	0.000658	20.793568
1520.411564	-2.980700	3.376700	-10.063000	26.274171	0.000655	20.775477
1521.418365	-3.031100	3.374000	-10.226000	26.290983	0.000656	20.788579
1522.413275	-3.008000	3.374100	-10.148000	26.295676	0.000656	20.788554
1523.415750	-3.003700	3.373600	-10.132000	26.298284	0.000656	20.808244
1524.420898	-3.014400	3.373500	-10.168000	26.272012	0.000655	20.787532
1525.413451	-3.026300	3.373900	-10.208000	26.256069	0.000655	20.788580
1526.413198	-2.971400	3.373600	-10.023000	26.267395	0.000652	20.770563
1527.419272	-2.989200	3.372900	-10.081000	26.283536	0.000651	20.777301
1528.417757	-3.014400	3.372500	-10.165000	26.295307	0.000653	20.765424
1529.414966	-3.005800	3.372400	-10.134000	26.336230	0.000651	20.773360
1530.416008	-3.004100	3.372200	-10.130000	26.309760	0.000651	20.786112
1531.416451	-3.017000	3.371200	-10.169000	26.270353	0.000650	20.773537
1532.428803	-2.984000	3.371800	-10.061000	26.313661	0.000652	20.772963
1533.420160	-2.993200	3.371200	-10.090000	26.325035	0.000647	20.758315
1534.419445	-2.988600	3.370800	-10.073000	26.357887	0.000648	20.763357
1535.413166	-3.008200	3.371000	-10.140000	26.359106	0.000648	20.778332
1536.431537	-3.014800	3.369600	-10.158000	26.368119	0.000645	20.759890
1537.417586	-3.004700	3.369200	-10.123000	26.342818	0.000646	20.774290
1538.419431	-3.014200	3.367600	-10.150000	26.365067	0.000646	20.762038
1539.415118	-2.974300	3.368600	-10.016000	26.340039	0.000643	20.779084
1540.418283	-2.995300	3.368800	-10.090000	26.296288	0.000644	20.770202
1541.419975	-3.010100	3.366600	-10.132000	26.278334	0.000645	20.782506
1542.425420	-3.002200	3.367300	-10.109000	26.257900	0.000645	20.788049
1543.418553	-3.003900	3.366100	-10.110000	26.322662	0.000646	20.769681
1544.420818	-3.007900	3.366100	-10.124000	26.328898	0.000644	20.776896
1545.419342	-2.999100	3.366500	-10.096000	26.381142	0.000643	20.780565
1546.421372	-2.992200	3.365100	-10.068000	26.376897	0.000645	20.769660
1547.419460	-3.011000	3.365000	-10.130000	26.366322	0.000644	20.760928
1548.424560	-3.026200	3.363700	-10.179000	26.302332	0.000642	20.760629
1549.420685	-3.003400	3.364800	-10.104000	26.350630	0.000643	20.760331
1550.422379	-3.029200	3.365100	-10.193000	26.370968	0.000643	20.754692
1551.422922	-2.992000	3.364000	-10.065000	26.371987	0.000642	20.764725
1552.420113	-2.999200	3.363600	-10.088000	26.336008	0.000640	20.750850
1553.418879	-3.021500	3.364300	-10.164000	26.311995	0.000642	20.752796
1554.422665	-2.980100	3.364600	-10.027000	26.264443	0.000640	20.754320
1555.419356	-2.981900	3.363000	-10.026000	26.250015	0.000639	20.761159
1556.429852	-3.013900	3.362800	-10.133000	26.213286	0.000641	20.744163
1557.424741	-3.009000	3.362000	-10.115000	26.212964	0.000639	20.760436
1558.425369	-3.021400	3.362000	-10.157000	26.215497	0.000638	20.766774
1559.424200	-3.017900	3.360300	-10.139000	26.275743	0.000639	20.758564
1560.432498	-3.004700	3.360100	-10.095000	26.298563	0.000638	20.723649
1561.423211	-3.009500	3.360200	-10.111000	26.327914	0.000638	20.739397
1562.424436	-2.983400	3.359700	-10.022000	26.410253	0.000637	20.728741
1563.434315	-3.017100	3.360100	-10.136000	26.396473	0.000637	20.749031
1564.427050	-2.999100	3.359900	-10.075000	26.411619	0.000636	20.734855
1565.428962	-2.998000	3.359900	-10.072000	26.381226	0.000636	20.736552
1566.425210	-3.001900	3.357700	-10.079000	26.339658	0.000638	20.738871
1567.428318	-3.001200	3.358200	-10.078000	26.298562	0.000635	20.745460
1568.434438	-2.975600	3.358500	-9.992600	26.307823	0.000635	20.740068
1569.426455	-2.998100	3.356400	-10.062000	26.329675	0.000634	20.759659
1570.434978	-3.009800	3.357300	-10.104000	26.329972	0.000634	20.729136
1571.426205	-3.000300	3.356600	-10.069000	26.341318	0.000635	20.754765
1572.430374	-3.026300	3.355300	-10.153000	26.377222	0.000634	20.733475
1573.427326	-3.012400	3.355400	-10.106000	26.417197	0.000632	20.743307
1574.427734	-3.015200	3.355000	-10.116000	26.410193	0.000634	20.755235
1575.430541	-2.992500	3.355100	-10.039000	26.405600	0.000634	20.739712
1576.431790	-3.012000	3.355400	-10.106000	26.441874	0.000633	20.732074
1577.425299	-3.009700	3.353300	-10.091000	26.477848	0.000632	20.719868
1578.429276	-2.975700	3.354900	-9.981100	26.493092	0.000628	20.752261
1579.429350	-2.983900	3.355000	-10.010000	26.504661	0.000631	20.723585
1580.424506	-2.979700	3.353400	-9.991200	26.468559	0.000629	20.727601
1581.431220	-3.018300	3.352400	-10.117000	26.476454	0.000630	20.751184
1582.431846	-3.010800	3.353000	-10.094000	26.426373	0.000630	20.754428
1583.429318	-2.993900	3.352200	-10.035000	26.421630	0.000628	20.770997
1584.433191	-3.000200	3.352000	-10.056000	26.433249	0.000628	20.745216
1585.434322	-3.015600	3.351900	-10.107000	26.466865	0.000625	20.755771
1586.431831	-2.996600	3.352000	-10.043000	26.487720	0.000626	20.747336
1587.432593	-3.001100	3.350100	-10.053000	26.518007	0.000623	20.746484
1588.433163	-3.004300	3.351800	-10.069000	26.536054	0.000625	20.743288
1589.432769	-2.991500	3.351300	-10.025000	26.557603	0.000624	20.766372
1590.429988	-2.976600	3.349900	-9.969700	26.584636	0.000625	20.735699
1591.436314	-3.009800	3.349500	-10.080000	26.562937	0.000622	20.761303
1592.433815	-3.031100	3.349200	-10.151000	26.501564	0.000621	20.769312
1593.430907	-3.007100	3.348700	-10.068000	26.473532	0.000624	20.759153
1594.434835	-2.997700	3.347600	-10.033000	26.472711	0.000622	20.734619
1595.434003	-2.994000	3.347900	-10.022000	26.458955	0.000621	20.758726
1596.435334	-2.980800	3.348100	-9.979200	26.482044	0.000621	20.742104
1597.438210	-2.991900	3.348100	-10.017000	26.518812	0.000620	20.738759
1598.431229	-3.002100	3.347400	-10.048000	26.559749	0.000618	20.739131
1599.433883	-2.992700	3.345700	-10.010000	26.592838	0.000620	20.747264
1600.439912	-3.005000	3.345800	-10.053000	26.603437	0.000618	20.760763
1601.439228	-2.993000	3.345300	-10.012000	26.620864	0.000619	20.761687
1602.433804	-3.007800	3.344800	-10.060000	26.620663	0.000618	20.757217
1603.438731	-3.009400	3.343800	-10.061000	26.654670	0.000619	20.762481
1604.435388	-2.974700	3.345400	-9.951100	26.671177	0.000617	20.749677
1605.438254	-2.992900	3.345600	-10.012000	26.707021	0.000615	20.774333
1606.437108	-3.005300	3.343800	-10.049000	26.700091	0.000614	20.739391
1607.435171	-2.985900	3.343700	-9.983200	26.688299	0.000615	20.755985
1608.442015	-3.022200	3.342900	-10.101000	26.685816	0.000614	20.742583
1609.435042	-2.990400	3.342600	-9.993800	26.675761	0.000614	20.760924
1610.437552	-2.984300	3.343300	-9.976100	26.648353	0.000614	20.769407
1611.437348	-2.988600	3.341900	-9.986500	26.645919	0.000614	20.756528
1612.444451	-2.990500	3.343100	-9.996100	26.621763	0.000613	20.744098
1613.440011	-2.995700	3.341800	-10.010000	26.597187	0.000611	20.765860
1614.443995	-2.988300	3.342800	-9.988400	26.637227	0.000612	20.770549
1615.444223	-2.985900	3.340200	-9.972400	26.614187	0.000610	20.759242
1616.444562	-3.005700	3.339000	-10.035000	26.542664	0.000610	20.772218
1617.440641	-3.010200	3.341100	-10.056000	26.521187	0.000610	20.762484
1618.443731	-3.002300	3.339900	-10.027000	26.531961	0.000610	20.734906
1619.440650	-3.007600	3.339000	-10.042000	26.543007	0.000611	20.767822
1620.441130	-2.997600	3.339100	-10.008000	26.572547	0.000607	20.758635
1621.449373	-2.981400	3.339000	-9.954300	26.605714	0.000609	20.766371
1622.446587	-3.002600	3.337400	-10.020000	26.621006	0.000607	20.762778
1623.447361	-3.010700	3.337100	-10.046000	26.628053	0.000607	20.770810
1624.444085	-2.995300	3.337100	-9.993500	26.625595	0.000605	20.756959
1625.440749	-2.962900	3.337500	-9.886400	26.638675	0.000608	20.770583
1626.439520	-2.998700	3.336200	-10.003000	26.628222	0.000607	20.749169
1627.448206	-3.000300	3.335200	-10.006000	26.605383	0.000604	20.777418
1628.448348	-3.012200	3.335300	-10.045000	26.577206	0.000605	20.768534
1629.445462	-2.996000	3.335700	-9.992900	26.544508	0.000605	20.753683
1630.444837	-2.997900	3.335700	-9.999400	26.585519	0.000603	20.781159
1631.443813	-2.988400	3.334800	-9.965300	26.597185	0.000601	20.782454
1632.447855	-3.015100	3.334200	-10.052000	26.568734	0.000601	20.769026
1633.445796	-3.000600	3.333000	-10.000000	26.545545	0.000600	20.783175
1634.454593	-2.976500	3.334600	-9.924200	26.524616	0.000601	20.769723
1635.448069	-2.991300	3.334200	-9.972200	26.515677	0.000597	20.780179
1636.452327	-2.991900	3.333100	-9.971600	26.523421	0.000597	20.775635
1637.455840	-3.006900	3.331800	-10.017000	26.466119	0.000596	20.782997
1638.448417	-3.004600	3.332500	-10.012000	26.480965	0.000595	20.792704
1639.457679	-2.989300	3.332800	-9.962100	26.489356	0.000594	20.792129
1640.452026	-2.980100	3.331800	-9.927500	26.536503	0.000594	20.785940
1641.450600	-3.009400	3.330200	-10.021000	26.503210	0.000592	20.781872
1642.452673	-2.996600	3.330300	-9.978200	26.509093	0.000593	20.773087
1643.449512	-3.000700	3.330000	-9.991400	26.468152	0.000591	20.778403
1644.449676	-2.996100	3.329600	-9.974900	26.467382	0.000593	20.786638
1645.453413	-2.997900	3.329200	-9.979800	26.486251	0.000590	20.767671
1646.450522	-2.981700	3.329000	-9.924200	26.483967	0.000590	20.803308
1647.448476	-3.000200	3.328300	-9.984000	26.519892	0.000591	20.788684
1648.456868	-2.983000	3.329200	-9.930100	26.529425	0.000589	20.778352
1649.453475	-2.987800	3.328100	-9.943100	26.489503	0.000589	20.772362
1650.455823	-3.028700	3.326400	-10.073000	26.469590	0.000590	20.787909
1651.450880	-2.999100	3.326400	-9.975200	26.408660	0.000590	20.803007
1652.456782	-2.994600	3.326600	-9.960800	26.365432	0.000586	20.792277
1653.450336	-2.995900	3.325500	-9.962000	26.354108	0.000589	20.801284
1654.458391	-3.007400	3.326400	-10.001000	26.317209	0.000587	20.775580
1655.457807	-3.021400	3.324400	-10.043000	26.343455	0.000587	20.789630
1656.460399	-3.023800	3.323800	-10.050000	26.360415	0.000586	20.785338
1657.462618	-3.004600	3.323400	-9.984300	26.405631	0.000588	20.781944
1658.455636	-2.994800	3.324300	-9.952900	26.402947	0.000587	20.780194
1659.459962	-2.992800	3.324500	-9.947900	26.364014	0.000585	20.791326
1660.457788	-3.003300	3.324500	-9.983500	26.388769	0.000586	20.792498
1661.458259	-3.008600	3.322500	-9.995200	26.362001	0.000583	20.781717
1662.454258	-2.998500	3.323100	-9.963400	26.355471	0.000583	20.798861
1663.459181	-3.008500	3.323200	-9.995900	26.358300	0.000584	20.787006
1664.462991	-2.989900	3.322500	-9.933100	26.367388	0.000582	20.813209
1665.460010	-2.997700	3.321600	-9.956000	26.406719	0.000583	20.787305
1666.460727	-3.018100	3.321700	-10.025000	26.480608	0.000583	20.790923
1667.457078	-3.004600	3.322700	-9.981700	26.465214	0.000581	20.798208
1668.457921	-3.011400	3.321000	-9.998900	26.463797	0.000579	20.791095
1669.457482	-3.019600	3.319500	-10.023000	26.468143	0.000580	20.787877
1670.461563	-2.995400	3.321400	-9.948200	26.493516	0.000581	20.800104
1671.459790	-3.008100	3.319500	-9.984300	26.497811	0.000579	20.802524
1672.464911	-2.953100	3.320600	-9.804100	26.507741	0.000577	20.814876
1673.467191	-3.011100	3.318700	-9.991900	26.469903	0.000576	20.817146
1674.466344	-3.009400	3.318300	-9.984200	26.463448	0.000575	20.794537
1675.468959	-2.977000	3.319200	-9.879700	26.446812	0.000576	20.816222
1676.466823	-2.990900	3.317100	-9.920500	26.485915	0.000577	20.802895
1677.464528	-3.015400	3.316800	-10.000000	26.526906	0.000573	20.796208
1678.461769	-3.002700	3.315500	-9.954500	26.602104	0.000574	20.819641
1679.466803	-3.003600	3.317000	-9.962600	26.618959	0.000573	20.804817
1680.465954	-3.007600	3.315700	-9.971800	26.644949	0.000572	20.818142
1681.465543	-2.996600	3.314500	-9.931400	26.702092	0.000572	20.791190
1682.467581	-2.988700	3.316300	-9.910400	26.679355	0.000572	20.807211
1683.461837	-2.996700	3.315500	-9.934900	26.677443	0.000569	20.808609
1684.464630	-2.987100	3.314600	-9.898300	26.625934	0.000571	20.806613
1685.464949	-3.023600	3.313300	-10.018000	26.650584	0.000569	20.805315
1686.467937	-2.987000	3.314700	-9.899600	26.655474	0.000568	20.815446
1687.469226	-2.995600	3.313300	-9.924500	26.708819	0.000568	20.795108
1688.467969	-3.003400	3.312400	-9.946800	26.751091	0.000565	20.806312
1689.469120	-3.012000	3.312000	-9.974000	26.788794	0.000567	20.792537
1690.465424	-2.974700	3.312900	-9.854000	26.777675	0.000564	20.816918
1691.465764	-3.026700	3.310800	-10.019000	26.763551	0.000565	20.805564
1692.473660	-3.027600	3.309900	-10.020000	26.771668	0.000565	20.811353
1693.470959	-2.986900	3.310500	-9.887900	26.795372	0.000562	20.799151
1694.469765	-2.975400	3.310900	-9.850100	26.798326	0.000563	20.813500
1695.467252	-2.981700	3.310800	-9.870900	26.829501	0.000560	20.821611
1696.466924	-2.997100	3.310100	-9.918500	26.825953	0.000561	20.812354
1697.474484	-2.986500	3.311000	-9.886600	26.817191	0.000562	20.802996
1698.465518	-2.989800	3.309500	-9.892300	26.858739	0.000560	20.808810
1699.471293	-3.004000	3.309100	-9.938700	26.866856	0.000557	20.815549
1700.470495	-2.992300	3.308700	-9.900100	26.848441	0.000558	20.810309
1701.472385	-3.000500	3.308700	-9.926800	26.836156	0.000557	20.814753
1702.467236	-3.009200	3.307500	-9.950700	26.832930	0.000556	20.807516
1703.472719	-2.987200	3.308300	-9.881500	26.867579	0.000556	20.828580
1704.475460	-2.987000	3.306900	-9.877100	26.871153	0.000554	20.791122
1705.471778	-3.005000	3.307300	-9.937600	26.920122	0.000554	20.816952
1706.473567	-2.998000	3.306500	-9.911400	26.912404	0.000553	20.833623
1707.469459	-3.012300	3.305400	-9.955700	26.952163	0.000554	20.803179
1708.479707	-3.012600	3.305100	-9.954900	26.940772	0.000554	20.831953
1709.487339	-3.008600	3.305000	-9.942900	26.920673	0.000552	20.817980
1710.480073	-3.017500	3.303200	-9.965400	26.941619	0.000550	20.804904
1711.491399	-2.996500	3.305300	-9.903500	26.956312	0.000551	20.818730
1712.477827	-2.997700	3.302700	-9.899100	26.931247	0.000550	20.798268
1713.478857	-3.012300	3.303800	-9.951000	26.930033	0.000549	20.813642
1714.483984	-3.018900	3.302800	-9.969700	26.902833	0.000548	20.810000
1715.477741	-2.988900	3.303000	-9.872000	26.876378	0.000549	20.805209
1716.473896	-2.981700	3.303300	-9.848500	26.892140	0.000548	20.818213
1717.482865	-2.984700	3.303600	-9.859700	26.880749	0.000547	20.821932
1718.480186	-2.997400	3.300700	-9.892500	26.897850	0.000547	20.819213
1719.479963	-2.997900	3.303200	-9.900400	26.920039	0.000546	20.826352
1720.481118	-3.014400	3.299000	-9.943400	26.925550	0.000546	20.824781
1721.484882	-2.985500	3.301400	-9.855500	26.960668	0.000546	20.814577
1722.477981	-3.008300	3.299200	-9.922900	26.976353	0.000545	20.813754
1723.490336	-2.994700	3.299800	-9.880600	26.986207	0.000544	20.803749
1724.485005	-3.016400	3.300600	-9.954300	26.978565	0.000543	20.815030
1725.482129	-3.000600	3.298400	-9.896000	26.961145	0.000542	20.807944
1726.489318	-3.020000	3.297600	-9.958100	26.961619	0.000542	20.826912
1727.484719	-2.988600	3.301200	-9.864900	26.944347	0.000542	20.815708
1728.482950	-2.988400	3.299000	-9.857300	26.946881	0.000542	20.817782
1729.487023	-2.983700	3.297800	-9.837800	26.969019	0.000542	20.807802
1730.484241	-3.009200	3.296800	-9.919100	26.975349	0.000541	20.817012
1731.482278	-3.005900	3.297400	-9.910600	26.945098	0.000538	20.829265
1732.487206	-2.996800	3.295500	-9.873800	26.942817	0.000540	20.819385
1733.484029	-2.993600	3.295700	-9.864400	26.902862	0.000537	20.804339
1734.485341	-2.996500	3.294600	-9.870700	26.907430	0.000540	20.821260
1735.484679	-3.008100	3.294600	-9.909600	26.910856	0.000539	20.832291
1736.489418	-3.004100	3.294300	-9.895000	26.935229	0.000538	20.808436
1737.482763	-2.993900	3.294600	-9.862200	26.910835	0.000535	20.817571
1738.486944	-2.992800	3.295900	-9.863000	26.918579	0.000535	20.839582
1739.496569	-3.005300	3.293100	-9.895000	26.915007	0.000537	20.825085
1740.488390	-3.006000	3.292300	-9.895700	26.921486	0.000534	20.794142
1741.488544	-2.993500	3.293800	-9.859500	26.906770	0.000534	20.813484
1742.484180	-3.008300	3.292300	-9.902900	26.869644	0.000533	20.822146
1743.488328	-2.997300	3.292400	-9.866800	26.874039	0.000533	20.824668
1744.490322	-3.010100	3.291600	-9.907200	26.887444	0.000531	20.822975
1745.485195	-2.994600	3.291500	-9.855400	26.893253	0.000532	20.817910
1746.485599	-2.999800	3.290900	-9.871500	26.887223	0.000531	20.829390
1747.502871	-2.998600	3.290300	-9.864800	26.885935	0.000530	20.824301
1748.488717	-2.999000	3.292000	-9.870200	26.909861	0.000530	20.834609
1749.486228	-2.984400	3.289600	-9.816200	26.961807	0.000529	20.828998
1750.484272	-2.981900	3.290300	-9.810500	26.972306	0.000528	20.813951
1751.486934	-2.990700	3.291300	-9.842100	26.963920	0.000528	20.819743
1752.486004	-3.023300	3.288200	-9.938600	26.956627	0.000528	20.821418
1753.489328	-3.017900	3.287700	-9.920000	26.957919	0.000525	20.816080
1754.494383	-3.015300	3.287000	-9.909400	26.887092	0.000527	20.820724
1755.486522	-2.986400	3.288800	-9.820600	26.880194	0.000524	20.804779
1756.486259	-2.993400	3.287100	-9.838800	26.839245	0.000524	20.815287
1757.499858	-3.001900	3.287900	-9.869000	26.812219	0.000523	20.823675
1758.492607	-2.992600	3.286300	-9.833800	26.819295	0.000524	20.814669
1759.491668	-2.992200	3.286100	-9.831500	26.862508	0.000524	20.819712
1760.493752	-2.980900	3.287600	-9.797900	26.864744	0.000522	20.822434
1761.490170	-3.032900	3.284400	-9.960400	26.923020	0.000521	20.815125
1762.497952	-3.010900	3.285700	-9.892400	26.934861	0.000521	20.813755
1763.487663	-2.991300	3.285500	-9.825700	26.959555	0.000520	20.819147
1764.488379	-2.983000	3.285600	-9.799900	26.961368	0.000520	20.834246
1765.487408	-3.007800	3.284300	-9.878500	26.978347	0.000518	20.805327
1766.491820	-2.998200	3.284600	-9.845700	26.986909	0.000520	20.826740
1767.497386	-3.005300	3.284100	-9.868400	27.020041	0.000519	20.820229
1768.488431	-3.024700	3.282700	-9.928200	26.971702	0.000517	20.831835
1769.494330	-3.000500	3.283400	-9.850700	27.011781	0.000517	20.813819
1770.492118	-2.997900	3.281700	-9.836900	27.016075	0.000517	20.817664
1771.493095	-3.023800	3.278800	-9.913600	27.014688	0.000517	20.829545
1772.493742	-2.970400	3.282700	-9.750100	27.034194	0.000516	20.831143
1773.493144	-2.989700	3.280400	-9.806700	27.010224	0.000516	20.828374
1774.491786	-3.016500	3.280800	-9.894900	26.999381	0.000515	20.809410
1775.499574	-3.021300	3.279600	-9.907700	27.011193	0.000514	20.840728
1776.495723	-3.003100	3.278700	-9.845300	26.978164	0.000514	20.821739
1777.494074	-2.997000	3.279800	-9.829400	26.957518	0.000514	20.818996
1778.494459	-3.025400	3.278600	-9.917800	26.940444	0.000513	20.827905
1779.497508	-3.006500	3.278300	-9.855000	26.935332	0.000512	20.819919
1780.496489	-3.016400	3.276900	-9.882800	26.908233	0.000510	20.840559
1781.496213	-3.000100	3.278000	-9.833300	26.918335	0.000512	20.850716
1782.502065	-2.998200	3.276500	-9.822600	26.950771	0.000511	20.835918
1783.494032	-2.992300	3.277300	-9.805500	26.975961	0.000509	20.827584
1784.499526	-2.982000	3.279000	-9.776800	26.965812	0.000508	20.814534
1785.495234	-3.000000	3.276800	-9.829500	27.007430	0.000509	20.848323
1786.502977	-2.986400	3.277800	-9.786900	27.028945	0.000509	20.843408
1787.499496	-2.990200	3.276700	-9.796800	27.043538	0.000509	20.830583
1788.503447	-2.989300	3.275600	-9.789400	27.057981	0.000505	20.823771
1789.494561	-3.009000	3.274600	-9.850500	27.102374	0.000505	20.830011
1790.494881	-3.005200	3.274600	-9.839700	27.097091	0.000503	20.832758
1791.501908	-3.009800	3.274200	-9.853100	27.078877	0.000503	20.841466
1792.506438	-3.002000	3.274200	-9.826900	27.056322	0.000501	20.834904
1793.497500	-3.003400	3.274100	-9.831000	27.083842	0.000501	20.846459
1794.494749	-3.003800	3.275200	-9.836300	27.078484	0.000502	20.833959
1795.493800	-2.995500	3.272300	-9.801700	27.079999	0.000501	20.823629
1796.499235	-2.992000	3.272000	-9.789000	27.100249	0.000500	20.842571
1797.502532	-2.995300	3.271900	-9.799300	27.123150	0.000500	20.842371
1798.495631	-2.982400	3.273300	-9.760600	27.159006	0.000500	20.839078
1799.499306	-3.010100	3.271000	-9.844300	27.183945	0.000499	20.848988
1800.499080	-2.972600	3.273600	-9.730500	27.173772	0.000498	20.858196
1801.499352	-3.003600	3.270600	-9.822300	27.178191	0.000498	20.846520
1802.503007	-3.000000	3.269700	-9.808600	27.218213	0.000497	20.845998
1803.495514	-3.020000	3.270300	-9.874600	27.235803	0.000496	20.836190
1804.501794	-3.007500	3.270400	-9.834500	27.203080	0.000495	20.835993
1805.506707	-3.000400	3.270300	-9.811200	27.177600	0.000494	20.836918
1806.506053	-3.008500	3.268900	-9.832900	27.185118	0.000494	20.852539
1807.500635	-3.009200	3.268100	-9.833700	27.178919	0.000494	20.852468
1808.507337	-3.016700	3.266800	-9.853100	27.206559	0.000495	20.842337
1809.499791	-3.019800	3.265400	-9.859500	27.241891	0.000493	20.837572
1810.497207	-2.974100	3.268400	-9.719000	27.234797	0.000492	20.854618
1811.508736	-2.999600	3.266200	-9.796100	27.209318	0.000491	20.837526
1812.504274	-3.023900	3.265600	-9.873900	27.215870	0.000492	20.849805
1813.503736	-2.998400	3.268500	-9.799100	27.264178	0.000491	20.834860
1814.500383	-3.013700	3.265000	-9.838100	27.263584	0.000490	20.850383
1815.502520	-3.009800	3.265400	-9.827700	27.275568	0.000490	20.848687
1816.501670	-3.010000	3.265200	-9.826200	27.302885	0.000491	20.847716
1817.507054	-3.018900	3.264600	-9.854200	27.315636	0.000490	20.861491
1818.501047	-3.011900	3.263500	-9.828100	27.337643	0.000490	20.865136
1819.504452	-2.988000	3.264300	-9.752700	27.334990	0.000488	20.866734
1820.502588	-3.017900	3.262600	-9.843600	27.288971	0.000489	20.850315
1821.503155	-3.013300	3.262100	-9.828700	27.257216	0.000485	20.866736
1822.504712	-2.992400	3.262900	-9.762400	27.224690	0.000488	20.840658
1823.507120	-2.968700	3.262900	-9.685500	27.213948	0.000487	20.854035
1824.500706	-2.996800	3.261900	-9.774200	27.234244	0.000486	20.842209
1825.501564	-2.996000	3.261700	-9.771000	27.264638	0.000483	20.853813
1826.508068	-3.011600	3.260100	-9.816100	27.218985	0.000484	20.852464
1827.504734	-2.999800	3.260900	-9.781300	27.234666	0.000483	20.854486
1828.501243	-2.997900	3.258800	-9.768700	27.211940	0.000481	20.848223
1829.504470	-3.005900	3.259300	-9.796100	27.224693	0.000481	20.871954
1830.506571	-3.027000	3.258200	-9.861300	27.209758	0.000482	20.868786
1831.510879	-3.003900	3.258400	-9.787200	27.188098	0.000480	20.856958
1832.511900	-2.992200	3.258200	-9.747900	27.142618	0.000479	20.858631
1833.503848	-2.991600	3.258700	-9.746900	27.125895	0.000479	20.854614
1834.509046	-3.009600	3.257500	-9.802600	27.099197	0.000479	20.852893
1835.509650	-2.985000	3.259200	-9.726900	27.054657	0.000478	20.860729
1836.505056	-3.003200	3.256500	-9.779100	27.043862	0.000477	20.856038
1837.512824	-3.004700	3.256300	-9.783200	27.033788	0.000477	20.870562
1838.511688	-2.992600	3.256900	-9.745500	27.018949	0.000477	20.883139
1839.519938	-3.004400	3.256100	-9.781800	26.983984	0.000477	20.874531
1840.513120	-3.004000	3.254600	-9.775100	26.994977	0.000475	20.876102
1841.516864	-2.991000	3.255400	-9.735800	27.033094	0.000474	20.872234
1842.520273	-2.993400	3.254700	-9.741500	27.063468	0.000475	20.881443
1843.512057	-3.002600	3.254300	-9.770400	27.098778	0.000474	20.877127
1844.514673	-3.010600	3.252500	-9.791200	27.146421	0.000475	20.885213
1845.506206	-2.990700	3.253100	-9.728400	27.137538	0.000474	20.887184
1846.516634	-3.000000	3.252800	-9.756800	27.110517	0.000474	20.877553
1847.510011	-3.002200	3.252800	-9.763900	27.091957	0.000473	20.885913
1848.509625	-2.983400	3.252100	-9.701100	27.087416	0.000471	20.890354
1849.519209	-3.009500	3.250400	-9.780000	27.114437	0.000472	20.893348
1850.523735	-3.011300	3.252600	-9.793000	27.134610	0.000472	20.872387
1851.512063	-2.992500	3.252100	-9.729800	27.151485	0.000469	20.892202
1852.518378	-2.991600	3.252000	-9.726600	27.208624	0.000470	20.889455
1853.512557	-2.991500	3.252000	-9.727200	27.229168	0.000468	20.875981
1854.510391	-3.022300	3.249500	-9.819900	27.255566	0.000467	20.883093
1855.515894	-2.999000	3.250200	-9.746500	27.295013	0.000465	20.886263
1856.515189	-3.002900	3.249000	-9.755100	27.337983	0.000464	20.880175
1857.528108	-3.000600	3.249200	-9.748400	27.395659	0.000463	20.900736
1858.534995	-3.030800	3.246700	-9.839800	27.393006	0.000462	20.884318
1859.513126	-3.014400	3.247800	-9.789200	27.419377	0.000462	20.881450
1860.514114	-2.996400	3.247800	-9.731000	27.448522	0.000461	20.875210
1861.522666	-2.996800	3.247400	-9.730700	27.407719	0.000458	20.884895
1862.517168	-2.987300	3.247500	-9.700800	27.400427	0.000460	20.871396
1863.512012	-2.992800	3.248100	-9.719600	27.396706	0.000458	20.870023
1864.521715	-3.002500	3.247100	-9.748700	27.392068	0.000457	20.871048
1865.509236	-2.982600	3.246300	-9.680000	27.383959	0.000457	20.868579
1866.514410	-2.984100	3.245900	-9.685300	27.415885	0.000456	20.857550
1867.513483	-2.990400	3.245200	-9.703400	27.405417	0.000456	20.870252
1868.524403	-2.992500	3.244500	-9.707300	27.439477	0.000454	20.869430
1869.516878	-2.994200	3.245100	-9.715100	27.447937	0.000454	20.885527
1870.512373	-3.004200	3.244800	-9.747200	27.435214	0.000453	20.869883
1871.512203	-2.995500	3.243200	-9.713400	27.446949	0.000454	20.884058
1872.515091	-3.015500	3.242300	-9.775800	27.412792	0.000449	20.855387
1873.517972	-3.002600	3.244300	-9.739900	27.440850	0.000450	20.864647
1874.533182	-3.013700	3.242400	-9.771500	27.422372	0.000452	20.864076
1875.519562	-3.005200	3.241900	-9.741500	27.419842	0.000449	20.878125
1876.514884	-2.999300	3.240200	-9.716900	27.406225	0.000450	20.856367
1877.522212	-3.004700	3.241100	-9.737400	27.425872	0.000447	20.878028
1878.520145	-3.028700	3.238300	-9.806200	27.365075	0.000447	20.853377
1879.528044	-3.031900	3.240000	-9.821900	27.399558	0.000446	20.855824
1880.519248	-2.973900	3.240900	-9.636700	27.414245	0.000445	20.842150
1881.522018	-3.020300	3.237300	-9.775300	27.451752	0.000445	20.853330
1882.527462	-3.018300	3.237300	-9.770500	27.413381	0.000444	20.855506
1883.520713	-2.999600	3.238000	-9.712300	27.417228	0.000444	20.840884
1884.522164	-3.012100	3.237100	-9.748900	27.427846	0.000445	20.857729
1885.519027	-2.998900	3.237500	-9.706600	27.450445	0.000444	20.846801
1886.518458	-3.015000	3.235800	-9.755600	27.482222	0.000442	20.849846
1887.521852	-3.007700	3.235300	-9.729500	27.524764	0.000442	20.858034
1888.527190	-2.993400	3.236000	-9.685700	27.497183	0.000443	20.850200
1889.528058	-2.986500	3.235700	-9.662200	27.433932	0.000442	20.844887
1890.521521	-3.010300	3.235400	-9.738500	27.371419	0.000442	20.859759
1891.521085	-2.976000	3.236300	-9.630000	27.323741	0.000439	20.844040
1892.531015	-2.988300	3.234400	-9.663200	27.345423	0.000440	20.842617
1893.522866	-3.024700	3.233400	-9.779000	27.350091	0.000439	20.850631
1894.524644	-2.988500	3.234200	-9.663600	27.323794	0.000439	20.863058
1895.522448	-3.001300	3.233300	-9.703100	27.333917	0.000438	20.849060
1896.529197	-2.993600	3.233500	-9.678500	27.305833	0.000437	20.829819
1897.530726	-3.016700	3.232300	-9.750100	27.319306	0.000435	20.832941
1898.526751	-3.005300	3.232300	-9.713800	27.346943	0.000436	20.822336
1899.525856	-2.976700	3.233800	-9.623700	27.370982	0.000436	20.837508
1900.526153	-3.006800	3.232400	-9.717900	27.409708	0.000435	20.812931
1901.527452	-2.999900	3.231500	-9.691800	27.449916	0.000435	20.850062
1902.527270	-3.017400	3.231300	-9.748500	27.442128	0.000434	20.841279
1903.535252	-3.022400	3.230400	-9.762200	27.444285	0.000432	20.821164
1904.527830	-2.999200	3.230300	-9.687200	27.447759	0.000433	20.827504
1905.531891	-2.967700	3.231100	-9.587900	27.415636	0.000432	20.829326
1906.530217	-2.991700	3.230000	-9.662000	27.406755	0.000430	20.827504
1907.535974	-3.013600	3.228300	-9.727100	27.406605	0.000431	20.841577
1908.526103	-3.015500	3.227900	-9.732400	27.430443	0.000431	20.831419
1909.532555	-3.036800	3.227200	-9.798500	27.418508	0.000430	20.826525
1910.530104	-3.008600	3.226900	-9.707400	27.375271	0.000429	20.829970
1911.536138	-3.027600	3.227000	-9.769200	27.387847	0.000428	20.847836
1912.531870	-3.008800	3.226300	-9.706000	27.395512	0.000426	20.831366
1913.529534	-2.950500	3.228400	-9.524500	27.392186	0.000426	20.816167
1914.529994	-3.002400	3.226700	-9.686900	27.388663	0.000425	20.827321
1915.534728	-3.004700	3.225300	-9.689900	27.368072	0.000423	20.831263
1916.537051	-3.019800	3.224800	-9.737800	27.381939	0.000423	20.838574
1917.540623	-2.995700	3.224600	-9.659100	27.409870	0.000423	20.828267
1918.536181	-2.980800	3.224000	-9.609300	27.432317	0.000422	20.827615
1919.533865	-3.002800	3.223500	-9.678500	27.463896	0.000421	20.811022
1920.535553	-2.999100	3.225500	-9.671700	27.449060	0.000420	20.829286
1921.538163	-2.989700	3.223400	-9.635000	27.425272	0.000418	20.830485
1922.542033	-3.007800	3.223300	-9.693400	27.420979	0.000418	20.813364
1923.535491	-3.021400	3.221900	-9.733100	27.440578	0.000418	20.836400
1924.537958	-3.033000	3.220100	-9.764900	27.449828	0.000416	20.798291
1925.538394	-3.025900	3.220700	-9.744200	27.428322	0.000416	20.835924
1926.531732	-3.006700	3.221800	-9.686100	27.420160	0.000415	20.810170
1927.533602	-3.006600	3.220000	-9.679300	27.462625	0.000414	20.824916
1928.537788	-3.020500	3.219300	-9.723100	27.430975	0.000415	20.836223
1929.535477	-2.997400	3.219600	-9.649200	27.462849	0.000415	20.830357
1930.533970	-3.006400	3.219100	-9.676800	27.457739	0.000413	20.826164
1931.532953	-3.019800	3.218700	-9.719200	27.444292	0.000414	20.809791
1932.534180	-3.015300	3.218200	-9.702200	27.411201	0.000413	20.838140
1933.537833	-3.021300	3.216500	-9.716300	27.386843	0.000412	20.831179
1934.532057	-3.024100	3.216800	-9.726800	27.394257	0.000412	20.812086
1935.531478	-3.020100	3.217300	-9.714700	27.385077	0.000411	20.819921
1936.531480	-2.983500	3.217500	-9.597600	27.383688	0.000410	20.834644
1937.538928	-3.001600	3.215900	-9.652300	27.404126	0.000410	20.822014
1938.532690	-3.025600	3.214800	-9.726100	27.429674	0.000408	20.817370
1939.535764	-2.988800	3.217200	-9.615000	27.435849	0.000408	20.830220
1940.535434	-2.977200	3.216700	-9.576000	27.492405	0.000408	20.824531
1941.536147	-3.024600	3.214400	-9.720700	27.504905	0.000408	20.839478
1942.541887	-2.984700	3.213700	-9.591100	27.496768	0.000406	20.811377
1943.537026	-2.994300	3.212200	-9.617300	27.529333	0.000406	20.820434
1944.546599	-3.012400	3.213800	-9.678700	27.587866	0.000406	20.812471
1945.533492	-2.994900	3.213000	-9.621000	27.636450	0.000406	20.839545
1946.536525	-2.986000	3.213400	-9.593500	27.632407	0.000403	20.825046
1947.551900	-3.023600	3.211900	-9.709700	27.604354	0.000403	20.811043
1948.541440	-3.007400	3.211000	-9.655200	27.592968	0.000402	20.813338
1949.540798	-3.008500	3.211000	-9.659100	27.602564	0.000401	20.814933
1950.538627	-2.983300	3.211100	-9.578700	27.603952	0.000402	20.815380
1951.539703	-2.995300	3.208700	-9.609800	27.625378	0.000398	20.826508
1952.538710	-3.008800	3.209500	-9.654800	27.649458	0.000398	20.809486
1953.546590	-2.980400	3.210300	-9.565700	27.613320	0.000398	20.807737
1954.534447	-2.954100	3.212200	-9.487900	27.658928	0.000398	20.808110
1955.543348	-2.962500	3.209700	-9.507300	27.678395	0.000396	20.821536
1956.540522	-3.000400	3.207000	-9.621700	27.704458	0.000395	20.834959
1957.538102	-3.002200	3.207000	-9.627500	27.725658	0.000395	20.807455
1958.539586	-2.992000	3.207800	-9.596200	27.782967	0.000393	20.832411
1959.539402	-2.997300	3.207300	-9.612400	27.815993	0.000393	20.815388
1960.546675	-2.995600	3.206700	-9.604000	27.832705	0.000394	20.817034
1961.540020	-3.015400	3.207400	-9.670200	27.830200	0.000393	20.830159
1962.545414	-3.027600	3.205500	-9.704100	27.839917	0.000390	20.823818
1963.539528	-3.020100	3.203800	-9.674800	27.816137	0.000392	20.811265
1964.539681	-2.986700	3.205100	-9.572000	27.817944	0.000391	20.810239
1965.544214	-3.001200	3.203900	-9.614200	27.823423	0.000391	20.807692
1966.537528	-2.996700	3.205100	-9.603900	27.820272	0.000388	20.819219
1967.537344	-2.995300	3.203900	-9.595100	27.848735	0.000387	20.826055
1968.542152	-2.996100	3.203200	-9.596300	27.851859	0.000386	20.828250
1969.545351	-3.006700	3.203200	-9.629900	27.838120	0.000386	20.822958
1970.539185	-2.998700	3.201500	-9.599100	27.753831	0.000385	20.819211
1971.561978	-2.983500	3.201900	-9.552700	27.732230	0.000383	20.815965
1972.541456	-3.025300	3.201000	-9.683100	27.730072	0.000382	20.800517
1973.542362	-3.011400	3.201500	-9.639900	27.772277	0.000383	20.804110
1974.541360	-3.014200	3.200000	-9.644400	27.736714	0.000383	20.818107
1975.542420	-2.982900	3.200500	-9.545800	27.761312	0.000381	20.802558
1976.544455	-3.000300	3.199000	-9.597000	27.791440	0.000380	20.816756
1977.544977	-2.987800	3.200400	-9.561300	27.838775	0.000380	20.814134
1978.542279	-3.021700	3.197500	-9.661200	27.879042	0.000378	20.809142
1979.541647	-2.980700	3.198500	-9.532600	27.878817	0.000379	20.804648
1980.544458	-3.012600	3.197200	-9.630400	27.894065	0.000377	20.819520
1981.540318	-2.999800	3.197200	-9.590000	27.898898	0.000376	20.817747
1982.541690	-3.034700	3.195400	-9.695600	27.925277	0.000376	20.805890
1983.541879	-3.024200	3.195700	-9.663600	27.916771	0.000375	20.811553
1984.544012	-3.002500	3.194600	-9.590900	27.916224	0.000374	20.797253
1985.541995	-2.996700	3.195000	-9.574000	27.934992	0.000373	20.817091
1986.544248	-2.981800	3.195300	-9.527200	27.938436	0.000371	20.801591
1987.544569	-3.005600	3.194300	-9.599200	27.915872	0.000371	20.806381
1988.552335	-3.007500	3.192900	-9.601500	27.890953	0.000370	20.807379
1989.543036	-2.995100	3.194200	-9.566100	27.893058	0.000370	20.805705
1990.545691	-2.965600	3.196000	-9.476800	27.884900	0.000368	20.815037
1991.550508	-3.015500	3.192500	-9.625100	27.836795	0.000368	20.810244
1992.552709	-2.999000	3.192300	-9.572300	27.833965	0.000367	20.823992
1993.554249	-3.027600	3.190400	-9.658400	27.839319	0.000368	20.798560
1994.543963	-3.006400	3.191200	-9.593000	27.864437	0.000365	20.806770
1995.552642	-2.961900	3.191500	-9.451800	27.882387	0.000365	20.812982
1996.547415	-2.999900	3.191800	-9.573500	27.874154	0.000364	20.820817
1997.552925	-3.023000	3.187500	-9.634200	27.865968	0.000364	20.809259
1998.547581	-2.974300	3.188600	-9.482600	27.872489	0.000363	20.806814
1999.545978	-2.985400	3.188600	-9.517900	27.855824	0.000362	20.814697
2000.551185	-2.992400	3.188500	-9.540600	27.843300	0.000360	20.813473
2001.549939	-3.006000	3.190300	-9.589000	27.807990	0.000358	20.817291
2002.545088	-2.985300	3.189300	-9.520600	27.803450	0.000357	20.812722
2003.545836	-2.997200	3.187900	-9.552400	27.771386	0.000357	20.825023
2004.555319	-2.988800	3.187000	-9.524100	27.753407	0.000357	20.798871
2005.547499	-3.007800	3.184300	-9.577000	27.759951	0.000354	20.796447
2006.549887	-3.013400	3.184500	-9.594700	27.741526	0.000352	20.802561
2007.550422	-2.983900	3.185000	-9.502900	27.707773	0.000353	20.807476
2008.553145	-2.980800	3.184100	-9.490200	27.712732	0.000352	20.811992
2009.557544	-3.006500	3.183900	-9.570700	27.733861	0.000351	20.815710
2010.549324	-2.974700	3.185500	-9.474600	27.757072	0.000349	20.811567
2011.558366	-3.007200	3.183900	-9.572900	27.822883	0.000350	20.796244
2012.552561	-3.000800	3.181600	-9.546700	27.802053	0.000348	20.799462
2013.557016	-3.003500	3.182500	-9.557100	27.811750	0.000347	20.796894
2014.560018	-3.012400	3.181200	-9.581900	27.842819	0.000346	20.800661
2015.567596	-3.005100	3.182300	-9.561400	27.789951	0.000346	20.817629
2016.567514	-2.995400	3.181600	-9.529100	27.752184	0.000344	20.802856
2017.562067	-2.956000	3.181300	-9.402400	27.693610	0.000343	20.796542
2018.560727	-2.987400	3.181200	-9.502300	27.641059	0.000342	20.808147
2019.557909	-2.992300	3.178700	-9.510300	27.639222	0.000340	20.806299
2020.569772	-3.016200	3.177100	-9.581600	27.658220	0.000342	20.796967
2021.563159	-3.007900	3.178200	-9.558700	27.715087	0.000340	20.817206
2022.559616	-3.026200	3.177900	-9.615000	27.773586	0.000341	20.801160
2023.568815	-2.998500	3.179400	-9.532300	27.768601	0.000342	20.801359
2024.568052	-2.991200	3.178600	-9.506600	27.719202	0.000340	20.789579
2025.558143	-3.011500	3.177000	-9.567000	27.682252	0.000339	20.806450
2026.565228	-2.991700	3.175700	-9.500100	27.638231	0.000338	20.774482
2027.572615	-3.012800	3.175100	-9.565000	27.682252	0.000338	20.796493
2028.569875	-3.012900	3.175100	-9.565200	27.703951	0.000337	20.779922
2029.569217	-3.015600	3.174100	-9.570900	27.763466	0.000335	20.787182
2030.564647	-2.986000	3.174800	-9.479100	27.787869	0.000336	20.803680
2031.566266	-2.994900	3.173800	-9.503800	27.825264	0.000335	20.773509
2032.568541	-3.015800	3.171800	-9.564800	27.800267	0.000335	20.792449
2033.566012	-3.006000	3.172000	-9.534000	27.779983	0.000333	20.787209
2034.574258	-2.988300	3.173300	-9.480800	27.763814	0.000332	20.801757
2035.564888	-2.997000	3.170900	-9.502400	27.771476	0.000332	20.784812
2036.577169	-2.992600	3.172700	-9.493500	27.769839	0.000329	20.794069
2037.566004	-3.006600	3.169200	-9.527700	27.754068	0.000328	20.771560
2038.572843	-3.021400	3.168700	-9.573400	27.754786	0.000329	20.790301
2039.566011	-2.984500	3.169700	-9.458400	27.822457	0.000327	20.796764
2040.568298	-2.996200	3.168000	-9.491300	27.843535	0.000326	20.784785
2041.571802	-3.001700	3.167500	-9.506200	27.891811	0.000327	20.774578
2042.568351	-3.013600	3.167800	-9.545500	27.919903	0.000326	20.775350
2043.567486	-2.990000	3.167200	-9.468900	27.948043	0.000323	20.781389
2044.572983	-2.992500	3.167000	-9.476200	27.952778	0.000325	20.784733
2045.567626	-2.999300	3.166400	-9.496000	28.009726	0.000325	20.770457
2046.564583	-2.999500	3.164600	-9.491400	27.985182	0.000325	20.783209
2047.578580	-3.009000	3.165000	-9.521600	27.923296	0.000321	20.786353
2048.567261	-2.995500	3.166000	-9.482300	27.884913	0.000321	20.787076
2049.570209	-2.994400	3.163600	-9.471900	27.904749	0.000320	20.774323
2050.571011	-3.008500	3.164000	-9.517600	27.906780	0.000319	20.778264
2051.571913	-2.988800	3.164200	-9.455000	27.914343	0.000320	20.783505
2052.572613	-2.982300	3.162900	-9.432100	27.843352	0.000319	20.776541
2053.570930	-2.967800	3.162500	-9.383900	27.834773	0.000315	20.766009
2054.565173	-2.997600	3.163000	-9.480500	27.817142	0.000319	20.772447
2055.567033	-3.010800	3.160100	-9.513800	27.841517	0.000315	20.763788
2056.571279	-2.985700	3.160600	-9.434200	27.875810	0.000314	20.785500
2057.568621	-2.997600	3.158500	-9.467500	27.893760	0.000313	20.795506
2058.570581	-2.989300	3.158500	-9.440900	27.871493	0.000313	20.763611
2059.576026	-3.009500	3.159600	-9.507700	27.859194	0.000310	20.763561
2060.574874	-2.997100	3.158700	-9.466100	27.905858	0.000308	20.789189
2061.572471	-3.005500	3.157700	-9.489700	27.922520	0.000309	20.781304
2062.571169	-3.007000	3.157000	-9.492300	27.945579	0.000308	20.761365
2063.571327	-3.009100	3.156100	-9.496000	27.942083	0.000308	20.781555
2064.570465	-3.005100	3.156400	-9.483600	27.933678	0.000305	20.761240
2065.573078	-2.994700	3.154900	-9.446500	27.954779	0.000306	20.760668
2066.575554	-2.958800	3.155400	-9.334600	27.977687	0.000305	20.771872
2067.577706	-2.987600	3.154300	-9.422300	28.021496	0.000305	20.771398
2068.572109	-2.982400	3.153600	-9.403700	28.073707	0.000304	20.762788
2069.576182	-2.994400	3.153700	-9.442700	28.099614	0.000304	20.757574
2070.575337	-3.013400	3.153000	-9.500000	28.107399	0.000302	20.762092
2071.579909	-2.986700	3.154700	-9.421400	28.054618	0.000302	20.754005
2072.576868	-3.001200	3.151600	-9.456800	28.010814	0.000301	20.753533
2073.577004	-3.011000	3.149800	-9.483300	27.948981	0.000300	20.762418
2074.576050	-3.011200	3.150200	-9.485200	27.897831	0.000300	20.769257
2075.574336	-2.994100	3.150300	-9.431800	27.808418	0.000298	20.751813
2076.573643	-3.013000	3.147400	-9.481700	27.777149	0.000299	20.751165
2077.575946	-2.981500	3.147600	-9.382500	27.778959	0.000300	20.755832
2078.583314	-2.985000	3.149600	-9.400200	27.836663	0.000299	20.750842
2079.588011	-2.993200	3.146100	-9.416100	27.898305	0.000299	20.774001
2080.587605	-2.978100	3.147500	-9.372100	27.923348	0.000298	20.770758
2081.580696	-2.985500	3.146800	-9.393800	27.926150	0.000296	20.730429
2082.580802	-3.009600	3.144900	-9.463300	27.950747	0.000297	20.749497
2083.587964	-2.986500	3.144200	-9.389400	27.959377	0.000296	20.743484
2084.577026	-2.986600	3.143600	-9.388100	27.999367	0.000294	20.755762
2085.576575	-2.999600	3.143000	-9.427300	27.921143	0.000295	20.758580
2086.581890	-3.011600	3.143800	-9.467300	27.898507	0.000293	20.761402
2087.579990	-2.994200	3.143700	-9.411200	27.910854	0.000293	20.750596
2088.581395	-3.000600	3.142200	-9.427000	27.881646	0.000294	20.767666
2089.583051	-3.012900	3.141000	-9.461300	27.869842	0.000292	20.743457
2090.584301	-3.016900	3.140100	-9.472500	27.910879	0.000292	20.746827
2091.581162	-2.997300	3.140100	-9.410400	27.962102	0.000292	20.755711
2092.591187	-2.981100	3.139800	-9.358700	27.997407	0.000291	20.747625
2093.579971	-2.988800	3.139800	-9.383300	28.038909	0.000292	20.747674
2094.598876	-3.000400	3.139000	-9.416700	28.103613	0.000289	20.770135
2095.584466	-3.024400	3.136800	-9.486000	28.148855	0.000289	20.736495
2096.579748	-3.012100	3.136700	-9.446400	28.213700	0.000290	20.736344
2097.583038	-2.984300	3.137800	-9.362200	28.210155	0.000288	20.748897
2098.583163	-2.996500	3.137100	-9.398500	28.226737	0.000288	20.725287
2099.590721	-2.996100	3.135800	-9.394300	28.256926	0.000287	20.735293
2100.582143	-2.996800	3.135300	-9.394000	28.303474	0.000285	20.750866
2101.590747	-2.993400	3.133200	-9.377800	28.322483	0.000287	20.755781
2102.583423	-2.967700	3.134500	-9.300900	28.352125	0.000285	20.735367
2103.584464	-3.015500	3.131900	-9.443100	28.346598	0.000285	20.756355
2104.589940	-3.014400	3.132800	-9.442500	28.374504	0.000282	20.739883
2105.588447	-3.027000	3.131000	-9.476200	28.381864	0.000282	20.740182
2106.590785	-3.008300	3.130500	-9.416700	28.391506	0.000281	20.734717
2107.585003	-3.011800	3.130200	-9.425800	28.389323	0.000282	20.743425
2108.594477	-3.014800	3.129900	-9.434800	28.322330	0.000281	20.719590
2109.590842	-3.000000	3.128400	-9.384200	28.277469	0.000279	20.737484
2110.594188	-3.007000	3.127700	-9.403500	28.203405	0.000278	20.737359
2111.587636	-2.989400	3.127400	-9.347000	28.167337	0.000279	20.738032
2112.588796	-2.980900	3.127900	-9.322700	28.151274	0.000278	20.728024
2113.584130	-2.998800	3.125500	-9.372000	28.126460	0.000279	20.741451
2114.585867	-2.978700	3.126800	-9.312700	28.158142	0.000276	20.749637
2115.592083	-3.024500	3.125100	-9.450800	28.177551	0.000274	20.744521
2116.587567	-3.015000	3.122700	-9.413100	28.156358	0.000274	20.726030
2117.600382	-3.006100	3.122900	-9.385800	28.176783	0.000272	20.729997
2118.587465	-3.004600	3.123600	-9.383600	28.222689	0.000272	20.735437
2119.585518	-3.005900	3.122000	-9.383500	28.286367	0.000273	20.749763
2120.591290	-3.003500	3.121200	-9.373600	28.341960	0.000270	20.727028
2121.589245	-3.006200	3.121800	-9.384100	28.356955	0.000270	20.733117
2122.587107	-2.996800	3.120900	-9.350900	28.370935	0.000269	20.751462
2123.591836	-2.979300	3.119300	-9.292400	28.397799	0.000268	20.754805
2124.590568	-2.990300	3.120000	-9.328700	28.423599	0.000268	20.736688
2125.589884	-2.976900	3.118400	-9.281800	28.425211	0.000267	20.734518
2126.595430	-2.988700	3.116800	-9.314000	28.385856	0.000267	20.741831
2127.588435	-2.984200	3.117600	-9.300900	28.363453	0.000265	20.740135
2128.587605	-3.002600	3.115600	-9.353300	28.354357	0.000266	20.743779
2129.591944	-3.012700	3.116100	-9.387000	28.372724	0.000266	20.731452
2130.591066	-3.004600	3.115600	-9.359800	28.361646	0.000264	20.744480
2131.591720	-3.016300	3.114800	-9.393600	28.380954	0.000262	20.751119
2132.596503	-3.005700	3.114100	-9.358300	28.356691	0.000260	20.734749
2133.592295	-3.011600	3.111500	-9.369400	28.317112	0.000264	20.752270
2134.591096	-3.005600	3.111900	-9.352200	28.238541	0.000259	20.737172
2135.596130	-2.981200	3.111300	-9.274300	28.211697	0.000261	20.758510
2136.590630	-3.014900	3.109400	-9.373400	28.185844	0.000259	20.738646
2137.597978	-3.008800	3.109200	-9.353500	28.203618	0.000258	20.747057
2138.589831	-2.966600	3.109200	-9.223500	28.215790	0.000258	20.755993
2139.593790	-2.995700	3.108700	-9.311400	28.232621	0.000258	20.757765
2140.592348	-2.989600	3.107500	-9.289000	28.279619	0.000256	20.756720
2141.593065	-2.989500	3.107100	-9.287500	28.299721	0.000256	20.726223
2142.598550	-2.992100	3.105600	-9.291400	28.346516	0.000257	20.734934
2143.596992	-2.997400	3.106000	-9.309100	28.336034	0.000257	20.750933
2144.594888	-3.035300	3.103100	-9.416500	28.362653	0.000257	20.748813
2145.595798	-2.976700	3.105100	-9.242200	28.324363	0.000256	20.737285
2146.593156	-3.005100	3.102500	-9.322500	28.316161	0.000256	20.729974
2147.591024	-3.006200	3.102300	-9.324600	28.334031	0.000254	20.716672
2148.596390	-2.998400	3.101000	-9.297200	28.328434	0.000252	20.754187
2149.591954	-2.992500	3.100600	-9.277000	28.326056	0.000251	20.720497
2150.596665	-3.018000	3.100000	-9.354800	28.356889	0.000254	20.720722
2151.598275	-2.989400	3.098600	-9.261800	28.353917	0.000253	20.740964
2152.593872	-3.002800	3.099300	-9.305900	28.344574	0.000253	20.727289
2153.595118	-3.000700	3.099000	-9.298200	28.331960	0.000251	20.740667
2154.591343	-2.993100	3.097600	-9.270300	28.331417	0.000251	20.732533
2155.596857	-3.000700	3.097500	-9.293400	28.372485	0.000249	20.730263
2156.591974	-3.012600	3.096100	-9.326200	28.382723	0.000252	20.730140
2157.592314	-3.008600	3.093900	-9.307700	28.398163	0.000248	20.728144
2158.590831	-2.997000	3.095200	-9.275400	28.365698	0.000250	20.733860
2159.593009	-3.009800	3.093800	-9.310400	28.337271	0.000246	20.738902
2160.591851	-3.005700	3.091700	-9.292000	28.297642	0.000247	20.733613
2161.592496	-3.019800	3.091400	-9.334500	28.208015	0.000247	20.742001
2162.593435	-3.026100	3.090400	-9.350100	28.167563	0.000246	20.729249
2163.592408	-2.995200	3.090300	-9.255700	28.132436	0.000245	20.727077
2164.594332	-3.043100	3.088500	-9.397000	28.091139	0.000246	20.746671
2165.595817	-3.014700	3.087600	-9.306300	28.137719	0.000246	20.749940
2166.599766	-3.025600	3.087600	-9.341300	28.141437	0.000244	20.728553
2167.593827	-3.024100	3.086500	-9.332500	28.190993	0.000242	20.745726
2168.597647	-3.030500	3.085600	-9.350700	28.197413	0.000243	20.731800
2169.597546	-2.995300	3.086900	-9.244700	28.257424	0.000242	20.745752
2170.601838	-2.997800	3.084500	-9.245300	28.303848	0.000242	20.747924
2171.598814	-2.992700	3.084800	-9.230900	28.346257	0.000243	20.767391
2172.602214	-3.016200	3.083100	-9.298800	28.342366	0.000242	20.760629
2173.604687	-2.991400	3.083000	-9.220800	28.326357	0.000241	20.740241
2174.598808	-2.994800	3.080400	-9.224100	28.388543	0.000240	20.736950
2175.600455	-2.992100	3.081300	-9.218700	28.413128	0.000241	20.751274
2176.594817	-3.009600	3.079100	-9.266100	28.474465	0.000240	20.746659
2177.599855	-3.024600	3.076700	-9.304800	28.504774	0.000240	20.760113
2178.601229	-2.972000	3.079100	-9.150300	28.561396	0.000240	20.766875
2179.599459	-2.996100	3.076700	-9.217100	28.595047	0.000238	20.744341
2180.603964	-3.030100	3.075800	-9.319500	28.636774	0.000240	20.761237
2181.597483	-2.996200	3.074700	-9.212000	28.654986	0.000238	20.754449
2182.598769	-3.012700	3.073200	-9.258100	28.672058	0.000238	20.754575
2183.597082	-3.003900	3.072300	-9.227800	28.613709	0.000241	20.754127
2184.596508	-2.980700	3.072700	-9.157900	28.535108	0.000237	20.744667
2185.600280	-2.989700	3.072800	-9.185900	28.486441	0.000236	20.748288
2186.600897	-3.001600	3.070100	-9.213800	28.413980	0.000237	20.745969
2187.603886	-2.980500	3.070600	-9.151200	28.366495	0.000236	20.739879
2188.602657	-2.969300	3.069900	-9.114300	28.316406	0.000236	20.762465
2189.597315	-3.022600	3.067800	-9.271100	28.254121	0.000237	20.749540
2190.602686	-3.017000	3.067100	-9.251300	28.203927	0.000237	20.751635
2191.599169	-2.984000	3.066300	-9.148800	28.181272	0.000234	20.745423
2192.598856	-2.989100	3.065700	-9.162400	28.170613	0.000235	20.781634
2193.609180	-2.992900	3.064600	-9.170600	28.218481	0.000236	20.737838
2194.600026	-2.988700	3.062100	-9.151100	28.245450	0.000235	20.746025
2195.607420	-2.994900	3.061900	-9.167800	28.232685	0.000233	20.763519
2196.604195	-2.981600	3.063000	-9.131400	28.242799	0.000232	20.751891
2197.601047	-2.997100	3.059800	-9.168900	28.291554	0.000230	20.762573
2198.598911	-2.975900	3.061100	-9.108300	28.322933	0.000231	20.762399
2199.605477	-3.002300	3.059300	-9.184000	28.365563	0.000231	20.764546
2200.603033	-2.974600	3.059400	-9.099000	28.388315	0.000231	20.756636
2201.603515	-2.994900	3.056700	-9.153100	28.376421	0.000231	20.726640
2202.609462	-2.984300	3.056700	-9.120300	28.350349	0.000231	20.768193
2203.614293	-3.017600	3.054100	-9.214400	28.311736	0.000231	20.757289
2204.604942	-2.989900	3.054700	-9.131500	28.278697	0.000230	20.771439
2205.600979	-2.986900	3.052500	-9.115400	28.236784	0.000230	20.747731
2206.613840	-2.995600	3.052300	-9.142700	28.215816	0.000230	20.766925
2207.609024	-3.007900	3.051100	-9.176700	28.223775	0.000231	20.748858
2208.605379	-2.989300	3.050400	-9.117100	28.256842	0.000230	20.774090
2209.601867	-3.009400	3.049400	-9.176100	28.318733	0.000230	20.754376
2210.609755	-3.027600	3.047500	-9.226100	28.384190	0.000230	20.751058
2211.609154	-2.999000	3.045700	-9.132700	28.409196	0.000228	20.770549
2212.608300	-2.992100	3.045700	-9.112800	28.429619	0.000228	20.778787
2213.603600	-3.004300	3.043200	-9.140400	28.503097	0.000226	20.780709
2214.612598	-3.004300	3.044000	-9.143900	28.551320	0.000226	20.745821
2215.613172	-2.995800	3.042100	-9.111600	28.542771	0.000226	20.765187
2216.605603	-3.013600	3.041100	-9.163900	28.558063	0.000227	20.756880
2217.609992	-2.990100	3.040700	-9.089600	28.578605	0.000227	20.757180
2218.612452	-3.005000	3.038800	-9.130600	28.614214	0.000225	20.773603
2219.611602	-3.016000	3.037400	-9.159400	28.572116	0.000227	20.779568
2220.610822	-2.988700	3.037300	-9.075800	28.563049	0.000225	20.750047
2221.611984	-3.018000	3.036400	-9.162700	28.550115	0.000225	20.757884
2222.607885	-2.979000	3.035600	-9.042200	28.541989	0.000223	20.748278
2223.614638	-3.000300	3.033900	-9.101900	28.558418	0.000223	20.752496
2224.612908	-2.979300	3.033700	-9.036700	28.589668	0.000222	20.762631
2225.621638	-2.983300	3.032000	-9.044100	28.548759	0.000224	20.769795
2226.617026	-2.992500	3.030600	-9.067800	28.501752	0.000222	20.749957
2227.614096	-2.998000	3.029300	-9.080400	28.478609	0.000222	20.757945
2228.615915	-3.015700	3.027200	-9.127800	28.404512	0.000222	20.779584
2229.614338	-2.971100	3.027800	-8.994800	28.409794	0.000225	20.765462
2230.615347	-2.980700	3.026100	-9.018200	28.435518	0.000222	20.780459
2231.617458	-2.992400	3.025600	-9.053300	28.486049	0.000222	20.769705
2232.616089	-2.971100	3.025900	-8.988200	28.534943	0.000223	20.755881
2233.620538	-2.989800	3.022900	-9.037200	28.512197	0.000223	20.770433
2234.616107	-3.009100	3.021800	-9.091500	28.460231	0.000224	20.757930
2235.614401	-2.996200	3.019300	-9.045900	28.411784	0.000224	20.775052
2236.615593	-3.001700	3.019300	-9.062200	28.416224	0.000221	20.799438
2237.614892	-3.004600	3.017500	-9.065500	28.397687	0.000222	20.764650
2238.614954	-3.009100	3.016000	-9.074400	28.394862	0.000223	20.782669
2239.621772	-2.972100	3.017100	-8.965800	28.413701	0.000221	20.777931
2240.616456	-2.993200	3.014400	-9.021000	28.479970	0.000221	20.763583
2241.616910	-3.002600	3.013100	-9.046000	28.519545	0.000221	20.787316
2242.615862	-2.997600	3.012400	-9.029000	28.568762	0.000223	20.779035
2243.616682	-3.016700	3.009700	-9.078600	28.640100	0.000221	20.771225
2244.619124	-3.000300	3.009600	-9.029200	28.695008	0.000223	20.788123
2245.620349	-2.972900	3.010200	-8.946800	28.638268	0.000221	20.776018
2246.627004	-2.979100	3.007900	-8.959600	28.593595	0.000221	20.771802
2247.622979	-2.973200	3.007200	-8.939700	28.519110	0.000221	20.779765
2248.615833	-3.022700	3.004400	-9.080600	28.519731	0.000221	20.786555
2249.619702	-3.000000	3.003200	-9.008900	28.511430	0.000219	20.779144
2250.616127	-2.984300	3.004300	-8.964300	28.478971	0.000221	20.766844
2251.622104	-2.994200	3.001900	-8.987800	28.565726	0.000220	20.772659
2252.617712	-2.989000	3.001400	-8.970300	28.603192	0.000221	20.795693
2253.622477	-3.002800	2.998600	-9.002900	28.657806	0.000220	20.784317
2254.619906	-3.009100	2.995500	-9.012400	28.697623	0.000218	20.773213
2255.620420	-3.024300	2.994900	-9.055700	28.762263	0.000216	20.796123
2256.617595	-3.018500	2.994400	-9.038000	28.768559	0.000218	20.783025
2257.616376	-3.023000	2.992800	-9.046100	28.735462	0.000219	20.775291
2258.618502	-3.002900	2.990600	-8.978400	28.779511	0.000218	20.778409
2259.620303	-2.981500	2.990800	-8.915700	28.799878	0.000217	20.787547
2260.620240	-2.986600	2.989600	-8.926900	28.824206	0.000218	20.797355
2261.619092	-2.992400	2.988300	-8.941500	28.828050	0.000216	20.771828
2262.618623	-2.989300	2.987600	-8.929600	28.830802	0.000217	20.782187
2263.619780	-2.993100	2.985900	-8.936000	28.860058	0.000218	20.805495
2264.619774	-3.003400	2.983700	-8.960700	28.829317	0.000216	20.778321
2265.621764	-3.012800	2.982000	-8.982800	28.856150	0.000217	20.793972
2266.626514	-3.007600	2.982200	-8.966900	28.902919	0.000218	20.780396
2267.623039	-2.981900	2.981100	-8.888100	28.929626	0.000217	20.788810
2268.628931	-2.976800	2.979500	-8.868300	28.906815	0.000216	20.792382
2269.624735	-3.027200	2.977300	-9.012000	28.913803	0.000215	20.777610
2270.625893	-3.013900	2.975500	-8.965600	28.908428	0.000217	20.782153
2271.618791	-2.990600	2.974400	-8.894000	28.950938	0.000217	20.793212
2272.623389	-3.030200	2.971600	-9.002900	28.925449	0.000216	20.791715
2273.627979	-2.988900	2.971800	-8.881300	28.937119	0.000214	20.791617
2274.623132	-3.000600	2.970000	-8.910200	28.969868	0.000216	20.804697
2275.627751	-3.000400	2.968400	-8.904900	28.992509	0.000215	20.809016
2276.622502	-2.967400	2.969600	-8.809700	28.971160	0.000217	20.780394
2277.624987	-2.992000	2.965900	-8.872300	28.985552	0.000215	20.793472
2278.627509	-3.007600	2.963100	-8.910800	28.937055	0.000215	20.789182
2279.627862	-2.975400	2.963300	-8.816100	28.902999	0.000215	20.798495
2280.627489	-2.992600	2.961700	-8.861300	28.873621	0.000216	20.789287
2281.623003	-3.026200	2.958700	-8.952400	28.831212	0.000213	20.796826
2282.623607	-3.014400	2.959200	-8.919400	28.836963	0.000214	20.801671
2283.622535	-3.021700	2.955800	-8.930900	28.860251	0.000216	20.778663
2284.626644	-2.987800	2.955000	-8.828100	28.834318	0.000212	20.793790
2285.623697	-2.983100	2.954300	-8.812100	28.841849	0.000216	20.827455
2286.624071	-2.988100	2.952600	-8.821800	28.859465	0.000216	20.798260
2287.631583	-3.012400	2.950200	-8.886600	28.924643	0.000214	20.779996
2288.625398	-2.999200	2.949500	-8.844600	28.937352	0.000217	20.806551
2289.625932	-2.985900	2.946600	-8.797200	28.969158	0.000217	20.790705
2290.628279	-3.004600	2.946500	-8.852100	28.988034	0.000215	20.800714
2291.628273	-2.995400	2.945000	-8.819300	28.988681	0.000215	20.776236
2292.627136	-2.979700	2.943100	-8.768900	29.037306	0.000213	20.814796
2293.628790	-2.983600	2.940700	-8.772800	29.056775	0.000216	20.794109
2294.627934	-3.025500	2.937700	-8.886500	29.070224	0.000217	20.795333
2295.634520	-2.990200	2.938400	-8.784600	29.062623	0.000217	20.789096
2296.630049	-3.014000	2.935800	-8.846900	29.076743	0.000215	20.801900
2297.625988	-2.997500	2.934900	-8.795800	29.084570	0.000216	20.807890
2298.629625	-3.010500	2.931400	-8.824200	29.107135	0.000215	20.800281
2299.627775	-2.992800	2.931000	-8.770100	29.102108	0.000214	20.800907
2300.633309	-3.000600	2.929400	-8.788200	29.101640	0.000215	20.800434
2301.625737	-3.000500	2.929000	-8.787100	29.066994	0.000215	20.798716
2302.627859	-3.023000	2.925100	-8.841400	29.015923	0.000214	20.821701
2303.632348	-2.999200	2.923800	-8.768400	28.962546	0.000216	20.804907
2304.631702	-2.993200	2.922600	-8.746600	29.007876	0.000216	20.807903
2305.629083	-2.985100	2.921900	-8.721500	29.003024	0.000212	20.806334
2306.636752	-3.035900	2.918300	-8.858100	29.009664	0.000213	20.835782
2307.626327	-2.995000	2.917000	-8.735600	29.017765	0.000216	20.823556
2308.631726	-3.001400	2.916800	-8.754000	29.043699	0.000213	20.806539
2309.629867	-3.036700	2.913000	-8.845000	29.062722	0.000216	20.802472
2310.626646	-3.011300	2.912400	-8.769200	29.090193	0.000215	20.801702
2311.628813	-2.974300	2.910500	-8.656200	29.086529	0.000214	20.819347
2312.631371	-3.013600	2.908700	-8.764400	29.108029	0.000214	20.812562
2313.633432	-2.978800	2.908500	-8.662300	29.105703	0.000213	20.816382
2314.632665	-3.005900	2.905300	-8.732600	29.091091	0.000213	20.814461
2315.631492	-2.976800	2.904300	-8.644600	29.114724	0.000213	20.811722
2316.630212	-2.988200	2.903000	-8.673500	29.119851	0.000215	20.813569
2317.632618	-2.983200	2.901200	-8.653500	29.182189	0.000215	20.809529
2318.631141	-2.997900	2.898900	-8.690000	29.200569	0.000214	20.819042
2319.638565	-3.024800	2.896300	-8.759900	29.208866	0.000213	20.811281
2320.630020	-3.020500	2.895600	-8.744700	29.199211	0.000213	20.820992
2321.630860	-3.013900	2.893500	-8.719800	29.226653	0.000214	20.817827
2322.628121	-2.986000	2.892300	-8.634600	29.187378	0.000215	20.830405
2323.629103	-3.002500	2.889300	-8.674000	29.218683	0.000211	20.816433
2324.634204	-2.993800	2.888800	-8.647000	29.234734	0.000216	20.833083
2325.641771	-3.006000	2.884800	-8.670300	29.185135	0.000213	20.830515
2326.641336	-2.997800	2.884000	-8.645000	29.124932	0.000213	20.809680
2327.632930	-2.996800	2.881500	-8.634000	29.090906	0.000212	20.815223
2328.637944	-3.009000	2.879700	-8.663700	29.134597	0.000211	20.825108
2329.632551	-2.962000	2.878400	-8.524500	29.171104	0.000212	20.837713
2330.636041	-2.985900	2.876200	-8.587400	29.207613	0.000211	20.825666
2331.636429	-3.026500	2.874100	-8.697200	29.253649	0.000213	20.836496
2332.633839	-3.003000	2.873000	-8.626500	29.248798	0.000212	20.822125
2333.635686	-2.998800	2.869400	-8.603400	29.235158	0.000214	20.836354
2334.631334	-2.974400	2.869300	-8.532800	29.198458	0.000213	20.817388
2335.643496	-3.034300	2.864300	-8.690100	29.117655	0.000211	20.833166
2336.631854	-3.003500	2.863000	-8.598200	29.062474	0.000213	20.842525
2337.633639	-3.016100	2.862600	-8.632400	29.016161	0.000213	20.839483
2338.632746	-3.005900	2.859300	-8.593700	29.024932	0.000211	20.824140
2339.639094	-3.014000	2.858200	-8.613900	29.055972	0.000211	20.831706
2340.639420	-3.014400	2.856300	-8.609600	29.092083	0.000211	20.825418
2341.644643	-2.984900	2.855900	-8.523100	29.129161	0.000211	20.853769
2342.644892	-3.002500	2.850900	-8.557800	29.160518	0.000211	20.825623
2343.640554	-3.021700	2.848800	-8.606500	29.176397	0.000212	20.843521
2344.641361	-3.034400	2.847600	-8.639500	29.228280	0.000212	20.827053
2345.640565	-2.986900	2.846900	-8.502000	29.235365	0.000214	20.828976
2346.642300	-2.999600	2.843300	-8.528000	29.213724	0.000213	20.831824
2347.645938	-3.017600	2.842200	-8.576000	29.218185	0.000213	20.822095
2348.638488	-2.999200	2.839100	-8.513700	29.235347	0.000213	20.847924
2349.635406	-2.984300	2.838300	-8.469600	29.237131	0.000212	20.861100
2350.638770	-3.000900	2.834900	-8.505700	29.279032	0.000213	20.829361
2351.639371	-3.011700	2.832500	-8.529900	29.298273	0.000212	20.837371
2352.639979	-2.996200	2.831700	-8.483200	29.365354	0.000212	20.835753
2353.638806	-2.987800	2.828000	-8.449000	29.376573	0.000213	20.851801
2354.640351	-3.020700	2.825700	-8.534800	29.332077	0.000212	20.847258
2355.635587	-2.977300	2.825100	-8.410700	29.266484	0.000215	20.855594
2356.639074	-2.984300	2.823600	-8.424500	29.208688	0.000215	20.827697
2357.636147	-3.011900	2.818600	-8.488300	29.203758	0.000216	20.836006
2358.643161	-3.041700	2.816300	-8.565100	29.231839	0.000213	20.844389
2359.635898	-3.022000	2.813800	-8.502200	29.205665	0.000214	20.827970
2360.636830	-2.984700	2.813100	-8.395300	29.174859	0.000214	20.832488
2361.642091	-3.011900	2.810400	-8.463400	29.232361	0.000215	20.835432
2362.638840	-2.995200	2.806900	-8.405300	29.271832	0.000214	20.824949
2363.637414	-3.008900	2.804700	-8.437700	29.273393	0.000212	20.848807
2364.640897	-3.025300	2.801400	-8.473900	29.308455	0.000213	20.837202
2365.659492	-2.976500	2.799800	-8.332900	29.289215	0.000212	20.838200
2366.639674	-2.986000	2.798900	-8.356300	29.265466	0.000215	20.861681
2367.646412	-3.008900	2.795100	-8.409300	29.232728	0.000213	20.853345
2368.646930	-2.976800	2.792900	-8.311800	29.164402	0.000213	20.864149
2369.639237	-3.001400	2.789900	-8.372000	29.164303	0.000215	20.843188
2370.647452	-2.983600	2.788300	-8.317400	29.203975	0.000214	20.865621
2371.644372	-2.990300	2.785100	-8.326900	29.198179	0.000213	20.853142
2372.646812	-3.021200	2.781100	-8.400200	29.199640	0.000212	20.877372
2373.642108	-3.006900	2.779400	-8.356100	29.187926	0.000212	20.865094
2374.642308	-3.022500	2.776300	-8.390800	29.191365	0.000213	20.855759
2375.644393	-3.015900	2.774100	-8.364500	29.218557	0.000213	20.862771
2376.651684	-3.004200	2.770600	-8.322800	29.275933	0.000213	20.855160
2377.649226	-2.984200	2.767800	-8.259000	29.334841	0.000212	20.869957
2378.645206	-3.002800	2.764700	-8.300400	29.393399	0.000213	20.862595
2379.645134	-2.989300	2.762600	-8.257600	29.415709	0.000212	20.864218
2380.649444	-2.987500	2.758400	-8.240000	29.472974	0.000212	20.863144
2381.642648	-3.009600	2.755700	-8.291700	29.490873	0.000213	20.862694
2382.649607	-2.990100	2.753500	-8.231700	29.512213	0.000212	20.865239
2383.640283	-2.964500	2.750800	-8.153700	29.531575	0.000212	20.861997
2384.643582	-2.987800	2.748200	-8.210100	29.545910	0.000212	20.859852
2385.643870	-2.991600	2.744900	-8.210800	29.561925	0.000213	20.862245
2386.650790	-3.016300	2.740500	-8.264600	29.512263	0.000213	20.872400
2387.649816	-3.025100	2.736100	-8.276200	29.521919	0.000214	20.863168
2388.645727	-3.016300	2.734500	-8.247100	29.531524	0.000212	20.872375
2389.645594	-3.003900	2.731600	-8.203600	29.550117	0.000212	20.865988
2390.646452	-3.010600	2.726600	-8.208100	29.607448	0.000213	20.876367
2391.643248	-2.985000	2.725400	-8.134700	29.602373	0.000213	20.871725
2392.656168	-3.015300	2.721100	-8.203800	29.647848	0.000214	20.844077
2393.654777	-3.018800	2.717000	-8.201900	29.639330	0.000212	20.855404
2394.646126	-2.998900	2.714000	-8.137200	29.561450	0.000212	20.860818
2395.651476	-3.006500	2.711700	-8.152200	29.484135	0.000213	20.850687
2396.648483	-2.997900	2.707700	-8.116600	29.461332	0.000212	20.846668
2397.644505	-3.013600	2.703200	-8.145000	29.463832	0.000215	20.852507
2398.647234	-2.982300	2.700100	-8.051900	29.425357	0.000215	20.856399
2399.645186	-2.986900	2.695900	-8.051500	29.405820	0.000212	20.835761
2400.648956	-2.993500	2.693800	-8.061600	29.425554	0.000213	20.842848
2401.647862	-2.994700	2.688800	-8.050600	29.433994	0.000213	20.867950
2402.647622	-2.970100	2.686300	-7.977400	29.420672	0.000214	20.825127
2403.645636	-3.011500	2.681200	-8.073100	29.467638	0.000215	20.866299
2404.652013	-3.017600	2.677400	-8.078200	29.473580	0.000214	20.844790
2405.647333	-2.995700	2.672800	-8.005500	29.496130	0.000216	20.858510
2406.648393	-3.011400	2.671100	-8.041400	29.522196	0.000215	20.828362
2407.645931	-2.998500	2.665700	-7.992000	29.567699	0.000215	20.844358
2408.654555	-3.019600	2.661000	-8.034500	29.590820	0.000214	20.842536
2409.652348	-2.993600	2.657400	-7.954400	29.619260	0.000217	20.841335
2410.651310	-2.990800	2.653100	-7.933100	29.653222	0.000213	20.856607
2411.649319	-2.974200	2.649400	-7.879100	29.682404	0.000213	20.836241
2412.646338	-3.001400	2.644500	-7.936700	29.654505	0.000213	20.844150
2413.659553	-2.991000	2.641200	-7.899500	29.629849	0.000214	20.845372
2414.649802	-3.004200	2.636200	-7.918600	29.612321	0.000215	20.844297
2415.655334	-2.995100	2.632100	-7.882700	29.633014	0.000214	20.847614
2416.647580	-3.008200	2.625700	-7.897400	29.637271	0.000212	20.834837
2417.658052	-2.971300	2.624300	-7.796000	29.636946	0.000213	20.846363
2418.651430	-3.008000	2.618200	-7.875100	29.601445	0.000213	20.850402
2419.658515	-2.995600	2.613600	-7.828800	29.499823	0.000213	20.835681
2420.654984	-3.009400	2.608000	-7.847400	29.439114	0.000212	20.847507
2421.651596	-3.021700	2.602800	-7.863800	29.388355	0.000213	20.847555
2422.648344	-3.007000	2.597400	-7.809600	29.410044	0.000213	20.841441
2423.652460	-3.010700	2.592300	-7.803800	29.474021	0.000212	20.838122
2424.659044	-3.012000	2.586600	-7.788700	29.536529	0.000212	20.855136
2425.650317	-2.988900	2.581100	-7.713500	29.568937	0.000213	20.847503
2426.654935	-3.043700	2.575100	-7.836400	29.630722	0.000214	20.834399
2427.652834	-2.953000	2.570800	-7.590700	29.651762	0.000214	20.837117
2428.653457	-2.969300	2.565400	-7.616500	29.650227	0.000213	20.835096
2429.660204	-2.992600	2.558200	-7.653800	29.629952	0.000213	20.827932
2430.652263	-3.004600	2.552400	-7.667900	29.624827	0.000213	20.815654
2431.650498	-2.987800	2.546100	-7.606200	29.583760	0.000212	20.827833
2432.655206	-2.980300	2.541300	-7.573000	29.558260	0.000213	20.833421
2433.648718	-2.954700	2.536000	-7.492600	29.562813	0.000214	20.825209
2434.655413	-2.991900	2.528700	-7.564400	29.615170	0.000214	20.826781
2435.659433	-2.998600	2.522100	-7.561800	29.686509	0.000216	20.824259
2436.661377	-3.017800	2.516900	-7.594300	29.725270	0.000212	20.837259
2437.660304	-2.997500	2.508500	-7.518200	29.791530	0.000215	20.844796
2438.655375	-3.017200	2.501800	-7.547700	29.826747	0.000215	20.822934
2439.654801	-3.002000	2.495900	-7.492000	29.859935	0.000217	20.828896
