LabVIEW Measurement	
Writer_Version	2
Reader_Version	2
Separator	Tab
Decimal_Separator	.
Multi_Headings	No
X_Columns	One
Time_Pref	Absolute
Operator	admin
Description	Clolumns are: time, Current, Voltage, Power, Battery Temp, and Chamber Temp
Date	2024/08/16
Time	13:06:06.104549407958984375
***End_of_Header***	
	
Channels	6						
Samples	1	1	1	1	1	1	
Date	2024/08/23	2024/08/23	2024/08/23	2024/08/23	2024/08/23	2024/08/23	
Time	21:48:43.9933385848999023438	21:48:44.0047216415405273438	21:48:44.011577606201171875	21:48:43.9644641876220703125	21:48:43.9644641876220703125	21:48:43.9644641876220703125	
X_Dimension	Time	Time	Time	Time	Time	Time	
X0	0.0000000000000000E+0	0.0000000000000000E+0	0.0000000000000000E+0	0.0000000000000000E+0	0.0000000000000000E+0	0.0000000000000000E+0	
Delta_X	1.000000	1.000000	1.000000	1.000000	1.000000	1.000000	
***End_of_Header***							
X_Value	Untitled	Untitled 1	Untitled 2	Untitled 3	Untitled 4	Untitled 5	Comment
0.000000	0.024410	4.107700	0.100200	21.059114	0.000976	20.861894
0.999495	-3.002100	3.951500	-11.861000	21.055247	0.000977	20.864190
2.009405	-3.023700	3.945200	-11.928000	21.047638	0.000975	20.880760
2.997478	-2.995300	3.940300	-11.802000	21.072761	0.000975	20.873173
4.002472	-2.998800	3.936700	-11.805000	21.080870	0.000975	20.886972
5.002974	-3.014000	3.932700	-11.852000	21.060611	0.000972	20.867659
5.997507	-3.022400	3.928700	-11.873000	21.058017	0.000972	20.892089
7.007386	-2.994000	3.926000	-11.754000	21.074459	0.000971	20.884353
8.005513	-2.978600	3.924500	-11.688000	21.059389	0.000972	20.892513
9.014864	-3.000200	3.924100	-11.772000	21.086434	0.000970	20.885426
10.017953	-3.000100	3.919800	-11.759000	21.084988	0.000969	20.871178
11.009449	-3.026400	3.919000	-11.859000	21.084364	0.000967	20.861071
12.022185	-3.014800	3.918100	-11.812000	21.083366	0.000968	20.868608
13.003931	-2.995600	3.917800	-11.734000	21.105721	0.000965	20.882907
14.004797	-3.000200	3.914900	-11.743000	21.107393	0.000964	20.893113
15.015315	-3.005600	3.913100	-11.760000	21.111735	0.000966	20.886551
16.000102	-3.015400	3.912000	-11.796000	21.098386	0.000963	20.878415
17.008453	-2.997100	3.909800	-11.717000	21.088607	0.000962	20.883332
17.998342	-3.006500	3.910800	-11.756000	21.096815	0.000963	20.877792
19.017093	-3.006800	3.909000	-11.753000	21.100658	0.000962	20.883058
20.020814	-2.996700	3.907100	-11.708000	21.110612	0.000963	20.897281
21.011166	-2.986200	3.908200	-11.670000	21.127204	0.000960	20.917668
22.007641	-3.004500	3.905900	-11.733000	21.109790	0.000962	20.901674
23.017365	-2.990900	3.906600	-11.683000	21.141100	0.000958	20.892691
24.005063	-3.000800	3.904400	-11.716000	21.138755	0.000958	20.891768
25.014044	-2.995000	3.904500	-11.692000	21.140527	0.000959	20.897333
26.006225	-3.013700	3.902800	-11.760000	21.125659	0.000960	20.880091
27.006496	-3.006600	3.900500	-11.724000	21.173858	0.000959	20.894165
28.012305	-2.984100	3.900200	-11.637000	21.145692	0.000958	20.863621
29.009448	-3.000300	3.901000	-11.703000	21.183738	0.000958	20.904047
30.016401	-3.000400	3.900800	-11.703000	21.162084	0.000956	20.891396
31.010579	-3.025500	3.899200	-11.795000	21.172887	0.000955	20.898882
32.013676	-2.991300	3.898900	-11.662000	21.175207	0.000955	20.883661
33.016748	-3.031800	3.898000	-11.816000	21.184337	0.000954	20.898957
34.020529	-2.997100	3.896700	-11.677000	21.191348	0.000953	20.898384
35.022996	-3.022000	3.898200	-11.779000	21.225575	0.000953	20.917922
36.013927	-2.977200	3.897500	-11.602000	21.204546	0.000956	20.895465
37.013213	-3.014700	3.895500	-11.743000	21.197636	0.000953	20.892346
38.022412	-2.988300	3.895600	-11.641000	21.212829	0.000953	20.922240
39.024154	-3.003700	3.895000	-11.698000	21.220163	0.000954	20.911560
40.021424	-3.016900	3.894700	-11.750000	21.251670	0.000952	20.902777
41.029380	-2.991800	3.895600	-11.653000	21.240071	0.000952	20.911561
42.019651	-2.984800	3.894800	-11.624000	21.247655	0.000951	20.895916
43.025311	-3.014100	3.894500	-11.737000	21.265267	0.000952	20.894095
44.015853	-3.003200	3.894700	-11.695000	21.237103	0.000952	20.892473
45.018437	-2.990700	3.893300	-11.643000	21.242493	0.000951	20.903079
46.013220	-3.008100	3.892400	-11.708000	21.255414	0.000952	20.898937
47.018641	-2.985600	3.892200	-11.619000	21.275072	0.000952	20.929505
48.016156	-2.962400	3.892800	-11.531000	21.280684	0.000950	20.917577
49.016849	-2.993600	3.892100	-11.649000	21.266491	0.000951	20.910491
50.017699	-3.001600	3.890700	-11.677000	21.289591	0.000949	20.907996
51.014828	-2.989400	3.889800	-11.627000	21.283130	0.000951	20.914334
52.020782	-3.008600	3.890600	-11.704000	21.285076	0.000948	20.928134
53.030278	-2.988800	3.889900	-11.625000	21.285900	0.000948	20.908097
54.015352	-2.995000	3.889100	-11.646000	21.313887	0.000947	20.912388
55.012443	-3.019300	3.889000	-11.741000	21.318851	0.000947	20.913561
56.020351	-2.977900	3.889600	-11.582000	21.328430	0.000948	20.894223
57.021608	-2.985500	3.889000	-11.610000	21.320099	0.000949	20.922870
58.024775	-3.001600	3.887100	-11.667000	21.319326	0.000947	20.925889
59.014503	-3.010800	3.887000	-11.702000	21.333220	0.000949	20.906126
60.031386	-2.998300	3.887800	-11.655000	21.329803	0.000948	20.904604
61.011585	-3.014200	3.887100	-11.716000	21.344819	0.000947	20.912041
62.021300	-3.008500	3.886300	-11.691000	21.372032	0.000946	20.913662
63.022620	-2.996500	3.887100	-11.646000	21.350682	0.000945	20.897519
64.029279	-2.995700	3.887000	-11.643000	21.336015	0.000947	20.893751
65.020631	-3.010100	3.884700	-11.692000	21.362281	0.000947	20.909122
66.015351	-2.992200	3.885600	-11.625000	21.363603	0.000942	20.905704
67.023385	-3.006500	3.885800	-11.682000	21.368816	0.000946	20.886265
68.023429	-3.029500	3.884100	-11.766000	21.370039	0.000946	20.914513
69.021492	-3.028600	3.884200	-11.762000	21.402563	0.000945	20.915286
70.024502	-3.008100	3.883200	-11.680000	21.395830	0.000945	20.901438
71.028194	-2.990500	3.884900	-11.617000	21.420123	0.000945	20.895873
72.025816	-3.015600	3.883000	-11.709000	21.419425	0.000944	20.914138
73.040504	-2.996400	3.884900	-11.640000	21.417954	0.000946	20.888961
74.038785	-2.980300	3.885100	-11.578000	21.412118	0.000944	20.916310
75.025779	-3.012200	3.884200	-11.699000	21.402739	0.000944	20.894601
76.038138	-3.000400	3.883100	-11.650000	21.419700	0.000944	20.886915
77.019138	-3.001100	3.882800	-11.651000	21.429927	0.000945	20.910896
78.027135	-3.002500	3.882000	-11.654000	21.440901	0.000943	20.885368
79.029633	-2.990900	3.882800	-11.612000	21.450928	0.000944	20.905831
80.026796	-2.989600	3.883100	-11.608000	21.446214	0.000943	20.886891
81.027372	-3.010000	3.881700	-11.683000	21.437061	0.000944	20.877733
82.028853	-2.989100	3.882000	-11.603000	21.458236	0.000942	20.893703
83.024089	-2.989300	3.882400	-11.603000	21.481531	0.000943	20.876236
84.028899	-3.017900	3.880800	-11.712000	21.484450	0.000944	20.881053
85.032904	-2.985900	3.881500	-11.589000	21.491283	0.000943	20.881727
86.035502	-3.007100	3.880400	-11.668000	21.502158	0.000942	20.903986
87.028437	-3.011800	3.879400	-11.683000	21.509864	0.000942	20.883724
88.033022	-3.012300	3.880400	-11.688000	21.523981	0.000944	20.867978
89.036564	-3.023600	3.879000	-11.728000	21.519767	0.000941	20.889364
90.030649	-2.988400	3.881200	-11.598000	21.513332	0.000942	20.895253
91.031148	-2.991600	3.880000	-11.607000	21.515503	0.000942	20.889365
92.041004	-3.011100	3.879500	-11.681000	21.516699	0.000943	20.869227
93.034822	-3.023600	3.878400	-11.725000	21.522760	0.000943	20.854429
94.033038	-3.007500	3.878300	-11.663000	21.498345	0.000943	20.891162
95.036907	-2.995300	3.879300	-11.618000	21.533337	0.000942	20.882080
96.029364	-2.996800	3.879000	-11.623000	21.538498	0.000943	20.849789
97.040159	-3.004700	3.877100	-11.648000	21.538224	0.000943	20.880807
98.031288	-3.008500	3.877800	-11.665000	21.541668	0.000943	20.885201
99.043421	-3.013700	3.877000	-11.683000	21.560323	0.000944	20.884902
100.031405	-3.004400	3.877700	-11.649000	21.555783	0.000943	20.855706
101.042912	-3.000600	3.879000	-11.638000	21.562044	0.000944	20.896106
102.026613	-3.013300	3.877100	-11.681000	21.590998	0.000944	20.876718
103.034842	-3.003100	3.876600	-11.641000	21.582096	0.000943	20.886301
104.038822	-3.012100	3.875400	-11.672000	21.610027	0.000944	20.865889
105.043803	-2.980100	3.876300	-11.551000	21.598506	0.000942	20.863369
106.035373	-2.980800	3.875100	-11.550000	21.610926	0.000943	20.856832
107.034759	-2.989100	3.877000	-11.588000	21.612272	0.000944	20.868136
108.035418	-3.010500	3.875300	-11.666000	21.618582	0.000944	20.859752
109.035323	-2.993300	3.875700	-11.599000	21.611301	0.000943	20.870957
110.041889	-3.002600	3.876200	-11.638000	21.638308	0.000945	20.870483
111.038425	-2.976200	3.875600	-11.533000	21.631675	0.000944	20.859104
112.039064	-2.989800	3.874300	-11.583000	21.654119	0.000944	20.846951
113.040205	-3.011400	3.873300	-11.662000	21.656363	0.000944	20.851094
114.047599	-3.009300	3.873600	-11.656000	21.678258	0.000945	20.864943
115.044739	-2.991700	3.873800	-11.588000	21.656862	0.000946	20.859653
116.036135	-3.005300	3.874000	-11.641000	21.670827	0.000946	20.841861
117.030447	-3.022800	3.872600	-11.704000	21.674843	0.000945	20.865794
118.040300	-3.030800	3.872700	-11.736000	21.676813	0.000946	20.848800
119.041363	-2.991500	3.873600	-11.587000	21.677436	0.000947	20.840415
120.036034	-2.997600	3.873500	-11.610000	21.693197	0.000944	20.851920
121.039926	-3.010600	3.872600	-11.657000	21.697934	0.000944	20.850497
122.047683	-3.003800	3.872400	-11.631000	21.689955	0.000944	20.849624
123.060585	-2.990400	3.873800	-11.583000	21.710976	0.000944	20.846006
124.034856	-2.980900	3.871900	-11.541000	21.707983	0.000944	20.856286
125.032866	-2.977500	3.873300	-11.532000	21.695166	0.000945	20.873330
126.041046	-2.984100	3.871200	-11.551000	21.739926	0.000948	20.864547
127.044386	-3.012000	3.871900	-11.660000	21.731348	0.000944	20.847902
128.040068	-2.994500	3.871600	-11.592000	21.737432	0.000945	20.861577
129.036829	-3.026800	3.870600	-11.714000	21.727209	0.000944	20.840915
130.036829	-3.012800	3.870600	-11.660000	21.734540	0.000945	20.849199
131.043721	-2.995500	3.871100	-11.595000	21.737981	0.000945	20.837471
132.041138	-3.030400	3.868800	-11.722000	21.733768	0.000946	20.846531
133.039744	-2.998100	3.871400	-11.605000	21.731822	0.000946	20.846953
134.044197	-3.001100	3.870600	-11.615000	21.763864	0.000943	20.834926
135.038992	-2.991600	3.870300	-11.577000	21.746135	0.000945	20.847528
136.061236	-3.007400	3.870800	-11.640000	21.744863	0.000947	20.852419
137.046066	-2.986500	3.870100	-11.557000	21.764213	0.000947	20.853292
138.041550	-2.983600	3.870900	-11.548000	21.769274	0.000946	20.833229
139.044821	-3.003600	3.867700	-11.616000	21.759301	0.000944	20.836997
140.062967	-3.008400	3.869600	-11.639000	21.806276	0.000947	20.854615
141.046542	-2.995200	3.870200	-11.591000	21.794707	0.000945	20.823596
142.043446	-2.995700	3.869700	-11.592000	21.793810	0.000946	20.835026
143.047361	-3.006200	3.869100	-11.629000	21.789022	0.000948	20.816484
144.046095	-2.995800	3.868400	-11.588000	21.789397	0.000948	20.844359
145.049449	-2.981100	3.868500	-11.531000	21.800043	0.000947	20.847428
146.044217	-3.014700	3.869100	-11.663000	21.801588	0.000948	20.850397
147.057497	-2.997900	3.867800	-11.594000	21.807796	0.000947	20.826266
148.050833	-3.009500	3.866600	-11.634000	21.843775	0.000950	20.844258
149.046597	-3.002600	3.866400	-11.608000	21.827843	0.000948	20.831631
150.048335	-3.002500	3.866800	-11.609000	21.826572	0.000947	20.831781
151.070601	-2.994400	3.868000	-11.579000	21.823379	0.000950	20.829534
152.048930	-3.003000	3.866200	-11.609000	21.850133	0.000949	20.848725
153.050615	-3.003300	3.865700	-11.608000	21.850333	0.000949	20.835175
154.045685	-3.003700	3.867600	-11.616000	21.871177	0.000948	20.826641
155.051210	-2.988500	3.867400	-11.556000	21.870554	0.000949	20.827914
156.046931	-3.002600	3.866500	-11.609000	21.892194	0.000951	20.832505
157.050063	-2.990500	3.866400	-11.562000	21.886909	0.000950	20.827689
158.051790	-2.979800	3.867800	-11.525000	21.904510	0.000950	20.816858
159.048951	-2.993100	3.865900	-11.570000	21.896034	0.000950	20.832556
160.052061	-2.998000	3.865500	-11.588000	21.918448	0.000950	20.830809
161.052287	-2.999600	3.867000	-11.599000	21.928795	0.000951	20.842114
162.050218	-2.992800	3.865500	-11.568000	21.923808	0.000950	20.834752
163.051860	-3.005100	3.864500	-11.612000	21.938992	0.000952	20.832881
164.051303	-2.991300	3.865600	-11.562000	21.920394	0.000952	20.836550
165.060711	-3.002900	3.866200	-11.609000	21.945026	0.000952	20.829438
166.056520	-3.017200	3.865700	-11.663000	21.938869	0.000955	20.810947
167.057927	-3.002900	3.864000	-11.603000	21.972250	0.000952	20.816387
168.049923	-2.998000	3.865500	-11.588000	21.968237	0.000953	20.837025
169.059933	-3.001300	3.864700	-11.597000	21.973173	0.000953	20.814466
170.056041	-2.987200	3.864500	-11.543000	21.973996	0.000953	20.830937
171.057510	-3.012800	3.862600	-11.635000	21.972078	0.000956	20.816214
172.051301	-2.996100	3.863900	-11.576000	21.963502	0.000954	20.820432
173.056548	-3.008900	3.862000	-11.620000	21.984218	0.000952	20.841643
174.061035	-3.003100	3.862500	-11.597000	21.991971	0.000954	20.811946
175.059788	-3.008800	3.861000	-11.616000	21.990950	0.000956	20.814243
176.052390	-3.006700	3.861500	-11.608000	21.986812	0.000955	20.807256
177.063185	-3.006300	3.861300	-11.606000	22.013063	0.000955	20.823103
178.056176	-2.985100	3.862900	-11.530000	22.023957	0.000955	20.833060
179.054605	-3.004600	3.860400	-11.598000	22.040461	0.000955	20.812598
180.056424	-2.984500	3.862100	-11.526000	22.043178	0.000955	20.818637
181.058135	-3.013700	3.861400	-11.636000	22.042929	0.000957	20.817914
182.054595	-2.993300	3.861800	-11.558000	22.039489	0.000957	20.808306
183.065694	-2.999800	3.861400	-11.582000	22.027549	0.000957	20.819113
184.058213	-3.016900	3.860500	-11.645000	22.032609	0.000958	20.803316
185.052549	-3.030700	3.859000	-11.693000	22.037321	0.000958	20.814670
186.057563	-2.990000	3.861500	-11.543000	22.038219	0.000958	20.816992
187.053497	-3.004500	3.860600	-11.598000	22.043155	0.000958	20.829993
188.066221	-2.995000	3.860100	-11.560000	22.095453	0.000957	20.792735
189.055950	-3.008100	3.858900	-11.605000	22.076484	0.000960	20.795082
190.056344	-2.997700	3.859800	-11.570000	22.063471	0.000959	20.821409
191.074305	-2.997800	3.859300	-11.567000	22.118735	0.000959	20.804190
192.056279	-2.998900	3.859200	-11.572000	22.105498	0.000961	20.798524
193.058327	-3.010900	3.859400	-11.620000	22.127360	0.000961	20.819463
194.062559	-3.006200	3.858900	-11.599000	22.114772	0.000960	20.779833
195.066161	-3.003100	3.858900	-11.587000	22.110834	0.000959	20.814772
196.062461	-2.993600	3.858800	-11.550000	22.127909	0.000960	20.792986
197.059837	-3.002300	3.857200	-11.579000	22.132646	0.000962	20.806737
198.067455	-3.000700	3.856900	-11.573000	22.116567	0.000963	20.784476
199.059494	-2.999100	3.858000	-11.569000	22.129230	0.000964	20.808533
200.058030	-3.004700	3.858700	-11.594000	22.111857	0.000964	20.808209
201.059709	-2.971400	3.859000	-11.466000	22.141270	0.000965	20.794983
202.058854	-3.004900	3.857300	-11.590000	22.132098	0.000964	20.822309
203.067771	-3.016900	3.858000	-11.638000	22.135863	0.000966	20.795259
204.066435	-3.000700	3.858600	-11.577000	22.137358	0.000966	20.799127
205.060830	-3.008100	3.856400	-11.600000	22.154981	0.000966	20.823408
206.063488	-3.003800	3.855500	-11.579000	22.163656	0.000968	20.791790
207.069330	-2.992100	3.855700	-11.535000	22.161014	0.000968	20.790094
208.064202	-2.975900	3.856700	-11.476000	22.162011	0.000968	20.794885
209.064512	-3.018700	3.854800	-11.636000	22.160540	0.000968	20.774446
210.070160	-2.991300	3.856800	-11.536000	22.175146	0.000969	20.794286
211.083727	-2.990700	3.855900	-11.531000	22.143441	0.000969	20.781983
212.068835	-3.005500	3.855400	-11.586000	22.149349	0.000969	20.792166
213.069956	-2.989000	3.856400	-11.526000	22.135789	0.000969	20.798030
214.063834	-2.993600	3.854800	-11.538000	22.160042	0.000970	20.800975
215.068677	-3.012700	3.855100	-11.613000	22.174000	0.000970	20.782707
216.063509	-3.020500	3.854200	-11.640000	22.166049	0.000970	20.790394
217.065914	-3.000500	3.856000	-11.568000	22.176743	0.000969	20.772176
218.071519	-3.012600	3.854900	-11.611000	22.192770	0.000969	20.779688
219.066705	-3.008100	3.853800	-11.592000	22.185317	0.000970	20.793563
220.068490	-2.988600	3.854600	-11.519000	22.211788	0.000971	20.792565
221.068229	-2.988400	3.854400	-11.517000	22.212136	0.000972	20.784379
222.067275	-2.994000	3.854200	-11.538000	22.241373	0.000971	20.778091
223.065764	-2.987100	3.854900	-11.514000	22.208746	0.000974	20.779563
224.073637	-3.003600	3.853700	-11.573000	22.255978	0.000973	20.766636
225.065434	-2.991600	3.853400	-11.527000	22.251194	0.000972	20.783657
226.063623	-2.996500	3.852900	-11.544000	22.266023	0.000974	20.761047
227.066514	-2.999400	3.853300	-11.556000	22.261960	0.000973	20.783531
228.069654	-2.988500	3.853500	-11.514000	22.262908	0.000973	20.771678
229.076354	-3.012800	3.852400	-11.605000	22.268043	0.000973	20.794363
230.066892	-3.003000	3.853100	-11.569000	22.277214	0.000976	20.798331
231.079174	-2.996200	3.852800	-11.543000	22.275196	0.000975	20.764067
232.063894	-2.991000	3.852300	-11.521000	22.280803	0.000976	20.766363
233.070397	-2.992200	3.852500	-11.526000	22.298251	0.000977	20.781937
234.071709	-3.004800	3.851600	-11.573000	22.300967	0.000976	20.777070
235.066330	-3.010400	3.850500	-11.590000	22.290873	0.000978	20.777394
236.071598	-3.015700	3.851200	-11.613000	22.317640	0.000975	20.773376
237.066341	-3.006400	3.850100	-11.573000	22.305055	0.000978	20.764094
238.065798	-3.025700	3.850200	-11.648000	22.321951	0.000979	20.766787
239.067842	-3.001900	3.850000	-11.557000	22.315472	0.000979	20.778792
240.070503	-3.001600	3.848900	-11.550000	22.330201	0.000980	20.762246
241.071190	-3.001500	3.850100	-11.554000	22.318961	0.000980	20.755732
242.066687	-3.007800	3.850500	-11.580000	22.334339	0.000979	20.764019
243.074086	-2.994000	3.849700	-11.525000	22.344232	0.000980	20.763968
244.070401	-3.030200	3.846900	-11.655000	22.342737	0.000981	20.778593
245.071026	-3.039000	3.849700	-11.699000	22.330775	0.000981	20.768985
246.074829	-3.003200	3.849600	-11.560000	22.333042	0.000982	20.774100
247.074068	-3.012200	3.848700	-11.592000	22.318637	0.000981	20.783858
248.069236	-2.982600	3.848900	-11.479000	22.305827	0.000982	20.749219
249.079047	-2.997800	3.848100	-11.534000	22.297902	0.000984	20.777320
250.076814	-2.991700	3.849100	-11.515000	22.333714	0.000983	20.748220
251.070863	-2.990100	3.849500	-11.509000	22.338600	0.000985	20.759751
252.087891	-3.014700	3.847200	-11.598000	22.356468	0.000984	20.778592
253.082329	-2.991900	3.848400	-11.513000	22.377826	0.000986	20.778168
254.075485	-2.996300	3.847900	-11.528000	22.375184	0.000986	20.775048
255.076999	-2.995800	3.847900	-11.525000	22.360830	0.000986	20.761622
256.077985	-2.989500	3.849600	-11.507000	22.367709	0.000986	20.760924
257.077668	-3.006700	3.847300	-11.566000	22.390834	0.000987	20.768434
258.079685	-3.002900	3.846300	-11.549000	22.407581	0.000987	20.770980
259.075164	-3.012900	3.846300	-11.588000	22.389214	0.000989	20.769183
260.081299	-3.001700	3.846500	-11.546000	22.410994	0.000989	20.748793
261.098704	-3.003100	3.845000	-11.546000	22.425547	0.000988	20.772377
262.083939	-3.010100	3.846000	-11.575000	22.420663	0.000988	20.750416
263.078808	-3.011700	3.844700	-11.578000	22.416028	0.000990	20.741980
264.085661	-2.998600	3.845000	-11.528000	22.421609	0.000991	20.773649
265.081284	-3.003600	3.845200	-11.548000	22.443787	0.000991	20.770728
266.081268	-2.995000	3.844800	-11.514000	22.429109	0.000991	20.761718
267.080309	-2.998900	3.844500	-11.529000	22.453108	0.000992	20.765837
268.087564	-3.013000	3.844300	-11.582000	22.426542	0.000992	20.767209
269.086812	-3.013400	3.843600	-11.582000	22.433944	0.000993	20.765138
270.086087	-3.015900	3.843400	-11.590000	22.402967	0.000992	20.748342
271.083571	-2.993700	3.845300	-11.510000	22.439698	0.000994	20.755253
272.084160	-2.998000	3.844200	-11.524000	22.441867	0.000994	20.750312
273.099276	-3.008600	3.843600	-11.563000	22.454351	0.000996	20.746219
274.088930	-2.983300	3.845700	-11.471000	22.470498	0.000995	20.763338
275.084530	-2.986900	3.844100	-11.481000	22.476902	0.000997	20.763114
276.083865	-3.007700	3.843500	-11.558000	22.453177	0.000995	20.764959
277.085027	-2.999600	3.843400	-11.527000	22.482209	0.000996	20.768902
278.089126	-2.992800	3.843600	-11.501000	22.504086	0.000998	20.757621
279.090104	-3.009800	3.842400	-11.563000	22.513755	0.000998	20.769201
280.085097	-2.997200	3.843300	-11.518000	22.521703	0.000997	20.743495
281.084681	-2.984700	3.842100	-11.465000	22.539120	0.000999	20.743395
282.088185	-2.993400	3.841600	-11.498000	22.548912	0.000998	20.766005
283.084676	-2.985200	3.842800	-11.470000	22.547640	0.000998	20.743394
284.091279	-3.006100	3.841000	-11.545000	22.551852	0.000999	20.750931
285.085074	-2.970700	3.842000	-11.412000	22.564683	0.001000	20.760937
286.108016	-2.984500	3.839600	-11.458000	22.550430	0.001000	20.754723
287.094090	-3.008100	3.839900	-11.550000	22.564484	0.000999	20.754100
288.093212	-2.996000	3.840900	-11.507000	22.565979	0.001001	20.767925
289.102813	-3.028100	3.839500	-11.625000	22.570712	0.001002	20.744216
290.091082	-3.005400	3.840000	-11.539000	22.595604	0.001002	20.750181
291.089795	-3.000700	3.839400	-11.519000	22.576268	0.001000	20.733184
292.103515	-2.992900	3.841600	-11.496000	22.597198	0.001005	20.778331
293.095360	-2.985900	3.840600	-11.467000	22.585612	0.001004	20.749182
294.096209	-3.004200	3.839400	-11.534000	22.573678	0.001002	20.759515
295.089622	-2.980000	3.840300	-11.443000	22.574175	0.001004	20.770919
296.092834	-2.987900	3.837700	-11.465000	22.609082	0.001004	20.760362
297.095649	-3.010300	3.838000	-11.553000	22.591218	0.001005	20.764280
298.090783	-2.977900	3.839000	-11.430000	22.595977	0.001005	20.768573
299.094432	-2.998100	3.837700	-11.505000	22.600537	0.001006	20.768873
300.093338	-3.007600	3.838000	-11.542000	22.625403	0.001005	20.770544
301.097359	-2.982000	3.838100	-11.445000	22.638285	0.001007	20.763058
302.092297	-3.001700	3.838100	-11.520000	22.633575	0.001006	20.759289
303.095874	-3.002800	3.838200	-11.524000	22.631209	0.001008	20.750755
304.102091	-3.025900	3.837200	-11.611000	22.650618	0.001008	20.769247
305.090258	-3.003700	3.837400	-11.526000	22.655924	0.001009	20.754173
306.099481	-3.009600	3.837100	-11.547000	22.672393	0.001010	20.769721
307.101524	-3.002900	3.834600	-11.513000	22.652412	0.001008	20.763932
308.104276	-3.006200	3.834400	-11.526000	22.660409	0.001010	20.765304
309.091739	-3.000500	3.837700	-11.512000	22.666987	0.001011	20.761935
310.101814	-3.024700	3.835800	-11.601000	22.660758	0.001010	20.758067
311.095858	-2.996600	3.837300	-11.497000	22.694193	0.001012	20.750780
312.104941	-3.011000	3.835600	-11.547000	22.705729	0.001011	20.779405
313.098323	-3.024900	3.835000	-11.599000	22.712680	0.001013	20.778781
314.096056	-2.969800	3.836700	-11.393000	22.706377	0.001013	20.756346
315.105465	-3.022300	3.833300	-11.583000	22.711510	0.001014	20.758168
316.094273	-2.971200	3.834900	-11.393000	22.743474	0.001013	20.759840
317.098835	-3.014000	3.832600	-11.550000	22.721600	0.001013	20.768276
318.092058	-3.004600	3.834500	-11.520000	22.740435	0.001015	20.747787
319.094628	-3.007800	3.833900	-11.530000	22.733957	0.001015	20.759791
320.101157	-3.016800	3.832400	-11.561000	22.747212	0.001015	20.745092
321.098350	-3.008400	3.833800	-11.533000	22.747037	0.001018	20.770048
322.099010	-3.015600	3.831900	-11.554000	22.758821	0.001018	20.784223
323.097736	-3.002100	3.832000	-11.503000	22.746963	0.001019	20.766181
324.101627	-2.962500	3.834100	-11.357000	22.752195	0.001017	20.781853
325.113125	-2.984100	3.833400	-11.439000	22.746516	0.001017	20.761939
326.101501	-2.998800	3.831700	-11.489000	22.754214	0.001018	20.759220
327.096865	-2.994900	3.831800	-11.475000	22.775516	0.001019	20.751634
328.098167	-2.995100	3.831800	-11.475000	22.772800	0.001020	20.752233
329.098715	-3.022800	3.831600	-11.582000	22.772625	0.001021	20.747316
330.106216	-3.008500	3.832900	-11.530000	22.781520	0.001022	20.763339
331.116417	-2.989400	3.831100	-11.451000	22.757131	0.001020	20.754555
332.108087	-2.979500	3.830500	-11.411000	22.770883	0.001022	20.748890
333.106272	-3.004300	3.830900	-11.507000	22.768467	0.001024	20.784403
334.112770	-2.996300	3.830600	-11.476000	22.792134	0.001022	20.776817
335.104704	-3.022100	3.830100	-11.574000	22.802622	0.001023	20.769306
336.105931	-2.998000	3.830400	-11.482000	22.796768	0.001023	20.747794
337.109637	-2.990000	3.829000	-11.447000	22.807953	0.001025	20.781284
338.105945	-2.991700	3.829700	-11.457000	22.830872	0.001025	20.777691
339.105543	-3.011100	3.829200	-11.529000	22.828805	0.001024	20.757602
340.108036	-3.005600	3.829200	-11.508000	22.833887	0.001025	20.763167
341.114410	-2.992200	3.829900	-11.459000	22.809276	0.001025	20.755107
342.108286	-2.994600	3.828700	-11.463000	22.820187	0.001026	20.782160
343.105989	-3.028000	3.826500	-11.586000	22.805889	0.001028	20.784432
344.111164	-3.010300	3.827800	-11.522000	22.820636	0.001026	20.771230
345.125763	-2.975800	3.827700	-11.390000	22.832568	0.001027	20.777494
346.122541	-3.010600	3.827500	-11.522000	22.843256	0.001028	20.767337
347.109176	-2.992200	3.828200	-11.453000	22.849957	0.001027	20.775474
348.121154	-3.001300	3.827400	-11.485000	22.817524	0.001028	20.776647
349.120392	-2.983800	3.827600	-11.420000	22.850855	0.001030	20.762622
350.122414	-3.022600	3.826900	-11.566000	22.854366	0.001030	20.780365
351.111950	-2.989400	3.827400	-11.441000	22.857606	0.001030	20.782662
352.129528	-3.024600	3.825700	-11.570000	22.897813	0.001030	20.770785
353.119016	-3.010600	3.826400	-11.519000	22.903691	0.001031	20.774303
354.112032	-2.973200	3.826800	-11.375000	22.919732	0.001031	20.766667
355.115064	-2.991900	3.825800	-11.446000	22.893155	0.001032	20.760429
356.115171	-3.001300	3.826500	-11.484000	22.918961	0.001033	20.782015
357.122099	-3.011900	3.825000	-11.519000	22.912610	0.001033	20.793670
358.118673	-2.998500	3.825500	-11.470000	22.917343	0.001032	20.753841
359.120500	-2.989500	3.825300	-11.435000	22.938989	0.001035	20.771735
360.123890	-3.023800	3.823100	-11.559000	22.945067	0.001036	20.781144
361.125842	-3.020100	3.824000	-11.548000	22.954208	0.001034	20.780345
362.123568	-3.013600	3.824400	-11.524000	22.948305	0.001035	20.778224
363.121417	-3.013800	3.823100	-11.521000	22.939987	0.001036	20.788382
364.121428	-2.996800	3.822600	-11.454000	22.949078	0.001033	20.758609
365.112617	-2.995600	3.824000	-11.454000	22.964148	0.001036	20.772759
366.122532	-2.977000	3.825000	-11.385000	22.979840	0.001035	20.780896
367.119489	-3.006200	3.821500	-11.488000	22.983777	0.001034	20.771563
368.114433	-2.998700	3.822300	-11.461000	22.995210	0.001038	20.772113
369.122074	-3.001800	3.822000	-11.471000	22.995833	0.001038	20.781272
370.111869	-3.009600	3.822900	-11.505000	22.983005	0.001039	20.785489
371.121458	-2.991700	3.822300	-11.434000	22.961958	0.001039	20.796170
372.124916	-2.999800	3.821100	-11.461000	22.965346	0.001040	20.784865
373.120209	-2.986300	3.822000	-11.412000	22.981686	0.001041	20.770891
374.117473	-2.996200	3.821100	-11.448000	22.969431	0.001040	20.779475
375.117641	-2.994000	3.821800	-11.441000	22.953392	0.001039	20.776682
376.115511	-3.004400	3.821100	-11.479000	22.963953	0.001040	20.783944
377.121066	-3.001600	3.820300	-11.466000	22.957627	0.001042	20.775235
378.119066	-2.979800	3.820600	-11.384000	22.950553	0.001043	20.792329
379.113981	-3.011100	3.818300	-11.496000	22.974839	0.001042	20.796747
380.120084	-2.995200	3.819400	-11.439000	22.982013	0.001042	20.782124
381.118843	-2.990000	3.820000	-11.420000	22.992699	0.001043	20.790934
382.126096	-2.993400	3.820600	-11.434000	22.991952	0.001043	20.794453
383.134671	-2.988000	3.819100	-11.410000	23.014494	0.001044	20.785744
384.118387	-3.002200	3.818400	-11.461000	22.979748	0.001046	20.798821
385.126052	-2.990000	3.819900	-11.420000	22.989987	0.001045	20.805760
386.125226	-2.986200	3.818000	-11.400000	22.974618	0.001045	20.793207
387.124273	-3.024900	3.816100	-11.542000	22.974171	0.001046	20.787543
388.141548	-3.033900	3.818100	-11.584000	22.992603	0.001047	20.777561
389.130974	-3.002000	3.817200	-11.458000	22.968045	0.001048	20.784724
390.132762	-2.981500	3.819200	-11.385000	23.004683	0.001048	20.773544
391.133287	-2.993700	3.816800	-11.425000	23.011060	0.001047	20.801744
392.108413	-3.008300	3.816900	-11.482000	23.040698	0.001048	20.774542
393.113348	-3.005900	3.815900	-11.469000	23.029491	0.001049	20.787969
394.113651	-3.005300	3.815200	-11.465000	23.033873	0.001049	20.794256
395.112275	-3.024600	3.814400	-11.536000	23.040848	0.001050	20.800297
396.108872	-3.008200	3.814500	-11.474000	23.036191	0.001050	20.806536
397.114473	-3.004400	3.813600	-11.456000	23.077634	0.001049	20.803965
398.109496	-3.011800	3.814300	-11.487000	23.077310	0.001052	20.787044
399.113276	-2.994000	3.814800	-11.421000	23.075068	0.001049	20.815144
400.112977	-2.988300	3.814100	-11.396000	23.080921	0.001050	20.788293
401.115048	-3.016100	3.815100	-11.506000	23.066749	0.001051	20.816765
402.127326	-2.979800	3.815300	-11.368000	23.051134	0.001051	20.809180
403.144832	-2.974900	3.815300	-11.349000	23.050710	0.001051	20.817765
404.136147	-2.989900	3.814300	-11.402000	23.056513	0.001054	20.813622
405.127085	-3.010800	3.813700	-11.480000	23.052354	0.001053	20.794281
406.129189	-3.030700	3.813000	-11.555000	23.061694	0.001054	20.800321
407.125762	-3.020800	3.812500	-11.514000	23.079725	0.001053	20.798474
408.129640	-2.994100	3.813300	-11.416000	23.090609	0.001054	20.790887
409.134754	-2.996100	3.813100	-11.422000	23.093372	0.001055	20.799346
410.130297	-2.997900	3.813300	-11.431000	23.114492	0.001056	20.801069
411.145772	-3.027600	3.812300	-11.541000	23.137678	0.001055	20.801543
412.133851	-3.000700	3.812800	-11.440000	23.135189	0.001057	20.819911
413.136398	-2.976500	3.813200	-11.349000	23.156680	0.001054	20.812049
414.118425	-3.000500	3.810300	-11.431000	23.156680	0.001055	20.816790
415.139589	-2.995600	3.811700	-11.416000	23.152347	0.001055	20.826673
416.120184	-2.997300	3.811400	-11.423000	23.149507	0.001055	20.809128
417.119313	-3.000200	3.810400	-11.431000	23.150429	0.001057	20.807682
418.121607	-3.026400	3.809200	-11.527000	23.162035	0.001057	20.796078
419.116281	-3.007700	3.808700	-11.454000	23.157103	0.001058	20.801568
420.142103	-2.992400	3.810100	-11.400000	23.150156	0.001059	20.816417
421.120439	-3.001300	3.809400	-11.432000	23.154289	0.001057	20.810602
422.115631	-3.006600	3.807100	-11.444000	23.147041	0.001060	20.835107
423.119107	-2.985500	3.807700	-11.367000	23.149906	0.001058	20.801942
424.140671	-3.008900	3.808300	-11.458000	23.169630	0.001060	20.814595
425.140478	-3.000400	3.808200	-11.425000	23.152795	0.001059	20.813846
426.147096	-2.975200	3.809200	-11.332000	23.184796	0.001059	20.797550
427.140361	-3.019500	3.807200	-11.494000	23.174936	0.001059	20.807109
428.146956	-3.028300	3.806900	-11.527000	23.187537	0.001060	20.816418
429.139799	-3.009700	3.807400	-11.458000	23.199664	0.001061	20.843269
430.142128	-3.011400	3.806200	-11.461000	23.207109	0.001061	20.822281
431.140349	-2.991800	3.806600	-11.388000	23.217420	0.001061	20.837829
432.120191	-3.006700	3.807600	-11.446000	23.194410	0.001061	20.822831
433.124128	-3.006400	3.806400	-11.443000	23.218590	0.001062	20.822881
434.119052	-3.026500	3.805800	-11.516000	23.218441	0.001064	20.824154
435.120688	-2.994600	3.805900	-11.396000	23.250515	0.001063	20.824054
436.121613	-3.002400	3.805400	-11.425000	23.259529	0.001063	20.836881
437.130702	-3.003900	3.805200	-11.430000	23.242324	0.001066	20.810630
438.121199	-3.021200	3.803900	-11.491000	23.249420	0.001062	20.822482
439.122859	-3.021700	3.803100	-11.492000	23.272205	0.001062	20.849110
440.121990	-3.014400	3.805300	-11.469000	23.280274	0.001065	20.838705
441.119288	-3.016200	3.803400	-11.471000	23.278432	0.001062	20.834961
442.123477	-2.999100	3.805000	-11.410000	23.258412	0.001066	20.832917
443.124235	-3.018100	3.802800	-11.475000	23.264315	0.001065	20.822711
444.119627	-2.996600	3.801900	-11.392000	23.268872	0.001064	20.858571
445.126569	-3.001300	3.802700	-11.412000	23.299027	0.001068	20.836162
446.127465	-2.999900	3.803100	-11.408000	23.270167	0.001067	20.819093
447.123925	-3.031400	3.800600	-11.520000	23.307246	0.001067	20.826856
448.123076	-2.991300	3.801900	-11.371000	23.300896	0.001066	20.831397
449.126979	-2.998700	3.802400	-11.401000	23.280006	0.001068	20.838435
450.125657	-3.015100	3.799900	-11.456000	23.302042	0.001065	20.841080
451.126480	-2.989900	3.802100	-11.367000	23.276196	0.001067	20.857850
452.125404	-2.992200	3.802000	-11.376000	23.281699	0.001070	20.825434
453.126910	-3.000600	3.799700	-11.401000	23.244471	0.001068	20.826058
454.127745	-2.995700	3.800600	-11.384000	23.263074	0.001068	20.844700
455.131729	-3.008300	3.800200	-11.431000	23.276994	0.001068	20.833047
456.135262	-3.004700	3.801000	-11.420000	23.236230	0.001070	20.821118
457.126340	-2.997100	3.799800	-11.387000	23.246939	0.001068	20.830901
458.129474	-2.982700	3.799400	-11.331000	23.261008	0.001069	20.825087
459.129786	-2.988600	3.799200	-11.353000	23.230654	0.001069	20.838289
460.125208	-3.015100	3.799100	-11.453000	23.245022	0.001070	20.850317
461.132786	-2.976800	3.798500	-11.307000	23.260189	0.001071	20.862670
462.127269	-2.970000	3.800400	-11.286000	23.250776	0.001070	20.849444
463.133623	-3.001200	3.797700	-11.397000	23.221267	0.001070	20.836468
464.129157	-2.989300	3.798500	-11.353000	23.256802	0.001071	20.842208
465.129891	-2.998700	3.797600	-11.386000	23.259543	0.001072	20.858230
466.125630	-3.004400	3.798000	-11.409000	23.287780	0.001073	20.843381
467.127426	-2.988000	3.796900	-11.345000	23.332152	0.001070	20.848497
468.136858	-2.992900	3.796300	-11.361000	23.327796	0.001072	20.836071
469.127562	-2.993700	3.795200	-11.361000	23.331805	0.001072	20.848149
470.128708	-3.002900	3.795700	-11.397000	23.337233	0.001074	20.841736
471.126641	-2.977900	3.797100	-11.307000	23.347892	0.001074	20.838668
472.127934	-2.999800	3.796600	-11.388000	23.362259	0.001073	20.845955
473.128003	-2.979500	3.796700	-11.311000	23.396345	0.001074	20.841712
474.127229	-3.007100	3.795400	-11.412000	23.409018	0.001075	20.849199
475.130136	-2.985200	3.795600	-11.330000	23.417733	0.001075	20.848451
476.125832	-2.982600	3.794700	-11.317000	23.405160	0.001073	20.839643
477.129921	-2.994500	3.793300	-11.359000	23.386237	0.001074	20.858607
478.126316	-3.007100	3.793700	-11.408000	23.382801	0.001075	20.850422
479.131194	-3.000700	3.792600	-11.380000	23.381357	0.001073	20.849449
480.131491	-2.988600	3.794300	-11.339000	23.408796	0.001076	20.848976
481.129538	-2.987100	3.793900	-11.333000	23.416986	0.001076	20.866667
482.128301	-3.001400	3.794100	-11.386000	23.440640	0.001076	20.862875
483.136291	-3.011400	3.792100	-11.419000	23.439444	0.001076	20.864996
484.131290	-3.003800	3.791700	-11.388000	23.452739	0.001076	20.857459
485.133828	-3.017600	3.791700	-11.440000	23.455801	0.001077	20.864321
486.136003	-2.999700	3.791700	-11.373000	23.480748	0.001078	20.853766
487.131511	-3.019400	3.790700	-11.444000	23.469619	0.001076	20.853042
488.139277	-2.994300	3.790800	-11.350000	23.456350	0.001078	20.869138
489.134674	-3.007900	3.790700	-11.401000	23.459163	0.001077	20.858683
490.135656	-2.965400	3.792100	-11.244000	23.437378	0.001079	20.871933
491.139226	-2.978700	3.791100	-11.292000	23.481073	0.001078	20.878746
492.134516	-2.987400	3.789600	-11.320000	23.481769	0.001079	20.868064
493.132555	-2.993000	3.788800	-11.337000	23.477911	0.001078	20.863724
494.144725	-2.989000	3.790200	-11.328000	23.477315	0.001078	20.861704
495.136903	-2.987600	3.789600	-11.320000	23.475422	0.001078	20.869763
496.134375	-2.976700	3.789400	-11.279000	23.461703	0.001080	20.868815
497.140780	-3.000200	3.787800	-11.363000	23.472709	0.001078	20.870837
498.135407	-3.008400	3.787600	-11.394000	23.488468	0.001079	20.870512
499.137575	-2.986300	3.788200	-11.310000	23.511995	0.001079	20.882715
500.134238	-2.979200	3.787400	-11.282000	23.492129	0.001079	20.865647
501.132890	-3.007400	3.786800	-11.387000	23.519192	0.001079	20.865748
502.135171	-3.008100	3.787300	-11.392000	23.533182	0.001080	20.892099
503.135325	-2.996700	3.787300	-11.347000	23.528378	0.001081	20.875430
504.140015	-2.992900	3.786800	-11.333000	23.530595	0.001080	20.865799
505.136804	-3.003900	3.786700	-11.372000	23.528926	0.001081	20.880721
506.137656	-3.000700	3.785900	-11.360000	23.520663	0.001078	20.875283
507.136161	-3.012700	3.784600	-11.401000	23.506049	0.001081	20.886711
508.135577	-2.983500	3.785100	-11.292000	23.509983	0.001081	20.881172
509.137917	-3.007900	3.785700	-11.386000	23.520762	0.001079	20.893399
510.145016	-3.007400	3.783800	-11.378000	23.531518	0.001082	20.887112
511.142602	-3.004200	3.783100	-11.363000	23.516258	0.001079	20.888410
512.138217	-3.015600	3.783500	-11.408000	23.529527	0.001081	20.888435
513.140388	-3.002500	3.783100	-11.358000	23.527511	0.001081	20.912490
514.137332	-3.012200	3.783700	-11.396000	23.500250	0.001080	20.889433
515.141834	-3.004200	3.783700	-11.366000	23.527064	0.001081	20.879328
516.146230	-2.992100	3.783400	-11.319000	23.508169	0.001082	20.857070
517.139911	-3.008800	3.782400	-11.379000	23.512800	0.001082	20.892530
518.139401	-3.007500	3.782000	-11.373000	23.519722	0.001083	20.892830
519.139703	-3.000800	3.781400	-11.347000	23.542998	0.001083	20.897671
520.150762	-2.990900	3.781000	-11.307000	23.547306	0.001082	20.892506
521.144958	-2.974200	3.781800	-11.247000	23.567422	0.001082	20.890386
522.143840	-2.992100	3.781900	-11.315000	23.581537	0.001083	20.893156
523.143406	-3.015500	3.779900	-11.398000	23.592292	0.001081	20.887342
524.141597	-2.989400	3.781300	-11.302000	23.621219	0.001084	20.870350
525.144660	-3.014400	3.780800	-11.395000	23.604915	0.001081	20.896676
526.144713	-3.013400	3.779400	-11.388000	23.601479	0.001082	20.875691
527.145381	-2.986400	3.781200	-11.290000	23.609148	0.001084	20.891911
528.142092	-2.995900	3.778700	-11.320000	23.614749	0.001082	20.870027
529.146058	-2.994800	3.780500	-11.321000	23.616990	0.001084	20.873222
530.144983	-2.989100	3.778500	-11.293000	23.640215	0.001082	20.865685
531.145590	-3.009400	3.779100	-11.372000	23.616492	0.001084	20.887420
532.149166	-3.024300	3.777200	-11.423000	23.632973	0.001086	20.859848
533.150135	-3.000100	3.778600	-11.336000	23.628891	0.001083	20.906013
534.145094	-2.999600	3.778300	-11.332000	23.640093	0.001083	20.882632
535.145909	-3.003900	3.777400	-11.347000	23.665634	0.001083	20.882633
536.150344	-3.003300	3.777800	-11.344000	23.657644	0.001083	20.880786
537.147024	-2.996300	3.776600	-11.314000	23.668248	0.001084	20.882409
538.152660	-2.989500	3.777200	-11.291000	23.669494	0.001084	20.882235
539.151419	-3.012600	3.776400	-11.375000	23.669543	0.001083	20.868535
540.146858	-3.013300	3.775900	-11.377000	23.666034	0.001085	20.861224
541.145673	-3.007000	3.775000	-11.348000	23.654759	0.001083	20.852766
542.146886	-3.027500	3.774900	-11.426000	23.643756	0.001085	20.866865
543.147000	-2.996600	3.775000	-11.311000	23.664791	0.001085	20.873728
544.148833	-3.017500	3.774700	-11.389000	23.642562	0.001085	20.867564
545.148746	-3.005600	3.775300	-11.346000	23.676093	0.001084	20.856135
546.147807	-3.024500	3.773400	-11.411000	23.662180	0.001083	20.860679
547.154788	-3.029200	3.773200	-11.429000	23.690259	0.001086	20.861803
548.151591	-2.987700	3.774800	-11.277000	23.695062	0.001084	20.859033
549.146583	-2.994600	3.774000	-11.299000	23.683887	0.001085	20.843562
550.153508	-2.970700	3.774300	-11.211000	23.665791	0.001086	20.845334
551.148252	-2.991600	3.772700	-11.286000	23.653866	0.001086	20.869888
552.150170	-2.994100	3.772700	-11.295000	23.629174	0.001085	20.851773
553.149915	-2.997800	3.772000	-11.307000	23.632086	0.001085	20.861804
554.149621	-2.989800	3.771900	-11.275000	23.604928	0.001087	20.853545
555.153982	-2.993900	3.772500	-11.293000	23.583569	0.001086	20.841617
556.147830	-2.989600	3.771200	-11.273000	23.602862	0.001085	20.843414
557.150490	-2.988700	3.772400	-11.273000	23.629997	0.001087	20.838374
558.147778	-3.013300	3.769500	-11.357000	23.642493	0.001086	20.850900
559.155788	-2.979900	3.772200	-11.240000	23.666987	0.001086	20.824723
560.156455	-3.029200	3.770100	-11.419000	23.666789	0.001086	20.848705
561.148664	-3.008100	3.768800	-11.336000	23.674356	0.001086	20.854395
562.150159	-3.019800	3.769000	-11.381000	23.663577	0.001085	20.837425
563.154355	-3.007000	3.769000	-11.333000	23.661910	0.001086	20.844288
564.149362	-3.001700	3.769000	-11.313000	23.683441	0.001087	20.834106
565.152164	-2.982800	3.768700	-11.240000	23.658724	0.001087	20.839672
566.152470	-3.005600	3.767600	-11.323000	23.644908	0.001086	20.853322
567.156863	-2.998800	3.768000	-11.299000	23.634852	0.001086	20.841818
568.156133	-2.999100	3.768000	-11.300000	23.652375	0.001088	20.851799
569.152564	-2.997900	3.767100	-11.293000	23.657353	0.001086	20.819332
570.155463	-3.012900	3.766400	-11.347000	23.640749	0.001088	20.831135
571.156660	-3.001300	3.767800	-11.307000	23.622628	0.001088	20.836202
572.159306	-3.002800	3.765900	-11.307000	23.608762	0.001089	20.835577
573.160898	-2.983200	3.766200	-11.234000	23.625614	0.001088	20.837298
574.159006	-3.031500	3.765200	-11.413000	23.658796	0.001089	20.840218
575.164428	-2.999300	3.764700	-11.291000	23.655035	0.001088	20.814638
576.155920	-2.997400	3.764500	-11.283000	23.689562	0.001088	20.838346
577.158983	-3.002500	3.764000	-11.301000	23.690581	0.001088	20.849325
578.160102	-3.005900	3.763900	-11.313000	23.717016	0.001090	20.846904
579.153514	-2.992000	3.764900	-11.264000	23.721248	0.001090	20.837871
580.160623	-3.003300	3.763400	-11.301000	23.718359	0.001090	20.824070
581.162086	-3.000200	3.763100	-11.289000	23.731128	0.001090	20.845406
582.157739	-3.016700	3.762300	-11.349000	23.735757	0.001090	20.827288
583.161043	-2.989700	3.764500	-11.253000	23.743100	0.001090	20.840814
584.161837	-2.970500	3.763600	-11.177000	23.708127	0.001090	20.834200
585.163784	-2.986500	3.761900	-11.233000	23.702253	0.001087	20.820250
586.164705	-3.006900	3.762700	-11.313000	23.686396	0.001091	20.827111
587.161798	-3.002300	3.762900	-11.295000	23.658566	0.001088	20.814384
588.161263	-2.990000	3.763000	-11.249000	23.636760	0.001089	20.844679
589.162888	-3.005900	3.761700	-11.306000	23.620577	0.001091	20.800008
590.168260	-3.008900	3.760400	-11.313000	23.632527	0.001089	20.840910
591.164057	-2.991800	3.761400	-11.253000	23.669094	0.001089	20.806921
592.167743	-3.000600	3.760400	-11.281000	23.671358	0.001090	20.818200
593.167663	-3.001300	3.760000	-11.284000	23.689679	0.001091	20.833722
594.163083	-2.977300	3.761200	-11.196000	23.679820	0.001091	20.833795
595.170028	-2.996400	3.759200	-11.263000	23.736920	0.001090	20.831773
596.166105	-2.994400	3.759400	-11.255000	23.719621	0.001090	20.821067
597.165531	-2.997400	3.757900	-11.263000	23.727634	0.001089	20.835739
598.175147	-3.007700	3.759300	-11.306000	23.750657	0.001092	20.818520
599.183623	-3.004600	3.757900	-11.290000	23.762431	0.001090	20.819418
600.168423	-3.003800	3.758300	-11.287000	23.741970	0.001091	20.831620
601.168707	-2.996900	3.756800	-11.258000	23.731291	0.001089	20.845095
602.169925	-2.987500	3.758600	-11.228000	23.755385	0.001089	20.826105
603.164429	-3.006900	3.755300	-11.291000	23.741694	0.001089	20.815697
604.171489	-3.007200	3.757400	-11.297000	23.765464	0.001089	20.831942
605.176990	-3.017400	3.756200	-11.333000	23.748464	0.001091	20.831019
606.174800	-3.003900	3.756300	-11.283000	23.775419	0.001090	20.814423
607.174399	-3.003100	3.756500	-11.280000	23.759813	0.001089	20.813949
608.170674	-2.984600	3.756200	-11.209000	23.794061	0.001090	20.817941
609.173585	-2.981500	3.755900	-11.197000	23.791546	0.001087	20.816842
610.172246	-2.982200	3.755700	-11.199000	23.776487	0.001089	20.821183
611.170473	-3.001900	3.754500	-11.270000	23.759439	0.001087	20.817841
612.167627	-2.999800	3.754500	-11.262000	23.765958	0.001089	20.818214
613.168203	-3.008800	3.752800	-11.290000	23.800905	0.001089	20.810105
614.171487	-3.018900	3.753700	-11.330000	23.799684	0.001088	20.827372
615.175669	-3.004900	3.755800	-11.284000	23.795951	0.001086	20.815569
616.168287	-2.983500	3.752800	-11.196000	23.792416	0.001087	20.819137
617.173482	-3.008300	3.752300	-11.287000	23.800406	0.001089	20.798699
618.175975	-2.972400	3.753600	-11.156000	23.811757	0.001089	20.802019
619.172266	-2.990100	3.753200	-11.222000	23.815715	0.001088	20.801720
620.174763	-2.990300	3.751800	-11.218000	23.821563	0.001087	20.800472
621.168816	-3.010000	3.752200	-11.293000	23.850508	0.001086	20.805313
622.169272	-3.000900	3.751100	-11.256000	23.834381	0.001087	20.829445
623.168369	-2.993200	3.752000	-11.229000	23.852874	0.001087	20.795831
624.178067	-2.994400	3.751200	-11.231000	23.822410	0.001089	20.802743
625.179476	-2.998700	3.751000	-11.245000	23.822734	0.001088	20.810180
626.177313	-2.975800	3.752700	-11.166000	23.845010	0.001087	20.793162
627.171707	-2.994600	3.750600	-11.231000	23.828732	0.001087	20.800074
628.173542	-2.999200	3.750000	-11.245000	23.818628	0.001086	20.792313
629.178282	-2.990200	3.751800	-11.217000	23.828409	0.001086	20.803069
630.178640	-3.000500	3.749000	-11.247000	23.867658	0.001087	20.797854
631.179538	-3.016300	3.749600	-11.309000	23.858500	0.001086	20.819490
632.176194	-2.990900	3.749500	-11.213000	23.841079	0.001086	20.803919
633.174195	-3.008900	3.747600	-11.274000	23.864251	0.001086	20.827154
634.173832	-3.011600	3.748300	-11.286000	23.830302	0.001086	20.793588
635.178623	-3.009000	3.747700	-11.276000	23.818331	0.001084	20.785852
636.176106	-3.011900	3.747300	-11.285000	23.835629	0.001085	20.819317
637.180046	-3.000200	3.746300	-11.239000	23.796305	0.001086	20.792216
638.180103	-2.988200	3.746900	-11.196000	23.832219	0.001084	20.783655
639.176432	-2.993100	3.746300	-11.212000	23.856560	0.001085	20.791941
640.178882	-2.996200	3.746300	-11.223000	23.846879	0.001085	20.787924
641.180573	-3.001300	3.745700	-11.240000	23.861239	0.001087	20.812754
642.176938	-3.000900	3.746300	-11.241000	23.869876	0.001085	20.783956
643.181186	-3.002200	3.744800	-11.242000	23.874804	0.001084	20.784157
644.178314	-2.986700	3.745400	-11.185000	23.887024	0.001085	20.805893
645.186509	-3.025300	3.743300	-11.324000	23.865223	0.001085	20.789248
646.179647	-3.012600	3.743800	-11.277000	23.889438	0.001085	20.793141
647.180990	-3.008300	3.743700	-11.262000	23.872615	0.001085	20.773901
648.188462	-3.014300	3.744000	-11.284000	23.857110	0.001086	20.793915
649.178261	-3.002700	3.742900	-11.238000	23.864429	0.001085	20.804573
650.180323	-2.989900	3.742200	-11.188000	23.878067	0.001085	20.787428
651.174812	-3.003100	3.741400	-11.234000	23.881303	0.001084	20.782138
652.177372	-2.996500	3.743300	-11.216000	23.867541	0.001082	20.784460
653.183790	-3.009500	3.743100	-11.264000	23.881726	0.001085	20.776872
654.179995	-3.017000	3.741200	-11.286000	23.881752	0.001085	20.797761
655.178529	-2.987000	3.741300	-11.175000	23.915100	0.001084	20.788053
656.188056	-3.005000	3.741000	-11.241000	23.920875	0.001085	20.802853
657.181332	-3.024800	3.740700	-11.314000	23.928738	0.001085	20.781340
658.182106	-3.005000	3.739400	-11.234000	23.914678	0.001084	20.796165
659.186538	-3.009100	3.741300	-11.257000	23.887874	0.001084	20.795840
660.180562	-3.003500	3.740500	-11.234000	23.892975	0.001084	20.776773
661.178596	-2.993700	3.741000	-11.198000	23.888646	0.001083	20.789028
662.180859	-2.979700	3.740200	-11.142000	23.885933	0.001083	20.787255
663.184573	-3.014700	3.739500	-11.272000	23.891310	0.001086	20.787905
664.179398	-3.001600	3.737700	-11.218000	23.918137	0.001082	20.768813
665.180336	-3.001700	3.737700	-11.218000	23.937749	0.001083	20.777100
666.184374	-2.971200	3.738700	-11.107000	23.958379	0.001082	20.784511
667.188214	-3.004700	3.737700	-11.229000	23.950665	0.001082	20.780569
668.188067	-3.007200	3.736300	-11.235000	23.983215	0.001081	20.798038
669.183575	-3.014900	3.737400	-11.266000	23.964601	0.001083	20.795967
670.191932	-2.990600	3.737800	-11.176000	23.919284	0.001079	20.769014
671.184161	-3.025500	3.736700	-11.304000	23.940637	0.001083	20.766245
672.185665	-3.018500	3.736100	-11.276000	23.929712	0.001081	20.783265
673.181395	-3.008800	3.737200	-11.244000	23.950269	0.001083	20.780646
674.186111	-2.988800	3.735500	-11.164000	23.952434	0.001081	20.776653
675.186866	-3.006600	3.736300	-11.233000	23.924063	0.001082	20.781394
676.185485	-2.987400	3.736200	-11.160000	23.926951	0.001081	20.779074
677.187662	-2.999300	3.735300	-11.202000	23.947781	0.001080	20.753968
678.189997	-3.002300	3.734000	-11.209000	23.971223	0.001081	20.785064
679.189246	-2.992100	3.735100	-11.175000	23.919311	0.001080	20.761455
680.189205	-3.000700	3.733800	-11.203000	23.923492	0.001082	20.781295
681.182445	-2.995600	3.734800	-11.187000	23.910502	0.001080	20.788184
682.183896	-2.979200	3.735800	-11.129000	23.878670	0.001082	20.755790
683.189418	-2.994500	3.733500	-11.179000	23.891339	0.001082	20.752372
684.185935	-2.982400	3.735900	-11.140000	23.925458	0.001081	20.768568
685.187495	-2.974100	3.733500	-11.103000	23.921427	0.001079	20.754568
686.194311	-3.008900	3.732800	-11.230000	23.959004	0.001079	20.774707
687.191189	-2.999700	3.733900	-11.199000	23.957090	0.001080	20.773735
688.194127	-3.010300	3.732500	-11.235000	23.959652	0.001079	20.784840
689.192998	-2.987700	3.732700	-11.151000	23.955198	0.001079	20.773735
690.189795	-3.017700	3.732400	-11.262000	23.949799	0.001079	20.773536
691.189693	-3.004100	3.731300	-11.207000	23.968836	0.001081	20.776979
692.192572	-3.008700	3.731300	-11.225000	23.991805	0.001079	20.766823
693.187490	-3.007700	3.730600	-11.219000	23.972919	0.001079	20.755943
694.195504	-3.006700	3.729700	-11.212000	23.968663	0.001080	20.745985
695.194041	-3.009200	3.730600	-11.226000	23.973043	0.001078	20.762232
696.196117	-2.997400	3.729300	-11.177000	23.956867	0.001079	20.766400
697.189642	-2.992600	3.730500	-11.163000	23.967543	0.001079	20.755768
698.192364	-3.012600	3.728400	-11.230000	23.975284	0.001078	20.757367
699.191585	-2.997800	3.729800	-11.180000	23.975359	0.001079	20.759338
700.193309	-3.009000	3.728800	-11.219000	23.993649	0.001077	20.766776
701.192833	-3.007000	3.727600	-11.207000	23.997109	0.001077	20.763133
702.189081	-3.019300	3.726800	-11.251000	24.006293	0.001078	20.776610
703.191823	-3.026500	3.727200	-11.279000	23.979691	0.001076	20.755148
704.194197	-3.008400	3.727100	-11.211000	24.019581	0.001077	20.731613
705.192636	-3.003300	3.727300	-11.192000	24.016272	0.001077	20.742046
706.191578	-3.000000	3.727600	-11.182000	24.033690	0.001075	20.750032
707.193902	-3.000700	3.727200	-11.183000	24.015750	0.001075	20.764757
708.191095	-3.007300	3.725800	-11.203000	24.014009	0.001076	20.753527
709.189956	-3.008400	3.726600	-11.210000	24.001268	0.001077	20.750707
710.192338	-3.007200	3.725500	-11.201000	24.019484	0.001076	20.753328
711.190834	-2.998300	3.726100	-11.171000	24.043073	0.001074	20.742846
712.192245	-2.991200	3.725000	-11.141000	24.005201	0.001076	20.750858
713.195126	-2.995800	3.724500	-11.156000	23.972477	0.001077	20.742223
714.199810	-2.987000	3.725500	-11.127000	23.971756	0.001075	20.756674
715.191976	-2.991500	3.724900	-11.142000	23.959687	0.001076	20.745993
716.196852	-2.995100	3.725200	-11.156000	23.971556	0.001075	20.727074
717.195529	-3.011300	3.724100	-11.213000	23.997361	0.001076	20.739677
718.192662	-3.009400	3.724400	-11.206000	24.032600	0.001074	20.749412
719.196137	-2.990700	3.722600	-11.132000	24.010426	0.001074	20.751357
720.191844	-2.978400	3.724100	-11.091000	24.007192	0.001075	20.757123
721.197200	-2.998700	3.723100	-11.164000	24.024936	0.001074	20.745045
722.199944	-2.992900	3.722900	-11.141000	24.046086	0.001076	20.738281
723.199197	-2.994200	3.722800	-11.146000	24.045788	0.001075	20.747465
724.197510	-3.006200	3.721500	-11.186000	24.077141	0.001075	20.740976
725.201385	-3.005300	3.721000	-11.182000	24.084730	0.001072	20.745743
726.200111	-3.015900	3.721700	-11.223000	24.076818	0.001071	20.747765
727.201537	-3.018000	3.721400	-11.229000	24.092769	0.001077	20.735312
728.203828	-2.991400	3.722000	-11.133000	24.089160	0.001075	20.743073
729.194943	-3.000900	3.720500	-11.164000	24.105036	0.001071	20.738607
730.198717	-3.015000	3.719800	-11.212000	24.110312	0.001071	20.745321
731.202580	-3.021300	3.719300	-11.236000	24.143355	0.001073	20.739581
732.206714	-3.002000	3.719800	-11.165000	24.117926	0.001073	20.758173
733.202605	-2.985600	3.720400	-11.106000	24.121335	0.001071	20.746420
734.204345	-2.988100	3.719200	-11.112000	24.139623	0.001072	20.740105
735.202136	-3.011500	3.719200	-11.199000	24.176222	0.001073	20.739830
736.200579	-2.984500	3.719100	-11.098000	24.154328	0.001074	20.740629
737.204669	-3.014500	3.717700	-11.206000	24.169182	0.001071	20.728027
738.203140	-2.989400	3.719000	-11.115000	24.178984	0.001072	20.740230
739.203682	-3.018400	3.719100	-11.225000	24.165276	0.001070	20.739282
740.202990	-3.011900	3.717100	-11.194000	24.163135	0.001070	20.762740
741.206240	-2.988900	3.718200	-11.113000	24.141066	0.001071	20.747717
742.206360	-2.970200	3.718800	-11.044000	24.123351	0.001072	20.726629
743.204938	-3.008400	3.717600	-11.183000	24.085878	0.001070	20.738833
744.206050	-2.999300	3.716900	-11.147000	24.075651	0.001071	20.745172
745.202581	-3.004400	3.715400	-11.161000	24.096154	0.001070	20.740130
746.205534	-2.999800	3.716000	-11.146000	24.114294	0.001070	20.745996
747.207044	-2.996300	3.715800	-11.132000	24.121460	0.001070	20.741329
748.203505	-3.010100	3.716300	-11.186000	24.147013	0.001070	20.731870
749.207664	-3.001600	3.716500	-11.155000	24.147957	0.001070	20.741352
750.208616	-3.018700	3.714000	-11.211000	24.162913	0.001067	20.728376
751.207772	-2.995500	3.714700	-11.126000	24.179532	0.001068	20.746469
752.214952	-2.986900	3.714200	-11.092000	24.174829	0.001070	20.740329
753.211287	-2.980800	3.715300	-11.073000	24.201551	0.001069	20.742002
754.211260	-2.967000	3.713900	-11.018000	24.201528	0.001069	20.750039
755.216543	-2.984100	3.713400	-11.080000	24.219340	0.001067	20.742300
756.209754	-2.993500	3.714700	-11.118000	24.224316	0.001069	20.743499
757.216661	-3.008100	3.711700	-11.164000	24.204588	0.001067	20.736512
758.211434	-3.003000	3.712900	-11.148000	24.200158	0.001068	20.744872
759.210485	-2.995800	3.711900	-11.119000	24.210110	0.001069	20.750587
760.208213	-2.983500	3.713100	-11.077000	24.213667	0.001067	20.755103
761.214106	-3.000800	3.712800	-11.141000	24.196575	0.001065	20.747916
762.211416	-2.975800	3.713900	-11.051000	24.209687	0.001066	20.742576
763.212129	-2.971400	3.712900	-11.032000	24.201303	0.001066	20.756926
764.210285	-3.001100	3.711800	-11.138000	24.202945	0.001066	20.723010
765.210364	-3.010400	3.710500	-11.169000	24.209912	0.001066	20.745172
766.210169	-2.973000	3.712300	-11.035000	24.230785	0.001065	20.735289
767.211737	-3.007500	3.709800	-11.156000	24.229068	0.001064	20.726928
768.213778	-3.024400	3.709300	-11.216000	24.209315	0.001064	20.738883
769.211847	-3.009400	3.708900	-11.160000	24.219640	0.001065	20.758249
770.215592	-2.995400	3.710100	-11.112000	24.223794	0.001065	20.765261
771.218862	-3.014700	3.708200	-11.178000	24.219465	0.001064	20.747168
772.213694	-3.021400	3.709700	-11.207000	24.215087	0.001065	20.738983
773.210196	-3.000300	3.708100	-11.125000	24.213096	0.001062	20.758798
774.212101	-2.986800	3.710300	-11.081000	24.184237	0.001066	20.745024
775.214972	-2.994600	3.709700	-11.108000	24.176349	0.001063	20.746121
776.217975	-3.011300	3.709300	-11.168000	24.166547	0.001063	20.734867
777.212646	-3.004600	3.707300	-11.138000	24.145746	0.001062	20.757627
778.218718	-3.000700	3.708200	-11.126000	24.126985	0.001063	20.767260
779.212648	-2.997500	3.707300	-11.112000	24.132733	0.001061	20.758325
780.211088	-2.982100	3.706700	-11.052000	24.143383	0.001060	20.730599
781.214105	-2.997500	3.707000	-11.110000	24.169831	0.001060	20.756654
782.214716	-2.985100	3.706100	-11.061000	24.184736	0.001062	20.763543
783.214433	-2.994900	3.705200	-11.095000	24.198545	0.001062	20.743728
784.221657	-3.010200	3.704100	-11.149000	24.211283	0.001061	20.745599
785.215219	-3.006200	3.704900	-11.137000	24.192176	0.001059	20.754884
786.212552	-2.988900	3.706000	-11.076000	24.154133	0.001059	20.746124
787.218531	-2.997800	3.704200	-11.103000	24.173044	0.001060	20.722891
788.213883	-3.006700	3.704400	-11.137000	24.194441	0.001060	20.750517
789.218979	-3.001200	3.704900	-11.118000	24.190411	0.001061	20.752639
790.221934	-3.015100	3.703200	-11.163000	24.211236	0.001060	20.725636
791.214882	-2.980300	3.703900	-11.037000	24.212854	0.001059	20.749071
792.216159	-3.004700	3.704000	-11.129000	24.236564	0.001058	20.748197
793.227083	-2.995400	3.703600	-11.092000	24.238107	0.001059	20.756384
794.218039	-2.964900	3.704400	-10.981000	24.250745	0.001058	20.751517
795.215478	-2.985100	3.703800	-11.056000	24.256867	0.001061	20.766667
796.225299	-2.986100	3.704200	-11.060000	24.274205	0.001057	20.770782
797.215242	-2.996800	3.701400	-11.091000	24.265175	0.001058	20.774053
798.214164	-3.014300	3.701000	-11.155000	24.243679	0.001058	20.765767
799.222875	-3.012900	3.702100	-11.154000	24.255870	0.001058	20.759029
800.215813	-3.011700	3.700600	-11.145000	24.286419	0.001058	20.758852
801.216821	-2.998300	3.700700	-11.094000	24.282863	0.001056	20.753388
802.225426	-2.984100	3.702100	-11.047000	24.290775	0.001057	20.766067
803.219348	-3.005400	3.700200	-11.119000	24.299406	0.001056	20.756706
804.216638	-3.022000	3.700900	-11.183000	24.302764	0.001056	20.775249
805.215828	-3.003400	3.699300	-11.110000	24.295848	0.001054	20.764043
806.219934	-3.005800	3.698800	-11.117000	24.302515	0.001055	20.745600
807.219254	-2.990800	3.700000	-11.065000	24.319383	0.001054	20.756831
808.223766	-3.021300	3.698000	-11.173000	24.320799	0.001055	20.771529
809.222324	-2.998300	3.699000	-11.090000	24.311270	0.001055	20.758650
810.221071	-2.968100	3.699400	-10.979000	24.329754	0.001054	20.770080
811.222454	-3.003200	3.697700	-11.104000	24.344805	0.001054	20.756729
812.221950	-3.003300	3.700000	-11.112000	24.356347	0.001054	20.771153
813.219827	-3.006900	3.696700	-11.115000	24.355103	0.001054	20.765637
814.223273	-3.009900	3.696200	-11.124000	24.358511	0.001054	20.759572
815.225217	-2.977200	3.697400	-11.006000	24.385004	0.001054	20.785676
816.221055	-2.999600	3.697400	-11.090000	24.395202	0.001053	20.753707
817.221584	-3.005700	3.697100	-11.111000	24.395326	0.001052	20.769005
818.222330	-3.009500	3.695200	-11.120000	24.399605	0.001054	20.781832
819.223621	-2.991000	3.697300	-11.058000	24.367788	0.001054	20.775991
820.223077	-2.973800	3.696700	-10.993000	24.384379	0.001054	20.765608
821.221739	-2.970900	3.696800	-10.982000	24.366543	0.001052	20.780907
822.230698	-2.992400	3.696500	-11.061000	24.373557	0.001052	20.769926
823.227964	-2.999100	3.695700	-11.082000	24.371890	0.001050	20.767779
824.226272	-2.983300	3.694800	-11.022000	24.378978	0.001054	20.772993
825.228506	-2.969600	3.694700	-10.971000	24.405497	0.001052	20.780157
826.228979	-3.011500	3.693300	-11.120000	24.397560	0.001051	20.786893
827.223412	-3.004700	3.694000	-11.098000	24.410719	0.001051	20.784921
828.229739	-2.997000	3.694800	-11.073000	24.393504	0.001051	20.774289
829.231365	-2.964900	3.694400	-10.953000	24.368578	0.001049	20.791009
830.233632	-2.990700	3.692500	-11.042000	24.349721	0.001049	20.777308
831.243556	-3.004600	3.693000	-11.095000	24.316061	0.001049	20.784320
832.238154	-3.019500	3.693600	-11.153000	24.298697	0.001050	20.776859
833.235813	-3.008900	3.691800	-11.106000	24.256278	0.001048	20.785517
834.239144	-3.018100	3.692900	-11.144000	24.254288	0.001050	20.789685
835.238252	-3.013300	3.691500	-11.122000	24.223909	0.001048	20.797145
836.239371	-3.010900	3.691200	-11.113000	24.228114	0.001047	20.792354
837.241300	-2.982800	3.691800	-11.010000	24.215424	0.001048	20.785789
838.235434	-3.011600	3.689600	-11.111000	24.235154	0.001048	20.789458
839.236810	-2.999100	3.691200	-11.069000	24.230177	0.001047	20.784940
840.237624	-3.011100	3.690300	-11.110000	24.208283	0.001046	20.780524
841.245082	-3.013900	3.690800	-11.122000	24.191788	0.001046	20.786263
842.234965	-2.982600	3.690100	-11.005000	24.228386	0.001046	20.790730
843.244002	-3.007000	3.690800	-11.097000	24.266026	0.001045	20.781544
844.241136	-2.987300	3.690500	-11.025000	24.277248	0.001045	20.798491
845.235436	-2.985100	3.689600	-11.012000	24.303940	0.001045	20.778799
846.246696	-3.015600	3.688900	-11.123000	24.305284	0.001047	20.804329
847.239355	-2.978000	3.690100	-10.987000	24.296351	0.001045	20.799636
848.237014	-3.016700	3.688500	-11.126000	24.289237	0.001045	20.805776
849.243577	-2.981300	3.689900	-10.999000	24.289534	0.001045	20.809867
850.240163	-3.007700	3.688500	-11.093000	24.247439	0.001044	20.798462
851.238472	-2.993200	3.688900	-11.041000	24.276448	0.001043	20.802429
852.243253	-3.020400	3.686500	-11.134000	24.251096	0.001042	20.803552
853.240993	-3.012300	3.685400	-11.100000	24.267018	0.001044	20.790601
854.237469	-3.025300	3.686000	-11.150000	24.281000	0.001041	20.806521
855.242337	-3.006300	3.686500	-11.080000	24.268934	0.001041	20.791100
856.243865	-2.992500	3.687000	-11.032000	24.253733	0.001040	20.820896
857.238508	-3.019100	3.686200	-11.128000	24.265152	0.001041	20.799634
858.251807	-3.010200	3.686100	-11.094000	24.273113	0.001040	20.805722
859.243052	-3.000000	3.686600	-11.058000	24.283960	0.001040	20.814232
860.248128	-3.030000	3.685400	-11.165000	24.293091	0.001040	20.807745
861.242520	-3.004600	3.685900	-11.074000	24.305503	0.001041	20.815454
862.246761	-2.986900	3.684500	-11.003000	24.335781	0.001042	20.805049
863.241242	-3.017600	3.682500	-11.112000	24.357199	0.001040	20.805198
864.247500	-2.985200	3.684800	-10.998000	24.351701	0.001039	20.803476
865.246828	-2.995100	3.685400	-11.037000	24.362274	0.001038	20.811712
866.241304	-2.987700	3.685100	-11.009000	24.369561	0.001040	20.806220
867.246700	-3.018000	3.683400	-11.116000	24.392547	0.001037	20.799408
868.242782	-3.000800	3.685000	-11.057000	24.409014	0.001038	20.821143
869.241213	-3.001000	3.682400	-11.050000	24.405159	0.001037	20.817749
870.244285	-3.025800	3.681200	-11.136000	24.389661	0.001037	20.818323
871.247640	-2.996700	3.683200	-11.037000	24.419114	0.001037	20.819896
872.241243	-3.010800	3.682600	-11.086000	24.438044	0.001039	20.827033
873.250511	-3.028300	3.682200	-11.149000	24.458465	0.001038	20.829976
874.248409	-3.013400	3.682400	-11.095000	24.464261	0.001037	20.818248
875.247316	-3.000300	3.682100	-11.046000	24.483016	0.001040	20.827106
876.247696	-3.013100	3.681900	-11.094000	24.485204	0.001036	20.829776
877.245667	-2.986200	3.681100	-10.990000	24.506148	0.001038	20.826133
878.243151	-3.006000	3.680900	-11.063000	24.479582	0.001035	20.820817
879.247278	-2.997900	3.681300	-11.035000	24.473363	0.001034	20.826431
880.249424	-3.033700	3.678900	-11.159000	24.452543	0.001034	20.816449
881.243943	-3.006200	3.679500	-11.061000	24.405803	0.001036	20.826456
882.248245	-3.014200	3.679700	-11.091000	24.411623	0.001035	20.817122
883.248117	-3.003000	3.679100	-11.048000	24.416100	0.001036	20.802647
884.249355	-3.016900	3.678200	-11.096000	24.411349	0.001033	20.820166
885.248205	-3.006500	3.678900	-11.060000	24.448139	0.001033	20.807289
886.253734	-2.995500	3.678500	-11.017000	24.427144	0.001031	20.842176
887.248233	-2.991300	3.679000	-11.004000	24.425254	0.001033	20.825107
888.249910	-2.985800	3.678500	-10.983000	24.447244	0.001035	20.820615
889.254414	-2.984300	3.677800	-10.975000	24.459781	0.001031	20.827029
890.249375	-2.997300	3.678400	-11.023000	24.457119	0.001033	20.843324
891.249760	-2.996100	3.677100	-11.016000	24.495027	0.001034	20.829200
892.257174	-3.014400	3.679100	-11.089000	24.490474	0.001030	20.829848
893.252259	-3.008900	3.677200	-11.063000	24.517537	0.001030	20.849887
894.252674	-2.997800	3.676700	-11.021000	24.539375	0.001030	20.836237
895.251085	-3.004100	3.675800	-11.042000	24.547409	0.001029	20.839082
896.252144	-3.014600	3.676800	-11.083000	24.584743	0.001031	20.827704
897.251891	-2.997700	3.677700	-11.023000	24.609614	0.001029	20.843175
898.252402	-3.009200	3.676200	-11.061000	24.591532	0.001030	20.846368
899.257663	-2.997700	3.676800	-11.021000	24.598122	0.001029	20.844921
900.265559	-2.970500	3.677200	-10.923000	24.596954	0.001029	20.843749
901.256890	-3.010100	3.675000	-11.061000	24.563477	0.001028	20.842401
902.257668	-3.001200	3.674100	-11.026000	24.575391	0.001029	20.842027
903.255649	-2.980600	3.675700	-10.954000	24.568029	0.001030	20.840804
904.255932	-3.015200	3.674000	-11.076000	24.563551	0.001029	20.838682
905.255854	-2.991000	3.675600	-10.993000	24.562880	0.001029	20.847018
906.256972	-2.991000	3.674100	-10.988000	24.552657	0.001027	20.840554
907.255121	-2.989000	3.674900	-10.983000	24.563277	0.001028	20.843623
908.260320	-2.996000	3.672800	-11.002000	24.536788	0.001027	20.856400
909.255332	-3.004300	3.672900	-11.033000	24.521938	0.001028	20.859044
910.264706	-2.998000	3.674000	-11.013000	24.512984	0.001029	20.834414
911.260360	-2.988700	3.674300	-10.980000	24.498134	0.001024	20.857920
912.255451	-2.989300	3.672400	-10.976000	24.500223	0.001027	20.871869
913.257044	-3.015800	3.672800	-11.074000	24.512213	0.001025	20.857347
914.257384	-3.009900	3.671900	-11.051000	24.540791	0.001025	20.843821
915.257551	-2.995200	3.670900	-10.994000	24.568597	0.001025	20.840426
916.256207	-2.980600	3.672600	-10.945000	24.563846	0.001024	20.860789
917.258363	-3.009000	3.672200	-11.047000	24.585311	0.001026	20.863834
918.256547	-2.975100	3.671700	-10.923000	24.607968	0.001025	20.848161
919.258826	-3.020100	3.670800	-11.086000	24.614807	0.001024	20.864980
920.261604	-3.011400	3.670600	-11.053000	24.633211	0.001023	20.858317
921.260621	-2.994200	3.671400	-10.992000	24.646915	0.001024	20.873015
922.259498	-3.014000	3.670300	-11.061000	24.682104	0.001023	20.845739
923.258562	-3.034200	3.669000	-11.131000	24.652285	0.001023	20.858965
924.259964	-3.023900	3.668800	-11.094000	24.646044	0.001022	20.856970
925.261124	-3.020500	3.669200	-11.082000	24.661836	0.001021	20.864755
926.261983	-3.013500	3.668500	-11.054000	24.698294	0.001022	20.851080
927.259067	-2.996000	3.669200	-10.992000	24.678920	0.001022	20.855346
928.263447	-3.000800	3.669100	-11.009000	24.681033	0.001019	20.882121
929.259642	-3.010000	3.667700	-11.039000	24.627216	0.001019	20.857043
930.261297	-3.001600	3.667100	-11.006000	24.600951	0.001019	20.875732
931.268292	-3.002000	3.667200	-11.007000	24.579438	0.001019	20.875957
932.261230	-2.993100	3.668100	-10.978000	24.556133	0.001020	20.877230
933.263117	-2.994200	3.668300	-10.982000	24.586525	0.001021	20.868844
934.261509	-2.981400	3.667500	-10.932000	24.596574	0.001020	20.874659
935.265589	-3.006200	3.665600	-11.017000	24.607367	0.001017	20.889755
936.263189	-2.992200	3.667700	-10.974000	24.605128	0.001019	20.878501
937.262994	-3.025800	3.664100	-11.085000	24.647482	0.001017	20.877377
938.269127	-3.011500	3.666000	-11.038000	24.636391	0.001016	20.878577
939.264612	-2.999300	3.666600	-10.995000	24.601746	0.001016	20.886960
940.264323	-2.996100	3.664700	-10.978000	24.618832	0.001016	20.885139
941.264269	-3.010200	3.664900	-11.031000	24.639100	0.001017	20.888406
942.277111	-2.989900	3.663400	-10.953000	24.655093	0.001013	20.892600
943.265948	-2.997000	3.665100	-10.984000	24.633928	0.001016	20.883691
944.273058	-2.984000	3.665600	-10.937000	24.655143	0.001015	20.888857
945.266152	-3.013700	3.664500	-11.043000	24.662654	0.001015	20.909194
946.268939	-3.001300	3.663900	-10.995000	24.685782	0.001014	20.908221
947.268585	-3.026200	3.661900	-11.081000	24.707294	0.001015	20.897566
948.271592	-2.995900	3.664700	-10.978000	24.716968	0.001013	20.896368
949.271758	-2.998100	3.662100	-10.978000	24.724281	0.001013	20.888060
950.271504	-2.981500	3.663900	-10.923000	24.717665	0.001013	20.880473
951.271534	-2.989000	3.663000	-10.948000	24.723235	0.001012	20.884167
952.271865	-3.006400	3.662200	-11.009000	24.681531	0.001012	20.901110
953.268695	-2.959200	3.663900	-10.841000	24.677577	0.001012	20.883868
954.271376	-2.996000	3.662300	-10.972000	24.661289	0.001011	20.877956
955.277935	-3.018200	3.661600	-11.049000	24.671510	0.001012	20.894374
956.272649	-2.990100	3.661100	-10.946000	24.674046	0.001011	20.880325
957.272994	-3.016700	3.662100	-11.046000	24.693071	0.001010	20.899888
958.270466	-3.004200	3.660000	-10.994000	24.709212	0.001011	20.893801
959.272133	-3.001500	3.660900	-10.987000	24.717990	0.001008	20.878903
960.273031	-2.997400	3.660700	-10.971000	24.699885	0.001009	20.906252
961.274054	-3.010800	3.659600	-11.017000	24.675663	0.001009	20.903283
962.270199	-2.979100	3.661100	-10.905000	24.677256	0.001008	20.905355
963.272516	-2.978800	3.659100	-10.899000	24.670141	0.001009	20.909594
964.280441	-2.989200	3.659700	-10.938000	24.708590	0.001008	20.907400
965.272620	-2.995200	3.660000	-10.961000	24.730823	0.001008	20.924019
966.276279	-3.014700	3.658000	-11.027000	24.709659	0.001009	20.903258
967.278515	-2.989000	3.659900	-10.937000	24.704139	0.001008	20.898193
968.273328	-2.995700	3.658300	-10.959000	24.671311	0.001006	20.883745
969.275363	-2.999800	3.658400	-10.974000	24.604609	0.001007	20.892204
970.278621	-2.993300	3.658200	-10.949000	24.590408	0.001006	20.919203
971.274247	-3.003500	3.657600	-10.985000	24.587175	0.001005	20.903158
972.273442	-2.989300	3.658200	-10.934000	24.529521	0.001006	20.894624
973.276950	-2.988900	3.657800	-10.932000	24.531909	0.001005	20.899864
974.273838	-3.012800	3.657000	-11.017000	24.526213	0.001004	20.901736
975.273542	-3.002900	3.656800	-10.979000	24.526388	0.001004	20.909023
976.279969	-3.004500	3.656600	-10.986000	24.551509	0.001003	20.918106
977.278345	-2.986600	3.655200	-10.915000	24.591528	0.001001	20.884769
978.278922	-3.013500	3.655700	-11.015000	24.593741	0.001003	20.877032
979.277616	-3.018200	3.654500	-11.029000	24.611674	0.001001	20.902611
980.279673	-3.012400	3.654600	-11.008000	24.618316	0.001002	20.909748
981.278674	-3.002800	3.654600	-10.973000	24.663479	0.001002	20.887265
982.282483	-2.981700	3.654900	-10.897000	24.656143	0.001001	20.909773
983.279000	-2.980300	3.655400	-10.893000	24.664574	0.001001	20.910173
984.278441	-3.011100	3.653400	-10.998000	24.695140	0.001002	20.909076
985.281145	-2.986200	3.654600	-10.913000	24.700536	0.000999	20.910698
986.280356	-2.990200	3.653600	-10.924000	24.691833	0.001000	20.880630
987.283086	-3.013400	3.652900	-11.006000	24.686015	0.000998	20.906084
988.279850	-2.995100	3.652300	-10.938000	24.672760	0.001000	20.887094
989.281759	-2.993000	3.653500	-10.933000	24.645477	0.000998	20.901916
990.279365	-3.001000	3.653700	-10.963000	24.577258	0.000999	20.867607
991.283952	-2.996300	3.653300	-10.945000	24.581262	0.000998	20.864512
992.283311	-3.021800	3.651300	-11.033000	24.581810	0.000998	20.862217
993.280850	-3.008700	3.650100	-10.981000	24.600266	0.000995	20.896380
994.281754	-2.987900	3.651800	-10.910000	24.641079	0.000997	20.882806
995.283149	-3.004800	3.650500	-10.968000	24.676269	0.000995	20.883030
996.280799	-2.975000	3.652100	-10.864000	24.690570	0.000995	20.901172
997.283810	-2.968900	3.651200	-10.839000	24.707954	0.000994	20.873574
998.284790	-2.982200	3.650000	-10.884000	24.699250	0.000995	20.874323
999.283273	-3.001500	3.649800	-10.954000	24.696342	0.000994	20.858603
1000.291294	-2.997400	3.650200	-10.939000	24.700745	0.000994	20.879615
1001.282169	-3.006200	3.648700	-10.968000	24.709697	0.000995	20.865367
1002.283941	-2.989400	3.650300	-10.911000	24.682715	0.000994	20.866739
1003.281911	-3.001500	3.649200	-10.951000	24.629768	0.000992	20.870034
1004.285547	-3.005400	3.649900	-10.968000	24.609425	0.000992	20.880916
1005.283244	-2.998600	3.649600	-10.943000	24.613926	0.000993	20.879742
1006.285380	-2.979400	3.648900	-10.870000	24.615867	0.000992	20.880741
1007.282560	-2.992600	3.648600	-10.918000	24.647479	0.000991	20.878796
1008.281675	-2.997300	3.647600	-10.932000	24.696472	0.000993	20.866320
1009.287038	-3.015400	3.647000	-10.996000	24.710299	0.000989	20.870711
1010.288794	-3.014000	3.646900	-10.991000	24.721416	0.000992	20.880444
1011.283710	-2.975000	3.649800	-10.857000	24.751059	0.000990	20.846182
1012.283447	-2.999300	3.646900	-10.937000	24.734571	0.000992	20.878947
1013.292461	-3.010500	3.647400	-10.979000	24.709655	0.000992	20.887608
1014.282766	-2.984600	3.647900	-10.887000	24.727460	0.000991	20.859010
1015.291784	-3.006100	3.645700	-10.958000	24.696972	0.000990	20.878674
1016.288076	-3.014200	3.644500	-10.985000	24.710353	0.000991	20.877404
1017.287200	-3.020200	3.644000	-11.005000	24.718062	0.000989	20.870441
1018.285242	-2.995200	3.644200	-10.914000	24.710179	0.000990	20.856841
1019.289633	-2.990800	3.644900	-10.901000	24.717467	0.000989	20.857043
1020.288310	-3.014300	3.644100	-10.983000	24.679939	0.000987	20.860161
1021.292301	-2.999400	3.644600	-10.930000	24.689788	0.000987	20.856294
1022.301437	-3.008700	3.642900	-10.959000	24.667231	0.000989	20.862582
1023.293929	-2.998100	3.642700	-10.919000	24.630722	0.000989	20.856294
1024.295194	-3.001900	3.642200	-10.933000	24.608711	0.000987	20.834208
1025.297750	-3.000100	3.642900	-10.928000	24.599707	0.000987	20.853149
1026.298679	-3.005000	3.644000	-10.949000	24.619976	0.000986	20.841719
1027.297656	-3.012400	3.641900	-10.969000	24.637313	0.000986	20.871915
1028.299742	-2.992600	3.642100	-10.899000	24.669717	0.000986	20.849431
1029.299126	-2.997200	3.642500	-10.917000	24.683171	0.000985	20.849180
1030.298953	-2.995800	3.642700	-10.912000	24.709608	0.000985	20.865751
1031.300454	-2.996000	3.642400	-10.912000	24.718659	0.000982	20.856342
1032.301495	-3.008000	3.641200	-10.952000	24.736315	0.000983	20.865525
1033.300692	-2.991700	3.641000	-10.892000	24.733007	0.000982	20.847982
1034.300728	-2.992400	3.641900	-10.898000	24.749918	0.000985	20.861158
1035.300689	-2.984700	3.641000	-10.866000	24.753348	0.000985	20.870764
1036.301236	-2.998300	3.640900	-10.915000	24.781325	0.000983	20.852374
1037.302207	-2.990100	3.639200	-10.880000	24.815316	0.000982	20.842391
1038.305825	-3.015300	3.639400	-10.974000	24.801341	0.000984	20.862503
1039.301457	-2.992400	3.640300	-10.892000	24.761204	0.000981	20.870587
1040.304460	-3.020200	3.637000	-10.983000	24.743597	0.000981	20.829212
1041.302181	-2.986100	3.639600	-10.867000	24.697442	0.000981	20.841690
1042.302977	-2.996000	3.639000	-10.901000	24.689905	0.000981	20.854041
1043.301704	-2.995100	3.638500	-10.896000	24.663767	0.000979	20.859580
1044.307011	-3.001900	3.637900	-10.918000	24.674409	0.000978	20.830431
1045.306782	-3.004900	3.636900	-10.926000	24.660831	0.000977	20.831031
1046.323513	-3.012000	3.637400	-10.955000	24.656452	0.000979	20.842758
1047.311290	-2.995200	3.637500	-10.893000	24.632029	0.000977	20.841485
1048.303802	-2.986500	3.636300	-10.859000	24.660604	0.000978	20.831278
1049.304802	-3.000600	3.637800	-10.914000	24.647770	0.000978	20.859650
1050.308292	-2.971400	3.637100	-10.806000	24.671869	0.000977	20.860598
1051.308535	-2.986100	3.634400	-10.851000	24.692285	0.000978	20.854059
1052.305471	-2.997100	3.634500	-10.891000	24.717353	0.000977	20.859299
1053.307725	-2.996200	3.636600	-10.893000	24.742643	0.000976	20.837264
1054.313772	-3.002700	3.635800	-10.916000	24.738290	0.000974	20.839059
1055.324332	-2.987000	3.635300	-10.857000	24.760794	0.000976	20.864486
1056.319276	-3.017400	3.635000	-10.967000	24.782379	0.000976	20.830199
1057.313615	-2.990300	3.633900	-10.863000	24.814033	0.000975	20.830672
1058.316216	-2.995300	3.634600	-10.886000	24.839891	0.000974	20.838605
1059.314288	-2.998900	3.633700	-10.897000	24.845809	0.000973	20.849285
1060.312210	-2.973800	3.635300	-10.810000	24.864632	0.000974	20.840676
1061.313793	-2.992700	3.635000	-10.877000	24.858813	0.000974	20.848586
1062.313042	-3.011900	3.633000	-10.941000	24.873209	0.000972	20.848810
1063.311524	-3.002700	3.632900	-10.908000	24.849561	0.000971	20.836930
1064.314737	-2.989200	3.632100	-10.856000	24.865301	0.000973	20.854149
1065.313711	-2.973300	3.633800	-10.803000	24.857541	0.000970	20.860585
1066.317665	-2.970300	3.633000	-10.790000	24.869502	0.000971	20.837029
1067.316431	-2.973000	3.632900	-10.799000	24.898890	0.000969	20.842817
1068.312487	-3.006400	3.629500	-10.911000	24.895807	0.000970	20.825498
1069.314111	-3.006000	3.629900	-10.911000	24.905130	0.000969	20.855717
1070.318524	-2.979300	3.631200	-10.818000	24.880589	0.000969	20.837725
1071.314085	-2.988400	3.629200	-10.845000	24.875218	0.000970	20.845611
1072.314892	-3.026600	3.628900	-10.982000	24.881509	0.000969	20.842915
1073.316262	-3.022100	3.629600	-10.968000	24.888321	0.000966	20.845485
1074.317035	-3.019100	3.629200	-10.955000	24.909953	0.000967	20.828791
1075.319430	-2.988900	3.629700	-10.847000	24.927033	0.000966	20.843088
1076.317496	-3.004600	3.629600	-10.905000	24.896974	0.000966	20.848953
1077.314860	-3.000400	3.629500	-10.889000	24.901946	0.000964	20.830237
1078.313753	-3.006000	3.628100	-10.905000	24.902169	0.000965	20.834254
1079.316907	-2.961200	3.630700	-10.750000	24.936906	0.000966	20.822652
1080.316595	-2.975200	3.629800	-10.797000	24.929993	0.000966	20.844636
1081.318748	-3.016800	3.626700	-10.940000	24.900230	0.000965	20.831359
1082.319568	-2.995800	3.627700	-10.867000	24.881929	0.000966	20.824372
1083.318284	-3.007600	3.627200	-10.908000	24.862883	0.000964	20.835602
1084.318070	-3.033400	3.626600	-11.000000	24.875216	0.000965	20.851772
1085.320329	-3.006000	3.625000	-10.895000	24.845651	0.000963	20.841066
1086.318274	-2.993400	3.626600	-10.855000	24.829587	0.000962	20.825420
1087.317065	-2.995800	3.625800	-10.861000	24.847889	0.000963	20.840942
1088.316893	-3.021100	3.624700	-10.949000	24.869970	0.000961	20.828015
1089.318233	-2.991100	3.626800	-10.846000	24.894063	0.000961	20.824697
1090.317012	-3.018000	3.623600	-10.935000	24.866936	0.000960	20.821178
1091.320225	-3.005600	3.625700	-10.896000	24.853411	0.000960	20.824199
1092.318006	-3.000900	3.623700	-10.872000	24.852863	0.000960	20.815114
1093.316983	-2.996900	3.623800	-10.859000	24.824988	0.000959	20.819855
1094.317527	-2.987900	3.624500	-10.828000	24.803455	0.000958	20.835702
1095.319285	-2.996900	3.623500	-10.858000	24.792239	0.000959	20.838672
1096.318566	-2.992800	3.622900	-10.842000	24.803455	0.000958	20.820056
1097.319794	-2.988800	3.623500	-10.828000	24.768939	0.000958	20.831884
1098.319943	-3.023500	3.621300	-10.947000	24.774259	0.000959	20.835801
1099.317965	-3.010400	3.622200	-10.904000	24.810666	0.000957	20.825870
1100.320496	-2.981800	3.622600	-10.801000	24.831876	0.000958	20.831984
1101.319440	-2.998700	3.622200	-10.861000	24.837969	0.000957	20.822451
1102.320706	-2.992500	3.622400	-10.838000	24.847517	0.000957	20.814491
1103.320714	-3.000800	3.621700	-10.867000	24.855922	0.000956	20.812969
1104.322671	-3.004500	3.620300	-10.876000	24.906024	0.000953	20.836701
1105.322600	-3.002300	3.620100	-10.868000	24.910748	0.000955	20.813942
1106.324372	-3.015100	3.618000	-10.906000	24.928700	0.000954	20.822476
1107.322518	-3.017500	3.618800	-10.919000	24.955726	0.000954	20.817360
1108.321909	-2.987100	3.620000	-10.813000	24.956471	0.000955	20.813841
1109.324434	-3.000600	3.620000	-10.861000	24.985760	0.000954	20.845608
1110.323166	-2.986500	3.620000	-10.810000	24.974399	0.000954	20.808127
1111.324417	-2.985300	3.619900	-10.805000	24.966342	0.000954	20.819481
1112.328025	-2.965500	3.619700	-10.733000	24.974845	0.000952	20.828015
1113.325291	-2.999500	3.617500	-10.848000	24.975069	0.000952	20.815913
1114.324248	-2.991300	3.620000	-10.827000	24.967261	0.000953	20.809972
1115.325567	-3.001400	3.619100	-10.862000	24.963506	0.000952	20.827066
1116.326931	-3.008800	3.617700	-10.883000	24.984093	0.000951	20.828289
1117.326792	-2.999100	3.618500	-10.851000	24.989836	0.000951	20.815088
1118.329906	-3.023100	3.616300	-10.931000	24.972110	0.000951	20.836175
1119.326342	-3.006400	3.618000	-10.876000	25.001123	0.000949	20.832106
1120.325943	-2.998500	3.617200	-10.845000	24.985458	0.000950	20.801211
1121.331196	-3.001300	3.616600	-10.854000	24.968105	0.000948	20.815561
1122.326722	-2.991000	3.615600	-10.814000	24.996000	0.000948	20.819378
1123.326298	-3.007900	3.617000	-10.879000	24.967159	0.000949	20.831681
1124.332088	-3.019500	3.614800	-10.914000	24.998337	0.000949	20.809870
1125.330103	-3.020000	3.613300	-10.911000	24.995975	0.000948	20.814612
1126.327666	-2.985900	3.616300	-10.796000	24.974741	0.000946	20.805152
1127.337474	-3.009900	3.614100	-10.877000	24.980958	0.000946	20.818030
1128.331900	-3.012500	3.615100	-10.889000	24.975836	0.000945	20.815260
1129.328938	-2.975200	3.614800	-10.753000	24.969099	0.000946	20.810394
1130.331872	-2.986400	3.614200	-10.792000	24.950898	0.000944	20.798764
1131.330774	-3.002400	3.612900	-10.846000	24.959353	0.000943	20.799190
1132.330162	-2.995300	3.614300	-10.825000	24.978695	0.000943	20.812914
1133.330708	-2.992400	3.613300	-10.811000	24.963653	0.000942	20.803980
1134.329607	-2.994700	3.613000	-10.819000	24.953858	0.000942	20.830658
1135.335208	-2.992100	3.612600	-10.807000	24.937796	0.000943	20.814537
1136.334518	-3.000900	3.612400	-10.840000	24.967159	0.000941	20.818405
1137.334707	-3.023700	3.612800	-10.923000	24.963430	0.000941	20.803282
1138.336576	-3.014200	3.610900	-10.883000	24.976980	0.000942	20.795072
1139.334393	-3.003500	3.609800	-10.841000	24.963007	0.000940	20.777253
1140.338361	-3.003200	3.610900	-10.843000	24.950799	0.000941	20.798665
1141.338949	-2.982000	3.612500	-10.771000	24.979714	0.000940	20.783117
1142.335914	-3.013200	3.610300	-10.878000	24.990134	0.000940	20.799266
1143.337852	-2.978800	3.610300	-10.754000	25.015293	0.000938	20.804605
1144.339978	-3.012700	3.609500	-10.873000	25.005399	0.000938	20.797044
1145.338169	-2.990700	3.609000	-10.792000	25.027526	0.000936	20.805978
1146.340095	-3.006900	3.608300	-10.847000	25.030360	0.000937	20.811194
1147.340717	-2.980300	3.609600	-10.757000	25.033269	0.000936	20.768121
1148.335788	-2.998800	3.607600	-10.817000	25.043363	0.000935	20.796271
1149.341566	-2.998200	3.608200	-10.817000	25.051916	0.000936	20.793952
1150.337786	-2.998500	3.608200	-10.817000	25.018056	0.000935	20.777507
1151.337917	-3.002300	3.607000	-10.828000	24.987451	0.000936	20.788038
1152.340983	-3.007600	3.606700	-10.846000	24.985784	0.000935	20.786365
1153.339414	-2.971200	3.608500	-10.720000	24.984890	0.000934	20.799692
1154.338661	-2.993500	3.605500	-10.792000	24.961494	0.000934	20.776209
1155.342588	-2.983400	3.606800	-10.760000	24.973950	0.000934	20.788711
1156.339793	-2.981400	3.606100	-10.750000	24.926909	0.000934	20.767100
1157.339070	-2.995400	3.606800	-10.801000	24.943717	0.000932	20.786340
1158.341030	-3.000100	3.605600	-10.817000	24.959728	0.000930	20.780600
1159.345562	-3.014700	3.603700	-10.862000	24.989141	0.000932	20.779302
1160.342269	-3.021600	3.603100	-10.886000	24.975417	0.000930	20.773113
1161.343792	-2.994700	3.604000	-10.792000	24.963359	0.000931	20.785667
1162.348526	-3.004400	3.604200	-10.827000	24.968306	0.000929	20.783046
1163.343393	-2.989700	3.606300	-10.780000	24.966940	0.000928	20.765079
1164.343313	-3.032100	3.603000	-10.924000	24.947770	0.000929	20.782822
1165.341928	-3.025100	3.601900	-10.896000	24.947795	0.000928	20.776683
1166.342520	-2.974300	3.604200	-10.719000	24.952145	0.000928	20.791955
1167.349394	-2.979800	3.602800	-10.734000	24.931211	0.000926	20.784219
1168.345989	-3.005700	3.602800	-10.828000	24.937053	0.000929	20.765901
1169.343562	-3.000800	3.602400	-10.808000	24.898365	0.000927	20.768322
1170.346450	-2.966900	3.603000	-10.687000	24.915546	0.000926	20.789834
1171.350634	-3.004200	3.601900	-10.820000	24.964203	0.000927	20.777505
1172.344406	-3.023600	3.601200	-10.888000	24.984739	0.000925	20.777729
1173.348583	-2.993100	3.601100	-10.777000	24.985808	0.000924	20.766000
1174.353071	-2.982000	3.601300	-10.738000	25.002094	0.000925	20.805581
1175.347505	-2.995800	3.600400	-10.784000	24.972756	0.000923	20.778029
1176.356833	-2.988800	3.599700	-10.758000	24.976187	0.000924	20.781947
1177.345684	-2.991800	3.599000	-10.767000	24.951921	0.000923	20.777505
1178.347003	-2.983700	3.599500	-10.738000	24.949733	0.000921	20.778154
1179.350523	-2.991100	3.599100	-10.764000	24.956769	0.000923	20.770043
1180.346205	-2.977400	3.599300	-10.715000	24.979120	0.000923	20.780150
1181.347016	-2.995800	3.600400	-10.785000	25.014425	0.000922	20.769594
1182.349518	-3.013300	3.598700	-10.843000	25.027825	0.000920	20.780674
1183.349458	-3.004800	3.598200	-10.810000	25.009477	0.000922	20.772214
1184.345969	-2.996500	3.598000	-10.781000	25.014151	0.000920	20.793975
1185.350819	-3.002900	3.596600	-10.799000	25.016338	0.000922	20.791429
1186.352258	-3.016200	3.597400	-10.849000	25.015243	0.000920	20.786063
1187.357625	-3.002300	3.596300	-10.797000	25.036275	0.000918	20.778251
1188.350326	-3.004700	3.597500	-10.808000	25.036574	0.000919	20.786138
1189.350368	-3.000900	3.596100	-10.791000	25.029139	0.000919	20.780097
1190.349442	-2.970700	3.597400	-10.684000	25.009027	0.000919	20.760856
1191.354123	-2.992700	3.595800	-10.759000	25.019742	0.000916	20.780622
1192.350393	-3.023400	3.594200	-10.866000	25.017852	0.000918	20.789630
1193.350609	-3.005100	3.593400	-10.798000	25.003930	0.000917	20.763327
1194.355729	-2.993400	3.595200	-10.760000	25.034310	0.000916	20.782917
1195.352343	-2.992600	3.594300	-10.755000	24.992195	0.000914	20.788058
1196.358550	-2.994900	3.594500	-10.764000	24.986327	0.000916	20.786435
1197.357942	-2.986500	3.594500	-10.734000	24.990304	0.000915	20.751072
1198.351957	-2.999400	3.592800	-10.774000	24.998683	0.000913	20.779397
1199.352273	-3.005100	3.592600	-10.795000	25.003034	0.000913	20.771436
1200.359893	-2.997100	3.592600	-10.765000	25.010840	0.000912	20.762202
1201.354438	-3.023800	3.591600	-10.858000	25.009670	0.000912	20.787107
1202.359911	-3.007200	3.592800	-10.803000	25.026005	0.000912	20.784063
1203.356407	-3.004000	3.591800	-10.789000	25.015737	0.000912	20.781817
1204.352863	-2.998100	3.591200	-10.765000	25.054570	0.000914	20.778597
1205.359344	-2.995700	3.592200	-10.760000	25.059840	0.000910	20.787681
1206.361251	-2.971700	3.593700	-10.677000	25.050418	0.000910	20.746928
1207.356888	-3.014300	3.589900	-10.820000	25.072792	0.000911	20.766543
1208.354971	-3.005300	3.590700	-10.790000	25.067222	0.000907	20.780866
1209.362218	-2.981500	3.590900	-10.705000	25.049099	0.000909	20.779270
1210.354836	-2.987500	3.590000	-10.725000	25.030976	0.000908	20.777199
1211.354658	-3.000200	3.590100	-10.770000	25.038359	0.000906	20.768962
1212.358366	-3.013100	3.588300	-10.810000	25.021229	0.000907	20.767416
1213.360068	-2.991300	3.588300	-10.732000	25.039675	0.000905	20.783561
1214.356130	-2.999000	3.589500	-10.764000	25.019315	0.000906	20.785883
1215.358058	-2.997700	3.587700	-10.753000	25.048726	0.000905	20.799758
1216.362752	-3.000900	3.587600	-10.765000	25.042909	0.000903	20.750770
1217.356412	-2.997400	3.587600	-10.751000	25.029310	0.000902	20.750871
1218.362660	-3.000100	3.587000	-10.760000	25.057950	0.000903	20.757808
1219.364648	-2.981000	3.585400	-10.687000	25.079679	0.000901	20.759705
1220.357529	-3.011000	3.586600	-10.799000	25.094594	0.000900	20.784636
1221.360312	-3.013800	3.585300	-10.804000	25.105583	0.000901	20.793770
1222.362829	-3.003600	3.585800	-10.769000	25.113140	0.000901	20.780968
1223.362713	-3.016100	3.584500	-10.809000	25.103148	0.000900	20.778050
1224.362502	-2.996600	3.585100	-10.743000	25.081718	0.000900	20.787832
1225.359133	-3.001500	3.584500	-10.756000	25.072943	0.000898	20.793248
1226.363330	-3.009800	3.584300	-10.787000	25.060787	0.000899	20.792899
1227.365026	-2.994300	3.584700	-10.733000	25.073466	0.000899	20.771013
1228.361081	-3.013900	3.584400	-10.802000	25.092360	0.000898	20.765797
1229.367306	-2.990900	3.582500	-10.713000	25.089004	0.000898	20.789930
1230.369254	-2.985300	3.584700	-10.700000	25.120775	0.000897	20.768718
1231.365562	-3.007900	3.583600	-10.777000	25.108272	0.000897	20.769916
1232.368388	-2.990800	3.582700	-10.714000	25.121150	0.000896	20.779051
1233.365718	-2.975600	3.583300	-10.662000	25.121797	0.000896	20.792029
1234.365269	-2.997300	3.583400	-10.739000	25.097186	0.000894	20.791979
1235.365605	-2.992800	3.580600	-10.715000	25.119983	0.000894	20.776457
1236.368269	-3.002700	3.582500	-10.755000	25.139969	0.000895	20.779452
1237.367463	-3.017900	3.580500	-10.804000	25.135545	0.000894	20.767898
1238.366415	-2.977900	3.581900	-10.666000	25.120382	0.000894	20.773065
1239.369807	-2.990000	3.580400	-10.704000	25.092042	0.000891	20.779229
1240.369650	-3.008000	3.580700	-10.768000	25.090477	0.000891	20.790461
1241.368477	-3.014200	3.577900	-10.782000	25.110041	0.000892	20.772642
1242.373861	-3.002900	3.580400	-10.750000	25.143006	0.000891	20.782501
1243.374600	-3.002400	3.579600	-10.746000	25.148798	0.000891	20.772668
1244.369278	-2.992400	3.580000	-10.712000	25.142609	0.000889	20.784473
1245.373184	-3.005200	3.579400	-10.756000	25.137564	0.000890	20.773244
1246.375454	-2.994000	3.579300	-10.715000	25.139106	0.000890	20.788543
1247.368032	-2.982400	3.579300	-10.673000	25.138784	0.000890	20.773046
1248.378402	-3.013100	3.576200	-10.775000	25.127398	0.000889	20.788643
1249.371627	-2.987800	3.578300	-10.690000	25.137095	0.000888	20.781308
1250.376196	-2.994200	3.577400	-10.710000	25.126282	0.000886	20.776143
1251.372403	-3.016900	3.577400	-10.791000	25.128943	0.000889	20.800151
1252.372126	-2.995400	3.575900	-10.710000	25.106696	0.000886	20.782560
1253.377650	-3.012200	3.577100	-10.773000	25.097647	0.000885	20.774424
1254.376822	-2.992500	3.576100	-10.700000	25.102172	0.000887	20.792718
1255.370857	-3.003200	3.577400	-10.741000	25.103715	0.000885	20.773403
1256.372297	-3.003200	3.575100	-10.736000	25.092827	0.000885	20.803725
1257.371811	-3.004200	3.576000	-10.742000	25.101405	0.000884	20.791947
1258.371341	-3.000300	3.574900	-10.725000	25.095215	0.000883	20.769612
1259.372505	-2.996500	3.574600	-10.711000	25.103146	0.000883	20.791324
1260.373682	-3.008200	3.575400	-10.754000	25.101008	0.000882	20.793920
1261.373533	-3.009400	3.573500	-10.753000	25.149806	0.000883	20.806871
1262.375390	-2.991100	3.573900	-10.689000	25.108045	0.000881	20.775379
1263.374869	-2.997400	3.575000	-10.716000	25.129176	0.000881	20.792798
1264.373069	-3.002100	3.574600	-10.730000	25.125471	0.000880	20.791451
1265.374676	-3.004400	3.572000	-10.730000	25.075554	0.000882	20.786385
1266.374834	-3.001600	3.573400	-10.725000	25.036249	0.000879	20.804304
1267.378280	-2.994500	3.572700	-10.697000	24.989088	0.000879	20.807224
1268.378944	-3.003400	3.571800	-10.727000	24.973699	0.000878	20.793674
1269.376559	-2.996600	3.573200	-10.707000	24.967358	0.000877	20.773559
1270.377226	-3.011000	3.569900	-10.748000	24.953087	0.000877	20.785788
1271.376235	-2.997100	3.571800	-10.705000	24.977577	0.000879	20.782868
1272.379757	-3.019800	3.569600	-10.778000	24.973823	0.000877	20.783367
1273.378496	-2.997600	3.570400	-10.702000	25.013801	0.000876	20.803108
1274.379072	-2.989000	3.570100	-10.670000	24.976212	0.000874	20.781498
1275.379228	-2.992700	3.570800	-10.685000	25.033469	0.000876	20.771166
1276.378085	-2.998100	3.569500	-10.701000	25.001919	0.000874	20.793551
1277.378284	-2.989900	3.570000	-10.671000	25.007290	0.000874	20.791830
1278.380413	-3.019800	3.569400	-10.777000	25.019051	0.000875	20.783721
1279.381784	-2.977400	3.569200	-10.626000	25.028772	0.000874	20.803910
1280.378515	-3.006400	3.567500	-10.724000	25.074142	0.000872	20.776433
1281.381170	-2.997500	3.568600	-10.696000	25.092540	0.000872	20.791582
1282.378762	-3.009200	3.567400	-10.734000	25.075238	0.000871	20.800293
1283.381340	-2.990100	3.567000	-10.665000	25.049955	0.000871	20.787716
1284.381725	-2.997500	3.565700	-10.687000	25.037052	0.000871	20.794203
1285.382039	-3.005400	3.568700	-10.724000	25.018332	0.000869	20.812397
1286.381381	-2.983500	3.568300	-10.645000	25.033647	0.000868	20.786044
1287.384767	-2.999100	3.567100	-10.697000	25.031956	0.000869	20.800468
1288.383690	-2.988000	3.565400	-10.652000	25.064226	0.000870	20.799196
1289.383926	-3.005200	3.566300	-10.716000	25.078818	0.000869	20.790611
1290.385581	-3.006300	3.565800	-10.718000	25.109795	0.000868	20.797525
1291.383351	-2.996400	3.565100	-10.681000	25.129906	0.000867	20.815816
1292.382589	-3.018500	3.564500	-10.758000	25.168860	0.000865	20.773842
1293.386668	-3.002600	3.564000	-10.701000	25.183650	0.000866	20.797225
1294.383919	-2.990700	3.563400	-10.656000	25.170676	0.000864	20.796054
1295.385185	-3.024600	3.562900	-10.775000	25.162796	0.000866	20.790514
1296.386627	-2.997900	3.563400	-10.682000	25.161081	0.000867	20.815345
1297.385520	-2.984800	3.564200	-10.637000	25.135254	0.000865	20.810754
1298.388354	-3.008600	3.561600	-10.713000	25.132916	0.000864	20.800820
1299.385351	-2.993000	3.561900	-10.659000	25.057915	0.000864	20.808508
1300.384268	-2.967700	3.563600	-10.575000	25.065373	0.000862	20.812675
1301.388894	-3.005800	3.562300	-10.706000	25.064479	0.000863	20.808933
1302.385677	-2.991600	3.562700	-10.657000	25.109700	0.000863	20.816395
1303.389731	-2.997600	3.561000	-10.673000	25.135704	0.000863	20.807413
1304.390997	-3.029400	3.559800	-10.782000	25.145847	0.000863	20.808112
1305.385833	-3.010800	3.559400	-10.715000	25.132125	0.000862	20.818993
1306.387036	-3.004300	3.558700	-10.691000	25.159594	0.000863	20.813377
1307.386776	-2.983600	3.559000	-10.617000	25.160341	0.000861	20.814128
1308.387394	-2.975600	3.561900	-10.598000	25.189524	0.000859	20.793164
1309.386662	-2.985400	3.560100	-10.627000	25.181022	0.000862	20.825407
1310.388181	-2.964000	3.560700	-10.552000	25.185049	0.000858	20.820440
1311.386244	-2.991600	3.559300	-10.646000	25.201580	0.000859	20.809062
1312.389964	-3.018000	3.557700	-10.735000	25.234566	0.000860	20.807090
1313.390018	-3.008400	3.557700	-10.702000	25.224125	0.000856	20.802772
1314.388482	-3.004900	3.558200	-10.690000	25.238269	0.000856	20.816973
1315.390486	-2.995600	3.556300	-10.652000	25.240234	0.000857	20.806143
1316.392516	-3.005900	3.557900	-10.693000	25.214580	0.000856	20.814526
1317.389504	-2.973400	3.557300	-10.576000	25.185672	0.000858	20.823437
1318.389490	-3.006800	3.556500	-10.693000	25.175181	0.000855	20.816698
1319.393714	-2.982400	3.555600	-10.603000	25.165388	0.000855	20.823462
1320.390297	-2.992400	3.556200	-10.640000	25.123401	0.000855	20.828253
1321.397744	-3.011200	3.554600	-10.702000	25.110897	0.000853	20.811907
1322.393615	-2.980400	3.556100	-10.598000	25.137174	0.000854	20.825010
1323.393640	-3.005600	3.555300	-10.684000	25.136874	0.000854	20.827553
1324.394786	-3.003800	3.554900	-10.677000	25.141797	0.000854	20.814952
1325.392165	-3.005500	3.555900	-10.687000	25.148560	0.000851	20.826008
1326.393892	-3.005700	3.553700	-10.680000	25.130561	0.000852	20.813629
1327.395538	-3.008500	3.553300	-10.688000	25.138243	0.000851	20.823712
1328.397706	-2.993000	3.552800	-10.632000	25.128895	0.000850	20.831396
1329.399896	-2.978500	3.554200	-10.586000	25.110549	0.000850	20.824360
1330.397346	-3.014600	3.552500	-10.708000	25.105179	0.000849	20.830348
1331.394971	-2.982200	3.552700	-10.594000	25.092228	0.000849	20.826356
1332.401946	-3.027300	3.551600	-10.751000	25.136826	0.000849	20.833669
1333.397009	-2.987800	3.553100	-10.614000	25.141026	0.000846	20.848790
1334.394238	-3.005600	3.550700	-10.671000	25.161285	0.000847	20.814601
1335.393485	-3.001400	3.550900	-10.656000	25.157012	0.000846	20.809837
1336.398088	-2.999000	3.551800	-10.650000	25.166656	0.000845	20.834217
1337.395716	-2.991000	3.552500	-10.625000	25.177121	0.000846	20.849939
1338.400069	-2.989100	3.550900	-10.613000	25.183932	0.000846	20.830698
1339.399100	-3.004800	3.549900	-10.666000	25.175181	0.000844	20.832819
1340.394273	-3.000300	3.550400	-10.651000	25.198920	0.000844	20.829150
1341.396189	-3.005200	3.548200	-10.662000	25.185623	0.000844	20.824809
1342.402088	-2.984300	3.551100	-10.596000	25.165512	0.000844	20.865784
1343.401512	-3.002400	3.548500	-10.654000	25.160366	0.000844	20.850187
1344.399041	-2.953500	3.550800	-10.485000	25.132326	0.000843	20.835315
1345.396659	-2.991500	3.548800	-10.615000	25.137571	0.000842	20.841054
1346.399785	-2.990700	3.548100	-10.610000	25.173391	0.000840	20.830547
1347.400604	-2.984400	3.549400	-10.591000	25.173541	0.000840	20.854405
1348.404631	-2.979600	3.548700	-10.573000	25.209460	0.000840	20.839257
1349.398224	-3.003500	3.546700	-10.651000	25.207026	0.000839	20.833494
1350.398126	-2.983400	3.546100	-10.578000	25.231930	0.000839	20.845221
1351.401748	-3.012900	3.546200	-10.683000	25.233298	0.000839	20.838059
1352.396564	-3.002300	3.545500	-10.643000	25.253656	0.000838	20.829101
1353.394926	-2.985200	3.545500	-10.583000	25.234293	0.000838	20.839058
1354.397218	-3.014100	3.545600	-10.686000	25.235064	0.000837	20.834617
1355.395468	-2.992600	3.544900	-10.607000	25.217093	0.000836	20.844075
1356.398170	-3.033500	3.542300	-10.745000	25.214680	0.000837	20.843075
1357.399666	-3.005200	3.544800	-10.651000	25.203621	0.000837	20.866110
1358.402016	-2.994800	3.544700	-10.614000	25.197208	0.000835	20.849716
1359.402314	-3.003700	3.544500	-10.645000	25.228031	0.000833	20.861694
1360.398622	-2.994800	3.543800	-10.612000	25.238893	0.000834	20.854582
1361.402549	-3.010200	3.543000	-10.664000	25.263002	0.000836	20.855553
1362.398014	-3.009600	3.543100	-10.663000	25.294968	0.000833	20.851612
1363.398053	-3.011200	3.543200	-10.668000	25.332275	0.000833	20.862992
1364.399541	-3.003100	3.542100	-10.636000	25.318209	0.000831	20.857403
1365.400826	-3.008000	3.541500	-10.652000	25.338267	0.000834	20.865214
1366.400884	-2.976000	3.542300	-10.541000	25.323330	0.000832	20.845950
1367.404511	-2.995300	3.541500	-10.607000	25.315849	0.000831	20.853611
1368.406804	-2.983500	3.541700	-10.566000	25.307624	0.000830	20.874275
1369.401731	-3.020100	3.539900	-10.690000	25.294797	0.000829	20.869932
1370.403561	-2.998800	3.541000	-10.618000	25.286918	0.000831	20.840211
1371.405016	-3.013000	3.538700	-10.660000	25.252495	0.000829	20.863022
1372.402700	-3.012000	3.539500	-10.660000	25.265867	0.000829	20.851792
1373.404421	-3.000900	3.539700	-10.620000	25.268478	0.000828	20.879541
1374.404242	-3.011100	3.539200	-10.656000	25.261694	0.000828	20.871783
1375.404151	-2.992900	3.537800	-10.587000	25.273922	0.000827	20.864620
1376.406404	-3.005800	3.538600	-10.635000	25.290079	0.000829	20.882737
1377.403991	-3.001100	3.536000	-10.609000	25.290152	0.000827	20.860527
1378.403242	-3.018900	3.537300	-10.678000	25.309963	0.000826	20.880416
1379.408681	-3.002000	3.537800	-10.620000	25.285606	0.000826	20.860802
1380.412269	-2.993100	3.536700	-10.585000	25.277353	0.000826	20.863323
1381.405860	-2.992100	3.537100	-10.582000	25.283890	0.000824	20.856611
1382.411798	-2.999900	3.537600	-10.611000	25.294057	0.000825	20.869188
1383.409698	-2.989700	3.537100	-10.574000	25.293831	0.000824	20.878444
1384.408307	-3.015000	3.536100	-10.660000	25.299973	0.000821	20.872757
1385.409410	-2.998100	3.536800	-10.603000	25.329004	0.000821	20.866819
1386.414905	-2.987800	3.535300	-10.562000	25.330147	0.000821	20.853742
1387.410146	-2.988400	3.534300	-10.561000	25.315805	0.000821	20.883437
1388.411208	-3.011800	3.534600	-10.645000	25.320279	0.000821	20.881765
1389.417115	-3.014600	3.534100	-10.653000	25.345953	0.000821	20.862026
1390.416043	-2.975900	3.534900	-10.518000	25.335515	0.000820	20.879519
1391.414154	-2.991800	3.533300	-10.570000	25.353063	0.000821	20.893345
1392.413877	-3.007100	3.534900	-10.629000	25.367304	0.000819	20.869713
1393.412250	-3.012400	3.533100	-10.642000	25.368174	0.000820	20.859682
1394.421162	-3.024000	3.531000	-10.676000	25.365641	0.000818	20.873259
1395.413156	-3.001300	3.530800	-10.596000	25.321872	0.000817	20.900433
1396.414063	-2.982000	3.532400	-10.531000	25.334971	0.000816	20.883240
1397.415984	-3.023600	3.531900	-10.677000	25.336437	0.000817	20.868592
1398.418696	-2.998600	3.532000	-10.590000	25.337008	0.000816	20.890975
1399.415521	-3.020200	3.530900	-10.662000	25.342875	0.000816	20.896391
1400.417878	-2.990100	3.531500	-10.559000	25.332884	0.000815	20.883041
1401.415426	-3.024400	3.527400	-10.667000	25.378045	0.000814	20.879549
1402.414536	-3.020200	3.528700	-10.657000	25.361119	0.000815	20.878676
1403.418253	-3.005000	3.529600	-10.605000	25.349363	0.000814	20.897690
1404.421448	-2.987600	3.530500	-10.547000	25.341114	0.000813	20.883718
1405.418700	-3.005900	3.529400	-10.608000	25.378046	0.000812	20.891878
1406.420692	-2.988900	3.531000	-10.553000	25.381030	0.000812	20.886813
1407.420606	-3.009200	3.530600	-10.623000	25.380731	0.000811	20.898366
1408.417864	-3.011200	3.528700	-10.624000	25.389754	0.000811	20.904581
1409.422981	-2.973700	3.529400	-10.494000	25.376558	0.000811	20.898444
1410.422515	-2.977300	3.527800	-10.501000	25.387071	0.000810	20.897620
1411.418727	-2.983700	3.528300	-10.526000	25.417864	0.000807	20.895350
1412.421588	-2.983600	3.526800	-10.521000	25.435635	0.000808	20.874790
1413.419600	-2.989500	3.526700	-10.542000	25.462824	0.000809	20.892134
1414.420755	-3.012900	3.526400	-10.624000	25.466031	0.000807	20.900095
1415.420873	-2.982400	3.525500	-10.513000	25.466678	0.000807	20.904064
1416.424445	-2.994100	3.525700	-10.555000	25.477439	0.000805	20.876466
1417.421243	-2.994000	3.526200	-10.557000	25.499632	0.000807	20.907759
1418.423497	-2.990400	3.525300	-10.541000	25.471276	0.000805	20.914844
1419.424808	-3.012800	3.523800	-10.615000	25.510444	0.000806	20.882108
1420.422760	-3.001800	3.524400	-10.578000	25.512433	0.000805	20.911604
1421.425947	-3.001200	3.524500	-10.577000	25.509750	0.000805	20.895161
1422.422199	-3.007100	3.522600	-10.591000	25.537584	0.000805	20.915998
1423.419991	-3.002200	3.524100	-10.578000	25.536689	0.000803	20.907040
1424.428359	-2.999100	3.521600	-10.561000	25.546878	0.000803	20.887876
1425.423975	-2.980500	3.523600	-10.501000	25.546231	0.000802	20.889597
1426.429549	-3.009800	3.522700	-10.601000	25.542656	0.000801	20.899757
1427.426153	-3.010600	3.521200	-10.600000	25.528964	0.000804	20.890275
1428.426159	-2.993100	3.522300	-10.541000	25.519595	0.000802	20.915951
1429.425699	-2.987900	3.522100	-10.521000	25.549638	0.000800	20.909138
1430.431610	-2.994000	3.520400	-10.539000	25.549839	0.000800	20.916926
1431.427663	-2.985200	3.521200	-10.510000	25.564922	0.000800	20.909315
1432.430438	-3.000100	3.520800	-10.562000	25.510053	0.000801	20.902577
1433.430822	-3.012000	3.520400	-10.602000	25.495592	0.000801	20.912236
1434.432076	-3.005300	3.520300	-10.579000	25.480582	0.000799	20.913284
1435.431448	-3.005600	3.518200	-10.573000	25.477649	0.000797	20.902752
1436.428228	-3.009300	3.519500	-10.589000	25.472233	0.000796	20.906323
1437.429375	-2.978900	3.519200	-10.482000	25.469696	0.000797	20.926058
1438.430562	-2.986900	3.517500	-10.505000	25.472877	0.000797	20.920719
1439.432624	-2.970100	3.520200	-10.454000	25.475213	0.000796	20.887980
1440.429085	-2.988000	3.518700	-10.513000	25.491865	0.000796	20.897114
1441.429575	-3.017700	3.516800	-10.610000	25.501133	0.000797	20.909265
1442.433123	-3.022100	3.517000	-10.628000	25.484805	0.000798	20.929377
1443.426445	-3.014700	3.517000	-10.600000	25.522256	0.000796	20.942328
1444.429787	-3.014200	3.515800	-10.597000	25.493826	0.000794	20.919470
1445.434489	-2.986000	3.515400	-10.496000	25.450388	0.000794	20.932747
1446.433314	-3.003400	3.515000	-10.556000	25.441588	0.000794	20.917274
1447.433260	-2.990400	3.516600	-10.515000	25.435772	0.000793	20.903848
1448.441678	-2.996600	3.516500	-10.536000	25.443700	0.000793	20.905171
1449.440097	-2.984100	3.516000	-10.491000	25.479932	0.000793	20.914053
1450.435396	-3.015900	3.513900	-10.596000	25.469048	0.000791	20.916399
1451.438689	-3.013600	3.513400	-10.586000	25.446804	0.000791	20.913977
1452.440526	-3.008000	3.513000	-10.566000	25.490269	0.000790	20.909735
1453.436279	-2.995200	3.513700	-10.523000	25.480080	0.000790	20.930321
1454.440053	-2.998900	3.512900	-10.534000	25.475183	0.000788	20.903595
1455.439853	-3.009500	3.512100	-10.568000	25.416657	0.000790	20.923059
1456.436895	-2.988600	3.512800	-10.498000	25.388622	0.000787	20.913875
1457.442612	-3.003500	3.513000	-10.550000	25.394115	0.000787	20.897107
1458.440218	-3.006500	3.511800	-10.557000	25.358922	0.000788	20.915821
1459.436342	-3.026200	3.510500	-10.622000	25.344134	0.000787	20.915198
1460.441530	-2.997400	3.511300	-10.524000	25.332750	0.000786	20.900449
1461.438961	-2.995800	3.511700	-10.519000	25.329246	0.000786	20.904043
1462.438180	-2.979700	3.511000	-10.461000	25.353602	0.000786	20.908110
1463.438590	-3.003200	3.511200	-10.543000	25.383004	0.000786	20.898278
1464.443249	-2.993200	3.510600	-10.507000	25.397195	0.000786	20.893087
1465.444986	-3.026800	3.509000	-10.619000	25.358374	0.000785	20.903418
1466.440494	-3.004800	3.508600	-10.541000	25.341921	0.000783	20.895433
1467.440278	-3.001500	3.508800	-10.531000	25.331383	0.000785	20.892913
1468.440750	-3.007600	3.509400	-10.554000	25.354771	0.000784	20.898379
1469.443695	-3.001900	3.509000	-10.532000	25.352088	0.000784	20.895211
1470.440062	-2.978900	3.509200	-10.452000	25.392821	0.000781	20.889644
1471.440042	-2.985400	3.507200	-10.469000	25.415363	0.000784	20.898054
1472.444664	-3.000700	3.506600	-10.521000	25.417922	0.000780	20.899201
1473.441241	-2.995000	3.508100	-10.505000	25.422670	0.000781	20.896383
1474.440487	-2.986600	3.507300	-10.473000	25.415711	0.000780	20.896033
1475.439329	-3.012800	3.505400	-10.560000	25.423961	0.000780	20.895309
1476.445610	-2.998800	3.506600	-10.514000	25.464919	0.000779	20.894712
1477.441104	-2.998400	3.504600	-10.507000	25.414966	0.000778	20.894811
1478.445473	-2.998600	3.505900	-10.512000	25.404031	0.000777	20.892366
1479.450080	-3.001700	3.504700	-10.519000	25.381812	0.000777	20.908459
1480.444770	-2.992600	3.504900	-10.489000	25.337946	0.000776	20.887650
1481.444477	-2.991500	3.504900	-10.483000	25.378408	0.000776	20.900775
1482.445825	-3.005300	3.505100	-10.533000	25.366405	0.000777	20.880664
1483.447883	-3.017200	3.504500	-10.572000	25.380943	0.000775	20.881037
1484.446206	-3.008100	3.502500	-10.535000	25.404505	0.000776	20.880040
1485.446829	-2.984600	3.502500	-10.452000	25.404953	0.000775	20.897558
1486.447428	-2.979800	3.502200	-10.434000	25.449687	0.000775	20.891744
1487.448873	-2.988600	3.502100	-10.466000	25.456770	0.000775	20.879417
1488.447896	-2.978200	3.503800	-10.434000	25.457813	0.000772	20.897533
1489.447248	-2.990500	3.501200	-10.468000	25.466139	0.000773	20.877920
1490.445891	-2.987900	3.501600	-10.461000	25.473594	0.000774	20.896311
1491.450228	-2.986400	3.500600	-10.453000	25.441138	0.000772	20.883160
1492.448840	-3.015500	3.499700	-10.552000	25.410870	0.000769	20.895439
1493.449870	-2.990600	3.499900	-10.466000	25.349034	0.000772	20.873180
1494.448718	-2.993800	3.499100	-10.475000	25.308868	0.000772	20.873628
1495.450696	-2.989000	3.499800	-10.459000	25.302060	0.000770	20.875801
1496.449981	-2.992300	3.499400	-10.470000	25.279194	0.000768	20.873705
1497.451296	-3.004100	3.497600	-10.507000	25.269425	0.000769	20.891397
1498.446812	-3.009800	3.498600	-10.529000	25.258936	0.000767	20.898409
1499.450236	-3.003600	3.499000	-10.509000	25.283518	0.000765	20.882314
1500.452500	-3.026700	3.496900	-10.583000	25.276657	0.000768	20.871633
1501.451190	-3.022800	3.495900	-10.566000	25.319609	0.000767	20.879670
1502.450225	-2.992400	3.497500	-10.465000	25.304869	0.000766	20.893318
1503.457629	-2.990400	3.497400	-10.458000	25.333503	0.000767	20.880344
1504.454175	-3.008100	3.496400	-10.517000	25.375009	0.000766	20.864649
1505.451545	-3.001800	3.497000	-10.496000	25.394320	0.000765	20.882616
1506.456398	-2.991200	3.497000	-10.457000	25.369668	0.000765	20.889155
1507.456222	-3.005500	3.493600	-10.499000	25.354582	0.000766	20.879698
1508.455378	-2.992200	3.494100	-10.455000	25.349164	0.000762	20.876629
1509.454352	-2.984800	3.495300	-10.432000	25.318071	0.000763	20.858687
1510.451908	-3.000900	3.493600	-10.483000	25.318395	0.000763	20.881296
1511.456009	-2.987000	3.495000	-10.439000	25.355552	0.000764	20.878776
1512.453541	-3.010300	3.493600	-10.516000	25.347922	0.000764	20.868745
1513.451217	-2.987700	3.495900	-10.443000	25.383017	0.000762	20.884067
1514.458128	-2.993300	3.492300	-10.453000	25.380905	0.000761	20.881947
1515.451671	-3.002200	3.493800	-10.488000	25.378047	0.000759	20.854897
1516.451968	-2.992200	3.492400	-10.449000	25.393007	0.000762	20.880349
1517.453991	-2.972500	3.493000	-10.382000	25.422856	0.000760	20.866226
1518.453551	-2.991100	3.491600	-10.443000	25.412244	0.000760	20.882595
1519.456569	-3.017700	3.491500	-10.534000	25.432149	0.000760	20.865600
1520.454865	-3.002700	3.490500	-10.479000	25.443658	0.000760	20.855346
1521.455596	-2.998800	3.490600	-10.466000	25.488638	0.000758	20.869220
1522.452407	-3.003100	3.488700	-10.475000	25.485458	0.000759	20.866027
1523.455853	-2.985100	3.490700	-10.420000	25.485358	0.000756	20.840797
1524.463465	-3.002300	3.490300	-10.479000	25.496889	0.000756	20.878454
1525.452947	-2.986200	3.489000	-10.418000	25.503972	0.000757	20.865652
1526.455376	-3.015100	3.489000	-10.518000	25.493038	0.000755	20.856569
1527.455446	-3.021900	3.488800	-10.542000	25.431481	0.000754	20.851180
1528.461656	-2.998900	3.488600	-10.461000	25.426512	0.000755	20.864681
1529.460714	-3.010800	3.487000	-10.498000	25.408296	0.000752	20.840226
1530.463071	-3.003000	3.487500	-10.472000	25.390152	0.000752	20.874637
1531.457504	-2.999200	3.487800	-10.460000	25.359311	0.000753	20.845568
1532.463495	-3.007400	3.486800	-10.485000	25.357422	0.000751	20.865481
1533.461727	-2.990600	3.486800	-10.426000	25.363437	0.000750	20.840228
1534.463536	-3.014300	3.485200	-10.504000	25.356105	0.000752	20.851831
1535.456002	-2.993600	3.485600	-10.434000	25.374995	0.000751	20.830022
1536.459720	-3.004900	3.485700	-10.473000	25.357623	0.000751	20.849563
1537.460056	-3.002800	3.485200	-10.463000	25.375642	0.000750	20.848689
1538.466367	-2.994200	3.485400	-10.435000	25.381534	0.000750	20.834692
1539.464738	-2.978000	3.484800	-10.377000	25.338014	0.000749	20.843624
1540.462132	-3.009100	3.482400	-10.477000	25.347386	0.000748	20.847344
1541.461119	-3.010900	3.482800	-10.485000	25.366970	0.000748	20.852310
1542.466448	-3.005200	3.484000	-10.469000	25.329788	0.000749	20.857649
1543.464714	-3.003600	3.482300	-10.459000	25.346045	0.000746	20.835567
1544.464705	-2.993900	3.482500	-10.426000	25.328797	0.000749	20.831999
1545.465828	-2.994300	3.482100	-10.426000	25.340950	0.000747	20.842304
1546.467012	-2.999400	3.482300	-10.443000	25.357306	0.000745	20.847347
1547.464141	-3.017000	3.479800	-10.497000	25.391753	0.000745	20.850167
1548.466196	-3.017600	3.481700	-10.505000	25.392872	0.000743	20.847972
1549.467509	-3.003300	3.480200	-10.451000	25.381910	0.000744	20.854035
1550.467384	-2.988900	3.480800	-10.402000	25.370752	0.000746	20.849943
1551.465962	-2.984000	3.481600	-10.387000	25.379850	0.000744	20.834423
1552.463599	-3.002100	3.479700	-10.444000	25.332852	0.000746	20.861200
1553.464782	-3.000200	3.478800	-10.435000	25.286001	0.000744	20.831230
1554.470991	-2.994100	3.479100	-10.416000	25.314834	0.000744	20.832204
1555.471158	-2.993100	3.480200	-10.415000	25.322066	0.000742	20.829509
1556.464746	-2.990200	3.479300	-10.403000	25.358603	0.000743	20.844857
1557.470055	-3.002200	3.476700	-10.435000	25.396406	0.000742	20.833978
1558.469845	-2.977900	3.477800	-10.356000	25.429310	0.000743	20.823396
1559.465826	-2.989700	3.477900	-10.397000	25.411541	0.000741	20.813615
1560.469900	-3.009000	3.477200	-10.462000	25.383706	0.000741	20.840192
1561.468639	-2.979400	3.477100	-10.359000	25.369417	0.000740	20.819207
1562.465725	-3.005200	3.475300	-10.443000	25.390071	0.000742	20.834729
1563.472812	-3.003100	3.476300	-10.440000	25.434383	0.000739	20.838921
1564.471135	-3.013200	3.474600	-10.467000	25.436346	0.000741	20.835677
1565.468522	-2.996900	3.475500	-10.415000	25.451854	0.000737	20.836551
1566.470395	-3.008900	3.475500	-10.456000	25.497059	0.000738	20.842116
1567.469825	-2.989000	3.474100	-10.383000	25.517063	0.000739	20.815738
1568.472412	-3.001700	3.472700	-10.423000	25.517611	0.000737	20.841418
1569.471109	-2.977000	3.474500	-10.341000	25.488187	0.000736	20.828940
1570.471314	-2.994000	3.472700	-10.395000	25.476060	0.000736	20.811073
1571.471796	-3.001100	3.472300	-10.420000	25.436746	0.000736	20.820431
1572.477680	-3.008800	3.472200	-10.446000	25.459633	0.000736	20.823026
1573.476373	-3.008700	3.472400	-10.446000	25.459832	0.000736	20.827018
1574.472013	-2.970000	3.472100	-10.310000	25.434608	0.000736	20.822552
1575.473728	-2.984100	3.473100	-10.363000	25.450811	0.000734	20.833606
1576.477689	-3.012700	3.471400	-10.457000	25.419471	0.000733	20.821577
1577.476308	-3.008900	3.472100	-10.446000	25.353535	0.000733	20.826019
1578.475285	-2.989000	3.470800	-10.372000	25.374935	0.000735	20.805307
1579.474998	-2.986500	3.471000	-10.366000	25.380377	0.000732	20.810297
1580.476161	-3.003500	3.469800	-10.420000	25.403862	0.000731	20.837197
1581.475544	-3.007200	3.470400	-10.435000	25.437735	0.000732	20.812890
1582.476001	-2.993500	3.469400	-10.385000	25.441166	0.000732	20.833879
1583.475864	-3.012300	3.469500	-10.449000	25.458534	0.000730	20.818603
1584.476157	-2.986800	3.469300	-10.361000	25.445762	0.000732	20.813839
1585.475378	-3.013500	3.466700	-10.446000	25.464101	0.000730	20.836521
1586.477735	-2.976400	3.468800	-10.323000	25.460248	0.000730	20.829807
1587.485377	-2.967000	3.469200	-10.292000	25.469442	0.000731	20.800634
1588.476900	-2.988900	3.466600	-10.360000	25.476474	0.000732	20.837092
1589.476132	-2.996400	3.468000	-10.389000	25.494986	0.000729	20.811586
1590.478695	-2.997200	3.464900	-10.384000	25.487184	0.000728	20.819872
1591.477844	-3.007100	3.464700	-10.417000	25.539765	0.000728	20.821941
1592.479171	-3.006600	3.466200	-10.420000	25.535118	0.000729	20.820119
1593.483044	-2.967200	3.466100	-10.283000	25.578553	0.000729	20.794040
1594.484754	-3.011600	3.464200	-10.431000	25.579372	0.000727	20.820466
1595.484109	-3.002200	3.463100	-10.396000	25.570152	0.000727	20.828276
1596.480906	-3.031800	3.463600	-10.500000	25.562276	0.000725	20.815625
1597.487298	-2.997200	3.463300	-10.378000	25.565106	0.000726	20.840752
1598.479382	-2.996200	3.464400	-10.379000	25.568708	0.000725	20.816395
1599.484290	-3.009100	3.461400	-10.415000	25.582002	0.000726	20.811254
1600.479850	-3.012100	3.461500	-10.426000	25.566569	0.000724	20.823730
1601.482137	-2.997300	3.461300	-10.374000	25.575638	0.000726	20.793958
1602.480994	-2.991000	3.462300	-10.355000	25.579886	0.000722	20.810077
1603.481727	-3.009700	3.461600	-10.418000	25.565894	0.000723	20.817362
1604.483733	-2.983800	3.461600	-10.328000	25.525960	0.000723	20.821829
1605.480576	-3.014000	3.460400	-10.430000	25.551557	0.000722	20.807231
1606.483809	-3.023000	3.460600	-10.459000	25.534012	0.000721	20.803362
1607.481026	-3.023300	3.459400	-10.457000	25.535303	0.000720	20.827417
1608.482836	-2.997400	3.459900	-10.370000	25.515969	0.000720	20.802787
1609.481981	-2.975600	3.458700	-10.291000	25.514750	0.000719	20.828588
1610.482129	-3.001200	3.458100	-10.377000	25.534904	0.000718	20.835551
1611.483294	-2.997800	3.456500	-10.361000	25.543003	0.000718	20.816184
1612.481110	-3.023500	3.456600	-10.450000	25.565218	0.000717	20.810994
1613.481311	-3.009700	3.458000	-10.406000	25.567529	0.000720	20.806677
1614.481127	-3.021700	3.457100	-10.446000	25.581667	0.000717	20.815185
1615.484296	-2.969600	3.459600	-10.273000	25.603384	0.000717	20.811866
1616.483196	-2.990000	3.457500	-10.337000	25.624081	0.000716	20.820324
1617.480331	-2.973300	3.456900	-10.278000	25.622466	0.000715	20.809693
1618.482533	-2.996300	3.456100	-10.354000	25.588769	0.000715	20.812835
1619.481807	-3.007000	3.456700	-10.393000	25.595229	0.000715	20.821693
1620.483512	-3.001100	3.456800	-10.373000	25.588147	0.000714	20.801779
1621.484313	-2.994800	3.455800	-10.347000	25.582952	0.000715	20.801777
1622.486995	-3.009600	3.454100	-10.394000	25.508851	0.000714	20.788052
1623.484188	-3.024700	3.453800	-10.445000	25.451668	0.000713	20.802699
1624.483779	-3.005300	3.453000	-10.376000	25.430792	0.000713	20.817298
1625.483727	-2.986400	3.454300	-10.316000	25.444633	0.000712	20.804644
1626.493122	-2.990100	3.453100	-10.324000	25.464564	0.000712	20.789571
1627.485414	-2.994900	3.453600	-10.343000	25.466750	0.000710	20.795085
1628.482607	-2.999500	3.451600	-10.351000	25.443714	0.000711	20.787126
1629.488079	-2.993900	3.451300	-10.332000	25.425546	0.000711	20.787374
1630.486659	-2.983400	3.452900	-10.301000	25.444680	0.000710	20.810381
1631.484536	-3.006900	3.450500	-10.374000	25.479372	0.000709	20.802070
1632.484141	-2.979600	3.452200	-10.284000	25.494554	0.000709	20.789341
1633.486906	-2.997500	3.450300	-10.342000	25.491422	0.000708	20.802792
1634.486125	-2.981100	3.451700	-10.288000	25.484340	0.000707	20.796628
1635.486169	-3.018200	3.449900	-10.411000	25.502456	0.000708	20.786371
1636.489997	-3.015100	3.449600	-10.399000	25.525390	0.000707	20.792807
1637.483924	-2.992100	3.449500	-10.320000	25.560874	0.000708	20.792406
1638.489188	-3.018700	3.446500	-10.402000	25.571956	0.000708	20.767026
1639.492147	-2.975400	3.448100	-10.259000	25.595935	0.000705	20.789686
1640.494256	-2.998500	3.448000	-10.337000	25.624583	0.000705	20.790956
1641.488399	-3.017000	3.447600	-10.400000	25.616555	0.000706	20.780523
1642.488528	-2.993000	3.447100	-10.315000	25.600479	0.000707	20.790456
1643.490358	-2.996800	3.448200	-10.333000	25.608454	0.000705	20.790405
1644.486163	-3.027200	3.445700	-10.431000	25.626320	0.000704	20.785589
1645.502985	-3.023200	3.446400	-10.417000	25.619062	0.000703	20.785886
1646.491361	-3.009500	3.445300	-10.367000	25.640157	0.000703	20.792373
1647.490494	-2.986200	3.447100	-10.293000	25.651238	0.000705	20.808719
1648.491520	-2.999000	3.445000	-10.330000	25.626837	0.000702	20.803652
1649.489996	-2.984800	3.446800	-10.287000	25.629792	0.000702	20.786232
1650.490800	-3.013400	3.444000	-10.377000	25.582258	0.000700	20.785433
1651.490944	-2.994700	3.444300	-10.313000	25.549904	0.000702	20.801778
1652.497333	-2.995800	3.442700	-10.313000	25.542771	0.000700	20.787976
1653.500069	-2.990400	3.444100	-10.298000	25.515659	0.000700	20.773077
1654.499001	-2.997600	3.443400	-10.320000	25.473040	0.000700	20.779591
1655.495314	-2.972400	3.444100	-10.235000	25.466255	0.000700	20.778941
1656.492975	-2.986300	3.442500	-10.279000	25.452063	0.000699	20.779863
1657.495958	-2.992100	3.443000	-10.300000	25.494609	0.000701	20.795086
1658.493365	-3.014300	3.440800	-10.371000	25.515780	0.000698	20.796907
1659.494093	-3.008500	3.440800	-10.351000	25.511381	0.000695	20.783954
1660.491867	-2.993900	3.442000	-10.303000	25.512971	0.000696	20.783654
1661.496139	-3.030900	3.438500	-10.421000	25.487996	0.000696	20.810256
1662.493639	-3.020600	3.439800	-10.387000	25.512298	0.000695	20.799099
1663.496452	-2.974300	3.441400	-10.235000	25.501512	0.000697	20.794432
1664.494310	-3.026600	3.437000	-10.402000	25.497387	0.000695	20.775116
1665.493441	-2.980000	3.439900	-10.249000	25.518807	0.000695	20.774342
1666.503545	-2.988600	3.439300	-10.277000	25.535109	0.000693	20.785498
1667.493088	-2.976400	3.439600	-10.237000	25.538887	0.000693	20.791188
1668.497158	-2.994500	3.438300	-10.295000	25.529492	0.000693	20.790762
1669.495264	-2.990600	3.440400	-10.288000	25.518159	0.000693	20.779381
1670.496902	-2.999800	3.438800	-10.314000	25.554613	0.000692	20.773317
1671.494873	-3.000200	3.438400	-10.314000	25.556005	0.000694	20.800793
1672.504047	-2.992000	3.436300	-10.281000	25.562314	0.000692	20.782473
1673.501902	-3.023000	3.435300	-10.384000	25.580132	0.000691	20.807005
1674.499855	-3.007100	3.435300	-10.329000	25.558389	0.000693	20.797498
1675.506644	-2.990800	3.434800	-10.272000	25.593623	0.000691	20.786889
1676.496989	-2.982500	3.436300	-10.247000	25.592332	0.000689	20.808352
1677.498754	-3.016400	3.434700	-10.360000	25.592131	0.000692	20.799142
1678.496428	-3.022700	3.433900	-10.378000	25.605448	0.000691	20.776480
1679.499468	-2.980500	3.435900	-10.240000	25.605275	0.000690	20.764452
1680.501410	-2.986000	3.435200	-10.256000	25.589594	0.000690	20.791378
1681.500350	-2.986300	3.435700	-10.259000	25.552693	0.000688	20.799837
1682.501150	-2.982800	3.432700	-10.238000	25.520437	0.000689	20.794471
1683.502528	-3.011600	3.433300	-10.339000	25.449785	0.000691	20.793697
1684.499822	-2.997600	3.432700	-10.289000	25.391557	0.000688	20.789754
1685.499454	-3.017700	3.432500	-10.357000	25.391281	0.000687	20.796590
1686.497122	-3.005600	3.432400	-10.315000	25.372716	0.000686	20.772733
1687.496567	-2.996400	3.433500	-10.287000	25.415960	0.000687	20.778223
1688.502347	-2.976600	3.431000	-10.212000	25.432013	0.000687	20.796714
1689.505716	-2.988700	3.430400	-10.250000	25.484226	0.000688	20.773754
1690.501040	-2.986600	3.432200	-10.250000	25.535442	0.000686	20.782038
1691.499880	-2.986500	3.430600	-10.244000	25.523985	0.000686	20.788077
1692.499977	-2.999100	3.430000	-10.286000	25.527166	0.000684	20.770408
1693.503590	-2.981900	3.431600	-10.230000	25.486186	0.000686	20.767662
1694.501198	-2.997500	3.430200	-10.281000	25.491453	0.000685	20.797607
1695.501554	-2.994600	3.429200	-10.268000	25.506463	0.000682	20.798930
1696.499337	-3.006800	3.428400	-10.307000	25.477734	0.000683	20.800900
1697.498901	-3.022000	3.428700	-10.361000	25.473733	0.000682	20.775070
1698.501622	-3.009200	3.427400	-10.312000	25.463941	0.000683	20.773298
1699.499226	-2.987000	3.429200	-10.242000	25.435609	0.000681	20.797479
1700.504138	-3.005300	3.427000	-10.297000	25.452955	0.000680	20.780758
1701.504418	-2.987100	3.427400	-10.237000	25.409314	0.000680	20.789567
1702.500963	-2.999100	3.427100	-10.278000	25.430735	0.000681	20.795430
1703.505821	-3.001100	3.426000	-10.281000	25.461600	0.000680	20.800820
1704.506966	-3.006300	3.425400	-10.297000	25.487296	0.000678	20.774940
1705.500999	-3.004400	3.424300	-10.287000	25.485382	0.000677	20.809529
1706.504666	-3.016500	3.423700	-10.327000	25.485779	0.000677	20.815142
1707.505966	-3.024900	3.424100	-10.356000	25.447556	0.000679	20.788140
1708.500472	-3.008200	3.425000	-10.302000	25.427153	0.000677	20.788988
1709.506159	-2.983000	3.424900	-10.216000	25.384953	0.000677	20.788813
1710.508160	-2.997400	3.423800	-10.262000	25.409929	0.000676	20.795874
1711.503501	-2.978800	3.423300	-10.195000	25.400335	0.000675	20.809474
1712.502785	-2.996400	3.424100	-10.258000	25.393252	0.000675	20.795250
1713.509230	-3.010800	3.422300	-10.303000	25.405553	0.000675	20.806653
1714.510833	-3.023000	3.422600	-10.346000	25.423496	0.000674	20.797170
1715.508607	-3.023600	3.422800	-10.349000	25.453392	0.000673	20.793999
1716.508064	-3.029000	3.420400	-10.359000	25.492060	0.000674	20.803432
1717.506179	-2.976800	3.422200	-10.186000	25.480132	0.000675	20.813739
1718.508341	-3.014400	3.419700	-10.307000	25.479708	0.000672	20.814736
1719.502922	-3.003600	3.419600	-10.270000	25.485026	0.000672	20.809645
1720.509089	-3.027000	3.418800	-10.347000	25.513032	0.000672	20.818329
1721.504302	-3.007100	3.420900	-10.286000	25.535671	0.000672	20.800286
1722.513983	-2.995800	3.419600	-10.244000	25.532787	0.000670	20.795494
1723.507736	-3.004300	3.419400	-10.272000	25.514001	0.000669	20.795595
1724.508725	-2.997600	3.419500	-10.249000	25.545312	0.000669	20.806175
1725.509557	-3.005000	3.418600	-10.271000	25.523022	0.000670	20.795170
1726.508522	-3.004900	3.417900	-10.268000	25.568869	0.000670	20.790004
1727.510808	-3.004000	3.417400	-10.265000	25.584623	0.000669	20.785911
1728.512965	-3.020100	3.417300	-10.319000	25.605322	0.000668	20.793423
1729.511415	-2.977100	3.419400	-10.179000	25.640630	0.000668	20.801384
1730.508830	-3.011200	3.416200	-10.286000	25.673181	0.000667	20.792351
1731.510039	-3.019600	3.415000	-10.310000	25.665552	0.000666	20.813138
1732.509366	-3.002500	3.416100	-10.256000	25.693007	0.000666	20.804678
1733.515649	-2.978700	3.415400	-10.173000	25.682075	0.000665	20.800336
1734.511477	-2.990800	3.416400	-10.216000	25.681877	0.000665	20.804404
1735.510338	-3.012200	3.413900	-10.282000	25.676410	0.000665	20.815509
1736.510184	-3.024900	3.413100	-10.324000	25.609273	0.000664	20.822996
1737.510977	-3.019200	3.413500	-10.305000	25.568921	0.000664	20.821824
1738.512609	-2.998600	3.415200	-10.239000	25.562310	0.000663	20.818504
1739.510063	-2.998700	3.414200	-10.237000	25.517606	0.000663	20.818655
1740.511747	-3.006100	3.414400	-10.264000	25.525532	0.000664	20.823770
1741.513304	-3.013100	3.412800	-10.282000	25.513009	0.000662	20.792227
1742.514829	-2.980200	3.414300	-10.174000	25.535325	0.000662	20.809896
1743.511448	-3.013100	3.412000	-10.280000	25.584599	0.000663	20.802957
1744.510113	-2.981500	3.412800	-10.174000	25.569939	0.000660	20.796295
1745.521478	-2.987700	3.412100	-10.193000	25.560895	0.000659	20.820402
1746.508936	-2.982900	3.412000	-10.176000	25.498223	0.000660	20.823845
1747.513000	-3.006500	3.411900	-10.257000	25.472751	0.000660	20.799689
1748.512105	-2.986700	3.412000	-10.190000	25.467482	0.000659	20.805778
1749.512022	-3.025900	3.410300	-10.318000	25.445191	0.000660	20.803782
1750.512825	-3.010200	3.410800	-10.266000	25.458039	0.000659	20.792502
1751.512907	-3.000100	3.409600	-10.228000	25.494099	0.000656	20.809747
1752.516120	-2.989400	3.411200	-10.197000	25.521484	0.000657	20.791255
1753.519501	-2.982900	3.410800	-10.172000	25.546358	0.000658	20.783518
1754.516625	-2.995400	3.410200	-10.215000	25.575606	0.000656	20.827116
1755.516806	-2.987400	3.409900	-10.186000	25.596951	0.000656	20.807775
1756.514401	-3.005700	3.408700	-10.245000	25.634124	0.000656	20.810970
1757.511648	-3.009600	3.406900	-10.253000	25.596156	0.000656	20.812667
1758.515142	-3.000700	3.408800	-10.227000	25.602742	0.000654	20.803161
1759.512598	-3.003000	3.406300	-10.228000	25.591536	0.000656	20.821777
1760.516342	-2.991200	3.406600	-10.188000	25.594916	0.000652	20.839870
1761.513539	-2.990000	3.407700	-10.188000	25.609700	0.000653	20.808726
1762.513957	-2.966600	3.407900	-10.109000	25.619019	0.000653	20.802912
1763.515053	-3.017100	3.405800	-10.274000	25.624858	0.000652	20.822527
1764.513189	-3.014500	3.405100	-10.264000	25.623542	0.000651	20.826421
1765.516955	-3.006400	3.403700	-10.231000	25.621629	0.000652	20.815017
1766.514772	-3.016700	3.405100	-10.271000	25.619940	0.000651	20.845562
1767.525157	-2.998600	3.403600	-10.205000	25.590621	0.000651	20.813272
1768.518765	-2.995400	3.405000	-10.198000	25.608611	0.000651	20.826124
1769.513321	-2.998700	3.405400	-10.211000	25.631670	0.000650	20.819411
1770.516564	-2.989900	3.404800	-10.179000	25.624316	0.000651	20.817241
1771.513267	-3.006600	3.402900	-10.230000	25.624788	0.000650	20.823404
1772.522278	-2.998500	3.404000	-10.206000	25.648096	0.000649	20.827848
1773.515564	-3.007100	3.402700	-10.231000	25.598028	0.000647	20.822134
1774.514877	-3.006800	3.403500	-10.232000	25.566123	0.000647	20.837506
1775.517138	-3.029300	3.401400	-10.303000	25.534590	0.000646	20.814848
1776.520066	-3.009100	3.402100	-10.236000	25.548234	0.000647	20.829972
1777.514896	-3.005800	3.402700	-10.227000	25.529050	0.000644	20.825879
1778.517049	-3.002100	3.401700	-10.212000	25.578825	0.000646	20.818021
1779.521763	-3.006800	3.401100	-10.225000	25.584987	0.000647	20.822787
1780.513087	-3.005600	3.400900	-10.221000	25.579794	0.000648	20.839856
1781.520329	-2.997700	3.402100	-10.197000	25.590852	0.000646	20.822987
1782.517027	-2.982300	3.400200	-10.139000	25.609241	0.000644	20.827705
1783.518972	-3.004100	3.399800	-10.212000	25.633891	0.000646	20.816900
1784.522556	-3.010400	3.399500	-10.233000	25.631903	0.000645	20.832922
1785.521674	-3.021300	3.398100	-10.266000	25.584866	0.000642	20.825984
1786.530378	-3.001600	3.399200	-10.202000	25.555421	0.000643	20.826285
1787.524371	-3.010600	3.398000	-10.228000	25.528186	0.000642	20.838762
1788.521820	-2.991500	3.397300	-10.162000	25.495533	0.000642	20.833946
1789.516989	-3.024700	3.395900	-10.270000	25.486239	0.000641	20.835045
1790.522413	-2.996600	3.398100	-10.182000	25.509253	0.000641	20.836818
1791.518972	-2.997200	3.396200	-10.178000	25.524287	0.000642	20.816355
1792.517076	-3.012200	3.396600	-10.229000	25.591480	0.000641	20.829308
1793.520025	-2.991800	3.397600	-10.164000	25.609718	0.000640	20.832925
1794.527951	-3.001500	3.397100	-10.194000	25.579132	0.000641	20.810268
1795.518118	-3.007700	3.395800	-10.213000	25.610640	0.000637	20.826265
1796.524141	-3.010300	3.394800	-10.219000	25.637177	0.000639	20.818304
1797.520506	-3.019900	3.395400	-10.253000	25.656460	0.000638	20.846205
1798.519640	-2.997200	3.396400	-10.179000	25.693855	0.000637	20.823547
1799.524869	-2.997200	3.393900	-10.171000	25.725633	0.000636	20.817534
1800.517282	-2.999300	3.394200	-10.180000	25.746627	0.000636	20.835301
1801.521105	-3.024800	3.392500	-10.261000	25.732318	0.000635	20.848903
1802.516737	-2.981700	3.394700	-10.121000	25.736792	0.000637	20.836802
1803.527831	-2.992900	3.394000	-10.157000	25.712667	0.000636	20.840545
1804.520176	-3.020400	3.392600	-10.246000	25.662602	0.000634	20.841943
1805.518785	-2.991400	3.393200	-10.150000	25.622401	0.000634	20.818162
1806.524188	-2.992300	3.392900	-10.152000	25.581850	0.000632	20.840024
1807.527324	-3.010700	3.392400	-10.212000	25.548155	0.000633	20.825625
1808.527576	-3.004200	3.392700	-10.191000	25.605656	0.000632	20.836432
1809.525042	-3.018000	3.391200	-10.234000	25.605508	0.000632	20.829171
1810.528619	-3.008400	3.391400	-10.202000	25.634331	0.000630	20.828722
1811.521657	-3.028000	3.390400	-10.265000	25.633735	0.000631	20.831442
1812.524901	-2.998800	3.390500	-10.166000	25.645714	0.000630	20.852955
1813.526673	-3.000600	3.390600	-10.172000	25.671157	0.000630	20.826354
1814.524599	-2.990300	3.389800	-10.136000	25.689221	0.000632	20.829324
1815.524101	-2.993800	3.390900	-10.148000	25.682390	0.000630	20.832420
1816.524868	-2.995100	3.389300	-10.150000	25.687435	0.000629	20.848866
1817.527646	-2.997500	3.389800	-10.160000	25.683037	0.000629	20.850613
1818.534382	-2.998700	3.389100	-10.162000	25.726743	0.000628	20.842829
1819.533462	-2.983300	3.388400	-10.107000	25.730844	0.000627	20.843629
1820.529188	-3.002600	3.386200	-10.167000	25.761825	0.000627	20.841557
1821.534607	-2.985400	3.388200	-10.114000	25.771739	0.000625	20.834921
1822.534456	-3.006700	3.387200	-10.183000	25.785727	0.000625	20.861772
1823.531769	-3.002700	3.387500	-10.171000	25.792809	0.000625	20.835222
1824.536345	-3.019300	3.385800	-10.222000	25.761132	0.000626	20.847026
1825.535694	-2.999200	3.386700	-10.157000	25.729183	0.000627	20.842909
1826.530847	-2.995700	3.385800	-10.141000	25.695915	0.000625	20.813288
1827.536649	-2.995700	3.386100	-10.143000	25.681059	0.000624	20.837247
1828.535000	-3.014100	3.384800	-10.201000	25.649802	0.000624	20.853268
1829.533673	-2.987300	3.385600	-10.113000	25.637676	0.000624	20.827340
1830.537556	-3.007700	3.384600	-10.179000	25.623761	0.000623	20.841813
1831.534500	-2.986000	3.384900	-10.106000	25.606865	0.000624	20.853293
1832.532494	-2.991500	3.384600	-10.124000	25.599313	0.000623	20.846656
1833.536443	-3.009500	3.383300	-10.181000	25.580626	0.000623	20.833106
1834.538963	-2.988700	3.384900	-10.116000	25.590889	0.000621	20.860955
1835.539482	-2.965700	3.383900	-10.034000	25.609551	0.000620	20.836076
1836.539684	-2.979400	3.383600	-10.080000	25.664836	0.000621	20.841341
1837.539423	-3.001100	3.382900	-10.151000	25.673929	0.000619	20.842414
1838.533811	-2.976200	3.384200	-10.070000	25.705385	0.000620	20.846507
1839.538881	-3.014100	3.381500	-10.190000	25.725859	0.000619	20.856165
1840.538206	-2.989900	3.382100	-10.111000	25.752667	0.000619	20.856066
1841.537180	-3.000400	3.382600	-10.148000	25.747052	0.000616	20.864650
1842.538041	-3.018300	3.378800	-10.197000	25.768319	0.000617	20.838123
1843.538347	-2.987600	3.380100	-10.096000	25.776990	0.000617	20.875281
1844.533216	-2.980700	3.381300	-10.077000	25.810107	0.000616	20.872511
1845.543796	-2.999600	3.381100	-10.141000	25.823274	0.000616	20.859186
1846.538120	-2.988900	3.379600	-10.100000	25.827994	0.000616	20.875306
1847.534536	-2.985100	3.379500	-10.087000	25.821113	0.000616	20.863179
1848.541687	-2.987700	3.380500	-10.098000	25.847373	0.000616	20.869643
1849.536286	-2.998500	3.378400	-10.129000	25.866128	0.000614	20.863353
1850.536399	-3.005800	3.379300	-10.157000	25.853558	0.000612	20.844089
1851.537493	-3.005900	3.378500	-10.154000	25.858232	0.000612	20.863008
1852.545437	-2.976300	3.378800	-10.055000	25.867571	0.000610	20.870967
1853.539687	-3.001400	3.378300	-10.139000	25.864343	0.000612	20.855871
1854.537592	-2.992300	3.376200	-10.101000	25.846530	0.000611	20.841771
1855.548728	-2.992200	3.378000	-10.107000	25.818061	0.000610	20.854898
1856.549356	-3.004300	3.375700	-10.140000	25.795529	0.000611	20.851705
1857.537906	-3.032400	3.375300	-10.234000	25.816024	0.000611	20.875610
1858.540308	-2.995600	3.375800	-10.112000	25.848321	0.000609	20.860638
1859.548790	-2.998500	3.375400	-10.120000	25.875299	0.000611	20.866403
1860.538947	-2.999500	3.375200	-10.123000	25.883448	0.000611	20.859891
1861.536316	-2.996900	3.374900	-10.113000	25.849938	0.000608	20.877435
1862.537614	-2.997300	3.373000	-10.109000	25.784203	0.000608	20.866879
1863.538613	-2.999600	3.375800	-10.125000	25.757123	0.000608	20.857697
1864.544022	-3.018300	3.374100	-10.183000	25.751907	0.000607	20.875216
1865.539300	-2.988000	3.374100	-10.080000	25.721646	0.000606	20.867580
1866.541217	-3.007100	3.372500	-10.140000	25.725820	0.000606	20.876988
1867.550497	-3.011600	3.373200	-10.158000	25.740008	0.000605	20.860420
1868.546699	-3.019000	3.371000	-10.176000	25.756604	0.000606	20.881830
1869.540482	-2.994100	3.371600	-10.094000	25.806990	0.000604	20.871751
1870.538963	-2.993500	3.372700	-10.095000	25.812108	0.000605	20.889692
1871.543525	-2.986300	3.371600	-10.067000	25.849918	0.000604	20.876467
1872.539338	-3.002200	3.371400	-10.121000	25.859683	0.000605	20.867785
1873.539116	-3.007200	3.369700	-10.131000	25.875357	0.000605	20.869779
1874.537376	-2.996100	3.373000	-10.104000	25.877073	0.000604	20.899476
1875.543190	-2.990900	3.370900	-10.081000	25.879309	0.000602	20.883706
1876.542058	-2.983900	3.370300	-10.056000	25.892177	0.000600	20.862495
1877.543258	-2.967500	3.371200	-10.003000	25.895779	0.000601	20.895035
1878.543066	-2.961500	3.371200	-9.982600	25.864752	0.000602	20.884255
1879.547250	-3.002600	3.369300	-10.114000	25.895086	0.000601	20.890071
1880.542698	-3.028800	3.368500	-10.202000	25.923504	0.000599	20.893490
1881.546894	-3.025200	3.367600	-10.186000	25.902166	0.000601	20.900502
1882.548839	-3.016900	3.367900	-10.160000	25.890564	0.000601	20.878892
1883.544030	-2.998800	3.368600	-10.100000	25.899334	0.000599	20.875848
1884.546619	-2.991800	3.368900	-10.078000	25.880058	0.000599	20.882562
1885.552561	-2.998800	3.367500	-10.098000	25.853476	0.000598	20.892841
1886.550783	-2.989900	3.368800	-10.072000	25.813331	0.000598	20.881439
1887.542890	-2.961600	3.369600	-9.977600	25.826251	0.000598	20.907691
1888.547777	-2.995000	3.367700	-10.086000	25.830647	0.000596	20.888876
1889.546549	-2.993700	3.368200	-10.083000	25.852235	0.000596	20.875475
1890.547301	-3.004100	3.365800	-10.110000	25.865254	0.000597	20.885708
1891.554370	-2.999400	3.366300	-10.095000	25.893747	0.000597	20.901053
1892.555843	-2.988500	3.365900	-10.058000	25.898566	0.000596	20.862749
1893.550865	-3.001100	3.365200	-10.099000	25.926114	0.000595	20.888526
1894.551451	-3.015100	3.365000	-10.145000	25.909496	0.000595	20.896961
1895.551581	-2.997700	3.364500	-10.085000	25.885722	0.000593	20.888725
1896.548284	-3.006200	3.363800	-10.111000	25.861551	0.000592	20.897160
1897.552185	-2.993100	3.364300	-10.069000	25.873376	0.000593	20.903348
1898.549589	-3.013800	3.362800	-10.133000	25.872207	0.000594	20.884158
1899.549791	-2.999400	3.363800	-10.089000	25.901073	0.000590	20.898930
1900.549341	-3.017300	3.362800	-10.145000	25.885969	0.000593	20.897982
1901.555182	-3.012700	3.362500	-10.129000	25.885100	0.000590	20.889997
1902.548681	-3.013100	3.362200	-10.130000	25.909915	0.000591	20.903546
1903.553718	-3.011800	3.360400	-10.120000	25.919727	0.000590	20.899652
1904.547924	-3.020500	3.360800	-10.149000	25.930903	0.000591	20.905663
1905.549204	-2.987700	3.362400	-10.045000	25.964960	0.000590	20.896257
1906.553288	-2.986100	3.361600	-10.037000	25.953111	0.000589	20.900474
1907.551173	-2.990100	3.362100	-10.051000	25.950354	0.000588	20.928047
1908.552155	-3.005100	3.361100	-10.100000	25.964859	0.000588	20.906112
1909.552926	-2.997300	3.360500	-10.071000	25.963219	0.000588	20.882181
1910.551657	-3.021700	3.359700	-10.150000	25.970221	0.000590	20.926196
1911.551191	-3.009300	3.358300	-10.105000	25.980926	0.000586	20.909452
1912.562707	-2.987700	3.360500	-10.039000	26.002040	0.000585	20.909327
1913.550257	-2.999100	3.360200	-10.077000	25.999354	0.000584	20.918956
1914.550686	-2.987400	3.358600	-10.032000	26.010458	0.000587	20.918258
1915.555165	-3.013900	3.358600	-10.122000	25.965473	0.000583	20.926167
1916.555332	-2.991300	3.357000	-10.041000	25.993391	0.000584	20.905854
1917.557901	-2.983000	3.359000	-10.018000	25.998780	0.000584	20.929284
1918.558175	-3.000500	3.358500	-10.076000	25.998234	0.000584	20.910245
1919.561654	-3.000100	3.357300	-10.071000	25.982708	0.000582	20.924043
1920.561529	-2.999900	3.357000	-10.070000	25.991873	0.000583	20.910967
1921.555881	-2.970100	3.356600	-9.968800	25.983576	0.000583	20.902632
1922.556500	-2.965400	3.359000	-9.959300	25.950662	0.000582	20.917452
1923.559042	-2.995300	3.356500	-10.053000	26.005111	0.000582	20.907671
1924.560294	-3.013000	3.355300	-10.108000	26.017132	0.000582	20.916429
1925.556899	-3.022500	3.356300	-10.144000	25.993732	0.000582	20.934169
1926.561264	-2.986200	3.356200	-10.021000	25.996341	0.000580	20.905973
1927.565496	-2.995600	3.354700	-10.048000	25.975574	0.000579	20.913557
1928.563933	-3.000900	3.354600	-10.066000	25.923409	0.000580	20.912833
1929.559822	-3.009300	3.353700	-10.092000	25.864708	0.000581	20.894167
1930.564241	-3.025000	3.352100	-10.139000	25.843045	0.000580	20.904647
1931.559921	-2.980600	3.353300	-9.994200	25.818226	0.000579	20.912432
1932.565172	-3.010400	3.353400	-10.095000	25.800785	0.000578	20.910559
1933.564002	-2.999600	3.351800	-10.053000	25.850148	0.000580	20.905619
1934.563414	-3.008900	3.352700	-10.086000	25.867238	0.000577	20.891494
1935.564079	-3.002300	3.352400	-10.064000	25.883161	0.000576	20.908910
1936.563620	-3.003600	3.351700	-10.066000	25.895930	0.000576	20.900875
1937.570283	-3.004300	3.352200	-10.070000	25.905145	0.000579	20.908710
1938.565428	-3.019400	3.350000	-10.113000	25.898065	0.000575	20.893538
1939.568760	-2.997800	3.352100	-10.048000	25.937958	0.000575	20.873873
1940.565474	-3.011300	3.350700	-10.088000	25.911402	0.000573	20.894134
1941.565722	-3.009000	3.350100	-10.079000	25.930877	0.000574	20.890940
1942.574668	-3.014400	3.349600	-10.097000	25.914681	0.000573	20.869455
1943.568301	-3.002900	3.350500	-10.060000	25.949780	0.000573	20.869629
1944.568816	-3.028400	3.349300	-10.142000	25.974743	0.000573	20.893284
1945.565798	-2.991700	3.350600	-10.023000	25.974147	0.000570	20.901220
1946.566513	-3.012400	3.348500	-10.086000	26.009541	0.000569	20.886520
1947.565127	-2.993800	3.349600	-10.027000	26.027921	0.000568	20.889813
1948.573749	-3.023100	3.347600	-10.120000	26.012496	0.000572	20.897549
1949.566204	-3.007400	3.347600	-10.066000	25.997916	0.000569	20.894280
1950.575559	-2.966400	3.348900	-9.933400	26.010855	0.000568	20.889736
1951.578485	-2.978300	3.348900	-9.972600	26.005340	0.000568	20.883248
1952.568022	-2.984800	3.348500	-9.993600	26.005066	0.000566	20.880602
1953.568979	-2.981100	3.347800	-9.978400	26.042745	0.000568	20.888586
1954.568350	-2.980300	3.347700	-9.975400	26.016218	0.000568	20.902710
1955.578010	-2.988800	3.347900	-10.004000	25.975806	0.000565	20.884869
1956.567795	-3.006300	3.346000	-10.058000	25.971184	0.000565	20.882123
1957.568026	-2.991700	3.346000	-10.009000	25.995651	0.000566	20.866402
1958.570664	-3.012300	3.344300	-10.073000	25.985640	0.000565	20.875784
1959.572266	-3.007500	3.344200	-10.057000	25.998480	0.000565	20.881097
1960.567513	-2.972900	3.345700	-9.945300	25.956676	0.000564	20.886039
1961.572536	-3.015700	3.345200	-10.086000	25.928134	0.000566	20.876331
1962.567262	-3.019300	3.344400	-10.097000	25.918495	0.000565	20.877553
1963.571362	-2.997200	3.344400	-10.022000	25.921277	0.000563	20.867547
1964.574884	-2.980500	3.343600	-9.964900	25.932804	0.000561	20.882919
1965.573538	-2.989300	3.344500	-9.996600	25.967778	0.000561	20.877752
1966.574308	-2.994000	3.343000	-10.008000	25.942415	0.000559	20.880247
1967.572260	-3.015100	3.341500	-10.073000	25.950067	0.000560	20.868495
1968.575768	-2.995800	3.342000	-10.011000	25.947110	0.000559	20.885438
1969.572526	-3.009000	3.341900	-10.054000	25.960052	0.000561	20.860034
1970.571617	-2.992600	3.342000	-10.001000	25.996417	0.000560	20.882343
1971.579129	-3.019000	3.339800	-10.082000	26.034742	0.000560	20.880546
1972.576602	-3.007900	3.340900	-10.048000	26.046119	0.000557	20.889605
1973.581399	-3.007100	3.339800	-10.042000	26.044478	0.000560	20.863302
1974.571609	-2.996600	3.339500	-10.005000	26.030419	0.000557	20.865298
1975.575746	-2.998500	3.339400	-10.011000	26.021477	0.000557	20.880969
1976.573656	-3.014900	3.339700	-10.068000	26.025774	0.000556	20.871062
1977.574269	-2.985500	3.339900	-9.969500	26.020806	0.000555	20.876976
1978.575863	-2.979000	3.341000	-9.951000	26.012163	0.000555	20.866396
1979.575604	-3.011500	3.339000	-10.055000	25.982728	0.000554	20.865746
1980.578228	-3.008300	3.337400	-10.039000	25.960694	0.000552	20.866370
1981.577034	-3.004600	3.339500	-10.032000	25.931830	0.000553	20.845907
1982.577651	-3.016700	3.337400	-10.067000	25.938735	0.000554	20.852844
1983.574687	-2.974200	3.338900	-9.929100	25.969289	0.000553	20.862676
1984.577768	-3.002100	3.336400	-10.016000	25.919782	0.000553	20.866045
1985.576498	-2.997200	3.336900	-10.000000	25.926165	0.000552	20.860130
1986.577488	-3.002000	3.337300	-10.018000	25.927831	0.000552	20.853270
1987.581969	-3.013300	3.336900	-10.054000	25.949914	0.000549	20.856014
1988.579940	-3.014200	3.335700	-10.053000	25.975871	0.000551	20.851746
1989.578025	-3.028400	3.334500	-10.098000	25.990228	0.000550	20.870911
1990.580550	-3.007000	3.335100	-10.028000	26.001951	0.000549	20.875102
1991.581806	-3.024600	3.334100	-10.083000	25.986227	0.000549	20.850771
1992.576495	-3.008500	3.336000	-10.035000	25.986649	0.000550	20.856411
1993.581731	-2.992800	3.334200	-9.977900	25.966703	0.000547	20.854390
1994.581389	-2.991300	3.334500	-9.973600	26.007118	0.000550	20.872706
1995.580209	-3.011100	3.334500	-10.040000	25.984189	0.000547	20.845879
1996.581259	-3.001300	3.333700	-10.005000	25.966255	0.000548	20.869111
1997.577886	-2.979200	3.333900	-9.931600	25.977235	0.000547	20.848849
1998.579302	-2.989100	3.332800	-9.960500	26.000905	0.000547	20.843233
1999.582277	-3.012200	3.331700	-10.034000	26.029395	0.000545	20.852416
2000.584138	-2.997900	3.332100	-9.987900	26.062281	0.000545	20.841361
2001.577718	-3.010100	3.333000	-10.032000	26.079417	0.000546	20.861423
2002.581726	-3.006500	3.330500	-10.012000	26.068885	0.000545	20.870755
2003.582753	-2.997800	3.331700	-9.986800	26.041639	0.000545	20.841011
2004.580624	-2.981400	3.332400	-9.934300	25.985105	0.000544	20.846324
2005.583958	-2.978700	3.331200	-9.921500	25.958924	0.000544	20.858428
2006.584385	-2.999700	3.330200	-9.989100	25.959172	0.000543	20.833548
2007.581656	-3.013000	3.328900	-10.029000	25.980260	0.000540	20.841931
2008.581340	-2.979000	3.330000	-9.919300	25.980409	0.000541	20.838762
2009.584212	-2.998000	3.329100	-9.979700	26.017468	0.000541	20.862717
2010.584653	-2.989800	3.329100	-9.952500	26.018313	0.000539	20.828006
2011.587795	-3.003000	3.329000	-9.996300	26.053856	0.000539	20.858500
2012.585629	-2.982800	3.329200	-9.929400	26.092874	0.000540	20.846970
2013.587667	-2.993000	3.327800	-9.958400	26.088055	0.000540	20.833120
2014.587221	-3.001300	3.326800	-9.982700	26.091532	0.000537	20.848466
2015.586284	-2.987100	3.329200	-9.944100	26.030133	0.000537	20.839882
2016.579050	-2.991500	3.326700	-9.950800	26.030183	0.000539	20.845621
2017.580393	-2.999000	3.326000	-9.972000	26.035176	0.000536	20.844000
2018.584323	-3.003800	3.326100	-9.990300	26.058248	0.000535	20.835413
2019.581151	-3.008000	3.326600	-10.005000	26.013415	0.000536	20.845370
2020.589535	-2.964100	3.326900	-9.860400	25.947341	0.000535	20.848688
2021.584352	-3.012300	3.325200	-10.016000	25.929606	0.000534	20.822336
2022.584746	-2.995600	3.325800	-9.961900	25.889264	0.000533	20.849138
2023.582046	-2.973500	3.325400	-9.886000	25.838013	0.000534	20.840802
2024.585531	-3.001700	3.324900	-9.979000	25.846808	0.000533	20.837783
2025.585432	-3.005000	3.325600	-9.992700	25.878879	0.000532	20.838232
2026.586217	-3.013400	3.324900	-10.019000	25.925157	0.000532	20.817868
2027.587321	-3.004000	3.323600	-9.982300	25.965697	0.000531	20.841999
2028.589978	-3.028800	3.323300	-10.065000	25.930572	0.000530	20.838006
2029.591249	-3.032700	3.322000	-10.073000	25.914052	0.000532	20.828522
2030.586689	-3.015300	3.322400	-10.017000	25.891347	0.000531	20.837480
2031.590498	-3.013800	3.321400	-10.009000	25.869436	0.000530	20.824478
2032.587132	-2.984400	3.323800	-9.918800	25.844643	0.000529	20.837978
2033.588790	-2.988800	3.321700	-9.926800	25.850381	0.000529	20.827622
2034.587693	-3.005900	3.321700	-9.982800	25.859374	0.000528	20.847561
2035.590356	-3.003200	3.321000	-9.973000	25.916384	0.000525	20.836555
2036.590345	-2.984600	3.321800	-9.913800	25.939833	0.000526	20.834508
2037.588802	-3.010300	3.320100	-9.993100	25.962189	0.000527	20.838949
2038.591747	-2.999100	3.319500	-9.953800	25.995102	0.000526	20.831713
2039.592722	-3.002100	3.319600	-9.965200	25.993635	0.000524	20.843515
2040.594989	-3.005500	3.319500	-9.975800	25.990183	0.000525	20.825823
2041.602605	-2.989900	3.320100	-9.925700	26.006401	0.000525	20.828366
2042.595888	-2.987700	3.317900	-9.911500	26.023019	0.000524	20.827519
2043.594262	-2.991400	3.318700	-9.925900	26.069986	0.000523	20.828241
2044.592549	-2.998400	3.319100	-9.950800	26.095843	0.000522	20.832410
2045.597054	-3.000900	3.317800	-9.955600	26.114245	0.000521	20.829564
2046.593777	-2.985800	3.318400	-9.907500	26.152791	0.000520	20.826569
2047.604327	-2.985400	3.317000	-9.902700	26.147203	0.000522	20.811471
2048.597397	-2.975600	3.317500	-9.870700	26.141864	0.000519	20.822702
2049.595796	-2.983000	3.316700	-9.892800	26.151400	0.000521	20.810947
2050.599245	-3.004100	3.315900	-9.960500	26.182245	0.000521	20.814915
2051.596002	-3.002400	3.316900	-9.957600	26.187013	0.000520	20.828715
2052.600882	-3.019700	3.316100	-10.012000	26.162427	0.000518	20.832932
2053.596964	-2.991100	3.316300	-9.918900	26.156441	0.000519	20.823599
2054.603586	-2.999300	3.316200	-9.944900	26.235315	0.000517	20.815613
2055.599664	-2.969700	3.315700	-9.846300	26.225383	0.000517	20.802313
2056.605942	-3.008100	3.314200	-9.968700	26.227294	0.000517	20.814665
2057.605370	-2.991100	3.314400	-9.912500	26.232659	0.000515	20.811521
2058.604888	-2.973900	3.314700	-9.855600	26.228063	0.000516	20.821127
2059.602684	-2.990600	3.313700	-9.908900	26.260397	0.000513	20.802412
2060.599156	-3.010000	3.313000	-9.971400	26.275048	0.000516	20.814290
2061.604449	-3.000600	3.312100	-9.935900	26.282969	0.000515	20.819405
2062.598086	-2.979100	3.312200	-9.865800	26.318950	0.000512	20.816685
2063.599856	-3.038500	3.309300	-10.054000	26.268465	0.000511	20.804356
2064.605776	-3.007300	3.311400	-9.957400	26.248301	0.000511	20.822499
2065.602213	-3.002500	3.310500	-9.938500	26.216216	0.000511	20.813964
2066.599209	-3.006000	3.309200	-9.946000	26.165976	0.000510	20.820852
2067.604280	-3.007400	3.309600	-9.952900	26.159916	0.000510	20.816186
2068.604807	-3.023100	3.309800	-10.005000	26.111907	0.000511	20.812990
2069.604703	-3.006900	3.309100	-9.948100	26.117472	0.000508	20.813366
2070.603332	-3.026200	3.307800	-10.008000	26.097329	0.000509	20.805455
2071.605226	-3.002600	3.309400	-9.936100	26.091741	0.000508	20.796046
2072.601393	-2.997400	3.310100	-9.920800	26.083420	0.000507	20.795272
2073.600917	-2.986100	3.309300	-9.881000	26.126562	0.000505	20.801636
2074.603066	-3.021200	3.308500	-9.993500	26.133738	0.000507	20.809795
2075.601251	-2.990500	3.308900	-9.893900	26.134881	0.000507	20.824220
2076.600911	-2.991000	3.308800	-9.895800	26.122017	0.000504	20.815562
2077.602895	-2.993300	3.307400	-9.898400	26.120800	0.000504	20.785416
2078.612376	-2.995400	3.307800	-9.907400	26.130336	0.000504	20.804480
2079.603151	-2.991600	3.307500	-9.894200	26.165902	0.000504	20.811769
2080.604458	-2.996000	3.306400	-9.904400	26.199305	0.000503	20.803609
2081.618160	-2.991800	3.307900	-9.895500	26.229205	0.000502	20.800938
2082.606106	-2.973600	3.306800	-9.832300	26.236655	0.000502	20.789459
2083.603551	-3.012700	3.304500	-9.955000	26.241697	0.000501	20.790258
2084.602972	-2.988800	3.305700	-9.877500	26.276191	0.000501	20.803111
2085.612897	-2.998100	3.305200	-9.908500	26.282400	0.000501	20.792281
2086.614668	-3.003600	3.302900	-9.919100	26.320913	0.000499	20.818657
2087.614900	-2.989600	3.304800	-9.879300	26.341226	0.000501	20.789286
2088.604600	-2.981400	3.304000	-9.849600	26.343560	0.000498	20.794002
2089.612904	-3.011000	3.302200	-9.941900	26.348575	0.000498	20.794301
2090.607092	-2.995100	3.302900	-9.890800	26.324589	0.000498	20.818085
2091.609245	-3.016400	3.303500	-9.963600	26.302762	0.000497	20.784295
2092.607570	-2.984400	3.304200	-9.859100	26.335490	0.000497	20.804858
2093.610808	-2.993100	3.302700	-9.884300	26.340582	0.000497	20.779630
2094.609979	-3.013700	3.302200	-9.950400	26.352202	0.000499	20.797946
2095.612264	-3.000600	3.301600	-9.905400	26.334945	0.000496	20.780129
2096.614831	-2.986700	3.303500	-9.864800	26.332139	0.000495	20.788214
2097.612061	-2.968600	3.300300	-9.796400	26.339364	0.000494	20.773665
2098.614982	-2.992400	3.299700	-9.872900	26.300304	0.000492	20.787989
2099.613246	-3.007900	3.300200	-9.925900	26.247163	0.000495	20.768250
2100.615077	-3.003400	3.301300	-9.914100	26.194937	0.000495	20.789262
2101.616912	-2.985500	3.300800	-9.853100	26.161758	0.000491	20.788164
2102.617278	-2.990400	3.299800	-9.866600	26.197943	0.000493	20.767152
2103.614142	-2.988500	3.299600	-9.859700	26.200774	0.000491	20.790386
2104.621085	-3.003300	3.299300	-9.908200	26.200625	0.000491	20.788814
2105.617909	-2.983900	3.298800	-9.842600	26.211131	0.000491	20.797949
2106.617769	-2.991200	3.298300	-9.864500	26.227099	0.000492	20.792184
2107.619311	-3.002800	3.296900	-9.899200	26.235841	0.000489	20.791960
2108.621798	-2.971100	3.298500	-9.798400	26.225560	0.000489	20.787318
2109.617200	-2.987400	3.297800	-9.850800	26.205543	0.000488	20.766255
2110.622081	-2.995500	3.297100	-9.875100	26.221313	0.000489	20.788740
2111.622460	-3.003700	3.296200	-9.900100	26.242273	0.000486	20.762862
2112.619621	-2.980700	3.296900	-9.825800	26.244657	0.000489	20.788966
2113.623885	-2.997900	3.295300	-9.876500	26.227523	0.000486	20.763686
2114.624645	-3.003600	3.294000	-9.892900	26.237009	0.000487	20.769426
2115.622178	-2.991700	3.295000	-9.856300	26.264972	0.000486	20.785199
2116.625174	-2.981500	3.296000	-9.826300	26.305573	0.000486	20.772421
2117.630317	-3.012600	3.294200	-9.922900	26.330155	0.000484	20.785746
2118.625954	-2.992300	3.293600	-9.854200	26.315927	0.000482	20.774766
2119.629338	-3.002200	3.293800	-9.886600	26.339317	0.000481	20.768876
2120.625436	-3.020300	3.293600	-9.946500	26.350417	0.000485	20.795204
2121.627460	-3.007500	3.292600	-9.901200	26.363578	0.000481	20.777137
2122.627291	-2.994100	3.292600	-9.857100	26.360449	0.000483	20.780630
2123.626745	-3.015900	3.290900	-9.924400	26.331371	0.000481	20.757570
2124.624975	-2.997800	3.293100	-9.871100	26.267975	0.000481	20.765931
2125.627857	-2.996400	3.291200	-9.861500	26.256428	0.000480	20.754327
2126.627579	-2.999300	3.291400	-9.870500	26.255981	0.000480	20.781853
2127.626222	-3.019300	3.289600	-9.931600	26.280267	0.000478	20.770223
2128.628108	-3.006800	3.290800	-9.893600	26.274010	0.000475	20.773418
2129.630187	-2.993400	3.291300	-9.851100	26.308079	0.000477	20.777785
2130.627803	-3.008600	3.291500	-9.900700	26.292188	0.000475	20.768452
2131.630314	-2.978700	3.291600	-9.803700	26.277512	0.000474	20.758919
2132.629081	-2.999300	3.288500	-9.862500	26.269194	0.000474	20.760991
2133.628128	-2.976800	3.289900	-9.792100	26.269590	0.000473	20.772770
2134.629302	-3.022100	3.287800	-9.934900	26.274160	0.000475	20.762189
2135.632752	-3.013600	3.287800	-9.906900	26.240711	0.000474	20.760343
2136.630867	-3.034200	3.286100	-9.969000	26.210661	0.000472	20.762389
2137.634562	-3.004800	3.287600	-9.877300	26.194146	0.000471	20.749586
2138.627420	-3.008200	3.287300	-9.888000	26.202193	0.000473	20.754827
2139.631282	-3.000900	3.286400	-9.860700	26.246521	0.000471	20.742474
2140.631776	-3.011700	3.288200	-9.900400	26.276545	0.000469	20.761740
2141.628849	-2.996800	3.285000	-9.842800	26.299267	0.000467	20.755652
2142.629947	-2.996400	3.286600	-9.845800	26.323504	0.000468	20.757250
2143.634161	-3.006700	3.285900	-9.879100	26.338177	0.000468	20.746392
2144.630139	-3.031700	3.285100	-9.958600	26.354243	0.000466	20.754004
2145.628984	-3.006900	3.285700	-9.878200	26.391438	0.000469	20.754877
2146.632237	-3.014200	3.284400	-9.899100	26.420589	0.000466	20.776589
2147.631725	-2.984100	3.284700	-9.800800	26.444748	0.000464	20.760094
2148.633722	-2.995500	3.283900	-9.834500	26.457932	0.000465	20.762914
2149.636161	-2.999500	3.284200	-9.848900	26.455349	0.000463	20.759370
2150.632954	-3.003800	3.283000	-9.860000	26.484696	0.000464	20.772746
2151.634334	-2.995500	3.283900	-9.835700	26.463196	0.000463	20.755876
2152.635638	-3.018600	3.280800	-9.901800	26.491920	0.000462	20.759144
2153.634316	-3.004000	3.281900	-9.857200	26.493237	0.000461	20.767580
2154.633676	-2.995700	3.281200	-9.828300	26.477445	0.000460	20.754078
2155.633916	-3.022800	3.281100	-9.917400	26.473820	0.000462	20.784574
2156.641853	-2.986800	3.281800	-9.800700	26.447231	0.000461	20.743622
2157.632476	-3.008500	3.280500	-9.867800	26.433648	0.000459	20.768852
2158.635152	-3.001600	3.280500	-9.845300	26.402984	0.000460	20.779758
2159.635248	-2.984300	3.281500	-9.792600	26.408745	0.000458	20.767056
2160.639281	-3.005100	3.280200	-9.856800	26.434269	0.000458	20.768528
2161.634110	-3.004200	3.280600	-9.854200	26.471611	0.000457	20.779034
2162.643916	-3.003000	3.279400	-9.846900	26.451676	0.000456	20.769428
2163.637640	-2.980900	3.280000	-9.776700	26.422874	0.000456	20.775093
2164.642429	-2.982900	3.278400	-9.778200	26.396331	0.000455	20.763113
2165.637148	-3.027500	3.278200	-9.923800	26.418727	0.000455	20.772822
2166.635554	-2.997600	3.278000	-9.825200	26.439808	0.000455	20.764137
2167.640929	-3.002600	3.277600	-9.840300	26.454954	0.000453	20.774620
2168.636117	-3.006400	3.276200	-9.848400	26.466126	0.000454	20.769254
2169.637474	-3.013800	3.277800	-9.877400	26.475437	0.000453	20.761068
2170.636122	-3.004500	3.276300	-9.842400	26.436035	0.000452	20.759871
2171.635473	-2.994900	3.276200	-9.810800	26.407706	0.000450	20.771227
2172.635178	-2.999800	3.275400	-9.824900	26.406936	0.000450	20.766660
2173.640373	-2.998800	3.276800	-9.825400	26.441846	0.000449	20.764763
2174.635480	-3.003800	3.274400	-9.834600	26.476482	0.000448	20.774447
2175.636622	-2.993800	3.274500	-9.802400	26.510273	0.000447	20.755780
2176.636374	-2.991200	3.275300	-9.795700	26.487010	0.000448	20.748992
2177.637116	-3.024500	3.272300	-9.896300	26.480231	0.000447	20.761620
2178.641222	-3.001600	3.274000	-9.826100	26.485694	0.000448	20.747195
2179.644526	-2.997000	3.273100	-9.808300	26.464119	0.000445	20.772452
2180.643535	-3.021900	3.271800	-9.884900	26.469381	0.000445	20.765887
2181.643488	-3.008600	3.273400	-9.847500	26.509677	0.000444	20.754233
2182.648694	-3.002200	3.270600	-9.818000	26.520777	0.000446	20.766813
2183.642364	-3.004400	3.271400	-9.827400	26.570727	0.000443	20.778617
2184.642986	-2.997300	3.271100	-9.803300	26.568294	0.000441	20.770481
2185.640912	-2.997300	3.270500	-9.802400	26.565838	0.000443	20.777022
2186.646059	-3.005700	3.270100	-9.827800	26.591432	0.000441	20.770981
2187.646182	-3.031000	3.270200	-9.911200	26.540838	0.000441	20.780341
2188.645180	-3.009200	3.268600	-9.835300	26.513603	0.000439	20.772405
2189.641934	-3.009300	3.269000	-9.836100	26.485450	0.000439	20.778245
2190.646194	-2.979500	3.269800	-9.741300	26.523535	0.000442	20.771482
2191.650093	-2.981800	3.270100	-9.748600	26.544315	0.000439	20.784310
2192.646356	-2.989700	3.269200	-9.771900	26.586667	0.000437	20.774726
2193.649076	-3.015400	3.268300	-9.853000	26.605114	0.000438	20.770036
2194.648634	-2.986300	3.269000	-9.760200	26.625421	0.000437	20.763423
2195.650491	-2.995000	3.267600	-9.785700	26.636940	0.000437	20.789702
2196.648040	-3.018800	3.266400	-9.859500	26.664793	0.000438	20.751320
2197.652965	-3.020700	3.266700	-9.867300	26.593002	0.000436	20.775404
2198.647345	-3.014600	3.265800	-9.843800	26.579297	0.000435	20.782016
2199.649061	-3.008000	3.265900	-9.822700	26.567331	0.000433	20.769039
2200.651922	-3.006400	3.266600	-9.819800	26.560107	0.000434	20.775528
2201.652333	-2.970900	3.264100	-9.696500	26.556533	0.000431	20.779522
2202.647524	-3.014800	3.264100	-9.839800	26.572645	0.000433	20.795244
2203.654697	-2.970700	3.264000	-9.694600	26.574335	0.000432	20.774183
2204.651819	-2.996000	3.263900	-9.777200	26.589800	0.000430	20.772185
2205.652276	-3.025200	3.261700	-9.866000	26.605613	0.000431	20.784288
2206.647152	-2.996100	3.262700	-9.774300	26.586624	0.000430	20.772311
2207.653291	-3.006100	3.263100	-9.807800	26.595836	0.000429	20.770192
2208.651476	-3.017400	3.261700	-9.838900	26.625823	0.000429	20.800812
2209.650976	-3.001400	3.261700	-9.787900	26.649134	0.000428	20.763079
2210.650609	-2.993800	3.261100	-9.762300	26.663234	0.000428	20.777729
2211.652175	-2.989800	3.261300	-9.749200	26.626494	0.000426	20.790581
2212.655563	-3.001300	3.262000	-9.790100	26.591493	0.000427	20.764878
2213.650777	-3.014400	3.260100	-9.826800	26.609715	0.000426	20.772764
2214.654365	-2.995000	3.262700	-9.770400	26.606637	0.000425	20.772989
2215.654322	-3.004400	3.259800	-9.792900	26.644942	0.000424	20.761236
2216.653350	-2.983900	3.260700	-9.728500	26.622056	0.000423	20.778058
2217.654661	-2.987800	3.259200	-9.736400	26.656016	0.000422	20.766678
2218.649946	-3.010000	3.259400	-9.810200	26.653062	0.000421	20.785995
2219.648823	-2.994500	3.259600	-9.758000	26.636158	0.000420	20.777062
2220.651500	-2.998600	3.257700	-9.767400	26.634917	0.000421	20.780556
2221.652507	-3.006900	3.257400	-9.793700	26.640007	0.000418	20.788517
2222.651663	-3.011800	3.258200	-9.812200	26.670467	0.000419	20.780733
2223.653472	-3.014800	3.256500	-9.816900	26.688713	0.000419	20.797179
2224.656107	-2.963900	3.258200	-9.655300	26.683600	0.000417	20.765486
2225.658194	-2.984300	3.257000	-9.718500	26.635145	0.000416	20.776044
2226.658154	-2.995500	3.254900	-9.749300	26.659275	0.000416	20.776594
2227.658810	-3.013900	3.254100	-9.807000	26.640037	0.000418	20.771952
2228.663057	-3.020000	3.255700	-9.831900	26.633037	0.000417	20.784830
2229.653973	-3.018500	3.253800	-9.820800	26.645599	0.000415	20.787501
2230.656853	-2.990800	3.254800	-9.733700	26.612485	0.000415	20.785032
2231.655874	-3.009300	3.254500	-9.792100	26.630334	0.000414	20.783060
2232.661483	-2.990600	3.253000	-9.727200	26.614546	0.000413	20.757232
2233.659353	-2.995200	3.253000	-9.742400	26.629839	0.000411	20.780192
2234.658399	-3.021600	3.251100	-9.822300	26.594588	0.000411	20.796439
2235.662351	-3.010000	3.253100	-9.790300	26.563508	0.000412	20.785585
2236.662787	-3.006200	3.251100	-9.772500	26.589525	0.000411	20.799884
2237.664371	-3.002800	3.252900	-9.766800	26.618894	0.000410	20.795742
2238.656637	-2.986600	3.251800	-9.711100	26.614103	0.000412	20.800883
2239.657351	-3.002600	3.250100	-9.758100	26.601915	0.000409	20.782467
2240.657333	-3.014800	3.250000	-9.796700	26.615470	0.000410	20.790878
2241.663689	-2.993300	3.251100	-9.730300	26.610952	0.000408	20.778750
2242.661946	-3.011000	3.249300	-9.781600	26.642928	0.000406	20.795247
2243.666924	-3.017300	3.248900	-9.801400	26.644689	0.000406	20.795596
2244.670310	-3.023900	3.247300	-9.818500	26.689199	0.000408	20.791030
2245.666407	-3.013800	3.246400	-9.783400	26.747210	0.000405	20.802411
2246.665836	-2.997800	3.247200	-9.733600	26.753888	0.000403	20.787788
2247.665596	-3.001400	3.247200	-9.744800	26.799708	0.000406	20.776957
2248.661267	-3.023300	3.245600	-9.810900	26.778659	0.000403	20.788985
2249.664185	-2.998900	3.246800	-9.735700	26.818249	0.000405	20.799867
2250.664494	-2.997200	3.245500	-9.727300	26.836814	0.000403	20.791032
2251.664728	-2.994100	3.247000	-9.720700	26.878163	0.000401	20.797047
2252.664135	-2.995000	3.245800	-9.720300	26.913133	0.000400	20.796649
2253.665624	-3.026000	3.242900	-9.811700	26.899979	0.000401	20.808552
2254.672425	-2.987000	3.244300	-9.689800	26.933409	0.000402	20.794752
2255.668099	-2.995200	3.243200	-9.713100	26.902809	0.000398	20.793854
2256.664306	-3.019500	3.244700	-9.795400	26.922191	0.000400	20.796274
2257.664943	-2.987700	3.243000	-9.687600	26.895711	0.000399	20.780552
2258.666314	-2.974100	3.244300	-9.647400	26.900848	0.000396	20.802314
2259.667733	-3.004200	3.242400	-9.739900	26.874242	0.000396	20.803062
2260.676165	-2.995900	3.243200	-9.715500	26.871586	0.000396	20.798494
2261.666144	-2.988200	3.242900	-9.689500	26.837584	0.000396	20.791332
2262.667688	-2.960000	3.244300	-9.601500	26.852575	0.000395	20.801664
2263.667031	-3.001200	3.241800	-9.728600	26.863471	0.000396	20.809774
2264.665279	-3.017500	3.239700	-9.773700	26.870074	0.000394	20.817362
2265.676233	-3.016100	3.239800	-9.770300	26.829047	0.000393	20.827793
2266.666982	-3.004300	3.238900	-9.729600	26.774716	0.000392	20.810150
2267.669698	-3.005600	3.238300	-9.731800	26.763198	0.000393	20.813743
2268.671822	-3.008000	3.239000	-9.741900	26.744112	0.000391	20.807831
2269.669943	-3.010100	3.237700	-9.745100	26.762603	0.000390	20.820257
2270.670596	-3.003800	3.236700	-9.721500	26.829024	0.000391	20.825873
2271.676307	-3.009400	3.235700	-9.736600	26.831779	0.000390	20.794031
2272.672976	-2.993900	3.237000	-9.690000	26.842525	0.000392	20.820008
2273.670497	-2.992300	3.235100	-9.679300	26.858833	0.000389	20.800370
2274.674480	-2.992300	3.236900	-9.684800	26.872184	0.000389	20.834182
2275.673028	-3.013100	3.236600	-9.750300	26.896657	0.000388	20.815168
2276.676390	-3.017400	3.235300	-9.760600	26.881071	0.000386	20.802341
2277.676802	-2.993500	3.236100	-9.686400	26.883478	0.000389	20.810452
2278.676443	-3.000300	3.235300	-9.706700	26.881419	0.000386	20.817864
2279.675873	-2.991300	3.235200	-9.676500	26.920977	0.000385	20.812597
2280.684268	-2.970900	3.234600	-9.609000	26.898568	0.000386	20.829892
2281.676809	-3.004700	3.233400	-9.714300	26.921127	0.000383	20.819386
2282.675296	-2.983600	3.233200	-9.645200	26.951826	0.000383	20.823703
2283.683625	-3.000100	3.232200	-9.696000	26.973143	0.000382	20.823802
2284.679532	-2.994800	3.232800	-9.680700	26.996618	0.000382	20.817538
2285.681522	-3.006000	3.233400	-9.717000	27.006246	0.000381	20.827694
2286.680028	-2.989700	3.231400	-9.660200	26.981505	0.000381	20.814194
2287.678770	-2.990800	3.230700	-9.662000	26.997809	0.000381	20.819683
2288.674654	-2.986900	3.230500	-9.647800	27.021730	0.000381	20.825721
2289.684404	-2.986700	3.231000	-9.648900	27.024063	0.000380	20.816688
2290.679765	-3.002000	3.229100	-9.691900	27.053939	0.000378	20.816388
2291.679693	-3.019800	3.228100	-9.745900	27.039348	0.000380	20.824473
2292.691377	-3.042600	3.226500	-9.815700	27.020909	0.000378	20.829163
2293.684369	-3.014000	3.228300	-9.728400	27.021283	0.000377	20.805358
2294.683518	-2.997400	3.227900	-9.674500	26.995673	0.000377	20.826544
2295.679846	-3.017700	3.226900	-9.737100	27.028305	0.000373	20.819057
2296.683933	-2.996600	3.226600	-9.668100	27.008205	0.000374	20.809275
2297.682700	-3.003500	3.225800	-9.687500	27.013466	0.000376	20.825471
2298.682630	-3.002300	3.226000	-9.684200	26.998327	0.000374	20.838222
2299.685629	-3.008600	3.223700	-9.697500	26.993589	0.000373	20.839620
2300.685878	-3.021700	3.225700	-9.746300	26.984828	0.000373	20.842664
2301.681799	-3.002700	3.226300	-9.686900	26.924101	0.000372	20.839445
2302.681666	-2.985600	3.224800	-9.626400	26.954104	0.000374	20.834528
2303.685699	-3.019700	3.223700	-9.733500	26.989147	0.000370	20.840370
2304.688326	-2.966000	3.225000	-9.563900	26.993165	0.000371	20.840617
2305.685548	-3.012000	3.224400	-9.711400	27.004308	0.000369	20.854667
2306.696294	-3.013400	3.223800	-9.712700	27.027461	0.000370	20.837648
2307.683189	-2.974400	3.222300	-9.583400	27.044012	0.000368	20.833430
2308.686460	-2.980000	3.223700	-9.604900	27.088406	0.000367	20.823549
2309.685820	-2.980400	3.223500	-9.606500	27.057761	0.000368	20.840618
2310.688207	-2.998100	3.220600	-9.653800	27.002572	0.000368	20.851973
2311.685268	-3.002800	3.221100	-9.671700	26.954925	0.000366	20.831086
2312.689292	-2.998400	3.220500	-9.655600	26.926013	0.000366	20.840894
2313.686915	-3.007000	3.219600	-9.680200	26.956291	0.000365	20.837201
2314.691581	-3.010200	3.218800	-9.688100	26.983042	0.000364	20.846084
2315.689521	-2.998700	3.220500	-9.654800	27.019423	0.000364	20.845212
2316.688581	-3.016500	3.218400	-9.707500	27.043642	0.000363	20.849653
2317.691058	-2.986800	3.220000	-9.616200	27.076301	0.000363	20.849306
2318.691136	-3.008700	3.218700	-9.682300	27.037762	0.000364	20.856067
2319.688846	-2.973500	3.216900	-9.564500	26.999671	0.000362	20.839573
2320.687736	-3.020400	3.217400	-9.717200	26.996743	0.000362	20.835207
2321.692034	-3.003800	3.215400	-9.658300	27.024984	0.000364	20.846062
2322.694416	-3.016400	3.214600	-9.695000	26.957930	0.000360	20.851177
2323.688621	-3.008300	3.215900	-9.673000	26.921351	0.000361	20.845215
2324.691685	-2.999900	3.216200	-9.647400	26.877224	0.000359	20.853948
2325.689290	-2.971900	3.215100	-9.554200	26.843222	0.000359	20.852950
2326.689501	-2.993800	3.215400	-9.625900	26.868835	0.000359	20.848358
2327.688280	-3.020300	3.211900	-9.699800	26.913533	0.000357	20.853948
2328.689053	-3.013500	3.211700	-9.677900	26.948972	0.000357	20.848807
2329.688569	-2.976600	3.213300	-9.563400	26.970266	0.000357	20.868797
2330.689234	-3.004000	3.212800	-9.650400	26.950362	0.000358	20.863954
2331.689606	-2.982900	3.212900	-9.582000	26.943985	0.000355	20.851852
2332.690860	-3.029300	3.211000	-9.725400	26.948105	0.000355	20.862159
2333.688423	-2.976300	3.213000	-9.562200	26.971257	0.000355	20.846087
2334.689800	-3.004100	3.208800	-9.637600	27.034365	0.000353	20.850755
2335.691618	-2.993900	3.210100	-9.609500	27.056151	0.000352	20.857491
2336.692092	-2.990000	3.208000	-9.591400	27.040470	0.000353	20.871118
2337.694615	-2.992000	3.209600	-9.601300	27.038930	0.000352	20.879526
2338.692117	-3.014000	3.210700	-9.677000	27.042827	0.000351	20.873962
2339.695874	-3.001400	3.207700	-9.626100	27.086003	0.000351	20.869495
2340.696180	-3.026800	3.207400	-9.707200	27.100271	0.000350	20.854447
2341.691514	-2.996600	3.206600	-9.607900	27.148854	0.000351	20.870592
2342.691354	-3.016200	3.206300	-9.670200	27.159300	0.000351	20.866400
2343.691164	-2.989400	3.205700	-9.582400	27.169276	0.000350	20.869321
2344.696002	-3.006200	3.205000	-9.633800	27.177561	0.000349	20.872438
2345.693129	-3.001700	3.205100	-9.619400	27.176371	0.000348	20.877878
2346.699829	-3.005800	3.206200	-9.635400	27.197261	0.000348	20.868071
2347.695524	-2.981100	3.203400	-9.549100	27.215795	0.000348	20.865376
2348.699551	-2.996400	3.205700	-9.604700	27.213093	0.000347	20.878304
2349.695963	-2.991000	3.202500	-9.577500	27.211776	0.000344	20.883617
2350.697226	-3.009300	3.201500	-9.633100	27.253282	0.000346	20.871788
2351.694200	-3.003600	3.201400	-9.614500	27.268069	0.000347	20.873859
2352.697361	-3.024400	3.200200	-9.676700	27.271121	0.000344	20.884989
2353.695536	-3.007400	3.200600	-9.624100	27.287271	0.000342	20.884165
2354.697026	-2.978800	3.200300	-9.532200	27.281541	0.000344	20.885987
2355.696920	-2.983700	3.201300	-9.550500	27.300371	0.000343	20.882643
2356.694764	-2.998000	3.201400	-9.596700	27.299204	0.000343	20.886211
2357.696206	-2.999400	3.199000	-9.593300	27.300295	0.000343	20.873085
2358.697336	-3.017400	3.200300	-9.655900	27.322698	0.000342	20.874757
2359.703998	-3.016300	3.197100	-9.642800	27.278613	0.000341	20.889206
2360.694862	-3.009100	3.199200	-9.624800	27.254970	0.000341	20.889131
2361.694991	-3.008000	3.197500	-9.615900	27.179918	0.000342	20.877179
2362.697847	-2.982800	3.198200	-9.538500	27.177436	0.000340	20.882742
2363.702245	-3.009500	3.197000	-9.620500	27.183069	0.000337	20.879874
2364.698123	-3.022000	3.195100	-9.653800	27.197087	0.000338	20.889231
2365.700589	-3.001900	3.195100	-9.590100	27.216787	0.000338	20.882020
2366.701595	-2.993400	3.195700	-9.564700	27.249513	0.000336	20.880798
2367.699031	-3.005900	3.193700	-9.598700	27.273753	0.000338	20.899489
2368.702907	-2.982100	3.193500	-9.523100	27.295808	0.000336	20.894174
2369.700881	-2.985700	3.194200	-9.536100	27.307792	0.000335	20.908123
2370.706520	-3.005800	3.192700	-9.595800	27.312680	0.000334	20.888386
2371.705298	-2.979800	3.193400	-9.513500	27.349544	0.000337	20.889908
2372.699739	-3.013700	3.192300	-9.620200	27.351553	0.000336	20.904256
2373.701122	-2.987500	3.190800	-9.532200	27.345775	0.000332	20.907452
2374.703506	-2.992800	3.191400	-9.550300	27.339499	0.000333	20.876011
2375.706949	-2.995100	3.190100	-9.553200	27.321686	0.000335	20.895075
2376.700951	-3.009200	3.190900	-9.600600	27.303378	0.000332	20.898468
2377.704508	-2.994600	3.190100	-9.551400	27.266290	0.000333	20.893879
2378.702480	-3.007300	3.187800	-9.585900	27.270383	0.000330	20.907004
2379.702522	-3.018100	3.187000	-9.617300	27.255547	0.000332	20.897772
2380.704365	-3.009400	3.189900	-9.599100	27.237858	0.000332	20.890885
2381.705529	-3.002500	3.187700	-9.570400	27.226372	0.000330	20.908727
2382.709542	-2.999400	3.186600	-9.556800	27.242225	0.000329	20.903811
2383.708502	-3.004100	3.185700	-9.569600	27.277059	0.000330	20.897125
2384.706896	-3.041800	3.183700	-9.683300	27.281475	0.000329	20.902514
2385.702594	-3.013800	3.186000	-9.600700	27.310378	0.000329	20.905035
2386.707817	-3.008800	3.183600	-9.577700	27.333723	0.000329	20.903863
2387.707233	-3.011600	3.184500	-9.588700	27.379518	0.000328	20.905360
2388.705885	-2.982400	3.184400	-9.495000	27.383587	0.000326	20.886696
2389.705424	-2.993800	3.183700	-9.530300	27.373787	0.000326	20.893433
2390.705315	-2.993400	3.182800	-9.526100	27.358085	0.000327	20.902766
2391.704276	-2.998200	3.183200	-9.541800	27.347790	0.000328	20.894781
2392.706871	-2.992000	3.181600	-9.518200	27.320850	0.000325	20.906086
2393.711508	-3.004300	3.179900	-9.551600	27.336528	0.000323	20.917115
2394.705257	-3.001200	3.182400	-9.549900	27.345434	0.000322	20.893360
2395.710527	-2.994700	3.179500	-9.520600	27.335610	0.000323	20.924251
2396.706772	-3.022600	3.178500	-9.606300	27.349975	0.000322	20.889867
2397.705097	-2.997900	3.180100	-9.532300	27.362699	0.000322	20.916890
2398.713294	-3.005500	3.180900	-9.559600	27.409140	0.000322	20.871152
2399.709721	-3.008600	3.180700	-9.568800	27.429481	0.000322	20.912475
2400.706146	-3.017200	3.178000	-9.587600	27.423751	0.000320	20.889643
2401.710350	-2.977000	3.177700	-9.458600	27.408271	0.000320	20.882132
2402.709301	-3.008000	3.176800	-9.554800	27.339606	0.000322	20.881808
2403.710301	-2.960500	3.178400	-9.409400	27.312689	0.000320	20.888396
2404.711897	-2.993800	3.176400	-9.508900	27.285472	0.000319	20.892312
2405.708215	-2.985800	3.176900	-9.484200	27.293586	0.000318	20.889094
2406.709730	-3.002300	3.174200	-9.529100	27.286368	0.000319	20.888946
2407.710716	-3.005000	3.174900	-9.540200	27.261807	0.000318	20.886526
2408.712190	-3.004600	3.175400	-9.539400	27.257913	0.000317	20.900151
2409.709334	-2.977700	3.174700	-9.452200	27.188145	0.000317	20.889720
2410.708185	-3.019900	3.171200	-9.574900	27.196754	0.000317	20.889370
2411.709920	-3.002200	3.171700	-9.521400	27.208688	0.000316	20.878141
2412.710174	-3.013000	3.172000	-9.556300	27.248658	0.000318	20.880886
2413.712498	-2.994500	3.171600	-9.496700	27.291629	0.000313	20.884755
2414.713330	-2.990300	3.170100	-9.478500	27.303016	0.000313	20.885304
2415.711425	-2.983500	3.169700	-9.455300	27.314106	0.000314	20.878916
2416.709997	-2.980500	3.168900	-9.444700	27.341620	0.000315	20.868661
2417.716199	-3.005100	3.168400	-9.520400	27.282450	0.000313	20.865092
2418.712820	-2.978000	3.170100	-9.439000	27.254517	0.000314	20.876348
2419.712070	-2.990800	3.168800	-9.475900	27.190655	0.000312	20.866642
2420.714773	-2.992700	3.166100	-9.473600	27.137482	0.000313	20.884284
2421.721903	-2.975800	3.167400	-9.424700	27.127261	0.000313	20.859306
2422.714409	-3.004300	3.165600	-9.509600	27.146169	0.000312	20.880219
2423.715130	-3.001100	3.164000	-9.494700	27.188695	0.000311	20.872257
2424.715105	-2.998100	3.165500	-9.490100	27.179118	0.000309	20.875426
2425.716496	-2.978200	3.166200	-9.428300	27.133936	0.000310	20.874554
2426.719887	-3.016500	3.163100	-9.540400	27.093616	0.000309	20.889951
2427.714446	-3.013100	3.161600	-9.524900	27.071134	0.000310	20.877773
2428.713106	-3.031800	3.162200	-9.586400	27.046892	0.000308	20.882791
2429.717258	-3.000500	3.160100	-9.481100	27.013069	0.000311	20.854942
2430.718393	-2.978500	3.162000	-9.417000	26.992471	0.000309	20.867419
2431.721314	-2.984000	3.161200	-9.432300	27.016991	0.000307	20.851300
2432.715162	-3.010700	3.159100	-9.509900	27.056445	0.000308	20.862528
2433.718666	-2.991700	3.160600	-9.453700	27.085851	0.000307	20.859859
2434.715625	-2.996900	3.158100	-9.463300	27.099326	0.000306	20.878625
2435.714777	-2.994100	3.157000	-9.451800	27.137440	0.000305	20.861483
2436.716450	-2.990600	3.158800	-9.444800	27.169348	0.000307	20.846160
2437.720338	-3.007600	3.156800	-9.493100	27.213140	0.000304	20.840895
2438.717402	-2.996900	3.157800	-9.462000	27.238396	0.000305	20.846859
2439.715923	-3.012200	3.155800	-9.505400	27.246411	0.000304	20.862032
2440.720021	-2.993900	3.156700	-9.449400	27.282162	0.000304	20.852001
2441.724102	-3.005300	3.153900	-9.477400	27.325551	0.000303	20.847757
2442.721898	-3.000300	3.152300	-9.456600	27.310543	0.000305	20.850678
2443.724085	-2.981900	3.154600	-9.405700	27.299578	0.000305	20.855769
2444.721226	-2.987600	3.153100	-9.419800	27.323817	0.000303	20.845539
2445.723675	-3.010400	3.150400	-9.483100	27.306673	0.000304	20.849630
2446.726877	-2.985700	3.153600	-9.414900	27.306624	0.000304	20.849106
2447.723476	-3.012100	3.150700	-9.489200	27.304417	0.000306	20.854472
2448.722099	-3.011300	3.150000	-9.484100	27.328283	0.000304	20.855721
2449.721964	-3.008000	3.148400	-9.468900	27.353885	0.000301	20.848284
2450.721216	-3.007800	3.147300	-9.464900	27.389113	0.000303	20.836782
2451.721632	-2.993800	3.146900	-9.420200	27.362916	0.000301	20.866851
2452.723320	-3.009700	3.145600	-9.466300	27.311538	0.000302	20.842670
2453.720607	-2.992500	3.146300	-9.414200	27.303105	0.000303	20.849359
2454.724245	-2.989900	3.145500	-9.403300	27.263310	0.000299	20.845366
2455.722722	-2.996300	3.144200	-9.419800	27.237683	0.000300	20.850883
2456.724946	-2.993800	3.143800	-9.410800	27.247383	0.000299	20.840725
2457.723847	-3.001400	3.144300	-9.436100	27.241083	0.000298	20.849561
2458.724388	-3.013700	3.143000	-9.470500	27.265620	0.000297	20.842474
2459.728645	-3.012600	3.142200	-9.464700	27.279539	0.000298	20.844147
2460.727885	-3.017300	3.140100	-9.473700	27.276167	0.000298	20.848815
2461.729188	-3.019600	3.140300	-9.482200	27.293136	0.000297	20.847867
2462.724573	-3.010000	3.138400	-9.445100	27.322287	0.000296	20.834516
2463.725562	-3.010700	3.139000	-9.449600	27.353844	0.000297	20.827855
2464.725665	-3.001100	3.138800	-9.418400	27.356177	0.000295	20.825935
2465.726855	-2.959100	3.138200	-9.285000	27.320106	0.000294	20.824262
2466.726038	-2.986300	3.136800	-9.366700	27.305667	0.000294	20.843876
2467.727551	-2.966500	3.136100	-9.302400	27.305918	0.000295	20.819474
2468.725429	-2.972900	3.134900	-9.318100	27.320854	0.000294	20.841135
2469.729273	-3.002800	3.133600	-9.409000	27.342661	0.000293	20.826089
2470.732195	-3.004900	3.133300	-9.413500	27.350303	0.000294	20.824293
2471.725626	-3.006400	3.131500	-9.413200	27.345515	0.000294	20.819003
2472.728613	-3.009600	3.132800	-9.427500	27.333559	0.000292	20.834001
2473.729805	-3.024800	3.132000	-9.472200	27.345789	0.000294	20.819752
2474.729228	-2.981600	3.131300	-9.335500	27.392104	0.000292	20.834575
2475.732013	-2.988500	3.130900	-9.356100	27.377520	0.000293	20.815637
2476.732145	-2.978300	3.129800	-9.320100	27.395457	0.000290	20.815189
2477.729090	-3.006800	3.128400	-9.404500	27.405107	0.000290	20.839122
2478.732924	-2.975700	3.127900	-9.307100	27.374248	0.000291	20.818036
2479.730000	-3.011000	3.126200	-9.412300	27.360604	0.000292	20.835604
2480.728821	-3.019200	3.126000	-9.436400	27.358523	0.000292	20.817389
2481.730580	-2.958300	3.127200	-9.250100	27.401290	0.000292	20.823903
2482.740495	-2.998800	3.124500	-9.369500	27.444849	0.000292	20.825998
2483.729757	-2.995300	3.123500	-9.355100	27.461867	0.000289	20.826524
2484.731050	-2.986800	3.122800	-9.324800	27.431901	0.000290	20.816292
2485.732004	-2.983400	3.123400	-9.317600	27.365942	0.000289	20.828646
2486.732851	-3.011600	3.120400	-9.395800	27.346889	0.000291	20.812798
2487.732502	-2.985500	3.121700	-9.317700	27.383357	0.000289	20.839052
2488.733479	-2.999200	3.120400	-9.357700	27.414093	0.000290	20.820187
2489.741101	-2.988200	3.118800	-9.318100	27.450086	0.000289	20.823680
2490.732803	-3.000700	3.116700	-9.351900	27.497660	0.000289	20.833137
2491.735665	-2.997700	3.117300	-9.343400	27.526956	0.000287	20.837956
2492.733317	-2.991400	3.116200	-9.320000	27.576512	0.000288	20.805789
2493.734013	-2.999700	3.116600	-9.347500	27.536902	0.000287	20.817618
2494.734654	-3.010500	3.113400	-9.371600	27.512694	0.000288	20.805590
2495.734190	-2.996500	3.114300	-9.330800	27.543328	0.000287	20.825031
2496.734938	-3.013000	3.112900	-9.377800	27.547570	0.000286	20.834040
2497.734912	-2.963600	3.113900	-9.227000	27.499177	0.000286	20.821862
2498.735786	-3.022700	3.111100	-9.402800	27.502923	0.000288	20.814725
2499.734628	-3.009700	3.110300	-9.360700	27.507810	0.000287	20.817745
2500.737092	-2.997100	3.109200	-9.317500	27.504982	0.000287	20.822961
2501.736951	-2.995900	3.110000	-9.316100	27.506446	0.000285	20.807838
2502.736654	-2.992500	3.107600	-9.298700	27.507413	0.000288	20.803121
2503.735956	-3.017200	3.107600	-9.374800	27.523959	0.000288	20.810285
2504.736691	-2.991300	3.107100	-9.291400	27.506472	0.000287	20.812132
2505.738653	-3.022400	3.106300	-9.386900	27.471175	0.000287	20.808388
2506.736447	-2.995900	3.104700	-9.299700	27.469961	0.000285	20.800528
2507.739789	-3.018900	3.103100	-9.367000	27.486952	0.000286	20.825209
2508.741290	-3.007800	3.103100	-9.332800	27.504712	0.000284	20.791869
2509.738936	-3.006500	3.101900	-9.324000	27.510863	0.000286	20.816550
2510.739898	-3.003600	3.102100	-9.316400	27.508632	0.000285	20.822839
2511.744022	-3.002600	3.100500	-9.308700	27.490971	0.000285	20.828778
2512.743470	-2.993200	3.099000	-9.275900	27.483407	0.000285	20.796038
2513.741858	-2.997000	3.099200	-9.285100	27.510865	0.000284	20.815603
2514.745310	-3.022600	3.097100	-9.359900	27.567342	0.000284	20.803675
2515.741669	-2.976400	3.096700	-9.215800	27.602858	0.000283	20.794840
2516.741454	-2.990200	3.096000	-9.257000	27.632200	0.000285	20.790698
2517.741965	-3.003800	3.093400	-9.290600	27.661316	0.000284	20.791073
2518.741274	-3.007700	3.092800	-9.300300	27.699953	0.000283	20.799132
2519.741480	-3.027000	3.093200	-9.362100	27.704938	0.000283	20.813158
2520.742369	-3.004000	3.092400	-9.288200	27.739011	0.000283	20.804772
2521.741704	-3.005700	3.090800	-9.288900	27.715527	0.000281	20.783510
2522.744904	-2.971700	3.091500	-9.185900	27.742483	0.000284	20.810636
2523.753062	-3.018600	3.088800	-9.322600	27.782556	0.000284	20.818721
2524.746751	-2.991000	3.089500	-9.239600	27.788780	0.000282	20.797484
2525.743333	-3.016400	3.088300	-9.312900	27.790913	0.000283	20.796786
2526.746349	-3.009700	3.087500	-9.291900	27.760361	0.000283	20.794963
2527.749082	-3.003200	3.087000	-9.269400	27.744614	0.000283	20.782436
2528.752120	-2.994500	3.085300	-9.237700	27.665282	0.000283	20.791745
2529.746471	-2.992200	3.084200	-9.227100	27.606776	0.000281	20.785980
2530.750864	-3.002800	3.082500	-9.255400	27.606330	0.000282	20.786479
2531.751624	-2.993800	3.083400	-9.230600	27.589911	0.000281	20.780390
2532.748323	-2.974100	3.082300	-9.166400	27.595566	0.000282	20.788924
2533.751499	-3.013400	3.079000	-9.277700	27.560794	0.000280	20.792819
2534.748023	-2.994900	3.079700	-9.222700	27.520391	0.000280	20.798635
2535.748821	-3.010400	3.078700	-9.267000	27.509748	0.000279	20.774176
2536.753329	-2.998900	3.076000	-9.223800	27.517860	0.000280	20.782338
2537.749474	-3.010000	3.074300	-9.252600	27.515454	0.000280	20.783710
2538.749592	-2.992800	3.075300	-9.202600	27.536711	0.000281	20.787553
2539.751278	-2.993200	3.073800	-9.198800	27.572328	0.000279	20.800631
2540.751718	-2.983700	3.073200	-9.168900	27.594254	0.000279	20.776225
2541.750484	-2.995300	3.072200	-9.201300	27.636269	0.000279	20.809492
2542.753629	-3.026200	3.071300	-9.292200	27.665929	0.000278	20.784809
2543.751614	-2.985200	3.069700	-9.161600	27.673544	0.000278	20.784886
2544.754141	-3.026600	3.067800	-9.284200	27.724558	0.000277	20.795917
2545.752522	-3.010200	3.067900	-9.234300	27.767138	0.000278	20.782816
2546.751477	-3.032700	3.065700	-9.297200	27.787274	0.000277	20.779847
2547.750784	-2.991700	3.067100	-9.174600	27.773411	0.000277	20.778224
2548.751046	-3.002900	3.065000	-9.202500	27.772371	0.000278	20.781445
2549.755422	-2.976100	3.065200	-9.120900	27.730933	0.000275	20.790953
2550.753008	-3.023500	3.063100	-9.260200	27.693959	0.000277	20.772237
2551.752550	-2.996100	3.062400	-9.174400	27.679923	0.000277	20.766174
2552.751882	-3.002500	3.060600	-9.188800	27.670649	0.000277	20.788136
2553.756989	-2.994800	3.058900	-9.160000	27.655099	0.000278	20.794775
2554.755247	-2.991100	3.058700	-9.147700	27.649842	0.000277	20.784269
2555.753525	-3.001500	3.059100	-9.179900	27.658572	0.000277	20.772665
2556.757795	-3.013300	3.056200	-9.207500	27.609193	0.000279	20.781299
2557.753197	-2.983600	3.057300	-9.121100	27.591883	0.000278	20.752501
2558.754388	-2.988700	3.053800	-9.124500	27.608649	0.000276	20.780752
2559.758409	-3.010400	3.052100	-9.187200	27.581543	0.000277	20.770073
2560.753405	-2.997800	3.052400	-9.149200	27.566612	0.000276	20.785396
2561.753719	-2.990000	3.051000	-9.121400	27.572590	0.000277	20.795678
2562.763491	-2.984500	3.051000	-9.104400	27.605874	0.000275	20.787917
2563.754484	-2.989700	3.048800	-9.113600	27.612473	0.000276	20.769901
2564.754531	-2.980700	3.050200	-9.089700	27.601039	0.000276	20.777836
2565.755919	-2.989500	3.046700	-9.106900	27.628048	0.000276	20.777987
2566.756258	-3.023100	3.046100	-9.206800	27.654685	0.000276	20.782504
2567.756816	-2.987900	3.044500	-9.095600	27.670011	0.000276	20.758571
2568.754126	-2.998400	3.044200	-9.126300	27.685365	0.000276	20.770227
2569.757257	-3.007700	3.041100	-9.145100	27.658580	0.000279	20.768880
2570.752947	-2.991800	3.042000	-9.100400	27.649479	0.000277	20.780110
2571.760504	-2.990500	3.040500	-9.091800	27.663689	0.000276	20.773072
2572.758110	-2.998900	3.039600	-9.114400	27.694938	0.000275	20.752834
2573.759917	-2.987200	3.038600	-9.075500	27.724078	0.000276	20.787848
2574.757926	-2.985900	3.038400	-9.071200	27.756961	0.000275	20.773049
2575.756434	-3.013300	3.036300	-9.148700	27.752398	0.000274	20.770828
2576.758613	-3.000700	3.034900	-9.105700	27.760803	0.000276	20.746569
2577.755687	-3.008700	3.034200	-9.128300	27.781437	0.000275	20.755006
2578.756462	-3.024500	3.032700	-9.170600	27.746968	0.000275	20.775795
2579.761108	-2.997400	3.030400	-9.081900	27.753959	0.000273	20.752010
2580.757646	-3.025300	3.030000	-9.164900	27.719391	0.000275	20.742827
2581.758159	-3.015000	3.028000	-9.128700	27.723979	0.000277	20.776842
2582.758001	-2.989300	3.028500	-9.052400	27.674530	0.000277	20.742255
2583.758249	-2.988500	3.026600	-9.042200	27.666049	0.000275	20.762644
2584.759825	-3.000100	3.024100	-9.071700	27.718524	0.000275	20.743377
2585.762358	-3.021500	3.024400	-9.138000	27.713664	0.000276	20.769307
2586.758965	-3.015000	3.022800	-9.112500	27.679911	0.000275	20.767585
2587.756822	-3.009900	3.021900	-9.094800	27.615726	0.000276	20.752310
2588.757154	-3.014900	3.021200	-9.107800	27.584949	0.000275	20.760223
2589.759395	-2.998600	3.018200	-9.049000	27.595761	0.000276	20.751188
2590.756672	-2.999700	3.016500	-9.046700	27.648690	0.000275	20.754659
2591.758138	-3.002900	3.016100	-9.056200	27.680631	0.000276	20.751239
2592.759926	-3.009000	3.015700	-9.073300	27.693279	0.000275	20.744052
2593.759433	-3.004800	3.013700	-9.054900	27.703051	0.000276	20.765265
2594.758751	-2.997300	3.012500	-9.027300	27.713565	0.000274	20.770630
2595.762128	-2.997300	3.010600	-9.022200	27.750590	0.000274	20.745775
2596.759899	-3.013600	3.009900	-9.069600	27.791207	0.000272	20.755830
2597.762056	-2.995000	3.009800	-9.012900	27.822825	0.000274	20.752088
2598.765202	-3.008200	3.007200	-9.045600	27.822800	0.000274	20.761546
2599.759695	-3.026900	3.005900	-9.097400	27.843925	0.000274	20.741555
2600.763096	-3.001000	3.005700	-9.018700	27.869639	0.000276	20.754633
2601.766425	-2.997800	3.004700	-9.006600	27.860538	0.000273	20.752111
2602.765227	-2.980300	3.004000	-8.952100	27.868944	0.000275	20.761994
2603.761784	-2.984900	3.002800	-8.962100	27.904475	0.000273	20.740381
2604.762650	-3.039300	2.999800	-9.116300	27.914716	0.000273	20.754956
2605.765077	-2.996000	2.999800	-8.985800	27.909978	0.000273	20.759671
2606.763318	-2.991200	2.998100	-8.966600	27.845560	0.000274	20.749838
2607.768886	-3.002900	2.997300	-8.999400	27.810944	0.000271	20.743924
2608.768418	-3.026600	2.995100	-9.063800	27.760928	0.000275	20.737685
2609.767213	-2.999200	2.994400	-8.978400	27.739131	0.000272	20.758425
2610.766101	-2.992100	2.994500	-8.958900	27.710611	0.000273	20.752484
2611.769384	-2.982300	2.992500	-8.922700	27.688391	0.000272	20.740081
2612.766833	-3.004800	2.990600	-8.984500	27.656300	0.000273	20.740980
2613.763929	-3.018600	2.989800	-9.022800	27.646032	0.000272	20.740131
2614.767533	-3.019400	2.987800	-9.019100	27.674949	0.000273	20.733192
2615.765839	-2.999300	2.987900	-8.960400	27.692630	0.000274	20.737234
2616.764822	-2.994200	2.984800	-8.936200	27.716066	0.000271	20.751810
2617.769357	-2.976700	2.983600	-8.879800	27.717653	0.000271	20.757199
2618.769257	-2.997400	2.983600	-8.942000	27.763605	0.000274	20.735164
2619.768178	-2.971100	2.983700	-8.863700	27.749717	0.000272	20.745844
2620.767751	-2.960500	2.980300	-8.822100	27.711379	0.000273	20.753731
2621.767004	-2.997500	2.977200	-8.923300	27.702476	0.000275	20.749513
2622.765641	-3.001300	2.975900	-8.929900	27.685885	0.000273	20.733292
2623.766384	-3.015600	2.974300	-8.968400	27.618477	0.000273	20.746544
2624.767256	-3.001800	2.974800	-8.928600	27.632341	0.000273	20.752433
2625.771204	-3.000500	2.973900	-8.921600	27.650568	0.000273	20.750385
2626.768274	-2.971300	2.973200	-8.833500	27.685612	0.000272	20.748190
2627.771733	-2.974900	2.969400	-8.832400	27.731786	0.000271	20.746292
2628.768183	-2.998200	2.970000	-8.903400	27.759536	0.000273	20.750510
2629.767473	-3.025000	2.966000	-8.969900	27.789168	0.000273	20.748088
2630.773575	-3.000700	2.965000	-8.895600	27.820015	0.000273	20.728870
2631.782338	-2.989400	2.965700	-8.864100	27.814733	0.000274	20.736832
2632.768056	-2.991900	2.962400	-8.861600	27.812625	0.000274	20.745141
2633.771027	-3.015500	2.960400	-8.926700	27.844514	0.000273	20.751631
2634.768534	-2.995300	2.958900	-8.861800	27.838710	0.000273	20.741996
2635.772087	-3.031100	2.958300	-8.965200	27.831716	0.000274	20.749182
2636.769341	-2.992600	2.957900	-8.850400	27.819615	0.000273	20.747434
2637.771805	-3.004500	2.955500	-8.878500	27.809793	0.000272	20.751301
2638.769136	-3.004500	2.953500	-8.872600	27.806620	0.000272	20.763755
2639.774141	-3.016200	2.952900	-8.905100	27.801487	0.000273	20.761434
2640.770002	-3.008000	2.950800	-8.875600	27.808479	0.000273	20.762780
2641.771821	-3.000000	2.951500	-8.853800	27.787845	0.000273	20.740118
2642.772284	-3.026100	2.946600	-8.914900	27.759551	0.000273	20.761431
2643.771966	-3.014200	2.946700	-8.881100	27.756624	0.000272	20.767968
2644.772066	-3.009000	2.945600	-8.863600	27.804459	0.000272	20.759684
2645.771900	-2.961300	2.944900	-8.719500	27.802970	0.000273	20.758185
2646.778172	-2.985900	2.941900	-8.783000	27.869498	0.000271	20.748327
2647.770457	-2.988000	2.941100	-8.786600	27.876292	0.000274	20.755164
2648.774389	-2.975000	2.941300	-8.748400	27.850403	0.000271	20.755662
2649.770135	-2.977200	2.939600	-8.750000	27.794264	0.000272	20.773605
2650.774365	-2.993100	2.937200	-8.790000	27.799497	0.000270	20.733826
2651.773958	-2.973200	2.936100	-8.727300	27.805201	0.000270	20.751895
2652.773394	-2.987800	2.933400	-8.762300	27.814772	0.000271	20.737344
2653.774103	-2.992800	2.932100	-8.774400	27.857297	0.000272	20.741736
2654.774117	-3.013100	2.930400	-8.828400	27.914797	0.000271	20.734649
2655.774740	-3.007300	2.927100	-8.802100	27.945864	0.000272	20.746952
2656.773877	-2.985400	2.929600	-8.744600	27.964137	0.000270	20.760130
2657.773497	-2.991300	2.927000	-8.754000	28.004772	0.000272	20.751719
2658.774666	-2.992300	2.923400	-8.746900	28.004077	0.000273	20.758132
2659.780396	-2.995900	2.924300	-8.760700	27.992451	0.000270	20.740738
2660.775761	-3.002900	2.920800	-8.770400	28.019869	0.000269	20.771183
2661.776526	-2.973000	2.921400	-8.684400	28.006854	0.000271	20.767566
2662.776088	-2.984200	2.918100	-8.706400	27.963492	0.000272	20.765644
2663.777420	-2.981900	2.915300	-8.691900	27.964160	0.000272	20.755885
2664.778829	-3.003200	2.913500	-8.749400	27.952782	0.000272	20.764347
2665.777209	-3.015900	2.911500	-8.780400	27.975814	0.000270	20.760029
2666.775737	-2.989100	2.910900	-8.699700	27.985012	0.000270	20.761227
2667.777727	-3.004900	2.908700	-8.739600	28.034399	0.000271	20.761153
2668.779992	-2.984300	2.908500	-8.678900	28.066106	0.000272	20.756086
2669.778235	-2.976500	2.907000	-8.650900	28.106787	0.000271	20.768588
2670.777134	-2.983900	2.904600	-8.665900	28.124413	0.000274	20.756461
2671.777868	-2.995500	2.903400	-8.696100	28.160855	0.000272	20.764697
2672.782145	-3.027300	2.900800	-8.780600	28.143227	0.000273	20.763073
2673.779922	-2.976400	2.900100	-8.630500	28.198953	0.000270	20.763223
2674.776385	-3.038700	2.897100	-8.802000	28.155771	0.000270	20.747725
2675.783375	-3.003000	2.895600	-8.694200	28.183733	0.000270	20.756910
2676.782642	-2.996100	2.893600	-8.668000	28.207405	0.000270	20.761776
2677.779078	-2.984000	2.892200	-8.629600	28.186857	0.000269	20.787556
2678.779216	-3.009800	2.890700	-8.698700	28.095855	0.000271	20.796464
2679.777688	-3.035200	2.887100	-8.761200	28.048356	0.000270	20.780892
2680.783065	-3.029200	2.885300	-8.739100	28.008763	0.000271	20.755736
2681.784385	-3.002000	2.885200	-8.660000	28.012755	0.000270	20.768764
2682.779464	-2.988300	2.884200	-8.617900	28.051381	0.000273	20.776825
2683.779054	-3.010900	2.881200	-8.673800	28.115590	0.000271	20.762277
2684.779143	-3.004500	2.880600	-8.653300	28.142461	0.000274	20.771311
2685.780572	-2.986100	2.877900	-8.592800	28.155972	0.000270	20.774955
2686.781499	-3.039000	2.874200	-8.734100	28.143181	0.000271	20.758284
2687.783003	-2.997300	2.874700	-8.615600	28.121912	0.000270	20.772909
2688.781729	-3.002800	2.873600	-8.627600	28.111650	0.000271	20.743611
2689.784209	-3.004300	2.870100	-8.621400	28.139465	0.000272	20.790106
2690.782532	-2.990400	2.868800	-8.577700	28.165691	0.000269	20.781420
2691.779889	-2.983000	2.867000	-8.550100	28.184011	0.000272	20.786588
2692.782043	-2.976900	2.865000	-8.528100	28.152480	0.000270	20.762905
2693.781640	-2.971800	2.863100	-8.507600	28.163091	0.000271	20.784492
2694.783365	-2.975400	2.860900	-8.511500	28.108183	0.000273	20.770942
2695.784205	-2.978900	2.858000	-8.512800	28.112844	0.000272	20.765203
2696.782799	-3.018300	2.856600	-8.621200	28.115075	0.000271	20.771242
2697.780243	-2.992100	2.853900	-8.538600	28.099135	0.000272	20.785542
2698.782678	-2.998000	2.852600	-8.550900	28.088104	0.000270	20.792929
2699.781958	-3.020700	2.850700	-8.609800	28.118695	0.000270	20.794327
2700.780761	-2.984100	2.849300	-8.501400	28.128191	0.000270	20.780653
2701.780127	-3.028600	2.845700	-8.616900	28.113937	0.000272	20.781477
2702.783944	-3.000700	2.843900	-8.532300	28.077099	0.000270	20.780903
2703.784817	-2.991100	2.842900	-8.503000	28.111731	0.000271	20.793006
2704.786101	-2.986000	2.842000	-8.484900	28.101098	0.000271	20.768551
2705.780879	-2.971800	2.839300	-8.437200	28.092519	0.000271	20.785046
2706.788086	-2.992000	2.835700	-8.484100	28.117435	0.000270	20.785946
2707.782580	-2.995500	2.834600	-8.488500	28.103527	0.000270	20.776213
2708.789199	-2.993000	2.832200	-8.475400	28.109627	0.000271	20.776664
2709.784430	-2.996800	2.829200	-8.477000	28.177401	0.000271	20.773769
2710.786913	-2.993200	2.828500	-8.465600	28.160893	0.000270	20.780384
2711.787973	-3.020900	2.824500	-8.532300	28.152193	0.000271	20.778263
2712.784056	-2.985500	2.822800	-8.426000	28.216840	0.000270	20.804940
2713.788122	-2.991600	2.819800	-8.433500	28.240042	0.000270	20.784678
2714.784104	-3.026600	2.816500	-8.524000	28.294299	0.000271	20.782881
2715.786073	-2.993300	2.816000	-8.427900	28.297992	0.000271	20.784228
2716.787441	-3.007600	2.813500	-8.461200	28.298290	0.000272	20.788322
2717.787238	-2.990300	2.812000	-8.407800	28.303744	0.000270	20.776743
2718.785415	-3.004200	2.809200	-8.437500	28.298093	0.000270	20.789071
2719.786742	-2.996200	2.804800	-8.402400	28.347392	0.000271	20.782760
2720.785894	-3.011300	2.804400	-8.443600	28.379461	0.000270	20.803670
2721.791537	-2.999500	2.801600	-8.402500	28.425111	0.000270	20.779938
2722.786776	-2.971900	2.798900	-8.316200	28.432896	0.000271	20.773551
2723.791728	-2.998800	2.796600	-8.385500	28.473167	0.000269	20.786130
2724.791920	-3.013900	2.792900	-8.416500	28.468360	0.000268	20.787927
2725.788990	-3.008800	2.792600	-8.400600	28.480552	0.000269	20.804473
2726.790400	-3.014000	2.788300	-8.402400	28.501146	0.000270	20.790124
2727.791954	-2.991700	2.786500	-8.335100	28.479191	0.000271	20.798834
2728.792570	-2.994300	2.782600	-8.331400	28.443455	0.000271	20.796513
2729.792739	-2.973400	2.782800	-8.272900	28.441524	0.000269	20.809741
2730.794981	-3.014400	2.777100	-8.369700	28.445317	0.000270	20.804078
2731.792516	-2.972100	2.776400	-8.250200	28.425469	0.000271	20.793100
2732.791733	-2.967700	2.772700	-8.227600	28.398306	0.000270	20.780921
2733.799153	-2.988300	2.770000	-8.276100	28.406784	0.000271	20.785664
2734.794765	-3.002100	2.768100	-8.307200	28.393500	0.000271	20.795996
2735.791745	-2.992100	2.764700	-8.271000	28.328666	0.000269	20.805156
2736.791969	-2.997200	2.760800	-8.274200	28.307202	0.000269	20.788759
2737.795253	-2.999100	2.757500	-8.268900	28.313350	0.000269	20.775509
2738.795743	-3.031300	2.755600	-8.351900	28.364183	0.000270	20.814839
2739.793426	-2.981100	2.752400	-8.203700	28.354023	0.000270	20.796074
2740.801545	-3.009200	2.749600	-8.273600	28.313773	0.000268	20.801540
2741.795508	-2.988300	2.744900	-8.201800	28.330850	0.000270	20.812096
2742.792861	-2.992600	2.741900	-8.204100	28.361187	0.000272	20.791908
2743.794605	-3.003200	2.739700	-8.226800	28.386343	0.000268	20.791160
2744.794558	-3.009800	2.737400	-8.238400	28.380495	0.000270	20.823203
2745.795783	-2.977500	2.732900	-8.136400	28.394919	0.000271	20.801693
2746.797676	-3.028100	2.729000	-8.262500	28.418909	0.000271	20.778434
2747.794457	-3.015300	2.726800	-8.221100	28.378712	0.000271	20.801968
2748.800486	-3.019600	2.722100	-8.219100	28.380324	0.000271	20.793634
2749.797941	-2.989000	2.720400	-8.130500	28.421415	0.000269	20.819838
2750.798013	-3.012000	2.716300	-8.180300	28.449642	0.000269	20.797054
2751.795261	-2.998600	2.713100	-8.133000	28.448106	0.000271	20.819215
2752.796628	-2.984600	2.709800	-8.087200	28.503220	0.000272	20.816395
2753.796303	-3.004700	2.705000	-8.126900	28.545197	0.000269	20.810305
2754.795594	-2.996300	2.703500	-8.099700	28.619905	0.000270	20.822956
2755.797254	-3.002900	2.699200	-8.104300	28.641438	0.000268	20.804342
2756.794189	-3.002300	2.694500	-8.088000	28.687300	0.000271	20.814498
2757.800960	-3.022400	2.689700	-8.128700	28.705659	0.000270	20.791739
2758.796129	-3.032400	2.686200	-8.144500	28.710019	0.000269	20.815571
2759.801267	-3.011200	2.683700	-8.079400	28.726026	0.000269	20.817943
2760.798247	-3.032000	2.679900	-8.123800	28.734275	0.000271	20.831468
2761.798345	-2.994600	2.674500	-8.007800	28.724020	0.000270	20.802172
2762.794039	-2.996400	2.672200	-8.005400	28.703705	0.000270	20.810634
2763.795906	-2.982900	2.668600	-7.959500	28.627613	0.000270	20.811754
2764.797988	-2.975000	2.664500	-7.925600	28.613837	0.000270	20.814475
2765.795017	-2.970800	2.660600	-7.903000	28.586976	0.000269	20.810181
2766.798909	-2.991800	2.656600	-7.947100	28.559646	0.000271	20.819641
2767.798867	-3.027600	2.651000	-8.025400	28.582740	0.000269	20.805441
2768.796032	-3.027300	2.646100	-8.009200	28.617332	0.000270	20.832219
2769.796148	-3.004800	2.642300	-7.939000	28.641243	0.000270	20.824533
2770.797589	-2.987600	2.639000	-7.883600	28.639806	0.000270	20.827353
2771.797589	-2.999800	2.634400	-7.901400	28.600360	0.000270	20.820816
2772.800389	-2.997400	2.629100	-7.879600	28.550627	0.000271	20.820514
2773.809604	-3.011500	2.624300	-7.902200	28.551496	0.000272	20.828028
2774.798543	-3.019100	2.620400	-7.909600	28.535687	0.000272	20.844823
2775.803635	-2.992500	2.615200	-7.825300	28.524437	0.000272	20.806467
2776.799974	-3.015900	2.610200	-7.871300	28.511651	0.000270	20.834841
2777.806458	-3.024600	2.605100	-7.877900	28.503821	0.000271	20.823164
2778.804566	-2.995400	2.601000	-7.789600	28.473142	0.000272	20.837787
2779.803346	-2.967000	2.595400	-7.699100	28.487961	0.000272	20.816675
2780.802959	-3.029600	2.588800	-7.842200	28.488828	0.000272	20.836040
2781.806201	-2.987200	2.585300	-7.722000	28.497378	0.000270	20.838485
2782.803837	-2.953900	2.581500	-7.624700	28.494059	0.000272	20.833247
2783.808218	-2.998200	2.574300	-7.717600	28.475250	0.000269	20.837539
2784.805890	-3.013400	2.567700	-7.736100	28.515345	0.000269	20.841406
2785.804474	-2.972100	2.564900	-7.622300	28.573504	0.000270	20.820321
2786.805737	-2.992900	2.556900	-7.650200	28.604132	0.000272	20.835045
2787.806612	-2.994800	2.552500	-7.643400	28.641942	0.000270	20.833772
2788.805080	-2.969900	2.548300	-7.567000	28.686566	0.000271	20.834621
2789.808136	-3.006100	2.540100	-7.633900	28.744765	0.000271	20.827809
2790.806984	-3.009400	2.534700	-7.627500	28.781208	0.000271	20.850766
2791.804605	-3.007000	2.528400	-7.602200	28.821244	0.000272	20.815233
2792.814348	-2.978400	2.522900	-7.513200	28.835860	0.000270	20.834697
2793.815608	-3.025400	2.515600	-7.609600	28.853448	0.000269	20.844828
2794.807399	-2.997900	2.511100	-7.526900	28.899624	0.000270	20.844406
2795.809909	-2.992500	2.505000	-7.494800	28.958728	0.000270	20.844681
2796.809370	-3.021600	2.497100	-7.544000	28.995709	0.000271	20.848749
