LabVIEW Measurement	
Writer_Version	2
Reader_Version	2
Separator	Tab
Decimal_Separator	.
Multi_Headings	No
X_Columns	One
Time_Pref	Absolute
Operator	admin
Description	Clolumns are: time, Current, Voltage, Power, Battery Temp, and Chamber Temp
Date	2024/08/16
Time	13:06:06.104549407958984375
***End_of_Header***	
	
Channels	6						
Samples	1	1	1	1	1	1	
Date	2024/09/12	2024/09/12	2024/09/12	2024/09/12	2024/09/12	2024/09/12	
Time	04:09:45.2463521957397460938	04:09:45.2520270347595214844	04:09:45.2570486068725585938	04:09:45.2283463478088378906	04:09:45.2283463478088378906	04:09:45.2283463478088378906	
X_Dimension	Time	Time	Time	Time	Time	Time	
X0	0.0000000000000000E+0	0.0000000000000000E+0	0.0000000000000000E+0	0.0000000000000000E+0	0.0000000000000000E+0	0.0000000000000000E+0	
Delta_X	1.000000	1.000000	1.000000	1.000000	1.000000	1.000000	
***End_of_Header***							
X_Value	Untitled	Untitled 1	Untitled 2	Untitled 3	Untitled 4	Untitled 5	Comment
0.000000	0.031214	4.096200	0.127780	21.028977	0.000909	20.775328
0.997797	-2.991400	3.918700	-11.721000	21.026108	0.000908	20.765346
1.998124	-3.010700	3.910500	-11.773000	21.039807	0.000908	20.753917
2.997063	-2.997000	3.906600	-11.705000	21.009892	0.000907	20.757187
3.998957	-2.988100	3.902100	-11.658000	21.029101	0.000907	20.770710
4.999960	-3.014700	3.898600	-11.752000	21.014910	0.000905	20.763628
5.998821	-3.013600	3.895400	-11.738000	21.040583	0.000905	20.748054
6.998300	-3.000100	3.894700	-11.684000	21.016824	0.000904	20.750370
7.998651	-3.005700	3.890100	-11.691000	21.006081	0.000905	20.763807
8.997917	-2.975300	3.889900	-11.573000	21.031354	0.000903	20.759213
10.001541	-2.998100	3.887900	-11.656000	21.036396	0.000902	20.776585
10.998041	-3.003700	3.885400	-11.670000	21.019749	0.000903	20.746182
12.000448	-2.995600	3.883700	-11.633000	21.049245	0.000898	20.746287
12.999357	-3.005000	3.881600	-11.663000	21.040533	0.000902	20.754644
14.001909	-3.009600	3.881300	-11.678000	21.046548	0.000901	20.769669
15.002742	-3.017200	3.879300	-11.703000	21.052988	0.000899	20.756196
16.004736	-3.008100	3.878100	-11.664000	21.054657	0.000899	20.751700
17.002090	-3.001200	3.877000	-11.635000	21.044227	0.000897	20.755494
18.001429	-3.001000	3.877800	-11.637000	21.051868	0.000897	20.764084
19.002110	-2.998700	3.876600	-11.624000	21.075989	0.000898	20.765925
20.002185	-3.002800	3.873600	-11.631000	21.060271	0.000898	20.776757
21.003830	-2.993300	3.874400	-11.596000	21.077811	0.000896	20.748307
22.002653	-2.987500	3.872400	-11.567000	21.087008	0.000895	20.757981
23.005886	-3.004600	3.871700	-11.633000	21.082071	0.000893	20.772957
24.002303	-2.998700	3.872000	-11.608000	21.099585	0.000895	20.756811
25.001490	-2.989700	3.870400	-11.570000	21.103655	0.000895	20.741915
26.004784	-2.981600	3.870800	-11.539000	21.096741	0.000894	20.761553
27.000211	-3.004800	3.870300	-11.629000	21.092106	0.000893	20.739372
28.002901	-3.002600	3.869900	-11.617000	21.119969	0.000893	20.765820
29.001569	-3.004000	3.867900	-11.618000	21.121988	0.000895	20.745080
30.002530	-3.001700	3.867400	-11.608000	21.135082	0.000892	20.749643
31.002058	-3.007400	3.866900	-11.627000	21.134435	0.000894	20.730978
32.005371	-3.012500	3.865900	-11.645000	21.156338	0.000891	20.741034
33.003046	-2.997300	3.866700	-11.589000	21.136953	0.000891	20.738238
34.003141	-3.004500	3.864900	-11.610000	21.152048	0.000890	20.746225
35.003100	-3.017600	3.863800	-11.658000	21.169186	0.000893	20.750093
36.003491	-2.990700	3.864800	-11.557000	21.157588	0.000891	20.762199
37.005843	-3.009700	3.864400	-11.630000	21.184532	0.000892	20.761177
38.003222	-3.006600	3.861600	-11.608000	21.196684	0.000891	20.750099
39.003868	-2.996700	3.862000	-11.572000	21.172762	0.000890	20.746558
40.001281	-2.975700	3.863000	-11.494000	21.188349	0.000890	20.752667
41.002601	-2.990200	3.862900	-11.550000	21.192787	0.000890	20.741933
42.005711	-2.995700	3.860900	-11.564000	21.209081	0.000889	20.746854
43.003640	-2.989700	3.861700	-11.544000	21.213741	0.000890	20.751515
44.003910	-2.989800	3.860600	-11.541000	21.200445	0.000890	20.726833
45.002848	-3.003900	3.860400	-11.595000	21.216542	0.000889	20.751472
46.006402	-3.017600	3.858100	-11.642000	21.254207	0.000889	20.735098
47.002413	-3.012300	3.857600	-11.619000	21.242426	0.000890	20.735639
48.004219	-2.987100	3.859600	-11.528000	21.271984	0.000889	20.744347
49.002711	-2.992300	3.859300	-11.547000	21.256866	0.000889	20.746767
50.005253	-3.014100	3.858200	-11.627000	21.278946	0.000886	20.713852
51.003427	-3.020500	3.857200	-11.649000	21.266475	0.000889	20.717497
52.004297	-3.003600	3.856800	-11.584000	21.265576	0.000889	20.731772
53.008613	-2.998600	3.857000	-11.564000	21.311974	0.000889	20.753061
54.004910	-3.014500	3.855300	-11.620000	21.297879	0.000887	20.753184
55.007752	-2.994600	3.855900	-11.545000	21.297153	0.000885	20.741551
56.005600	-3.001400	3.854800	-11.568000	21.281740	0.000889	20.746995
57.005218	-2.990400	3.854400	-11.525000	21.287150	0.000888	20.733915
58.004120	-3.009200	3.854600	-11.598000	21.317206	0.000886	20.734112
59.007571	-3.008500	3.853000	-11.590000	21.283734	0.000887	20.733342
60.003755	-3.030400	3.852300	-11.673000	21.313341	0.000887	20.764385
61.005299	-3.005900	3.853100	-11.580000	21.326186	0.000889	20.752106
62.005088	-3.015300	3.853200	-11.616000	21.352548	0.000886	20.749557
63.008731	-3.009500	3.852700	-11.594000	21.353176	0.000888	20.741650
64.007278	-3.000000	3.853800	-11.561000	21.375050	0.000888	20.733188
65.005920	-2.991100	3.853800	-11.526000	21.381131	0.000888	20.745437
66.007075	-3.014600	3.851400	-11.609000	21.383882	0.000888	20.735861
67.006613	-3.005300	3.852200	-11.577000	21.389575	0.000886	20.734445
68.008121	-3.012300	3.850500	-11.598000	21.397601	0.000888	20.754329
69.009055	-3.006600	3.852000	-11.580000	21.408378	0.000887	20.718643
70.007203	-3.000900	3.850100	-11.553000	21.407325	0.000886	20.731815
71.009901	-3.004900	3.850500	-11.569000	21.385199	0.000887	20.740498
72.007243	-2.979400	3.850900	-11.473000	21.422668	0.000887	20.730097
73.008531	-2.991100	3.850100	-11.514000	21.422588	0.000886	20.709153
74.013776	-3.002800	3.849300	-11.558000	21.443987	0.000889	20.735781
75.008994	-3.009400	3.849800	-11.584000	21.441347	0.000886	20.735510
76.009465	-3.016700	3.849100	-11.610000	21.459976	0.000888	20.739925
77.008333	-3.003600	3.848200	-11.557000	21.464635	0.000888	20.721352
78.010840	-2.982400	3.850900	-11.484000	21.459176	0.000885	20.723477
79.009422	-3.000000	3.847700	-11.542000	21.502822	0.000887	20.712620
80.013011	-3.010100	3.846900	-11.579000	21.473035	0.000888	20.724068
81.009373	-3.009200	3.847700	-11.578000	21.489424	0.000887	20.734303
82.008873	-3.014700	3.847000	-11.596000	21.468826	0.000886	20.725072
83.011184	-2.998600	3.847600	-11.536000	21.507751	0.000886	20.717552
84.010021	-2.993900	3.847200	-11.517000	21.524988	0.000887	20.729586
85.023753	-3.007400	3.845700	-11.564000	21.520145	0.000889	20.724265
86.011172	-3.005100	3.847200	-11.560000	21.508176	0.000887	20.714184
87.014288	-2.987700	3.847800	-11.495000	21.521942	0.000888	20.745504
88.013980	-2.995200	3.846900	-11.522000	21.537678	0.000889	20.721420
89.012375	-2.982600	3.846200	-11.470000	21.538748	0.000887	20.718223
90.015366	-2.985300	3.846200	-11.480000	21.554028	0.000889	20.715495
91.013025	-2.979400	3.845600	-11.456000	21.560342	0.000889	20.717072
92.014110	-3.007700	3.844300	-11.561000	21.549099	0.000891	20.709140
93.014035	-2.986100	3.845700	-11.482000	21.549567	0.000889	20.729049
94.015366	-2.999500	3.844100	-11.530000	21.578225	0.000889	20.721216
95.014021	-2.984700	3.844400	-11.474000	21.574157	0.000890	20.703394
96.015484	-2.993100	3.844000	-11.503000	21.593486	0.000890	20.696657
97.015189	-3.007900	3.842600	-11.557000	21.582637	0.000889	20.722312
98.015043	-3.014200	3.842000	-11.580000	21.592507	0.000891	20.718913
99.015304	-2.973800	3.845600	-11.434000	21.612310	0.000891	20.712650
100.015880	-3.005800	3.842000	-11.547000	21.629988	0.000891	20.701891
101.019051	-3.001300	3.843700	-11.535000	21.621737	0.000890	20.716868
102.015902	-3.006100	3.841800	-11.549000	21.636049	0.000891	20.707957
103.018998	-3.019400	3.842200	-11.600000	21.619589	0.000892	20.719461
104.014984	-2.989700	3.842900	-11.488000	21.647193	0.000890	20.724326
105.015122	-3.023000	3.841300	-11.611000	21.657266	0.000892	20.720181
106.017901	-3.007400	3.840300	-11.547000	21.658441	0.000890	20.707606
107.020912	-2.994900	3.841200	-11.502000	21.644972	0.000890	20.700290
108.018286	-3.011200	3.841400	-11.566000	21.665998	0.000891	20.706633
109.018024	-3.000300	3.841300	-11.523000	21.682297	0.000891	20.703505
110.017538	-3.019500	3.841000	-11.597000	21.687035	0.000893	20.729585
111.017960	-3.003900	3.839600	-11.533000	21.690979	0.000893	20.725946
112.020977	-3.011000	3.839300	-11.559000	21.694935	0.000893	20.716628
113.018282	-2.996700	3.839900	-11.507000	21.729601	0.000893	20.701060
114.022728	-3.013400	3.839500	-11.568000	21.722864	0.000895	20.716129
115.018125	-3.011400	3.839300	-11.560000	21.736997	0.000894	20.721265
116.019849	-2.995900	3.839300	-11.501000	21.741285	0.000894	20.685251
117.024123	-2.994400	3.839400	-11.495000	21.738615	0.000894	20.715298
118.020621	-2.986700	3.840400	-11.469000	21.756624	0.000893	20.715778
119.020514	-3.003300	3.838200	-11.527000	21.754372	0.000895	20.715895
120.019993	-2.997800	3.838200	-11.505000	21.747647	0.000894	20.701577
121.020005	-2.999400	3.838100	-11.510000	21.775414	0.000894	20.723205
122.020081	-3.017100	3.838000	-11.578000	21.785265	0.000894	20.705561
123.022268	-2.990100	3.837600	-11.473000	21.785117	0.000895	20.713949
124.021436	-3.026100	3.835300	-11.604000	21.811394	0.000897	20.720335
125.022795	-2.989400	3.837600	-11.471000	21.794782	0.000896	20.706553
126.023451	-2.997600	3.836800	-11.500000	21.805857	0.000897	20.718112
127.024134	-2.992600	3.836100	-11.479000	21.802639	0.000895	20.704933
128.026874	-3.009200	3.836400	-11.543000	21.789079	0.000896	20.707483
129.025600	-2.998800	3.835000	-11.497000	21.802861	0.000895	20.712742
130.025646	-2.990500	3.836100	-11.471000	21.785609	0.000897	20.707329
131.025467	-2.981600	3.837500	-11.440000	21.810348	0.000897	20.709804
132.024702	-2.973200	3.836100	-11.404000	21.803783	0.000899	20.705130
133.027479	-2.996100	3.835900	-11.492000	21.841436	0.000899	20.693503
134.025379	-2.998300	3.835300	-11.498000	21.833653	0.000898	20.698042
135.027929	-2.989600	3.834500	-11.462000	21.861252	0.000901	20.727090
136.028035	-2.994700	3.834400	-11.482000	21.861683	0.000900	20.697648
137.026101	-2.997200	3.833700	-11.490000	21.883221	0.000898	20.740072
138.026682	-2.983000	3.834400	-11.437000	21.908131	0.000900	20.726124
139.025336	-2.979200	3.835200	-11.424000	21.898281	0.000901	20.718635
140.025942	-3.006000	3.833600	-11.522000	21.932787	0.000899	20.719510
141.025610	-2.998700	3.833400	-11.495000	21.925934	0.000901	20.697950
142.025634	-2.996000	3.834300	-11.486000	21.948591	0.000902	20.721105
143.029401	-3.013100	3.832700	-11.547000	21.951089	0.000901	20.745891
144.027106	-2.992400	3.832100	-11.466000	21.979429	0.000902	20.731112
145.025996	-2.987200	3.833200	-11.449000	21.971912	0.000904	20.720742
146.026922	-2.987400	3.833700	-11.451000	21.965127	0.000902	20.704939
147.026362	-2.971000	3.833500	-11.388000	21.978420	0.000904	20.703073
148.026176	-3.013200	3.831800	-11.545000	22.012321	0.000904	20.715199
149.028866	-3.001600	3.831700	-11.500000	22.008784	0.000906	20.726358
150.026949	-3.006500	3.831400	-11.517000	21.990336	0.000903	20.730650
151.028006	-2.985700	3.831100	-11.436000	22.005493	0.000907	20.704096
152.028909	-2.999500	3.830700	-11.488000	21.992883	0.000906	20.719448
153.029026	-3.006300	3.829700	-11.513000	21.996272	0.000904	20.718100
154.031835	-3.009500	3.829900	-11.524000	21.984203	0.000907	20.705069
155.034318	-2.986800	3.830500	-11.440000	21.991043	0.000907	20.705278
156.032148	-2.987700	3.830700	-11.444000	22.013625	0.000906	20.710815
157.033056	-2.983600	3.829300	-11.424000	22.000418	0.000907	20.706602
158.031764	-3.008800	3.829300	-11.519000	21.996801	0.000908	20.715784
159.031827	-2.999300	3.829600	-11.486000	22.022508	0.000908	20.709275
160.032298	-2.979800	3.829200	-11.408000	22.029311	0.000908	20.704231
161.032591	-2.994800	3.828400	-11.464000	22.029742	0.000909	20.709879
162.033876	-3.007800	3.828100	-11.513000	22.006736	0.000909	20.702495
163.032651	-3.016800	3.828000	-11.547000	22.044905	0.000908	20.704195
164.032318	-2.994800	3.827700	-11.463000	22.041011	0.000911	20.713574
165.038846	-2.999300	3.828100	-11.480000	22.056900	0.000912	20.703400
166.038114	-3.006200	3.827900	-11.506000	22.071631	0.000912	20.705821
167.036897	-3.004000	3.827500	-11.496000	22.069958	0.000912	20.714578
168.034439	-2.988700	3.827800	-11.439000	22.063776	0.000911	20.719769
169.035112	-2.997100	3.828100	-11.472000	22.077936	0.000912	20.715926
170.034733	-2.999900	3.826000	-11.477000	22.104385	0.000914	20.717749
171.037340	-3.013900	3.825500	-11.528000	22.105861	0.000914	20.715434
172.035686	-2.999900	3.827100	-11.480000	22.110099	0.000913	20.717306
173.037721	-2.996700	3.825300	-11.462000	22.140287	0.000915	20.722873
174.038940	-3.003900	3.826200	-11.492000	22.145927	0.000916	20.735159
175.038672	-2.992700	3.825600	-11.448000	22.151039	0.000914	20.715619
176.040240	-3.016200	3.824900	-11.535000	22.166870	0.000916	20.721987
177.038286	-2.979500	3.825400	-11.396000	22.175690	0.000916	20.718963
178.038331	-3.005000	3.823500	-11.488000	22.197302	0.000916	20.720213
179.038165	-3.013200	3.823700	-11.520000	22.177916	0.000917	20.707915
180.038692	-3.008600	3.824300	-11.505000	22.162590	0.000915	20.715330
181.039118	-3.008400	3.824600	-11.504000	22.146912	0.000918	20.730454
182.038317	-3.024300	3.824400	-11.564000	22.157724	0.000918	20.735590
183.038510	-3.025900	3.822200	-11.564000	22.164361	0.000920	20.717578
184.038476	-2.992400	3.823200	-11.439000	22.182714	0.000919	20.716987
185.038626	-2.996400	3.823500	-11.456000	22.199216	0.000919	20.710274
186.037838	-2.999400	3.824600	-11.469000	22.210950	0.000921	20.703056
187.039278	-3.008800	3.822900	-11.502000	22.220028	0.000921	20.725898
188.038736	-2.993300	3.823200	-11.443000	22.237673	0.000918	20.737401
189.038397	-3.008900	3.822500	-11.501000	22.254580	0.000921	20.714025
190.039016	-2.995800	3.822800	-11.452000	22.282371	0.000922	20.719093
191.038985	-3.003200	3.821500	-11.476000	22.267341	0.000923	20.742925
192.045757	-3.002400	3.821800	-11.473000	22.281203	0.000923	20.726458
193.040206	-2.986600	3.822100	-11.414000	22.275103	0.000922	20.732678
194.042257	-2.991200	3.822500	-11.433000	22.274549	0.000923	20.739237
195.042388	-3.003300	3.820700	-11.474000	22.266253	0.000923	20.718601
196.041221	-3.013800	3.820500	-11.514000	22.269223	0.000925	20.717307
197.041670	-2.981200	3.820300	-11.388000	22.314381	0.000924	20.726015
198.042513	-2.993200	3.820600	-11.435000	22.302592	0.000925	20.731280
199.040926	-3.001600	3.820100	-11.465000	22.324774	0.000925	20.728836
200.041372	-2.997400	3.821200	-11.451000	22.308429	0.000925	20.712467
201.042497	-2.990300	3.818800	-11.418000	22.321214	0.000927	20.737599
202.041641	-3.003000	3.819500	-11.469000	22.332627	0.000927	20.723423
203.043595	-3.006700	3.818100	-11.479000	22.322856	0.000928	20.752520
204.046367	-2.986700	3.818800	-11.405000	22.318618	0.000928	20.730258
205.043984	-2.985800	3.819300	-11.402000	22.338931	0.000929	20.750598
206.042773	-2.999600	3.818500	-11.452000	22.358751	0.000929	20.738202
207.044625	-2.991300	3.817500	-11.418000	22.352669	0.000928	20.722154
208.046342	-3.026200	3.817000	-11.550000	22.364820	0.000930	20.723416
209.044922	-2.993600	3.818000	-11.428000	22.379782	0.000931	20.742667
210.044781	-3.020300	3.816200	-11.525000	22.370982	0.000930	20.735277
211.047823	-2.950000	3.820300	-11.268000	22.354932	0.000932	20.738171
212.047961	-3.019100	3.816400	-11.521000	22.365577	0.000932	20.738874
213.047542	-2.988300	3.816300	-11.403000	22.396053	0.000933	20.737149
214.049273	-3.007300	3.816800	-11.477000	22.397049	0.000933	20.745259
215.048448	-3.011800	3.816100	-11.492000	22.402183	0.000934	20.732857
216.048971	-3.008300	3.816700	-11.481000	22.397326	0.000934	20.755020
217.050629	-3.020500	3.815800	-11.524000	22.418688	0.000935	20.738005
218.049994	-2.996600	3.816000	-11.434000	22.423220	0.000934	20.734483
219.052710	-2.986200	3.816500	-11.394000	22.450313	0.000936	20.733639
220.051090	-2.983200	3.815000	-11.380000	22.449962	0.000935	20.739453
221.054653	-2.989300	3.815500	-11.405000	22.432493	0.000936	20.752305
222.051972	-2.995300	3.815200	-11.426000	22.436158	0.000936	20.747440
223.052062	-3.024600	3.814200	-11.535000	22.451032	0.000938	20.747163
224.054177	-2.998900	3.812100	-11.431000	22.443709	0.000938	20.739354
225.054531	-3.010700	3.812400	-11.477000	22.452508	0.000938	20.735364
226.051508	-2.998300	3.813600	-11.433000	22.472516	0.000938	20.745445
227.052154	-3.004400	3.813600	-11.456000	22.485503	0.000939	20.740432
228.051748	-3.006700	3.813100	-11.464000	22.484199	0.000940	20.740075
229.052136	-3.003000	3.813900	-11.452000	22.499651	0.000941	20.742747
230.055243	-2.976000	3.813800	-11.348000	22.533345	0.000939	20.736189
231.056693	-3.000500	3.813400	-11.440000	22.537004	0.000942	20.765932
232.056767	-3.017900	3.810600	-11.499000	22.551988	0.000944	20.742058
233.052993	-2.998700	3.811500	-11.428000	22.537133	0.000943	20.736189
234.053779	-3.002000	3.811500	-11.441000	22.541498	0.000945	20.741036
235.054509	-3.004300	3.811200	-11.448000	22.541824	0.000942	20.753216
236.054885	-2.988000	3.812000	-11.389000	22.528740	0.000944	20.758605
237.054358	-3.006700	3.812400	-11.462000	22.555252	0.000945	20.760501
238.055352	-3.007700	3.810900	-11.461000	22.529146	0.000946	20.745260
239.055210	-3.000600	3.810800	-11.433000	22.545471	0.000946	20.755920
240.055274	-2.978800	3.812500	-11.355000	22.576821	0.000946	20.760767
241.056620	-3.016100	3.809100	-11.487000	22.586830	0.000945	20.734755
242.055038	-3.009500	3.810300	-11.466000	22.628816	0.000946	20.756419
243.054366	-2.998000	3.809600	-11.420000	22.628275	0.000948	20.749713
244.055049	-3.018700	3.809600	-11.499000	22.635726	0.000947	20.765237
245.054304	-2.998900	3.809300	-11.422000	22.608263	0.000951	20.763809
246.062099	-2.998700	3.809500	-11.423000	22.632234	0.000949	20.756524
247.054480	-2.980200	3.810400	-11.354000	22.627488	0.000949	20.738967
248.055225	-3.006100	3.809100	-11.450000	22.638020	0.000950	20.750464
249.055562	-3.004300	3.809000	-11.442000	22.625939	0.000950	20.759702
250.055512	-2.994100	3.807700	-11.399000	22.627261	0.000949	20.756284
251.058777	-2.993800	3.808500	-11.400000	22.628755	0.000951	20.770109
252.059646	-2.986300	3.807700	-11.369000	22.631073	0.000952	20.772430
253.058007	-3.009400	3.807700	-11.458000	22.614983	0.000950	20.767221
254.059741	-2.989500	3.808900	-11.386000	22.646277	0.000952	20.761580
255.060640	-3.003600	3.805800	-11.430000	22.638653	0.000952	20.775756
256.063242	-3.008300	3.807800	-11.454000	22.659064	0.000953	20.763957
257.062386	-3.005900	3.806600	-11.441000	22.649222	0.000955	20.753624
258.061094	-2.992300	3.807400	-11.391000	22.666940	0.000954	20.760466
259.062484	-2.990300	3.805400	-11.377000	22.663104	0.000954	20.768003
260.062172	-3.003000	3.805900	-11.428000	22.664247	0.000955	20.759191
261.063174	-2.998800	3.805200	-11.410000	22.669633	0.000957	20.777862
262.064075	-2.999000	3.806100	-11.412000	22.656833	0.000956	20.761248
263.063034	-3.004300	3.805000	-11.431000	22.659624	0.000957	20.774001
264.065298	-2.988400	3.804500	-11.368000	22.697291	0.000956	20.754831
265.063758	-2.994300	3.804400	-11.391000	22.677963	0.000956	20.769137
266.063046	-2.993000	3.805100	-11.388000	22.698767	0.000956	20.779544
267.064846	-2.995200	3.804500	-11.394000	22.725496	0.000958	20.766489
268.068816	-3.001200	3.804200	-11.416000	22.726295	0.000960	20.789101
269.065150	-2.999600	3.803600	-11.406000	22.755692	0.000959	20.778718
270.064404	-2.977600	3.803700	-11.325000	22.767403	0.000960	20.771009
271.065477	-3.007200	3.802400	-11.434000	22.770138	0.000960	20.772326
272.065726	-2.994600	3.802800	-11.386000	22.757382	0.000962	20.787050
273.068122	-3.000100	3.802900	-11.408000	22.736949	0.000961	20.772271
274.065089	-2.999400	3.801500	-11.400000	22.759546	0.000960	20.771199
275.068819	-3.003800	3.801300	-11.416000	22.741860	0.000961	20.766759
276.066012	-2.997200	3.801600	-11.393000	22.746618	0.000961	20.762517
277.065340	-3.011000	3.802600	-11.448000	22.731023	0.000963	20.776766
278.066879	-3.008900	3.801200	-11.436000	22.736328	0.000964	20.790141
279.069068	-2.994400	3.801200	-11.381000	22.775111	0.000964	20.788687
280.066811	-3.001300	3.800600	-11.406000	22.774170	0.000962	20.773995
281.066717	-3.017300	3.799300	-11.462000	22.804513	0.000966	20.796330
282.066190	-3.000800	3.801100	-11.405000	22.802921	0.000966	20.798054
283.066545	-2.997800	3.799000	-11.387000	22.819235	0.000966	20.809181
284.071904	-2.991200	3.799100	-11.364000	22.827975	0.000966	20.781902
285.069433	-3.005900	3.799000	-11.419000	22.832967	0.000968	20.781212
286.074337	-3.016000	3.797500	-11.452000	22.847700	0.000968	20.780799
287.070736	-2.996600	3.800100	-11.386000	22.859164	0.000966	20.782326
288.069415	-3.009200	3.799200	-11.431000	22.861580	0.000970	20.790911
289.072016	-2.989200	3.799300	-11.355000	22.878815	0.000969	20.788263
290.069165	-2.982500	3.799200	-11.330000	22.900814	0.000970	20.768576
291.069749	-2.997600	3.798900	-11.387000	22.898293	0.000969	20.811096
292.070269	-3.010800	3.796700	-11.430000	22.893161	0.000969	20.792204
293.072142	-3.031300	3.797500	-11.509000	22.917986	0.000971	20.790522
294.074727	-3.008800	3.795800	-11.420000	22.928257	0.000970	20.805554
295.074112	-3.007900	3.796300	-11.419000	22.912240	0.000972	20.797567
296.072115	-3.013500	3.796400	-11.439000	22.959185	0.000971	20.796711
297.072370	-2.992800	3.797200	-11.363000	22.937292	0.000972	20.803226
298.072329	-3.033800	3.796000	-11.516000	22.965417	0.000973	20.787308
299.072840	-3.011400	3.796600	-11.432000	22.999011	0.000972	20.797259
300.076848	-2.992600	3.796500	-11.361000	22.995600	0.000973	20.793367
301.074132	-3.007100	3.795900	-11.413000	22.995355	0.000973	20.800233
302.075817	-2.988400	3.797000	-11.346000	22.994033	0.000975	20.810289
303.073948	-3.002800	3.795400	-11.396000	23.023816	0.000976	20.793188
304.073460	-2.997400	3.793800	-11.370000	23.019213	0.000976	20.801853
305.077154	-3.008600	3.795700	-11.418000	23.017517	0.000976	20.803472
306.077018	-3.008300	3.793400	-11.411000	23.058988	0.000977	20.798084
307.074173	-3.008700	3.793200	-11.412000	23.054102	0.000976	20.815473
308.074302	-2.994100	3.794600	-11.361000	23.048055	0.000978	20.810837
309.076327	-3.006000	3.793300	-11.401000	23.030890	0.000976	20.809285
310.075746	-2.980500	3.794500	-11.308000	23.037318	0.000977	20.815726
311.075973	-3.000700	3.793400	-11.382000	23.028100	0.000979	20.813127
312.077096	-2.989500	3.793500	-11.339000	23.007179	0.000978	20.834365
313.079398	-3.011700	3.792800	-11.421000	23.050538	0.000981	20.816169
314.078350	-3.007300	3.792500	-11.403000	23.028223	0.000981	20.824156
315.078147	-3.002700	3.792400	-11.387000	23.031812	0.000980	20.817321
316.081554	-2.996000	3.792200	-11.360000	23.059406	0.000981	20.813675
317.079318	-3.012300	3.791000	-11.419000	23.059510	0.000981	20.807616
318.082076	-2.993500	3.791400	-11.348000	23.066332	0.000982	20.830098
319.082246	-2.990000	3.791900	-11.336000	23.103021	0.000984	20.833195
320.081285	-2.996300	3.792400	-11.362000	23.126944	0.000982	20.821132
321.082128	-2.983000	3.791500	-11.309000	23.117536	0.000986	20.833990
322.085319	-2.997500	3.790500	-11.360000	23.147291	0.000985	20.824925
323.082114	-3.006700	3.790000	-11.393000	23.161646	0.000986	20.825560
324.085077	-3.007000	3.789800	-11.394000	23.152920	0.000984	20.831988
325.083337	-2.992100	3.790000	-11.339000	23.147438	0.000984	20.830289
326.084575	-3.017000	3.787400	-11.425000	23.143481	0.000984	20.832961
327.086576	-3.000100	3.789400	-11.367000	23.161468	0.000986	20.843398
328.084652	-3.012300	3.788100	-11.409000	23.165026	0.000986	20.830843
329.086430	-2.986900	3.789500	-11.318000	23.156859	0.000987	20.837358
330.083612	-3.028200	3.786900	-11.466000	23.155366	0.000987	20.832068
331.083946	-2.999500	3.786900	-11.358000	23.170458	0.000987	20.841502
332.089539	-2.994000	3.787200	-11.338000	23.179098	0.000987	20.825030
333.086784	-2.986300	3.788700	-11.313000	23.203622	0.000988	20.824950
334.089817	-3.015800	3.786100	-11.417000	23.189009	0.000990	20.821212
335.087013	-3.007300	3.786100	-11.384000	23.190847	0.000988	20.850079
336.087629	-3.027200	3.785000	-11.456000	23.181064	0.000991	20.810880
337.091861	-3.013800	3.785300	-11.407000	23.201637	0.000989	20.833866
338.085964	-2.994500	3.785900	-11.335000	23.216428	0.000990	20.866231
339.089788	-2.998600	3.786000	-11.351000	23.237565	0.000992	20.832887
340.086786	-3.003300	3.785200	-11.367000	23.254506	0.000993	20.833743
341.087541	-3.015800	3.783400	-11.408000	23.245044	0.000993	20.833743
342.086204	-2.998900	3.784700	-11.349000	23.214689	0.000993	20.843152
343.090519	-3.007100	3.784700	-11.381000	23.221264	0.000995	20.866809
344.087728	-2.985400	3.785000	-11.299000	23.224576	0.000994	20.851163
345.088838	-2.986300	3.785200	-11.301000	23.250893	0.000994	20.848140
346.089433	-3.011200	3.783000	-11.388000	23.222683	0.000996	20.846422
347.090205	-2.996900	3.783300	-11.337000	23.241430	0.000992	20.851933
348.094379	-3.001500	3.782900	-11.352000	23.235016	0.000995	20.863522
349.090129	-2.995500	3.784200	-11.334000	23.249302	0.000993	20.857924
350.091868	-3.005600	3.782100	-11.367000	23.242727	0.000993	20.857025
351.090818	-2.992300	3.782400	-11.317000	23.256374	0.000995	20.857900
352.089899	-2.996800	3.781900	-11.333000	23.246838	0.000996	20.867308
353.091844	-3.007600	3.782200	-11.375000	23.273855	0.000997	20.851237
354.093571	-3.003200	3.781300	-11.355000	23.274286	0.000997	20.867315
355.091494	-2.999000	3.780100	-11.335000	23.276221	0.000997	20.857401
356.090493	-2.987800	3.781800	-11.298000	23.302918	0.000997	20.856656
357.090166	-3.000900	3.779700	-11.341000	23.323784	0.000996	20.873300
358.092096	-2.984200	3.782200	-11.286000	23.317511	0.000998	20.864642
359.093355	-2.970800	3.781100	-11.232000	23.320620	0.000996	20.857327
360.093238	-3.006200	3.779400	-11.361000	23.353638	0.001001	20.874771
361.094190	-2.999600	3.779400	-11.335000	23.365963	0.001001	20.872425
362.094636	-3.003600	3.779500	-11.351000	23.388953	0.000999	20.866071
363.094439	-2.998500	3.778400	-11.327000	23.386262	0.001000	20.855788
364.097777	-3.001200	3.779200	-11.342000	23.393684	0.000999	20.860381
365.094034	-2.986200	3.778400	-11.282000	23.388585	0.001001	20.873762
366.097199	-2.976800	3.777400	-11.244000	23.406162	0.000999	20.857241
367.094402	-2.987700	3.778300	-11.287000	23.420323	0.001001	20.848202
368.093918	-3.012700	3.776100	-11.374000	23.411194	0.001000	20.868448
369.095788	-3.022900	3.775400	-11.410000	23.415384	0.001000	20.847519
370.097933	-3.000800	3.776300	-11.331000	23.439154	0.001004	20.860911
371.098355	-3.008500	3.776000	-11.359000	23.446968	0.001001	20.862580
372.093115	-3.012900	3.775500	-11.374000	23.444185	0.001003	20.861687
373.094392	-2.991900	3.777400	-11.300000	23.412718	0.001003	20.855277
374.093377	-3.013500	3.774700	-11.374000	23.416730	0.001002	20.835117
375.097813	-2.995300	3.775800	-11.309000	23.403029	0.001003	20.831817
376.094513	-3.001600	3.773600	-11.326000	23.405155	0.001004	20.860499
377.099738	-3.019500	3.774000	-11.395000	23.394815	0.001006	20.852032
378.095075	-3.003900	3.773700	-11.334000	23.392253	0.001005	20.854680
379.095635	-3.008100	3.773500	-11.350000	23.383296	0.001006	20.845228
380.097339	-3.017800	3.772800	-11.384000	23.418899	0.001006	20.841558
381.097002	-3.018900	3.774300	-11.393000	23.403558	0.001006	20.843726
382.096666	-3.001700	3.772900	-11.324000	23.423181	0.001006	20.833997
383.097134	-3.004800	3.773300	-11.337000	23.429705	0.001008	20.850019
384.096930	-3.005100	3.772700	-11.337000	23.430645	0.001006	20.858073
385.096365	-2.998100	3.771900	-11.308000	23.448873	0.001007	20.830826
386.097854	-3.006100	3.771700	-11.337000	23.459010	0.001008	20.860425
387.099428	-3.018000	3.771400	-11.381000	23.467721	0.001008	20.855881
388.098104	-3.014900	3.771900	-11.370000	23.489057	0.001009	20.841232
389.098382	-3.004300	3.771300	-11.329000	23.524933	0.001009	20.831201
390.099993	-3.019000	3.771100	-11.384000	23.517266	0.001008	20.850068
391.099978	-3.006400	3.770100	-11.333000	23.503696	0.001009	20.824613
392.100402	-3.012200	3.770200	-11.355000	23.497823	0.001010	20.836743
393.100919	-3.018400	3.769000	-11.375000	23.502529	0.001012	20.840512
394.099674	-3.008300	3.768200	-11.334000	23.449794	0.001010	20.834594
395.099321	-3.014700	3.769600	-11.363000	23.443890	0.001009	20.824883
396.102624	-3.005800	3.769700	-11.330000	23.475542	0.001009	20.817254
397.103178	-3.012800	3.767400	-11.350000	23.465208	0.001013	20.831078
398.100500	-3.010700	3.768800	-11.346000	23.469066	0.001011	20.848221
399.100821	-3.013700	3.767800	-11.355000	23.468169	0.001011	20.835943
400.101817	-3.017100	3.768400	-11.368000	23.504095	0.001012	20.847297
401.102925	-3.011400	3.768300	-11.347000	23.515497	0.001011	20.822217
402.100542	-3.004400	3.766400	-11.315000	23.524656	0.001011	20.836614
403.101424	-3.015300	3.766600	-11.356000	23.532648	0.001012	20.852211
404.101064	-3.008500	3.766900	-11.330000	23.499531	0.001009	20.831343
405.101117	-2.990200	3.766000	-11.260000	23.519054	0.001011	20.814877
406.100277	-3.001900	3.765100	-11.302000	23.522739	0.001011	20.816201
407.104486	-2.999500	3.765800	-11.295000	23.522739	0.001010	20.818572
408.102523	-3.003200	3.765200	-11.307000	23.491145	0.001013	20.834791
409.102645	-3.006900	3.765900	-11.323000	23.477126	0.001012	20.824058
410.102322	-3.005800	3.765800	-11.318000	23.471677	0.001013	20.817174
411.103508	-3.012800	3.763800	-11.339000	23.480585	0.001012	20.806662
412.106107	-3.004100	3.764800	-11.308000	23.511086	0.001014	20.825382
413.104491	-3.028500	3.762600	-11.394000	23.539449	0.001014	20.805924
414.105280	-3.000900	3.763400	-11.292000	23.529656	0.001013	20.820764
415.105186	-2.986400	3.764800	-11.242000	23.585631	0.001015	20.829459
416.105876	-2.978100	3.764000	-11.208000	23.551292	0.001017	20.831072
417.107022	-3.022900	3.762300	-11.372000	23.585379	0.001016	20.822094
418.107622	-2.977200	3.764800	-11.208000	23.593812	0.001017	20.810634
419.105850	-3.008100	3.761100	-11.312000	23.618039	0.001015	20.829231
420.106126	-2.982200	3.763000	-11.221000	23.644851	0.001017	20.818652
421.106603	-2.995200	3.760900	-11.263000	23.612640	0.001016	20.797266
422.106340	-3.001800	3.761100	-11.289000	23.608622	0.001016	20.817894
423.110546	-2.989500	3.760900	-11.242000	23.632050	0.001016	20.811983
424.106247	-3.017900	3.759600	-11.346000	23.588161	0.001017	20.815875
425.111060	-2.999200	3.760500	-11.277000	23.595704	0.001018	20.798306
426.107425	-2.981000	3.760400	-11.209000	23.588511	0.001017	20.815277
427.109805	-2.989900	3.761500	-11.245000	23.591097	0.001018	20.807913
428.114028	-2.991200	3.760500	-11.247000	23.612928	0.001019	20.830745
429.109321	-2.994100	3.759400	-11.255000	23.588235	0.001020	20.824957
430.109326	-2.972900	3.759700	-11.176000	23.568762	0.001017	20.804489
431.111118	-3.022000	3.758700	-11.357000	23.572104	0.001019	20.809735
432.111475	-2.983200	3.758300	-11.211000	23.555543	0.001020	20.837229
433.111144	-3.033700	3.757800	-11.399000	23.590323	0.001020	20.804766
434.115993	-3.034900	3.757100	-11.400000	23.576858	0.001019	20.826829
435.112433	-3.008900	3.757400	-11.305000	23.565107	0.001019	20.812679
436.112672	-3.012000	3.757800	-11.317000	23.573916	0.001022	20.818664
437.113149	-3.021500	3.755600	-11.346000	23.601275	0.001020	20.800572
438.112690	-2.993900	3.757600	-11.248000	23.613628	0.001018	20.801102
439.116246	-2.960800	3.757100	-11.123000	23.616988	0.001020	20.821066
440.113204	-2.988300	3.756700	-11.225000	23.617658	0.001020	20.829323
441.114264	-2.989800	3.757800	-11.234000	23.619998	0.001022	20.806539
442.113191	-3.002400	3.756500	-11.277000	23.627492	0.001023	20.798879
443.114497	-2.980000	3.755300	-11.189000	23.640139	0.001020	20.814877
444.115924	-2.981800	3.755700	-11.197000	23.640956	0.001022	20.818067
445.116440	-2.979500	3.754400	-11.186000	23.631718	0.001021	20.811650
446.115498	-2.988500	3.755100	-11.222000	23.622780	0.001022	20.803165
447.117034	-2.989700	3.754200	-11.223000	23.655145	0.001021	20.815222
448.118703	-2.999700	3.754200	-11.260000	23.635704	0.001023	20.826552
449.118490	-2.996300	3.754300	-11.247000	23.652485	0.001021	20.808288
450.118309	-3.016000	3.752100	-11.315000	23.675642	0.001023	20.810167
451.118055	-2.991600	3.753100	-11.226000	23.702944	0.001022	20.810511
452.118606	-3.004200	3.752300	-11.272000	23.724023	0.001020	20.824058
453.117765	-2.982000	3.752900	-11.190000	23.720688	0.001022	20.804594
454.117581	-2.978900	3.752500	-11.177000	23.754511	0.001020	20.800098
455.123274	-3.009100	3.750700	-11.286000	23.747676	0.001023	20.805573
456.118830	-3.006900	3.752500	-11.283000	23.789635	0.001023	20.799279
457.123078	-3.020200	3.750400	-11.326000	23.804295	0.001023	20.807340
458.120729	-3.000500	3.749900	-11.250000	23.803479	0.001023	20.791822
459.120733	-3.001600	3.749200	-11.252000	23.802797	0.001022	20.811053
460.123224	-3.005900	3.749500	-11.270000	23.814103	0.001023	20.801053
461.123846	-2.998500	3.750000	-11.243000	23.813925	0.001022	20.800874
462.122864	-3.020900	3.749400	-11.326000	23.796281	0.001022	20.811632
463.123004	-2.995200	3.748300	-11.225000	23.806954	0.001025	20.791040
464.123833	-3.005000	3.747900	-11.262000	23.807335	0.001022	20.804224
465.124117	-2.982800	3.749900	-11.184000	23.835733	0.001023	20.803301
466.127542	-3.004800	3.748800	-11.264000	23.838497	0.001025	20.807020
467.124561	-2.987300	3.747900	-11.195000	23.814773	0.001025	20.814052
468.124764	-2.996300	3.747700	-11.227000	23.821399	0.001022	20.802679
469.126685	-2.993700	3.748300	-11.220000	23.812328	0.001023	20.801644
470.124087	-2.991600	3.747200	-11.210000	23.833387	0.001023	20.795732
471.126691	-3.002600	3.746300	-11.248000	23.840388	0.001024	20.779993
472.128253	-3.002700	3.746200	-11.247000	23.830108	0.001026	20.800505
473.126499	-3.022000	3.745300	-11.317000	23.804172	0.001025	20.795837
474.126666	-2.985500	3.746500	-11.184000	23.792455	0.001026	20.806373
475.126379	-3.005500	3.746200	-11.258000	23.784882	0.001027	20.803048
476.127245	-2.982600	3.745500	-11.170000	23.776572	0.001027	20.796139
477.129955	-3.005300	3.744400	-11.251000	23.768484	0.001025	20.793245
478.127839	-3.008200	3.743900	-11.261000	23.772022	0.001025	20.772610
479.131654	-2.994200	3.743700	-11.209000	23.788622	0.001027	20.802057
480.127990	-2.978900	3.743500	-11.151000	23.790938	0.001025	20.802482
481.128083	-2.972700	3.743600	-11.128000	23.811125	0.001027	20.802808
482.129076	-2.991400	3.743500	-11.197000	23.811217	0.001026	20.809538
483.127814	-2.985900	3.743300	-11.175000	23.798651	0.001027	20.789827
484.129644	-3.008800	3.742700	-11.260000	23.825950	0.001026	20.794439
485.129459	-3.020600	3.741300	-11.299000	23.845786	0.001027	20.788251
486.128166	-3.023500	3.740100	-11.307000	23.836697	0.001027	20.788146
487.129187	-3.014800	3.741900	-11.280000	23.829733	0.001027	20.785430
488.131271	-2.993000	3.743100	-11.202000	23.846855	0.001028	20.801650
489.127346	-2.984900	3.741300	-11.167000	23.852806	0.001027	20.797186
490.128413	-3.007600	3.741100	-11.250000	23.861041	0.001027	20.772252
491.129567	-3.014500	3.740600	-11.274000	23.881178	0.001027	20.809040
492.130350	-3.004300	3.740600	-11.236000	23.885213	0.001026	20.802180
493.133343	-3.026900	3.738900	-11.316000	23.880337	0.001028	20.786859
494.130931	-3.000600	3.739700	-11.221000	23.845289	0.001027	20.788700
495.134489	-3.013100	3.738100	-11.262000	23.853727	0.001026	20.774402
496.130802	-2.979600	3.740300	-11.144000	23.849766	0.001026	20.801724
497.131463	-3.009200	3.739200	-11.251000	23.868785	0.001029	20.784285
498.131439	-3.011800	3.736800	-11.253000	23.864781	0.001025	20.796392
499.133729	-2.984300	3.739000	-11.157000	23.873563	0.001025	20.801878
500.130528	-2.972700	3.738100	-11.111000	23.861993	0.001027	20.781268
501.130924	-3.004400	3.737500	-11.227000	23.854673	0.001028	20.792894
502.131767	-2.996100	3.736700	-11.195000	23.857117	0.001026	20.792500
503.130827	-3.001200	3.735700	-11.211000	23.839547	0.001029	20.800961
504.133988	-3.001200	3.736100	-11.212000	23.855005	0.001026	20.785166
505.132243	-3.007800	3.734500	-11.231000	23.828849	0.001027	20.797346
506.135793	-3.000800	3.735800	-11.210000	23.829599	0.001025	20.789563
507.133445	-3.015800	3.736000	-11.266000	23.851117	0.001028	20.786958
508.132216	-3.007800	3.735700	-11.235000	23.872396	0.001026	20.782690
509.134169	-3.017900	3.734700	-11.270000	23.905920	0.001026	20.770787
510.142576	-3.014500	3.733500	-11.254000	23.922071	0.001027	20.786982
511.133572	-2.999000	3.733400	-11.196000	23.913720	0.001028	20.786669
512.135469	-3.023500	3.732800	-11.285000	23.873471	0.001025	20.778078
513.134946	-3.005000	3.733100	-11.217000	23.866028	0.001030	20.780572
514.134904	-3.011900	3.732500	-11.241000	23.866581	0.001026	20.760738
515.135378	-3.014100	3.732000	-11.247000	23.868890	0.001029	20.779648
516.135377	-3.016300	3.731700	-11.254000	23.886834	0.001026	20.780572
517.135307	-2.980400	3.733600	-11.127000	23.901665	0.001026	20.761304
518.135926	-3.002700	3.730800	-11.201000	23.949551	0.001028	20.775184
519.136315	-2.989900	3.730500	-11.153000	23.955268	0.001028	20.773804
520.137356	-2.992200	3.731400	-11.164000	23.973659	0.001028	20.766643
521.135935	-2.996400	3.731000	-11.179000	23.953702	0.001026	20.782192
522.136718	-2.983200	3.731300	-11.130000	23.992025	0.001025	20.780794
523.137216	-3.003500	3.731000	-11.205000	24.033755	0.001026	20.779494
524.137362	-2.996000	3.730300	-11.174000	24.046667	0.001027	20.798608
525.140000	-2.986100	3.729700	-11.136000	24.049234	0.001025	20.797863
526.138874	-2.996300	3.728400	-11.170000	24.073101	0.001026	20.779599
527.138825	-2.983000	3.729600	-11.124000	24.055632	0.001026	20.774882
528.138876	-3.021900	3.726500	-11.259000	24.069011	0.001027	20.762221
529.139236	-3.008700	3.727100	-11.213000	24.045077	0.001028	20.759555
530.140261	-3.010900	3.728300	-11.223000	24.015186	0.001027	20.777942
531.139391	-3.014400	3.727000	-11.233000	23.997699	0.001026	20.772259
532.138942	-2.985200	3.727900	-11.128000	23.994242	0.001026	20.777801
533.139462	-3.010100	3.726800	-11.218000	24.002255	0.001027	20.777776
534.139192	-2.997700	3.727500	-11.173000	24.034977	0.001028	20.767917
535.139266	-2.984500	3.727400	-11.124000	24.034307	0.001025	20.768195
536.140555	-3.001600	3.725800	-11.182000	24.043561	0.001027	20.763724
537.139765	-2.981600	3.727000	-11.112000	24.050008	0.001028	20.752646
538.139219	-2.997500	3.724100	-11.162000	24.034283	0.001027	20.770541
539.139598	-2.992600	3.724700	-11.145000	24.056823	0.001027	20.767542
540.140591	-3.001700	3.725200	-11.180000	24.085565	0.001026	20.764124
541.144406	-3.021100	3.723900	-11.249000	24.085841	0.001026	20.759186
542.143278	-2.995900	3.725500	-11.160000	24.090986	0.001025	20.784735
543.145459	-3.013700	3.723700	-11.221000	24.070239	0.001025	20.775781
544.145552	-3.010600	3.723200	-11.206000	24.081776	0.001026	20.755583
545.143625	-3.006300	3.723400	-11.193000	24.083072	0.001028	20.759253
546.145382	-3.028400	3.722000	-11.271000	24.084938	0.001026	20.747374
547.150038	-3.003500	3.722200	-11.177000	24.109719	0.001025	20.768434
548.145509	-2.983300	3.722100	-11.104000	24.112745	0.001025	20.740175
549.146192	-3.007800	3.722000	-11.194000	24.111008	0.001024	20.785849
550.146673	-3.009500	3.720100	-11.195000	24.118222	0.001027	20.765583
551.148472	-2.995000	3.721600	-11.145000	24.122421	0.001025	20.762208
552.148166	-2.995100	3.721700	-11.147000	24.104260	0.001023	20.746838
553.148828	-2.980100	3.721200	-11.089000	24.139189	0.001026	20.770017
554.156548	-2.989000	3.721000	-11.121000	24.128070	0.001025	20.761709
555.146486	-2.991400	3.720700	-11.129000	24.107489	0.001026	20.765250
556.149254	-2.977500	3.721000	-11.078000	24.107704	0.001026	20.751715
557.151199	-2.991200	3.720400	-11.127000	24.127664	0.001025	20.735697
558.148348	-3.010900	3.719300	-11.197000	24.144432	0.001025	20.754412
559.148734	-2.992300	3.719100	-11.128000	24.155108	0.001025	20.740938
560.148394	-3.014200	3.718200	-11.207000	24.181127	0.001027	20.770829
561.149221	-3.002700	3.717100	-11.160000	24.182171	0.001024	20.737735
562.152380	-2.976400	3.718600	-11.067000	24.211553	0.001024	20.752035
563.153045	-2.977800	3.719000	-11.073000	24.208539	0.001026	20.744269
564.149234	-3.007300	3.718100	-11.179000	24.212149	0.001025	20.736510
565.149158	-3.008200	3.717500	-11.182000	24.224292	0.001025	20.728301
566.149652	-2.994600	3.716900	-11.130000	24.199256	0.001024	20.731639
567.151658	-2.987200	3.716600	-11.101000	24.185204	0.001023	20.754529
568.153823	-3.002800	3.716900	-11.160000	24.169481	0.001024	20.753457
569.150854	-3.003000	3.715500	-11.157000	24.139390	0.001023	20.737975
570.154190	-3.002300	3.715700	-11.154000	24.110104	0.001025	20.740845
571.152433	-3.004700	3.714600	-11.159000	24.089677	0.001024	20.729840
572.151863	-2.991700	3.715600	-11.114000	24.058301	0.001027	20.748635
573.152743	-3.001300	3.714500	-11.146000	24.056361	0.001025	20.739577
574.152725	-2.989300	3.713600	-11.100000	24.035810	0.001023	20.757848
575.156276	-2.986600	3.713600	-11.090000	24.050117	0.001024	20.732365
576.154725	-3.005100	3.714300	-11.160000	24.077090	0.001026	20.738554
577.158007	-2.998200	3.712200	-11.129000	24.092993	0.001024	20.745495
578.156436	-3.001200	3.712500	-11.141000	24.125220	0.001024	20.749842
579.156657	-2.977700	3.713100	-11.056000	24.151590	0.001024	20.738832
580.160482	-2.996700	3.712500	-11.125000	24.167449	0.001025	20.727236
581.158525	-3.001300	3.711700	-11.139000	24.226932	0.001023	20.748020
582.159325	-2.987700	3.710800	-11.086000	24.223181	0.001023	20.739990
583.158894	-2.993900	3.711300	-11.110000	24.216140	0.001023	20.718701
584.162137	-2.993200	3.711100	-11.107000	24.215274	0.001024	20.745335
585.157826	-2.992800	3.711700	-11.107000	24.218657	0.001024	20.766272
586.163063	-3.009300	3.709100	-11.161000	24.224827	0.001023	20.738321
587.159299	-2.980100	3.709800	-11.055000	24.201817	0.001023	20.714766
588.159642	-2.978300	3.711300	-11.052000	24.215158	0.001022	20.740002
589.159804	-3.009100	3.708100	-11.157000	24.227000	0.001022	20.721060
590.164126	-2.989800	3.709000	-11.089000	24.247235	0.001022	20.739935
591.161054	-2.988000	3.709100	-11.082000	24.266339	0.001021	20.708836
592.163637	-2.991400	3.708800	-11.093000	24.246584	0.001022	20.725057
593.160820	-3.002200	3.707000	-11.128000	24.251735	0.001022	20.712679
594.161192	-3.005300	3.708700	-11.144000	24.252238	0.001022	20.731677
595.165033	-2.978000	3.708500	-11.043000	24.264553	0.001021	20.708941
596.161894	-3.009700	3.706300	-11.154000	24.267291	0.001022	20.720223
597.161879	-3.001100	3.707700	-11.126000	24.223557	0.001022	20.727563
598.160891	-2.995200	3.708000	-11.105000	24.232219	0.001022	20.737201
599.160346	-3.008500	3.707300	-11.151000	24.245578	0.001021	20.734953
600.162478	-3.011700	3.706100	-11.161000	24.253915	0.001020	20.735255
601.162052	-3.002400	3.706000	-11.125000	24.274867	0.001021	20.741100
602.161198	-2.988200	3.706700	-11.075000	24.272976	0.001023	20.724029
603.160157	-2.993100	3.705800	-11.090000	24.304849	0.001022	20.738458
604.160438	-2.994000	3.704800	-11.091000	24.301411	0.001020	20.710352
605.162209	-3.015700	3.704400	-11.171000	24.304002	0.001021	20.737608
606.163773	-3.015900	3.702800	-11.166000	24.303406	0.001020	20.729424
607.160472	-3.001900	3.703400	-11.116000	24.273505	0.001021	20.722662
608.162849	-3.002800	3.702900	-11.118000	24.247383	0.001020	20.722065
609.161890	-2.998300	3.704200	-11.105000	24.224718	0.001020	20.728254
610.163014	-3.000000	3.703800	-11.110000	24.221083	0.001020	20.707537
611.166274	-3.008800	3.702400	-11.139000	24.208369	0.001018	20.727502
612.168582	-3.015600	3.701400	-11.161000	24.211451	0.001019	20.728223
613.164304	-3.016300	3.701700	-11.164000	24.234743	0.001020	20.709385
614.164554	-3.003100	3.702100	-11.117000	24.240311	0.001019	20.711177
615.164290	-2.996300	3.700600	-11.086000	24.254719	0.001019	20.688169
616.164010	-3.006600	3.700700	-11.126000	24.284726	0.001017	20.716375
617.167848	-3.000900	3.700500	-11.104000	24.293284	0.001018	20.723537
618.165277	-2.998600	3.700900	-11.097000	24.289674	0.001019	20.718493
619.166507	-3.015200	3.699900	-11.154000	24.285273	0.001017	20.727355
620.164344	-2.993600	3.700800	-11.078000	24.277041	0.001018	20.713406
621.164328	-3.006600	3.699300	-11.120000	24.274782	0.001019	20.714934
622.167441	-2.991400	3.699000	-11.064000	24.277489	0.001018	20.708166
623.165727	-2.993400	3.700400	-11.075000	24.293137	0.001018	20.710586
624.165422	-3.016600	3.698100	-11.155000	24.300626	0.001017	20.729005
625.166526	-3.002000	3.699800	-11.106000	24.283990	0.001018	20.715162
626.165840	-2.993800	3.699500	-11.074000	24.311203	0.001018	20.732977
627.167082	-3.013100	3.697600	-11.140000	24.331448	0.001017	20.735268
628.165355	-3.007200	3.698200	-11.121000	24.348894	0.001018	20.726690
629.166050	-3.012200	3.698100	-11.138000	24.346506	0.001016	20.744210
630.167023	-3.009400	3.698000	-11.128000	24.351810	0.001017	20.703061
631.167302	-3.022300	3.696700	-11.171000	24.364092	0.001017	20.735299
632.166963	-3.007900	3.697300	-11.120000	24.354229	0.001019	20.705488
633.168308	-2.982000	3.697200	-11.023000	24.387707	0.001014	20.731962
634.167453	-2.993400	3.696900	-11.066000	24.399946	0.001015	20.709626
635.166238	-2.971900	3.696700	-10.986000	24.408951	0.001014	20.727195
636.168507	-3.001000	3.695400	-11.087000	24.425769	0.001016	20.720360
637.167195	-2.987700	3.694500	-11.037000	24.413635	0.001014	20.719566
638.172134	-3.014500	3.694900	-11.136000	24.408558	0.001016	20.723482
639.168068	-2.997500	3.695400	-11.076000	24.450395	0.001016	20.744118
640.169816	-2.985000	3.693800	-11.025000	24.438978	0.001015	20.698997
641.167087	-2.992100	3.693700	-11.051000	24.431846	0.001018	20.706067
642.168316	-2.995100	3.694000	-11.063000	24.450481	0.001015	20.699631
643.169436	-3.003800	3.693100	-11.092000	24.429483	0.001014	20.734992
644.175491	-3.002500	3.692200	-11.085000	24.408841	0.001014	20.733724
645.168503	-3.004300	3.693600	-11.096000	24.413046	0.001016	20.729407
646.170749	-2.980900	3.692400	-11.006000	24.449585	0.001016	20.721019
647.170424	-2.963600	3.692600	-10.943000	24.439716	0.001014	20.709220
648.170584	-3.007100	3.691300	-11.099000	24.430607	0.001013	20.715255
649.177840	-2.983100	3.691000	-11.009000	24.479360	0.001015	20.709164
650.170203	-3.017900	3.690800	-11.137000	24.471902	0.001013	20.726814
651.175827	-3.024900	3.690700	-11.162000	24.466035	0.001014	20.717134
652.171682	-2.995300	3.690100	-11.053000	24.474388	0.001013	20.737369
653.169492	-2.981100	3.691000	-11.002000	24.441336	0.001015	20.742616
654.171665	-3.024600	3.689800	-11.158000	24.461830	0.001012	20.725718
655.173487	-3.013700	3.689700	-11.119000	24.459296	0.001014	20.723175
656.170366	-2.993400	3.690000	-11.045000	24.447008	0.001014	20.728391
657.172731	-3.019600	3.686500	-11.130000	24.460038	0.001012	20.729610
658.172705	-2.993800	3.687600	-11.039000	24.474763	0.001012	20.748651
659.173204	-3.001500	3.688800	-11.071000	24.482926	0.001012	20.690930
660.181138	-3.010900	3.687700	-11.102000	24.473198	0.001013	20.711991
661.173614	-3.008700	3.686300	-11.090000	24.459915	0.001012	20.722848
662.175216	-2.996800	3.686200	-11.046000	24.451390	0.001011	20.743220
663.175225	-2.987700	3.687800	-11.016000	24.475763	0.001012	20.739223
664.174827	-2.997200	3.686700	-11.049000	24.442877	0.001012	20.735627
665.178923	-3.000100	3.685600	-11.056000	24.417607	0.001012	20.729241
666.175686	-2.979800	3.687300	-10.987000	24.432706	0.001012	20.740122
667.178149	-2.992700	3.686500	-11.031000	24.432903	0.001012	20.727516
668.175356	-2.982200	3.687900	-10.997000	24.450838	0.001010	20.737450
669.175794	-2.977600	3.684600	-10.971000	24.481379	0.001010	20.723520
670.178856	-3.004400	3.685000	-11.071000	24.504137	0.001011	20.733551
671.178273	-3.015400	3.684300	-11.109000	24.524336	0.001010	20.744808
672.176407	-3.012600	3.683500	-11.096000	24.540502	0.001010	20.719301
673.176166	-3.007100	3.683600	-11.076000	24.547192	0.001010	20.742136
674.176358	-3.010700	3.683100	-11.087000	24.549757	0.001009	20.732856
675.175051	-3.004100	3.682800	-11.063000	24.552470	0.001009	20.736052
676.179373	-2.997300	3.683200	-11.037000	24.581689	0.001010	20.733600
677.176013	-3.014900	3.681800	-11.099000	24.569924	0.001009	20.754988
678.180842	-2.995500	3.682600	-11.030000	24.582014	0.001009	20.729659
679.177823	-3.021400	3.680800	-11.121000	24.573582	0.001009	20.719775
680.179368	-3.000700	3.683300	-11.052000	24.578154	0.001007	20.745227
681.179459	-2.999900	3.681800	-11.044000	24.543779	0.001007	20.728754
682.176814	-2.994200	3.681800	-11.023000	24.553458	0.001008	20.742733
683.175908	-2.997000	3.682300	-11.035000	24.515277	0.001009	20.728132
684.176548	-3.002200	3.681200	-11.050000	24.522482	0.001009	20.760967
685.178647	-3.022300	3.679300	-11.119000	24.513135	0.001008	20.758226
686.178422	-2.989100	3.681000	-11.002000	24.502069	0.001006	20.747124
687.177917	-2.988300	3.680300	-10.996000	24.467047	0.001009	20.724788
688.177842	-3.001000	3.678900	-11.039000	24.449855	0.001006	20.748318
689.178747	-3.019100	3.678600	-11.104000	24.474732	0.001007	20.737240
690.178267	-2.993000	3.678500	-11.009000	24.498890	0.001007	20.741563
691.180041	-3.005200	3.678500	-11.053000	24.528209	0.001006	20.747271
692.180773	-3.015700	3.678400	-11.092000	24.535647	0.001008	20.759951
693.179768	-2.990400	3.678900	-11.001000	24.536592	0.001004	20.747148
694.181421	-2.999200	3.677300	-11.029000	24.512441	0.001006	20.748522
695.180194	-2.998700	3.678000	-11.028000	24.532983	0.001005	20.747321
696.179357	-2.988900	3.677600	-10.991000	24.543681	0.001006	20.749519
697.183743	-2.977700	3.677300	-10.949000	24.588648	0.001004	20.759076
698.182154	-3.010800	3.675900	-11.066000	24.605090	0.001007	20.768935
699.182036	-3.012800	3.677000	-11.077000	24.603101	0.001003	20.775001
700.181522	-2.986600	3.676100	-10.978000	24.647864	0.001004	20.741680
701.181190	-3.017600	3.677000	-11.094000	24.646716	0.001004	20.762814
702.182503	-2.994300	3.676300	-11.007000	24.653282	0.001004	20.745220
703.185155	-3.006000	3.675600	-11.047000	24.617695	0.001005	20.760246
704.186570	-3.015900	3.674100	-11.080000	24.611006	0.001005	20.740731
705.187116	-2.984700	3.675800	-10.969000	24.612276	0.001003	20.764292
706.185766	-3.003700	3.673100	-11.031000	24.608097	0.001005	20.784281
707.184329	-2.996200	3.675000	-11.010000	24.616124	0.001004	20.770998
708.187737	-2.997700	3.672900	-11.010000	24.625900	0.001002	20.748564
709.184432	-3.025800	3.673200	-11.114000	24.625329	0.001003	20.764113
710.187504	-3.006000	3.673600	-11.042000	24.625931	0.001001	20.770881
711.186560	-2.992600	3.674100	-10.995000	24.653730	0.001002	20.746618
712.186026	-2.985900	3.672300	-10.964000	24.662610	0.001002	20.758374
713.186356	-2.999400	3.671600	-11.011000	24.673975	0.001002	20.745122
714.190323	-3.024000	3.671100	-11.099000	24.696214	0.001002	20.776922
715.186754	-2.995900	3.671500	-10.997000	24.692379	0.001002	20.763116
716.185997	-3.006900	3.672300	-11.041000	24.681781	0.001000	20.763387
717.187320	-2.990500	3.672400	-10.980000	24.662653	0.001000	20.766478
718.185944	-3.017100	3.671400	-11.076000	24.660996	0.001000	20.763867
719.188071	-3.014000	3.670100	-11.060000	24.670870	0.001000	20.773776
720.189702	-3.006000	3.670000	-11.031000	24.641199	0.001001	20.753959
721.187411	-3.010300	3.669800	-11.046000	24.630159	0.001000	20.747148
722.186028	-3.007600	3.670800	-11.039000	24.644108	0.000998	20.763042
723.191589	-2.999500	3.669000	-11.004000	24.649625	0.000999	20.756724
724.189311	-3.015400	3.668900	-11.062000	24.622021	0.000999	20.765536
725.188838	-2.990400	3.669000	-10.971000	24.643156	0.000998	20.776312
726.188752	-2.994600	3.669300	-10.987000	24.632613	0.000999	20.783277
727.188950	-3.005900	3.668900	-11.028000	24.649250	0.000997	20.776737
728.188317	-2.984900	3.669500	-10.952000	24.640616	0.000998	20.758589
729.188631	-3.005200	3.666100	-11.015000	24.651963	0.000999	20.769027
730.188083	-2.988600	3.667100	-10.958000	24.654890	0.000998	20.790457
731.190360	-2.999400	3.667100	-10.998000	24.655933	0.000997	20.767795
732.189779	-3.006500	3.667200	-11.025000	24.648281	0.000997	20.766281
733.189962	-2.999200	3.667800	-10.999000	24.677049	0.000997	20.776657
734.193858	-3.012200	3.665300	-11.040000	24.683223	0.000997	20.760566
735.190456	-3.003000	3.665600	-11.007000	24.710598	0.000998	20.784718
736.192592	-2.992900	3.666400	-10.971000	24.722901	0.000995	20.788529
737.191351	-3.009900	3.665100	-11.031000	24.733652	0.000994	20.763282
738.192196	-3.003900	3.665200	-11.009000	24.760056	0.000995	20.794521
739.191617	-3.010500	3.663900	-11.029000	24.756822	0.000995	20.775628
740.196631	-3.000100	3.664700	-10.993000	24.789122	0.000995	20.747825
741.194808	-3.015500	3.663000	-11.045000	24.789374	0.000994	20.779372
742.195086	-2.998200	3.663700	-10.983000	24.774157	0.000993	20.791602
743.195493	-3.016400	3.662900	-11.047000	24.763234	0.000993	20.786331
744.195881	-3.023700	3.663200	-11.075000	24.754257	0.000993	20.769735
745.198585	-3.012700	3.662400	-11.032000	24.784754	0.000996	20.794176
746.196374	-3.014100	3.661900	-11.037000	24.767615	0.000994	20.774606
747.200742	-2.997600	3.661800	-10.975000	24.784072	0.000993	20.784483
748.197450	-3.012500	3.662200	-11.032000	24.814537	0.000993	20.798936
749.199331	-3.020900	3.662900	-11.064000	24.821421	0.000993	20.787353
750.199872	-3.009000	3.661800	-11.017000	24.815108	0.000993	20.797138
751.197016	-3.017800	3.661300	-11.048000	24.799891	0.000992	20.795617
752.197211	-3.000400	3.661900	-10.986000	24.783974	0.000991	20.784859
753.197544	-3.027900	3.660900	-11.083000	24.806481	0.000993	20.787057
754.197936	-3.003700	3.659800	-10.992000	24.809812	0.000990	20.774754
755.201546	-3.006200	3.661100	-11.005000	24.823545	0.000990	20.801338
756.200813	-3.005900	3.659400	-10.998000	24.836767	0.000989	20.791848
757.198966	-2.999500	3.660600	-10.980000	24.790767	0.000991	20.796417
758.200785	-3.001100	3.660400	-10.985000	24.795866	0.000992	20.778775
759.199296	-2.998600	3.659300	-10.972000	24.796013	0.000989	20.789828
760.199942	-3.001700	3.658900	-10.980000	24.816083	0.000989	20.805703
761.204399	-2.989900	3.659200	-10.940000	24.848088	0.000991	20.812218
762.201245	-2.991000	3.657900	-10.940000	24.860175	0.000989	20.771244
763.205614	-3.004300	3.657600	-10.987000	24.846922	0.000990	20.798721
764.202597	-3.014000	3.656200	-11.019000	24.828773	0.000989	20.791886
765.203280	-3.003300	3.656900	-10.982000	24.827484	0.000989	20.799602
766.202506	-3.010800	3.656400	-11.007000	24.858641	0.000988	20.794835
767.205130	-3.001600	3.657600	-10.977000	24.867096	0.000986	20.795260
768.203304	-3.002200	3.657800	-10.980000	24.868164	0.000987	20.802496
769.203088	-3.009100	3.655500	-10.999000	24.852720	0.000986	20.811178
770.203636	-2.996100	3.657900	-10.958000	24.879281	0.000988	20.802274
771.204047	-2.991100	3.655800	-10.934000	24.887239	0.000987	20.800304
772.205826	-2.983600	3.655500	-10.905000	24.872440	0.000987	20.809158
773.204164	-3.010300	3.655300	-11.003000	24.899596	0.000987	20.794214
774.205872	-2.983300	3.654600	-10.901000	24.908921	0.000988	20.793616
775.202989	-3.009700	3.654700	-10.998000	24.904173	0.000985	20.802601
776.204680	-3.017600	3.655100	-11.029000	24.916130	0.000986	20.816499
777.205240	-2.985600	3.655900	-10.913000	24.913768	0.000986	20.802748
778.206476	-2.996800	3.653500	-10.948000	24.927990	0.000987	20.805168
779.204265	-3.017900	3.652800	-11.023000	24.906179	0.000984	20.810778
780.204357	-3.015500	3.653900	-11.018000	24.908093	0.000983	20.827397
781.206145	-2.990300	3.652200	-10.921000	24.890570	0.000983	20.816449
782.207236	-3.000400	3.652800	-10.958000	24.874176	0.000982	20.813272
783.208838	-2.982300	3.652800	-10.892000	24.840345	0.000983	20.826733
784.211255	-2.998400	3.652400	-10.949000	24.861777	0.000983	20.812207
785.210883	-2.988300	3.653400	-10.917000	24.868489	0.000983	20.823685
786.211299	-3.004400	3.652000	-10.971000	24.859009	0.000982	20.808007
787.212058	-3.009300	3.651300	-10.987000	24.874876	0.000984	20.809706
788.220366	-3.012700	3.649500	-10.994000	24.902976	0.000982	20.826055
789.214761	-2.995600	3.650600	-10.934000	24.890736	0.000981	20.829417
790.213485	-3.016500	3.649400	-11.007000	24.906283	0.000983	20.814676
791.211921	-3.007500	3.650000	-10.977000	24.906675	0.000981	20.808906
792.211552	-2.988500	3.650700	-10.909000	24.900884	0.000982	20.813998
793.214466	-3.005000	3.648500	-10.962000	24.909240	0.000982	20.836609
794.216945	-3.012000	3.648300	-10.986000	24.914406	0.000981	20.823303
795.213346	-3.001400	3.647600	-10.947000	24.942652	0.000981	20.811350
796.215294	-3.008400	3.647600	-10.972000	24.944769	0.000980	20.836234
797.215413	-2.996100	3.647000	-10.925000	24.930174	0.000980	20.825378
798.215022	-2.979900	3.649200	-10.871000	24.930713	0.000980	20.806005
799.216966	-2.988800	3.648600	-10.903000	24.919535	0.000979	20.842675
800.215299	-2.997100	3.648500	-10.934000	24.907105	0.000981	20.835415
801.215925	-2.990600	3.648600	-10.909000	24.922020	0.000980	20.816720
802.219849	-3.014100	3.645100	-10.985000	24.954812	0.000978	20.828771
803.218658	-3.010500	3.646100	-10.975000	24.956947	0.000979	20.823327
804.220902	-3.001900	3.645600	-10.942000	24.988524	0.000978	20.827521
805.220873	-3.006200	3.645800	-10.958000	25.002100	0.000979	20.833087
806.220529	-2.994600	3.645600	-10.915000	24.998394	0.000978	20.842644
807.220064	-3.001500	3.645000	-10.939000	25.000112	0.000976	20.817342
808.220835	-3.018400	3.644600	-11.000000	25.024424	0.000977	20.829891
809.224875	-3.023700	3.644500	-11.019000	25.016474	0.000976	20.841825
810.221838	-2.991600	3.644300	-10.901000	25.042178	0.000976	20.844867
811.223953	-2.991200	3.645900	-10.904000	25.063906	0.000973	20.846763
812.222176	-2.982600	3.644400	-10.869000	25.051232	0.000978	20.833094
813.222034	-2.987600	3.644300	-10.886000	25.061127	0.000976	20.850138
814.222283	-2.995700	3.643200	-10.913000	25.064060	0.000977	20.845969
815.223523	-3.002000	3.642600	-10.934000	25.087383	0.000975	20.825760
816.222644	-2.998100	3.644000	-10.923000	25.074556	0.000975	20.842281
817.223750	-2.997400	3.641800	-10.915000	25.088100	0.000977	20.841179
818.224291	-2.995000	3.642500	-10.908000	25.073685	0.000974	20.839984
819.226815	-2.992200	3.641600	-10.894000	25.064311	0.000976	20.854756
820.229171	-2.992300	3.641700	-10.897000	25.067520	0.000974	20.850390
821.229163	-2.996900	3.641300	-10.911000	25.052300	0.000974	20.852182
822.225621	-2.989100	3.642100	-10.886000	25.065637	0.000972	20.864147
823.225754	-3.001100	3.641100	-10.927000	25.071452	0.000972	20.853863
824.226969	-2.991700	3.640600	-10.891000	25.048828	0.000973	20.861025
825.227527	-2.999900	3.639300	-10.917000	25.021830	0.000972	20.831080
826.225542	-2.988600	3.641100	-10.881000	25.008100	0.000971	20.863290
827.227010	-3.005700	3.640100	-10.940000	25.023995	0.000972	20.850797
828.226009	-2.981400	3.641200	-10.854000	25.036277	0.000972	20.853642
829.226125	-2.995200	3.640400	-10.902000	25.061729	0.000971	20.852164
830.226100	-2.979700	3.639400	-10.842000	25.065986	0.000972	20.838895
831.226291	-2.994100	3.638300	-10.892000	25.080010	0.000969	20.848704
832.229705	-3.006300	3.639000	-10.939000	25.114417	0.000971	20.863328
833.225365	-2.986400	3.639400	-10.867000	25.102136	0.000967	20.869492
834.226089	-2.997000	3.637800	-10.901000	25.098805	0.000970	20.861881
835.227596	-2.984800	3.639000	-10.860000	25.098210	0.000968	20.837103
836.228853	-2.980600	3.637300	-10.840000	25.082022	0.000968	20.859258
837.226783	-2.990300	3.637000	-10.873000	25.096051	0.000966	20.866702
838.231528	-3.008100	3.636100	-10.937000	25.085334	0.000969	20.842669
839.228602	-2.981600	3.636900	-10.842000	25.084739	0.000967	20.863408
840.227119	-2.989000	3.636900	-10.870000	25.097597	0.000967	20.873470
841.227526	-2.981900	3.636100	-10.842000	25.092181	0.000968	20.852387
842.230693	-3.002600	3.633800	-10.909000	25.080648	0.000966	20.874948
843.228579	-3.003700	3.635600	-10.919000	25.099143	0.000967	20.851315
844.230064	-3.004800	3.634900	-10.922000	25.108964	0.000965	20.863544
845.230588	-3.007700	3.633800	-10.928000	25.121944	0.000967	20.890323
846.234788	-3.007600	3.635100	-10.933000	25.136482	0.000965	20.876943
847.232673	-3.000100	3.635400	-10.905000	25.154062	0.000965	20.861876
848.229792	-3.028000	3.634000	-11.002000	25.174217	0.000963	20.863144
849.232996	-2.976300	3.635500	-10.818000	25.170029	0.000966	20.882645
850.231000	-2.998100	3.633600	-10.893000	25.190288	0.000964	20.885441
851.231938	-3.000300	3.634000	-10.902000	25.181517	0.000965	20.865731
852.234938	-2.999700	3.633700	-10.899000	25.166778	0.000963	20.860417
853.232988	-2.976200	3.633000	-10.811000	25.141843	0.000965	20.858145
854.233506	-3.007400	3.631600	-10.919000	25.137274	0.000964	20.881531
855.234103	-3.002100	3.631800	-10.902000	25.141678	0.000964	20.867461
856.234739	-3.017500	3.630500	-10.954000	25.147217	0.000960	20.873496
857.236957	-3.004200	3.631200	-10.907000	25.135409	0.000963	20.867806
858.239084	-2.991500	3.629900	-10.858000	25.116915	0.000962	20.867732
859.236030	-3.004500	3.630200	-10.906000	25.107597	0.000964	20.852690
860.235652	-2.991300	3.631200	-10.861000	25.082840	0.000961	20.842536
861.235079	-3.006300	3.629200	-10.910000	25.085226	0.000961	20.862948
862.235437	-3.021700	3.629000	-10.964000	25.105512	0.000963	20.842062
863.238234	-3.019400	3.629100	-10.957000	25.107125	0.000958	20.858853
864.236141	-2.989600	3.628200	-10.846000	25.096090	0.000959	20.848724
865.238290	-3.009300	3.627700	-10.914000	25.108769	0.000959	20.864297
866.235695	-2.991800	3.628200	-10.854000	25.102206	0.000959	20.842062
867.237050	-2.992900	3.628800	-10.860000	25.098059	0.000957	20.845012
868.240057	-3.010000	3.626400	-10.914000	25.103353	0.000961	20.838472
869.238817	-2.992800	3.627100	-10.854000	25.105641	0.000959	20.844562
870.237534	-3.007200	3.627200	-10.907000	25.089434	0.000957	20.869543
871.238516	-3.004500	3.628100	-10.899000	25.045960	0.000957	20.843922
872.237245	-2.993000	3.626600	-10.852000	25.039274	0.000957	20.850012
873.237092	-3.005500	3.626300	-10.897000	25.024980	0.000958	20.852260
874.241560	-3.009900	3.627600	-10.917000	25.016036	0.000957	20.837593
875.239183	-3.004600	3.626600	-10.895000	25.009987	0.000954	20.842900
876.241615	-3.006800	3.624100	-10.896000	25.006963	0.000955	20.826589
877.239473	-2.985400	3.625600	-10.822000	25.050372	0.000956	20.845505
878.239726	-2.989400	3.625200	-10.836000	25.072425	0.000953	20.835875
879.242644	-3.007300	3.622600	-10.893000	25.066781	0.000954	20.841589
880.241925	-2.996700	3.625000	-10.862000	25.109795	0.000954	20.849680
881.244745	-2.999700	3.625300	-10.874000	25.156506	0.000954	20.835407
882.240626	-3.002600	3.624600	-10.883000	25.145121	0.000955	20.824927
883.241277	-3.000000	3.623300	-10.869000	25.160879	0.000953	20.834582
884.240163	-2.995900	3.622900	-10.853000	25.144796	0.000953	20.817014
885.245559	-3.024600	3.623200	-10.958000	25.154144	0.000953	20.829718
886.242126	-2.981400	3.623500	-10.802000	25.144208	0.000953	20.830174
887.242553	-3.023500	3.621800	-10.949000	25.130762	0.000952	20.819521
888.244678	-2.999700	3.621800	-10.863000	25.087682	0.000950	20.821793
889.244627	-2.984700	3.621700	-10.809000	25.051913	0.000952	20.824293
890.248340	-3.015100	3.621200	-10.917000	25.060562	0.000951	20.805001
891.244838	-2.991000	3.622500	-10.834000	25.077745	0.000951	20.825094
892.248117	-3.011200	3.621300	-10.904000	25.078567	0.000950	20.813592
893.245744	-2.995200	3.621000	-10.845000	25.141810	0.000949	20.835353
894.247296	-3.006700	3.619200	-10.881000	25.161126	0.000948	20.813019
895.251767	-3.008300	3.618700	-10.884000	25.177957	0.000947	20.817114
896.252339	-2.990800	3.620600	-10.827000	25.209552	0.000948	20.827970
897.247892	-3.016700	3.618100	-10.913000	25.226603	0.000948	20.818062
898.249389	-3.005100	3.619800	-10.877000	25.237797	0.000948	20.802748
899.247499	-2.997000	3.618500	-10.844000	25.213208	0.000947	20.820735
900.247437	-3.015500	3.617400	-10.906000	25.171848	0.000948	20.826154
901.249814	-3.016300	3.618400	-10.913000	25.129021	0.000945	20.798333
902.249999	-2.988700	3.619100	-10.814000	25.120495	0.000948	20.812059
903.254178	-3.012800	3.617500	-10.897000	25.104055	0.000944	20.808358
904.252298	-2.991900	3.617400	-10.822000	25.109558	0.000947	20.811037
905.251990	-3.032600	3.616000	-10.965000	25.098676	0.000946	20.809122
906.254849	-2.993500	3.616000	-10.824000	25.057233	0.000944	20.797866
907.251522	-3.008000	3.615300	-10.874000	25.028695	0.000945	20.803359
908.253336	-3.002100	3.617200	-10.858000	25.047638	0.000944	20.783493
909.260253	-2.999200	3.617000	-10.846000	25.006567	0.000944	20.801536
910.252564	-3.002700	3.616000	-10.857000	25.021756	0.000944	20.790230
911.253397	-2.979400	3.617300	-10.775000	25.040952	0.000944	20.790532
912.256413	-2.996300	3.616500	-10.835000	25.053215	0.000943	20.784824
913.255245	-2.995800	3.613800	-10.825000	25.095726	0.000944	20.792885
914.256148	-2.996800	3.614100	-10.830000	25.082280	0.000944	20.803569
915.256658	-2.993300	3.614600	-10.819000	25.088396	0.000942	20.802122
916.256515	-3.010900	3.613200	-10.877000	25.116834	0.000939	20.796530
917.258683	-2.988900	3.615300	-10.805000	25.150995	0.000942	20.798107
918.255950	-3.012400	3.613600	-10.884000	25.182247	0.000939	20.808144
919.259037	-3.010800	3.613000	-10.877000	25.185571	0.000939	20.784455
920.255520	-3.002000	3.612700	-10.844000	25.198501	0.000939	20.787953
921.255524	-3.006100	3.611900	-10.856000	25.222238	0.000941	20.813680
922.259284	-3.014400	3.611700	-10.886000	25.237137	0.000940	20.793077
923.257387	-3.004300	3.611300	-10.848000	25.260572	0.000937	20.807122
924.256692	-2.994800	3.610700	-10.812000	25.284130	0.000940	20.805170
925.258171	-2.973700	3.611600	-10.739000	25.276556	0.000936	20.784763
926.258651	-2.980900	3.611800	-10.765000	25.268429	0.000936	20.814062
927.259058	-2.987000	3.611200	-10.785000	25.245687	0.000936	20.791229
928.262316	-3.027400	3.610900	-10.931000	25.240100	0.000937	20.795577
929.259524	-2.979400	3.610500	-10.755000	25.218676	0.000936	20.800146
930.260655	-3.014800	3.608900	-10.879000	25.191559	0.000935	20.796156
931.262557	-3.003700	3.608800	-10.838000	25.183058	0.000933	20.788095
932.261349	-2.994100	3.609300	-10.805000	25.156185	0.000934	20.786722
933.264582	-2.985300	3.609200	-10.774000	25.104401	0.000933	20.767454
934.260595	-3.000000	3.609800	-10.828000	25.125006	0.000933	20.778181
935.262626	-2.985800	3.610400	-10.778000	25.134410	0.000932	20.790940
936.262405	-2.969600	3.610900	-10.721000	25.175777	0.000932	20.776519
937.261134	-2.983700	3.607800	-10.764000	25.187014	0.000932	20.793490
938.263482	-2.993700	3.608700	-10.802000	25.200140	0.000932	20.791021
939.265075	-2.999700	3.607800	-10.821000	25.255753	0.000933	20.760558
940.261585	-3.003100	3.605900	-10.827000	25.292160	0.000931	20.780990
941.262974	-2.988900	3.606500	-10.777000	25.319833	0.000931	20.801188
942.260469	-2.980800	3.607600	-10.753000	25.349902	0.000930	20.790128
943.260851	-3.005600	3.605300	-10.834000	25.378088	0.000930	20.797093
944.264398	-2.979600	3.606700	-10.745000	25.404010	0.000930	20.765749
945.261219	-3.013600	3.604500	-10.862000	25.409953	0.000928	20.784045
946.267704	-3.018100	3.605600	-10.881000	25.424861	0.000929	20.790005
947.265337	-2.990200	3.605600	-10.781000	25.420593	0.000929	20.780030
948.265346	-3.000800	3.605200	-10.817000	25.434783	0.000928	20.800443
949.268406	-3.029000	3.603000	-10.912000	25.433961	0.000926	20.786342
950.265837	-3.013200	3.604100	-10.858000	25.394524	0.000927	20.769974
951.264730	-3.017700	3.603600	-10.874000	25.355582	0.000926	20.782081
952.265473	-2.971100	3.604700	-10.708000	25.331455	0.000926	20.788676
953.264867	-2.992500	3.603600	-10.783000	25.369748	0.000926	20.794409
954.265564	-3.000100	3.601900	-10.805000	25.394058	0.000926	20.761920
955.266906	-3.001900	3.601400	-10.810000	25.392519	0.000926	20.774125
956.267912	-2.995800	3.604400	-10.797000	25.416185	0.000925	20.770388
957.266114	-2.996100	3.601400	-10.790000	25.423488	0.000924	20.782937
958.267688	-3.006200	3.601000	-10.824000	25.419557	0.000924	20.789895
959.268396	-2.990100	3.602100	-10.770000	25.438458	0.000925	20.780900
960.270586	-2.985600	3.600300	-10.748000	25.441015	0.000921	20.740792
961.267755	-3.005600	3.599500	-10.817000	25.420067	0.000922	20.780924
962.270050	-3.009700	3.600400	-10.835000	25.379978	0.000921	20.761533
963.268953	-2.999000	3.599300	-10.794000	25.381843	0.000921	20.755818
964.268489	-2.995400	3.599000	-10.779000	25.375483	0.000923	20.773615
965.271776	-2.999500	3.600100	-10.797000	25.356417	0.000922	20.771065
966.272105	-3.000400	3.598700	-10.795000	25.380653	0.000920	20.779280
967.270926	-3.022900	3.598000	-10.875000	25.395844	0.000920	20.756601
968.270909	-3.018200	3.597600	-10.856000	25.400738	0.000920	20.756773
969.270832	-3.005800	3.598200	-10.813000	25.365279	0.000918	20.773800
970.270545	-3.007400	3.596100	-10.814000	25.368578	0.000918	20.758620
971.277349	-2.989100	3.597600	-10.753000	25.385456	0.000918	20.765610
972.269864	-3.022300	3.596000	-10.866000	25.349144	0.000916	20.741951
973.275342	-3.018900	3.596100	-10.855000	25.300731	0.000920	20.771577
974.272107	-2.995900	3.597200	-10.776000	25.265213	0.000916	20.752038
975.273392	-3.021700	3.594800	-10.861000	25.265857	0.000916	20.776393
976.273883	-2.999600	3.595600	-10.784000	25.265955	0.000916	20.757999
977.275203	-3.005200	3.595300	-10.803000	25.298897	0.000916	20.749347
978.279707	-2.976800	3.596400	-10.705000	25.298124	0.000915	20.752364
979.274848	-2.990000	3.594900	-10.747000	25.328862	0.000913	20.760942
980.274131	-2.976700	3.596300	-10.704000	25.341122	0.000915	20.753337
981.278122	-2.983100	3.594500	-10.722000	25.309010	0.000914	20.759501
982.274096	-2.996400	3.593800	-10.768000	25.338964	0.000913	20.737893
983.280432	-2.989000	3.595200	-10.745000	25.343441	0.000914	20.748079
984.277943	-2.987300	3.594800	-10.738000	25.359945	0.000914	20.751848
985.272908	-3.008700	3.592500	-10.807000	25.328152	0.000912	20.760703
986.278444	-2.998400	3.592900	-10.772000	25.306600	0.000911	20.760401
987.274481	-2.983200	3.593400	-10.719000	25.309440	0.000912	20.751398
988.275249	-3.023400	3.591100	-10.855000	25.291047	0.000910	20.741939
989.278210	-3.014200	3.591500	-10.824000	25.284957	0.000911	20.746730
990.275000	-2.993500	3.592700	-10.754000	25.295199	0.000909	20.734728
991.275681	-2.982500	3.592600	-10.714000	25.293727	0.000910	20.759329
992.275732	-3.007600	3.590400	-10.797000	25.300566	0.000908	20.742961
993.275987	-2.981500	3.592000	-10.709000	25.347397	0.000910	20.751577
994.281218	-3.007200	3.589800	-10.794000	25.358976	0.000907	20.753245
995.275542	-2.997200	3.589100	-10.756000	25.367402	0.000906	20.750801
996.288485	-3.005700	3.589600	-10.788000	25.360858	0.000907	20.741859
997.279142	-2.998700	3.588900	-10.762000	25.367255	0.000908	20.744015
998.279486	-2.972500	3.590200	-10.670000	25.394066	0.000906	20.739168
999.284177	-2.995900	3.589400	-10.752000	25.330041	0.000906	20.743158
1000.284857	-2.979500	3.588600	-10.691000	25.331310	0.000906	20.752494
1001.280905	-2.995800	3.590000	-10.754000	25.368641	0.000903	20.768166
1002.283176	-3.010900	3.587000	-10.799000	25.411335	0.000904	20.740861
1003.281299	-2.998900	3.585800	-10.752000	25.418971	0.000903	20.748054
1004.281257	-2.990200	3.587700	-10.727000	25.422773	0.000904	20.736224
1005.280143	-2.979000	3.587500	-10.686000	25.409422	0.000903	20.741785
1006.282627	-2.992200	3.586400	-10.731000	25.398261	0.000903	20.748596
1007.278916	-2.986700	3.587000	-10.712000	25.418492	0.000904	20.758953
1008.279729	-2.978200	3.588300	-10.685000	25.449307	0.000902	20.732523
1009.283526	-3.024600	3.583900	-10.838000	25.476626	0.000902	20.756164
1010.279890	-3.011800	3.585200	-10.797000	25.462853	0.000901	20.750868
1011.281247	-2.994800	3.584300	-10.733000	25.434050	0.000901	20.722417
1012.285942	-2.983200	3.584700	-10.693000	25.431560	0.000900	20.752161
1013.280799	-2.999300	3.584700	-10.751000	25.413329	0.000900	20.744760
1014.286279	-2.976100	3.585000	-10.668000	25.414714	0.000901	20.749470
1015.285035	-2.975700	3.583900	-10.664000	25.431069	0.000897	20.721795
1016.280509	-3.000300	3.584500	-10.754000	25.424214	0.000896	20.752845
1017.283876	-3.009300	3.581900	-10.778000	25.441636	0.000898	20.716284
1018.284455	-2.996000	3.581900	-10.730000	25.424263	0.000897	20.736298
1019.281325	-2.992300	3.583200	-10.721000	25.433731	0.000896	20.733478
1020.285953	-3.014800	3.582000	-10.798000	25.426243	0.000898	20.727855
1021.286306	-3.000500	3.580800	-10.743000	25.493697	0.000893	20.733952
1022.284122	-2.983300	3.581300	-10.683000	25.503085	0.000894	20.732948
1023.284976	-3.006900	3.580200	-10.765000	25.469813	0.000895	20.736994
1024.288037	-2.990300	3.581200	-10.708000	25.437981	0.000894	20.737745
1025.285555	-3.007300	3.580000	-10.764000	25.396575	0.000893	20.728409
1026.286643	-2.993900	3.581300	-10.721000	25.383482	0.000891	20.731384
1027.295446	-2.992700	3.580600	-10.714000	25.386787	0.000891	20.729013
1028.290855	-2.993400	3.581300	-10.720000	25.372425	0.000892	20.730713
1029.286557	-2.992400	3.580200	-10.713000	25.394164	0.000890	20.742111
1030.288906	-3.017200	3.578300	-10.796000	25.392258	0.000890	20.729765
1031.287049	-2.993200	3.579700	-10.713000	25.378263	0.000889	20.735153
1032.285646	-2.989300	3.580100	-10.700000	25.381887	0.000888	20.740215
1033.292366	-2.980800	3.578300	-10.666000	25.363061	0.000888	20.740751
1034.291797	-3.007700	3.577300	-10.758000	25.345232	0.000888	20.712417
1035.288584	-2.989500	3.578800	-10.698000	25.394545	0.000887	20.720207
1036.294217	-2.996300	3.577700	-10.719000	25.393846	0.000890	20.720928
1037.301217	-3.010500	3.576000	-10.765000	25.428942	0.000886	20.717288
1038.289213	-2.982100	3.577000	-10.666000	25.482918	0.000887	20.714591
1039.299197	-3.004100	3.576300	-10.743000	25.475590	0.000887	20.732364
1040.291592	-2.985600	3.576400	-10.675000	25.487100	0.000885	20.730172
1041.291491	-3.004300	3.576500	-10.744000	25.520568	0.000884	20.711623
1042.294918	-2.992600	3.576700	-10.702000	25.528202	0.000885	20.740154
1043.294256	-3.007900	3.576000	-10.755000	25.562889	0.000883	20.733263
1044.293893	-3.021800	3.574300	-10.799000	25.553894	0.000883	20.711426
1045.299988	-3.021800	3.572400	-10.794000	25.519673	0.000882	20.694601
1046.294049	-2.991600	3.576200	-10.697000	25.508593	0.000884	20.711925
1047.294441	-2.998600	3.573300	-10.713000	25.486873	0.000882	20.709554
1048.295206	-3.019200	3.573900	-10.788000	25.441722	0.000881	20.715423
1049.291691	-2.986900	3.573800	-10.674000	25.453895	0.000881	20.742820
1050.296479	-3.011600	3.571600	-10.754000	25.480350	0.000883	20.719599
1051.293314	-3.010900	3.573100	-10.757000	25.482532	0.000881	20.705194
1052.295672	-3.011600	3.572100	-10.757000	25.528797	0.000880	20.711352
1053.294218	-2.979800	3.572000	-10.643000	25.559983	0.000878	20.718015
1054.295564	-3.005500	3.572100	-10.734000	25.567065	0.000879	20.706635
1055.296822	-3.004200	3.571000	-10.727000	25.591762	0.000878	20.701092
1056.293169	-3.003100	3.570700	-10.722000	25.554342	0.000876	20.709030
1057.296835	-3.011500	3.571200	-10.753000	25.538314	0.000877	20.712374
1058.297426	-3.002400	3.572100	-10.724000	25.531378	0.000876	20.721057
1059.298572	-3.011200	3.569900	-10.748000	25.567285	0.000877	20.683621
1060.296274	-3.012300	3.569300	-10.751000	25.553324	0.000876	20.711327
1061.297536	-3.010600	3.569600	-10.745000	25.512321	0.000874	20.720885
1062.295633	-2.995300	3.570600	-10.694000	25.472254	0.000874	20.700562
1063.301294	-3.002500	3.568700	-10.713000	25.455605	0.000875	20.709923
1064.300381	-3.018200	3.566800	-10.763000	25.494428	0.000872	20.712873
1065.299576	-3.026000	3.567900	-10.794000	25.475468	0.000872	20.698099
1066.303729	-2.946900	3.568700	-10.516000	25.456035	0.000874	20.711777
1067.302676	-2.992300	3.568000	-10.675000	25.409344	0.000873	20.687649
1068.303117	-3.006200	3.566600	-10.720000	25.372498	0.000871	20.699016
1069.304135	-3.007100	3.566900	-10.726000	25.396539	0.000870	20.692809
1070.304369	-3.004400	3.566600	-10.714000	25.433468	0.000872	20.711401
1071.305189	-3.000000	3.566600	-10.698000	25.399967	0.000870	20.696726
1072.305154	-2.992800	3.565400	-10.669000	25.456556	0.000866	20.708033
1073.311006	-2.996300	3.566500	-10.685000	25.500688	0.000870	20.684544
1074.306908	-3.001100	3.565000	-10.698000	25.532721	0.000869	20.701542
1075.307146	-2.987200	3.565300	-10.649000	25.499499	0.000869	20.709431
1076.307304	-3.026200	3.563300	-10.782000	25.487720	0.000868	20.699023
1077.309134	-2.998400	3.565600	-10.690000	25.473677	0.000866	20.692033
1078.309882	-3.002100	3.562700	-10.695000	25.485359	0.000867	20.693807
1079.304308	-2.988100	3.564300	-10.649000	25.517336	0.000864	20.687038
1080.311775	-2.994400	3.562500	-10.667000	25.517165	0.000864	20.685444
1081.307480	-2.980500	3.563100	-10.618000	25.543182	0.000866	20.696399
1082.309039	-3.009700	3.561000	-10.717000	25.547627	0.000863	20.691854
1083.305807	-3.005100	3.562000	-10.704000	25.545610	0.000864	20.693621
1084.310018	-2.997300	3.562300	-10.676000	25.557462	0.000864	20.687980
1085.305231	-3.006800	3.561200	-10.707000	25.524713	0.000863	20.717682
1086.305641	-3.000100	3.563000	-10.688000	25.544260	0.000862	20.689895
1087.307117	-2.998200	3.562100	-10.679000	25.552643	0.000861	20.694521
1088.306322	-2.999300	3.561500	-10.681000	25.545309	0.000863	20.708494
1089.309449	-2.993400	3.560300	-10.656000	25.571381	0.000862	20.689631
1090.305778	-3.004200	3.559000	-10.691000	25.570032	0.000861	20.701553
1091.307395	-2.988400	3.558900	-10.634000	25.530029	0.000860	20.694096
1092.307025	-2.991100	3.560400	-10.649000	25.485174	0.000859	20.702157
1093.309268	-3.009300	3.558500	-10.708000	25.467875	0.000857	20.688103
1094.308848	-2.993900	3.558500	-10.653000	25.441709	0.000858	20.709719
1095.312393	-2.998600	3.558000	-10.668000	25.450055	0.000857	20.694865
1096.310644	-3.005700	3.557700	-10.691000	25.434326	0.000857	20.681440
1097.315382	-2.996000	3.559000	-10.662000	25.426753	0.000857	20.696596
1098.309334	-3.020000	3.556000	-10.738000	25.470040	0.000857	20.697390
1099.310110	-3.004500	3.556900	-10.686000	25.484352	0.000854	20.696115
1100.313168	-2.972900	3.558000	-10.576000	25.518624	0.000855	20.693073
1101.312601	-2.996100	3.556900	-10.655000	25.563023	0.000853	20.676969
1102.312984	-3.007700	3.556300	-10.695000	25.587059	0.000853	20.688307
1103.315061	-3.021900	3.555900	-10.744000	25.601027	0.000851	20.680049
1104.311353	-3.003700	3.556100	-10.681000	25.598274	0.000853	20.681077
1105.314573	-3.027100	3.553600	-10.755000	25.600726	0.000851	20.689705
1106.320297	-3.003300	3.555300	-10.677000	25.644926	0.000851	20.687629
1107.314324	-2.989500	3.554900	-10.627000	25.662400	0.000851	20.693326
1108.313818	-2.990900	3.554500	-10.630000	25.700737	0.000851	20.697218
1109.315082	-2.996400	3.553200	-10.645000	25.702845	0.000850	20.705975
1110.316253	-2.991200	3.553700	-10.629000	25.689162	0.000849	20.695075
1111.321145	-3.005200	3.554100	-10.680000	25.681731	0.000847	20.702785
1112.315645	-3.000400	3.552200	-10.657000	25.665233	0.000848	20.697594
1113.317596	-2.987500	3.552300	-10.611000	25.711699	0.000848	20.690684
1114.320583	-2.989900	3.553300	-10.624000	25.716052	0.000847	20.692212
1115.314562	-3.026300	3.550900	-10.745000	25.739274	0.000847	20.714591
1116.320837	-2.985100	3.553000	-10.605000	25.731029	0.000847	20.712473
1117.318694	-3.002800	3.550800	-10.661000	25.716640	0.000846	20.695648
1118.319163	-3.000100	3.550500	-10.651000	25.729343	0.000846	20.694657
1119.321215	-2.989800	3.551300	-10.617000	25.713189	0.000848	20.703561
1120.318630	-3.003700	3.549400	-10.661000	25.688843	0.000845	20.706610
1121.317398	-2.994500	3.550900	-10.631000	25.650929	0.000845	20.700772
1122.322169	-2.996300	3.549800	-10.635000	25.631892	0.000844	20.691608
1123.321272	-2.977800	3.548900	-10.567000	25.666355	0.000844	20.693979
1124.319074	-2.991700	3.550100	-10.620000	25.698781	0.000843	20.690038
1125.323777	-3.009800	3.547700	-10.676000	25.682927	0.000841	20.700667
1126.321552	-3.009500	3.547800	-10.676000	25.740127	0.000841	20.688418
1127.320141	-3.022800	3.548000	-10.723000	25.724053	0.000841	20.704991
1128.326562	-3.007300	3.547700	-10.668000	25.759401	0.000839	20.689286
1129.325274	-2.993400	3.548400	-10.621000	25.738134	0.000840	20.693530
1130.328499	-2.984900	3.547300	-10.587000	25.684724	0.000841	20.725233
1131.321415	-2.988900	3.546600	-10.599000	25.673786	0.000836	20.706659
1132.324389	-2.970300	3.547200	-10.535000	25.629360	0.000839	20.703765
1133.321980	-3.003700	3.544900	-10.646000	25.600561	0.000839	20.700920
1134.320303	-3.011600	3.545600	-10.677000	25.626950	0.000836	20.701345
1135.326388	-3.013200	3.544800	-10.680000	25.657067	0.000836	20.680856
1136.322701	-3.017000	3.544900	-10.693000	25.640788	0.000834	20.684896
1137.319506	-3.009400	3.545200	-10.667000	25.627178	0.000835	20.711057
1138.321008	-3.008600	3.543600	-10.661000	25.598704	0.000834	20.695735
1139.325186	-2.994100	3.545200	-10.614000	25.560192	0.000834	20.704474
1140.324952	-3.018100	3.543800	-10.694000	25.563025	0.000833	20.720596
1141.323174	-3.003100	3.542800	-10.638000	25.503160	0.000831	20.698882
1142.324289	-3.012000	3.541500	-10.666000	25.497691	0.000834	20.696708
1143.326523	-2.989200	3.542400	-10.588000	25.506368	0.000831	20.697835
1144.323692	-3.007200	3.542000	-10.650000	25.531202	0.000831	20.693377
1145.325451	-3.005400	3.543100	-10.648000	25.559702	0.000831	20.695920
1146.322874	-2.980900	3.542800	-10.560000	25.551057	0.000830	20.708576
1147.327440	-3.012000	3.540800	-10.665000	25.578017	0.000830	20.693451
1148.329770	-3.006700	3.540000	-10.642000	25.567176	0.000829	20.684933
1149.326508	-3.007400	3.538900	-10.641000	25.532661	0.000828	20.695791
1150.324450	-3.018000	3.540500	-10.682000	25.527302	0.000828	20.675709
1151.329274	-2.987200	3.541000	-10.577000	25.507595	0.000829	20.693851
1152.326780	-2.998900	3.539100	-10.612000	25.548923	0.000828	20.719236
1153.326458	-2.990500	3.539400	-10.584000	25.534434	0.000827	20.722703
1154.330261	-3.003700	3.539800	-10.632000	25.561971	0.000824	20.707209
1155.328414	-3.033600	3.537700	-10.731000	25.548181	0.000826	20.706637
1156.328457	-2.989400	3.538400	-10.577000	25.577576	0.000825	20.688740
1157.329585	-2.989100	3.538400	-10.576000	25.609159	0.000822	20.704339
1158.328427	-3.002600	3.537400	-10.619000	25.615524	0.000824	20.710258
1159.326791	-2.998000	3.536400	-10.601000	25.594254	0.000824	20.696482
1160.336632	-2.978400	3.538300	-10.538000	25.534391	0.000821	20.707012
1161.331072	-3.010200	3.537100	-10.647000	25.556851	0.000823	20.721983
1162.333059	-2.994400	3.537300	-10.591000	25.593936	0.000823	20.704697
1163.332416	-3.015400	3.536500	-10.662000	25.579478	0.000822	20.707247
1164.330321	-2.993000	3.535200	-10.580000	25.580961	0.000822	20.703521
1165.330576	-3.007400	3.536600	-10.635000	25.596265	0.000822	20.720788
1166.334023	-3.008400	3.534500	-10.632000	25.562009	0.000822	20.725266
1167.330022	-3.017700	3.533300	-10.662000	25.606064	0.000820	20.728259
1168.331524	-3.024500	3.533200	-10.685000	25.613201	0.000819	20.719305
1169.334875	-2.986600	3.534800	-10.556000	25.601391	0.000819	20.717402
1170.337701	-2.990600	3.534000	-10.567000	25.661250	0.000817	20.705923
1171.339051	-3.004900	3.533200	-10.616000	25.677228	0.000817	20.714859
1172.334148	-2.994100	3.534500	-10.581000	25.678938	0.000818	20.716577
1173.335658	-3.005900	3.533000	-10.619000	25.693597	0.000817	20.720869
1174.334150	-3.010200	3.532600	-10.633000	25.730768	0.000817	20.725013
1175.335520	-3.015200	3.530600	-10.644000	25.739517	0.000815	20.713886
1176.336705	-2.985100	3.530900	-10.538000	25.730547	0.000816	20.712463
1177.335096	-3.022800	3.530000	-10.670000	25.723816	0.000814	20.714237
1178.333466	-3.011400	3.529400	-10.627000	25.679858	0.000813	20.723665
1179.338873	-2.995100	3.530000	-10.572000	25.654194	0.000815	20.703577
1180.335872	-3.004900	3.530600	-10.608000	25.691317	0.000813	20.731855
1181.338828	-2.966600	3.532100	-10.475000	25.678981	0.000812	20.718516
1182.344594	-3.015800	3.528300	-10.640000	25.662912	0.000812	20.725136
1183.336561	-2.994500	3.529100	-10.565000	25.643084	0.000810	20.711859
1184.336429	-3.021800	3.529200	-10.663000	25.646658	0.000810	20.743426
1185.339997	-3.002800	3.528200	-10.593000	25.651778	0.000811	20.734817
1186.337850	-2.993300	3.527800	-10.558000	25.650263	0.000810	20.721441
1187.339138	-3.000900	3.526800	-10.582000	25.670864	0.000809	20.714156
1188.341139	-3.007800	3.526100	-10.605000	25.660269	0.000809	20.719162
1189.343704	-3.002500	3.527200	-10.590000	25.661366	0.000808	20.712678
1190.340632	-2.987900	3.526400	-10.536000	25.682880	0.000808	20.713897
1191.340048	-3.003300	3.525000	-10.586000	25.703749	0.000806	20.729169
1192.346512	-2.994200	3.526200	-10.556000	25.698881	0.000807	20.731393
1193.343950	-3.024200	3.524400	-10.658000	25.716795	0.000807	20.728523
1194.343636	-3.003000	3.525200	-10.584000	25.737836	0.000806	20.706981
1195.347843	-2.988400	3.526300	-10.537000	25.773141	0.000805	20.731540
1196.345119	-3.004300	3.525300	-10.590000	25.770757	0.000806	20.726774
1197.344810	-3.002900	3.524400	-10.583000	25.776788	0.000805	20.742791
1198.343105	-2.985800	3.522500	-10.517000	25.817156	0.000804	20.735924
1199.343144	-2.984700	3.523300	-10.515000	25.837275	0.000801	20.726736
1200.343744	-3.012400	3.521200	-10.606000	25.822894	0.000802	20.732679
1201.342536	-2.987500	3.523600	-10.525000	25.831789	0.000802	20.728812
1202.346913	-3.020000	3.521100	-10.633000	25.845924	0.000802	20.714561
1203.345912	-3.011000	3.520000	-10.598000	25.835540	0.000802	20.728313
1204.346538	-3.008800	3.520300	-10.590000	25.825321	0.000799	20.746971
1205.349624	-3.022900	3.519600	-10.638000	25.810125	0.000800	20.735499
1206.344532	-3.000600	3.521000	-10.563000	25.848449	0.000800	20.731798
1207.345453	-2.997600	3.520900	-10.553000	25.858330	0.000798	20.742673
1208.348811	-3.011700	3.518900	-10.597000	25.886724	0.000797	20.760291
1209.347088	-2.993600	3.521000	-10.539000	25.918721	0.000797	20.739803
1210.345386	-2.991400	3.519000	-10.526000	25.871399	0.000798	20.739680
1211.349067	-3.019400	3.518700	-10.623000	25.837090	0.000794	20.732715
1212.346871	-3.005100	3.517700	-10.570000	25.799653	0.000796	20.736361
1213.346310	-3.004300	3.518200	-10.569000	25.782280	0.000795	20.750678
1214.346354	-3.001100	3.517000	-10.554000	25.762178	0.000794	20.746133
1215.349169	-3.018400	3.516100	-10.611000	25.751695	0.000794	20.758363
1216.347384	-3.012900	3.516100	-10.592000	25.786105	0.000794	20.736502
1217.350254	-3.004000	3.517700	-10.565000	25.769154	0.000794	20.736070
1218.354317	-3.017000	3.514300	-10.601000	25.745331	0.000793	20.750074
1219.351354	-3.007600	3.515700	-10.572000	25.749303	0.000793	20.742210
1220.347715	-3.010800	3.514700	-10.580000	25.706370	0.000794	20.742709
1221.345259	-3.005800	3.514900	-10.565000	25.723082	0.000791	20.752856
1222.352631	-3.030300	3.514900	-10.650000	25.749597	0.000792	20.756256
1223.347195	-3.004600	3.514400	-10.559000	25.758266	0.000791	20.753109
1224.347512	-3.012200	3.513800	-10.583000	25.787508	0.000791	20.751188
1225.350341	-3.002100	3.513900	-10.548000	25.832528	0.000791	20.752789
1226.350986	-2.977700	3.513600	-10.462000	25.835599	0.000791	20.750658
1227.350126	-2.999300	3.512400	-10.533000	25.857262	0.000789	20.734013
1228.348678	-2.993500	3.511400	-10.510000	25.838179	0.000787	20.754673
1229.353008	-3.022700	3.511100	-10.612000	25.846780	0.000787	20.749562
1230.353472	-2.999600	3.511200	-10.529000	25.824987	0.000787	20.778880
1231.353918	-2.998500	3.512200	-10.530000	25.849392	0.000787	20.748392
1232.351332	-3.010500	3.511200	-10.569000	25.862374	0.000785	20.767124
1233.352151	-3.028500	3.510900	-10.632000	25.846081	0.000787	20.746963
1234.353606	-2.991100	3.510600	-10.500000	25.803771	0.000786	20.767525
1235.356074	-3.017200	3.508000	-10.584000	25.805561	0.000785	20.752253
1236.350882	-2.991500	3.509200	-10.496000	25.819464	0.000784	20.751519
1237.350248	-2.982000	3.510200	-10.466000	25.841906	0.000784	20.743718
1238.351256	-3.020200	3.509300	-10.598000	25.864102	0.000784	20.773602
1239.349833	-2.999100	3.508600	-10.522000	25.869000	0.000784	20.770936
1240.351741	-2.999600	3.509100	-10.525000	25.862595	0.000784	20.755491
1241.356565	-2.990500	3.508900	-10.493000	25.851137	0.000782	20.765794
1242.354954	-2.986800	3.508200	-10.476000	25.839840	0.000783	20.768196
1243.352999	-3.014400	3.507200	-10.571000	25.861203	0.000780	20.764525
1244.353392	-3.003000	3.505700	-10.527000	25.849476	0.000780	20.766496
1245.353357	-3.011700	3.506300	-10.559000	25.890963	0.000782	20.756489
1246.353565	-2.981400	3.507700	-10.455000	25.920324	0.000781	20.774606
1247.359768	-3.010100	3.505700	-10.552000	25.917321	0.000777	20.769218
1248.354840	-2.989000	3.505700	-10.478000	25.950837	0.000778	20.760215
1249.354523	-3.006000	3.506400	-10.540000	25.971020	0.000780	20.778596
1250.362488	-3.001400	3.503800	-10.515000	25.947227	0.000777	20.760381
1251.355986	-3.001800	3.504300	-10.517000	25.904731	0.000777	20.776484
1252.357026	-2.991000	3.504600	-10.480000	25.859469	0.000777	20.764205
1253.356412	-3.029100	3.503400	-10.611000	25.800516	0.000776	20.797920
1254.362196	-2.979900	3.504700	-10.442000	25.779593	0.000775	20.782119
1255.362865	-3.002100	3.502500	-10.514000	25.735178	0.000774	20.763109
1256.355822	-2.996200	3.503200	-10.495000	25.707105	0.000772	20.782803
1257.356315	-2.999400	3.502800	-10.505000	25.724198	0.000774	20.769625
1258.357309	-3.019800	3.501800	-10.573000	25.739751	0.000775	20.759168
1259.359518	-2.991300	3.503100	-10.478000	25.774389	0.000772	20.769779
1260.355600	-2.996600	3.501900	-10.492000	25.788354	0.000772	20.757728
1261.356741	-2.999700	3.500500	-10.499000	25.811630	0.000771	20.792015
1262.354646	-2.997900	3.500700	-10.493000	25.804029	0.000771	20.782009
1263.360506	-3.007000	3.498300	-10.519000	25.767805	0.000769	20.768381
1264.357540	-3.025000	3.497100	-10.577000	25.790868	0.000768	20.770685
1265.355973	-3.000700	3.500200	-10.502000	25.809228	0.000770	20.792447
1266.359821	-2.986400	3.498400	-10.447000	25.834496	0.000770	20.759982
1267.361575	-3.017800	3.498200	-10.556000	25.849080	0.000770	20.774158
1268.362285	-2.992600	3.497600	-10.466000	25.880281	0.000767	20.781320
1269.359591	-3.009100	3.497800	-10.524000	25.860212	0.000769	20.758788
1270.357051	-3.002000	3.497700	-10.499000	25.847339	0.000766	20.787582
1271.364971	-2.996300	3.496700	-10.476000	25.850097	0.000766	20.782767
1272.356366	-3.006100	3.496800	-10.510000	25.841258	0.000765	20.797121
1273.359692	-3.007300	3.496700	-10.514000	25.799077	0.000764	20.772767
1274.358737	-2.988600	3.496700	-10.449000	25.840713	0.000765	20.777607
1275.361426	-3.010700	3.495900	-10.524000	25.893349	0.000763	20.765525
1276.360283	-3.023600	3.494000	-10.564000	25.914687	0.000764	20.789331
1277.359422	-2.986100	3.495400	-10.435000	25.936030	0.000765	20.775211
1278.357395	-3.023400	3.493700	-10.560000	25.889102	0.000763	20.798242
1279.361337	-2.992800	3.494900	-10.459000	25.846555	0.000763	20.788691
1280.358247	-3.022800	3.492600	-10.556000	25.826479	0.000762	20.787016
1281.357660	-3.019100	3.493600	-10.547000	25.799077	0.000758	20.797897
1282.360606	-3.008500	3.492800	-10.507000	25.808266	0.000760	20.792429
1283.358786	-2.999000	3.492300	-10.472000	25.809486	0.000759	20.801241
1284.358224	-2.989400	3.491700	-10.437000	25.798133	0.000757	20.805484
1285.360034	-2.992900	3.490100	-10.445000	25.773807	0.000760	20.788635
1286.358517	-2.978500	3.491500	-10.398000	25.778412	0.000761	20.812227
1287.358113	-3.000600	3.490600	-10.472000	25.805367	0.000758	20.803267
1288.361415	-2.992400	3.491700	-10.448000	25.824542	0.000758	20.793131
1289.359783	-2.997700	3.489200	-10.459000	25.853261	0.000757	20.799221
1290.357539	-3.012500	3.488800	-10.508000	25.850729	0.000756	20.784824
1291.360697	-3.004400	3.489300	-10.482000	25.888293	0.000755	20.800749
1292.361547	-2.998100	3.487700	-10.454000	25.846555	0.000756	20.797226
1293.359394	-3.001200	3.488000	-10.467000	25.821992	0.000754	20.799105
1294.361493	-3.007600	3.486500	-10.484000	25.852023	0.000754	20.806986
1295.360402	-3.003600	3.489100	-10.479000	25.864620	0.000755	20.797356
1296.361619	-3.034700	3.486400	-10.579000	25.888073	0.000753	20.806217
1297.363530	-3.011300	3.484800	-10.493000	25.932065	0.000752	20.794462
1298.360743	-3.014600	3.485500	-10.505000	25.928111	0.000752	20.790489
1299.362304	-3.009500	3.485500	-10.488000	25.938477	0.000755	20.832671
1300.360569	-3.006100	3.485800	-10.478000	25.923367	0.000751	20.815595
1301.363705	-3.022100	3.484800	-10.530000	25.925328	0.000753	20.804763
1302.361667	-3.008100	3.484100	-10.479000	25.954223	0.000749	20.802498
1303.363969	-3.008400	3.483400	-10.478000	25.934376	0.000751	20.811482
1304.364858	-2.985900	3.484500	-10.402000	25.915392	0.000752	20.811851
1305.365362	-3.011500	3.484000	-10.491000	25.920591	0.000748	20.810909
1306.359891	-3.003700	3.482100	-10.459000	25.907001	0.000750	20.810534
1307.364024	-3.006800	3.481700	-10.468000	25.917060	0.000751	20.816371
1308.361182	-2.977500	3.483300	-10.369000	25.920137	0.000751	20.829419
1309.363704	-3.004000	3.481900	-10.458000	25.927468	0.000748	20.816396
1310.364112	-3.016100	3.480700	-10.497000	25.949902	0.000746	20.831347
1311.363936	-2.994000	3.481500	-10.422000	25.948933	0.000746	20.825158
1312.363268	-2.992400	3.481900	-10.418000	25.933523	0.000747	20.830065
1313.363844	-2.998500	3.479700	-10.433000	25.921357	0.000746	20.814524
1314.360133	-3.008400	3.479700	-10.467000	25.874378	0.000745	20.824228
1315.360974	-2.987800	3.479100	-10.394000	25.855278	0.000744	20.817843
1316.374301	-3.002000	3.478800	-10.442000	25.875592	0.000745	20.814542
1317.363804	-2.971100	3.480100	-10.338000	25.887147	0.000744	20.829942
1318.364980	-3.004400	3.477300	-10.446000	25.970434	0.000744	20.829690
1319.362288	-2.994500	3.478400	-10.415000	25.964973	0.000744	20.815669
1320.367198	-2.979300	3.479100	-10.363000	26.006627	0.000742	20.802516
1321.364748	-2.974000	3.478900	-10.345000	26.005414	0.000742	20.822159
1322.364126	-2.996300	3.477600	-10.419000	26.008711	0.000744	20.828316
1323.367776	-3.025100	3.475200	-10.511000	26.005732	0.000741	20.832436
1324.367270	-3.001900	3.475200	-10.431000	25.993983	0.000741	20.822528
1325.363833	-2.986100	3.477800	-10.384000	25.959604	0.000741	20.833981
1326.368433	-2.992800	3.476600	-10.404000	25.943631	0.000738	20.811296
1327.366561	-2.978500	3.477000	-10.355000	25.900705	0.000739	20.818433
1328.368812	-2.990100	3.475400	-10.391000	25.901447	0.000737	20.842411
1329.367776	-3.007300	3.475400	-10.451000	25.912026	0.000738	20.834547
1330.367593	-3.003300	3.473400	-10.430000	25.906338	0.000737	20.847799
1331.370318	-2.995900	3.473200	-10.404000	25.940418	0.000737	20.832250
1332.370229	-2.998500	3.472900	-10.412000	25.952168	0.000737	20.851167
1333.368278	-3.013200	3.472800	-10.463000	25.990715	0.000736	20.818771
1334.367536	-3.002400	3.473100	-10.426000	26.021097	0.000736	20.811364
1335.369417	-2.991200	3.471700	-10.383000	26.037112	0.000734	20.846893
1336.375427	-2.985100	3.471500	-10.362000	25.978052	0.000733	20.838291
1337.370197	-3.001400	3.471600	-10.418000	25.965751	0.000734	20.818820
1338.369167	-3.027700	3.470300	-10.506000	25.960535	0.000734	20.830649
1339.375040	-2.998100	3.470300	-10.403000	25.956416	0.000733	20.840736
1340.371161	-2.995100	3.470600	-10.394000	25.987037	0.000732	20.843051
1341.373845	-2.975700	3.469500	-10.323000	26.019681	0.000734	20.851665
1342.374609	-3.015900	3.467900	-10.458000	26.037510	0.000733	20.848241
1343.372676	-3.012800	3.467000	-10.444000	26.002514	0.000732	20.854331
1344.374228	-3.040500	3.466900	-10.540000	26.025908	0.000730	20.836585
1345.373367	-2.996000	3.468200	-10.391000	26.005590	0.000730	20.846043
1346.371931	-2.999400	3.467200	-10.398000	26.003954	0.000731	20.867157
1347.375630	-3.004900	3.466800	-10.417000	26.023769	0.000730	20.861461
1348.376867	-2.981600	3.467300	-10.337000	26.027348	0.000729	20.848463
1349.376435	-3.007900	3.466300	-10.425000	26.033410	0.000729	20.853130
1350.376904	-2.989000	3.468100	-10.366000	26.030002	0.000729	20.857293
1351.375331	-3.005400	3.466400	-10.417000	26.065567	0.000727	20.855094
1352.382541	-2.998000	3.464800	-10.387000	26.046397	0.000726	20.856221
1353.377781	-2.980400	3.466200	-10.329000	26.002825	0.000728	20.863179
1354.379749	-2.997900	3.464700	-10.386000	25.992387	0.000725	20.850796
1355.375967	-2.977300	3.465500	-10.317000	25.976194	0.000727	20.858234
1356.376790	-3.003600	3.463300	-10.401000	25.952939	0.000726	20.867113
1357.377681	-3.002400	3.463600	-10.397000	25.964892	0.000728	20.863948
1358.376685	-3.008600	3.463700	-10.420000	25.980288	0.000725	20.855235
1359.377584	-3.008100	3.461600	-10.412000	25.973080	0.000726	20.850364
1360.375605	-2.990200	3.463200	-10.355000	25.953754	0.000723	20.845648
1361.376774	-2.999600	3.462100	-10.384000	25.949003	0.000725	20.851780
1362.378469	-2.976200	3.462900	-10.305000	25.969769	0.000723	20.876909
1363.380168	-2.982500	3.460700	-10.320000	25.986753	0.000721	20.873583
1364.377410	-2.986700	3.461200	-10.336000	25.984424	0.000721	20.850856
1365.379786	-3.002200	3.460200	-10.387000	26.009927	0.000721	20.853719
1366.376381	-2.996100	3.460000	-10.365000	26.004687	0.000720	20.867420
1367.378264	-2.981300	3.458900	-10.311000	25.989529	0.000722	20.854088
1368.381074	-3.009500	3.458800	-10.409000	26.002695	0.000718	20.848824
1369.379349	-3.001200	3.457900	-10.377000	26.003240	0.000720	20.855061
1370.379049	-2.995600	3.458200	-10.359000	26.033818	0.000720	20.862075
1371.382417	-2.985600	3.457100	-10.321000	26.036171	0.000716	20.872973
1372.381380	-2.991700	3.458500	-10.347000	26.001971	0.000718	20.859950
1373.386245	-2.988600	3.457700	-10.333000	25.984859	0.000716	20.854612
1374.386283	-2.977400	3.456600	-10.291000	25.949278	0.000716	20.860590
1375.382502	-2.989100	3.457500	-10.334000	25.942450	0.000716	20.861317
1376.380176	-2.990700	3.455800	-10.334000	25.926715	0.000716	20.853096
1377.384689	-3.005500	3.455000	-10.383000	25.921278	0.000716	20.850953
1378.380281	-2.997800	3.456400	-10.360000	25.910048	0.000715	20.853422
1379.384861	-2.997600	3.454600	-10.355000	25.962633	0.000717	20.843662
1380.381313	-3.007600	3.455100	-10.390000	26.003766	0.000714	20.846581
1381.382697	-2.997500	3.454500	-10.354000	26.029495	0.000712	20.843034
1382.386836	-2.998000	3.453900	-10.354000	26.044199	0.000713	20.871081
1383.383759	-3.006100	3.455300	-10.385000	26.058870	0.000711	20.850263
1384.385576	-2.992500	3.453600	-10.334000	26.085843	0.000711	20.863612
1385.386054	-3.022500	3.452800	-10.436000	26.095434	0.000710	20.832473
1386.384414	-3.005500	3.452000	-10.374000	26.081173	0.000711	20.836162
1387.383661	-3.023200	3.450800	-10.430000	26.093387	0.000711	20.855545
1388.386342	-2.984000	3.452700	-10.302000	26.096445	0.000709	20.828273
1389.383764	-2.983600	3.452500	-10.300000	26.097511	0.000710	20.858741
1390.389709	-3.020400	3.450500	-10.420000	26.112416	0.000709	20.836734
1391.387690	-3.002300	3.450400	-10.358000	26.126811	0.000708	20.861629
1392.389000	-3.003300	3.450100	-10.360000	26.135930	0.000709	20.840447
1393.386368	-2.997200	3.448900	-10.334000	26.122620	0.000706	20.844616
1394.382995	-2.994300	3.449200	-10.327000	26.162852	0.000706	20.833834
1395.385033	-2.973300	3.449500	-10.254000	26.125947	0.000707	20.817140
1396.385554	-2.992900	3.449300	-10.322000	26.118716	0.000707	20.835952
1397.391347	-2.999600	3.448900	-10.344000	26.104853	0.000706	20.863747
1398.387019	-3.002300	3.448200	-10.352000	26.077562	0.000707	20.856715
1399.386793	-2.994900	3.447200	-10.323000	26.068124	0.000704	20.828267
1400.391301	-2.998200	3.447100	-10.334000	26.049720	0.000705	20.832060
1401.388024	-2.984800	3.447300	-10.289000	26.034269	0.000702	20.848778
1402.387926	-2.997800	3.446700	-10.332000	26.074976	0.000705	20.833254
1403.389962	-3.001500	3.446000	-10.342000	26.061095	0.000702	20.827368
1404.386533	-2.981900	3.446900	-10.277000	26.064262	0.000705	20.820594
1405.385787	-2.991700	3.445200	-10.306000	26.026313	0.000703	20.826561
1406.389993	-2.997400	3.443700	-10.321000	26.037841	0.000704	20.815385
1407.391415	-3.022200	3.444000	-10.406000	26.054726	0.000701	20.831875
1408.388510	-2.989100	3.443100	-10.291000	26.067590	0.000699	20.830101
1409.390177	-2.996100	3.443600	-10.316000	26.086099	0.000702	20.815034
1410.389770	-3.009000	3.442000	-10.356000	26.118556	0.000701	20.810661
1411.391649	-2.992400	3.442200	-10.299000	26.165768	0.000698	20.829652
1412.391448	-2.979300	3.444100	-10.259000	26.156398	0.000700	20.821184
1413.396733	-3.017000	3.442100	-10.385000	26.135414	0.000699	20.816696
1414.395154	-2.987000	3.442500	-10.282000	26.125155	0.000698	20.838629
1415.391152	-2.995400	3.441800	-10.308000	26.142664	0.000697	20.823032
1416.394678	-3.002500	3.440200	-10.328000	26.141524	0.000697	20.815249
1417.394517	-3.010300	3.439600	-10.353000	26.148529	0.000696	20.801899
1418.395753	-3.039500	3.439100	-10.451000	26.154632	0.000696	20.818463
1419.397559	-2.981800	3.441400	-10.261000	26.198645	0.000694	20.829972
1420.392757	-3.030400	3.438000	-10.417000	26.205195	0.000695	20.811424
1421.392426	-3.014700	3.437600	-10.362000	26.192253	0.000694	20.802212
1422.391728	-2.993800	3.438400	-10.292000	26.177153	0.000694	20.816436
1423.392237	-2.990800	3.438400	-10.283000	26.144349	0.000694	20.807182
1424.393600	-2.982800	3.437900	-10.253000	26.129812	0.000694	20.798739
1425.392801	-2.987800	3.438200	-10.271000	26.075820	0.000695	20.804232
1426.397187	-2.996300	3.436400	-10.296000	26.097570	0.000691	20.809964
1427.393703	-3.001700	3.437800	-10.317000	26.094794	0.000690	20.811917
1428.394238	-2.990100	3.436600	-10.275000	26.088555	0.000692	20.808018
1429.395104	-3.012000	3.434900	-10.344000	26.126877	0.000691	20.818074
1430.393176	-3.013900	3.434800	-10.351000	26.161974	0.000688	20.791700
1431.393064	-2.986600	3.434500	-10.256000	26.153253	0.000690	20.800955
1432.397125	-3.002700	3.434600	-10.312000	26.174236	0.000689	20.832470
1433.393802	-3.000500	3.433400	-10.300000	26.148007	0.000688	20.808012
1434.397400	-2.997600	3.433800	-10.293000	26.139262	0.000690	20.813449
1435.396084	-3.036700	3.432100	-10.421000	26.101811	0.000688	20.799052
1436.397762	-3.006900	3.433400	-10.323000	26.043876	0.000688	20.809119
1437.400480	-2.994300	3.433400	-10.280000	26.047688	0.000687	20.812476
1438.398769	-3.013800	3.432000	-10.342000	26.059854	0.000686	20.817587
1439.404233	-2.997800	3.432900	-10.290000	26.069960	0.000688	20.820628
1440.396763	-3.003300	3.431700	-10.305000	26.111959	0.000687	20.800240
1441.402148	-2.995000	3.430900	-10.275000	26.113172	0.000686	20.802882
1442.398124	-3.013200	3.431400	-10.339000	26.104427	0.000685	20.804526
1443.400076	-2.994800	3.429900	-10.270000	26.122886	0.000685	20.809797
1444.399198	-3.000700	3.430300	-10.292000	26.147816	0.000684	20.803079
1445.398063	-3.003800	3.428800	-10.299000	26.149452	0.000684	20.809938
1446.400452	-2.991900	3.429800	-10.261000	26.137606	0.000683	20.813682
1447.401435	-3.001700	3.428800	-10.291000	26.129315	0.000685	20.809144
1448.398593	-2.987900	3.429000	-10.245000	26.100792	0.000682	20.796132
1449.399301	-3.016400	3.426800	-10.335000	26.103158	0.000681	20.830751
1450.399112	-3.019000	3.426000	-10.342000	26.144874	0.000682	20.811502
1451.399589	-3.010900	3.427900	-10.319000	26.129896	0.000681	20.787917
1452.400379	-3.001100	3.426900	-10.284000	26.153864	0.000681	20.798250
1453.398931	-3.015800	3.426900	-10.333000	26.142913	0.000681	20.788194
1454.400150	-3.008800	3.425400	-10.305000	26.193647	0.000679	20.806458
1455.402849	-3.004600	3.425500	-10.290000	26.183414	0.000676	20.807554
1456.400332	-2.999000	3.425900	-10.273000	26.164913	0.000679	20.802240
1457.414856	-2.997900	3.426500	-10.271000	26.138978	0.000678	20.798465
1458.403680	-2.995900	3.424600	-10.259000	26.136282	0.000678	20.804291
1459.404565	-3.002100	3.425900	-10.282000	26.169135	0.000677	20.792258
1460.403619	-3.014600	3.423200	-10.318000	26.156493	0.000674	20.816064
1461.406369	-2.981300	3.422800	-10.203000	26.163644	0.000676	20.795750
1462.403665	-3.010900	3.423400	-10.306000	26.192875	0.000675	20.797148
1463.403800	-3.017100	3.422800	-10.324000	26.203648	0.000674	20.805128
1464.402720	-2.968100	3.423900	-10.160000	26.203152	0.000675	20.793724
1465.405102	-2.990500	3.422100	-10.233000	26.175931	0.000673	20.800035
1466.411939	-2.998100	3.422700	-10.260000	26.208593	0.000675	20.793976
1467.402730	-2.997900	3.421600	-10.256000	26.234863	0.000673	20.803779
1468.404305	-3.002400	3.421200	-10.271000	26.245513	0.000672	20.803576
1469.405086	-2.997900	3.420300	-10.253000	26.247547	0.000670	20.773852
1470.405920	-3.025100	3.419100	-10.342000	26.217325	0.000672	20.815553
1471.409881	-3.008900	3.419900	-10.287000	26.241407	0.000672	20.806562
1472.405367	-2.990000	3.420200	-10.226000	26.238282	0.000671	20.799629
1473.409962	-3.012600	3.417700	-10.295000	26.229538	0.000670	20.790367
1474.409909	-2.970400	3.419900	-10.158000	26.183241	0.000671	20.794579
1475.409125	-3.010400	3.418200	-10.290000	26.200853	0.000668	20.799000
1476.407109	-3.009100	3.416800	-10.279000	26.245776	0.000669	20.779658
1477.412434	-3.016400	3.415500	-10.301000	26.226486	0.000668	20.788723
1478.410977	-3.009200	3.415600	-10.276000	26.219347	0.000668	20.794825
1479.407563	-3.012600	3.415800	-10.290000	26.223680	0.000666	20.785429
1480.409930	-3.041600	3.414800	-10.385000	26.214782	0.000666	20.780280
1481.408702	-2.981500	3.415700	-10.183000	26.215480	0.000666	20.791414
1482.407309	-3.025700	3.414500	-10.330000	26.227521	0.000665	20.790237
1483.408934	-3.007500	3.413700	-10.266000	26.230744	0.000666	20.770242
1484.413995	-3.023900	3.412700	-10.318000	26.207403	0.000664	20.789461
1485.410988	-3.019700	3.413000	-10.305000	26.205062	0.000662	20.790902
1486.410939	-2.987100	3.412700	-10.192000	26.208819	0.000663	20.778556
1487.414997	-3.018000	3.413200	-10.298000	26.231143	0.000662	20.789609
1488.414123	-3.008200	3.412400	-10.265000	26.198732	0.000661	20.800662
1489.411956	-2.981800	3.413600	-10.177000	26.176659	0.000663	20.807405
1490.416986	-3.012100	3.411800	-10.275000	26.144125	0.000665	20.791783
1491.414518	-2.999500	3.411500	-10.232000	26.158508	0.000662	20.781580
1492.415064	-3.018700	3.411400	-10.295000	26.178302	0.000661	20.777762
1493.412910	-2.994900	3.409900	-10.212000	26.121799	0.000662	20.800644
1494.415518	-3.000300	3.411000	-10.232000	26.098921	0.000659	20.769596
1495.414097	-2.996800	3.410800	-10.221000	26.097365	0.000659	20.779886
1496.413963	-3.029400	3.407500	-10.321000	26.115787	0.000659	20.788913
1497.415889	-2.998500	3.409600	-10.221000	26.154543	0.000659	20.775699
1498.415596	-3.020000	3.408000	-10.291000	26.180434	0.000657	20.772318
1499.414531	-2.992700	3.409600	-10.202000	26.207882	0.000658	20.768605
1500.422953	-2.997400	3.408200	-10.215000	26.233018	0.000658	20.782011
1501.415669	-3.005800	3.409200	-10.246000	26.230003	0.000658	20.785145
1502.415562	-2.972500	3.407100	-10.126000	26.258571	0.000657	20.759799
1503.417024	-2.990200	3.407800	-10.189000	26.257977	0.000656	20.758254
1504.416339	-2.994700	3.405800	-10.197000	26.246898	0.000653	20.776992
1505.418269	-3.019200	3.404400	-10.277000	26.236045	0.000655	20.786949
1506.420903	-2.998900	3.406100	-10.214000	26.209248	0.000653	20.761443
1507.417917	-2.983400	3.406800	-10.163000	26.225720	0.000655	20.775625
1508.419545	-2.997800	3.404400	-10.205000	26.234685	0.000654	20.769461
1509.418017	-2.994000	3.405700	-10.195000	26.234881	0.000653	20.770606
1510.424668	-2.992300	3.403400	-10.183000	26.234661	0.000653	20.767540
1511.422300	-3.008600	3.404400	-10.241000	26.216535	0.000652	20.771136
1512.418036	-3.007500	3.404200	-10.237000	26.208066	0.000651	20.764048
1513.421492	-2.981500	3.403800	-10.148000	26.170618	0.000651	20.771463
1514.421155	-2.993500	3.402900	-10.186000	26.218349	0.000649	20.784813
1515.420886	-2.994200	3.401100	-10.183000	26.231560	0.000651	20.760157
1516.423799	-3.019400	3.400800	-10.266000	26.216161	0.000650	20.772657
1517.422348	-3.003300	3.402400	-10.218000	26.221284	0.000648	20.744140
1518.422097	-3.030000	3.400100	-10.301000	26.252946	0.000646	20.756518
1519.422483	-2.999300	3.401000	-10.200000	26.252817	0.000646	20.760655
1520.425657	-3.006700	3.400100	-10.223000	26.246218	0.000647	20.773939
1521.421091	-2.992500	3.400600	-10.176000	26.230623	0.000647	20.779604
1522.425531	-3.014900	3.400500	-10.250000	26.249227	0.000646	20.748986
1523.428863	-2.998000	3.398300	-10.187000	26.259105	0.000644	20.749904
1524.424639	-3.005100	3.398300	-10.212000	26.214335	0.000643	20.753753
1525.423573	-2.992000	3.398500	-10.167000	26.232333	0.000646	20.745759
1526.425401	-2.990000	3.398800	-10.161000	26.222951	0.000643	20.758618
1527.422058	-3.010200	3.397000	-10.225000	26.229257	0.000643	20.771118
1528.429195	-3.002300	3.397600	-10.199000	26.267573	0.000642	20.774536
1529.426122	-3.014000	3.396600	-10.237000	26.244558	0.000641	20.755674
1530.421810	-2.985100	3.397000	-10.139000	26.292666	0.000643	20.763243
1531.422321	-3.003400	3.395700	-10.198000	26.312629	0.000640	20.739682
1532.422693	-2.998100	3.396500	-10.181000	26.283579	0.000639	20.771180
1533.428910	-2.988400	3.395800	-10.147000	26.298940	0.000641	20.755323
1534.423398	-3.026500	3.394700	-10.273000	26.271685	0.000639	20.762547
1535.425454	-2.996500	3.394800	-10.170000	26.262218	0.000639	20.749239
1536.427711	-2.995100	3.394000	-10.164000	26.244540	0.000638	20.740008
1537.427293	-3.016700	3.392400	-10.232000	26.241537	0.000639	20.746949
1538.424638	-3.010100	3.394000	-10.214000	26.227229	0.000636	20.741578
1539.425757	-3.005900	3.393600	-10.200000	26.237462	0.000635	20.739060
1540.426124	-3.001000	3.392200	-10.179000	26.243798	0.000634	20.728357
1541.423509	-2.986100	3.392100	-10.129000	26.227756	0.000637	20.780990
1542.424817	-3.000400	3.392800	-10.179000	26.165594	0.000637	20.756931
1543.424590	-3.024300	3.390800	-10.253000	26.131619	0.000635	20.750767
1544.429032	-3.001400	3.391800	-10.179000	26.115654	0.000635	20.753692
1545.427041	-3.008600	3.391000	-10.202000	26.114613	0.000634	20.752645
1546.427561	-3.013300	3.392200	-10.221000	26.116801	0.000634	20.744886
1547.427588	-3.006400	3.389700	-10.191000	26.097778	0.000632	20.746161
1548.428480	-2.994100	3.390800	-10.151000	26.104482	0.000633	20.760959
1549.428284	-2.987700	3.391100	-10.130000	26.111585	0.000630	20.743913
1550.428307	-2.995000	3.389300	-10.149000	26.086526	0.000632	20.726319
1551.436869	-2.990700	3.390000	-10.137000	26.092471	0.000630	20.740828
1552.430572	-3.022400	3.388100	-10.239000	26.090920	0.000631	20.747331
1553.429522	-3.007000	3.387200	-10.185000	26.097214	0.000630	20.739431
1554.429688	-3.009900	3.387500	-10.194000	26.145494	0.000629	20.738630
1555.431591	-2.985700	3.387800	-10.113000	26.166980	0.000627	20.753582
1556.436137	-3.003300	3.387600	-10.173000	26.195273	0.000628	20.727958
1557.431229	-3.000000	3.385700	-10.156000	26.210593	0.000628	20.724861
1558.430737	-2.997900	3.387400	-10.154000	26.227733	0.000629	20.719325
1559.432776	-2.993300	3.386400	-10.135000	26.226066	0.000627	20.732823
1560.436738	-3.010100	3.385900	-10.191000	26.239602	0.000626	20.743107
1561.430322	-3.011200	3.386100	-10.195000	26.201438	0.000627	20.752647
1562.432952	-3.005300	3.385400	-10.173000	26.216182	0.000625	20.757979
1563.434516	-2.996000	3.383600	-10.136000	26.256381	0.000623	20.742425
1564.432075	-3.011200	3.383300	-10.187000	26.283887	0.000624	20.729763
1565.435960	-3.003200	3.384300	-10.162000	26.294494	0.000624	20.727146
1566.434827	-3.011300	3.383500	-10.187000	26.334646	0.000624	20.723402
1567.433529	-3.014600	3.381200	-10.191000	26.353395	0.000622	20.727546
1568.435037	-3.014400	3.382500	-10.195000	26.378032	0.000622	20.725280
1569.433029	-3.006700	3.381900	-10.168000	26.377603	0.000624	20.728168
1570.439378	-3.005700	3.382600	-10.166000	26.384913	0.000621	20.711806
1571.440492	-3.000900	3.382200	-10.149000	26.389288	0.000621	20.741809
1572.436454	-2.994400	3.382100	-10.127000	26.434098	0.000621	20.708136
1573.434968	-3.013000	3.381000	-10.185000	26.446224	0.000619	20.720798
1574.436602	-3.012200	3.381100	-10.184000	26.391444	0.000620	20.739235
1575.438062	-3.008400	3.380000	-10.168000	26.389435	0.000620	20.731525
1576.433605	-2.989800	3.380700	-10.106000	26.345695	0.000620	20.728816
1577.437074	-3.001400	3.380200	-10.144000	26.393001	0.000618	20.733213
1578.435255	-2.992400	3.379800	-10.111000	26.382077	0.000618	20.704688
1579.433772	-3.013900	3.379600	-10.185000	26.361766	0.000616	20.708457
1580.438729	-2.998900	3.378300	-10.130000	26.292486	0.000618	20.725602
1581.433141	-3.006800	3.376700	-10.152000	26.266168	0.000615	20.717172
1582.433536	-2.979400	3.379300	-10.067000	26.277810	0.000615	20.720337
1583.437643	-3.001500	3.376600	-10.134000	26.297388	0.000615	20.726736
1584.434322	-2.991700	3.376800	-10.102000	26.352344	0.000614	20.747828
1585.434056	-3.008200	3.376000	-10.155000	26.352644	0.000613	20.714463
1586.441288	-2.999100	3.375100	-10.121000	26.329152	0.000614	20.684687
1587.436989	-2.992500	3.376200	-10.102000	26.335709	0.000613	20.731108
1588.439282	-3.028600	3.375400	-10.221000	26.289748	0.000611	20.697244
1589.438354	-2.995700	3.375800	-10.111000	26.271948	0.000612	20.705909
1590.438067	-3.001000	3.375100	-10.128000	26.292334	0.000610	20.726398
1591.438786	-3.004900	3.373800	-10.136000	26.300679	0.000609	20.706334
1592.437339	-3.032000	3.374000	-10.228000	26.301801	0.000609	20.721687
1593.443045	-2.992900	3.373500	-10.096000	26.316207	0.000608	20.714827
1594.439024	-2.985400	3.373000	-10.069000	26.309877	0.000609	20.723640
1595.440311	-2.991400	3.373400	-10.090000	26.332548	0.000609	20.707542
1596.441816	-2.978700	3.373700	-10.048000	26.311170	0.000608	20.701230
1597.441399	-2.999700	3.372800	-10.117000	26.287170	0.000609	20.708879
1598.448427	-3.006900	3.371500	-10.137000	26.306312	0.000607	20.693027
1599.441313	-3.016000	3.371000	-10.166000	26.289082	0.000606	20.714120
1600.443851	-2.994000	3.369500	-10.086000	26.273665	0.000605	20.704316
1601.443914	-2.995400	3.371500	-10.098000	26.312532	0.000605	20.716824
1602.443922	-2.989000	3.370600	-10.073000	26.289511	0.000607	20.708387
1603.442977	-2.980500	3.369700	-10.042000	26.255865	0.000604	20.697333
1604.443040	-3.015100	3.368500	-10.155000	26.286012	0.000604	20.691593
1605.443381	-3.034500	3.369400	-10.223000	26.253690	0.000601	20.707002
1606.449434	-2.991400	3.369500	-10.079000	26.238836	0.000602	20.696816
1607.442748	-2.968300	3.370100	-10.002000	26.216513	0.000603	20.706152
1608.442545	-2.989900	3.369600	-10.074000	26.232041	0.000601	20.704213
1609.443090	-3.015900	3.366200	-10.151000	26.277809	0.000603	20.726974
1610.444400	-3.002600	3.368300	-10.113000	26.282625	0.000602	20.701466
1611.447677	-3.002800	3.367400	-10.111000	26.278514	0.000601	20.707767
1612.444342	-3.004700	3.367800	-10.118000	26.270836	0.000601	20.694360
1613.443347	-2.985100	3.367300	-10.050000	26.255168	0.000597	20.727454
1614.451554	-2.996700	3.366200	-10.086000	26.246283	0.000600	20.709042
1615.447009	-2.997000	3.365500	-10.086000	26.267148	0.000598	20.714837
1616.450221	-2.987800	3.365100	-10.053000	26.275273	0.000598	20.695026
1617.447357	-2.968500	3.365400	-9.989300	26.298508	0.000597	20.699410
1618.446992	-2.992400	3.364700	-10.068000	26.289624	0.000597	20.717510
1619.451676	-3.027100	3.365100	-10.186000	26.269262	0.000599	20.690881
1620.447744	-3.019600	3.364000	-10.157000	26.282130	0.000598	20.707608
1621.451046	-2.983700	3.365300	-10.040000	26.251210	0.000595	20.729168
1622.454866	-3.016100	3.363000	-10.142000	26.276395	0.000594	20.700421
1623.449079	-3.005700	3.362400	-10.106000	26.269422	0.000594	20.685352
1624.448921	-3.011100	3.362600	-10.124000	26.302351	0.000594	20.705170
1625.450734	-3.008000	3.362000	-10.112000	26.304766	0.000593	20.691000
1626.451720	-3.000900	3.361900	-10.087000	26.287260	0.000593	20.707547
1627.450564	-3.021200	3.361600	-10.154000	26.235415	0.000594	20.704284
1628.450909	-3.015500	3.362100	-10.137000	26.169496	0.000593	20.714857
1629.452178	-3.016600	3.361800	-10.140000	26.150107	0.000591	20.695372
1630.451754	-3.015000	3.359800	-10.129000	26.159691	0.000590	20.702633
1631.449814	-2.990000	3.361000	-10.048000	26.181606	0.000589	20.699524
1632.455678	-3.018500	3.359000	-10.137000	26.225775	0.000589	20.699338
1633.458975	-2.984500	3.359700	-10.026000	26.261072	0.000590	20.702092
1634.450861	-2.981000	3.358700	-10.012000	26.286574	0.000589	20.715868
1635.455103	-3.009100	3.358200	-10.104000	26.294326	0.000589	20.700423
1636.452666	-2.997000	3.358900	-10.065000	26.264277	0.000588	20.704364
1637.453803	-2.994300	3.357700	-10.053000	26.239276	0.000588	20.711009
1638.460145	-2.970200	3.358800	-9.975200	26.216904	0.000588	20.705122
1639.457597	-2.994200	3.357400	-10.052000	26.180718	0.000587	20.695312
1640.456686	-2.995400	3.358300	-10.057000	26.195744	0.000584	20.686228
1641.460367	-2.993700	3.357100	-10.050000	26.177887	0.000584	20.697683
1642.462812	-3.011300	3.356300	-10.105000	26.196639	0.000584	20.699457
1643.455418	-2.994200	3.356300	-10.048000	26.172371	0.000584	20.703995
1644.460595	-2.968100	3.355500	-9.958100	26.152455	0.000584	20.700103
1645.455810	-2.996100	3.355700	-10.053000	26.159019	0.000584	20.694844
1646.453886	-3.000300	3.355000	-10.064000	26.171930	0.000580	20.731055
1647.457709	-3.006600	3.353000	-10.081000	26.202161	0.000582	20.689357
1648.457325	-3.003900	3.353500	-10.072000	26.265901	0.000581	20.700306
1649.454473	-2.977800	3.354700	-9.988600	26.272433	0.000582	20.709242
1650.457366	-3.008600	3.352100	-10.085000	26.294039	0.000581	20.699186
1651.453350	-3.014700	3.351800	-10.103000	26.329130	0.000581	20.717858
1652.459224	-3.021100	3.352100	-10.126000	26.288052	0.000579	20.723991
1653.454780	-3.009600	3.351900	-10.087000	26.262930	0.000580	20.702536
1654.455961	-2.973600	3.353900	-9.972100	26.223817	0.000580	20.709224
1655.457311	-2.981900	3.352700	-9.996300	26.203796	0.000579	20.712340
1656.455524	-2.995900	3.351000	-10.038000	26.194960	0.000576	20.701563
1657.464571	-3.012400	3.349600	-10.088000	26.218081	0.000579	20.701089
1658.455472	-2.990800	3.351100	-10.020000	26.195114	0.000577	20.720685
1659.456914	-3.006700	3.349700	-10.071000	26.218479	0.000577	20.705757
1660.457659	-2.987200	3.350000	-10.006000	26.197718	0.000576	20.709077
1661.463413	-3.024000	3.349400	-10.127000	26.162751	0.000577	20.710450
1662.458230	-2.989400	3.349400	-10.011000	26.158259	0.000576	20.716843
1663.459392	-3.002700	3.347800	-10.052000	26.144704	0.000574	20.720292
1664.460879	-2.991300	3.348300	-10.014000	26.165264	0.000574	20.708708
1665.454697	-3.005900	3.347300	-10.061000	26.194195	0.000575	20.708855
1666.459395	-2.967800	3.350000	-9.941200	26.204802	0.000572	20.720464
1667.455543	-2.972200	3.349600	-9.954100	26.282955	0.000573	20.717446
1668.458049	-2.973900	3.347400	-9.953100	26.316178	0.000572	20.709108
1669.456124	-2.990300	3.347500	-10.007000	26.340191	0.000571	20.708110
1670.463098	-2.999600	3.346800	-10.038000	26.349424	0.000573	20.722132
1671.456648	-3.003600	3.346300	-10.050000	26.335105	0.000569	20.718173
1672.456195	-2.991300	3.344200	-10.003000	26.324922	0.000569	20.734967
1673.459396	-3.002800	3.345100	-10.043000	26.322262	0.000568	20.716646
1674.463461	-3.014900	3.344800	-10.083000	26.352108	0.000568	20.726252
1675.458378	-2.999600	3.345000	-10.032000	26.359841	0.000569	20.714583
1676.463208	-3.005400	3.343700	-10.047000	26.407532	0.000566	20.713678
1677.460663	-2.998400	3.343600	-10.025000	26.453648	0.000568	20.722096
1678.461194	-3.005900	3.343800	-10.049000	26.442767	0.000565	20.713056
1679.461856	-3.007100	3.342700	-10.051000	26.433534	0.000565	20.729381
1680.461693	-3.035100	3.340900	-10.139000	26.400591	0.000566	20.717607
1681.462595	-3.022600	3.340700	-10.096000	26.414217	0.000567	20.714232
1682.465169	-2.998500	3.341700	-10.019000	26.421251	0.000564	20.731734
1683.460248	-2.984100	3.341400	-9.970400	26.416852	0.000564	20.728261
1684.461581	-2.991300	3.340500	-9.991400	26.404219	0.000564	20.722202
1685.468096	-3.000300	3.339900	-10.020000	26.416533	0.000563	20.731734
1686.462842	-3.012700	3.339000	-10.059000	26.440918	0.000562	20.737277
1687.463665	-3.020800	3.339300	-10.086000	26.493458	0.000561	20.721808
1688.460981	-3.005800	3.339400	-10.036000	26.498102	0.000563	20.725053
1689.463530	-2.985500	3.340300	-9.971000	26.465375	0.000560	20.726771
1690.463753	-2.983700	3.339700	-9.964300	26.460989	0.000558	20.713353
1691.461260	-3.010400	3.337100	-10.045000	26.443730	0.000558	20.724930
1692.465743	-2.985500	3.338500	-9.965600	26.494004	0.000559	20.726624
1693.462738	-3.014300	3.338300	-10.061000	26.497606	0.000559	20.722184
1694.463247	-3.001300	3.338900	-10.020000	26.522209	0.000558	20.720835
1695.462362	-2.993900	3.337900	-9.992300	26.540507	0.000559	20.719314
1696.462860	-2.994400	3.336500	-9.989200	26.590954	0.000558	20.721186
1697.463303	-3.020400	3.335100	-10.072000	26.605729	0.000556	20.730824
1698.464548	-2.978200	3.337200	-9.938000	26.627493	0.000557	20.728994
1699.468321	-2.970100	3.336100	-9.907700	26.624352	0.000557	20.738165
1700.465438	-2.985600	3.335400	-9.956800	26.628216	0.000558	20.746792
1701.463317	-3.021300	3.335500	-10.076000	26.627273	0.000553	20.731144
1702.467232	-3.000200	3.335200	-10.005000	26.652124	0.000554	20.754705
1703.467891	-3.011000	3.333700	-10.036000	26.662996	0.000555	20.725805
1704.465009	-3.001500	3.333400	-10.005000	26.669072	0.000553	20.714843
1705.465848	-3.020300	3.332000	-10.061000	26.636063	0.000553	20.740455
1706.471730	-3.000900	3.333300	-10.001000	26.624320	0.000551	20.736711
1707.467509	-3.011200	3.333000	-10.035000	26.611837	0.000552	20.737912
1708.473100	-3.021400	3.332400	-10.067000	26.548135	0.000550	20.729826
1709.467974	-3.001600	3.331800	-9.999100	26.517816	0.000549	20.733016
1710.465816	-2.968000	3.333200	-9.891400	26.494115	0.000549	20.744280
1711.466715	-3.035000	3.328900	-10.101000	26.482756	0.000550	20.752303
1712.466796	-3.035000	3.329600	-10.104000	26.492815	0.000549	20.735387
1713.466978	-2.994000	3.332200	-9.975300	26.506422	0.000548	20.741003
1714.466226	-3.016600	3.330400	-10.045000	26.496362	0.000546	20.724727
1715.469481	-2.992800	3.330800	-9.966900	26.469823	0.000546	20.721759
1716.471642	-3.010600	3.329900	-10.024000	26.486658	0.000547	20.759545
1717.467713	-2.999400	3.329600	-9.985200	26.494304	0.000546	20.737832
1718.473294	-3.012200	3.329500	-10.027000	26.503910	0.000550	20.738952
1719.469080	-2.991200	3.328900	-9.956500	26.511310	0.000544	20.762987
1720.468353	-3.010000	3.329600	-10.022000	26.515507	0.000544	20.748713
1721.467854	-2.987700	3.327900	-9.942100	26.544948	0.000544	20.748436
1722.470700	-3.007800	3.328100	-10.009000	26.552594	0.000544	20.739051
1723.467784	-3.036300	3.326600	-10.098000	26.572730	0.000543	20.741274
1724.471090	-3.001900	3.327700	-9.987700	26.572307	0.000542	20.750807
1725.470850	-2.993900	3.326900	-9.959000	26.570095	0.000546	20.775137
1726.465114	-2.995500	3.326300	-9.963100	26.535857	0.000541	20.757315
1727.469145	-3.000700	3.325200	-9.977200	26.526772	0.000542	20.755296
1728.472641	-2.996600	3.325000	-9.962600	26.531147	0.000541	20.739303
1729.467142	-2.972800	3.326000	-9.886500	26.526423	0.000539	20.762531
1730.466791	-2.976400	3.325800	-9.897400	26.540298	0.000541	20.762254
1731.471300	-2.981600	3.324600	-9.910700	26.573268	0.000539	20.747979
1732.467737	-3.001800	3.323600	-9.975400	26.583020	0.000538	20.743083
1733.467422	-3.000200	3.323300	-9.969500	26.582800	0.000538	20.741914
1734.470618	-2.995800	3.323000	-9.953500	26.549481	0.000536	20.758208
1735.470401	-2.977100	3.324400	-9.896600	26.542804	0.000537	20.762876
1736.470588	-2.992700	3.323400	-9.944700	26.562186	0.000536	20.772876
1737.473322	-3.010900	3.322200	-10.002000	26.612460	0.000536	20.756083
1738.470273	-3.002900	3.321300	-9.972000	26.653960	0.000536	20.764137
1739.468852	-2.984300	3.322400	-9.914500	26.681542	0.000535	20.753459
1740.473147	-2.996700	3.321500	-9.952800	26.689486	0.000533	20.765240
1741.471870	-2.997000	3.321000	-9.951400	26.660042	0.000533	20.766933
1742.471024	-3.004600	3.320000	-9.973000	26.645445	0.000533	20.764587
1743.473233	-2.986600	3.320400	-9.916000	26.584366	0.000533	20.758188
1744.474349	-3.002100	3.319700	-9.964600	26.564433	0.000530	20.769445
1745.471392	-3.004200	3.318900	-9.970100	26.530715	0.000532	20.768268
1746.469701	-2.995000	3.318900	-9.939400	26.548413	0.000532	20.755238
1747.473564	-2.990900	3.318200	-9.923300	26.543158	0.000530	20.764180
1748.472957	-3.000300	3.317700	-9.952900	26.517672	0.000529	20.782185
1749.471455	-2.997200	3.317400	-9.941600	26.501738	0.000528	20.767116
1750.471385	-3.005200	3.317900	-9.970200	26.502235	0.000527	20.749597
1751.470066	-3.000200	3.316400	-9.949300	26.537508	0.000527	20.769407
1752.472207	-2.997400	3.317300	-9.941100	26.522445	0.000526	20.767541
1753.471065	-3.015700	3.315800	-9.998300	26.571820	0.000527	20.763594
1754.471898	-3.001800	3.317000	-9.956200	26.598601	0.000527	20.781981
1755.477437	-3.001100	3.316300	-9.951600	26.633609	0.000525	20.772129
1756.471365	-2.988700	3.315100	-9.906400	26.648947	0.000527	20.778065
1757.477862	-3.006600	3.313600	-9.961700	26.653608	0.000526	20.763784
1758.473985	-3.014300	3.314600	-9.990100	26.619208	0.000523	20.769505
1759.475105	-3.002300	3.312500	-9.944400	26.584077	0.000523	20.769277
1760.475618	-2.980300	3.314900	-9.877800	26.573449	0.000523	20.781827
1761.473009	-3.023100	3.311300	-10.009000	26.592414	0.000523	20.776235
1762.475317	-2.997000	3.312200	-9.925800	26.605977	0.000522	20.778016
1763.476692	-2.997900	3.313000	-9.930400	26.580224	0.000522	20.783896
1764.473397	-3.016500	3.312400	-9.991100	26.541950	0.000521	20.766285
1765.478687	-3.008500	3.311500	-9.961600	26.526646	0.000522	20.782196
1766.474822	-2.982600	3.312900	-9.880000	26.531768	0.000520	20.784974
1767.477845	-3.000400	3.311900	-9.935400	26.563959	0.000516	20.786987
1768.478563	-2.995800	3.312600	-9.922800	26.624065	0.000519	20.776759
1769.475611	-2.983400	3.311600	-9.879100	26.662067	0.000518	20.788409
1770.474663	-3.016500	3.309800	-9.982700	26.689618	0.000519	20.781020
1771.479508	-3.009100	3.308900	-9.955800	26.721291	0.000516	20.787257
1772.480495	-3.013900	3.309200	-9.972400	26.709004	0.000518	20.784862
1773.477016	-2.980100	3.310000	-9.863200	26.719649	0.000516	20.803151
1774.477878	-3.014800	3.309100	-9.974900	26.716323	0.000517	20.796488
1775.478939	-3.020300	3.307700	-9.987500	26.750133	0.000516	20.771210
1776.478671	-2.995000	3.307900	-9.905800	26.761445	0.000513	20.788747
1777.477240	-3.008900	3.306800	-9.949100	26.780040	0.000513	20.790373
1778.480606	-2.986900	3.307200	-9.877600	26.759527	0.000515	20.793457
1779.481398	-2.990100	3.306300	-9.884900	26.709689	0.000512	20.788870
1780.482386	-3.004800	3.307000	-9.936300	26.701144	0.000513	20.802091
1781.480505	-2.994000	3.306900	-9.899800	26.664583	0.000511	20.792362
1782.480260	-3.017800	3.306100	-9.976300	26.659064	0.000510	20.801511
1783.477909	-3.017400	3.305500	-9.972800	26.658476	0.000512	20.797602
1784.479920	-3.004800	3.305200	-9.930600	26.704341	0.000510	20.793451
1785.481405	-3.012600	3.305200	-9.956700	26.738592	0.000510	20.798962
1786.480964	-2.997200	3.304500	-9.903400	26.734194	0.000509	20.804972
1787.478508	-2.982300	3.304200	-9.853100	26.699269	0.000509	20.805421
1788.481665	-2.999300	3.304100	-9.908900	26.666475	0.000507	20.810384
1789.482208	-2.995800	3.303900	-9.897000	26.618415	0.000508	20.790045
1790.481098	-3.009500	3.302500	-9.936700	26.586861	0.000506	20.801474
1791.484552	-2.985200	3.302200	-9.856700	26.614592	0.000506	20.824608
1792.483036	-2.978000	3.302700	-9.833000	26.660459	0.000507	20.796276
1793.484564	-2.986500	3.301500	-9.859000	26.706907	0.000505	20.802668
1794.487072	-2.998800	3.301500	-9.899300	26.718324	0.000504	20.798025
1795.487644	-3.007000	3.300600	-9.924000	26.691343	0.000505	20.801246
1796.484938	-3.014800	3.298600	-9.944100	26.701467	0.000504	20.809053
1797.489759	-2.993700	3.299500	-9.876800	26.732944	0.000503	20.818413
1798.489372	-2.983200	3.302000	-9.849400	26.776681	0.000501	20.805962
1799.487800	-2.980300	3.300700	-9.836400	26.785488	0.000500	20.800593
1800.488293	-3.010400	3.300100	-9.933400	26.771316	0.000502	20.811948
1801.489153	-3.021900	3.298500	-9.966300	26.778861	0.000499	20.814318
1802.486807	-3.002500	3.298100	-9.901900	26.777269	0.000499	20.815562
1803.485493	-3.019900	3.297600	-9.956500	26.769705	0.000498	20.818389
1804.485056	-3.024300	3.296500	-9.968700	26.781562	0.000498	20.814189
1805.488048	-3.027300	3.297200	-9.980500	26.798050	0.000498	20.802791
1806.485680	-3.007100	3.297300	-9.913200	26.814457	0.000497	20.809331
1807.488649	-2.994600	3.297200	-9.872500	26.785219	0.000498	20.816443
1808.485408	-2.977400	3.297100	-9.815400	26.802839	0.000496	20.813770
1809.486114	-2.982900	3.296200	-9.831900	26.791723	0.000496	20.829146
1810.485898	-2.993500	3.297400	-9.869800	26.808547	0.000494	20.824725
1811.484977	-3.016400	3.294200	-9.934600	26.858939	0.000495	20.823709
1812.485519	-3.007200	3.294700	-9.906200	26.859061	0.000493	20.816246
1813.485478	-3.003200	3.294900	-9.893800	26.865712	0.000493	20.805864
1814.484063	-2.964800	3.295800	-9.770800	26.861590	0.000495	20.817367
1815.485344	-2.990000	3.293800	-9.847700	26.835483	0.000495	20.817194
1816.484713	-3.005900	3.293000	-9.897400	26.850628	0.000493	20.838587
1817.486004	-2.983000	3.292600	-9.820500	26.865816	0.000490	20.829202
1818.487936	-3.001900	3.291500	-9.879900	26.885671	0.000491	20.815501
1819.488211	-3.002800	3.291100	-9.881200	26.917491	0.000492	20.821893
1820.497742	-2.980800	3.291600	-9.810100	26.951263	0.000489	20.835464
1821.493739	-3.016800	3.291400	-9.929000	26.959806	0.000490	20.821770
1822.492474	-2.992800	3.291100	-9.848300	26.985715	0.000490	20.821271
1823.492295	-2.979900	3.292200	-9.809600	27.002095	0.000489	20.811665
1824.490838	-2.985700	3.290100	-9.822200	27.014648	0.000488	20.838039
1825.492717	-2.984300	3.292400	-9.824400	26.952384	0.000488	20.828531
1826.488702	-2.987100	3.290100	-9.827400	26.905304	0.000485	20.832398
1827.491377	-3.015400	3.289900	-9.919900	26.849343	0.000485	20.841087
1828.494446	-3.004200	3.289700	-9.881400	26.803110	0.000485	20.832060
1829.490261	-2.985100	3.290700	-9.821100	26.770790	0.000486	20.822799
1830.492558	-2.992600	3.288300	-9.840100	26.751577	0.000484	20.826241
1831.495281	-2.999000	3.287900	-9.859600	26.728192	0.000484	20.847300
1832.491285	-3.000000	3.288500	-9.864600	26.722484	0.000484	20.842509
1833.493370	-2.987300	3.289200	-9.824500	26.720028	0.000485	20.842411
1834.495388	-2.982400	3.287300	-9.802500	26.776474	0.000480	20.847953
1835.490416	-3.007100	3.285200	-9.878000	26.795656	0.000481	20.843531
1836.492028	-2.996900	3.285200	-9.844800	26.795485	0.000480	20.863747
1837.494271	-2.994700	3.286400	-9.841000	26.786923	0.000480	20.836647
1838.491243	-2.988300	3.286700	-9.820400	26.796948	0.000480	20.843408
1839.491190	-3.024200	3.283800	-9.930000	26.786151	0.000479	20.851044
1840.494031	-3.003000	3.284400	-9.862400	26.827528	0.000479	20.867041
1841.491398	-2.994600	3.285500	-9.837500	26.874898	0.000479	20.831222
1842.491729	-3.017400	3.282600	-9.904200	26.896100	0.000478	20.847324
1843.491540	-2.990300	3.283300	-9.817200	26.920180	0.000476	20.855416
1844.491623	-2.980400	3.284200	-9.786900	26.927718	0.000477	20.840237
1845.495414	-3.012400	3.282400	-9.886700	26.920082	0.000474	20.842990
1846.496924	-3.011100	3.280200	-9.875400	26.891789	0.000473	20.838249
1847.495356	-3.003600	3.281900	-9.856000	26.850341	0.000474	20.852996
1848.494328	-3.002800	3.281700	-9.853600	26.860513	0.000474	20.851370
1849.497266	-3.012600	3.281800	-9.886000	26.861732	0.000472	20.849751
1850.498582	-3.028300	3.280900	-9.934400	26.863429	0.000472	20.864733
1851.498848	-3.012000	3.279400	-9.876100	26.864544	0.000473	20.853052
1852.497820	-2.986700	3.281300	-9.799100	26.928692	0.000473	20.846432
1853.500164	-2.993600	3.280100	-9.818500	26.929464	0.000471	20.874233
1854.499204	-3.010400	3.279200	-9.870000	26.862762	0.000471	20.877337
1855.496982	-3.008000	3.279700	-9.864500	26.825355	0.000470	20.871019
1856.497659	-3.011900	3.279700	-9.876000	26.805003	0.000471	20.851032
1857.499012	-3.016400	3.278200	-9.886900	26.791603	0.000469	20.856051
1858.498022	-3.004300	3.279000	-9.849900	26.840225	0.000468	20.864160
1859.496647	-2.974900	3.279800	-9.756400	26.879714	0.000466	20.845546
1860.500789	-3.019600	3.278000	-9.897600	26.903444	0.000466	20.871303
1861.498518	-3.015600	3.276800	-9.880100	26.939134	0.000466	20.861199
1862.499975	-3.025100	3.275100	-9.905800	26.963329	0.000466	20.875570
1863.498990	-3.019600	3.275300	-9.889900	26.987278	0.000464	20.869308
1864.502780	-3.008000	3.275200	-9.851100	27.000382	0.000466	20.851193
1865.504350	-2.989800	3.276600	-9.795500	26.983366	0.000464	20.868693
1866.501284	-2.987900	3.275200	-9.784900	26.922435	0.000463	20.861950
1867.501914	-2.989800	3.274200	-9.789000	26.879151	0.000462	20.856359
1868.503572	-3.005900	3.273400	-9.838900	26.862953	0.000461	20.870418
1869.504015	-2.989700	3.274300	-9.788100	26.877823	0.000460	20.862136
1870.505997	-2.973100	3.275300	-9.736100	26.931303	0.000462	20.855695
1871.504225	-3.002700	3.274200	-9.830400	26.953091	0.000462	20.883767
1872.509675	-3.015700	3.272500	-9.867400	26.975179	0.000462	20.863306
1873.504642	-3.002500	3.272800	-9.825600	26.982031	0.000458	20.858817
1874.504958	-3.013500	3.273200	-9.863100	27.011889	0.000461	20.864661
1875.504449	-2.981600	3.273200	-9.757800	27.060795	0.000459	20.860264
1876.505008	-2.997900	3.272000	-9.807200	27.049375	0.000459	20.858262
1877.505137	-3.009400	3.272500	-9.847500	27.014393	0.000455	20.856274
1878.504761	-2.988700	3.271500	-9.776200	27.001216	0.000456	20.862462
1879.505382	-3.010900	3.269200	-9.842400	27.030742	0.000457	20.848534
1880.511243	-3.008400	3.270200	-9.836700	27.002526	0.000456	20.852875
1881.506886	-3.001000	3.271500	-9.816300	26.979698	0.000456	20.855523
1882.511116	-2.992400	3.270400	-9.785600	26.958958	0.000454	20.863590
1883.505404	-2.991300	3.270200	-9.780600	26.968927	0.000453	20.857019
1884.509152	-2.981000	3.268500	-9.742600	26.995037	0.000453	20.866206
1885.510199	-2.980500	3.270500	-9.746300	27.030369	0.000451	20.860960
1886.506128	-2.981800	3.268500	-9.745300	27.024221	0.000452	20.866157
1887.505418	-2.992800	3.267400	-9.777900	27.068044	0.000451	20.852383
1888.506188	-2.995200	3.267500	-9.786500	27.079678	0.000451	20.856021
1889.511434	-3.000900	3.266800	-9.802300	27.107200	0.000450	20.839606
1890.510379	-3.003800	3.265600	-9.808100	27.131495	0.000449	20.847919
1891.508686	-3.007900	3.266600	-9.823200	27.146006	0.000450	20.837857
1892.508863	-3.013900	3.266000	-9.842700	27.145394	0.000448	20.844828
1893.509578	-2.997400	3.266000	-9.788600	27.160253	0.000447	20.831324
1894.508684	-2.975500	3.265000	-9.713300	27.155318	0.000448	20.843904
1895.508609	-2.965700	3.264700	-9.679900	27.153513	0.000446	20.858209
1896.508997	-3.019700	3.264300	-9.856500	27.163106	0.000445	20.843676
1897.509000	-3.023100	3.262800	-9.862800	27.170606	0.000445	20.846478
1898.509264	-3.003900	3.263800	-9.803700	27.175076	0.000443	20.837698
1899.511331	-3.005500	3.262600	-9.805300	27.139370	0.000444	20.830235
1900.511641	-3.005500	3.261700	-9.801800	27.119447	0.000442	20.840543
1901.510918	-2.988400	3.262800	-9.749600	27.105861	0.000441	20.826880
1902.513757	-2.998500	3.262900	-9.782200	27.085606	0.000441	20.846337
1903.513605	-2.986800	3.262500	-9.743500	27.081908	0.000439	20.845463
1904.510803	-3.025900	3.259900	-9.863600	27.116422	0.000440	20.823751
1905.514563	-2.983600	3.261900	-9.730900	27.125313	0.000439	20.832218
1906.513822	-2.976800	3.262100	-9.709300	27.132881	0.000439	20.832243
1907.510960	-3.019600	3.258400	-9.838700	27.149405	0.000439	20.818043
1908.517854	-2.974800	3.259800	-9.696100	27.162410	0.000439	20.839657
1909.510505	-3.011600	3.257800	-9.809800	27.192703	0.000437	20.840254
1910.516731	-2.993500	3.258900	-9.754200	27.193003	0.000436	20.830125
1911.519711	-3.000500	3.257000	-9.771500	27.172983	0.000435	20.849343
1912.516590	-3.013300	3.258700	-9.818600	27.158718	0.000433	20.836893
1913.513417	-3.001000	3.258200	-9.776300	27.139567	0.000436	20.817157
1914.516086	-3.008100	3.257900	-9.798800	27.139358	0.000433	20.824534
1915.513261	-3.019900	3.256400	-9.833200	27.147484	0.000432	20.831283
1916.512465	-3.032000	3.256100	-9.871300	27.181304	0.000433	20.825945
1917.513174	-2.998200	3.256400	-9.762000	27.172739	0.000431	20.819226
1918.511303	-3.014200	3.255900	-9.812700	27.137584	0.000430	20.819904
1919.513780	-3.010900	3.256800	-9.803900	27.096170	0.000431	20.830409
1920.513077	-3.008900	3.254800	-9.792100	27.061948	0.000428	20.823019
1921.515094	-3.010000	3.255100	-9.796700	27.080765	0.000428	20.820132
1922.514509	-3.009600	3.253700	-9.791600	27.094780	0.000429	20.809571
1923.513542	-3.021000	3.252700	-9.824700	27.130236	0.000427	20.821997
1924.519108	-3.017400	3.255000	-9.821100	27.198275	0.000426	20.806031
1925.516485	-3.028400	3.252100	-9.848400	27.241742	0.000425	20.823672
1926.516660	-2.990100	3.253300	-9.726400	27.254519	0.000426	20.816135
1927.517964	-2.998400	3.254300	-9.757200	27.270277	0.000425	20.821080
1928.521063	-2.985900	3.251700	-9.708500	27.305403	0.000424	20.811843
1929.519169	-2.989700	3.251600	-9.720000	27.302557	0.000422	20.812774
1930.518579	-3.001700	3.251600	-9.759300	27.332540	0.000420	20.821597
1931.517219	-2.984000	3.250700	-9.699000	27.306670	0.000421	20.811222
1932.517323	-2.981400	3.250200	-9.688500	27.312002	0.000421	20.801412
1933.518823	-2.980800	3.250800	-9.689100	27.323266	0.000418	20.807527
1934.524700	-3.012900	3.248700	-9.787700	27.344263	0.000418	20.826278
1935.523001	-2.985100	3.249400	-9.698700	27.358690	0.000417	20.824670
1936.530787	-3.019000	3.248200	-9.805100	27.389634	0.000418	20.823556
1937.525213	-2.993100	3.249000	-9.723400	27.412306	0.000416	20.799424
1938.525483	-3.017600	3.247000	-9.797200	27.405959	0.000416	20.812004
1939.520755	-3.006600	3.247600	-9.763000	27.377655	0.000416	20.810083
1940.522573	-3.020600	3.247600	-9.807500	27.374949	0.000418	20.811155
1941.519620	-2.993100	3.247100	-9.718500	27.325336	0.000414	20.804393
1942.519149	-2.993000	3.247200	-9.717800	27.288122	0.000415	20.784029
1943.528080	-3.016200	3.246100	-9.789500	27.257825	0.000413	20.799547
1944.522735	-3.001300	3.245600	-9.739500	27.258970	0.000412	20.793112
1945.525655	-2.976800	3.246700	-9.663800	27.245998	0.000412	20.813729
1946.525466	-3.016300	3.245200	-9.787400	27.228305	0.000412	20.803045
1947.525055	-2.994900	3.245400	-9.718900	27.220885	0.000411	20.806013
1948.525411	-2.993900	3.243300	-9.709400	27.233417	0.000408	20.804868
1949.524117	-2.981900	3.246000	-9.678100	27.259417	0.000408	20.800200
1950.525900	-2.987800	3.245500	-9.696100	27.296234	0.000407	20.798827
1951.525873	-2.995300	3.244200	-9.716400	27.296136	0.000408	20.798728
1952.527398	-2.986500	3.244000	-9.685700	27.305116	0.000407	20.803020
1953.527926	-2.975000	3.244700	-9.651600	27.294470	0.000407	20.800846
1954.526558	-2.995300	3.242600	-9.710800	27.305294	0.000405	20.809837
1955.526520	-2.985900	3.242100	-9.680200	27.303004	0.000405	20.810378
1956.528945	-3.002400	3.241700	-9.731700	27.332877	0.000403	20.798704
1957.528209	-2.974900	3.240900	-9.638400	27.348432	0.000404	20.785427
1958.530902	-2.987500	3.240500	-9.680200	27.369789	0.000404	20.797903
1959.529404	-2.992800	3.241400	-9.699500	27.306163	0.000402	20.792694
1960.528837	-2.996200	3.240500	-9.708800	27.271349	0.000401	20.815520
1961.530376	-2.999700	3.238100	-9.711400	27.287847	0.000401	20.800348
1962.532733	-2.985600	3.238000	-9.666800	27.277899	0.000401	20.814997
1963.532023	-2.996500	3.236900	-9.698600	27.313796	0.000398	20.805114
1964.532198	-3.000800	3.236900	-9.710600	27.330123	0.000399	20.778389
1965.532536	-3.011600	3.235900	-9.744100	27.343687	0.000398	20.788241
1966.535094	-3.013400	3.235600	-9.749100	27.376161	0.000396	20.789614
1967.539929	-2.989700	3.236700	-9.676000	27.402611	0.000398	20.781609
1968.536056	-2.967400	3.236900	-9.603100	27.416426	0.000396	20.804042
1969.538451	-2.989400	3.234600	-9.668200	27.372048	0.000393	20.794011
1970.534684	-3.010500	3.235500	-9.738900	27.405285	0.000394	20.796628
1971.535081	-3.004300	3.235400	-9.719000	27.435903	0.000396	20.801352
1972.534963	-3.009000	3.233800	-9.729200	27.449693	0.000392	20.792940
1973.536144	-2.991300	3.234800	-9.674800	27.464701	0.000392	20.793814
1974.538638	-3.035900	3.231100	-9.806800	27.467082	0.000390	20.803322
1975.537068	-3.026400	3.231600	-9.778900	27.397304	0.000391	20.813729
1976.539021	-3.053800	3.231100	-9.865700	27.341729	0.000391	20.788167
1977.536321	-2.986400	3.231500	-9.649700	27.317274	0.000386	20.778266
1978.539717	-2.998100	3.231200	-9.685500	27.253743	0.000387	20.785483
1979.538422	-3.005700	3.231100	-9.711200	27.238934	0.000386	20.786709
1980.538394	-2.993200	3.230800	-9.669700	27.192069	0.000387	20.804056
1981.539412	-3.008100	3.230200	-9.715600	27.220849	0.000386	20.795071
1982.541312	-3.004100	3.229700	-9.701600	27.254074	0.000384	20.766376
1983.536097	-3.013200	3.228600	-9.727100	27.270970	0.000384	20.799967
1984.541382	-2.993400	3.231000	-9.670900	27.251595	0.000384	20.791857
1985.539212	-2.992000	3.230200	-9.663800	27.233633	0.000384	20.768100
1986.539031	-3.011800	3.230600	-9.729000	27.292789	0.000384	20.801052
1987.548739	-2.971500	3.229100	-9.593000	27.330987	0.000382	20.784474
1988.540980	-3.002200	3.227200	-9.688200	27.362274	0.000381	20.799352
1989.540888	-3.019300	3.227800	-9.744100	27.382811	0.000380	20.784450
1990.547716	-3.006400	3.226100	-9.698300	27.385547	0.000380	20.789574
1991.542628	-3.000300	3.225400	-9.675700	27.359900	0.000379	20.794118
1992.543382	-3.004400	3.226000	-9.691200	27.373495	0.000380	20.782665
1993.545203	-3.000500	3.228300	-9.685800	27.427666	0.000377	20.788798
1994.541787	-3.004500	3.225700	-9.690700	27.427599	0.000377	20.798688
1995.543715	-3.007400	3.226100	-9.701500	27.464606	0.000377	20.775700
1996.543081	-3.016500	3.223400	-9.721800	27.490680	0.000378	20.781544
1997.546608	-3.009700	3.224200	-9.702800	27.538725	0.000375	20.781046
1998.546876	-2.982000	3.223800	-9.611600	27.536058	0.000376	20.797802
1999.544776	-2.992400	3.223000	-9.643900	27.489891	0.000374	20.774586
2000.546002	-2.973700	3.224400	-9.586000	27.445669	0.000373	20.787943
2001.552439	-2.996900	3.223000	-9.658300	27.411557	0.000370	20.775436
2002.547278	-3.014000	3.223300	-9.713600	27.423420	0.000375	20.779310
2003.549013	-2.996500	3.222800	-9.656200	27.442597	0.000372	20.778214
2004.547893	-2.989200	3.223400	-9.634100	27.436047	0.000370	20.771625
2005.548015	-3.036100	3.221400	-9.779100	27.415628	0.000371	20.777635
2006.554547	-2.996600	3.221000	-9.650700	27.401617	0.000368	20.784877
2007.548923	-3.002300	3.218900	-9.663200	27.432846	0.000369	20.762240
2008.549653	-2.994700	3.219700	-9.641000	27.489035	0.000367	20.783683
2009.549269	-2.995800	3.220600	-9.647300	27.511583	0.000365	20.764642
2010.548480	-3.009400	3.218600	-9.684900	27.500670	0.000365	20.791121
2011.549992	-3.015900	3.217500	-9.702400	27.475968	0.000364	20.772907
2012.548857	-2.998700	3.217000	-9.645600	27.481899	0.000364	20.762752
2013.548104	-3.012100	3.218500	-9.693200	27.496240	0.000363	20.775758
2014.548648	-3.009400	3.216500	-9.678500	27.465697	0.000361	20.782962
2015.550529	-3.002100	3.216600	-9.655500	27.403613	0.000362	20.749426
2016.553559	-2.999700	3.216800	-9.647800	27.391739	0.000361	20.783949
2017.550289	-3.004800	3.215400	-9.660900	27.408235	0.000361	20.779681
2018.553349	-3.008900	3.214700	-9.671300	27.400719	0.000360	20.759317
2019.553045	-3.008600	3.214400	-9.669400	27.404269	0.000359	20.753405
2020.552925	-3.037600	3.213600	-9.759700	27.354332	0.000359	20.761491
2021.553122	-3.002100	3.213100	-9.643700	27.355006	0.000359	20.740357
2022.556498	-3.011300	3.212300	-9.671600	27.402531	0.000356	20.763510
2023.557114	-2.982700	3.213500	-9.583500	27.408396	0.000358	20.745702
2024.557947	-3.020000	3.212300	-9.699600	27.411401	0.000356	20.756787
2025.559133	-3.005600	3.211600	-9.651600	27.469648	0.000356	20.766074
2026.557322	-2.991100	3.211700	-9.604900	27.508495	0.000354	20.749207
2027.553405	-2.984300	3.211400	-9.582300	27.521244	0.000354	20.770569
2028.556874	-3.010900	3.210500	-9.665700	27.558774	0.000351	20.773242
2029.555581	-2.994500	3.210800	-9.614100	27.591639	0.000353	20.752730
2030.553273	-3.009800	3.208900	-9.657500	27.604362	0.000351	20.764584
2031.554869	-2.996500	3.211600	-9.623000	27.659446	0.000350	20.757422
2032.552352	-2.988500	3.212200	-9.598600	27.684255	0.000348	20.768163
2033.559537	-2.995100	3.208700	-9.609500	27.702307	0.000347	20.768310
2034.552945	-2.984600	3.209900	-9.578400	27.728205	0.000347	20.761654
2035.555915	-3.002800	3.206900	-9.628400	27.730543	0.000346	20.761636
2036.555156	-3.008000	3.206200	-9.643500	27.698925	0.000347	20.763958
2037.558066	-3.000000	3.208100	-9.623200	27.694628	0.000346	20.754893
2038.559653	-3.016000	3.205700	-9.667500	27.725618	0.000345	20.752412
2039.556080	-2.998100	3.205600	-9.609900	27.747041	0.000344	20.743150
2040.559765	-3.025400	3.204500	-9.693300	27.746869	0.000343	20.756255
2041.560090	-2.995400	3.206700	-9.604300	27.712651	0.000344	20.756434
2042.560097	-3.019200	3.204400	-9.673200	27.675947	0.000342	20.762647
2043.556567	-3.001400	3.204700	-9.617600	27.632627	0.000339	20.735651
2044.563667	-3.005200	3.204000	-9.627400	27.658415	0.000340	20.741211
2045.558509	-3.007000	3.202300	-9.628200	27.615321	0.000340	20.759489
2046.558601	-3.003900	3.203400	-9.622200	27.573234	0.000338	20.762187
2047.564857	-2.999000	3.202700	-9.604100	27.547835	0.000337	20.744692
2048.560921	-2.997200	3.202200	-9.596900	27.517447	0.000337	20.753947
2049.561279	-3.001200	3.200700	-9.604800	27.480468	0.000338	20.751829
2050.567254	-2.980500	3.200800	-9.538900	27.451027	0.000335	20.742124
2051.561395	-2.990800	3.202200	-9.575100	27.453635	0.000335	20.763714
2052.558491	-2.999800	3.200400	-9.599300	27.481612	0.000334	20.735436
2053.558399	-3.007500	3.200800	-9.625900	27.513966	0.000332	20.741909
2054.562534	-2.990400	3.199600	-9.567200	27.534158	0.000331	20.767915
2055.558895	-2.998400	3.200100	-9.594500	27.545346	0.000332	20.755464
2056.562508	-3.002600	3.197500	-9.600200	27.587654	0.000332	20.747772
2057.564080	-3.003800	3.199400	-9.609900	27.631883	0.000331	20.721151
2058.563182	-3.006100	3.196200	-9.607600	27.636221	0.000329	20.732629
2059.560651	-3.018300	3.196100	-9.645800	27.590537	0.000328	20.748776
2060.561333	-3.005700	3.195900	-9.604700	27.592226	0.000328	20.736725
2061.560326	-2.997400	3.196500	-9.580200	27.585182	0.000327	20.740069
2062.562413	-3.000000	3.196400	-9.588700	27.630891	0.000325	20.743388
2063.562646	-2.986900	3.197100	-9.547900	27.651063	0.000325	20.726226
2064.563327	-3.000000	3.195600	-9.586100	27.703813	0.000326	20.733788
2065.559820	-3.004400	3.194100	-9.594900	27.762232	0.000325	20.728091
2066.563630	-2.978600	3.194400	-9.513100	27.798022	0.000322	20.723806
2067.562715	-2.979800	3.192600	-9.512000	27.817607	0.000323	20.738302
2068.568204	-3.013100	3.192400	-9.618500	27.791468	0.000324	20.735228
2069.565952	-2.963400	3.193300	-9.461600	27.709565	0.000320	20.722506
2070.564684	-3.010300	3.191200	-9.604300	27.693048	0.000320	20.725801
2071.565088	-2.989900	3.190900	-9.538900	27.683576	0.000318	20.735709
2072.561808	-3.031400	3.189300	-9.666900	27.685436	0.000318	20.730469
2073.565254	-3.015700	3.189900	-9.619200	27.653101	0.000319	20.719267
2074.562113	-3.012000	3.190100	-9.607600	27.666588	0.000318	20.733314
2075.561574	-3.027400	3.189100	-9.653400	27.694707	0.000317	20.714666
2076.562736	-3.028400	3.188700	-9.656000	27.718168	0.000317	20.723577
2077.566778	-3.003800	3.186800	-9.570600	27.752393	0.000314	20.739527
2078.563097	-3.005400	3.188900	-9.582200	27.769777	0.000315	20.717192
2079.562885	-3.019200	3.186100	-9.618100	27.770897	0.000314	20.742976
2080.567517	-2.998100	3.188200	-9.556900	27.811563	0.000313	20.739805
2081.564119	-3.045700	3.185500	-9.701100	27.832115	0.000315	20.729668
2082.568825	-3.005600	3.186600	-9.576400	27.860909	0.000310	20.729724
2083.567761	-3.012000	3.185600	-9.593800	27.833626	0.000312	20.720757
2084.565917	-2.996600	3.183400	-9.538300	27.826014	0.000310	20.719261
2085.566332	-2.982900	3.186200	-9.501900	27.812125	0.000308	20.727094
2086.568381	-3.009600	3.184500	-9.583000	27.800475	0.000309	20.715369
2087.566176	-2.994900	3.183000	-9.532300	27.778233	0.000309	20.722383
2088.564670	-2.994500	3.183300	-9.529400	27.765285	0.000308	20.720258
2089.567325	-3.012900	3.181600	-9.584500	27.818103	0.000306	20.723152
2090.566849	-3.009600	3.180600	-9.570400	27.806600	0.000304	20.722007
2091.569527	-3.001600	3.181800	-9.549900	27.838613	0.000305	20.725776
2092.567446	-3.012100	3.182800	-9.585000	27.850538	0.000307	20.695576
2093.567317	-3.032000	3.180700	-9.642900	27.826363	0.000307	20.721509
2094.566918	-3.010800	3.179900	-9.572500	27.812254	0.000302	20.712049
2095.573150	-2.971500	3.180800	-9.450500	27.821003	0.000302	20.727968
2096.569286	-3.021500	3.179000	-9.605100	27.785043	0.000302	20.722598
2097.568490	-2.994600	3.179200	-9.519500	27.740436	0.000301	20.714217
2098.568649	-2.987700	3.182700	-9.507400	27.722287	0.000302	20.720135
2099.568700	-3.005700	3.178200	-9.551100	27.734537	0.000300	20.731041
2100.568536	-2.979200	3.179400	-9.470700	27.762727	0.000299	20.717684
2101.569925	-3.010100	3.175700	-9.558000	27.803491	0.000299	20.723146
2102.573547	-2.994500	3.176400	-9.510200	27.804489	0.000298	20.717037
2103.570170	-2.994900	3.176600	-9.512500	27.819663	0.000296	20.713342
2104.572286	-3.007400	3.176500	-9.550500	27.824123	0.000296	20.718780
2105.570486	-3.013000	3.174200	-9.563200	27.759698	0.000295	20.718903
2106.573133	-3.007800	3.175400	-9.550600	27.755758	0.000294	20.718256
2107.570551	-2.986300	3.175100	-9.481300	27.748959	0.000296	20.707621
2108.573332	-2.990700	3.174600	-9.493300	27.759925	0.000293	20.683092
2109.574994	-3.003100	3.173200	-9.528600	27.781371	0.000292	20.714635
2110.570761	-3.012300	3.171600	-9.553000	27.798577	0.000293	20.711087
2111.573298	-2.992000	3.171900	-9.489500	27.767090	0.000291	20.703581
2112.574204	-2.993400	3.170300	-9.487800	27.775742	0.000291	20.712763
2113.574386	-2.990200	3.170800	-9.479300	27.803906	0.000288	20.700329
2114.573662	-2.982800	3.170500	-9.456400	27.818292	0.000288	20.702004
2115.572653	-2.996800	3.169900	-9.498900	27.874656	0.000288	20.704203
2116.575114	-2.992000	3.170900	-9.486000	27.899024	0.000287	20.693167
2117.575526	-2.994400	3.168500	-9.486900	27.881869	0.000285	20.685383
2118.575965	-2.993900	3.168600	-9.485900	27.895953	0.000287	20.728959
2119.581599	-3.002200	3.168600	-9.511400	27.875218	0.000286	20.718994
2120.574338	-3.016400	3.165100	-9.545900	27.870109	0.000285	20.720016
2121.573224	-2.972200	3.167800	-9.413700	27.861304	0.000283	20.719216
2122.576878	-3.009200	3.166700	-9.527600	27.834953	0.000283	20.710712
2123.578016	-3.014400	3.165100	-9.538900	27.816920	0.000282	20.716746
2124.576652	-3.009200	3.165500	-9.524000	27.804817	0.000281	20.702194
2125.578951	-3.014700	3.164900	-9.540300	27.777100	0.000281	20.710810
2126.582565	-2.995900	3.163600	-9.477400	27.818554	0.000280	20.727874
2127.578368	-3.011000	3.161500	-9.518100	27.824752	0.000278	20.707084
2128.578477	-2.991400	3.163800	-9.462600	27.856569	0.000280	20.705914
2129.577039	-2.988300	3.163400	-9.452200	27.900853	0.000279	20.733417
2130.579410	-3.004400	3.163100	-9.502200	27.870304	0.000277	20.714997
2131.581281	-3.030200	3.161300	-9.578300	27.841695	0.000276	20.696634
2132.583794	-3.001500	3.161600	-9.487100	27.788547	0.000275	20.729444
2133.578224	-2.987800	3.160200	-9.441300	27.776175	0.000274	20.711302
2134.582168	-2.994700	3.161600	-9.466000	27.763803	0.000274	20.726353
2135.578378	-2.999200	3.158700	-9.472900	27.719286	0.000274	20.730392
2136.580398	-2.982800	3.159200	-9.421500	27.724095	0.000274	20.711049
2137.578884	-2.993300	3.158400	-9.453600	27.754250	0.000273	20.728120
2138.579009	-3.007400	3.155900	-9.489800	27.786565	0.000272	20.735036
2139.580098	-2.998200	3.155600	-9.460100	27.806995	0.000272	20.709602
2140.583117	-3.018900	3.157000	-9.529800	27.793632	0.000270	20.726026
2141.584739	-3.003100	3.156300	-9.476900	27.722682	0.000267	20.712472
2142.586460	-2.999500	3.154300	-9.460400	27.682380	0.000271	20.706055
2143.580504	-3.003400	3.154400	-9.473200	27.648655	0.000268	20.701991
2144.589520	-3.011200	3.153200	-9.492200	27.664058	0.000269	20.724604
2145.582479	-2.991900	3.153100	-9.432800	27.717792	0.000268	20.714664
2146.580707	-2.981200	3.152500	-9.397300	27.749619	0.000266	20.723933
2147.585547	-2.987600	3.154100	-9.422400	27.754893	0.000267	20.731137
2148.581316	-2.984000	3.154100	-9.411400	27.726867	0.000265	20.726167
2149.580949	-3.022000	3.150000	-9.518000	27.701374	0.000266	20.721376
2150.585653	-2.980000	3.151000	-9.388200	27.673476	0.000263	20.722700
2151.581625	-2.992600	3.150000	-9.425400	27.688278	0.000263	20.737123
2152.580173	-3.019200	3.149400	-9.507200	27.694282	0.000264	20.709497
2153.582297	-2.998600	3.149400	-9.443100	27.718752	0.000265	20.729381
2154.587220	-2.996300	3.150000	-9.436500	27.702763	0.000261	20.718032
2155.584900	-3.004900	3.147000	-9.455200	27.727949	0.000264	20.728679
2156.582716	-3.004600	3.146600	-9.453300	27.764058	0.000259	20.722817
2157.584099	-3.013100	3.145700	-9.477000	27.797381	0.000258	20.724109
2158.590510	-3.022600	3.143700	-9.501500	27.787683	0.000261	20.718142
2159.580579	-2.999300	3.145600	-9.433500	27.807673	0.000257	20.723087
2160.584648	-3.013500	3.143800	-9.472000	27.772037	0.000258	20.732743
2161.589318	-2.994600	3.143200	-9.411300	27.790907	0.000256	20.719965
2162.583578	-2.979500	3.143900	-9.367100	27.758097	0.000255	20.726776
2163.592753	-3.006900	3.143500	-9.451100	27.778308	0.000256	20.731942
2164.592425	-3.035200	3.141100	-9.532200	27.813816	0.000256	20.732115
2165.588044	-2.984900	3.143000	-9.380300	27.857086	0.000255	20.725402
2166.586519	-3.007200	3.139100	-9.438400	27.898366	0.000253	20.717636
2167.585764	-3.002200	3.140000	-9.426500	27.921855	0.000253	20.736062
2168.589869	-3.016400	3.138200	-9.465300	27.911459	0.000254	20.737454
2169.586646	-3.007100	3.137900	-9.435200	27.892022	0.000253	20.745866
2170.588485	-3.005000	3.138300	-9.429400	27.912904	0.000250	20.743175
2171.588288	-2.998700	3.136300	-9.402900	27.926143	0.000250	20.734215
2172.587139	-3.006800	3.137000	-9.431300	27.936280	0.000250	20.744419
2173.588867	-2.992300	3.136900	-9.385500	27.929061	0.000250	20.743316
2174.588592	-2.969400	3.137200	-9.315000	27.956537	0.000248	20.750109
2175.586615	-2.971300	3.137100	-9.318200	27.958892	0.000249	20.720235
2176.586815	-2.987000	3.134500	-9.361600	27.930174	0.000246	20.732582
2177.589383	-2.991900	3.134900	-9.377900	27.939198	0.000248	20.733130
2178.589620	-2.999000	3.132900	-9.393500	27.976909	0.000245	20.729835
2179.587760	-2.999500	3.132700	-9.396300	27.967389	0.000246	20.732108
2180.590042	-2.978900	3.131100	-9.326500	28.008616	0.000246	20.736621
2181.587533	-3.018500	3.131000	-9.450000	28.049555	0.000245	20.746063
2182.589144	-3.028300	3.128900	-9.474700	28.073449	0.000246	20.735027
2183.589746	-3.010800	3.129100	-9.419700	28.108182	0.000244	20.743913
2184.588293	-2.993400	3.129100	-9.365200	28.147990	0.000244	20.746530
2185.588757	-3.014900	3.128000	-9.430500	28.176054	0.000243	20.755342
2186.593102	-3.004200	3.128100	-9.396800	28.179748	0.000242	20.754794
2187.589048	-3.016700	3.126500	-9.430600	28.220813	0.000241	20.739713
2188.589054	-2.996300	3.126400	-9.366800	28.200269	0.000242	20.745107
2189.594647	-3.009100	3.125600	-9.404100	28.192684	0.000242	20.731307
2190.591085	-3.011100	3.123700	-9.404700	28.213585	0.000241	20.756617
2191.589845	-2.981500	3.126400	-9.320800	28.191847	0.000241	20.747060
2192.591777	-2.985300	3.124300	-9.325500	28.193260	0.000239	20.748957
2193.590993	-2.963900	3.123300	-9.255300	28.214802	0.000239	20.737454
2194.592809	-2.969300	3.122200	-9.269600	28.197914	0.000238	20.754591
2195.592302	-2.993400	3.120200	-9.338600	28.154884	0.000237	20.752996
2196.599395	-2.973000	3.122200	-9.280700	28.087084	0.000237	20.739744
2197.597800	-3.001300	3.119700	-9.362300	28.106744	0.000237	20.735353
2198.595766	-2.984200	3.118900	-9.305000	28.065992	0.000236	20.765454
2199.598134	-2.982000	3.117600	-9.294400	28.050846	0.000235	20.725550
2200.593317	-3.004600	3.117700	-9.365300	28.018093	0.000233	20.755170
2201.594115	-3.000400	3.116600	-9.350100	28.008867	0.000235	20.754893
2202.594979	-2.999200	3.116000	-9.344200	28.033460	0.000234	20.760681
2203.594476	-2.989600	3.114100	-9.309000	28.103398	0.000235	20.742417
2204.599763	-3.001000	3.114300	-9.345000	28.118941	0.000231	20.761858
2205.598879	-3.003600	3.113600	-9.351000	28.136191	0.000234	20.749350
2206.597157	-3.033100	3.111900	-9.438000	28.163539	0.000235	20.740847
2207.598188	-2.996200	3.112700	-9.323700	28.185375	0.000233	20.769469
2208.599975	-3.003500	3.110900	-9.342100	28.228746	0.000232	20.754338
2209.597918	-2.988200	3.110900	-9.294700	28.224239	0.000230	20.742687
2210.598376	-2.994300	3.110400	-9.312900	28.205945	0.000230	20.767892
2211.600785	-2.997700	3.109400	-9.320200	28.233603	0.000230	20.749270
2212.597387	-3.018100	3.108900	-9.382000	28.262955	0.000228	20.753692
2213.596265	-2.992200	3.107700	-9.297300	28.235486	0.000228	20.757331
2214.596307	-3.010400	3.107000	-9.351100	28.201902	0.000230	20.769986
2215.601165	-2.999300	3.105300	-9.312500	28.183907	0.000228	20.763249
2216.597187	-2.977800	3.105900	-9.247200	28.222691	0.000227	20.751086
2217.598958	-3.007600	3.105200	-9.338900	28.195252	0.000226	20.751911
2218.600884	-2.995800	3.104700	-9.300100	28.215804	0.000227	20.739885
2219.599976	-3.008000	3.101600	-9.327500	28.225272	0.000225	20.753211
2220.600495	-3.005900	3.102800	-9.325200	28.204574	0.000224	20.757977
2221.603923	-2.988900	3.103100	-9.273700	28.230955	0.000227	20.761777
2222.604672	-2.998600	3.101800	-9.299900	28.230459	0.000224	20.766494
2223.604230	-2.995200	3.100100	-9.284300	28.239181	0.000224	20.754886
2224.606121	-2.976600	3.099800	-9.225300	28.237450	0.000223	20.777800
2225.604964	-2.976600	3.098600	-9.221200	28.211921	0.000223	20.768693
2226.605361	-2.998600	3.097800	-9.288300	28.176249	0.000223	20.757910
2227.610038	-2.997500	3.097400	-9.283800	28.157759	0.000223	20.772960
2228.604702	-2.991000	3.097500	-9.263200	28.166585	0.000221	20.781372
2229.605368	-2.979800	3.096900	-9.226900	28.178611	0.000222	20.772616
2230.605659	-3.006700	3.094900	-9.304000	28.191351	0.000221	20.765054
2231.607258	-2.991400	3.094700	-9.256400	28.190734	0.000221	20.772967
2232.606573	-2.988300	3.093400	-9.243500	28.229531	0.000219	20.771724
2233.609070	-3.006500	3.092100	-9.295400	28.262148	0.000221	20.787494
2234.610965	-2.987900	3.092900	-9.240300	28.284013	0.000220	20.763989
2235.610369	-3.020100	3.090400	-9.332700	28.326225	0.000220	20.753385
2236.609386	-3.001400	3.089000	-9.270500	28.368484	0.000222	20.773652
2237.615684	-3.011300	3.088900	-9.300800	28.393093	0.000219	20.774723
2238.612678	-2.972600	3.090200	-9.183500	28.418820	0.000220	20.772654
2239.611804	-3.002900	3.088600	-9.274100	28.429845	0.000218	20.766213
2240.614461	-2.976700	3.088800	-9.193400	28.408063	0.000217	20.762770
2241.613792	-2.978600	3.085900	-9.190200	28.419964	0.000218	20.764797
2242.610425	-3.001100	3.084300	-9.255300	28.450099	0.000217	20.793721
2243.612301	-2.962200	3.084700	-9.136400	28.451616	0.000217	20.779127
2244.620484	-3.002500	3.083800	-9.257500	28.396476	0.000216	20.767224
2245.612733	-3.003600	3.081900	-9.254500	28.399852	0.000215	20.785322
2246.614668	-2.997200	3.080300	-9.230800	28.358829	0.000215	20.781947
2247.615340	-2.979900	3.082700	-9.184700	28.343638	0.000216	20.787514
2248.615277	-3.004000	3.079400	-9.249700	28.331101	0.000216	20.781529
2249.616125	-3.027200	3.077600	-9.315800	28.325395	0.000215	20.783370
2250.620568	-3.001400	3.076800	-9.233900	28.274242	0.000214	20.787342
2251.619565	-2.973400	3.077400	-9.148700	28.226554	0.000215	20.793857
2252.618620	-3.027300	3.075800	-9.309200	28.254047	0.000213	20.786450
2253.624099	-3.007400	3.075800	-9.249500	28.298266	0.000213	20.784030
2254.619594	-2.960900	3.075900	-9.106100	28.331952	0.000216	20.780489
2255.619035	-2.996800	3.073800	-9.209700	28.351332	0.000214	20.801900
2256.623739	-2.993300	3.071700	-9.192600	28.379562	0.000214	20.783857
2257.626508	-2.996600	3.072200	-9.205200	28.439534	0.000214	20.793039
2258.620243	-2.984600	3.070600	-9.162600	28.459010	0.000212	20.798426
2259.625385	-2.995800	3.069400	-9.194100	28.418456	0.000214	20.796470
2260.624300	-2.982000	3.067300	-9.145900	28.350122	0.000211	20.792146
2261.619747	-3.019100	3.066500	-9.257300	28.315728	0.000212	20.802086
2262.621644	-3.041400	3.065000	-9.319800	28.279564	0.000211	20.787485
2263.622648	-2.994900	3.064900	-9.178400	28.291760	0.000210	20.792652
2264.619847	-3.003800	3.063000	-9.199500	28.334815	0.000211	20.785743
2265.620907	-3.022400	3.062700	-9.255300	28.362770	0.000208	20.791605
2266.618557	-2.994500	3.061900	-9.168600	28.356630	0.000211	20.798700
2267.618124	-3.014700	3.061100	-9.226800	28.326088	0.000209	20.792603
2268.617462	-3.000700	3.061200	-9.184400	28.316725	0.000209	20.796926
2269.619537	-2.987800	3.060500	-9.142700	28.350264	0.000210	20.771427
2270.619512	-3.004000	3.057700	-9.184100	28.367485	0.000208	20.812000
2271.618698	-2.977900	3.058200	-9.106400	28.440245	0.000210	20.789487
2272.622858	-3.022800	3.056600	-9.236900	28.459208	0.000210	20.792462
2273.624750	-3.021300	3.053600	-9.224300	28.499034	0.000209	20.801274
2274.619291	-3.013400	3.055200	-9.204500	28.515147	0.000209	20.796163
2275.622927	-2.999800	3.054000	-9.159900	28.522583	0.000209	20.795117
2276.620989	-3.020800	3.051700	-9.217600	28.543054	0.000208	20.809569
2277.621660	-3.007700	3.050300	-9.173700	28.526178	0.000207	20.806798
2278.620765	-3.028900	3.050100	-9.237200	28.511625	0.000205	20.796884
2279.623306	-2.989000	3.050400	-9.116800	28.476221	0.000206	20.791102
2280.631008	-3.001100	3.048900	-9.149200	28.456892	0.000207	20.792026
2281.622860	-3.012700	3.047000	-9.179000	28.442271	0.000208	20.790579
2282.622880	-3.030000	3.045900	-9.228000	28.430053	0.000209	20.803880
2283.620549	-3.019400	3.044800	-9.192600	28.486977	0.000207	20.803830
2284.621398	-2.995100	3.044400	-9.117600	28.517508	0.000208	20.794274
2285.629184	-2.988400	3.044400	-9.096500	28.536103	0.000206	20.789767
2286.623277	-3.002500	3.041700	-9.131500	28.576862	0.000208	20.803788
2287.625395	-3.009500	3.041800	-9.153400	28.613290	0.000206	20.795432
2288.632097	-3.018800	3.039600	-9.175100	28.609500	0.000205	20.812477
2289.624879	-2.980000	3.040800	-9.061100	28.576966	0.000205	20.791091
2290.626545	-2.985900	3.038000	-9.068500	28.555633	0.000205	20.818918
2291.632417	-2.996900	3.036000	-9.098200	28.513846	0.000205	20.807181
2292.633314	-2.991100	3.036300	-9.080800	28.487583	0.000205	20.813450
2293.627805	-3.010300	3.032800	-9.129200	28.486617	0.000205	20.805839
2294.628257	-2.962300	3.033400	-8.984800	28.502779	0.000205	20.803149
2295.631086	-3.002400	3.031100	-9.100000	28.534942	0.000204	20.825581
2296.629130	-2.965800	3.032500	-8.992600	28.570797	0.000205	20.822336
2297.626223	-3.016400	3.030300	-9.139600	28.572827	0.000204	20.795931
2298.629772	-2.975600	3.028800	-9.010800	28.575529	0.000203	20.807662
2299.630620	-3.022800	3.026200	-9.146400	28.581154	0.000205	20.826129
2300.628264	-3.001500	3.025300	-9.080000	28.647113	0.000204	20.829971
2301.630021	-2.986900	3.024100	-9.032300	28.665790	0.000205	20.807532
2302.629875	-2.989300	3.024100	-9.037700	28.716565	0.000204	20.826905
2303.631061	-3.007800	3.023300	-9.091600	28.746643	0.000205	20.810261
2304.630136	-2.985400	3.021500	-9.019000	28.731457	0.000205	20.820569
2305.631934	-3.024600	3.020400	-9.133900	28.679083	0.000204	20.826610
2306.629304	-3.024700	3.019200	-9.130600	28.656755	0.000202	20.817398
2307.632454	-3.007100	3.018500	-9.075700	28.610643	0.000202	20.812681
2308.632440	-3.009400	3.017000	-9.078900	28.529048	0.000206	20.827232
2309.630831	-3.015900	3.015100	-9.090700	28.500149	0.000203	20.803345
2310.632763	-3.003400	3.014100	-9.051700	28.525947	0.000202	20.799928
2311.633060	-2.962800	3.015600	-8.934200	28.489767	0.000203	20.850735
2312.636843	-3.032800	3.010500	-9.128500	28.480154	0.000201	20.828728
2313.636464	-2.982100	3.011300	-8.978500	28.457847	0.000202	20.834238
2314.641015	-3.033000	3.009600	-9.127500	28.463943	0.000200	20.814774
2315.639165	-2.983800	3.008900	-8.976500	28.478540	0.000204	20.836110
2316.634616	-3.003500	3.006600	-9.029600	28.501733	0.000203	20.830070
2317.649578	-2.986500	3.007900	-8.982300	28.531468	0.000202	20.838204
2318.634477	-3.012000	3.004000	-9.046600	28.567599	0.000203	20.835236
2319.636156	-2.982100	3.004600	-8.958600	28.608460	0.000201	20.826603
2320.639986	-3.008200	3.001700	-9.029000	28.626765	0.000202	20.836978
2321.637028	-3.008900	3.001200	-9.029300	28.691860	0.000203	20.835685
2322.636183	-2.995300	2.998900	-8.980900	28.722556	0.000201	20.838155
2323.637120	-2.984300	2.997800	-8.944900	28.749753	0.000201	20.831886
2324.637873	-3.016100	2.995300	-9.033200	28.798585	0.000200	20.848831
2325.638963	-3.014600	2.994600	-9.027200	28.801256	0.000203	20.855789
2326.638551	-3.051200	2.992100	-9.128400	28.819840	0.000201	20.851750
2327.639654	-2.993500	2.992500	-8.956800	28.799374	0.000200	20.843462
2328.639361	-2.980500	2.992800	-8.918000	28.817877	0.000198	20.846454
2329.639614	-3.013800	2.989600	-9.008800	28.783889	0.000201	20.843037
2330.636901	-2.986500	2.988700	-8.923300	28.780716	0.000199	20.834625
2331.638486	-3.001700	2.987100	-8.965700	28.753690	0.000201	20.846756
2332.638174	-2.977700	2.986800	-8.892100	28.802076	0.000200	20.849977
2333.638243	-2.977500	2.984800	-8.886400	28.807706	0.000200	20.839528
2334.639909	-2.993200	2.983200	-8.928000	28.809534	0.000200	20.844687
2335.643096	-2.982400	2.982900	-8.895700	28.786762	0.000199	20.851146
2336.639057	-3.022100	2.979300	-9.002600	28.773394	0.000201	20.829620
2337.644626	-3.021900	2.978100	-8.999100	28.781591	0.000199	20.871066
2338.640265	-2.981500	2.978300	-8.878600	28.801110	0.000198	20.858486
2339.645511	-2.985800	2.977200	-8.888400	28.779702	0.000199	20.843560
2340.639948	-3.009500	2.975900	-8.955200	28.761943	0.000200	20.838948
2341.639306	-3.017800	2.971800	-8.967500	28.751912	0.000198	20.855870
2342.641080	-2.995200	2.972300	-8.901700	28.755078	0.000200	20.839145
2343.639184	-2.992400	2.969700	-8.885100	28.758202	0.000199	20.863628
2344.641337	-2.983100	2.969800	-8.857800	28.734659	0.000201	20.850345
2345.642370	-3.011000	2.969100	-8.939700	28.695441	0.000197	20.857310
2346.640480	-2.995800	2.966200	-8.885600	28.655378	0.000199	20.872433
2347.649020	-2.990300	2.963800	-8.860800	28.614389	0.000199	20.857703
2348.640876	-2.990200	2.964300	-8.861700	28.645656	0.000200	20.867857
2349.640680	-3.026500	2.961700	-8.962700	28.659235	0.000199	20.859723
2350.649375	-3.012900	2.959600	-8.916200	28.726033	0.000198	20.868208
2351.640685	-3.006200	2.959200	-8.895300	28.778136	0.000200	20.868534
2352.644561	-2.992100	2.957200	-8.847500	28.744911	0.000199	20.847395
2353.643372	-2.988400	2.956600	-8.834200	28.719589	0.000197	20.852235
2354.646621	-3.005700	2.953400	-8.875400	28.703413	0.000199	20.872925
2355.642884	-2.992100	2.953000	-8.833400	28.768293	0.000200	20.861465
2356.649246	-2.986200	2.952800	-8.816900	28.820095	0.000197	20.878084
2357.645734	-3.019500	2.947800	-8.900000	28.851436	0.000197	20.880732
2358.646350	-2.992000	2.949700	-8.824000	28.838605	0.000197	20.868282
2359.647849	-2.992600	2.946600	-8.817300	28.791634	0.000198	20.881181
2360.646821	-2.990100	2.946400	-8.809100	28.765867	0.000197	20.883201
2361.645608	-3.003000	2.942600	-8.836000	28.756110	0.000194	20.883805
2362.644512	-2.998800	2.942400	-8.822900	28.751379	0.000197	20.874772
2363.649952	-2.998500	2.941200	-8.817800	28.798896	0.000198	20.857679
2364.645353	-2.980900	2.937900	-8.757000	28.829662	0.000200	20.874919
2365.644721	-3.005900	2.936900	-8.827100	28.855916	0.000199	20.866754
2366.649128	-2.996000	2.934000	-8.789000	28.881656	0.000198	20.863288
2367.643560	-3.028900	2.933600	-8.884600	28.884139	0.000199	20.875271
2368.643274	-3.012300	2.932900	-8.833400	28.834693	0.000200	20.873824
2369.644771	-3.015000	2.929900	-8.831400	28.812100	0.000198	20.853910
2370.644336	-3.005400	2.928400	-8.799900	28.778729	0.000199	20.873399
2371.644176	-2.975100	2.929300	-8.712100	28.789806	0.000198	20.866065
2372.643495	-3.008200	2.924900	-8.797100	28.790124	0.000198	20.853110
2373.644732	-3.018700	2.922000	-8.819200	28.759259	0.000197	20.846675
2374.643745	-3.000800	2.923300	-8.771500	28.754723	0.000195	20.874821
2375.644271	-2.998600	2.920700	-8.757000	28.791072	0.000199	20.853591
2376.647800	-3.015800	2.919100	-8.803100	28.850843	0.000198	20.848842
2377.644785	-2.999200	2.917200	-8.748100	28.880185	0.000197	20.860383
2378.644556	-3.026900	2.915400	-8.822100	28.862195	0.000197	20.839890
2379.649060	-3.013100	2.914200	-8.779700	28.847604	0.000199	20.838942
2380.645589	-3.005100	2.911900	-8.749800	28.832193	0.000198	20.858504
2381.645496	-3.011900	2.910200	-8.763700	28.856522	0.000195	20.852193
2382.649533	-3.031000	2.908300	-8.814600	28.897526	0.000198	20.852249
2383.647770	-3.026800	2.905400	-8.792900	28.928087	0.000197	20.841786
2384.646429	-3.015000	2.905400	-8.758700	28.953453	0.000197	20.845056
2385.651886	-2.999400	2.903900	-8.708600	28.923931	0.000198	20.841867
2386.648956	-3.011700	2.900400	-8.734800	28.912709	0.000196	20.829139
2387.647120	-2.991800	2.901200	-8.679200	28.926951	0.000197	20.846805
2388.648874	-2.986900	2.899400	-8.659500	28.944737	0.000197	20.838172
2389.647562	-3.014900	2.895800	-8.729600	28.971448	0.000196	20.847065
2390.647859	-3.001600	2.896100	-8.691700	28.985462	0.000196	20.828468
2391.648394	-3.013300	2.893400	-8.716600	29.013674	0.000198	20.839823
2392.650913	-3.010200	2.891000	-8.700900	29.008076	0.000199	20.827545
2393.650525	-3.021500	2.888300	-8.725900	29.039460	0.000195	20.848259
2394.652357	-2.990400	2.887600	-8.634100	29.073074	0.000195	20.839928
2395.651886	-3.033400	2.884800	-8.750300	29.053999	0.000196	20.839201
2396.650205	-2.997000	2.883800	-8.642300	29.000375	0.000197	20.828321
2397.651668	-2.987100	2.882000	-8.607700	28.936663	0.000195	20.830512
2398.652056	-2.994500	2.878700	-8.619400	28.865325	0.000196	20.826923
2399.651793	-3.030700	2.876300	-8.716900	28.822940	0.000195	20.824053
2400.652125	-3.012000	2.874400	-8.657300	28.762177	0.000197	20.841080
2401.653719	-2.975100	2.875900	-8.553900	28.716582	0.000195	20.812698
2402.655282	-3.010300	2.871700	-8.643500	28.710121	0.000192	20.824682
2403.658394	-2.982900	2.871800	-8.565200	28.755360	0.000197	20.827102
2404.653504	-2.975300	2.869000	-8.535300	28.761155	0.000193	20.803542
2405.653760	-3.058300	2.864800	-8.760200	28.810524	0.000195	20.827193
2406.653112	-2.986400	2.865700	-8.556100	28.833173	0.000194	20.807335
2407.654649	-2.992000	2.863900	-8.568000	28.844738	0.000195	20.820882
2408.662621	-2.999600	2.860800	-8.578900	28.865050	0.000194	20.821904
2409.659884	-3.020900	2.858800	-8.635400	28.875656	0.000195	20.825950
2410.657899	-2.999900	2.856500	-8.568300	28.917855	0.000195	20.818202
2411.659280	-3.051300	2.852100	-8.701100	28.945556	0.000195	20.817661
2412.659152	-3.006900	2.850900	-8.571500	28.930043	0.000193	20.801558
2413.658435	-3.033000	2.848700	-8.638600	28.931803	0.000193	20.825142
2414.660436	-2.968800	2.848400	-8.455200	28.934781	0.000196	20.823400
2415.656669	-3.030200	2.844600	-8.619000	28.963343	0.000196	20.813296
2416.658547	-3.016500	2.843300	-8.576300	28.982883	0.000197	20.819231
2417.657778	-2.980000	2.842000	-8.468500	28.980896	0.000194	20.821023
2418.660891	-2.992200	2.840200	-8.497600	28.967467	0.000196	20.801330
2419.660238	-2.998500	2.837100	-8.504900	29.030933	0.000197	20.804582
2420.658861	-3.009000	2.834000	-8.526400	29.058960	0.000196	20.793466
2421.664459	-3.003700	2.832300	-8.506000	29.072778	0.000195	20.826829
2422.659958	-2.975600	2.832300	-8.426800	29.107283	0.000196	20.809914
2423.657995	-2.959200	2.828600	-8.369000	29.143167	0.000197	20.790597
2424.660729	-3.003000	2.826300	-8.486000	29.111494	0.000196	20.801354
2425.658976	-2.990200	2.823700	-8.442600	29.096777	0.000197	20.801699
2426.660758	-2.990900	2.822800	-8.441500	29.079934	0.000194	20.815073
2427.661597	-3.036900	2.819700	-8.562200	29.070572	0.000197	20.790467
2428.658962	-3.018000	2.817800	-8.503300	29.007066	0.000196	20.810406
2429.658395	-3.010100	2.816000	-8.475400	28.934039	0.000194	20.807006
2430.660910	-2.996000	2.813700	-8.428700	28.942461	0.000195	20.823552
2431.661409	-3.009400	2.808700	-8.451700	28.956929	0.000195	20.821532
2432.659585	-3.010500	2.807200	-8.450000	28.961824	0.000194	20.809395
2433.657756	-2.994300	2.806100	-8.401500	28.941391	0.000196	20.811094
2434.658485	-2.988700	2.802700	-8.376100	28.935273	0.000195	20.812517
2435.657358	-3.000900	2.800700	-8.402700	28.912529	0.000194	20.792448
2436.659464	-3.014800	2.797400	-8.432300	28.949807	0.000194	20.791124
2437.658500	-3.003500	2.794500	-8.392100	29.010047	0.000195	20.783538
2438.659473	-2.999000	2.793200	-8.376000	29.055224	0.000194	20.793969
2439.661128	-2.992700	2.789400	-8.346700	29.041058	0.000194	20.802929
2440.662062	-2.977000	2.789100	-8.302500	29.051275	0.000195	20.815120
2441.662242	-2.969000	2.785500	-8.269200	29.017001	0.000194	20.806192
2442.661232	-3.029600	2.781700	-8.425800	28.998079	0.000194	20.797559
2443.663915	-2.998800	2.779300	-8.332500	28.946775	0.000194	20.791862
2444.664865	-2.999400	2.775600	-8.323400	28.935901	0.000194	20.811727
2445.663022	-3.022700	2.772600	-8.379900	28.964383	0.000194	20.790636
2446.668185	-2.984400	2.770800	-8.267700	28.994332	0.000194	20.801370
2447.663582	-2.994900	2.768100	-8.288400	29.044216	0.000195	20.799473
2448.664988	-2.980400	2.766500	-8.243000	29.061206	0.000195	20.802367
2449.665194	-2.990300	2.763300	-8.260700	29.071956	0.000195	20.780008
2450.664028	-2.985800	2.759100	-8.237300	29.085579	0.000193	20.792312
2451.666080	-2.993500	2.756200	-8.249100	29.105238	0.000195	20.807379
2452.664832	-2.982000	2.753800	-8.210600	29.119875	0.000194	20.786092
2453.672158	-3.006500	2.749600	-8.266200	29.163238	0.000196	20.805606
2454.667683	-2.994200	2.747000	-8.223200	29.200184	0.000194	20.769342
2455.666191	-2.982500	2.744100	-8.183200	29.218803	0.000195	20.795691
2456.667602	-2.990300	2.740300	-8.193600	29.221333	0.000192	20.801086
2457.666151	-3.037100	2.737000	-8.311600	29.281184	0.000194	20.778899
2458.665460	-2.997300	2.735800	-8.199100	29.324468	0.000195	20.783166
2459.665648	-3.009200	2.729900	-8.214300	29.352121	0.000194	20.791596
2460.669351	-3.009200	2.729100	-8.211500	29.330455	0.000195	20.811960
2461.671072	-3.024200	2.724900	-8.239600	29.260995	0.000195	20.800278
2462.665821	-3.020700	2.721400	-8.219700	29.247845	0.000195	20.796510
2463.667727	-3.009000	2.718200	-8.178400	29.227931	0.000193	20.795881
2464.666099	-2.991900	2.716100	-8.124100	29.192098	0.000196	20.783953
2465.667311	-3.015600	2.711800	-8.175900	29.197640	0.000194	20.788116
2466.666622	-3.007600	2.708200	-8.144200	29.256290	0.000194	20.797907
2467.665267	-3.004300	2.703900	-8.122200	29.274022	0.000194	20.791122
2468.669896	-3.037000	2.699300	-8.196100	29.294027	0.000193	20.778091
2469.666566	-2.995000	2.697800	-8.078500	29.293037	0.000194	20.762395
2470.667787	-3.003100	2.693700	-8.088700	29.339962	0.000194	20.775074
2471.667884	-3.005700	2.688900	-8.081200	29.353435	0.000194	20.778221
2472.666265	-2.990600	2.687000	-8.033200	29.385547	0.000192	20.793043
2473.670938	-2.998500	2.681000	-8.038500	29.409741	0.000193	20.792298
2474.668272	-3.002700	2.676600	-8.036000	29.360889	0.000193	20.788105
2475.668984	-2.971300	2.674800	-7.946400	29.355097	0.000196	20.792224
2476.669432	-3.012800	2.669800	-8.042300	29.337317	0.000193	20.788055
2477.673308	-2.979000	2.665900	-7.941000	29.353588	0.000194	20.770789
2478.668314	-2.993200	2.662100	-7.967500	29.372552	0.000194	20.762876
2479.671173	-3.004500	2.657600	-7.983000	29.373995	0.000195	20.785193
2480.671335	-3.006200	2.652900	-7.974600	29.360278	0.000195	20.783696
2481.670971	-3.026500	2.649100	-8.016700	29.415912	0.000196	20.774336
2482.667686	-2.996600	2.645800	-7.927400	29.421191	0.000194	20.777286
2483.671406	-3.008900	2.640100	-7.943000	29.449692	0.000193	20.771399
2484.667483	-2.993400	2.637100	-7.893200	29.482595	0.000194	20.774220
2485.668714	-3.017300	2.632800	-7.943000	29.479773	0.000194	20.789867
2486.672763	-2.994500	2.629000	-7.870100	29.409559	0.000193	20.794011
2487.671760	-3.003000	2.623200	-7.876900	29.373855	0.000191	20.776991
2488.671901	-3.005800	2.618000	-7.868400	29.372841	0.000193	20.774546
2489.670660	-3.001800	2.613500	-7.843600	29.386539	0.000195	20.776499
2490.674594	-2.976600	2.608800	-7.763800	29.386271	0.000194	20.783815
2491.669835	-3.005600	2.603900	-7.825400	29.351384	0.000195	20.766671
2492.672635	-2.960300	2.600900	-7.698800	29.282427	0.000192	20.769720
2493.674093	-2.982800	2.593200	-7.734500	29.297727	0.000194	20.789881
2494.670272	-2.980000	2.587600	-7.710400	29.332792	0.000195	20.761684
2495.671209	-3.018200	2.581700	-7.790700	29.402217	0.000195	20.767170
2496.671102	-3.028200	2.575600	-7.797500	29.453451	0.000192	20.753851
2497.671864	-2.980300	2.572300	-7.665000	29.491034	0.000196	20.770398
2498.671972	-3.011400	2.564800	-7.721900	29.475382	0.000196	20.778329
2499.674725	-2.985900	2.561500	-7.646200	29.490661	0.000194	20.781876
2500.672709	-2.992700	2.554400	-7.644200	29.482738	0.000194	20.762035
2501.672654	-2.993900	2.548900	-7.628900	29.534138	0.000194	20.792037
2502.673515	-2.998700	2.541600	-7.620000	29.528696	0.000191	20.772800
2503.672401	-3.003500	2.536800	-7.618500	29.521989	0.000193	20.757504
2504.672798	-2.961000	2.531700	-7.496000	29.528647	0.000193	20.773699
2505.676717	-3.008300	2.522900	-7.588800	29.529887	0.000195	20.771630
2506.673969	-2.999000	2.516200	-7.544900	29.564866	0.000193	20.759948
2507.674357	-3.013000	2.510400	-7.562800	29.576729	0.000195	20.750570
2508.677271	-3.016400	2.505600	-7.555800	29.570583	0.000195	20.780885
2509.674896	-3.018800	2.499100	-7.543600	29.550908	0.000195	20.771008
