LabVIEW Measurement	
Writer_Version	2
Reader_Version	2
Separator	Tab
Decimal_Separator	.
Multi_Headings	No
X_Columns	One
Time_Pref	Absolute
Operator	admin
Description	Clolumns are: time, Current, Voltage, Power, Battery Temp, and Chamber Temp
Date	2024/08/16
Time	13:06:06.104549407958984375
***End_of_Header***	
	
Channels	6						
Samples	1	1	1	1	1	1	
Date	2024/09/18	2024/09/18	2024/09/18	2024/09/18	2024/09/18	2024/09/18	
Time	10:18:27.86862945556640625	10:18:27.8771991729736328125	10:18:27.8872385025024414062	10:18:27.8492336273193359375	10:18:27.8492336273193359375	10:18:27.8492336273193359375	
X_Dimension	Time	Time	Time	Time	Time	Time	
X0	0.0000000000000000E+0	0.0000000000000000E+0	0.0000000000000000E+0	0.0000000000000000E+0	0.0000000000000000E+0	0.0000000000000000E+0	
Delta_X	1.000000	1.000000	1.000000	1.000000	1.000000	1.000000	
***End_of_Header***							
X_Value	Untitled	Untitled 1	Untitled 2	Untitled 3	Untitled 4	Untitled 5	Comment
0.000000	0.028928	4.091500	0.118430	20.985160	0.000978	20.755210
0.998734	-3.020200	3.905700	-11.795000	20.978425	0.000977	20.754163
2.000796	-2.996300	3.899500	-11.682000	20.960434	0.000977	20.766042
3.004076	-3.000500	3.892200	-11.677000	20.952252	0.000976	20.774454
4.000114	-2.996900	3.889700	-11.656000	20.965853	0.000972	20.758185
4.999372	-2.997400	3.885300	-11.645000	20.967545	0.000974	20.766516
6.002671	-3.012300	3.882600	-11.694000	20.966678	0.000971	20.786986
6.998135	-2.995800	3.880200	-11.624000	20.999815	0.000970	20.761333
7.998418	-2.999500	3.878100	-11.632000	20.991281	0.000971	20.754694
9.002249	-3.011200	3.875000	-11.667000	21.016734	0.000970	20.758340
9.997899	-3.021400	3.873000	-11.701000	20.982976	0.000971	20.768199
10.999475	-2.985400	3.873100	-11.562000	21.009377	0.000969	20.791760
12.001179	-2.984000	3.871000	-11.550000	21.001522	0.000968	20.770153
12.999291	-3.004400	3.868700	-11.622000	20.981913	0.000966	20.771877
14.000380	-3.000700	3.867000	-11.602000	21.011534	0.000966	20.759778
14.999290	-3.001300	3.865500	-11.601000	21.023385	0.000965	20.786805
15.998548	-3.010200	3.865400	-11.634000	21.024962	0.000964	20.770838
17.003193	-3.022000	3.865000	-11.679000	21.024520	0.000966	20.746688
17.999878	-2.998700	3.862100	-11.580000	21.040410	0.000966	20.764003
18.999199	-3.002500	3.862600	-11.596000	21.062624	0.000963	20.763937
20.003850	-2.994700	3.861700	-11.564000	21.048557	0.000964	20.777369
21.001308	-3.009700	3.859400	-11.614000	21.060237	0.000964	20.772455
22.001993	-2.992700	3.859600	-11.549000	21.065876	0.000963	20.802752
23.004706	-3.001900	3.858000	-11.580000	21.064904	0.000961	20.789925
24.002262	-2.999000	3.856900	-11.566000	21.064518	0.000963	20.788592
25.004467	-3.004100	3.855500	-11.581000	21.079115	0.000960	20.773794
26.000044	-3.002300	3.856900	-11.578000	21.084126	0.000963	20.780703
27.001829	-2.998100	3.855200	-11.557000	21.083733	0.000962	20.784577
28.008087	-2.990800	3.856300	-11.532000	21.111585	0.000961	20.777350
29.001973	-2.986000	3.854900	-11.510000	21.091578	0.000960	20.789579
30.001034	-3.018800	3.851400	-11.625000	21.119251	0.000962	20.785966
31.000097	-2.987000	3.852600	-11.506000	21.131060	0.000961	20.790666
32.001900	-3.024800	3.851100	-11.648000	21.146555	0.000959	20.792889
33.000827	-3.005200	3.852300	-11.576000	21.128191	0.000960	20.797279
34.004652	-2.990000	3.851400	-11.514000	21.159312	0.000960	20.772933
35.002658	-2.988100	3.851100	-11.506000	21.180389	0.000959	20.769835
36.003747	-2.988100	3.850800	-11.506000	21.161731	0.000958	20.789103
37.006131	-2.978200	3.851500	-11.470000	21.165457	0.000959	20.779554
38.002944	-3.002100	3.848400	-11.551000	21.195350	0.000959	20.785750
39.006135	-3.000100	3.848800	-11.546000	21.182324	0.000959	20.784099
40.005916	-3.031000	3.845700	-11.654000	21.191509	0.000959	20.798029
41.009750	-2.993000	3.848100	-11.515000	21.219973	0.000960	20.803269
42.008879	-2.998500	3.846800	-11.533000	21.230605	0.000958	20.782610
43.008235	-2.974100	3.847400	-11.442000	21.224549	0.000958	20.808795
44.006886	-3.001800	3.846100	-11.544000	21.215518	0.000960	20.786011
45.006536	-3.008800	3.844600	-11.567000	21.218321	0.000960	20.783598
46.005403	-3.018700	3.844000	-11.602000	21.246310	0.000958	20.787416
47.005317	-2.986000	3.845900	-11.482000	21.257383	0.000961	20.771467
48.009938	-2.990300	3.845700	-11.498000	21.270188	0.000959	20.804665
49.008692	-2.990700	3.843800	-11.495000	21.267923	0.000958	20.791969
50.008921	-2.992200	3.843000	-11.497000	21.275597	0.000959	20.800120
51.008390	-3.028600	3.841600	-11.633000	21.298134	0.000957	20.793743
52.008459	-3.003800	3.844000	-11.546000	21.296818	0.000958	20.805702
53.012516	-3.004500	3.842400	-11.544000	21.292682	0.000961	20.804884
54.012301	-2.999900	3.841200	-11.523000	21.319314	0.000960	20.798811
55.010567	-2.992000	3.842800	-11.497000	21.318521	0.000959	20.798966
56.009658	-2.987800	3.841800	-11.478000	21.334267	0.000959	20.813770
57.010419	-2.983500	3.842600	-11.463000	21.330099	0.000960	20.777833
58.008840	-2.989900	3.840600	-11.482000	21.350560	0.000959	20.789768
59.017255	-2.979200	3.839000	-11.436000	21.355576	0.000957	20.799529
60.013072	-2.979300	3.840100	-11.439000	21.358445	0.000957	20.798605
61.013860	-3.011800	3.838600	-11.560000	21.385237	0.000956	20.820669
62.009552	-2.988000	3.838700	-11.469000	21.401178	0.000956	20.813385
63.013175	-3.018500	3.838300	-11.584000	21.395435	0.000958	20.803845
64.014984	-2.998700	3.838000	-11.508000	21.397713	0.000958	20.798065
65.013963	-2.994900	3.837400	-11.490000	21.419660	0.000957	20.810540
66.012488	-2.987500	3.836900	-11.461000	21.403327	0.000959	20.822173
67.010375	-2.995700	3.836500	-11.493000	21.416490	0.000959	20.817800
68.012406	-3.004700	3.836100	-11.524000	21.416473	0.000957	20.820153
69.007957	-3.002100	3.836500	-11.516000	21.435029	0.000958	20.826391
70.013078	-3.024400	3.835400	-11.599000	21.443738	0.000958	20.799544
71.012370	-3.015500	3.836300	-11.567000	21.435429	0.000960	20.804981
72.012174	-3.005200	3.835500	-11.526000	21.445740	0.000957	20.827624
73.016138	-2.986500	3.835900	-11.455000	21.472768	0.000959	20.802512
74.013968	-3.011600	3.834800	-11.547000	21.481028	0.000959	20.833535
75.015054	-2.996700	3.833900	-11.488000	21.470750	0.000959	20.828467
76.014890	-3.006800	3.834700	-11.529000	21.498455	0.000961	20.820153
77.013886	-2.979600	3.835800	-11.428000	21.505669	0.000960	20.818837
78.010651	-3.011800	3.832400	-11.540000	21.500015	0.000958	20.831671
79.017148	-3.011200	3.832300	-11.538000	21.502418	0.000958	20.819377
80.017580	-3.000800	3.832700	-11.500000	21.524770	0.000959	20.833208
81.019009	-3.029300	3.833700	-11.612000	21.520081	0.000961	20.845585
82.013203	-3.012900	3.832400	-11.546000	21.538814	0.000960	20.813597
83.014218	-3.024900	3.831000	-11.587000	21.562474	0.000960	20.824944
84.012955	-3.005500	3.831000	-11.514000	21.530727	0.000962	20.827315
85.015759	-3.011000	3.831700	-11.535000	21.550196	0.000958	20.801278
86.016202	-2.992900	3.830600	-11.464000	21.539951	0.000961	20.816630
87.015667	-2.990400	3.832500	-11.459000	21.559452	0.000962	20.821445
88.026339	-2.989100	3.832100	-11.453000	21.568798	0.000960	20.832694
89.013745	-2.987900	3.830800	-11.446000	21.565808	0.000961	20.818323
90.019295	-3.009300	3.830500	-11.524000	21.569125	0.000963	20.831599
91.017550	-2.998100	3.830700	-11.484000	21.604402	0.000961	20.822329
92.022880	-2.978900	3.831100	-11.410000	21.601232	0.000962	20.799244
93.017245	-3.000900	3.830800	-11.494000	21.606272	0.000962	20.813296
94.019063	-2.993900	3.828900	-11.461000	21.606788	0.000963	20.815708
95.020772	-2.987500	3.829300	-11.438000	21.617735	0.000963	20.812913
96.019325	-2.981800	3.831100	-11.421000	21.633886	0.000963	20.817222
97.021407	-2.991600	3.830000	-11.456000	21.623747	0.000962	20.811343
98.021470	-3.005000	3.827900	-11.501000	21.626322	0.000962	20.833359
99.020633	-3.000500	3.828700	-11.486000	21.654660	0.000962	20.808139
100.018875	-2.996400	3.828700	-11.472000	21.652536	0.000965	20.797005
101.018095	-2.999800	3.828600	-11.484000	21.657274	0.000965	20.795583
102.022611	-2.992200	3.827400	-11.451000	21.681560	0.000965	20.808033
103.021586	-3.007300	3.826300	-11.506000	21.699810	0.000964	20.815391
104.019111	-3.000600	3.826400	-11.479000	21.716939	0.000966	20.792706
105.024483	-2.974100	3.827600	-11.382000	21.702824	0.000964	20.804658
106.021759	-3.001400	3.827300	-11.486000	21.721368	0.000965	20.814207
107.021190	-2.987400	3.825900	-11.428000	21.713778	0.000965	20.798550
108.022202	-2.995300	3.825600	-11.458000	21.718965	0.000965	20.791888
109.029710	-2.969700	3.826500	-11.363000	21.730279	0.000967	20.807004
110.023403	-2.990200	3.826200	-11.439000	21.745685	0.000965	20.804879
111.020697	-3.015000	3.823000	-11.524000	21.730507	0.000966	20.811974
112.026925	-3.008300	3.823600	-11.501000	21.752529	0.000967	20.797978
113.023582	-3.002600	3.823400	-11.479000	21.743716	0.000965	20.803857
114.023919	-2.978400	3.825000	-11.391000	21.755290	0.000965	20.786043
115.022976	-3.004400	3.823000	-11.485000	21.748927	0.000969	20.801960
116.023299	-3.009000	3.823100	-11.501000	21.758206	0.000969	20.788487
117.025135	-2.993900	3.823400	-11.445000	21.763671	0.000970	20.798698
118.026789	-2.992700	3.822600	-11.439000	21.800240	0.000968	20.794521
119.025035	-3.009500	3.822300	-11.501000	21.799472	0.000968	20.802761
120.024198	-2.994500	3.823400	-11.449000	21.811470	0.000968	20.805761
121.030966	-3.014500	3.822300	-11.520000	21.796735	0.000971	20.768727
122.024935	-3.012500	3.821800	-11.511000	21.815154	0.000969	20.811819
123.030985	-3.026700	3.822600	-11.568000	21.802893	0.000970	20.786271
124.032726	-3.006400	3.821500	-11.487000	21.806961	0.000969	20.801248
125.026288	-3.000900	3.820700	-11.464000	21.800223	0.000969	20.778857
126.039390	-2.987700	3.821800	-11.415000	21.803367	0.000970	20.779633
127.034604	-2.983000	3.820400	-11.394000	21.805842	0.000973	20.786377
128.048724	-2.991800	3.820900	-11.431000	21.821026	0.000969	20.789721
129.032538	-2.993400	3.820700	-11.435000	21.816990	0.000972	20.793268
130.030031	-2.988500	3.820900	-11.417000	21.867654	0.000971	20.770958
131.026798	-2.986600	3.821000	-11.411000	21.846141	0.000972	20.800160
132.028844	-2.991200	3.820500	-11.427000	21.864093	0.000970	20.769765
133.031989	-2.988700	3.820300	-11.417000	21.870047	0.000971	20.785682
134.030346	-2.978900	3.819400	-11.377000	21.885385	0.000973	20.786336
135.028519	-3.014600	3.818500	-11.509000	21.913513	0.000973	20.811171
136.033635	-3.024200	3.818600	-11.547000	21.877716	0.000975	20.769175
137.030945	-3.013700	3.817500	-11.504000	21.894678	0.000973	20.784732
138.028136	-2.987500	3.818300	-11.405000	21.891812	0.000973	20.785656
139.027405	-2.989400	3.817900	-11.411000	21.894784	0.000973	20.774406
140.027434	-2.992500	3.816600	-11.420000	21.899202	0.000975	20.773613
141.029143	-3.012300	3.816700	-11.496000	21.904911	0.000975	20.783595
142.028067	-3.008600	3.816800	-11.482000	21.924978	0.000976	20.790405
143.033249	-3.002000	3.817100	-11.458000	21.914996	0.000976	20.770456
144.029929	-3.007300	3.816900	-11.478000	21.922877	0.000978	20.765068
145.030026	-3.026700	3.814900	-11.546000	21.928488	0.000978	20.789177
146.032760	-3.007200	3.816400	-11.476000	21.928700	0.000979	20.773267
147.030967	-2.999300	3.815800	-11.442000	21.951387	0.000976	20.760415
148.030555	-3.005000	3.816000	-11.466000	21.953363	0.000977	20.765238
149.034503	-2.971600	3.817500	-11.343000	21.970268	0.000979	20.760349
150.033965	-3.018000	3.815900	-11.515000	21.980353	0.000979	20.774238
151.033123	-2.997900	3.814800	-11.436000	21.994710	0.000978	20.772489
152.034060	-3.004900	3.814300	-11.461000	22.010447	0.000979	20.768801
153.033434	-2.988900	3.815000	-11.401000	22.038750	0.000982	20.764419
154.035085	-3.017400	3.813800	-11.506000	22.050771	0.000980	20.760331
155.033695	-3.011900	3.814600	-11.489000	22.050876	0.000981	20.758066
156.033315	-3.000000	3.814400	-11.441000	22.068776	0.000981	20.765554
157.046552	-2.978000	3.814300	-11.359000	22.049659	0.000983	20.762537
158.034667	-2.991800	3.813400	-11.408000	22.066138	0.000982	20.755801
159.035791	-2.993300	3.813100	-11.412000	22.070939	0.000983	20.751123
160.034618	-2.994000	3.814000	-11.418000	22.068048	0.000984	20.748703
161.034863	-2.988100	3.812400	-11.389000	22.085131	0.000983	20.781453
162.036001	-2.985900	3.811400	-11.379000	22.072922	0.000984	20.754057
163.035493	-2.976600	3.811900	-11.346000	22.077781	0.000984	20.760344
164.037411	-2.993000	3.812900	-11.411000	22.091605	0.000986	20.751424
165.036882	-2.989400	3.813200	-11.398000	22.102351	0.000986	20.758389
166.036507	-3.019600	3.810100	-11.503000	22.123092	0.000986	20.754498
167.037931	-3.000800	3.811900	-11.437000	22.132842	0.000987	20.748137
168.038667	-3.010600	3.810400	-11.471000	22.132947	0.000987	20.756778
169.038331	-2.997400	3.810500	-11.419000	22.150805	0.000990	20.772760
170.041110	-2.993200	3.810100	-11.403000	22.155810	0.000989	20.757382
171.038797	-3.008800	3.808500	-11.458000	22.169846	0.000990	20.739192
172.040695	-3.005300	3.810300	-11.450000	22.175562	0.000988	20.734957
173.037951	-3.013000	3.809600	-11.476000	22.195256	0.000990	20.748037
174.039105	-3.004300	3.808300	-11.440000	22.202212	0.000990	20.750261
175.039645	-2.992800	3.810400	-11.403000	22.202865	0.000992	20.770355
176.042064	-2.983500	3.809400	-11.364000	22.207331	0.000991	20.752067
177.043994	-2.997900	3.807200	-11.413000	22.230438	0.000992	20.757184
178.040375	-2.967800	3.809700	-11.305000	22.230747	0.000992	20.748011
179.040489	-3.020400	3.806400	-11.496000	22.229498	0.000993	20.748657
180.039411	-2.981200	3.808600	-11.353000	22.243632	0.000992	20.749058
181.040165	-3.002400	3.807200	-11.429000	22.247403	0.000993	20.744299
182.042284	-2.984200	3.807200	-11.360000	22.268941	0.000995	20.748321
183.042261	-2.985700	3.807400	-11.366000	22.257103	0.000994	20.749269
184.040980	-3.010300	3.806600	-11.458000	22.276150	0.000996	20.747478
185.044559	-2.996100	3.807800	-11.408000	22.277848	0.000995	20.747756
186.044451	-2.996800	3.807400	-11.409000	22.259910	0.000996	20.757296
187.043491	-3.025000	3.805100	-11.509000	22.270336	0.000996	20.720793
188.045860	-2.982000	3.808100	-11.355000	22.274615	0.000996	20.750208
189.046473	-2.999600	3.806700	-11.418000	22.259093	0.000998	20.709061
190.044982	-3.000400	3.804400	-11.413000	22.290176	0.000997	20.760100
191.047139	-3.012900	3.804600	-11.462000	22.298650	0.000997	20.734920
192.046624	-3.028600	3.804900	-11.522000	22.321632	0.000999	20.749872
193.046733	-3.014000	3.804300	-11.466000	22.335846	0.001000	20.761260
194.046819	-3.005600	3.803000	-11.430000	22.332237	0.001001	20.736783
195.049252	-3.001200	3.803400	-11.413000	22.342426	0.001000	20.722803
196.048268	-2.993400	3.804100	-11.386000	22.357978	0.001000	20.724152
197.046706	-3.003600	3.802400	-11.420000	22.349782	0.001001	20.729695
198.047606	-2.977900	3.805100	-11.331000	22.333633	0.001001	20.733913
199.047960	-3.002300	3.802500	-11.416000	22.339617	0.001002	20.730896
200.047211	-2.983700	3.803800	-11.348000	22.362640	0.001003	20.729768
201.051388	-3.001500	3.804300	-11.418000	22.376102	0.001003	20.740404
202.050313	-2.986200	3.803200	-11.356000	22.382584	0.001004	20.727928
203.048247	-2.999500	3.802700	-11.406000	22.409222	0.001002	20.725206
204.055293	-2.981900	3.801900	-11.336000	22.418912	0.001006	20.718314
205.051432	-3.011800	3.801100	-11.447000	22.423279	0.001006	20.736913
206.050879	-3.011900	3.799900	-11.442000	22.415981	0.001004	20.722491
207.049624	-2.997400	3.801200	-11.394000	22.442030	0.001007	20.740992
208.050782	-3.011300	3.801000	-11.444000	22.440104	0.001004	20.752340
209.051754	-3.004400	3.799900	-11.414000	22.462716	0.001008	20.713816
210.051334	-3.007000	3.800800	-11.428000	22.480332	0.001007	20.728614
211.055184	-3.006800	3.801000	-11.427000	22.485311	0.001008	20.722696
212.052046	-3.028000	3.800100	-11.505000	22.485115	0.001008	20.722025
213.052380	-2.994800	3.800100	-11.379000	22.485596	0.001009	20.727723
214.054556	-2.993900	3.799400	-11.373000	22.490976	0.001009	20.726946
215.052668	-3.004600	3.798300	-11.411000	22.483948	0.001010	20.742668
216.054069	-2.983800	3.799200	-11.334000	22.522803	0.001008	20.718517
217.055164	-2.991500	3.798600	-11.361000	22.506028	0.001011	20.722581
218.054244	-3.005400	3.798500	-11.415000	22.508567	0.001012	20.707104
219.055212	-2.981400	3.798400	-11.323000	22.534867	0.001010	20.706891
220.056574	-2.987900	3.798600	-11.349000	22.533871	0.001011	20.724861
221.054213	-2.998800	3.798100	-11.389000	22.533895	0.001012	20.724885
222.056758	-2.992600	3.797700	-11.363000	22.508003	0.001013	20.735939
223.055097	-3.018100	3.797100	-11.458000	22.506191	0.001016	20.739340
224.054135	-3.016400	3.796200	-11.449000	22.541169	0.001013	20.709883
225.056254	-2.980900	3.797100	-11.318000	22.547103	0.001015	20.727207
226.055838	-3.035200	3.795400	-11.518000	22.562709	0.001015	20.703481
227.057119	-2.981600	3.797900	-11.322000	22.559346	0.001014	20.742315
228.056767	-2.990700	3.795900	-11.352000	22.591685	0.001015	20.713537
229.057315	-3.007000	3.794100	-11.407000	22.599741	0.001016	20.740573
230.055815	-2.984200	3.795700	-11.326000	22.580959	0.001017	20.716071
231.055745	-2.991700	3.796300	-11.356000	22.587261	0.001018	20.727125
232.057246	-2.993800	3.793200	-11.354000	22.575205	0.001019	20.714575
233.061382	-2.987200	3.793900	-11.332000	22.596778	0.001016	20.718638
234.056978	-3.002100	3.793000	-11.385000	22.580739	0.001019	20.732446
235.057515	-2.987200	3.794400	-11.333000	22.567915	0.001018	20.721499
236.057463	-2.992500	3.793500	-11.351000	22.582387	0.001020	20.696163
237.057411	-2.952900	3.795200	-11.205000	22.575065	0.001020	20.691200
238.057415	-3.000700	3.791500	-11.376000	22.601331	0.001019	20.725096
239.058746	-2.984500	3.792700	-11.318000	22.617933	0.001022	20.706635
240.060130	-2.986600	3.794100	-11.329000	22.611926	0.001023	20.721482
241.060117	-3.011400	3.792100	-11.419000	22.606171	0.001020	20.718563
242.066404	-2.999200	3.791800	-11.370000	22.624340	0.001023	20.714475
243.059146	-2.997000	3.791400	-11.362000	22.647087	0.001022	20.727777
244.060169	-3.014500	3.790000	-11.424000	22.671858	0.001022	20.728880
245.059126	-3.027700	3.789400	-11.472000	22.680778	0.001024	20.729281
246.063613	-3.001700	3.792500	-11.383000	22.683390	0.001024	20.689220
247.059635	-2.996900	3.791100	-11.360000	22.690751	0.001025	20.718881
248.059866	-2.980700	3.791000	-11.299000	22.695608	0.001026	20.713314
249.062249	-2.979600	3.791800	-11.298000	22.686817	0.001026	20.703560
250.059714	-2.992700	3.790200	-11.341000	22.703606	0.001027	20.706626
251.058307	-2.995500	3.789500	-11.350000	22.713873	0.001025	20.717385
252.062575	-3.002000	3.791200	-11.381000	22.727355	0.001028	20.721881
253.062389	-2.992100	3.790600	-11.340000	22.749406	0.001028	20.714572
254.060349	-2.985600	3.789700	-11.314000	22.761468	0.001029	20.721914
255.069613	-3.022300	3.788600	-11.449000	22.760791	0.001028	20.690887
256.061932	-3.002900	3.789500	-11.378000	22.750483	0.001030	20.715651
257.059512	-3.010800	3.787500	-11.403000	22.766503	0.001029	20.698981
258.060442	-2.996400	3.788200	-11.350000	22.771008	0.001029	20.712504
259.059892	-3.020600	3.788100	-11.442000	22.800958	0.001030	20.702676
260.059062	-2.999600	3.787400	-11.358000	22.792895	0.001030	20.705979
261.060862	-3.008200	3.787200	-11.392000	22.775382	0.001032	20.703608
262.065096	-3.016000	3.786400	-11.418000	22.791304	0.001033	20.693004
263.060432	-3.003900	3.786400	-11.373000	22.815656	0.001033	20.694639
264.061434	-3.026500	3.785200	-11.455000	22.825326	0.001035	20.685360
265.066723	-2.999700	3.786000	-11.356000	22.815737	0.001034	20.705153
266.061624	-3.001300	3.785300	-11.360000	22.827423	0.001034	20.701686
267.061937	-3.016600	3.785100	-11.416000	22.820323	0.001035	20.720180
268.063107	-3.026100	3.784600	-11.451000	22.827970	0.001034	20.714563
269.061931	-3.011100	3.784800	-11.396000	22.813240	0.001036	20.687477
270.062500	-3.007700	3.785100	-11.384000	22.803121	0.001035	20.700575
271.061360	-2.991200	3.785500	-11.323000	22.805814	0.001036	20.692367
272.065713	-3.003000	3.785200	-11.365000	22.839444	0.001039	20.690020
273.064752	-2.998900	3.783500	-11.344000	22.849008	0.001037	20.698654
274.061323	-2.992600	3.784100	-11.323000	22.858596	0.001037	20.698302
275.061481	-2.975000	3.784700	-11.258000	22.868209	0.001036	20.700821
276.060881	-3.016900	3.782500	-11.411000	22.871270	0.001038	20.693929
277.062255	-2.969300	3.784700	-11.237000	22.847376	0.001038	20.689907
278.063445	-2.978100	3.783900	-11.268000	22.840505	0.001041	20.703887
279.064175	-3.006600	3.781100	-11.367000	22.863142	0.001041	20.694796
280.063248	-3.006500	3.781400	-11.368000	22.853782	0.001040	20.690160
281.063738	-2.974500	3.782900	-11.250000	22.867630	0.001041	20.725373
282.064723	-3.004700	3.781500	-11.361000	22.893637	0.001041	20.681722
283.064064	-3.003900	3.781900	-11.359000	22.894387	0.001042	20.715668
284.064251	-2.992700	3.782200	-11.317000	22.881805	0.001042	20.691206
285.065798	-2.985300	3.782500	-11.291000	22.877618	0.001041	20.715464
286.064273	-3.002200	3.780300	-11.348000	22.892094	0.001043	20.695826
287.064622	-3.007900	3.781000	-11.372000	22.901013	0.001043	20.717090
288.068223	-3.013700	3.781000	-11.392000	22.927288	0.001044	20.692204
289.065479	-3.019200	3.779700	-11.410000	22.927737	0.001043	20.700715
290.065742	-3.006900	3.779500	-11.363000	22.970657	0.001044	20.682074
291.067991	-3.002100	3.779000	-11.344000	22.978514	0.001047	20.699905
292.066061	-2.990200	3.779700	-11.299000	22.992777	0.001045	20.699496
293.066577	-2.990900	3.778900	-11.301000	22.996342	0.001047	20.682679
294.070231	-3.001600	3.778100	-11.338000	22.989374	0.001046	20.691345
295.066996	-2.991500	3.779900	-11.307000	23.008303	0.001049	20.708890
296.068311	-3.012200	3.777900	-11.378000	22.974646	0.001047	20.687020
297.067460	-3.004800	3.778000	-11.352000	22.956972	0.001048	20.689227
298.068981	-3.024100	3.777000	-11.421000	22.986763	0.001047	20.683986
299.069670	-2.995300	3.777000	-11.312000	22.990075	0.001050	20.676873
300.068950	-2.984800	3.777300	-11.273000	23.007414	0.001049	20.672433
301.070499	-2.990700	3.776500	-11.293000	23.007161	0.001049	20.657480
302.075214	-3.001800	3.777400	-11.338000	23.004721	0.001052	20.665942
303.070471	-3.008600	3.775900	-11.359000	23.006859	0.001050	20.669507
304.072322	-3.012900	3.774100	-11.370000	22.977175	0.001050	20.682915
305.072695	-3.036900	3.774400	-11.460000	23.020689	0.001051	20.685736
306.072179	-2.986000	3.776200	-11.275000	23.035555	0.001052	20.687355
307.073247	-3.014100	3.774800	-11.376000	23.018999	0.001050	20.668869
308.073402	-2.985000	3.775400	-11.269000	23.015091	0.001052	20.682498
309.074794	-3.007400	3.774200	-11.349000	23.021888	0.001053	20.682670
310.074502	-2.993300	3.774600	-11.298000	23.030381	0.001053	20.687387
311.075435	-2.995400	3.774200	-11.305000	23.075116	0.001054	20.681476
312.074559	-3.017900	3.773600	-11.386000	23.069683	0.001056	20.675557
313.073040	-3.015300	3.773200	-11.376000	23.084899	0.001054	20.679424
314.074729	-3.009700	3.773200	-11.355000	23.111675	0.001056	20.692031
315.073875	-3.023000	3.772600	-11.403000	23.107220	0.001055	20.678083
316.073803	-2.998400	3.773000	-11.311000	23.111406	0.001056	20.704564
317.074482	-2.988500	3.772200	-11.273000	23.115265	0.001058	20.656743
318.074564	-3.000200	3.770800	-11.312000	23.126727	0.001057	20.672972
319.075405	-2.983800	3.772300	-11.254000	23.136191	0.001058	20.688147
320.079643	-3.013300	3.770000	-11.359000	23.162411	0.001057	20.686921
321.076055	-3.007600	3.770000	-11.338000	23.142342	0.001058	20.671076
322.076454	-3.014800	3.770800	-11.367000	23.157385	0.001055	20.691368
323.079471	-3.002100	3.768800	-11.313000	23.192603	0.001059	20.673078
324.076252	-3.021700	3.771100	-11.394000	23.184707	0.001059	20.662793
325.077262	-3.005400	3.769400	-11.328000	23.160061	0.001060	20.687885
326.078707	-2.989400	3.769800	-11.268000	23.152906	0.001059	20.680240
327.077579	-2.997400	3.769300	-11.297000	23.158536	0.001059	20.693469
328.078783	-2.980300	3.768800	-11.232000	23.177641	0.001062	20.684639
329.079121	-3.022100	3.767700	-11.385000	23.179559	0.001059	20.668066
330.077280	-2.998300	3.768400	-11.298000	23.209024	0.001061	20.665826
331.078100	-2.994300	3.767200	-11.279000	23.205492	0.001061	20.683625
332.077530	-2.982200	3.768000	-11.235000	23.226979	0.001062	20.670543
333.081345	-3.006500	3.768400	-11.327000	23.226555	0.001063	20.696199
334.077870	-3.011100	3.766600	-11.341000	23.234917	0.001061	20.676602
335.077866	-2.980300	3.768500	-11.230000	23.227575	0.001062	20.682521
336.081634	-2.985400	3.766900	-11.244000	23.243726	0.001063	20.683060
337.079460	-2.992500	3.765700	-11.268000	23.272310	0.001065	20.670927
338.077847	-3.003000	3.764900	-11.305000	23.255645	0.001064	20.676512
339.080738	-2.989500	3.766500	-11.258000	23.241353	0.001064	20.688268
340.077201	-2.986500	3.765200	-11.244000	23.238441	0.001065	20.700998
341.079290	-2.987300	3.765800	-11.249000	23.210133	0.001066	20.680689
342.083796	-3.008000	3.763600	-11.320000	23.227892	0.001066	20.675252
343.083846	-2.999500	3.763800	-11.287000	23.269545	0.001066	20.685701
344.080812	-3.025900	3.762300	-11.383000	23.246320	0.001066	20.688031
345.085292	-2.996900	3.764300	-11.280000	23.238171	0.001066	20.681760
346.083141	-3.004600	3.764100	-11.309000	23.274985	0.001068	20.688783
347.080985	-3.025500	3.764200	-11.387000	23.275205	0.001070	20.670984
348.086802	-3.005700	3.761900	-11.307000	23.292645	0.001066	20.674712
349.083252	-3.009200	3.762800	-11.322000	23.281666	0.001068	20.691211
350.082419	-3.020500	3.760100	-11.356000	23.307091	0.001069	20.688717
351.084358	-3.012600	3.762700	-11.333000	23.303453	0.001069	20.704513
352.084535	-3.000700	3.761900	-11.288000	23.321162	0.001069	20.686697
353.083003	-2.996000	3.761900	-11.270000	23.301365	0.001069	20.684400
354.085791	-3.006800	3.762400	-11.312000	23.312670	0.001070	20.686722
355.082624	-3.025300	3.759600	-11.371000	23.270816	0.001069	20.665162
356.083486	-3.014900	3.760600	-11.336000	23.270767	0.001072	20.695936
357.086164	-2.993600	3.761400	-11.259000	23.275506	0.001068	20.685037
358.084074	-2.981000	3.760500	-11.210000	23.274731	0.001073	20.698486
359.083515	-2.999300	3.758400	-11.271000	23.247942	0.001072	20.669266
360.083351	-3.002200	3.759300	-11.285000	23.247550	0.001071	20.673615
361.086556	-3.001700	3.760100	-11.285000	23.262259	0.001072	20.695469
362.084375	-2.982100	3.759100	-11.209000	23.246025	0.001073	20.689158
363.084026	-2.975100	3.759100	-11.183000	23.266696	0.001072	20.711772
364.086754	-2.991700	3.759000	-11.245000	23.289242	0.001071	20.676043
365.086316	-2.999600	3.758000	-11.271000	23.279657	0.001072	20.702475
366.086420	-3.008100	3.756600	-11.300000	23.306527	0.001073	20.692893
367.087247	-2.997400	3.757000	-11.260000	23.303117	0.001075	20.678569
368.085628	-2.986400	3.756000	-11.216000	23.343568	0.001073	20.687816
369.085814	-2.957700	3.758000	-11.114000	23.364620	0.001075	20.703701
370.088303	-2.990400	3.755600	-11.230000	23.395296	0.001074	20.706473
371.087232	-3.009100	3.755400	-11.300000	23.381300	0.001074	20.702876
372.086756	-3.006100	3.755500	-11.288000	23.392539	0.001073	20.695648
373.088837	-3.006000	3.754700	-11.286000	23.381349	0.001077	20.688699
374.088702	-3.011400	3.754800	-11.306000	23.384423	0.001074	20.700791
375.086441	-3.005200	3.756100	-11.287000	23.394578	0.001075	20.683466
376.088220	-3.015400	3.753300	-11.316000	23.406184	0.001076	20.692729
377.092380	-2.992900	3.755900	-11.240000	23.379839	0.001077	20.681022
378.091607	-3.009800	3.755100	-11.301000	23.402025	0.001076	20.699940
379.090325	-3.005800	3.752900	-11.279000	23.403770	0.001076	20.689835
380.093338	-3.023300	3.751600	-11.340000	23.409700	0.001076	20.698624
381.095506	-3.015000	3.752300	-11.312000	23.429666	0.001077	20.687815
382.089931	-2.994000	3.753800	-11.238000	23.412465	0.001078	20.714673
383.093120	-3.005000	3.751300	-11.272000	23.438556	0.001078	20.701469
384.091248	-2.986500	3.753200	-11.208000	23.434274	0.001077	20.693383
385.091596	-2.992500	3.751600	-11.226000	23.465446	0.001079	20.702818
386.095379	-3.005600	3.749900	-11.270000	23.463758	0.001077	20.699703
387.092800	-2.987200	3.751000	-11.205000	23.451728	0.001079	20.698076
388.091873	-2.989300	3.751800	-11.214000	23.489897	0.001078	20.721638
389.093481	-2.997400	3.750200	-11.240000	23.506877	0.001077	20.704518
390.092991	-2.990600	3.749900	-11.213000	23.536498	0.001082	20.711926
391.093611	-3.021600	3.749100	-11.328000	23.537207	0.001079	20.714533
392.093860	-2.967300	3.751300	-11.130000	23.535185	0.001081	20.697806
393.093688	-3.012100	3.749100	-11.291000	23.509740	0.001082	20.683678
394.093780	-2.999700	3.747500	-11.240000	23.530952	0.001080	20.723911
395.094995	-2.984000	3.749400	-11.187000	23.526842	0.001080	20.732119
396.094700	-3.000600	3.748300	-11.247000	23.538096	0.001081	20.693138
397.093669	-2.995500	3.747600	-11.226000	23.559414	0.001081	20.696489
398.094804	-2.997700	3.747900	-11.234000	23.587793	0.001080	20.709293
399.097835	-3.013400	3.746100	-11.287000	23.584556	0.001082	20.702728
400.094778	-2.989400	3.747600	-11.202000	23.573400	0.001082	20.718098
401.094995	-2.979000	3.747900	-11.164000	23.587720	0.001083	20.690725
402.099460	-2.990100	3.746600	-11.201000	23.574476	0.001083	20.721548
403.095548	-2.989300	3.746400	-11.198000	23.610472	0.001083	20.722071
404.097103	-2.989400	3.745100	-11.195000	23.624132	0.001083	20.715850
405.101003	-3.000300	3.745100	-11.235000	23.611426	0.001082	20.710698
406.100927	-3.009000	3.744800	-11.267000	23.629048	0.001083	20.717460
407.099124	-3.000400	3.745000	-11.236000	23.653422	0.001083	20.720558
408.106333	-2.991000	3.744200	-11.197000	23.672169	0.001084	20.723231
409.105964	-3.013300	3.743300	-11.279000	23.661813	0.001083	20.728971
410.099146	-2.992500	3.742900	-11.198000	23.687132	0.001086	20.734914
411.104086	-3.003900	3.742300	-11.241000	23.713771	0.001085	20.713257
412.099794	-3.004700	3.742900	-11.244000	23.717930	0.001084	20.716952
413.100908	-3.005000	3.742800	-11.246000	23.711032	0.001085	20.711932
414.103251	-2.996800	3.743900	-11.218000	23.733463	0.001087	20.709292
415.101825	-3.012600	3.741000	-11.269000	23.729435	0.001086	20.729436
416.100550	-2.989500	3.741900	-11.185000	23.754100	0.001085	20.712913
417.102447	-3.009400	3.741500	-11.258000	23.747055	0.001088	20.736197
418.101952	-3.002900	3.739900	-11.229000	23.745066	0.001087	20.743212
419.103386	-2.989500	3.741300	-11.184000	23.771003	0.001086	20.717532
420.103980	-2.981900	3.739700	-11.150000	23.754549	0.001087	20.729959
421.103959	-2.985100	3.740600	-11.165000	23.749102	0.001088	20.723075
422.103190	-2.979400	3.740100	-11.142000	23.763387	0.001085	20.748779
423.103537	-2.998800	3.739200	-11.212000	23.771459	0.001089	20.733638
424.103697	-2.994800	3.738400	-11.196000	23.736194	0.001089	20.720565
425.103632	-2.996100	3.738000	-11.198000	23.720163	0.001086	20.712553
426.103426	-2.999400	3.737200	-11.209000	23.688305	0.001089	20.720442
427.105461	-3.003400	3.738500	-11.225000	23.666672	0.001088	20.737636
428.104967	-3.004300	3.738400	-11.231000	23.660996	0.001089	20.743800
429.103587	-3.017500	3.736700	-11.274000	23.610308	0.001089	20.746563
430.108515	-2.993700	3.737900	-11.189000	23.661999	0.001088	20.740063
431.103079	-2.998100	3.736500	-11.201000	23.669363	0.001089	20.746023
432.105625	-3.036100	3.735700	-11.341000	23.662847	0.001089	20.703453
433.105712	-2.989600	3.736500	-11.170000	23.711984	0.001088	20.728062
434.104218	-3.001700	3.735100	-11.209000	23.736259	0.001088	20.701662
435.103780	-3.003700	3.737500	-11.226000	23.752639	0.001090	20.739899
436.106759	-3.020200	3.734900	-11.279000	23.760345	0.001089	20.730555
437.103998	-3.015600	3.733800	-11.257000	23.777174	0.001087	20.747429
438.105055	-3.006000	3.734500	-11.224000	23.808320	0.001089	20.738354
439.107314	-2.993500	3.733700	-11.176000	23.798634	0.001090	20.717736
440.104615	-3.006800	3.733800	-11.225000	23.780794	0.001088	20.749636
441.105197	-3.000700	3.733100	-11.201000	23.795731	0.001089	20.731421
442.104714	-3.012500	3.733300	-11.246000	23.805474	0.001089	20.733130
443.106692	-2.990600	3.732800	-11.162000	23.781723	0.001089	20.716427
444.104670	-3.000300	3.732300	-11.197000	23.790414	0.001090	20.734152
445.104213	-3.013100	3.732600	-11.245000	23.747885	0.001091	20.720433
446.108718	-2.993200	3.731900	-11.169000	23.754481	0.001090	20.739850
447.106356	-3.005800	3.731900	-11.216000	23.776284	0.001089	20.739899
448.106182	-2.994600	3.730800	-11.172000	23.789778	0.001093	20.739678
449.109942	-3.000600	3.732000	-11.197000	23.836048	0.001090	20.749088
450.106802	-3.019100	3.730000	-11.260000	23.787463	0.001090	20.739727
451.106888	-2.989100	3.731400	-11.153000	23.802351	0.001092	20.747068
452.109471	-3.014400	3.730200	-11.242000	23.812615	0.001091	20.743610
453.108620	-3.006000	3.730900	-11.214000	23.812314	0.001092	20.731453
454.107104	-3.030600	3.730000	-11.303000	23.798803	0.001092	20.756314
455.108972	-2.997000	3.730400	-11.179000	23.840874	0.001090	20.734011
456.109670	-3.015100	3.728200	-11.239000	23.823328	0.001092	20.756248
457.107789	-3.005600	3.728900	-11.207000	23.846173	0.001093	20.739800
458.109318	-3.036900	3.727000	-11.317000	23.827160	0.001090	20.757720
459.108614	-2.991200	3.729400	-11.154000	23.849663	0.001090	20.723857
460.107343	-2.993700	3.728600	-11.162000	23.809198	0.001092	20.752038
461.107756	-3.003700	3.727500	-11.195000	23.846654	0.001092	20.747394
462.110267	-3.000000	3.727700	-11.182000	23.841004	0.001093	20.742203
463.109160	-2.999700	3.727700	-11.181000	23.849874	0.001093	20.739717
464.108331	-3.009300	3.725700	-11.210000	23.873860	0.001092	20.748596
465.109149	-2.999000	3.726500	-11.174000	23.897511	0.001092	20.752397
466.109146	-2.976400	3.727800	-11.094000	23.932282	0.001092	20.763082
467.110754	-3.002300	3.726000	-11.185000	23.931059	0.001091	20.768020
468.115592	-2.985200	3.725600	-11.121000	23.915455	0.001093	20.734828
469.110206	-3.000700	3.724200	-11.174000	23.924716	0.001093	20.749331
470.108514	-2.996400	3.725500	-11.162000	23.922026	0.001093	20.757540
471.114978	-2.986800	3.724900	-11.125000	23.934678	0.001093	20.755054
472.109524	-3.000400	3.723600	-11.171000	23.935428	0.001091	20.760073
473.108902	-2.988400	3.723800	-11.127000	23.913555	0.001095	20.757580
474.112042	-2.994800	3.723500	-11.150000	23.911541	0.001092	20.763147
475.109342	-3.005800	3.722200	-11.187000	23.928498	0.001093	20.762607
476.111916	-3.007900	3.722400	-11.195000	23.897935	0.001094	20.743338
477.114234	-3.000700	3.722300	-11.168000	23.911623	0.001093	20.773186
478.110160	-3.002600	3.722000	-11.173000	23.891013	0.001095	20.763899
479.110978	-2.999600	3.722500	-11.165000	23.890271	0.001093	20.756043
480.112260	-2.987400	3.721800	-11.117000	23.895896	0.001096	20.771641
481.112052	-3.003500	3.720200	-11.173000	23.889252	0.001094	20.768297
482.112429	-2.980600	3.720400	-11.088000	23.878099	0.001093	20.768020
483.112323	-3.003700	3.719800	-11.173000	23.886814	0.001094	20.760163
484.114615	-2.994000	3.719700	-11.134000	23.900429	0.001093	20.758168
485.116223	-2.999100	3.718700	-11.152000	23.904138	0.001094	20.759517
486.113366	-3.008600	3.717800	-11.183000	23.912846	0.001094	20.763033
487.116151	-2.993900	3.718800	-11.133000	23.962224	0.001094	20.779832
488.116451	-2.990700	3.717500	-11.117000	23.950599	0.001093	20.760114
489.113415	-2.984900	3.719100	-11.100000	23.954659	0.001094	20.778884
490.115373	-2.986400	3.718400	-11.104000	23.953893	0.001093	20.775745
491.116073	-2.993200	3.716700	-11.123000	23.951113	0.001094	20.770112
492.114403	-2.990900	3.717000	-11.115000	23.940710	0.001094	20.778647
493.117715	-3.008100	3.717100	-11.181000	23.935656	0.001093	20.771207
494.114439	-2.984400	3.718400	-11.095000	23.948846	0.001093	20.781590
495.112841	-2.999000	3.717800	-11.149000	23.925824	0.001093	20.753287
496.114628	-3.014700	3.714000	-11.196000	23.954520	0.001091	20.764994
497.117387	-3.014500	3.715000	-11.197000	23.945757	0.001094	20.789397
498.116418	-3.001500	3.714000	-11.146000	23.962012	0.001093	20.784361
499.116155	-2.984700	3.715500	-11.087000	23.967091	0.001095	20.768591
500.119534	-2.989000	3.714600	-11.102000	23.966594	0.001094	20.782317
501.117687	-2.991300	3.715400	-11.113000	23.970621	0.001095	20.780192
502.115646	-2.978600	3.713600	-11.060000	23.996193	0.001094	20.783077
503.117806	-2.978200	3.714200	-11.060000	24.013011	0.001095	20.775761
504.119897	-3.002900	3.713100	-11.149000	24.047631	0.001094	20.782505
505.117689	-3.006600	3.713200	-11.164000	24.058603	0.001094	20.783551
506.117365	-3.017200	3.713400	-11.203000	24.082022	0.001096	20.787124
507.118055	-2.997400	3.712500	-11.127000	24.103003	0.001093	20.774027
508.118369	-3.018400	3.713100	-11.206000	24.111236	0.001095	20.789871
509.117330	-3.004600	3.711400	-11.151000	24.091338	0.001095	20.770389
510.117923	-3.017300	3.709900	-11.193000	24.094167	0.001093	20.798356
511.118326	-3.018500	3.711900	-11.203000	24.116517	0.001095	20.785685
512.117307	-3.026600	3.709000	-11.224000	24.130977	0.001095	20.779799
513.118315	-3.008800	3.711800	-11.166000	24.154517	0.001093	20.804831
514.117386	-3.032600	3.710400	-11.251000	24.181438	0.001094	20.777305
515.117910	-3.028800	3.708400	-11.230000	24.187461	0.001095	20.789511
516.121218	-2.983100	3.709700	-11.066000	24.167908	0.001095	20.793132
517.116776	-3.013600	3.710000	-11.179000	24.166091	0.001094	20.790835
518.118979	-3.004900	3.709400	-11.145000	24.179710	0.001094	20.795960
519.123372	-2.999600	3.708900	-11.124000	24.155454	0.001093	20.795339
520.118484	-2.993200	3.708300	-11.098000	24.174437	0.001093	20.793516
521.118995	-2.981000	3.708700	-11.054000	24.148534	0.001093	20.789347
522.125287	-3.005400	3.706300	-11.138000	24.183655	0.001093	20.796124
523.118873	-2.966300	3.708200	-10.998000	24.166701	0.001093	20.796663
524.118731	-2.993300	3.707300	-11.096000	24.162748	0.001095	20.796966
525.124312	-2.998500	3.707000	-11.113000	24.206835	0.001092	20.819373
526.118887	-2.997700	3.707300	-11.111000	24.218530	0.001094	20.788905
527.119727	-3.018500	3.706000	-11.186000	24.205180	0.001095	20.812498
528.120891	-3.000200	3.706200	-11.118000	24.242459	0.001092	20.813381
529.121925	-3.017100	3.704800	-11.177000	24.241595	0.001094	20.803032
530.121867	-3.011600	3.705700	-11.159000	24.243609	0.001093	20.805525
531.122865	-2.963000	3.706100	-10.979000	24.238702	0.001094	20.796811
532.124230	-3.015100	3.702200	-11.161000	24.231994	0.001095	20.810945
533.122860	-3.009600	3.704600	-11.147000	24.252386	0.001096	20.801053
534.125319	-3.010100	3.703300	-11.147000	24.257382	0.001094	20.797530
535.126802	-2.997100	3.702700	-11.096000	24.244864	0.001095	20.797301
536.126004	-2.975600	3.703100	-11.017000	24.257831	0.001096	20.806989
537.127384	-3.001800	3.703100	-11.115000	24.280985	0.001093	20.810774
538.127219	-2.978400	3.704600	-11.032000	24.269249	0.001093	20.808959
539.132859	-3.015200	3.702400	-11.162000	24.298001	0.001094	20.819783
540.127714	-2.995000	3.701500	-11.085000	24.297146	0.001094	20.805648
541.128345	-2.986800	3.702500	-11.057000	24.286233	0.001095	20.813194
542.129274	-3.001300	3.702700	-11.111000	24.289738	0.001096	20.809123
543.131163	-3.014200	3.700700	-11.153000	24.279306	0.001093	20.824737
544.131091	-3.012000	3.701000	-11.147000	24.263055	0.001092	20.807962
545.134338	-2.996700	3.700800	-11.089000	24.248483	0.001095	20.822742
546.133060	-2.989100	3.700900	-11.061000	24.249795	0.001093	20.831171
547.133942	-2.995700	3.699200	-11.079000	24.252558	0.001094	20.823985
548.137124	-2.981400	3.701000	-11.033000	24.255484	0.001094	20.828817
549.137758	-3.018600	3.698200	-11.162000	24.246576	0.001094	20.822252
550.135733	-2.992900	3.698900	-11.069000	24.243284	0.001094	20.809467
551.135745	-3.004000	3.697600	-11.107000	24.263765	0.001093	20.818631
552.135942	-2.996100	3.697600	-11.078000	24.292159	0.001094	20.830043
553.136520	-2.989800	3.698000	-11.055000	24.264735	0.001092	20.805380
554.135857	-3.003400	3.696600	-11.101000	24.281630	0.001092	20.836077
555.137839	-2.998900	3.696800	-11.086000	24.251402	0.001092	20.818084
556.136247	-3.010100	3.697400	-11.129000	24.253399	0.001091	20.820561
557.137709	-3.003200	3.694400	-11.094000	24.236529	0.001091	20.821657
558.135491	-3.013300	3.695700	-11.134000	24.216226	0.001093	20.815043
559.137743	-3.022900	3.694600	-11.167000	24.205346	0.001092	20.822622
560.137023	-2.990100	3.695200	-11.048000	24.212999	0.001094	20.848315
561.136311	-3.006900	3.693900	-11.106000	24.221476	0.001091	20.828369
562.137294	-2.998900	3.694400	-11.078000	24.220775	0.001093	20.833830
563.133772	-2.993700	3.694100	-11.058000	24.240034	0.001091	20.833707
564.138210	-3.007100	3.694700	-11.109000	24.275895	0.001092	20.836013
565.140818	-3.002400	3.693500	-11.087000	24.272439	0.001092	20.815478
566.138335	-3.020000	3.693100	-11.151000	24.277680	0.001091	20.847760
567.138748	-3.022900	3.691700	-11.158000	24.286310	0.001092	20.808529
568.139108	-3.000200	3.693500	-11.080000	24.331467	0.001092	20.822059
569.140652	-2.992100	3.693000	-11.049000	24.319015	0.001091	20.839913
570.139199	-2.983400	3.692100	-11.013000	24.372630	0.001091	20.823997
571.138092	-3.000900	3.692100	-11.078000	24.361205	0.001090	20.816803
572.138900	-2.994800	3.692200	-11.057000	24.373347	0.001090	20.821871
573.139803	-3.002500	3.690100	-11.078000	24.382457	0.001090	20.816312
574.139799	-2.991000	3.691700	-11.040000	24.414760	0.001089	20.807467
575.138963	-3.017900	3.690000	-11.135000	24.421850	0.001088	20.825485
576.138932	-3.001000	3.690600	-11.074000	24.429982	0.001088	20.813729
577.141788	-3.009100	3.690100	-11.102000	24.409765	0.001087	20.814784
578.144297	-2.992600	3.690100	-11.042000	24.410009	0.001090	20.809813
579.142223	-3.001300	3.689100	-11.069000	24.401828	0.001089	20.820097
580.140919	-3.007200	3.687800	-11.088000	24.404313	0.001089	20.821168
581.138327	-3.022100	3.687200	-11.141000	24.418500	0.001087	20.806478
582.138491	-2.994000	3.688200	-11.042000	24.433722	0.001089	20.804205
583.141949	-2.985300	3.688500	-11.010000	24.420089	0.001089	20.814710
584.138983	-2.982500	3.687900	-10.998000	24.374113	0.001088	20.806045
585.139611	-3.002200	3.687000	-11.068000	24.349388	0.001088	20.791199
586.144252	-2.977500	3.688600	-10.982000	24.377478	0.001089	20.821749
587.139531	-3.016600	3.686000	-11.118000	24.397386	0.001087	20.826547
588.140380	-3.011100	3.686300	-11.099000	24.395317	0.001089	20.811669
589.140927	-3.008700	3.685500	-11.087000	24.429917	0.001087	20.797068
590.141241	-2.996300	3.685700	-11.043000	24.446866	0.001086	20.787520
591.139928	-2.988100	3.685200	-11.010000	24.512949	0.001086	20.809249
592.140794	-2.988100	3.685100	-11.010000	24.484601	0.001089	20.786972
593.140255	-3.016500	3.683400	-11.109000	24.471564	0.001088	20.791910
594.140795	-3.037100	3.682500	-11.183000	24.472997	0.001087	20.784813
595.140605	-2.992100	3.683100	-11.020000	24.438187	0.001087	20.788770
596.142876	-2.995200	3.682800	-11.029000	24.414368	0.001087	20.775780
597.140128	-3.010800	3.682500	-11.085000	24.393898	0.001087	20.794124
598.140635	-3.000200	3.682700	-11.048000	24.380639	0.001087	20.790307
599.141510	-3.011300	3.681900	-11.087000	24.383223	0.001087	20.799536
600.140750	-2.998200	3.683800	-11.043000	24.415989	0.001086	20.784519
601.143436	-2.999400	3.681900	-11.042000	24.418589	0.001087	20.776695
602.145092	-3.010800	3.681200	-11.080000	24.411352	0.001087	20.796462
603.144526	-2.989200	3.681400	-11.004000	24.386653	0.001083	20.779744
604.144201	-2.972900	3.681700	-10.944000	24.402820	0.001086	20.786954
605.148520	-2.985300	3.680900	-10.988000	24.400261	0.001083	20.781068
606.143961	-2.988100	3.680500	-10.996000	24.373541	0.001085	20.770383
607.145098	-3.004700	3.679700	-11.055000	24.377216	0.001085	20.773121
608.148796	-3.000900	3.680500	-11.043000	24.384746	0.001085	20.768347
609.146255	-3.017700	3.678000	-11.097000	24.367779	0.001086	20.781199
610.146187	-2.995900	3.678500	-11.018000	24.371992	0.001083	20.776416
611.146027	-3.005000	3.677800	-11.050000	24.414008	0.001084	20.782531
612.145136	-2.984800	3.678700	-10.978000	24.414530	0.001085	20.775942
613.145648	-2.988400	3.678200	-10.991000	24.463894	0.001084	20.771412
614.146230	-2.993800	3.677700	-11.009000	24.462794	0.001084	20.774102
615.146003	-2.992900	3.677800	-11.006000	24.475513	0.001084	20.765052
616.145316	-2.998600	3.677100	-11.026000	24.481926	0.001083	20.767218
617.145137	-2.989700	3.677000	-10.992000	24.493244	0.001084	20.766246
618.149371	-3.002400	3.677000	-11.038000	24.475489	0.001083	20.770717
619.146136	-3.008100	3.676000	-11.057000	24.473623	0.001083	20.781173
620.145328	-3.006100	3.676900	-11.052000	24.474454	0.001085	20.773472
621.148935	-3.013500	3.675900	-11.076000	24.499681	0.001084	20.769858
622.146302	-3.010700	3.675900	-11.066000	24.513907	0.001083	20.791245
623.145613	-2.994900	3.674700	-11.004000	24.530570	0.001084	20.760073
624.150916	-2.995100	3.674100	-11.003000	24.559536	0.001084	20.763056
625.146690	-3.006100	3.673300	-11.041000	24.596713	0.001084	20.779971
626.146152	-2.978900	3.674900	-10.946000	24.602009	0.001084	20.773905
627.150372	-3.010600	3.673600	-11.059000	24.604527	0.001083	20.775009
628.151053	-2.998800	3.674300	-11.017000	24.576719	0.001082	20.785514
629.147948	-2.996700	3.673200	-11.007000	24.542800	0.001082	20.765231
630.150138	-2.999000	3.673200	-11.015000	24.534383	0.001083	20.777175
631.150486	-2.993200	3.672900	-10.992000	24.563007	0.001082	20.768910
632.156788	-3.019700	3.672400	-11.089000	24.556986	0.001080	20.768085
633.152057	-3.017700	3.671600	-11.079000	24.595312	0.001083	20.759124
634.151237	-3.003800	3.671400	-11.027000	24.588826	0.001081	20.766842
635.149635	-3.005300	3.671300	-11.031000	24.559177	0.001080	20.769335
636.151324	-3.016300	3.670600	-11.071000	24.576850	0.001081	20.754350
637.152099	-2.998000	3.671300	-11.005000	24.592518	0.001079	20.759166
638.150258	-2.987700	3.671100	-10.967000	24.606051	0.001081	20.751881
639.151322	-2.989800	3.670200	-10.971000	24.615469	0.001080	20.780773
640.151531	-3.014300	3.668400	-11.057000	24.640612	0.001082	20.783242
641.152389	-3.021800	3.667800	-11.082000	24.608112	0.001079	20.765330
642.151169	-2.997600	3.669000	-10.997000	24.554085	0.001081	20.759959
643.151430	-3.006300	3.669600	-11.031000	24.550696	0.001080	20.750868
644.151630	-3.007900	3.667200	-11.030000	24.541522	0.001080	20.752568
645.151801	-3.004500	3.667500	-11.018000	24.527149	0.001079	20.755217
646.152394	-2.984500	3.668300	-10.947000	24.546101	0.001078	20.762853
647.151388	-2.990800	3.667900	-10.969000	24.518487	0.001079	20.754588
648.153936	-2.987400	3.668700	-10.959000	24.509386	0.001079	20.748775
649.154146	-3.039600	3.664500	-11.136000	24.521347	0.001077	20.747974
650.150926	-3.019900	3.665700	-11.069000	24.538906	0.001079	20.760850
651.151140	-2.992000	3.665200	-10.964000	24.557557	0.001078	20.772925
652.154366	-3.010500	3.666100	-11.035000	24.602198	0.001077	20.770301
653.152514	-2.989900	3.666100	-10.960000	24.605236	0.001078	20.733994
654.153356	-3.019500	3.665000	-11.065000	24.629035	0.001078	20.740330
655.157487	-3.019200	3.663600	-11.060000	24.621613	0.001076	20.750901
656.152688	-3.002200	3.664300	-11.000000	24.620651	0.001077	20.761790
657.153245	-3.023200	3.662700	-11.071000	24.603444	0.001076	20.759223
658.153478	-3.024100	3.663000	-11.076000	24.593741	0.001076	20.752806
659.152238	-3.017500	3.661800	-11.048000	24.609881	0.001075	20.753828
660.158346	-3.022900	3.664000	-11.075000	24.622558	0.001076	20.761333
661.152326	-2.971800	3.663800	-10.887000	24.637256	0.001075	20.751899
662.152983	-3.001900	3.662900	-10.995000	24.650552	0.001076	20.753387
663.157214	-3.010000	3.662900	-11.024000	24.642177	0.001076	20.758733
664.154051	-3.016300	3.662500	-11.046000	24.642649	0.001075	20.748302
665.155502	-3.016100	3.661700	-11.043000	24.669502	0.001076	20.752962
666.156458	-3.004100	3.661600	-10.999000	24.670154	0.001075	20.744132
667.157095	-2.977900	3.662800	-10.906000	24.705617	0.001074	20.768813
668.157778	-3.000700	3.661900	-10.987000	24.701234	0.001074	20.752561
669.162582	-3.008400	3.659600	-11.008000	24.737690	0.001072	20.752635
670.158673	-2.997900	3.660400	-10.973000	24.746121	0.001074	20.728852
671.160179	-2.989800	3.659300	-10.939000	24.737364	0.001074	20.728599
672.160866	-3.010600	3.659000	-11.015000	24.749942	0.001074	20.745016
673.161376	-2.998400	3.658900	-10.970000	24.736517	0.001074	20.764734
674.162850	-2.997400	3.659300	-10.967000	24.724876	0.001074	20.744991
675.161553	-3.005300	3.659000	-10.996000	24.732574	0.001074	20.741811
676.162158	-3.023000	3.658000	-11.056000	24.706839	0.001073	20.737323
677.161929	-3.016000	3.657200	-11.029000	24.703483	0.001074	20.764301
678.160259	-2.992900	3.658700	-10.949000	24.667067	0.001070	20.752415
679.162278	-2.978600	3.657700	-10.894000	24.646007	0.001072	20.749300
680.160873	-2.984200	3.658200	-10.917000	24.657511	0.001073	20.721487
681.162323	-3.007000	3.656100	-10.993000	24.688575	0.001071	20.736064
682.160932	-3.003000	3.657000	-10.979000	24.692648	0.001073	20.728297
683.162384	-2.991100	3.656800	-10.936000	24.690123	0.001071	20.759430
684.163523	-2.992800	3.656200	-10.942000	24.707907	0.001072	20.739343
685.163611	-3.009400	3.657100	-11.004000	24.724746	0.001070	20.736326
686.169886	-2.993300	3.654900	-10.939000	24.738286	0.001070	20.752285
687.166550	-3.007500	3.655200	-10.991000	24.747141	0.001070	20.733669
688.165633	-3.027200	3.653800	-11.059000	24.776354	0.001069	20.751132
689.166062	-2.992000	3.653700	-10.931000	24.773935	0.001070	20.734954
690.168802	-3.004000	3.653600	-10.973000	24.810934	0.001070	20.738420
691.165659	-3.009000	3.652700	-10.990000	24.848625	0.001068	20.743530
692.176552	-3.000800	3.652500	-10.959000	24.837677	0.001067	20.757674
693.169686	-2.993300	3.653600	-10.934000	24.810128	0.001069	20.733343
694.168382	-3.006700	3.652600	-10.981000	24.827772	0.001069	20.741094
695.170403	-2.991300	3.652300	-10.924000	24.807375	0.001067	20.741013
696.171146	-2.990900	3.652800	-10.924000	24.806609	0.001067	20.744037
697.168612	-2.994600	3.652700	-10.937000	24.821329	0.001068	20.740792
698.169072	-3.010800	3.651000	-10.992000	24.839348	0.001066	20.740383
699.169310	-2.992900	3.650700	-10.925000	24.861308	0.001066	20.729706
700.168436	-2.989300	3.652000	-10.916000	24.862546	0.001067	20.749916
701.171711	-2.998800	3.650000	-10.943000	24.854588	0.001067	20.738135
702.167719	-3.015300	3.649800	-11.004000	24.834843	0.001065	20.732069
703.171649	-3.011400	3.650700	-10.992000	24.827683	0.001065	20.736737
704.170464	-2.987800	3.650800	-10.907000	24.820051	0.001065	20.728603
705.169157	-3.022700	3.649800	-11.032000	24.777472	0.001065	20.720959
706.173882	-2.991300	3.650300	-10.918000	24.756781	0.001064	20.747137
707.169333	-2.964900	3.649900	-10.820000	24.738427	0.001064	20.724450
708.170321	-2.971500	3.649200	-10.842000	24.744080	0.001065	20.743400
709.169818	-2.960900	3.650800	-10.808000	24.754548	0.001065	20.737784
710.171180	-2.990800	3.648500	-10.911000	24.753253	0.001064	20.722733
711.172107	-2.971400	3.649500	-10.843000	24.777048	0.001064	20.737130
712.174398	-3.014600	3.647700	-10.995000	24.782816	0.001063	20.738176
713.173130	-2.977600	3.649300	-10.863000	24.792762	0.001061	20.744839
714.172172	-3.010300	3.646200	-10.975000	24.797357	0.001061	20.735225
715.172790	-3.019000	3.645900	-11.006000	24.814145	0.001063	20.734530
716.173024	-3.008000	3.644900	-10.962000	24.810684	0.001061	20.728685
717.174342	-3.014200	3.646500	-10.989000	24.823961	0.001063	20.715457
718.176173	-2.992100	3.645600	-10.907000	24.847633	0.001060	20.725938
719.173537	-3.002700	3.646600	-10.948000	24.886079	0.001061	20.716634
720.171686	-3.011000	3.645900	-10.977000	24.865578	0.001062	20.731146
721.172937	-3.014200	3.646300	-10.989000	24.869178	0.001058	20.731915
722.173945	-2.976800	3.645200	-10.849000	24.862018	0.001061	20.725203
723.174421	-2.982400	3.644900	-10.870000	24.856422	0.001059	20.722906
724.174239	-2.990500	3.645600	-10.901000	24.839284	0.001059	20.736526
725.173075	-3.004800	3.643700	-10.947000	24.854549	0.001061	20.704903
726.174210	-2.981300	3.643900	-10.862000	24.870409	0.001059	20.722244
727.174058	-2.973800	3.645100	-10.839000	24.844278	0.001059	20.705026
728.175007	-2.994100	3.641800	-10.903000	24.889428	0.001060	20.733747
729.173821	-3.001700	3.642200	-10.932000	24.867819	0.001059	20.732447
730.176990	-2.996500	3.643300	-10.916000	24.899814	0.001059	20.722359
731.174112	-3.014800	3.642200	-10.980000	24.893550	0.001058	20.726029
732.176062	-2.976800	3.643100	-10.843000	24.919427	0.001061	20.726398
733.177516	-2.996100	3.641400	-10.908000	24.956023	0.001060	20.737999
734.175879	-2.987900	3.640900	-10.876000	24.951340	0.001059	20.735195
735.177170	-3.015200	3.639100	-10.972000	24.968216	0.001057	20.720839
736.174906	-3.004800	3.639400	-10.935000	24.979154	0.001058	20.721387
737.176799	-3.003500	3.638700	-10.927000	24.965325	0.001058	20.729317
738.176436	-2.993700	3.640100	-10.896000	24.976679	0.001059	20.716057
739.178498	-2.987500	3.638100	-10.867000	24.988961	0.001056	20.710367
740.176319	-2.998000	3.639300	-10.910000	24.994923	0.001057	20.720619
741.176835	-2.994500	3.638700	-10.894000	24.994394	0.001057	20.712975
742.177749	-3.002000	3.639100	-10.923000	25.005300	0.001056	20.725820
743.176451	-2.988800	3.638300	-10.873000	25.017574	0.001055	20.699257
744.179717	-3.015500	3.636600	-10.965000	24.994021	0.001056	20.714023
745.177342	-2.999400	3.638000	-10.911000	24.969726	0.001054	20.725674
746.179244	-2.979100	3.639300	-10.840000	24.927560	0.001056	20.707532
747.182754	-3.000400	3.637000	-10.911000	24.894857	0.001056	20.720703
748.179211	-3.016500	3.635800	-10.966000	24.931796	0.001056	20.724587
749.182508	-2.984800	3.637300	-10.854000	24.907198	0.001054	20.703216
750.181818	-2.985000	3.635600	-10.850000	24.881956	0.001055	20.705857
751.180268	-3.014200	3.634700	-10.954000	24.871709	0.001055	20.714540
752.180289	-2.990300	3.636000	-10.872000	24.854221	0.001055	20.733499
753.180127	-3.013100	3.634500	-10.950000	24.851102	0.001053	20.706185
754.180297	-2.998300	3.636100	-10.900000	24.897320	0.001055	20.716536
755.182378	-3.005500	3.633900	-10.921000	24.916216	0.001054	20.708475
756.180842	-3.003700	3.632900	-10.911000	24.887636	0.001055	20.732422
757.185594	-2.964700	3.635800	-10.777000	24.902949	0.001052	20.728351
758.181169	-2.989300	3.632500	-10.857000	24.910997	0.001054	20.720781
759.181227	-3.017800	3.633100	-10.963000	24.900327	0.001053	20.716709
760.182273	-2.997300	3.634200	-10.892000	24.951413	0.001053	20.713930
761.181934	-2.971000	3.634600	-10.797000	24.982779	0.001052	20.717438
762.183006	-2.989000	3.632200	-10.855000	25.020422	0.001053	20.714446
763.183009	-2.986800	3.633100	-10.851000	25.020862	0.001051	20.721526
764.182607	-2.994500	3.631500	-10.873000	24.994475	0.001052	20.707367
765.183247	-3.004100	3.632200	-10.910000	24.974554	0.001050	20.709182
766.186343	-2.996800	3.631100	-10.880000	24.994117	0.001050	20.697049
767.188836	-2.982900	3.631900	-10.833000	24.998792	0.001048	20.702216
768.185284	-2.999900	3.629700	-10.888000	25.010391	0.001050	20.706746
769.185270	-3.007700	3.630800	-10.919000	25.057350	0.001050	20.707891
770.185282	-2.993100	3.631000	-10.866000	25.077979	0.001048	20.720065
771.189559	-3.013700	3.629800	-10.938000	25.081726	0.001049	20.718136
772.185088	-3.009600	3.629000	-10.921000	25.079038	0.001047	20.688884
773.188698	-3.010700	3.630100	-10.929000	25.077467	0.001048	20.728560
774.184816	-2.985400	3.629600	-10.835000	25.054070	0.001047	20.710288
775.188621	-3.000100	3.627600	-10.882000	25.077337	0.001046	20.678640
776.189886	-2.992200	3.628900	-10.857000	25.081678	0.001045	20.702915
777.189968	-3.002700	3.627300	-10.890000	25.083056	0.001045	20.709987
778.189003	-3.014400	3.626400	-10.930000	25.062199	0.001045	20.706594
779.189130	-3.007800	3.629400	-10.915000	25.060758	0.001045	20.684757
780.189807	-3.009700	3.626300	-10.913000	25.032881	0.001044	20.721262
781.189580	-3.006800	3.627900	-10.907000	25.018279	0.001045	20.711820
782.191955	-3.011700	3.626100	-10.920000	25.003187	0.001042	20.706628
783.190773	-3.004900	3.625500	-10.893000	24.984862	0.001043	20.711943
784.190782	-3.002800	3.625800	-10.887000	24.977744	0.001044	20.706694
785.190703	-2.973600	3.626600	-10.784000	24.983259	0.001043	20.727878
786.191165	-3.000100	3.626700	-10.879000	25.004736	0.001042	20.705812
787.193686	-2.973000	3.627700	-10.784000	25.012685	0.001042	20.707627
788.190511	-3.001000	3.624100	-10.875000	24.994238	0.001042	20.706654
789.193044	-3.024700	3.623200	-10.957000	24.972036	0.001042	20.700964
790.190679	-2.990600	3.623800	-10.836000	24.930278	0.001040	20.705519
791.191347	-2.994100	3.624800	-10.852000	24.926377	0.001039	20.700654
792.192791	-3.021400	3.623100	-10.946000	24.910087	0.001042	20.693787
793.193164	-2.990100	3.622300	-10.830000	24.930425	0.001040	20.703295
794.191468	-2.982400	3.622900	-10.803000	24.928853	0.001040	20.709305
795.191297	-2.990000	3.622700	-10.831000	24.946487	0.001039	20.730798
796.191524	-2.997600	3.623100	-10.859000	24.984222	0.001037	20.716516
797.191462	-3.033300	3.620500	-10.981000	24.975418	0.001040	20.689659
798.195156	-2.998600	3.620500	-10.854000	24.970848	0.001038	20.705462
799.192050	-2.998200	3.622000	-10.858000	24.957117	0.001038	20.704956
800.194479	-2.972100	3.622700	-10.766000	24.945177	0.001038	20.729957
801.193043	-3.006400	3.620500	-10.884000	24.933114	0.001036	20.710737
802.192279	-3.009400	3.619800	-10.893000	24.956531	0.001038	20.702946
803.196615	-2.993900	3.620900	-10.840000	24.978880	0.001037	20.716370
804.194058	-3.014600	3.620000	-10.911000	25.007541	0.001036	20.702938
805.193491	-3.012500	3.619400	-10.902000	24.993223	0.001036	20.716068
806.192283	-2.992700	3.619200	-10.830000	24.982970	0.001035	20.683962
807.195019	-2.981900	3.619900	-10.793000	25.001882	0.001034	20.709586
808.195689	-3.017600	3.618100	-10.917000	24.983337	0.001036	20.711834
809.196644	-3.004700	3.619000	-10.873000	24.979477	0.001034	20.711753
810.194788	-3.020000	3.616700	-10.922000	24.995937	0.001031	20.702669
811.195992	-2.991900	3.618100	-10.824000	24.995888	0.001033	20.706414
812.201264	-2.997300	3.617100	-10.841000	24.979168	0.001033	20.703856
813.197085	-2.979800	3.618200	-10.780000	24.987272	0.001034	20.716733
814.198489	-3.012000	3.617000	-10.893000	24.994627	0.001032	20.723167
815.196991	-2.983600	3.617300	-10.790000	25.063161	0.001032	20.714673
816.198390	-3.016100	3.615700	-10.904000	25.084613	0.001033	20.719137
817.196560	-3.021000	3.614700	-10.918000	25.108841	0.001029	20.723071
818.197181	-2.999400	3.614300	-10.839000	25.128605	0.001029	20.734852
819.202734	-3.002000	3.614800	-10.851000	25.159819	0.001032	20.703597
820.199925	-2.972700	3.616000	-10.747000	25.189746	0.001030	20.719417
821.198866	-3.009100	3.613900	-10.873000	25.215844	0.001032	20.717643
822.200545	-3.009100	3.613100	-10.871000	25.218271	0.001029	20.704432
823.198809	-2.999300	3.615400	-10.843000	25.185228	0.001030	20.733374
824.198730	-2.994500	3.613100	-10.819000	25.138462	0.001030	20.727202
825.203188	-2.993400	3.615000	-10.821000	25.120359	0.001029	20.729418
826.197897	-2.997200	3.613900	-10.830000	25.129382	0.001029	20.708129
827.201553	-2.987800	3.612200	-10.791000	25.119635	0.001028	20.701662
828.200351	-2.963900	3.614400	-10.711000	25.105164	0.001027	20.713215
829.201135	-3.018600	3.612400	-10.903000	25.118952	0.001028	20.716625
830.202368	-3.001500	3.613900	-10.846000	25.128342	0.001027	20.707559
831.201464	-3.014200	3.611300	-10.883000	25.157072	0.001028	20.722177
832.201570	-3.006600	3.611300	-10.857000	25.194971	0.001027	20.724189
833.200991	-3.004600	3.609500	-10.844000	25.216868	0.001026	20.725309
834.201396	-3.017400	3.610500	-10.892000	25.234555	0.001027	20.716513
835.202264	-2.994800	3.611200	-10.813000	25.264976	0.001026	20.717184
836.215497	-2.998200	3.610000	-10.822000	25.261564	0.001024	20.717553
837.203366	-2.996200	3.609100	-10.813000	25.260808	0.001024	20.717267
838.202511	-2.989900	3.609500	-10.792000	25.261794	0.001024	20.711619
839.202912	-2.990700	3.609800	-10.793000	25.223190	0.001023	20.733554
840.201881	-2.998400	3.609000	-10.820000	25.206432	0.001022	20.718626
841.204546	-2.990000	3.608600	-10.789000	25.172615	0.001022	20.721660
842.204555	-2.996800	3.608900	-10.813000	25.144742	0.001022	20.733981
843.202657	-2.994100	3.609600	-10.806000	25.149954	0.001023	20.743007
844.201683	-2.995500	3.606800	-10.802000	25.171869	0.001021	20.726600
845.202731	-3.001600	3.606800	-10.825000	25.145175	0.001020	20.742477
846.203641	-2.992900	3.606700	-10.794000	25.130802	0.001020	20.738479
847.206518	-2.991800	3.608000	-10.793000	25.150323	0.001021	20.731998
848.204144	-3.003300	3.607500	-10.834000	25.133596	0.001020	20.718524
849.204063	-2.997700	3.605800	-10.808000	25.112481	0.001018	20.722932
850.204101	-3.004900	3.606500	-10.836000	25.121585	0.001020	20.734442
851.205372	-3.012200	3.605100	-10.858000	25.126325	0.001020	20.732563
852.210371	-2.998100	3.606000	-10.809000	25.149731	0.001018	20.726187
853.205608	-3.013400	3.603500	-10.858000	25.165740	0.001019	20.716654
854.206297	-3.000700	3.604800	-10.816000	25.180350	0.001017	20.739857
855.207473	-2.982100	3.604500	-10.748000	25.191783	0.001017	20.725256
856.207438	-3.010800	3.602000	-10.843000	25.183999	0.001016	20.726450
857.207441	-2.985300	3.604100	-10.758000	25.173006	0.001017	20.734381
858.206586	-3.000200	3.602500	-10.808000	25.182207	0.001018	20.728445
859.207634	-3.008700	3.602100	-10.837000	25.137191	0.001016	20.741574
860.206652	-2.975300	3.603500	-10.721000	25.121125	0.001015	20.724496
861.206784	-2.982700	3.601500	-10.742000	25.102077	0.001013	20.739515
862.206789	-2.981200	3.601800	-10.737000	25.091955	0.001011	20.740734
863.206995	-3.004000	3.601100	-10.816000	25.094446	0.001012	20.751296
864.206618	-2.998200	3.602200	-10.799000	25.072939	0.001013	20.735395
865.210864	-2.990600	3.599800	-10.765000	25.091507	0.001013	20.726533
866.206980	-3.002500	3.600100	-10.808000	25.128398	0.001010	20.758352
867.207767	-2.984700	3.600600	-10.746000	25.170987	0.001012	20.751321
868.211834	-2.995800	3.601100	-10.788000	25.194700	0.001011	20.759006
869.208228	-2.996700	3.600400	-10.788000	25.211800	0.001010	20.725437
870.210132	-2.987700	3.601100	-10.758000	25.237010	0.001011	20.748377
871.208182	-3.002300	3.598700	-10.803000	25.267259	0.001010	20.747454
872.225571	-2.988600	3.598900	-10.754000	25.298421	0.001010	20.749817
873.209185	-2.991000	3.598600	-10.762000	25.309135	0.001008	20.745876
874.209770	-2.993800	3.598600	-10.772000	25.337617	0.001010	20.742230
875.208422	-3.010800	3.598000	-10.832000	25.356946	0.001008	20.768752
876.207620	-3.000900	3.597500	-10.793000	25.359136	0.001008	20.737284
877.209572	-2.990000	3.598200	-10.757000	25.370298	0.001006	20.744225
878.209020	-3.006000	3.596800	-10.811000	25.407732	0.001007	20.741985
879.213426	-2.984400	3.597900	-10.737000	25.375468	0.001007	20.746571
880.210090	-3.001200	3.598900	-10.800000	25.380337	0.001006	20.744822
881.213232	-2.999900	3.595500	-10.784000	25.409117	0.001006	20.736737
882.209928	-3.011800	3.595600	-10.827000	25.380036	0.001006	20.748787
883.210907	-3.013200	3.594200	-10.828000	25.380655	0.001003	20.742296
884.211853	-2.984300	3.597000	-10.734000	25.351433	0.001006	20.747095
885.211739	-3.001100	3.594300	-10.786000	25.355064	0.001002	20.743154
886.211583	-2.992500	3.593500	-10.753000	25.339579	0.001003	20.750365
887.212312	-3.002600	3.594500	-10.791000	25.351825	0.001003	20.761239
888.215919	-2.976000	3.594100	-10.694000	25.364127	0.001003	20.744193
889.212543	-3.027600	3.594200	-10.878000	25.348463	0.001004	20.746009
890.213558	-2.972900	3.593800	-10.683000	25.329557	0.001003	20.738405
891.213070	-2.994500	3.593100	-10.757000	25.316652	0.001002	20.739672
892.213444	-3.017700	3.592700	-10.840000	25.298423	0.001001	20.759303
893.214051	-3.022400	3.592000	-10.855000	25.302999	0.001003	20.743033
894.213598	-3.020600	3.592200	-10.851000	25.342789	0.001001	20.727034
895.216250	-2.973600	3.592600	-10.682000	25.321807	0.001000	20.767609
896.213321	-3.020200	3.590700	-10.843000	25.323315	0.000999	20.753475
897.215267	-3.023400	3.591200	-10.857000	25.330171	0.001000	20.765575
898.216364	-2.984800	3.592100	-10.721000	25.348367	0.001000	20.747809
899.217134	-2.986800	3.592500	-10.728000	25.367134	0.000997	20.752428
900.221329	-2.985800	3.590700	-10.720000	25.383507	0.000999	20.763654
901.219673	-3.007700	3.588400	-10.792000	25.395386	0.000997	20.762779
902.218675	-2.968300	3.589000	-10.652000	25.412231	0.000999	20.769737
903.218463	-3.016100	3.587600	-10.819000	25.405547	0.000999	20.763973
904.219882	-3.002300	3.588800	-10.774000	25.461339	0.000998	20.779694
905.221994	-2.990500	3.588800	-10.731000	25.489693	0.000997	20.768339
906.220684	-2.996800	3.588600	-10.752000	25.483580	0.000994	20.770260
907.219435	-2.982300	3.589300	-10.703000	25.497069	0.000995	20.775272
908.223783	-2.990600	3.585900	-10.723000	25.450642	0.000995	20.779384
909.221033	-3.004600	3.586800	-10.776000	25.443405	0.000992	20.770221
910.220988	-2.996400	3.586300	-10.745000	25.443902	0.000992	20.762658
911.221861	-3.008400	3.586000	-10.787000	25.462439	0.000994	20.772739
912.221976	-2.970800	3.586900	-10.654000	25.462765	0.000992	20.755996
913.222941	-3.008000	3.585700	-10.784000	25.499188	0.000995	20.763649
914.222743	-2.997600	3.585300	-10.746000	25.511611	0.000990	20.774228
915.223262	-3.002900	3.586100	-10.768000	25.475531	0.000991	20.748426
916.223172	-2.983700	3.585300	-10.696000	25.486415	0.000991	20.762201
917.222987	-3.006900	3.584600	-10.777000	25.449659	0.000990	20.764646
918.222414	-3.001900	3.584200	-10.758000	25.435535	0.000990	20.756153
919.223964	-2.985700	3.585600	-10.704000	25.438441	0.000988	20.769977
920.224503	-2.986700	3.585100	-10.707000	25.435364	0.000990	20.765938
921.224319	-2.994000	3.583000	-10.727000	25.454170	0.000989	20.765383
922.227508	-3.008200	3.582500	-10.776000	25.474278	0.000988	20.784153
923.224617	-2.974100	3.584100	-10.657000	25.490682	0.000987	20.793039
924.228110	-3.013700	3.581900	-10.794000	25.474229	0.000987	20.778414
925.224850	-3.000500	3.581400	-10.744000	25.494679	0.000986	20.796579
926.225000	-3.014200	3.578700	-10.786000	25.499694	0.000984	20.785969
927.226940	-2.998200	3.581700	-10.737000	25.528048	0.000985	20.763233
928.228063	-2.989500	3.581600	-10.706000	25.542464	0.000985	20.766805
929.225427	-2.998000	3.579600	-10.731000	25.520763	0.000984	20.776780
930.226075	-2.979300	3.581900	-10.670000	25.539421	0.000985	20.785561
931.224923	-2.983800	3.580300	-10.682000	25.563525	0.000984	20.767093
932.224981	-2.994600	3.578400	-10.715000	25.547122	0.000984	20.754887
933.227989	-2.987500	3.580500	-10.696000	25.541513	0.000981	20.775333
934.226337	-3.020300	3.577000	-10.803000	25.541733	0.000983	20.787408
935.230722	-2.996000	3.578300	-10.719000	25.541334	0.000982	20.774205
936.226892	-3.008700	3.577500	-10.763000	25.553805	0.000980	20.780092
937.226028	-3.006600	3.577900	-10.756000	25.590404	0.000980	20.793614
938.227083	-3.025100	3.577800	-10.822000	25.595548	0.000982	20.784556
939.228858	-2.973700	3.577700	-10.637000	25.597933	0.000980	20.776520
940.227186	-2.994400	3.576200	-10.708000	25.605455	0.000978	20.782652
941.227967	-2.979900	3.576000	-10.655000	25.577877	0.000978	20.783404
942.226949	-2.997400	3.575700	-10.716000	25.585626	0.000978	20.787393
943.227289	-3.005100	3.574500	-10.741000	25.588882	0.000978	20.806310
944.230418	-2.985500	3.577500	-10.679000	25.570494	0.000979	20.783576
945.229352	-2.999100	3.576000	-10.723000	25.522206	0.000977	20.809998
946.228294	-3.002800	3.574400	-10.732000	25.493877	0.000977	20.786764
947.229286	-2.993700	3.575600	-10.703000	25.469177	0.000975	20.791359
948.229587	-3.008000	3.573400	-10.748000	25.467036	0.000977	20.806278
949.232927	-2.999700	3.574300	-10.720000	25.473167	0.000976	20.788253
950.230464	-3.002900	3.572800	-10.728000	25.469806	0.000973	20.801473
951.230666	-3.008100	3.572800	-10.746000	25.464213	0.000975	20.812926
952.228835	-2.984500	3.573800	-10.665000	25.483621	0.000971	20.778836
953.230274	-3.010400	3.573100	-10.755000	25.503046	0.000971	20.807352
954.231666	-3.028200	3.572500	-10.817000	25.506001	0.000973	20.794673
955.232674	-2.992200	3.573400	-10.691000	25.506938	0.000972	20.783760
956.230814	-2.990400	3.571500	-10.679000	25.505253	0.000974	20.781593
957.230185	-3.004400	3.571800	-10.731000	25.551026	0.000972	20.794845
958.231063	-2.995300	3.571600	-10.697000	25.580511	0.000971	20.798378
959.230216	-3.014100	3.571400	-10.763000	25.575783	0.000972	20.790310
960.234698	-2.994500	3.570200	-10.690000	25.586211	0.000973	20.813111
961.231161	-3.000500	3.569200	-10.708000	25.574327	0.000972	20.802124
962.233043	-2.978200	3.570400	-10.633000	25.551983	0.000970	20.804814
963.232266	-2.989300	3.570100	-10.671000	25.553074	0.000970	20.787892
964.232150	-2.985200	3.568500	-10.651000	25.533880	0.000970	20.804178
965.236990	-3.017400	3.568600	-10.766000	25.527539	0.000971	20.825785
966.235743	-3.008300	3.569300	-10.736000	25.497290	0.000968	20.813900
967.232015	-3.007500	3.569500	-10.734000	25.474041	0.000968	20.813313
968.230659	-3.012500	3.569200	-10.749000	25.460015	0.000968	20.813927
969.231715	-2.993100	3.568500	-10.679000	25.465185	0.000968	20.797781
970.232768	-2.991000	3.567200	-10.668000	25.467458	0.000967	20.810969
971.234451	-2.978200	3.568400	-10.627000	25.504059	0.000965	20.826862
972.233530	-2.996400	3.567200	-10.688000	25.520179	0.000967	20.826928
973.234859	-2.992200	3.566600	-10.671000	25.546636	0.000966	20.813669
974.232852	-2.989300	3.568000	-10.664000	25.500928	0.000965	20.800484
975.233281	-3.008500	3.565400	-10.726000	25.481496	0.000962	20.823169
976.237994	-3.008500	3.564600	-10.723000	25.493912	0.000964	20.830896
977.235434	-3.013000	3.565400	-10.741000	25.490827	0.000963	20.824953
978.236667	-3.007300	3.564700	-10.720000	25.469939	0.000962	20.817254
979.234352	-3.002500	3.564000	-10.699000	25.490487	0.000963	20.825560
980.235219	-3.016000	3.563400	-10.746000	25.537321	0.000962	20.824703
981.235658	-2.997500	3.565000	-10.684000	25.553748	0.000962	20.819389
982.247175	-3.008800	3.563400	-10.721000	25.551478	0.000961	20.817584
983.238027	-3.005100	3.562900	-10.706000	25.581002	0.000960	20.824001
984.237772	-2.996400	3.562200	-10.673000	25.624902	0.000961	20.815459
985.237546	-3.002400	3.561100	-10.691000	25.614159	0.000960	20.847816
986.239788	-3.011400	3.562000	-10.725000	25.605335	0.000958	20.824730
987.243399	-2.998800	3.562100	-10.681000	25.603415	0.000958	20.823750
988.239110	-3.013100	3.560800	-10.728000	25.625384	0.000958	20.827322
989.243373	-2.991700	3.560400	-10.650000	25.637351	0.000959	20.850720
990.242021	-2.969100	3.561600	-10.572000	25.608423	0.000957	20.843478
991.240197	-2.987600	3.560400	-10.636000	25.572069	0.000956	20.849167
992.245926	-2.986800	3.560400	-10.632000	25.550963	0.000955	20.848833
993.239808	-2.970500	3.560300	-10.575000	25.533892	0.000955	20.836906
994.244081	-2.990000	3.560800	-10.646000	25.518336	0.000953	20.845939
995.240013	-3.005500	3.558000	-10.691000	25.498254	0.000953	20.823876
996.240711	-2.981600	3.560100	-10.614000	25.462865	0.000951	20.839547
997.241096	-2.979700	3.560000	-10.606000	25.446129	0.000952	20.850241
998.240673	-2.980500	3.559400	-10.607000	25.457762	0.000951	20.849595
999.242140	-3.006000	3.558600	-10.696000	25.464275	0.000950	20.841437
1000.242170	-2.997000	3.556900	-10.659000	25.461214	0.000948	20.842631
1001.241370	-3.011700	3.556400	-10.709000	25.458332	0.000950	20.854435
1002.241337	-3.013500	3.556100	-10.715000	25.455352	0.000949	20.850969
1003.245339	-3.013500	3.554900	-10.712000	25.457412	0.000949	20.851141
1004.241127	-2.989400	3.556500	-10.631000	25.482095	0.000947	20.843210
1005.244409	-3.006400	3.556000	-10.690000	25.520861	0.000948	20.850846
1006.241483	-3.002800	3.554200	-10.671000	25.533731	0.000947	20.861873
1007.241647	-3.004300	3.554600	-10.676000	25.556810	0.000944	20.839533
1008.246055	-2.981000	3.556000	-10.599000	25.563476	0.000947	20.864244
1009.245241	-2.985600	3.554600	-10.611000	25.609768	0.000947	20.830605
1010.242508	-2.994400	3.555500	-10.645000	25.631185	0.000946	20.854484
1011.242780	-3.023400	3.552800	-10.740000	25.652282	0.000945	20.855285
1012.247793	-2.990100	3.554100	-10.626000	25.667071	0.000946	20.864448
1013.243034	-3.007200	3.552400	-10.682000	25.659591	0.000943	20.870685
1014.245790	-2.996800	3.552700	-10.646000	25.678100	0.000943	20.857508
1015.242131	-2.964800	3.553000	-10.532000	25.667763	0.000942	20.862773
1016.245666	-2.985400	3.552500	-10.605000	25.694721	0.000943	20.876571
1017.241251	-2.988000	3.551700	-10.611000	25.737980	0.000941	20.848900
1018.242394	-2.992000	3.550000	-10.621000	25.753281	0.000940	20.850519
1019.244571	-2.993800	3.550800	-10.629000	25.766978	0.000939	20.869491
1020.243732	-3.000800	3.550200	-10.652000	25.797107	0.000939	20.856609
1021.243406	-3.010700	3.550200	-10.687000	25.793950	0.000939	20.875247
1022.242607	-3.005100	3.549200	-10.664000	25.786104	0.000936	20.846979
1023.243769	-2.993800	3.549300	-10.625000	25.806230	0.000937	20.867668
1024.243611	-2.979300	3.550500	-10.577000	25.793289	0.000938	20.850403
1025.246294	-3.016800	3.548000	-10.703000	25.781929	0.000935	20.867440
1026.243628	-3.020500	3.547500	-10.714000	25.749089	0.000934	20.849153
1027.245522	-3.005300	3.547900	-10.661000	25.765960	0.000937	20.875581
1028.244695	-3.009100	3.546900	-10.672000	25.779772	0.000934	20.862903
1029.243822	-2.987800	3.548500	-10.601000	25.772723	0.000935	20.889959
1030.248006	-3.002700	3.546400	-10.647000	25.756446	0.000934	20.880249
1031.245861	-3.016900	3.544500	-10.692000	25.731287	0.000933	20.886746
1032.248019	-2.995500	3.547500	-10.625000	25.735260	0.000933	20.873667
1033.247294	-2.971900	3.546600	-10.539000	25.731312	0.000932	20.855953
1034.246770	-2.975000	3.546500	-10.549000	25.750544	0.000931	20.869579
1035.251375	-3.000800	3.546200	-10.639000	25.725189	0.000931	20.872561
1036.250152	-3.004700	3.546600	-10.655000	25.733540	0.000931	20.855820
1037.249372	-2.986600	3.546700	-10.591000	25.757167	0.000932	20.862956
1038.249342	-2.970500	3.547300	-10.536000	25.786587	0.000930	20.863111
1039.252605	-3.019900	3.545200	-10.705000	25.817839	0.000928	20.867002
1040.254009	-3.034200	3.542600	-10.748000	25.812206	0.000927	20.884102
1041.252247	-2.997200	3.543200	-10.617000	25.840821	0.000928	20.878234
1042.254210	-3.010300	3.542900	-10.665000	25.828727	0.000926	20.866560
1043.254704	-3.009500	3.541600	-10.657000	25.788955	0.000925	20.873549
1044.251186	-2.983100	3.543100	-10.567000	25.770895	0.000926	20.862047
1045.252271	-3.013900	3.541600	-10.673000	25.792070	0.000925	20.877627
1046.258854	-2.991400	3.542400	-10.594000	25.796717	0.000926	20.855743
1047.252853	-2.993700	3.541800	-10.602000	25.763252	0.000925	20.854844
1048.252665	-3.001700	3.541200	-10.629000	25.757091	0.000925	20.863828
1049.252744	-3.016600	3.540300	-10.679000	25.789759	0.000922	20.843538
1050.252964	-3.016500	3.539200	-10.674000	25.776452	0.000922	20.852456
1051.254112	-2.976800	3.541000	-10.539000	25.746957	0.000923	20.854598
1052.254687	-2.977500	3.541300	-10.542000	25.768175	0.000921	20.834186
1053.252573	-3.009700	3.539700	-10.652000	25.766416	0.000921	20.848066
1054.255270	-2.998500	3.539200	-10.612000	25.752898	0.000920	20.834962
1055.255043	-3.013400	3.537100	-10.658000	25.793347	0.000919	20.849039
1056.256399	-3.016700	3.537000	-10.669000	25.794015	0.000919	20.853028
1057.258313	-2.988700	3.538200	-10.573000	25.781448	0.000919	20.853682
1058.255818	-3.002500	3.537200	-10.620000	25.797140	0.000916	20.850004
1059.257526	-3.003600	3.537300	-10.624000	25.803952	0.000916	20.859217
1060.256590	-2.993800	3.537800	-10.591000	25.808053	0.000916	20.858121
1061.257993	-2.988400	3.537200	-10.568000	25.782043	0.000918	20.845744
1062.260292	-3.014700	3.535100	-10.656000	25.790613	0.000917	20.844396
1063.259412	-2.995600	3.536700	-10.592000	25.817046	0.000915	20.851034
1064.258767	-3.001600	3.534700	-10.609000	25.843773	0.000915	20.835208
1065.258579	-2.985600	3.535700	-10.555000	25.843716	0.000915	20.843686
1066.260524	-2.996500	3.534800	-10.591000	25.845734	0.000913	20.815368
1067.265576	-2.997000	3.535500	-10.594000	25.841056	0.000914	20.841013
1068.261121	-2.989600	3.535500	-10.568000	25.836654	0.000911	20.847970
1069.260634	-3.015400	3.533500	-10.652000	25.863859	0.000912	20.834523
1070.261630	-3.007000	3.533800	-10.625000	25.848268	0.000911	20.843043
1071.260078	-3.011800	3.534900	-10.645000	25.834091	0.000911	20.834965
1072.262382	-3.012600	3.532700	-10.642000	25.831374	0.000911	20.842193
1073.266736	-2.986500	3.532700	-10.550000	25.772744	0.000912	20.851103
1074.261441	-3.034100	3.530600	-10.711000	25.758461	0.000909	20.845290
1075.264494	-2.999300	3.531800	-10.591000	25.742582	0.000908	20.826023
1076.261248	-3.022700	3.530900	-10.672000	25.774821	0.000907	20.854137
1077.260951	-2.993600	3.530500	-10.568000	25.794646	0.000908	20.823792
1078.261124	-2.988500	3.531700	-10.552000	25.781926	0.000905	20.826188
1079.266191	-2.971200	3.531300	-10.490000	25.761758	0.000906	20.815412
1080.263591	-2.981900	3.531200	-10.528000	25.767219	0.000905	20.851717
1081.261761	-3.025300	3.529700	-10.677000	25.736666	0.000905	20.804907
1082.263365	-3.001000	3.529600	-10.591000	25.718801	0.000906	20.832007
1083.262778	-2.996700	3.529100	-10.576000	25.729218	0.000903	20.831091
1084.265571	-3.001500	3.528300	-10.590000	25.739351	0.000902	20.827045
1085.263805	-3.025100	3.527300	-10.669000	25.724074	0.000903	20.813123
1086.266835	-2.991600	3.529100	-10.557000	25.709919	0.000902	20.836837
1087.263135	-2.997300	3.528700	-10.575000	25.693274	0.000901	20.820119
1088.263427	-3.019100	3.525500	-10.643000	25.696100	0.000902	20.824379
1089.269546	-2.991700	3.528200	-10.554000	25.673821	0.000902	20.816702
1090.264902	-2.983200	3.528100	-10.523000	25.643859	0.000900	20.813636
1091.264385	-3.015900	3.526200	-10.633000	25.629598	0.000900	20.813063
1092.265048	-3.023800	3.526300	-10.662000	25.634393	0.000899	20.809818
1093.264402	-3.012500	3.524900	-10.618000	25.660187	0.000901	20.806801
1094.265258	-3.007800	3.524900	-10.601000	25.676595	0.000898	20.824229
1095.265800	-3.008300	3.524400	-10.602000	25.696072	0.000896	20.851378
1096.264603	-3.010600	3.525400	-10.612000	25.703780	0.000898	20.800325
1097.264354	-3.011600	3.525600	-10.616000	25.724778	0.000895	20.801502
1098.264468	-2.987500	3.523800	-10.525000	25.751017	0.000895	20.812211
1099.264497	-2.989800	3.523300	-10.533000	25.753996	0.000897	20.800030
1100.268089	-2.993900	3.523400	-10.548000	25.768669	0.000893	20.800543
1101.264258	-3.011200	3.523000	-10.608000	25.806603	0.000892	20.806405
1102.266925	-3.025200	3.521600	-10.652000	25.815351	0.000893	20.808081
1103.266181	-2.989200	3.523200	-10.531000	25.772225	0.000892	20.804115
1104.264347	-2.998000	3.521000	-10.554000	25.748671	0.000892	20.799897
1105.267541	-2.999800	3.520900	-10.561000	25.781463	0.000891	20.801541
1106.267732	-3.015600	3.519300	-10.612000	25.791732	0.000890	20.820391
1107.266212	-3.019000	3.520900	-10.629000	25.783977	0.000890	20.800747
1108.267004	-2.990300	3.519100	-10.522000	25.808033	0.000889	20.810687
1109.267776	-2.979400	3.519700	-10.486000	25.810621	0.000890	20.796691
1110.267946	-2.982800	3.519800	-10.498000	25.835295	0.000890	20.793028
1111.271141	-2.990200	3.519000	-10.521000	25.806729	0.000887	20.776187
1112.267477	-3.012800	3.517600	-10.597000	25.785789	0.000887	20.812999
1113.269501	-3.013700	3.517800	-10.600000	25.813191	0.000889	20.801644
1114.267601	-2.989200	3.517400	-10.513000	25.798062	0.000885	20.799248
1115.268180	-3.018000	3.516900	-10.613000	25.844173	0.000885	20.792937
1116.275707	-2.994600	3.519000	-10.535000	25.833593	0.000883	20.792266
1117.272203	-3.014300	3.516400	-10.598000	25.808233	0.000885	20.767266
1118.267832	-2.987700	3.516200	-10.504000	25.816062	0.000885	20.786984
1119.268773	-3.002800	3.516300	-10.558000	25.821531	0.000884	20.808124
1120.269639	-3.002300	3.514000	-10.549000	25.819139	0.000882	20.817101
1121.271346	-2.971200	3.515600	-10.444000	25.861872	0.000881	20.781319
1122.273222	-2.979100	3.514300	-10.469000	25.874445	0.000880	20.801535
1123.271060	-3.001200	3.515300	-10.549000	25.903586	0.000881	20.790507
1124.273046	-3.002900	3.513700	-10.550000	25.934394	0.000880	20.790163
1125.271734	-3.029300	3.513800	-10.643000	25.935631	0.000879	20.786190
1126.272147	-3.025500	3.512700	-10.626000	25.934467	0.000881	20.792133
1127.277185	-3.005600	3.513100	-10.558000	25.920039	0.000879	20.790915
1128.272310	-2.994600	3.512700	-10.517000	25.889489	0.000877	20.799105
1129.271357	-3.011700	3.511100	-10.574000	25.869764	0.000878	20.778815
1130.272442	-2.998900	3.513000	-10.534000	25.840409	0.000878	20.766396
1131.272395	-3.002100	3.511000	-10.539000	25.838570	0.000876	20.801533
1132.271332	-3.004700	3.512000	-10.551000	25.840409	0.000876	20.786785
1133.275498	-3.008900	3.510300	-10.562000	25.768888	0.000874	20.776107
1134.272326	-2.995300	3.511400	-10.516000	25.758625	0.000876	20.792352
1135.273266	-3.024200	3.508600	-10.610000	25.754580	0.000874	20.793978
1136.272167	-3.004600	3.510300	-10.546000	25.743038	0.000876	20.781436
1137.273274	-3.004000	3.509000	-10.540000	25.744023	0.000874	20.785271
1138.277205	-3.001300	3.510200	-10.534000	25.747440	0.000875	20.799609
1139.273932	-2.998900	3.507300	-10.517000	25.776228	0.000875	20.799601
1140.276567	-2.991300	3.507800	-10.491000	25.768032	0.000871	20.788050
1141.273625	-3.005300	3.507600	-10.539000	25.756703	0.000872	20.782360
1142.274098	-3.008800	3.506200	-10.549000	25.737803	0.000871	20.777127
1143.274817	-2.987300	3.506900	-10.475000	25.696587	0.000870	20.791204
1144.273946	-2.972500	3.507400	-10.425000	25.704637	0.000871	20.774633
1145.273462	-3.033300	3.505000	-10.631000	25.720988	0.000868	20.772090
1146.273727	-3.002500	3.505700	-10.525000	25.765816	0.000869	20.781082
1147.274089	-3.012600	3.504600	-10.557000	25.770707	0.000867	20.776513
1148.275526	-2.996100	3.505500	-10.500000	25.814435	0.000868	20.782979
1149.275939	-2.991100	3.506100	-10.485000	25.777169	0.000866	20.782529
1150.278973	-2.972000	3.506000	-10.419000	25.749277	0.000868	20.785332
1151.275674	-3.000600	3.504200	-10.514000	25.724632	0.000867	20.770535
1152.274660	-3.004500	3.503600	-10.526000	25.725999	0.000865	20.782814
1153.275749	-2.995800	3.502900	-10.492000	25.727521	0.000863	20.778652
1154.280683	-3.014600	3.502500	-10.557000	25.704218	0.000864	20.763307
1155.275394	-2.998100	3.500600	-10.494000	25.738312	0.000862	20.757723
1156.278278	-3.003100	3.501200	-10.514000	25.769296	0.000862	20.784578
1157.275545	-2.981400	3.503000	-10.443000	25.809842	0.000861	20.757976
1158.276725	-2.984900	3.502000	-10.451000	25.858093	0.000863	20.778470
1159.276667	-3.000800	3.499900	-10.501000	25.892150	0.000861	20.768113
1160.280320	-2.985000	3.501900	-10.453000	25.920469	0.000864	20.767164
1161.277058	-2.991300	3.500000	-10.467000	25.973514	0.000859	20.760713
1162.285663	-3.003100	3.497800	-10.503000	25.989781	0.000861	20.774210
1163.278534	-2.989100	3.499600	-10.458000	26.028137	0.000861	20.766280
1164.277833	-2.995800	3.498100	-10.478000	26.038471	0.000857	20.770498
1165.282437	-2.990300	3.498200	-10.459000	26.054240	0.000857	20.758366
1166.281729	-3.029100	3.498400	-10.595000	26.014979	0.000857	20.746421
1167.287720	-2.994600	3.497300	-10.472000	25.996476	0.000855	20.770980
1168.280889	-3.002200	3.497300	-10.499000	25.970690	0.000855	20.773048
1169.280384	-2.993500	3.496800	-10.465000	25.972155	0.000855	20.763140
1170.283490	-2.989400	3.495200	-10.446000	25.972959	0.000855	20.759681
1171.281693	-3.000000	3.497800	-10.492000	25.980689	0.000853	20.766024
1172.279865	-2.982900	3.497300	-10.432000	25.976287	0.000853	20.745954
1173.281862	-2.980400	3.495200	-10.416000	25.985734	0.000853	20.757342
1174.281210	-2.987000	3.495500	-10.440000	26.002399	0.000852	20.748480
1175.282575	-2.991800	3.494700	-10.454000	26.010201	0.000852	20.744465
1176.284101	-3.005700	3.495100	-10.504000	25.998704	0.000851	20.750932
1177.282079	-2.991200	3.494900	-10.453000	26.011226	0.000849	20.756875
1178.282519	-3.002000	3.494000	-10.488000	26.045897	0.000852	20.762786
1179.284453	-3.003100	3.493700	-10.490000	26.047662	0.000850	20.758870
1180.288257	-2.988800	3.492000	-10.436000	26.043593	0.000851	20.762368
1181.288007	-2.999200	3.492000	-10.472000	26.080263	0.000847	20.748952
1182.284577	-2.997200	3.491200	-10.463000	26.028768	0.000850	20.756956
1183.285284	-2.995000	3.491900	-10.458000	26.011827	0.000847	20.765540
1184.285542	-3.005400	3.491100	-10.490000	25.993600	0.000848	20.748649
1185.286460	-3.003400	3.490500	-10.482000	25.968098	0.000847	20.742468
1186.287825	-2.988400	3.490600	-10.431000	25.940871	0.000846	20.755418
1187.289075	-3.029600	3.489700	-10.571000	25.992290	0.000844	20.765825
1188.287446	-2.999900	3.490400	-10.470000	25.959456	0.000844	20.769822
1189.287758	-3.002000	3.489000	-10.473000	25.982809	0.000844	20.780957
1190.287123	-3.018000	3.489000	-10.528000	25.967455	0.000843	20.746089
1191.287326	-2.984800	3.489700	-10.414000	25.970734	0.000843	20.768351
1192.289691	-2.984800	3.489200	-10.414000	26.005910	0.000843	20.742050
1193.288699	-2.993700	3.488800	-10.443000	26.021190	0.000841	20.726108
1194.291196	-2.991500	3.487200	-10.431000	26.037009	0.000842	20.761442
1195.289413	-3.015000	3.486500	-10.510000	26.039473	0.000840	20.756332
1196.289630	-2.985500	3.488000	-10.412000	26.057179	0.000841	20.767484
1197.289814	-2.986400	3.486200	-10.411000	26.055347	0.000840	20.735296
1198.290395	-3.009900	3.484700	-10.488000	26.077625	0.000838	20.753888
1199.291126	-2.986200	3.484600	-10.404000	26.077324	0.000839	20.751214
1200.292579	-3.002100	3.485400	-10.462000	26.099071	0.000837	20.751254
1201.292986	-3.004900	3.483500	-10.467000	26.075867	0.000840	20.742163
1202.292994	-2.997200	3.482900	-10.437000	26.072361	0.000837	20.753340
1203.294692	-3.003500	3.483500	-10.461000	26.009749	0.000836	20.740692
1204.293479	-3.022400	3.481700	-10.521000	25.985582	0.000836	20.734903
1205.295236	-3.016800	3.482200	-10.504000	25.937670	0.000835	20.739874
1206.294686	-2.991300	3.483000	-10.418000	25.913868	0.000835	20.722599
1207.296515	-2.997900	3.481600	-10.436000	25.878941	0.000834	20.725918
1208.298415	-3.018600	3.480100	-10.505000	25.894744	0.000834	20.744166
1209.298914	-3.015200	3.479200	-10.489000	25.875190	0.000834	20.739694
1210.300209	-2.997300	3.480500	-10.430000	25.903086	0.000833	20.727415
1211.296466	-3.004800	3.479900	-10.455000	25.905373	0.000833	20.737773
1212.296839	-2.996800	3.478700	-10.423000	25.938834	0.000833	20.730137
1213.298259	-3.006900	3.479200	-10.461000	25.926286	0.000831	20.736024
1214.299950	-2.982100	3.478500	-10.372000	25.929915	0.000831	20.740618
1215.297297	-3.000100	3.478900	-10.436000	25.945400	0.000832	20.740527
1216.297731	-2.973800	3.480000	-10.348000	25.964271	0.000831	20.740520
1217.297146	-2.960700	3.478100	-10.297000	25.990847	0.000832	20.722174
1218.296895	-3.001000	3.477000	-10.433000	25.985736	0.000831	20.715142
1219.301436	-3.000100	3.475700	-10.425000	26.004289	0.000828	20.732360
1220.298770	-3.022700	3.475800	-10.505000	26.013874	0.000829	20.749578
1221.302723	-2.974900	3.476200	-10.340000	26.031189	0.000827	20.727619
1222.304574	-3.026600	3.474600	-10.514000	26.023858	0.000827	20.735901
1223.299107	-3.017400	3.473400	-10.480000	26.024761	0.000824	20.724479
1224.303432	-3.003000	3.475500	-10.435000	26.009903	0.000825	20.718560
1225.298861	-3.008700	3.473400	-10.449000	25.989610	0.000825	20.742743
1226.299865	-3.017800	3.474700	-10.484000	25.994972	0.000823	20.734380
1227.302042	-3.012600	3.472600	-10.459000	25.997633	0.000824	20.738950
1228.303459	-2.994100	3.473400	-10.398000	25.997430	0.000823	20.722624
1229.303467	-2.996700	3.472600	-10.405000	26.005404	0.000824	20.714039
1230.307955	-3.011300	3.471600	-10.452000	26.016405	0.000822	20.727464
1231.308612	-2.985600	3.472900	-10.368000	26.002443	0.000821	20.708693
1232.313666	-3.007700	3.471100	-10.438000	26.004851	0.000822	20.718226
1233.306089	-2.960500	3.473100	-10.279000	26.021547	0.000822	20.717457
1234.306510	-2.985200	3.472900	-10.365000	26.041491	0.000820	20.741763
1235.310746	-2.992300	3.471800	-10.386000	26.068121	0.000821	20.732009
1236.308163	-2.994600	3.469800	-10.389000	26.094743	0.000819	20.717506
1237.316599	-3.007800	3.468900	-10.433000	26.058406	0.000818	20.721774
1238.307874	-2.982800	3.469100	-10.347000	26.056763	0.000818	20.718226
1239.307910	-3.002000	3.467300	-10.408000	26.063671	0.000817	20.731331
1240.311462	-3.024300	3.467700	-10.485000	26.060196	0.000818	20.714088
1241.309363	-3.028400	3.466600	-10.497000	26.047829	0.000816	20.718258
1242.311507	-2.960400	3.468800	-10.267000	26.077104	0.000815	20.729655
1243.308393	-2.991400	3.467900	-10.372000	26.085550	0.000813	20.729132
1244.309414	-2.997900	3.466000	-10.389000	26.096655	0.000816	20.726540
1245.308275	-3.013600	3.466200	-10.445000	26.114538	0.000814	20.726965
1246.313098	-2.989100	3.466900	-10.361000	26.087046	0.000815	20.727791
1247.310971	-3.000600	3.465200	-10.397000	26.063483	0.000813	20.718339
1248.315493	-3.009500	3.464700	-10.426000	26.073808	0.000812	20.710695
1249.310630	-2.993400	3.465000	-10.371000	26.106450	0.000812	20.718364
1250.310171	-2.999100	3.463500	-10.385000	26.111113	0.000812	20.708823
1251.318022	-2.992500	3.462800	-10.362000	26.149465	0.000810	20.718437
1252.312549	-2.984900	3.462900	-10.335000	26.088266	0.000809	20.703411
1253.312174	-2.967400	3.462900	-10.274000	26.061693	0.000809	20.703263
1254.311140	-3.012600	3.462900	-10.431000	26.027242	0.000809	20.699944
1255.310898	-2.981600	3.462200	-10.322000	26.032605	0.000809	20.706280
1256.312127	-2.985200	3.462600	-10.336000	26.051188	0.000808	20.725427
1257.312795	-2.996100	3.460600	-10.367000	26.074141	0.000807	20.712452
1258.311421	-2.993400	3.460200	-10.355000	26.072075	0.000808	20.716066
1259.311703	-2.999400	3.459000	-10.373000	26.044410	0.000807	20.720988
1260.312027	-2.987200	3.460500	-10.335000	26.059333	0.000806	20.726498
1261.312040	-2.982100	3.460700	-10.319000	26.078625	0.000806	20.689455
1262.323253	-2.987100	3.458800	-10.331000	26.071872	0.000806	20.708750
1263.312803	-3.021700	3.458800	-10.450000	26.078332	0.000803	20.725199
1264.313542	-2.997000	3.458200	-10.364000	26.094800	0.000804	20.706182
1265.311870	-2.988300	3.458700	-10.334000	26.080520	0.000803	20.694204
1266.317401	-3.006900	3.456700	-10.393000	26.082660	0.000803	20.721012
1267.314915	-3.026600	3.454700	-10.454000	26.056998	0.000802	20.721781
1268.314562	-2.987400	3.458100	-10.330000	26.098746	0.000805	20.720580
1269.313180	-2.994000	3.457600	-10.351000	26.071505	0.000802	20.697949
1270.314188	-2.985800	3.456100	-10.317000	26.073075	0.000801	20.704268
1271.314699	-2.991200	3.455900	-10.337000	26.077241	0.000802	20.723629
1272.315410	-3.007000	3.454000	-10.386000	26.074735	0.000800	20.717791
1273.321381	-2.991900	3.456000	-10.339000	26.092667	0.000801	20.711627
1274.315720	-2.963700	3.455100	-10.239000	26.074564	0.000798	20.700074
1275.318321	-2.988200	3.453400	-10.318000	26.020318	0.000799	20.711953
1276.316463	-3.002500	3.454900	-10.371000	25.997021	0.000799	20.720791
1277.315901	-2.974700	3.454100	-10.274000	26.023800	0.000798	20.718297
1278.319801	-2.992000	3.451700	-10.325000	26.048909	0.000797	20.705592
1279.315556	-2.998900	3.451900	-10.351000	26.070569	0.000798	20.719295
1280.314866	-2.973700	3.453700	-10.269000	26.106475	0.000796	20.697050
1281.315374	-3.000800	3.450500	-10.353000	26.118671	0.000795	20.705985
1282.315027	-2.988500	3.452100	-10.315000	26.147683	0.000796	20.685824
1283.317219	-3.029400	3.448400	-10.445000	26.149497	0.000794	20.699976
1284.319900	-3.019000	3.449400	-10.413000	26.196505	0.000795	20.690787
1285.317512	-2.966000	3.450800	-10.234000	26.198847	0.000793	20.698831
1286.317309	-2.990300	3.450100	-10.316000	26.156054	0.000793	20.700875
1287.316871	-2.995600	3.449100	-10.331000	26.119345	0.000793	20.708086
1288.317675	-2.991000	3.449400	-10.315000	26.132908	0.000792	20.710334
1289.319694	-3.000400	3.448000	-10.345000	26.123942	0.000790	20.695634
1290.317308	-2.988400	3.448600	-10.304000	26.119345	0.000791	20.701448
1291.318944	-2.995700	3.446100	-10.323000	26.130695	0.000791	20.696730
1292.331046	-3.004300	3.447600	-10.355000	26.161969	0.000789	20.718673
1293.317683	-2.992700	3.446700	-10.313000	26.182398	0.000788	20.713597
1294.320583	-3.011900	3.446600	-10.380000	26.231429	0.000788	20.693165
1295.316880	-2.980500	3.445600	-10.268000	26.235717	0.000788	20.709804
1296.317226	-2.992700	3.446400	-10.313000	26.258470	0.000788	20.712754
1297.318511	-2.979600	3.445600	-10.266000	26.263213	0.000786	20.716572
1298.318720	-3.018500	3.444500	-10.396000	26.262986	0.000786	20.732940
1299.319193	-3.008400	3.442500	-10.355000	26.259609	0.000786	20.703467
1300.322100	-3.013900	3.442600	-10.374000	26.274016	0.000784	20.715575
1301.319326	-3.034000	3.440600	-10.438000	26.288765	0.000786	20.707162
1302.320404	-3.013000	3.443000	-10.372000	26.301154	0.000783	20.694008
1303.319237	-2.993000	3.442400	-10.302000	26.294800	0.000784	20.706116
1304.327460	-2.995700	3.441500	-10.309000	26.296964	0.000783	20.697384
1305.324868	-3.021900	3.441100	-10.398000	26.314844	0.000783	20.711086
1306.318601	-2.990000	3.440600	-10.286000	26.351538	0.000783	20.696281
1307.323055	-2.995800	3.438900	-10.300000	26.316186	0.000782	20.717651
1308.320814	-3.000500	3.440900	-10.324000	26.339922	0.000782	20.708789
1309.321087	-3.012400	3.438400	-10.357000	26.338734	0.000780	20.713759
1310.323074	-2.992900	3.439700	-10.294000	26.299672	0.000781	20.701054
1311.325896	-2.984700	3.439400	-10.263000	26.297859	0.000779	20.713457
1312.326643	-3.009200	3.436000	-10.338000	26.260162	0.000779	20.709239
1313.321328	-2.997100	3.437100	-10.300000	26.198701	0.000780	20.694416
1314.322990	-2.984200	3.439500	-10.263000	26.175303	0.000778	20.716899
1315.322707	-2.995400	3.437200	-10.295000	26.178044	0.000779	20.705902
1316.327113	-2.989100	3.437800	-10.275000	26.193307	0.000777	20.719344
1317.322740	-3.002000	3.435500	-10.312000	26.206925	0.000778	20.702681
1318.325693	-3.010200	3.435000	-10.339000	26.240597	0.000776	20.724191
1319.321967	-3.016200	3.435500	-10.361000	26.235399	0.000776	20.715649
1320.321912	-3.023800	3.434600	-10.384000	26.233316	0.000777	20.705968
1321.324400	-3.029800	3.434000	-10.403000	26.264978	0.000774	20.705543
1322.323334	-3.002200	3.433600	-10.306000	26.263702	0.000774	20.707106
1323.323567	-3.009900	3.433800	-10.334000	26.274505	0.000775	20.696624
1324.324251	-2.992400	3.433100	-10.272000	26.286471	0.000773	20.715290
1325.323447	-3.009700	3.431300	-10.326000	26.292011	0.000771	20.724177
1326.324015	-2.986200	3.433400	-10.252000	26.325184	0.000771	20.712944
1327.328695	-2.998000	3.433400	-10.293000	26.340802	0.000770	20.699241
1328.327256	-3.010100	3.431200	-10.326000	26.352027	0.000769	20.717162
1329.327290	-3.012300	3.429900	-10.329000	26.359683	0.000771	20.708735
1330.327902	-2.991300	3.432200	-10.265000	26.311861	0.000769	20.726582
1331.328290	-3.021900	3.430500	-10.365000	26.279998	0.000769	20.710681
1332.330140	-2.978800	3.431600	-10.220000	26.219181	0.000768	20.732068
1333.327622	-3.002900	3.429500	-10.297000	26.200104	0.000768	20.730916
1334.328526	-2.998900	3.429700	-10.284000	26.185256	0.000767	20.732591
1335.329011	-3.020200	3.427500	-10.350000	26.174046	0.000768	20.716110
1336.328605	-2.999500	3.428000	-10.282000	26.158198	0.000766	20.726739
1337.330560	-3.008700	3.428600	-10.315000	26.145930	0.000767	20.722471
1338.331038	-2.987800	3.427100	-10.238000	26.114110	0.000764	20.715629
1339.329166	-2.998800	3.427600	-10.278000	26.100247	0.000764	20.712130
1340.330283	-2.991900	3.426900	-10.252000	26.075789	0.000766	20.715531
1341.330141	-2.982400	3.427100	-10.219000	26.088481	0.000764	20.715956
1342.331598	-2.980900	3.425200	-10.209000	26.076669	0.000763	20.744866
1343.332279	-2.996100	3.425400	-10.262000	26.080444	0.000763	20.718786
1344.333858	-3.022000	3.423900	-10.346000	26.054880	0.000761	20.735775
1345.330368	-3.021000	3.424300	-10.344000	26.055824	0.000762	20.717757
1346.330326	-3.015800	3.422700	-10.321000	26.074578	0.000762	20.735653
1347.330485	-3.023500	3.422800	-10.348000	26.137480	0.000762	20.733422
1348.330154	-2.994900	3.424800	-10.256000	26.136763	0.000760	20.734599
1349.331939	-2.983000	3.424400	-10.213000	26.179990	0.000759	20.737731
1350.334955	-3.002400	3.422000	-10.272000	26.172010	0.000758	20.741566
1351.333091	-2.979700	3.423100	-10.198000	26.168910	0.000759	20.730864
1352.332204	-2.971400	3.423000	-10.170000	26.184921	0.000757	20.731306
1353.340733	-3.001900	3.422300	-10.272000	26.181960	0.000756	20.745402
1354.332900	-2.997400	3.420100	-10.251000	26.142893	0.000758	20.727007
1355.336394	-3.007500	3.421900	-10.290000	26.178455	0.000757	20.735240
1356.335278	-2.995900	3.420500	-10.246000	26.164421	0.000756	20.752907
1357.334407	-3.003900	3.419200	-10.269000	26.172411	0.000758	20.747659
1358.334556	-3.010700	3.419300	-10.292000	26.175780	0.000755	20.759106
1359.337820	-3.024200	3.418100	-10.336000	26.200837	0.000757	20.750620
1360.334627	-2.983300	3.420300	-10.202000	26.199463	0.000754	20.736437
1361.336196	-3.004900	3.417600	-10.269000	26.211260	0.000753	20.753507
1362.335580	-2.995600	3.417200	-10.236000	26.223080	0.000753	20.732668
1363.335841	-2.985700	3.416600	-10.200000	26.230045	0.000754	20.744883
1364.339708	-2.987900	3.416700	-10.207000	26.264685	0.000751	20.744606
1365.336251	-3.015400	3.415700	-10.298000	26.243924	0.000751	20.739864
1366.336846	-2.999500	3.415200	-10.243000	26.195300	0.000751	20.751220
1367.337512	-3.009400	3.414300	-10.273000	26.168599	0.000751	20.746200
1368.337303	-3.014900	3.414700	-10.294000	26.154590	0.000750	20.735916
1369.338004	-2.997000	3.415600	-10.236000	26.123911	0.000749	20.748711
1370.337966	-2.998600	3.414600	-10.236000	26.120981	0.000748	20.751458
1371.338463	-2.987200	3.414900	-10.200000	26.086477	0.000749	20.749505
1372.336398	-3.011200	3.413200	-10.276000	26.082670	0.000749	20.745680
1373.337059	-3.002000	3.412200	-10.243000	26.127409	0.000748	20.734683
1374.338174	-2.978300	3.413200	-10.165000	26.134180	0.000746	20.750969
1375.340431	-2.999000	3.411900	-10.233000	26.140185	0.000747	20.759374
1376.338467	-2.998500	3.412000	-10.229000	26.165096	0.000746	20.766863
1377.338455	-2.987500	3.411100	-10.190000	26.190765	0.000745	20.747137
1378.340101	-2.995900	3.411500	-10.219000	26.226975	0.000745	20.753178
1379.339888	-3.024700	3.409600	-10.312000	26.218734	0.000743	20.757224
1380.342894	-3.000000	3.411400	-10.233000	26.227293	0.000744	20.750653
1381.341786	-3.023300	3.408800	-10.304000	26.271418	0.000745	20.767020
1382.345130	-2.995400	3.409000	-10.210000	26.327913	0.000744	20.752672
1383.342935	-2.991700	3.410200	-10.202000	26.299069	0.000742	20.764937
1384.342768	-2.990000	3.409100	-10.192000	26.312776	0.000741	20.746469
1385.344476	-3.000900	3.407700	-10.225000	26.294156	0.000743	20.774223
1386.345761	-2.975400	3.407800	-10.139000	26.285981	0.000739	20.762689
1387.342725	-2.991100	3.408400	-10.194000	26.285331	0.000740	20.758716
1388.343297	-3.004700	3.408100	-10.240000	26.295801	0.000740	20.762126
1389.347435	-2.999700	3.407200	-10.218000	26.267191	0.000740	20.776997
1390.343697	-3.004900	3.405300	-10.232000	26.258202	0.000739	20.776973
1391.346697	-2.978300	3.406400	-10.144000	26.279598	0.000737	20.777612
1392.343432	-2.998900	3.404700	-10.210000	26.279395	0.000737	20.785943
1393.347285	-3.015300	3.405300	-10.267000	26.311325	0.000738	20.774408
1394.346171	-3.017500	3.404300	-10.272000	26.320240	0.000736	20.755867
1395.344492	-3.000700	3.405100	-10.217000	26.335827	0.000737	20.767264
1396.347277	-3.010900	3.404300	-10.249000	26.340789	0.000736	20.782683
1397.346238	-3.012800	3.402800	-10.251000	26.330630	0.000736	20.767257
1398.346272	-3.028300	3.402400	-10.302000	26.307861	0.000735	20.792739
1399.345455	-2.998300	3.403000	-10.202000	26.273436	0.000732	20.768100
1400.344854	-2.994900	3.403700	-10.192000	26.234665	0.000733	20.759009
1401.349802	-2.997400	3.402000	-10.197000	26.236259	0.000734	20.769146
1402.346311	-2.994400	3.402100	-10.186000	26.260161	0.000732	20.783209
1403.349118	-3.001200	3.399400	-10.201000	26.225319	0.000731	20.785179
1404.345688	-3.001600	3.401700	-10.210000	26.196236	0.000731	20.779662
1405.344473	-3.013800	3.400400	-10.247000	26.189825	0.000729	20.756150
1406.345587	-3.026100	3.398900	-10.285000	26.179395	0.000730	20.782654
1407.348576	-2.996400	3.399200	-10.184000	26.183733	0.000729	20.781797
1408.346548	-2.995600	3.399800	-10.183000	26.175215	0.000728	20.781298
1409.345501	-3.014300	3.397500	-10.240000	26.162565	0.000727	20.792769
1410.352203	-3.009900	3.397400	-10.225000	26.171758	0.000729	20.774505
1411.346697	-3.004300	3.397900	-10.207000	26.184743	0.000728	20.783760
1412.361027	-3.010400	3.397600	-10.227000	26.195270	0.000727	20.764467
1413.346962	-3.012600	3.396400	-10.230000	26.198769	0.000726	20.784104
1414.351377	-3.016400	3.396300	-10.244000	26.232116	0.000724	20.791536
1415.347307	-3.003900	3.396000	-10.200000	26.257099	0.000726	20.785821
1416.347356	-3.020100	3.395000	-10.251000	26.253146	0.000726	20.772366
1417.350132	-3.006300	3.394700	-10.204000	26.249095	0.000726	20.775881
1418.347579	-3.013900	3.394900	-10.231000	26.227391	0.000725	20.802434
1419.347468	-3.032400	3.393300	-10.288000	26.265154	0.000723	20.781589
1420.347523	-3.014300	3.394000	-10.229000	26.269817	0.000724	20.774420
1421.351644	-3.021200	3.393300	-10.251000	26.276520	0.000722	20.807235
1422.347311	-3.024400	3.392500	-10.260000	26.330250	0.000721	20.789161
1423.349369	-3.006900	3.393400	-10.203000	26.355646	0.000721	20.808994
1424.352098	-2.992900	3.393500	-10.154000	26.391746	0.000721	20.821568
1425.349687	-3.000200	3.392500	-10.177000	26.432415	0.000722	20.807442
1426.351404	-3.034500	3.391100	-10.288000	26.449667	0.000721	20.793962
1427.350009	-2.995500	3.392400	-10.161000	26.475850	0.000720	20.793726
1428.355181	-2.984700	3.392200	-10.123000	26.492434	0.000717	20.802809
1429.350872	-3.001500	3.389700	-10.173000	26.456159	0.000718	20.797642
1430.353131	-3.004500	3.390900	-10.187000	26.507497	0.000716	20.811786
1431.353148	-2.994900	3.391100	-10.155000	26.465905	0.000717	20.805067
1432.352061	-3.024500	3.389300	-10.250000	26.472250	0.000716	20.815238
1433.354493	-3.018900	3.387600	-10.225000	26.426393	0.000716	20.811346
1434.354832	-3.004400	3.389100	-10.181000	26.402358	0.000714	20.810897
1435.352654	-2.990100	3.388000	-10.130000	26.403172	0.000715	20.800336
1436.354307	-2.981500	3.388600	-10.103000	26.414707	0.000713	20.797705
1437.353034	-3.008000	3.387700	-10.189000	26.415270	0.000713	20.812969
1438.352067	-2.971500	3.388600	-10.068000	26.394463	0.000712	20.812920
1439.356442	-3.014500	3.387200	-10.209000	26.415329	0.000712	20.800700
1440.352817	-2.990400	3.387800	-10.130000	26.394075	0.000711	20.812055
1441.356154	-3.011900	3.386000	-10.197000	26.364689	0.000711	20.798168
1442.355171	-2.994400	3.385900	-10.138000	26.342938	0.000711	20.827990
1443.354630	-3.025600	3.384400	-10.239000	26.338384	0.000713	20.810611
1444.357934	-2.981500	3.384800	-10.090000	26.344510	0.000710	20.813449
1445.354336	-2.993400	3.385100	-10.131000	26.376112	0.000710	20.835253
1446.358790	-2.999000	3.383700	-10.146000	26.394406	0.000708	20.809069
1447.355247	-2.996600	3.384200	-10.139000	26.419647	0.000711	20.810256
1448.355657	-2.999400	3.381700	-10.142000	26.401088	0.000709	20.827164
1449.355503	-2.979400	3.383600	-10.079000	26.364185	0.000705	20.830377
1450.363214	-3.000500	3.381900	-10.145000	26.340092	0.000706	20.824182
1451.355401	-3.003500	3.381200	-10.154000	26.328566	0.000706	20.827297
1452.356894	-3.006800	3.381800	-10.167000	26.322964	0.000705	20.828779
1453.355886	-2.984200	3.382200	-10.092000	26.365621	0.000706	20.834191
1454.357820	-3.007100	3.380900	-10.167000	26.391764	0.000702	20.827750
1455.359103	-2.987600	3.381000	-10.099000	26.400990	0.000702	20.836074
1456.358386	-3.014900	3.379700	-10.188000	26.421244	0.000705	20.823714
1457.358509	-2.999600	3.379100	-10.134000	26.443507	0.000704	20.834237
1458.359397	-2.982200	3.380000	-10.079000	26.437993	0.000703	20.831539
1459.358255	-3.021500	3.377500	-10.204000	26.467485	0.000701	20.817561
1460.362659	-2.986000	3.379500	-10.089000	26.469292	0.000701	20.836446
1461.357993	-2.986000	3.378300	-10.086000	26.472611	0.000702	20.839782
1462.366619	-3.003200	3.377500	-10.142000	26.495841	0.000701	20.838476
1463.359723	-3.007100	3.378000	-10.156000	26.523201	0.000699	20.838476
1464.360186	-3.000400	3.376700	-10.131000	26.557027	0.000700	20.824589
1465.360109	-2.985200	3.377700	-10.082000	26.567625	0.000699	20.831922
1466.360094	-2.990800	3.376400	-10.097000	26.599626	0.000697	20.846547
1467.359839	-3.007100	3.375100	-10.149000	26.609720	0.000698	20.834883
1468.359870	-3.023100	3.374800	-10.201000	26.620219	0.000697	20.837377
1469.358603	-3.008100	3.374300	-10.149000	26.637695	0.000698	20.821755
1470.360005	-2.998300	3.374900	-10.117000	26.637517	0.000698	20.843386
1471.365856	-3.021500	3.372500	-10.188000	26.650594	0.000695	20.840411
1472.367526	-3.008500	3.373100	-10.146000	26.632866	0.000695	20.849142
1473.362275	-3.024800	3.372400	-10.200000	26.657305	0.000695	20.845735
1474.362112	-2.992500	3.372800	-10.091000	26.629698	0.000694	20.851646
1475.363103	-2.979400	3.374500	-10.052000	26.581213	0.000693	20.863124
1476.365699	-3.010900	3.370700	-10.148000	26.558589	0.000693	20.847495
1477.363687	-2.989700	3.370700	-10.075000	26.542373	0.000692	20.847790
1478.363389	-3.004200	3.371800	-10.129000	26.561779	0.000692	20.837900
1479.363904	-3.003200	3.370700	-10.121000	26.561682	0.000692	20.866724
1480.363623	-3.038400	3.370200	-10.238000	26.579103	0.000690	20.852468
1481.366918	-2.987900	3.370900	-10.071000	26.597670	0.000690	20.876821
1482.363111	-3.005600	3.370200	-10.129000	26.608340	0.000691	20.851039
1483.364041	-3.015000	3.369100	-10.157000	26.626232	0.000690	20.856697
1484.362895	-2.992500	3.368000	-10.077000	26.656387	0.000690	20.838648
1485.364395	-3.011400	3.367900	-10.141000	26.620541	0.000686	20.859510
1486.364288	-2.986800	3.369000	-10.062000	26.591339	0.000687	20.849121
1487.365963	-2.988800	3.369600	-10.070000	26.559711	0.000688	20.865217
1488.365438	-3.003800	3.366600	-10.112000	26.516730	0.000685	20.840980
1489.367826	-3.022500	3.366300	-10.173000	26.469086	0.000684	20.833868
1490.365522	-3.010400	3.366200	-10.131000	26.491219	0.000685	20.860856
1491.365103	-2.967800	3.367700	-9.993500	26.484818	0.000684	20.858214
1492.369510	-3.002800	3.366600	-10.109000	26.514302	0.000685	20.870781
1493.364725	-2.996500	3.365400	-10.083000	26.492138	0.000682	20.872210
1494.368091	-3.021400	3.365900	-10.169000	26.504550	0.000683	20.871883
1495.365051	-2.989100	3.364400	-10.055000	26.513935	0.000681	20.890325
1496.365857	-2.983400	3.365500	-10.039000	26.529152	0.000681	20.881914
1497.366107	-2.968800	3.365300	-9.989900	26.489822	0.000683	20.869407
1498.367737	-2.993300	3.362300	-10.062000	26.513034	0.000679	20.878514
1499.365711	-3.001700	3.363500	-10.094000	26.546728	0.000681	20.879192
1500.365492	-2.986400	3.363400	-10.044000	26.600769	0.000680	20.872825
1501.365442	-2.993300	3.361600	-10.061000	26.639422	0.000678	20.859050
1502.367182	-2.994100	3.361600	-10.064000	26.681374	0.000679	20.879887
1503.375335	-3.044600	3.359600	-10.227000	26.701263	0.000676	20.880442
1504.366938	-3.019600	3.360800	-10.147000	26.722291	0.000677	20.871237
1505.369562	-2.992800	3.362100	-10.061000	26.746465	0.000675	20.858559
1506.369308	-2.979000	3.361300	-10.013000	26.729236	0.000673	20.877271
1507.367438	-3.002800	3.359600	-10.088000	26.699223	0.000677	20.864642
1508.369923	-3.005200	3.359400	-10.095000	26.670460	0.000675	20.870812
1509.368866	-2.999500	3.360100	-10.078000	26.658717	0.000672	20.881766
1510.369106	-3.025500	3.359300	-10.163000	26.647538	0.000675	20.893285
1511.370221	-2.995100	3.360100	-10.062000	26.679739	0.000673	20.885355
1512.369580	-3.017100	3.358000	-10.131000	26.689717	0.000672	20.882584
1513.370514	-2.971200	3.359000	-9.979500	26.687554	0.000673	20.889893
1514.372398	-3.003700	3.356900	-10.082000	26.731789	0.000672	20.872726
1515.372173	-2.990300	3.358400	-10.042000	26.744817	0.000670	20.882030
1516.370715	-2.989800	3.357500	-10.037000	26.733253	0.000671	20.879887
1517.371937	-3.016700	3.356500	-10.124000	26.741987	0.000668	20.874444
1518.370987	-2.997900	3.356700	-10.062000	26.740125	0.000669	20.869727
1519.374553	-3.004900	3.354700	-10.080000	26.691107	0.000668	20.877345
1520.372793	-3.008700	3.354400	-10.091000	26.671966	0.000668	20.880386
1521.373632	-2.997800	3.355200	-10.057000	26.610797	0.000667	20.881008
1522.373562	-2.995200	3.354300	-10.046000	26.635103	0.000667	20.866089
1523.373259	-3.015900	3.354700	-10.116000	26.629363	0.000666	20.877387
1524.375333	-3.028600	3.352100	-10.150000	26.623832	0.000664	20.861871
1525.374743	-3.005700	3.352900	-10.077000	26.650018	0.000664	20.878711
1526.372142	-3.018000	3.352500	-10.117000	26.648659	0.000664	20.864069
1527.373212	-3.021400	3.352300	-10.128000	26.653473	0.000663	20.852788
1528.372727	-3.010600	3.351400	-10.089000	26.665111	0.000663	20.882504
1529.372867	-2.982700	3.351800	-9.996100	26.679009	0.000663	20.865183
1530.378031	-2.983500	3.353300	-10.004000	26.697263	0.000663	20.866464
1531.375546	-3.012100	3.351100	-10.093000	26.671267	0.000663	20.859296
1532.377588	-3.011500	3.350900	-10.090000	26.649473	0.000661	20.864413
1533.376718	-3.008500	3.349300	-10.075000	26.620677	0.000660	20.852536
1534.376935	-3.001700	3.350100	-10.055000	26.581430	0.000658	20.866661
1535.380998	-2.980900	3.350000	-9.983300	26.596898	0.000659	20.856132
1536.377014	-3.004300	3.348500	-10.059000	26.560106	0.000657	20.853287
1537.383030	-2.994000	3.349200	-10.027000	26.562807	0.000658	20.857899
1538.377631	-2.989400	3.349300	-10.011000	26.533268	0.000657	20.842431
1539.381124	-3.004300	3.348000	-10.057000	26.505640	0.000658	20.842635
1540.381667	-2.987400	3.347900	-10.001000	26.494514	0.000657	20.840461
1541.379786	-3.002500	3.346500	-10.047000	26.464477	0.000655	20.860529
1542.376788	-3.008600	3.346800	-10.068000	26.447610	0.000657	20.855904
1543.378121	-3.001400	3.347200	-10.045000	26.429697	0.000656	20.850228
1544.377150	-2.986600	3.346400	-9.992900	26.408713	0.000653	20.839569
1545.376137	-2.990200	3.345100	-10.001000	26.396667	0.000655	20.855436
1546.383819	-2.995300	3.345300	-10.019000	26.426591	0.000653	20.860381
1547.377964	-3.000100	3.345300	-10.034000	26.468104	0.000652	20.822925
1548.380267	-2.989100	3.344400	-9.994800	26.489381	0.000652	20.829612
1549.378098	-3.000100	3.344100	-10.031000	26.525833	0.000651	20.853923
1550.377344	-2.986500	3.344900	-9.987700	26.577070	0.000651	20.838571
1551.379154	-2.993000	3.345000	-10.010000	26.646860	0.000652	20.834761
1552.381081	-3.018400	3.344800	-10.095000	26.636158	0.000650	20.836331
1553.379670	-2.991500	3.343500	-10.001000	26.632385	0.000649	20.836331
1554.379869	-2.993300	3.341800	-10.003000	26.614664	0.000648	20.834638
1555.378993	-2.982900	3.342400	-9.968600	26.628870	0.000648	20.819995
1556.380071	-3.000200	3.341800	-10.025000	26.683264	0.000647	20.820150
1557.384148	-2.979100	3.341800	-9.953700	26.679906	0.000648	20.839533
1558.382303	-3.002400	3.341200	-10.031000	26.731663	0.000646	20.837988
1559.383961	-3.009100	3.341200	-10.052000	26.753064	0.000644	20.856658
1560.382504	-3.008500	3.340200	-10.047000	26.767929	0.000645	20.828456
1561.382526	-2.986700	3.340200	-9.974900	26.794914	0.000645	20.826191
1562.382436	-2.979700	3.341800	-9.956200	26.821372	0.000645	20.827188
1563.382879	-2.981800	3.339900	-9.958200	26.775652	0.000643	20.829584
1564.382625	-3.015500	3.337500	-10.061000	26.753592	0.000644	20.835379
1565.383211	-2.993600	3.339000	-9.995200	26.712830	0.000641	20.837546
1566.382288	-2.984200	3.338100	-9.960600	26.705022	0.000639	20.819265
1567.383914	-3.005200	3.338200	-10.032000	26.705965	0.000641	20.817842
1568.384236	-2.998600	3.337000	-10.005000	26.690890	0.000641	20.812644
1569.383379	-2.988700	3.338300	-9.976500	26.715251	0.000640	20.820540
1570.384411	-2.982900	3.336100	-9.949900	26.682628	0.000639	20.837054
1571.382728	-3.008500	3.336400	-10.037000	26.659168	0.000639	20.840496
1572.384289	-2.991400	3.336300	-9.979600	26.651248	0.000638	20.833008
1573.387971	-2.987300	3.335400	-9.961200	26.605080	0.000637	20.824055
1574.384953	-3.005100	3.335300	-10.021000	26.589214	0.000635	20.801468
1575.388319	-3.006200	3.334600	-10.023000	26.599672	0.000635	20.831420
1576.386302	-2.995900	3.334200	-9.988200	26.619377	0.000635	20.813772
1577.386950	-3.005300	3.333900	-10.018000	26.598306	0.000635	20.811081
1578.389143	-3.021800	3.333100	-10.071000	26.588645	0.000634	20.826500
1579.390116	-3.035200	3.331600	-10.111000	26.581625	0.000632	20.813754
1580.386735	-2.993400	3.332900	-9.975500	26.562457	0.000633	20.806814
1581.387081	-3.008000	3.331600	-10.020000	26.556423	0.000633	20.807386
1582.387111	-3.007100	3.331200	-10.017000	26.579218	0.000632	20.812282
1583.388614	-3.001500	3.331400	-9.998200	26.599151	0.000630	20.803871
1584.391046	-2.978300	3.332600	-9.923600	26.604567	0.000631	20.813108
1585.387966	-2.997400	3.332000	-9.986200	26.600126	0.000631	20.799161
1586.391166	-3.021200	3.328600	-10.055000	26.560155	0.000629	20.793120
1587.388810	-2.997400	3.330500	-9.982300	26.578680	0.000632	20.791353
1588.389178	-2.969200	3.330000	-9.886800	26.573118	0.000629	20.798090
1589.392647	-3.009900	3.327900	-10.016000	26.614381	0.000628	20.793576
1590.390849	-3.006400	3.327300	-10.002000	26.598026	0.000626	20.798946
1591.392291	-3.009400	3.327700	-10.013000	26.591171	0.000627	20.797271
1592.390042	-2.993500	3.327400	-9.960300	26.619894	0.000626	20.803860
1593.391338	-3.011100	3.327000	-10.017000	26.608777	0.000627	20.800271
1594.397578	-3.003400	3.326900	-9.989300	26.569229	0.000627	20.784223
1595.396190	-3.012700	3.325800	-10.018000	26.556304	0.000623	20.807741
1596.394779	-3.011500	3.325400	-10.014000	26.561014	0.000624	20.817217
1597.394625	-2.991700	3.327100	-9.951900	26.560452	0.000625	20.811436
1598.394441	-2.993900	3.326000	-9.956100	26.528278	0.000622	20.800906
1599.395163	-2.990100	3.327100	-9.946900	26.503553	0.000623	20.797390
1600.403204	-3.038100	3.323000	-10.093000	26.496526	0.000621	20.811664
1601.394879	-3.007200	3.324400	-9.996900	26.544096	0.000621	20.809220
1602.394236	-3.002200	3.324200	-9.979100	26.595510	0.000619	20.797840
1603.396159	-3.002200	3.323800	-9.978000	26.648141	0.000620	20.798592
1604.394982	-2.987700	3.323700	-9.929200	26.700078	0.000618	20.798174
1605.397246	-3.011400	3.323000	-10.007000	26.742028	0.000620	20.813322
1606.395658	-3.003000	3.322500	-9.977000	26.792636	0.000616	20.799719
1607.395468	-2.985400	3.322200	-9.917700	26.791253	0.000617	20.775094
1608.395655	-2.993300	3.322400	-9.944600	26.808157	0.000616	20.777866
1609.398799	-2.996200	3.320700	-9.948900	26.833793	0.000615	20.797478
1610.400854	-3.004800	3.322500	-9.982300	26.823541	0.000615	20.778161
1611.398180	-2.997000	3.321400	-9.953100	26.872633	0.000613	20.792909
1612.402884	-3.011000	3.320800	-9.996700	26.843696	0.000611	20.800797
1613.399215	-2.994400	3.320200	-9.940700	26.841883	0.000613	20.804664
1614.397811	-3.006800	3.319400	-9.978900	26.827338	0.000613	20.767754
1615.399443	-2.982400	3.319300	-9.898000	26.847965	0.000610	20.796554
1616.398927	-2.981900	3.319300	-9.896400	26.860704	0.000612	20.778544
1617.398855	-3.007300	3.317500	-9.975900	26.846330	0.000611	20.788747
1618.398870	-2.997600	3.319000	-9.947700	26.847633	0.000611	20.797643
1619.400685	-2.969200	3.319400	-9.855200	26.872811	0.000608	20.792140
1620.399159	-2.997800	3.316300	-9.940600	26.849079	0.000609	20.777760
1621.402364	-2.970300	3.317300	-9.851900	26.860299	0.000609	20.792835
1622.399910	-2.981600	3.315800	-9.885200	26.830492	0.000608	20.782305
1623.399616	-3.008900	3.315600	-9.974700	26.860177	0.000608	20.767582
1624.399763	-2.979500	3.316300	-9.879800	26.843134	0.000608	20.760876
1625.399371	-2.991900	3.314900	-9.917400	26.835557	0.000607	20.780760
1626.401612	-3.001600	3.313200	-9.943500	26.863104	0.000605	20.811776
1627.398955	-2.978800	3.314400	-9.872000	26.896843	0.000607	20.758931
1628.401662	-3.013500	3.313000	-9.982600	26.898128	0.000603	20.775396
1629.400955	-2.988400	3.313400	-9.899900	26.912519	0.000602	20.783229
1630.400366	-2.989100	3.313200	-9.902100	26.886542	0.000605	20.787454
1631.403166	-3.023100	3.311300	-10.010000	26.838485	0.000604	20.762840
1632.403200	-3.021700	3.310800	-10.003000	26.839459	0.000603	20.769984
1633.401296	-2.999700	3.312800	-9.936600	26.853875	0.000602	20.759349
1634.401555	-2.994000	3.311400	-9.912300	26.850347	0.000602	20.781406
1635.401666	-3.005400	3.310000	-9.946900	26.881310	0.000602	20.786460
1636.402903	-3.005600	3.311100	-9.950900	26.902983	0.000601	20.767950
1637.406966	-3.014100	3.311100	-9.979300	26.921544	0.000602	20.780925
1638.401392	-3.020000	3.308000	-9.989200	26.916033	0.000600	20.786762
1639.408110	-2.995500	3.309100	-9.911400	26.874334	0.000598	20.767592
1640.403955	-3.013200	3.308900	-9.969300	26.851577	0.000600	20.776952
1641.404735	-2.999300	3.310000	-9.926000	26.834031	0.000599	20.766897
1642.407766	-2.995100	3.308800	-9.907000	26.877684	0.000598	20.770960
1643.405045	-3.003400	3.307900	-9.933200	26.880758	0.000596	20.775948
1644.406650	-2.971500	3.308000	-9.828900	26.837374	0.000597	20.764568
1645.408525	-2.995400	3.306500	-9.903100	26.827740	0.000596	20.776218
1646.407187	-2.997800	3.306900	-9.913200	26.810015	0.000596	20.763613
1647.406816	-3.008300	3.306200	-9.944900	26.823213	0.000595	20.773089
1648.408843	-3.014800	3.305700	-9.964800	26.845457	0.000594	20.763687
1649.406408	-2.986700	3.306100	-9.873000	26.877614	0.000593	20.761407
1650.406489	-2.976500	3.306100	-9.839200	26.903591	0.000592	20.785632
1651.406814	-2.986900	3.304500	-9.868900	26.913518	0.000594	20.767638
1652.408834	-2.998500	3.304200	-9.906600	26.916836	0.000593	20.772871
1653.410140	-2.999700	3.303200	-9.907300	26.919641	0.000591	20.778063
1654.406938	-2.997700	3.303800	-9.902800	26.925373	0.000590	20.760592
1655.407333	-2.982000	3.304400	-9.851900	26.862381	0.000591	20.778333
1656.406778	-2.997500	3.301700	-9.895200	26.854420	0.000591	20.773173
1657.406266	-2.994400	3.302800	-9.888500	26.808468	0.000591	20.787662
1658.409956	-3.010700	3.301500	-9.938600	26.835918	0.000590	20.782544
1659.408481	-3.014400	3.302000	-9.952800	26.843267	0.000589	20.770494
1660.406103	-2.996800	3.302600	-9.896300	26.880716	0.000588	20.775432
1661.407727	-3.011300	3.301600	-9.941200	26.880863	0.000587	20.774157
1662.408794	-2.997400	3.302300	-9.896900	26.905279	0.000586	20.748921
1663.408099	-3.022800	3.299700	-9.972800	26.915830	0.000585	20.761902
1664.416296	-2.996400	3.300600	-9.889000	26.926351	0.000585	20.756360
1665.409618	-3.021600	3.297300	-9.961600	26.943888	0.000584	20.787746
1666.411629	-2.997000	3.298500	-9.882800	26.955149	0.000584	20.765404
1667.409591	-2.976800	3.299300	-9.820500	26.986943	0.000583	20.762763
1668.410190	-3.000400	3.298700	-9.896500	27.044158	0.000583	20.762928
1669.413203	-2.987900	3.299600	-9.856600	27.037784	0.000581	20.751777
1670.410290	-2.983500	3.297500	-9.836800	27.008521	0.000582	20.775927
1671.411682	-2.993700	3.298500	-9.872600	27.024178	0.000581	20.750895
1672.409345	-2.996600	3.297300	-9.879900	27.028990	0.000582	20.777547
1673.409517	-2.990600	3.297000	-9.859300	27.034893	0.000578	20.761671
1674.409031	-2.990500	3.296500	-9.857400	27.010466	0.000579	20.779781
1675.414131	-3.007700	3.295700	-9.910800	26.954412	0.000578	20.763715
1676.411092	-3.028200	3.294400	-9.975000	26.905391	0.000579	20.746663
1677.410981	-3.004400	3.294300	-9.895900	26.839177	0.000578	20.766855
1678.409981	-2.971900	3.295200	-9.792300	26.813087	0.000576	20.751527
1679.412084	-3.012200	3.293800	-9.920300	26.783799	0.000575	20.748633
1680.415853	-2.995700	3.294900	-9.869800	26.783279	0.000576	20.745265
1681.413824	-3.007200	3.293100	-9.901600	26.838618	0.000576	20.757759
1682.418284	-2.988000	3.293100	-9.839600	26.864897	0.000575	20.764741
1683.413975	-3.010800	3.291400	-9.908600	26.878914	0.000574	20.757973
1684.413507	-3.020600	3.290500	-9.937400	26.927606	0.000572	20.749087
1685.415817	-3.024200	3.290300	-9.949200	26.934005	0.000572	20.763582
1686.414310	-3.016000	3.290800	-9.924100	26.924249	0.000572	20.766101
1687.413499	-2.996500	3.291500	-9.862000	26.916851	0.000573	20.750126
1688.412803	-3.011300	3.289800	-9.904800	26.898405	0.000571	20.731577
1689.415961	-2.987800	3.291200	-9.832900	26.870780	0.000569	20.763544
1690.413667	-2.992900	3.290200	-9.846000	26.847048	0.000571	20.763864
1691.415426	-2.997800	3.289900	-9.861000	26.812843	0.000568	20.756024
1692.415782	-2.982500	3.290000	-9.811400	26.809517	0.000569	20.738455
1693.416494	-2.968100	3.289500	-9.762600	26.824503	0.000569	20.758265
1694.415071	-3.016100	3.287300	-9.914000	26.841407	0.000565	20.727370
1695.414117	-2.997100	3.287200	-9.850400	26.848449	0.000567	20.741089
1696.416634	-3.013700	3.286500	-9.903600	26.860580	0.000565	20.733373
1697.416449	-2.998800	3.287700	-9.858500	26.846280	0.000566	20.730373
1698.417865	-2.988800	3.287300	-9.824000	26.821831	0.000565	20.747517
1699.417688	-3.018700	3.286100	-9.919200	26.807548	0.000565	20.745484
1700.417074	-2.997600	3.287300	-9.853100	26.801173	0.000564	20.757092
1701.420669	-2.999400	3.285400	-9.853000	26.805386	0.000561	20.753267
1702.416611	-3.002200	3.284600	-9.859900	26.804907	0.000562	20.761796
1703.417234	-2.966200	3.285800	-9.744100	26.816763	0.000562	20.736257
1704.417358	-2.995300	3.286000	-9.840400	26.847507	0.000560	20.745358
1705.417358	-2.998600	3.282900	-9.842700	26.869695	0.000560	20.743012
1706.420718	-3.002200	3.285600	-9.863300	26.905299	0.000560	20.735664
1707.421428	-3.006200	3.282800	-9.867500	26.911079	0.000559	20.749064
1708.418456	-2.999100	3.284100	-9.849000	26.865350	0.000557	20.740540
1709.418350	-2.996200	3.283700	-9.837900	26.849935	0.000557	20.729781
1710.418303	-3.016200	3.281500	-9.896400	26.863261	0.000558	20.749345
1711.418589	-2.993800	3.281300	-9.822800	26.842586	0.000556	20.722391
1712.420279	-2.995300	3.282000	-9.829800	26.847791	0.000555	20.723357
1713.418293	-3.021400	3.279800	-9.908000	26.864711	0.000555	20.738949
1714.423553	-2.991500	3.280100	-9.811200	26.934989	0.000555	20.733277
1715.420923	-2.970100	3.280500	-9.742400	26.979808	0.000553	20.757484
1716.420391	-3.006500	3.279100	-9.857400	27.046606	0.000553	20.728879
1717.423497	-2.985500	3.279600	-9.789000	27.050323	0.000552	20.741626
1718.420759	-2.997500	3.279100	-9.828200	27.097389	0.000554	20.745339
1719.420982	-3.005400	3.279400	-9.854000	27.102404	0.000550	20.760340
1720.421851	-2.984800	3.278600	-9.784000	27.080385	0.000551	20.745782
1721.422954	-3.017600	3.275800	-9.883000	27.040628	0.000551	20.741360
1722.426294	-2.998800	3.277300	-9.827000	27.016582	0.000550	20.742308
1723.439712	-3.012700	3.276500	-9.871000	27.025013	0.000547	20.737510
1724.424427	-3.018800	3.276800	-9.890800	27.046751	0.000548	20.742301
1725.424573	-2.976100	3.275800	-9.747400	27.050565	0.000546	20.713419
1726.423934	-2.998400	3.276800	-9.823500	27.071083	0.000545	20.765350
1727.423688	-3.005300	3.275300	-9.841600	27.086316	0.000545	20.761704
1728.425528	-3.005000	3.274200	-9.838200	27.121577	0.000544	20.741690
1729.425025	-3.008700	3.275100	-9.853100	27.125611	0.000543	20.729151
1730.426062	-2.956900	3.277300	-9.689800	27.132481	0.000543	20.734638
1731.424371	-3.000400	3.273000	-9.819500	27.164985	0.000544	20.730346
1732.425003	-3.007400	3.273400	-9.842800	27.160215	0.000541	20.728867
1733.427170	-2.983900	3.273700	-9.767900	27.138651	0.000541	20.724723
1734.425041	-3.005700	3.273100	-9.837000	27.121704	0.000543	20.733282
1735.425591	-2.991800	3.272500	-9.789200	27.154698	0.000540	20.734224
1736.425790	-2.998400	3.272000	-9.809500	27.180766	0.000538	20.731994
1737.425130	-2.977600	3.272800	-9.743600	27.151311	0.000537	20.754526
1738.425982	-3.004300	3.271500	-9.827800	27.113222	0.000537	20.731864
1739.427661	-2.994700	3.272600	-9.799200	27.059842	0.000538	20.736027
1740.426690	-2.999800	3.272000	-9.813800	27.017458	0.000538	20.710470
1741.428620	-3.004100	3.270900	-9.825100	26.993233	0.000536	20.723094
1742.426856	-3.002900	3.269100	-9.816100	27.011266	0.000535	20.731746
1743.426920	-3.002200	3.269500	-9.815700	27.010096	0.000534	20.727724
1744.432525	-2.967000	3.270200	-9.701700	27.017745	0.000533	20.742054
1745.427794	-3.000700	3.270200	-9.811800	27.032354	0.000533	20.739677
1746.429346	-3.044400	3.266000	-9.941000	27.077780	0.000533	20.753593
1747.427856	-2.994700	3.268500	-9.786100	27.088348	0.000534	20.722494
1748.427157	-3.013100	3.267700	-9.845000	27.090674	0.000534	20.752810
1749.428252	-2.977500	3.269000	-9.732500	27.099552	0.000530	20.749885
1750.431403	-3.006400	3.267300	-9.819900	27.059820	0.000531	20.725098
1751.428265	-2.987900	3.267100	-9.759800	27.019566	0.000531	20.724919
1752.429377	-3.009300	3.265400	-9.825100	27.008048	0.000528	20.739415
1753.429412	-3.000200	3.264200	-9.792600	26.971913	0.000528	20.732949
1754.429010	-2.997900	3.265600	-9.787900	26.945446	0.000529	20.727196
1755.433678	-3.025600	3.262100	-9.868300	26.917845	0.000526	20.729314
1756.428865	-3.009500	3.264700	-9.824500	26.918035	0.000525	20.730927
1757.432492	-3.013700	3.262300	-9.830600	26.940441	0.000525	20.715051
1758.429758	-2.998800	3.263500	-9.785900	26.964562	0.000525	20.745472
1759.430645	-3.022300	3.263300	-9.861100	27.016299	0.000524	20.730168
1760.431983	-3.007400	3.261800	-9.807800	27.051231	0.000521	20.741117
1761.435767	-2.973600	3.263100	-9.702500	27.084901	0.000523	20.700060
1762.443591	-2.995200	3.262100	-9.769600	27.055296	0.000523	20.747102
1763.431985	-3.008200	3.261300	-9.809900	27.030504	0.000520	20.739712
1764.432736	-3.000600	3.260700	-9.783100	27.011473	0.000520	20.734798
1765.433184	-2.997800	3.260000	-9.771800	27.027294	0.000521	20.735062
1766.432493	-3.018200	3.260400	-9.839100	27.070297	0.000519	20.737532
1767.433146	-3.015200	3.258700	-9.824600	27.075850	0.000517	20.743117
1768.433667	-3.017500	3.258500	-9.831400	27.074411	0.000518	20.730764
1769.435506	-3.002500	3.259700	-9.786600	27.155078	0.000516	20.723700
1770.435848	-3.003600	3.259300	-9.787900	27.196930	0.000516	20.736872
1771.439700	-2.991500	3.258900	-9.747800	27.237746	0.000516	20.741417
1772.436052	-2.971200	3.259000	-9.681600	27.273094	0.000515	20.727185
1773.439435	-2.992600	3.257900	-9.748700	27.305496	0.000515	20.733700
1774.438790	-3.004000	3.258300	-9.787100	27.288527	0.000514	20.738916
1775.438814	-2.994700	3.256400	-9.751000	27.252304	0.000514	20.735197
1776.442388	-2.989000	3.258300	-9.738300	27.248973	0.000513	20.738959
1777.443084	-2.979600	3.257400	-9.704300	27.297274	0.000510	20.749612
1778.440156	-2.990300	3.254800	-9.732600	27.301314	0.000513	20.733287
1779.439857	-2.982900	3.256100	-9.712300	27.298192	0.000511	20.740104
1780.438754	-2.993300	3.255800	-9.744500	27.268367	0.000509	20.734758
1781.440008	-3.003600	3.254600	-9.774400	27.263978	0.000510	20.721808
1782.442171	-2.982300	3.254600	-9.705000	27.280947	0.000507	20.742672
1783.439354	-2.980500	3.254600	-9.699700	27.325605	0.000509	20.743497
1784.445935	-3.000700	3.253800	-9.763200	27.368344	0.000509	20.735282
1785.441491	-3.003500	3.251600	-9.765100	27.313636	0.000506	20.759433
1786.441166	-3.003300	3.251900	-9.765200	27.286677	0.000506	20.731365
1787.442745	-2.996600	3.252100	-9.743500	27.264614	0.000508	20.736673
1788.441280	-3.015900	3.252100	-9.806300	27.211315	0.000505	20.745651
1789.442491	-2.997600	3.250500	-9.742500	27.188369	0.000502	20.738219
1790.442446	-3.005800	3.249900	-9.766500	27.166959	0.000503	20.733280
1791.442606	-2.954900	3.251300	-9.605000	27.173853	0.000504	20.735472
1792.442571	-2.981200	3.249400	-9.686300	27.215662	0.000501	20.718728
1793.445710	-2.977100	3.247900	-9.668200	27.231861	0.000500	20.735022
1794.443206	-3.003500	3.248400	-9.755500	27.304160	0.000501	20.733779
1795.442453	-3.010700	3.248800	-9.780000	27.331688	0.000500	20.729701
1796.442407	-2.970600	3.249800	-9.652200	27.342896	0.000499	20.751883
1797.444554	-3.011200	3.246200	-9.773500	27.332508	0.000498	20.726733
1798.445580	-3.012800	3.247000	-9.781400	27.321392	0.000497	20.756329
1799.443635	-3.002500	3.247700	-9.750700	27.334394	0.000498	20.735743
1800.445127	-3.007800	3.245900	-9.761900	27.393507	0.000497	20.753484
1801.443045	-2.996700	3.245600	-9.723900	27.388127	0.000497	20.758977
1802.445469	-3.010000	3.245200	-9.767000	27.430043	0.000496	20.742350
1803.449298	-2.995300	3.245200	-9.719700	27.451650	0.000496	20.754130
1804.445264	-2.988000	3.244800	-9.694400	27.465164	0.000495	20.749709
1805.444891	-2.983600	3.245900	-9.683800	27.466578	0.000494	20.743070
1806.445328	-2.974900	3.245500	-9.653800	27.493588	0.000493	20.736105
1807.447011	-2.989500	3.243900	-9.696000	27.539026	0.000494	20.738199
1808.447200	-3.003700	3.244900	-9.745200	27.549240	0.000491	20.743260
1809.449871	-3.029800	3.241700	-9.819800	27.555311	0.000491	20.746998
1810.446912	-2.998900	3.244000	-9.727300	27.567117	0.000490	20.745600
1811.448521	-2.988600	3.243100	-9.690500	27.557936	0.000487	20.746320
1812.447535	-2.999300	3.242600	-9.724600	27.578567	0.000488	20.755699
1813.448516	-3.017100	3.240100	-9.775000	27.541160	0.000488	20.746036
1814.450140	-3.011500	3.242700	-9.764400	27.496236	0.000488	20.768168
1815.449918	-2.982400	3.242500	-9.668300	27.518704	0.000487	20.749995
1816.448349	-3.000000	3.241000	-9.721800	27.517461	0.000486	20.762496
1817.448875	-3.000200	3.241000	-9.722600	27.510563	0.000485	20.747495
1818.449555	-3.006300	3.239300	-9.736800	27.503243	0.000483	20.743923
1819.448481	-2.984500	3.239700	-9.668200	27.508501	0.000485	20.744945
1820.452535	-2.969800	3.240100	-9.620900	27.546471	0.000483	20.746164
1821.451116	-3.003600	3.237400	-9.722700	27.561991	0.000482	20.757987
1822.452230	-2.992500	3.237700	-9.687500	27.571563	0.000482	20.742013
1823.451934	-3.003500	3.237700	-9.723300	27.549488	0.000481	20.758209
1824.451240	-3.015300	3.236800	-9.757700	27.582915	0.000482	20.764816
1825.454968	-2.980800	3.236400	-9.646600	27.595590	0.000481	20.736790
1826.451826	-2.993700	3.236000	-9.686000	27.610516	0.000477	20.746120
1827.454447	-3.018400	3.235200	-9.764200	27.567089	0.000478	20.760745
1828.451726	-2.999300	3.236700	-9.706300	27.546347	0.000477	20.756471
1829.450917	-2.988800	3.236200	-9.671600	27.502268	0.000475	20.748157
1830.451974	-2.993000	3.237100	-9.687400	27.450475	0.000474	20.760061
1831.453170	-2.998300	3.234000	-9.695100	27.424577	0.000474	20.757715
1832.451207	-2.999000	3.233300	-9.695300	27.428226	0.000473	20.770394
1833.452083	-3.004200	3.232800	-9.710700	27.433477	0.000474	20.737744
1834.453386	-3.012000	3.232200	-9.734300	27.374544	0.000473	20.752899
1835.453393	-3.003700	3.233000	-9.709900	27.322396	0.000474	20.759710
1836.457458	-3.019300	3.229800	-9.750400	27.334295	0.000471	20.763145
1837.455524	-2.980500	3.232500	-9.633100	27.372603	0.000470	20.776077
1838.458620	-2.992100	3.233600	-9.673800	27.433121	0.000469	20.777216
1839.471582	-2.999100	3.231000	-9.688400	27.449501	0.000468	20.767616
1840.476585	-3.006300	3.230200	-9.709000	27.474725	0.000467	20.756957
1841.461054	-3.005500	3.230300	-9.708000	27.457347	0.000468	20.767449
1842.457612	-3.008800	3.230200	-9.718100	27.418804	0.000466	20.769925
1843.458476	-3.008500	3.228700	-9.711600	27.393304	0.000466	20.776988
1844.458262	-3.016600	3.227800	-9.735400	27.365764	0.000465	20.771095
1845.458824	-2.972600	3.229100	-9.597900	27.391657	0.000464	20.779598
1846.463099	-2.999500	3.227000	-9.678600	27.415516	0.000465	20.770410
1847.459819	-3.004500	3.227400	-9.696200	27.474429	0.000465	20.740064
1848.464148	-2.986800	3.226500	-9.635300	27.471424	0.000461	20.775922
1849.460920	-2.979900	3.226700	-9.614000	27.489724	0.000463	20.768729
1850.460975	-2.996000	3.226000	-9.663300	27.509365	0.000462	20.791808
1851.460054	-2.996100	3.225900	-9.663100	27.559765	0.000460	20.760963
1852.462885	-2.988200	3.226200	-9.639200	27.588854	0.000459	20.770791
1853.462127	-2.994800	3.226600	-9.660200	27.599619	0.000458	20.802486
1854.462967	-2.981600	3.225000	-9.614700	27.641900	0.000458	20.791451
1855.460988	-2.982600	3.226300	-9.620400	27.634850	0.000457	20.784831
1856.463170	-2.975100	3.223200	-9.587800	27.673667	0.000458	20.769362
1857.464202	-3.006900	3.222300	-9.688400	27.681720	0.000456	20.783630
1858.462367	-3.043100	3.221000	-9.799200	27.711601	0.000454	20.775766
1859.465982	-3.015200	3.222400	-9.714700	27.671769	0.000455	20.768875
1860.461407	-2.993900	3.221500	-9.643100	27.659445	0.000454	20.775439
1861.461376	-2.999100	3.221500	-9.660100	27.574421	0.000453	20.778555
1862.462486	-2.991200	3.221200	-9.634500	27.561471	0.000452	20.787810
1863.465709	-2.988300	3.221400	-9.626000	27.558074	0.000452	20.771590
1864.464038	-2.937700	3.223300	-9.466600	27.559788	0.000450	20.783746
1865.465996	-2.997000	3.219900	-9.647400	27.560529	0.000449	20.768844
1866.464642	-2.981000	3.219900	-9.597700	27.565890	0.000449	20.791782
1867.464992	-3.006300	3.217500	-9.671500	27.534340	0.000447	20.779004
1868.468969	-3.002800	3.219300	-9.665000	27.460845	0.000447	20.768123
1869.465967	-3.009400	3.218800	-9.686000	27.396440	0.000447	20.784885
1870.469139	-2.997700	3.220000	-9.651200	27.380470	0.000447	20.773086
1871.466593	-2.999900	3.218000	-9.652100	27.341423	0.000446	20.789756
1872.467783	-3.023400	3.217100	-9.724900	27.354278	0.000444	20.806481
1873.466687	-3.038100	3.214200	-9.764000	27.388985	0.000443	20.792558
1874.473117	-2.991900	3.216200	-9.621800	27.366355	0.000444	20.779749
1875.469402	-2.975900	3.216900	-9.572700	27.370977	0.000443	20.792934
1876.470922	-2.976800	3.215900	-9.572400	27.445550	0.000441	20.786875
1877.471585	-2.997300	3.214700	-9.634700	27.479556	0.000441	20.785052
1878.470234	-2.987400	3.215500	-9.605300	27.526758	0.000438	20.792712
1879.473570	-2.996200	3.213900	-9.628500	27.546844	0.000439	20.826672
1880.471734	-2.997400	3.214200	-9.632200	27.537015	0.000438	20.778376
1881.471742	-2.976900	3.213500	-9.565300	27.572819	0.000437	20.791641
1882.470922	-2.993200	3.213300	-9.617500	27.618791	0.000436	20.795698
1883.470701	-2.986100	3.212300	-9.590500	27.632285	0.000435	20.775137
1884.472888	-2.997500	3.212500	-9.629000	27.698125	0.000436	20.802509
1885.471386	-2.974100	3.213500	-9.555600	27.722443	0.000435	20.803272
1886.470684	-2.991400	3.211600	-9.606100	27.746504	0.000434	20.793820
1887.472078	-2.990300	3.210900	-9.600000	27.733586	0.000434	20.773234
1888.473306	-3.009900	3.210300	-9.661800	27.769144	0.000431	20.800957
1889.472756	-2.992000	3.209400	-9.600500	27.742624	0.000431	20.791338
1890.473506	-3.005400	3.210500	-9.647800	27.720778	0.000430	20.803967
1891.471697	-2.998800	3.208200	-9.619800	27.690616	0.000429	20.799694
1892.474597	-3.005300	3.208300	-9.640900	27.697530	0.000430	20.796694
1893.472220	-2.970500	3.209600	-9.532500	27.711813	0.000427	20.779772
1894.473156	-3.004500	3.208300	-9.638100	27.729987	0.000427	20.786681
1895.476952	-2.998600	3.207800	-9.617200	27.784348	0.000425	20.810568
1896.471841	-2.989900	3.206600	-9.586400	27.818167	0.000424	20.798609
1897.474299	-2.993500	3.207400	-9.600400	27.809264	0.000424	20.811460
1898.475182	-2.993200	3.206600	-9.596600	27.773952	0.000423	20.807218
1899.475885	-3.004100	3.206400	-9.630500	27.778884	0.000424	20.795585
1900.475420	-3.014500	3.206500	-9.664300	27.800385	0.000423	20.792094
1901.477142	-3.006700	3.205900	-9.638300	27.814813	0.000419	20.813726
1902.474494	-3.018000	3.205500	-9.672900	27.834203	0.000422	20.822809
1903.475676	-3.013100	3.204000	-9.652900	27.864771	0.000422	20.818012
1904.477727	-2.989000	3.205600	-9.580300	27.897626	0.000419	20.811725
1905.475761	-3.011800	3.202300	-9.643800	27.880049	0.000417	20.797352
1906.477957	-3.001100	3.202300	-9.609200	27.865364	0.000416	20.809126
1907.475913	-3.029500	3.201800	-9.699200	27.805635	0.000417	20.805912
1908.477064	-3.011000	3.201600	-9.639200	27.798188	0.000417	20.805530
1909.476068	-2.977400	3.202400	-9.534200	27.766058	0.000416	20.813024
1910.475449	-2.986700	3.202300	-9.563200	27.741582	0.000414	20.804514
1911.475524	-2.981300	3.201900	-9.545400	27.768707	0.000413	20.815216
1912.475576	-2.994900	3.201200	-9.586700	27.777886	0.000413	20.827772
1913.475132	-3.004800	3.200300	-9.615900	27.733572	0.000413	20.828695
1914.475769	-3.015800	3.199200	-9.647100	27.757302	0.000412	20.801367
1915.474883	-2.998500	3.199500	-9.593200	27.795563	0.000411	20.829440
1916.475292	-3.037000	3.198400	-9.711800	27.804442	0.000411	20.827944
1917.476227	-2.987600	3.198000	-9.553500	27.845975	0.000409	20.822802
1918.476042	-3.009100	3.197100	-9.619900	27.829810	0.000408	20.812698
1919.479172	-2.987500	3.197800	-9.552500	27.876004	0.000408	20.812248
1920.477175	-2.982100	3.196900	-9.532200	27.879375	0.000406	20.835555
1921.477110	-2.992900	3.195800	-9.563600	27.903377	0.000406	20.822254
1922.480970	-3.000000	3.196100	-9.587400	27.933527	0.000405	20.821780
1923.478314	-3.017700	3.195300	-9.640100	27.971409	0.000405	20.811072
1924.479215	-2.999700	3.194700	-9.582100	27.934103	0.000404	20.824256
1925.480191	-3.002700	3.194600	-9.592100	27.926583	0.000402	20.819058
1926.480183	-2.973300	3.196700	-9.503200	27.918263	0.000403	20.826331
1927.482050	-2.976400	3.195000	-9.508100	27.883989	0.000401	20.845887
1928.483420	-2.983500	3.193600	-9.527300	27.894133	0.000399	20.819114
1929.482097	-3.011600	3.191900	-9.612200	27.884288	0.000398	20.831017
1930.483134	-3.000200	3.194000	-9.582000	27.894255	0.000398	20.833461
1931.483999	-2.992200	3.191900	-9.548900	27.899957	0.000397	20.843942
1932.483641	-3.018600	3.191500	-9.632700	27.944369	0.000397	20.829847
1933.485418	-3.033100	3.189400	-9.673400	27.961725	0.000398	20.830247
1934.483530	-3.010900	3.188800	-9.600000	27.973318	0.000394	20.821528
1935.485849	-3.022900	3.190500	-9.643400	27.983357	0.000394	20.839218
1936.485766	-2.986400	3.189900	-9.525100	27.945531	0.000393	20.836232
1937.484855	-2.977400	3.192700	-9.504800	27.931845	0.000392	20.843794
1938.483982	-3.001700	3.188200	-9.569300	27.965958	0.000391	20.849680
1939.487000	-3.020900	3.187900	-9.628100	27.982110	0.000391	20.841756
1940.485795	-3.009200	3.187400	-9.590100	27.983743	0.000392	20.814003
1941.486290	-2.985100	3.187000	-9.512200	27.994749	0.000389	20.852107
1942.488318	-2.993900	3.187500	-9.541800	28.018057	0.000389	20.840007
1943.490710	-2.980100	3.188500	-9.500100	28.041211	0.000386	20.834866
1944.490859	-3.001600	3.186500	-9.563500	28.000132	0.000387	20.839509
1945.490470	-3.007600	3.184700	-9.577900	27.965127	0.000386	20.836990
1946.490420	-3.010400	3.184900	-9.585700	27.891857	0.000384	20.837686
1947.489266	-2.973000	3.185900	-9.471000	27.850185	0.000383	20.848376
1948.489258	-3.007100	3.184500	-9.575300	27.821269	0.000384	20.839663
1949.490254	-2.999700	3.184800	-9.552000	27.813033	0.000383	20.854133
1950.489782	-2.997000	3.182700	-9.537200	27.857674	0.000383	20.847379
1951.492288	-3.004500	3.184600	-9.567200	27.835281	0.000382	20.851867
1952.489249	-3.009600	3.182200	-9.575800	27.825962	0.000380	20.849127
1953.489058	-2.980600	3.182500	-9.484700	27.803617	0.000379	20.844657
1954.490383	-3.013900	3.181600	-9.587400	27.758490	0.000378	20.842865
1955.491623	-2.990800	3.180100	-9.509800	27.770911	0.000377	20.833081
1956.489483	-3.016500	3.179100	-9.589100	27.798092	0.000378	20.841942
1957.488014	-2.995500	3.181000	-9.528200	27.791495	0.000375	20.846209
1958.490463	-2.992700	3.180200	-9.517000	27.790504	0.000375	20.843789
1959.491305	-2.977500	3.179900	-9.467900	27.780048	0.000373	20.839430
1960.494454	-3.005800	3.177100	-9.549100	27.774669	0.000373	20.845871
1961.490723	-3.001700	3.177700	-9.537800	27.854316	0.000375	20.823137
1962.496119	-2.983100	3.177800	-9.477200	27.909901	0.000371	20.855371
1963.493608	-2.987600	3.176500	-9.488200	27.941635	0.000370	20.848432
1964.492712	-3.004800	3.177000	-9.544700	27.985696	0.000370	20.863857
1965.495538	-2.981200	3.175600	-9.466200	28.021000	0.000371	20.848186
1966.492877	-2.986400	3.176000	-9.482700	28.060366	0.000369	20.836129
1967.493146	-2.992300	3.175100	-9.499600	28.086474	0.000367	20.854824
1968.492749	-2.999300	3.173300	-9.516800	28.070582	0.000367	20.859214
1969.493600	-3.004400	3.172700	-9.530500	28.025038	0.000367	20.864577
1970.493357	-2.994300	3.174000	-9.503300	28.025184	0.000365	20.865673
1971.495177	-2.989300	3.173200	-9.483900	27.990846	0.000364	20.869989
1972.494328	-3.009400	3.173300	-9.549300	27.968309	0.000364	20.852994
1973.495158	-2.978300	3.173800	-9.451700	27.961322	0.000364	20.856394
1974.496260	-2.995000	3.172200	-9.500000	27.943959	0.000364	20.861676
1975.495419	-2.992700	3.170600	-9.487800	27.985763	0.000362	20.865820
1976.498023	-2.993000	3.170700	-9.488800	28.036116	0.000361	20.861030
1977.495925	-2.978700	3.171200	-9.445400	28.057557	0.000360	20.841837
1978.498913	-3.018400	3.170800	-9.568000	28.052847	0.000359	20.870284
1979.496271	-3.000100	3.168100	-9.502800	28.062261	0.000358	20.887820
1980.494792	-3.005700	3.168100	-9.520700	28.064488	0.000357	20.883424
1981.495266	-2.994000	3.168300	-9.483800	28.087170	0.000357	20.874015
1982.500787	-3.017700	3.167200	-9.557000	28.082980	0.000356	20.866478
1983.495272	-3.004600	3.167700	-9.516900	28.075168	0.000356	20.870468
1984.495701	-3.001700	3.166000	-9.502300	28.083071	0.000354	20.876527
1985.495300	-2.994400	3.165600	-9.476600	28.056223	0.000355	20.898810
1986.495914	-2.981500	3.167100	-9.442300	28.051708	0.000351	20.868664
1987.497965	-3.004400	3.166600	-9.512000	28.085842	0.000353	20.873152
1988.495446	-2.990500	3.164400	-9.461400	28.117871	0.000352	20.880738
1989.499668	-2.997400	3.163400	-9.480200	28.163508	0.000350	20.888749
1990.495048	-2.981100	3.164500	-9.432700	28.185638	0.000350	20.891587
1991.496953	-2.969900	3.165500	-9.399500	28.201058	0.000348	20.889568
1992.497371	-3.000500	3.161800	-9.486000	28.214563	0.000349	20.894155
1993.497061	-2.979900	3.163000	-9.424800	28.158241	0.000349	20.890559
1994.494904	-3.026500	3.160800	-9.564600	28.176714	0.000345	20.863639
1995.495120	-2.983900	3.161100	-9.430700	28.176359	0.000345	20.889832
1996.496255	-3.035800	3.159800	-9.592000	28.160718	0.000345	20.867924
1997.495894	-3.004000	3.160100	-9.492000	28.178218	0.000344	20.886489
1998.499490	-2.989500	3.159800	-9.445900	28.212746	0.000343	20.900386
1999.495586	-2.989800	3.159300	-9.445000	28.255205	0.000345	20.904252
2000.495972	-2.985000	3.160300	-9.431100	28.276617	0.000342	20.873656
2001.495101	-2.989600	3.158900	-9.443000	28.279185	0.000341	20.886672
2002.496142	-3.003500	3.157500	-9.481300	28.285405	0.000341	20.873021
2003.499958	-2.972900	3.159600	-9.392200	28.311997	0.000341	20.903112
2004.496422	-2.998000	3.157100	-9.463600	28.343664	0.000340	20.891376
2005.496891	-2.969200	3.158000	-9.375400	28.359142	0.000338	20.888469
2006.496527	-2.988400	3.156100	-9.431300	28.310840	0.000338	20.890569
2007.496219	-3.036100	3.153800	-9.573900	28.277845	0.000337	20.898598
2008.499775	-3.007200	3.153600	-9.482800	28.293232	0.000334	20.881376
2009.499256	-3.006600	3.152900	-9.478300	28.299341	0.000335	20.864294
2010.497124	-2.997700	3.154100	-9.453300	28.298748	0.000335	20.869861
2011.497791	-3.017700	3.152400	-9.512500	28.247581	0.000331	20.884724
2012.497818	-2.972400	3.154900	-9.376900	28.211397	0.000334	20.881486
2013.498542	-2.985200	3.152900	-9.410700	28.142328	0.000330	20.878333
2014.499706	-3.022400	3.151300	-9.523300	28.084841	0.000332	20.870722
2015.499991	-2.994400	3.151000	-9.434400	28.045299	0.000330	20.868376
2016.501697	-3.018800	3.149400	-9.505700	28.044228	0.000328	20.868247
2017.501209	-3.019500	3.147800	-9.504300	28.040784	0.000328	20.879952
2018.499846	-2.996800	3.147700	-9.431800	28.086786	0.000329	20.857508
2019.503005	-2.989500	3.148000	-9.409500	28.121536	0.000324	20.863092
2020.506311	-3.025900	3.145400	-9.516100	28.146781	0.000326	20.868591
2021.502882	-3.026500	3.145300	-9.517400	28.195408	0.000326	20.864441
2022.502391	-2.953800	3.147600	-9.295100	28.249617	0.000325	20.868757
2023.508249	-3.001900	3.147000	-9.445900	28.252944	0.000322	20.846030
2024.503664	-2.979300	3.145600	-9.369400	28.194821	0.000322	20.854842
2025.505472	-3.000700	3.145400	-9.437600	28.206044	0.000322	20.867089
2026.504014	-2.987700	3.145000	-9.394500	28.204338	0.000320	20.852569
2027.505638	-2.985200	3.143600	-9.383300	28.243721	0.000319	20.860925
2028.504984	-2.982100	3.143800	-9.374400	28.291017	0.000318	20.850698
2029.505320	-2.990400	3.142400	-9.395300	28.301622	0.000317	20.871805
2030.507155	-2.953200	3.143600	-9.282600	28.330348	0.000316	20.847151
2031.504987	-3.015400	3.141500	-9.471300	28.294906	0.000314	20.870734
2032.505548	-3.007100	3.141700	-9.446100	28.293121	0.000315	20.844755
2033.507127	-3.008800	3.139000	-9.443400	28.266277	0.000316	20.863721
2034.506568	-2.997500	3.139900	-9.409900	28.281170	0.000314	20.845051
2035.507090	-3.004200	3.140000	-9.432200	28.303530	0.000315	20.859977
2036.510923	-3.001100	3.138300	-9.416500	28.306429	0.000311	20.853887
2037.508546	-3.005800	3.138300	-9.431500	28.361323	0.000313	20.820494
2038.506215	-2.987200	3.137400	-9.371500	28.395380	0.000311	20.850993
2039.506222	-3.007900	3.136500	-9.433800	28.388243	0.000311	20.844755
2040.507172	-3.011000	3.135400	-9.439100	28.395062	0.000310	20.842139
2041.509215	-3.017900	3.135000	-9.460400	28.385767	0.000309	20.828986
2042.508652	-3.004200	3.135600	-9.418800	28.356865	0.000310	20.846824
2043.511583	-3.032800	3.133600	-9.502600	28.316862	0.000307	20.832151
2044.509412	-2.983100	3.134000	-9.348000	28.327326	0.000307	20.839368
2045.509726	-3.013000	3.133700	-9.440100	28.314263	0.000306	20.849922
2046.511636	-2.993400	3.132400	-9.375600	28.319761	0.000304	20.835069
2047.518474	-3.022700	3.130900	-9.461300	28.308312	0.000304	20.827335
2048.509667	-3.030000	3.130100	-9.483300	28.287836	0.000304	20.839435
2049.510475	-3.013600	3.129100	-9.429100	28.281201	0.000305	20.839866
2050.509939	-3.007600	3.128900	-9.409500	28.266822	0.000304	20.829183
2051.510215	-3.013500	3.128500	-9.426900	28.272962	0.000300	20.834891
2052.511036	-2.965500	3.130200	-9.281600	28.284191	0.000300	20.831024
2053.509155	-2.982700	3.128800	-9.331500	28.312593	0.000300	20.835913
2054.509868	-2.982600	3.127400	-9.326600	28.354969	0.000299	20.834484
2055.509766	-3.022300	3.125700	-9.445600	28.388108	0.000298	20.831818
2056.509323	-2.980000	3.126600	-9.316200	28.427436	0.000298	20.820685
2057.511751	-3.000000	3.125300	-9.375200	28.434101	0.000296	20.833086
2058.509856	-3.001200	3.125500	-9.379400	28.450037	0.000298	20.825426
2059.509301	-3.019100	3.123700	-9.429500	28.494663	0.000294	20.824373
2060.510823	-2.992900	3.125900	-9.354500	28.519318	0.000293	20.796570
2061.511116	-2.979600	3.125900	-9.312900	28.541917	0.000295	20.840192
2062.513211	-2.989200	3.122700	-9.334100	28.542584	0.000294	20.820949
2063.509863	-2.991300	3.122300	-9.339200	28.550043	0.000294	20.813289
2064.509304	-3.009800	3.119900	-9.389400	28.579227	0.000293	20.834145
2065.509373	-2.998700	3.120200	-9.355500	28.553510	0.000288	20.815832
2066.510356	-3.002700	3.119400	-9.365500	28.508207	0.000290	20.821891
2067.515599	-3.000100	3.118000	-9.353200	28.501940	0.000289	20.834545
2068.516205	-3.022900	3.117300	-9.422200	28.520002	0.000286	20.831398
2069.512281	-2.991500	3.117800	-9.325300	28.507485	0.000287	20.812629
2070.513818	-3.008800	3.117800	-9.379300	28.540523	0.000287	20.828831
2071.513491	-3.020000	3.117800	-9.414800	28.591535	0.000286	20.819514
2072.514474	-3.025000	3.114600	-9.420600	28.598627	0.000287	20.829502
2073.514937	-3.017600	3.115400	-9.399900	28.636565	0.000284	20.807020
2074.514216	-3.005500	3.114700	-9.359700	28.628482	0.000283	20.845819
2075.516850	-2.978000	3.114800	-9.275000	28.635146	0.000283	20.821238
2076.515013	-2.979300	3.113600	-9.274900	28.607866	0.000284	20.829323
2077.517630	-2.997000	3.113800	-9.330200	28.581801	0.000282	20.827254
2078.515872	-3.000900	3.113500	-9.342500	28.582321	0.000285	20.843898
2079.514611	-3.000000	3.111700	-9.334100	28.546539	0.000281	20.824933
2080.515073	-2.994100	3.111300	-9.314600	28.513686	0.000280	20.812236
2081.514063	-3.009900	3.110100	-9.359600	28.512989	0.000279	20.810111
2082.516355	-3.017100	3.108300	-9.377300	28.436785	0.000280	20.826780
2083.516845	-2.996300	3.109300	-9.314700	28.438173	0.000278	20.806841
2084.515650	-2.966600	3.108500	-9.220400	28.444869	0.000279	20.820696
2085.517817	-2.987400	3.107500	-9.282200	28.468950	0.000278	20.826453
2086.515286	-2.991500	3.106700	-9.293100	28.479278	0.000277	20.818836
2087.515614	-2.995500	3.106500	-9.304500	28.436308	0.000276	20.794531
2088.521617	-2.992600	3.105000	-9.289600	28.387716	0.000275	20.818621
2089.518832	-3.024400	3.103900	-9.385600	28.374232	0.000274	20.817371
2090.515635	-3.003000	3.103500	-9.318900	28.378843	0.000274	20.798781
2091.515879	-2.990300	3.103400	-9.278600	28.398369	0.000272	20.813227
2092.517738	-2.988100	3.102400	-9.268400	28.383870	0.000273	20.810006
2093.517162	-3.015300	3.100900	-9.349300	28.400925	0.000271	20.820542
2094.519903	-3.014000	3.100700	-9.343500	28.421821	0.000271	20.791324
2095.517224	-2.996100	3.099800	-9.286000	28.387245	0.000268	20.820518
2096.520733	-3.026400	3.098800	-9.376800	28.346229	0.000268	20.814779
2097.518428	-3.024900	3.097500	-9.368600	28.312916	0.000270	20.809212
2098.516871	-2.996100	3.099700	-9.285400	28.330395	0.000269	20.823492
2099.521016	-3.018200	3.097900	-9.348800	28.337905	0.000267	20.802605
2100.518342	-3.001200	3.097100	-9.293300	28.400235	0.000267	20.811786
2101.519983	-2.993000	3.095000	-9.263000	28.449829	0.000267	20.810518
2102.520282	-3.007000	3.095900	-9.307100	28.435745	0.000264	20.813405
2103.520450	-3.016900	3.093700	-9.331500	28.407029	0.000265	20.809144
2104.522639	-2.982400	3.094300	-9.227200	28.411340	0.000263	20.820598
2105.522618	-2.993700	3.092500	-9.257100	28.420164	0.000263	20.813837
2106.521183	-3.006100	3.092800	-9.296600	28.436529	0.000264	20.793806
2107.522120	-2.955100	3.094000	-9.142000	28.480214	0.000262	20.791804
2108.521200	-3.005700	3.090600	-9.288100	28.491557	0.000260	20.805123
2109.521299	-2.996300	3.089600	-9.255400	28.473322	0.000261	20.772536
2110.523884	-3.004300	3.088100	-9.276400	28.480037	0.000260	20.800160
2111.522764	-3.014700	3.087300	-9.306100	28.511240	0.000260	20.796022
2112.524555	-2.983000	3.087900	-9.210000	28.524350	0.000257	20.806380
2113.523488	-3.010400	3.086100	-9.288300	28.542437	0.000256	20.794723
2114.524559	-3.025600	3.084700	-9.331800	28.577650	0.000258	20.795099
2115.527395	-3.009100	3.085100	-9.282400	28.596653	0.000257	20.799064
2116.525390	-2.988700	3.085100	-9.218000	28.636871	0.000257	20.790259
2117.525550	-3.008200	3.082500	-9.272600	28.665117	0.000254	20.790733
2118.525867	-3.071200	3.081100	-9.461000	28.630207	0.000256	20.793030
2119.525115	-3.010400	3.081200	-9.274900	28.637837	0.000256	20.792180
2120.525697	-2.989700	3.079600	-9.205900	28.626618	0.000256	20.804114
2121.529162	-2.995200	3.079200	-9.221200	28.618810	0.000253	20.783448
2122.526145	-2.992100	3.079700	-9.213600	28.651795	0.000254	20.777315
2123.530062	-2.978500	3.079900	-9.172700	28.607212	0.000253	20.784095
2124.526678	-3.009500	3.078100	-9.262800	28.548350	0.000252	20.785505
2125.526983	-2.990700	3.077800	-9.203500	28.486959	0.000249	20.791958
2126.528028	-3.016700	3.076700	-9.280500	28.462921	0.000252	20.801891
2127.526821	-3.030100	3.074800	-9.316200	28.441641	0.000251	20.799428
2128.531307	-2.985000	3.076400	-9.181500	28.456635	0.000249	20.804570
2129.530988	-2.968400	3.075700	-9.129000	28.452245	0.000249	20.794459
2130.528333	-2.992500	3.073200	-9.195100	28.464316	0.000249	20.774372
2131.528830	-3.000200	3.073600	-9.220200	28.466774	0.000248	20.799133
2132.531303	-2.999300	3.072600	-9.215100	28.498596	0.000248	20.781866
2133.527821	-2.978300	3.072300	-9.148800	28.517154	0.000247	20.779692
2134.528308	-3.000500	3.069200	-9.207900	28.589903	0.000246	20.784680
2135.528459	-2.994200	3.069300	-9.188400	28.654260	0.000247	20.806350
2136.528144	-3.027800	3.067700	-9.287400	28.640461	0.000245	20.795297
2137.534464	-2.996600	3.067800	-9.190800	28.639910	0.000246	20.790949
2138.528046	-3.004900	3.065400	-9.209600	28.653814	0.000246	20.780296
2139.530949	-3.021300	3.064300	-9.256900	28.663895	0.000245	20.782390
2140.537727	-2.977300	3.063900	-9.121700	28.647021	0.000245	20.777248
2141.529325	-2.981900	3.063200	-9.133300	28.634048	0.000241	20.800217
2142.535987	-3.002300	3.062600	-9.193900	28.635729	0.000242	20.784366
2143.537092	-3.006900	3.061700	-9.204400	28.638627	0.000241	20.792027
2144.529212	-2.998400	3.061400	-9.178200	28.705621	0.000242	20.773208
2145.531842	-2.999300	3.059600	-9.175400	28.768381	0.000241	20.780001
2146.530751	-3.003600	3.058200	-9.184000	28.800909	0.000242	20.809922
2147.530844	-3.020600	3.056700	-9.231300	28.818820	0.000242	20.775333
2148.532536	-2.979100	3.057500	-9.108000	28.832079	0.000240	20.790112
2149.531914	-2.988800	3.056400	-9.133000	28.872575	0.000241	20.774009
2150.535076	-3.023200	3.054700	-9.233600	28.907080	0.000240	20.778424
2151.532146	-3.000600	3.054300	-9.164100	28.892967	0.000240	20.767050
2152.532881	-3.021900	3.053700	-9.227100	28.892967	0.000239	20.779379
2153.533622	-2.986100	3.052300	-9.113300	28.905204	0.000237	20.774163
2154.532933	-2.980100	3.052600	-9.095100	28.856823	0.000237	20.770942
2155.534764	-3.003400	3.050700	-9.162000	28.834126	0.000238	20.772734
2156.532488	-2.986000	3.050500	-9.107800	28.745163	0.000237	20.775105
2157.531769	-3.026500	3.048900	-9.226500	28.664439	0.000236	20.774403
2158.535323	-3.035000	3.046400	-9.243900	28.622290	0.000235	20.776521
2159.536734	-3.004700	3.046800	-9.153400	28.624497	0.000236	20.784908
2160.533879	-3.011700	3.044800	-9.168800	28.644385	0.000234	20.782654
2161.532956	-2.996600	3.043200	-9.118000	28.671788	0.000234	20.760941
2162.535125	-3.008800	3.044300	-9.158400	28.675083	0.000236	20.750035
2163.534762	-3.000700	3.042000	-9.126400	28.669385	0.000235	20.753779
2164.535435	-3.005100	3.040800	-9.136700	28.661260	0.000234	20.765036
2165.539302	-3.007000	3.040400	-9.141600	28.626141	0.000233	20.783719
2166.535428	-3.000300	3.039900	-9.120000	28.594923	0.000233	20.767450
2167.535231	-2.999400	3.039100	-9.114500	28.594323	0.000232	20.785813
2168.538876	-2.996700	3.037800	-9.103100	28.618511	0.000233	20.755645
2169.536329	-2.976200	3.035900	-9.035100	28.574201	0.000232	20.764124
2170.536130	-3.015300	3.034600	-9.149100	28.536114	0.000232	20.765596
2171.536850	-2.993300	3.033300	-9.077400	28.537123	0.000232	20.765189
2172.536835	-3.009400	3.032200	-9.123900	28.528226	0.000231	20.778515
2173.536124	-3.017800	3.031800	-9.147800	28.567090	0.000231	20.760756
2174.538667	-3.006800	3.030700	-9.111100	28.586882	0.000231	20.757455
2175.538265	-3.015700	3.029400	-9.134900	28.567450	0.000230	20.759696
2176.538327	-2.999500	3.028800	-9.083300	28.557985	0.000233	20.741154
2177.538476	-3.006800	3.027800	-9.102800	28.513649	0.000230	20.775214
2178.536690	-3.020400	3.026100	-9.138900	28.495017	0.000228	20.758347
2179.540675	-2.980300	3.025900	-9.016300	28.521757	0.000231	20.764413
2180.539079	-2.971200	3.025000	-8.986800	28.542522	0.000228	20.757350
2181.540380	-2.973300	3.023800	-8.988800	28.607817	0.000226	20.742503
2182.538170	-3.006200	3.022100	-9.082600	28.648970	0.000228	20.772572
2183.539179	-2.993200	3.022400	-9.046000	28.675155	0.000228	20.755324
2184.540946	-3.012900	3.020800	-9.100000	28.698351	0.000227	20.753082
2185.542024	-3.003200	3.018300	-9.064100	28.728307	0.000228	20.747694
2186.538099	-2.990400	3.018800	-9.027100	28.765341	0.000226	20.772671
2187.538563	-2.995300	3.017000	-9.036400	28.783821	0.000227	20.751931
2188.539459	-2.988000	3.016300	-9.011600	28.756593	0.000227	20.742995
2189.539347	-2.988400	3.014400	-9.006100	28.756202	0.000227	20.756826
2190.543507	-3.011000	3.013900	-9.074000	28.763238	0.000228	20.750638
2191.542254	-3.005200	3.011500	-9.048300	28.797778	0.000226	20.767886
2192.544213	-3.019400	3.010100	-9.087100	28.829308	0.000224	20.758397
2193.542028	-3.018400	3.009200	-9.082500	28.840207	0.000226	20.769376
2194.542112	-3.003600	3.009400	-9.038100	28.807583	0.000226	20.749788
2195.544099	-3.007500	3.006300	-9.040800	28.764706	0.000225	20.726510
2196.542114	-2.991900	3.005800	-8.992400	28.716710	0.000225	20.741228
2197.545397	-2.996800	3.004100	-9.001900	28.718171	0.000225	20.724681
2198.542579	-2.977100	3.003200	-8.939300	28.736603	0.000225	20.759370
2199.543378	-2.993900	3.001500	-8.985400	28.751623	0.000224	20.748421
2200.544170	-3.023400	3.000600	-9.071300	28.761679	0.000222	20.753809
2201.548670	-2.983900	3.000000	-8.950700	28.787642	0.000223	20.733019
2202.545151	-3.015200	2.996700	-9.034300	28.799727	0.000223	20.729072
2203.545045	-3.011300	2.996700	-9.022200	28.789794	0.000223	20.736135
2204.546355	-3.016700	2.996100	-9.037700	28.800491	0.000223	20.733161
2205.545457	-2.984800	2.994700	-8.937900	28.812430	0.000221	20.747084
2206.549128	-2.984400	2.993800	-8.933900	28.841857	0.000223	20.752546
2207.546972	-2.974100	2.994300	-8.903200	28.850782	0.000222	20.730716
2208.549775	-2.996100	2.991800	-8.962900	28.872359	0.000221	20.734910
2209.546450	-3.010600	2.988500	-8.996300	28.895471	0.000222	20.738752
2210.546339	-3.025700	2.986900	-9.035500	28.888160	0.000221	20.749880
2211.547183	-3.007200	2.988400	-8.986000	28.813958	0.000222	20.738191
2212.547204	-3.003500	2.988000	-8.973800	28.839057	0.000220	20.742139
2213.551764	-3.001800	2.984900	-8.959400	28.843611	0.000222	20.725389
2214.546923	-3.010900	2.982900	-8.980900	28.826593	0.000221	20.734324
2215.547933	-2.982500	2.983700	-8.898400	28.889988	0.000222	20.743186
2216.549671	-2.997000	2.980700	-8.932200	28.898386	0.000221	20.734103
2217.549684	-3.020200	2.977100	-8.990600	28.942627	0.000220	20.744060
2218.548244	-3.022300	2.976500	-8.993900	28.965187	0.000221	20.753039
2219.547551	-3.005200	2.975400	-8.940600	29.016069	0.000221	20.743137
2220.547456	-3.001600	2.974300	-8.926900	29.054706	0.000220	20.739867
2221.546797	-3.010600	2.973200	-8.949900	29.079891	0.000221	20.736319
2222.550691	-2.989800	2.971800	-8.882600	29.080240	0.000221	20.746154
2223.547338	-2.994900	2.971000	-8.897100	29.090391	0.000218	20.741683
2224.551263	-3.016600	2.968900	-8.955200	29.057426	0.000221	20.744503
2225.547671	-3.015200	2.967200	-8.945700	29.012524	0.000218	20.732452
2226.548010	-3.018300	2.965700	-8.950600	28.997568	0.000219	20.732557
2227.549244	-3.010600	2.965200	-8.926300	28.968774	0.000220	20.722038
2228.550860	-2.987600	2.964000	-8.853800	28.907102	0.000219	20.724391
2229.548266	-2.980600	2.962100	-8.827500	28.891791	0.000219	20.718922
2230.548832	-2.969500	2.961400	-8.792700	28.866870	0.000220	20.731276
2231.549183	-2.978300	2.959800	-8.814200	28.867365	0.000221	20.709488
2232.550844	-2.995000	2.956400	-8.853200	28.931057	0.000219	20.740938
2233.552841	-2.977400	2.958000	-8.806300	28.992489	0.000218	20.759683
2234.550788	-3.027400	2.953500	-8.940500	29.036708	0.000218	20.730740
2235.551084	-2.995700	2.953500	-8.846900	29.044531	0.000218	20.737200
2236.552425	-2.997800	2.952200	-8.849000	29.044286	0.000218	20.696174
2237.552748	-2.999900	2.951000	-8.851700	29.017291	0.000217	20.732988
2238.556930	-2.980400	2.949600	-8.789700	29.061130	0.000219	20.731640
2239.553511	-3.006400	2.948200	-8.862300	29.066899	0.000218	20.748359
2240.558801	-2.988600	2.946600	-8.804000	29.083449	0.000215	20.727101
2241.557168	-3.007900	2.944400	-8.855800	29.088008	0.000214	20.742127
2242.554722	-3.001700	2.942000	-8.829900	29.087091	0.000216	20.735987
2243.559068	-3.003200	2.939600	-8.827500	29.075058	0.000215	20.721965
2244.556576	-2.985000	2.938600	-8.770600	29.052617	0.000215	20.726381
2245.558225	-3.000600	2.937100	-8.811400	29.026814	0.000217	20.724090
2246.558684	-3.010600	2.934900	-8.834300	28.970689	0.000216	20.738667
2247.558590	-2.996200	2.935200	-8.792900	28.985082	0.000216	20.715709
2248.559078	-2.980300	2.933500	-8.739300	28.999128	0.000218	20.736973
2249.565394	-2.984100	2.930100	-8.742600	28.993578	0.000215	20.732330
2250.559200	-3.012300	2.927900	-8.818600	29.013215	0.000218	20.723191
2251.559518	-3.008600	2.926100	-8.802200	29.002673	0.000215	20.723949
2252.559137	-3.019100	2.924800	-8.829200	29.006713	0.000217	20.703362
2253.563929	-2.997200	2.924400	-8.763900	28.974466	0.000216	20.733463
2254.562996	-3.017300	2.922200	-8.816700	28.918632	0.000216	20.697123
2255.560179	-3.024100	2.919300	-8.825900	28.890019	0.000216	20.725199
2256.562686	-3.013700	2.918900	-8.795600	28.869610	0.000216	20.731665
2257.562572	-3.017600	2.918800	-8.806700	28.884849	0.000216	20.737060
2258.562113	-3.010700	2.916200	-8.778600	28.891413	0.000214	20.723284
2259.563758	-3.023000	2.914400	-8.808800	28.915019	0.000215	20.739480
2260.563483	-3.014000	2.911700	-8.774500	28.894677	0.000216	20.716140
2261.566998	-2.988500	2.911600	-8.699900	28.906285	0.000215	20.747751
2262.565486	-2.978100	2.908700	-8.660900	28.919084	0.000214	20.741679
2263.564494	-2.978600	2.908300	-8.661200	28.969327	0.000212	20.730182
2264.565392	-2.997900	2.906500	-8.712500	28.994269	0.000214	20.722595
2265.566435	-2.994100	2.904200	-8.694500	29.011218	0.000214	20.722127
2266.566882	-3.013800	2.902300	-8.745600	29.004947	0.000215	20.723870
2267.567129	-2.993600	2.900000	-8.680700	29.041483	0.000214	20.723223
2268.567696	-3.010300	2.897900	-8.722100	28.984075	0.000216	20.733187
2269.566845	-3.017800	2.894900	-8.735000	28.954872	0.000214	20.727947
2270.572656	-3.019800	2.894900	-8.740200	28.937287	0.000214	20.725403
2271.567864	-3.040000	2.893100	-8.792600	28.980610	0.000215	20.732541
2272.570289	-2.993900	2.891900	-8.657500	28.960777	0.000213	20.717300
2273.567854	-3.000500	2.890000	-8.669700	28.920228	0.000211	20.741883
2274.575638	-3.013900	2.887100	-8.699900	28.899569	0.000213	20.732923
2275.568749	-3.028400	2.884500	-8.734200	28.938339	0.000214	20.756336
2276.574351	-3.010400	2.883400	-8.679500	28.977004	0.000213	20.735072
2277.570154	-2.970900	2.882900	-8.563900	29.040188	0.000215	20.740411
2278.569074	-3.019900	2.879600	-8.695700	29.088407	0.000213	20.742530
2279.569434	-2.981200	2.879200	-8.582000	29.104456	0.000214	20.727405
2280.571320	-3.006600	2.875600	-8.644800	29.152758	0.000214	20.735774
2281.574259	-3.005400	2.872400	-8.631700	29.217092	0.000213	20.745603
2282.572883	-3.024200	2.871800	-8.684200	29.255301	0.000212	20.754236
2283.577174	-2.985400	2.870000	-8.567600	29.285736	0.000213	20.763098
2284.574655	-2.994700	2.868100	-8.587600	29.344099	0.000214	20.738465
2285.575247	-3.016500	2.865000	-8.641100	29.392036	0.000214	20.726087
2286.578304	-3.014700	2.863800	-8.631000	29.402337	0.000214	20.726987
2287.573680	-2.990300	2.862200	-8.558400	29.366058	0.000213	20.741630
2288.574326	-3.005000	2.860200	-8.594200	29.322873	0.000213	20.751687
2289.574531	-3.031900	2.856700	-8.660200	29.282510	0.000212	20.749888
2290.575133	-3.023100	2.854600	-8.628600	29.249698	0.000212	20.726303
2291.575414	-3.017500	2.853100	-8.608100	29.242420	0.000213	20.738410
2292.576818	-3.002100	2.851000	-8.558200	29.306431	0.000214	20.744599
2293.575855	-2.996300	2.848900	-8.534700	29.351125	0.000213	20.732270
2294.576641	-3.008800	2.847000	-8.564400	29.368434	0.000214	20.742603
2295.576500	-3.015500	2.845500	-8.579300	29.300633	0.000214	20.739229
2296.577175	-2.983000	2.844600	-8.484500	29.188952	0.000215	20.734789
2297.578314	-3.000500	2.841500	-8.524200	29.137046	0.000212	20.752660
2298.578575	-2.993700	2.838800	-8.496400	29.071631	0.000212	20.736531
2299.577570	-2.993200	2.838300	-8.494000	29.042278	0.000213	20.759587
2300.583211	-2.994200	2.834500	-8.485000	29.049336	0.000214	20.751052
2301.578768	-2.985000	2.833900	-8.457400	29.077791	0.000210	20.746057
2302.582508	-3.069000	2.827700	-8.676000	29.116873	0.000213	20.750824
2303.581316	-2.985500	2.828100	-8.440800	29.167588	0.000212	20.754038
2304.579878	-2.982600	2.826400	-8.428800	29.246953	0.000213	20.742030
2305.579899	-3.008600	2.823700	-8.494500	29.272770	0.000212	20.743865
2306.580184	-3.013100	2.820400	-8.497200	29.305893	0.000211	20.751168
2307.579345	-3.007500	2.819500	-8.479000	29.315149	0.000212	20.741057
2308.581479	-2.962700	2.818200	-8.348200	29.312797	0.000211	20.754334
2309.580176	-3.004400	2.813500	-8.451600	29.343548	0.000211	20.754980
2310.584454	-3.006000	2.812400	-8.452700	29.377470	0.000213	20.751710
2311.580500	-3.008000	2.810200	-8.450800	29.357411	0.000213	20.745244
2312.581070	-3.019300	2.806600	-8.473300	29.297686	0.000211	20.743846
2313.583137	-3.018400	2.804200	-8.463400	29.261111	0.000213	20.749659
2314.580674	-2.990000	2.803700	-8.382100	29.227980	0.000213	20.757997
2315.583790	-2.988500	2.801200	-8.370400	29.203336	0.000212	20.744068
2316.581239	-2.989600	2.797500	-8.361500	29.163787	0.000213	20.769174
2317.581552	-2.982500	2.797600	-8.342500	29.110566	0.000212	20.762486
2318.589947	-2.992300	2.794000	-8.359700	29.081616	0.000213	20.760818
2319.582077	-3.014900	2.789000	-8.406900	29.072993	0.000213	20.761612
2320.582257	-3.012500	2.787200	-8.395700	29.065446	0.000213	20.772025
2321.582259	-3.017100	2.783700	-8.397600	29.007904	0.000212	20.745817
2322.586074	-2.972300	2.784500	-8.275000	28.970475	0.000212	20.764057
2323.585683	-2.995400	2.779100	-8.324000	28.934909	0.000212	20.763312
2324.585123	-3.004100	2.777100	-8.341600	28.929536	0.000212	20.760744
2325.583377	-2.989200	2.774100	-8.291400	28.961564	0.000212	20.745121
2326.582141	-3.017900	2.771500	-8.362500	29.057990	0.000210	20.745072
2327.582209	-3.010500	2.768300	-8.332600	29.134864	0.000211	20.774168
2328.583247	-3.017300	2.765800	-8.344500	29.216266	0.000211	20.765159
2329.584628	-3.012900	2.762800	-8.322700	29.288869	0.000211	20.758194
2330.584028	-3.013200	2.761000	-8.318300	29.350452	0.000210	20.746765
2331.586302	-3.006400	2.756600	-8.286500	29.402256	0.000210	20.775745
2332.584307	-3.005300	2.753600	-8.275000	29.460735	0.000211	20.766883
2333.584410	-3.005400	2.750700	-8.264800	29.531795	0.000210	20.755060
2334.589111	-2.999600	2.747300	-8.239500	29.572167	0.000209	20.754980
2335.585142	-3.025700	2.743200	-8.299000	29.634429	0.000210	20.775548
2336.584692	-2.985600	2.743400	-8.190200	29.582643	0.000211	20.766964
2337.585577	-2.990800	2.740200	-8.194300	29.541373	0.000211	20.782260
2338.585772	-2.970300	2.737100	-8.129200	29.521593	0.000211	20.784132
2339.586360	-2.979500	2.732700	-8.141100	29.463613	0.000212	20.778319
2340.589356	-2.978100	2.730000	-8.128500	29.427464	0.000208	20.763694
2341.585892	-3.007400	2.726100	-8.197600	29.385993	0.000210	20.774052
2342.585609	-2.987300	2.721800	-8.128600	29.366509	0.000210	20.758681
2343.585353	-2.975200	2.720100	-8.091000	29.373095	0.000211	20.773381
2344.586179	-2.972600	2.717000	-8.075500	29.386445	0.000209	20.776878
2345.587904	-2.988400	2.714200	-8.109600	29.417787	0.000208	20.779545
2346.586820	-3.029100	2.708100	-8.201800	29.469392	0.000210	20.780826
2347.587310	-2.986100	2.707000	-8.082400	29.472416	0.000210	20.767753
2348.587822	-3.004000	2.702900	-8.118500	29.422431	0.000210	20.770000
2349.589679	-3.013600	2.699000	-8.132700	29.395836	0.000211	20.756471
2350.590588	-3.024100	2.694700	-8.148100	29.338894	0.000210	20.782058
2351.590245	-2.971000	2.692100	-7.996500	29.376401	0.000207	20.792834
2352.589162	-3.009200	2.688200	-8.087200	29.363956	0.000209	20.763221
2353.589507	-2.978100	2.684400	-7.993800	29.348682	0.000209	20.789552
2354.590292	-2.991700	2.679200	-8.013800	29.345810	0.000211	20.772433
2355.591459	-3.005100	2.675600	-8.038300	29.338429	0.000209	20.780642
2356.592921	-3.009500	2.670500	-8.035100	29.355971	0.000209	20.785045
2357.592013	-2.993900	2.668100	-7.986300	29.302931	0.000212	20.757193
2358.591008	-3.019300	2.663600	-8.040300	29.318310	0.000210	20.786443
2359.591941	-3.018600	2.658900	-8.024900	29.359595	0.000211	20.791542
2360.591158	-3.012700	2.654800	-7.997000	29.381058	0.000210	20.773819
2361.595144	-3.050200	2.650200	-8.081400	29.403847	0.000211	20.787306
2362.591222	-3.002900	2.645500	-7.943300	29.407708	0.000211	20.786930
2363.594786	-3.005900	2.643000	-7.943500	29.415834	0.000210	20.763826
2364.595838	-2.996300	2.639700	-7.906900	29.474678	0.000211	20.799905
2365.593314	-3.022200	2.633700	-7.957800	29.515163	0.000211	20.790927
2366.593742	-3.008800	2.628500	-7.907700	29.540221	0.000210	20.800539
2367.596673	-3.006800	2.625500	-7.892600	29.609315	0.000212	20.794800
2368.593331	-3.007000	2.619800	-7.876200	29.644126	0.000211	20.766831
2369.593760	-3.009400	2.614200	-7.865700	29.703904	0.000211	20.794856
2370.592742	-3.007100	2.609700	-7.846500	29.738730	0.000210	20.782553
2371.593169	-2.975700	2.605200	-7.751500	29.771925	0.000211	20.793735
2372.596251	-3.005000	2.600600	-7.814100	29.816923	0.000210	20.779837
2373.594219	-2.980800	2.596600	-7.738700	29.810828	0.000212	20.797873
2374.597558	-2.984900	2.589600	-7.729300	29.846071	0.000211	20.781253
2375.595598	-2.990800	2.583400	-7.725500	29.892178	0.000210	20.779381
2376.596161	-3.007400	2.578100	-7.751900	29.919847	0.000209	20.803015
2377.597647	-2.990500	2.573000	-7.693600	29.945439	0.000211	20.781407
2378.596277	-2.989700	2.567500	-7.675300	29.979561	0.000210	20.794954
2379.596373	-2.989700	2.561600	-7.656600	29.940536	0.000210	20.795903
2380.596506	-2.996100	2.556100	-7.656700	29.929275	0.000210	20.790237
2381.601340	-3.009400	2.548700	-7.668400	29.855849	0.000210	20.782577
2382.597031	-2.947200	2.546000	-7.502600	29.866786	0.000212	20.804985
2383.597233	-3.015900	2.538700	-7.655500	29.850084	0.000211	20.800946
2384.596379	-2.979500	2.532500	-7.545200	29.839537	0.000212	20.794579
2385.596562	-3.014900	2.525400	-7.612500	29.842083	0.000211	20.792405
2386.597620	-3.014500	2.518200	-7.589700	29.893533	0.000212	20.796869
2387.596528	-3.007300	2.513100	-7.556500	29.886609	0.000212	20.804111
2388.599211	-3.024700	2.505800	-7.578400	29.842108	0.000211	20.809973
2389.597238	-3.013600	2.500400	-7.533800	29.876404	0.000211	20.788131
2390.599362	-3.013200	2.493200	-7.511800	29.845870	0.000211	20.794326
