LabVIEW Measurement	
Writer_Version	2
Reader_Version	2
Separator	Tab
Decimal_Separator	.
Multi_Headings	No
X_Columns	One
Time_Pref	Absolute
Operator	admin
Description	Clolumns are: time, Current, Voltage, Power, Battery Temp, and Chamber Temp
Date	2024/08/16
Time	13:06:06.104549407958984375
***End_of_Header***	
	
Channels	6						
Samples	1	1	1	1	1	1	
Date	2024/09/07	2024/09/07	2024/09/07	2024/09/07	2024/09/07	2024/09/07	
Time	17:44:19.4633512496948242188	17:44:19.4696278572082519531	17:44:19.4766302108764648438	17:44:19.4441714286804199219	17:44:19.4441714286804199219	17:44:19.4441714286804199219	
X_Dimension	Time	Time	Time	Time	Time	Time	
X0	0.0000000000000000E+0	0.0000000000000000E+0	0.0000000000000000E+0	0.0000000000000000E+0	0.0000000000000000E+0	0.0000000000000000E+0	
Delta_X	1.000000	1.000000	1.000000	1.000000	1.000000	1.000000	
***End_of_Header***							
X_Value	Untitled	Untitled 1	Untitled 2	Untitled 3	Untitled 4	Untitled 5	Comment
0.000000	3.400000E+38	4.096900	0.177550	20.941592	0.000913	20.746722
0.999537	-3.008300	3.925700	-11.809000	20.921402	0.000911	20.740755
1.998581	-3.013900	3.918500	-11.808000	20.913602	0.000912	20.744334
2.999686	-3.006300	3.912400	-11.761000	20.943088	0.000912	20.745848
3.998875	-2.991000	3.908000	-11.688000	20.930497	0.000909	20.751274
4.998932	-2.999500	3.906200	-11.715000	20.911589	0.000909	20.735208
6.000218	-3.009400	3.902800	-11.745000	20.946507	0.000907	20.753061
6.998601	-2.996400	3.900700	-11.687000	20.934950	0.000905	20.751460
7.998524	-2.996800	3.898700	-11.683000	20.932832	0.000906	20.750290
9.000370	-3.000800	3.895000	-11.687000	20.960902	0.000905	20.737586
10.011166	-2.997100	3.895500	-11.674000	20.951827	0.000906	20.750796
10.999638	-3.005900	3.892200	-11.697000	20.962805	0.000902	20.758930
12.000503	-3.014600	3.890900	-11.729000	20.968002	0.000904	20.736626
12.998715	-3.008700	3.889500	-11.701000	20.960280	0.000901	20.763992
13.999202	-3.009900	3.888000	-11.702000	20.956754	0.000901	20.733437
15.002250	-2.992400	3.887200	-11.631000	20.979405	0.000899	20.718158
16.001793	-3.012900	3.886600	-11.709000	20.974850	0.000901	20.739208
16.997795	-3.011700	3.885100	-11.699000	20.982028	0.000900	20.751603
18.003200	-2.995100	3.885300	-11.636000	20.974443	0.000901	20.757293
18.999227	-3.012500	3.883200	-11.697000	20.983506	0.000900	20.724631
19.999288	-2.975200	3.884700	-11.557000	20.989799	0.000899	20.729977
21.004258	-3.003900	3.881900	-11.659000	20.998961	0.000897	20.732028
22.001881	-2.998900	3.881400	-11.639000	20.986413	0.000899	20.723271
22.999479	-3.009500	3.881500	-11.679000	20.990329	0.000899	20.722920
24.000222	-3.013800	3.879700	-11.692000	21.026660	0.000898	20.735077
25.000650	-3.000000	3.879000	-11.635000	21.022917	0.000897	20.748403
25.999801	-3.004100	3.878800	-11.651000	21.023422	0.000896	20.737054
27.262229	-2.985200	3.878000	-11.576000	21.029216	0.000895	20.729098
28.004231	-3.003700	3.877300	-11.645000	21.027892	0.000895	20.723980
29.020229	-3.001500	3.876600	-11.634000	21.038026	0.000896	20.755929
30.014228	-2.999300	3.875200	-11.622000	21.051423	0.000892	20.749414
31.009232	-2.966100	3.876100	-11.496000	21.071456	0.000894	20.706861
32.010230	-3.009700	3.873700	-11.658000	21.056391	0.000894	20.731623
33.005229	-3.030200	3.872400	-11.733000	21.073464	0.000893	20.741588
34.018921	-2.977400	3.873200	-11.531000	21.065356	0.000894	20.741539
35.003207	-3.015500	3.872700	-11.675000	21.074794	0.000895	20.733435
36.005901	-3.007900	3.870800	-11.642000	21.073895	0.000893	20.713095
37.004363	-2.999600	3.871500	-11.611000	21.084300	0.000893	20.740573
38.005527	-3.003300	3.870200	-11.622000	21.076315	0.000894	20.726895
39.020250	-2.995300	3.871300	-11.595000	21.101322	0.000894	20.717295
40.015707	-3.025000	3.868900	-11.702000	21.105434	0.000893	20.732789
41.012020	-2.990000	3.869300	-11.569000	21.111400	0.000894	20.701770
42.012164	-2.984100	3.869800	-11.546000	21.101779	0.000890	20.725339
43.011782	-2.978200	3.871000	-11.528000	21.090525	0.000890	20.735419
44.012025	-2.999700	3.867600	-11.600000	21.128478	0.000891	20.722648
45.016757	-2.990100	3.868200	-11.565000	21.118794	0.000891	20.726712
46.015015	-3.002200	3.867900	-11.611000	21.134240	0.000888	20.717506
47.014674	-2.998700	3.866500	-11.594000	21.122095	0.000891	20.726694
48.017088	-3.003300	3.866000	-11.610000	21.133169	0.000890	20.713115
49.013418	-2.982600	3.867200	-11.533000	21.161463	0.000888	20.727667
50.014329	-2.997700	3.865500	-11.586000	21.157892	0.000891	20.725518
51.017751	-2.976100	3.868000	-11.510000	21.140908	0.000889	20.729392
52.013862	-3.002800	3.865300	-11.605000	21.175584	0.000889	20.720456
53.014080	-3.010400	3.864700	-11.632000	21.192753	0.000889	20.710603
54.017837	-2.997000	3.865800	-11.585000	21.201506	0.000887	20.708928
55.014399	-3.011600	3.864500	-11.637000	21.202208	0.000887	20.712950
56.014880	-2.996400	3.863900	-11.576000	21.195597	0.000886	20.713448
57.017414	-3.008400	3.863100	-11.621000	21.215905	0.000888	20.724755
58.016014	-2.997500	3.863400	-11.580000	21.229373	0.000887	20.700294
59.014338	-3.014100	3.861900	-11.640000	21.235387	0.000889	20.712476
60.018693	-2.988000	3.863000	-11.542000	21.239955	0.000889	20.717045
61.013841	-3.015300	3.861800	-11.642000	21.248732	0.000890	20.706859
62.015023	-3.008600	3.863100	-11.621000	21.248837	0.000887	20.719767
63.019188	-3.004800	3.862700	-11.606000	21.257190	0.000888	20.715795
64.015141	-2.989800	3.862200	-11.546000	21.284261	0.000887	20.708738
65.015946	-3.018500	3.860100	-11.651000	21.271138	0.000887	20.722637
66.015304	-3.023800	3.860300	-11.672000	21.292399	0.000888	20.710241
67.021332	-3.007000	3.861200	-11.608000	21.298382	0.000889	20.706743
68.018361	-3.004900	3.860600	-11.600000	21.325551	0.000888	20.712588
69.018460	-3.011700	3.859700	-11.623000	21.323532	0.000890	20.710568
70.020776	-2.987700	3.861800	-11.536000	21.298210	0.000886	20.696138
71.020326	-3.005900	3.859900	-11.602000	21.306021	0.000889	20.706799
72.018862	-3.005400	3.858500	-11.595000	21.327952	0.000886	20.714516
73.022662	-3.016300	3.859000	-11.639000	21.320566	0.000888	20.703332
74.020503	-3.010600	3.859600	-11.618000	21.327503	0.000888	20.705531
75.019150	-2.985600	3.859800	-11.523000	21.335289	0.000890	20.682025
76.021204	-2.995600	3.857200	-11.553000	21.338385	0.000887	20.712152
77.018883	-2.981600	3.859300	-11.506000	21.393336	0.000888	20.718292
78.018660	-2.977600	3.859100	-11.490000	21.371535	0.000890	20.715921
79.020674	-3.000900	3.857300	-11.574000	21.364335	0.000888	20.675997
80.021298	-3.003100	3.856900	-11.580000	21.389077	0.000889	20.686528
81.020186	-2.990900	3.857700	-11.536000	21.396544	0.000888	20.698741
82.022269	-2.994900	3.856200	-11.548000	21.390808	0.000888	20.687785
83.021737	-2.988300	3.857700	-11.527000	21.418048	0.000890	20.685168
84.020359	-2.996600	3.856100	-11.554000	21.386802	0.000887	20.683777
85.020527	-3.013500	3.853900	-11.612000	21.400373	0.000889	20.685027
86.020076	-2.994100	3.856800	-11.546000	21.381824	0.000889	20.690176
87.021690	-3.029200	3.853900	-11.672000	21.425848	0.000889	20.683963
88.021407	-3.025700	3.854900	-11.663000	21.417651	0.000888	20.698048
89.021336	-2.996300	3.854400	-11.547000	21.407366	0.000889	20.696766
90.025241	-3.010500	3.853900	-11.602000	21.433395	0.000890	20.687247
91.025115	-2.985000	3.854600	-11.503000	21.448486	0.000889	20.682431
92.024874	-3.008900	3.853900	-11.595000	21.463608	0.000891	20.692347
93.025922	-2.990400	3.854300	-11.524000	21.449040	0.000892	20.697686
94.023005	-2.995200	3.854100	-11.543000	21.464457	0.000889	20.676126
95.023343	-3.017600	3.853500	-11.627000	21.479326	0.000890	20.683418
96.027466	-3.017800	3.852900	-11.626000	21.475862	0.000890	20.681847
97.022420	-3.017500	3.852600	-11.623000	21.496491	0.000891	20.671668
98.025405	-3.007300	3.852700	-11.584000	21.519685	0.000890	20.671643
99.026720	-3.025700	3.850400	-11.649000	21.487624	0.000890	20.674176
100.026967	-2.993900	3.850900	-11.528000	21.510966	0.000890	20.666237
101.025898	-3.006100	3.852500	-11.580000	21.516782	0.000892	20.694819
102.026044	-3.008400	3.850700	-11.584000	21.507958	0.000889	20.703534
103.031118	-2.970500	3.852600	-11.443000	21.547196	0.000890	20.681155
104.026574	-3.004200	3.852400	-11.572000	21.525799	0.000891	20.673968
105.027956	-3.009600	3.851200	-11.590000	21.545301	0.000890	20.676887
106.026615	-3.011800	3.851300	-11.598000	21.576631	0.000891	20.695437
107.025949	-3.007000	3.850000	-11.576000	21.564016	0.000889	20.682813
108.025118	-3.003600	3.849800	-11.562000	21.571204	0.000890	20.675306
109.029389	-3.009700	3.850600	-11.588000	21.575591	0.000890	20.675429
110.028686	-2.995700	3.850600	-11.533000	21.567691	0.000893	20.676532
111.027667	-3.014100	3.848100	-11.597000	21.594127	0.000891	20.682598
112.028573	-2.992500	3.848700	-11.516000	21.592232	0.000892	20.658888
113.027234	-2.990900	3.850500	-11.515000	21.589599	0.000892	20.659573
114.028910	-2.990500	3.850200	-11.512000	21.610398	0.000892	20.683708
115.030062	-3.000400	3.848500	-11.545000	21.612651	0.000893	20.694025
116.027620	-3.001100	3.848800	-11.550000	21.625259	0.000893	20.681984
117.025367	-3.010000	3.848400	-11.583000	21.634717	0.000894	20.664420
118.032827	-3.013400	3.848200	-11.595000	21.609777	0.000895	20.684509
119.035999	-3.021700	3.846800	-11.622000	21.630060	0.000894	20.704808
120.028304	-3.014200	3.846400	-11.592000	21.649240	0.000892	20.676110
121.030834	-3.012700	3.848000	-11.591000	21.634054	0.000894	20.680353
122.031070	-2.994200	3.847000	-11.518000	21.653610	0.000895	20.666257
123.032194	-2.997600	3.847700	-11.532000	21.660839	0.000894	20.662587
124.035659	-2.979900	3.849000	-11.468000	21.647868	0.000896	20.670469
125.031101	-3.031600	3.845900	-11.658000	21.665725	0.000897	20.671270
126.033385	-2.993300	3.846800	-11.513000	21.636626	0.000894	20.691464
127.033600	-3.012100	3.846300	-11.584000	21.627820	0.000896	20.682651
128.032341	-3.007600	3.845900	-11.566000	21.655880	0.000897	20.668530
129.030362	-2.994400	3.846600	-11.517000	21.662864	0.000896	20.678839
130.033605	-2.994300	3.846400	-11.517000	21.689200	0.000896	20.681014
131.042302	-3.011200	3.845500	-11.579000	21.663215	0.000898	20.682036
132.032999	-2.976000	3.845700	-11.443000	21.687502	0.000897	20.672675
133.032313	-3.003400	3.844500	-11.545000	21.691022	0.000897	20.682837
134.035892	-3.002000	3.845100	-11.542000	21.710071	0.000899	20.671080
135.034746	-3.010900	3.845200	-11.577000	21.718975	0.000899	20.689001
136.034334	-2.987400	3.845500	-11.488000	21.738628	0.000900	20.682117
137.033183	-2.998600	3.843200	-11.522000	21.725183	0.000900	20.681463
138.036563	-3.033500	3.842500	-11.655000	21.732763	0.000899	20.675773
139.034673	-2.998700	3.844200	-11.527000	21.756329	0.000898	20.684660
140.033667	-3.014500	3.844300	-11.586000	21.791288	0.000902	20.685510
141.036578	-3.000100	3.845400	-11.535000	21.772910	0.000901	20.682763
142.043539	-2.990700	3.843500	-11.494000	21.808848	0.000900	20.675109
143.036521	-3.005500	3.843300	-11.550000	21.818267	0.000901	20.685011
144.037013	-3.013200	3.842400	-11.577000	21.796857	0.000903	20.674013
145.036523	-2.961600	3.844000	-11.381000	21.814526	0.000899	20.662298
146.034936	-2.998200	3.843700	-11.523000	21.810768	0.000902	20.689360
147.035088	-3.001300	3.842300	-11.531000	21.827840	0.000902	20.679893
148.036726	-2.994700	3.840800	-11.500000	21.834103	0.000902	20.681421
149.045109	-3.000000	3.841600	-11.523000	21.845227	0.000904	20.678804
150.036869	-2.996500	3.840900	-11.508000	21.839118	0.000904	20.690234
151.039009	-2.985100	3.841000	-11.465000	21.858393	0.000903	20.691509
152.038475	-2.993900	3.840000	-11.495000	21.862004	0.000905	20.684217
153.035699	-2.986400	3.842400	-11.474000	21.870008	0.000905	20.700291
154.042255	-3.003900	3.840500	-11.536000	21.865923	0.000905	20.698099
155.037199	-3.003300	3.839600	-11.531000	21.893342	0.000905	20.711794
156.039791	-3.002200	3.839500	-11.526000	21.881752	0.000905	20.702089
157.043512	-3.015700	3.838500	-11.575000	21.925480	0.000905	20.686114
158.040843	-2.987600	3.839700	-11.471000	21.935599	0.000905	20.679647
159.040376	-3.020600	3.838800	-11.594000	21.938024	0.000906	20.689187
160.040884	-3.005500	3.839500	-11.539000	21.950111	0.000907	20.674733
161.040859	-3.006700	3.837000	-11.536000	21.946747	0.000908	20.689858
162.041124	-2.996700	3.839400	-11.505000	21.944385	0.000909	20.695556
163.046686	-3.007800	3.838500	-11.545000	21.965995	0.000911	20.684470
164.045648	-3.004800	3.838100	-11.531000	21.975321	0.000908	20.680055
165.042585	-2.999400	3.837900	-11.510000	21.950101	0.000908	20.678516
166.042749	-2.990300	3.839100	-11.478000	21.970314	0.000911	20.687846
167.046915	-3.006600	3.838300	-11.539000	21.967750	0.000909	20.708039
168.042069	-3.006700	3.836600	-11.535000	21.993678	0.000912	20.704597
169.047561	-3.002200	3.836300	-11.516000	22.002720	0.000909	20.694207
170.054330	-2.994200	3.836800	-11.487000	22.011425	0.000911	20.706241
171.045655	-2.982900	3.838600	-11.448000	21.995763	0.000910	20.681551
172.046600	-2.989400	3.837000	-11.469000	22.019249	0.000914	20.693209
173.048656	-3.023500	3.833400	-11.588000	22.050313	0.000913	20.699651
174.046208	-2.983700	3.836700	-11.446000	22.038170	0.000913	20.685123
175.056566	-2.969600	3.836800	-11.392000	22.029848	0.000911	20.691966
176.052565	-2.991000	3.836400	-11.473000	22.040538	0.000913	20.699349
177.045174	-2.996900	3.835500	-11.494000	22.062473	0.000913	20.705661
178.049355	-3.000300	3.835300	-11.506000	22.075791	0.000915	20.695759
179.051490	-3.002700	3.835200	-11.515000	22.076517	0.000914	20.686528
180.050575	-3.001500	3.834000	-11.507000	22.067813	0.000914	20.707214
181.052414	-2.994200	3.835000	-11.481000	22.091869	0.000917	20.709961
182.051197	-3.003000	3.832800	-11.508000	22.128467	0.000916	20.701081
183.046297	-2.981500	3.835200	-11.434000	22.120335	0.000915	20.697207
184.050226	-3.006600	3.833200	-11.523000	22.111239	0.000916	20.704695
185.050808	-3.003300	3.833100	-11.511000	22.123012	0.000917	20.692774
186.048382	-3.007200	3.833800	-11.528000	22.140837	0.000918	20.706827
187.052721	-3.020100	3.832200	-11.572000	22.141539	0.000917	20.710849
188.049634	-3.003100	3.833100	-11.510000	22.132558	0.000917	20.701857
189.048846	-3.002000	3.832900	-11.505000	22.164671	0.000917	20.698921
190.053866	-3.014100	3.832400	-11.549000	22.175213	0.000917	20.739349
191.050568	-3.006300	3.831800	-11.519000	22.177581	0.000919	20.703785
192.052211	-3.002800	3.830100	-11.501000	22.189813	0.000919	20.701334
193.053259	-3.028100	3.830700	-11.599000	22.203659	0.000920	20.703343
194.053537	-2.997100	3.831000	-11.481000	22.199046	0.000920	20.709156
195.051743	-2.990200	3.831700	-11.455000	22.197029	0.000920	20.713301
196.058534	-3.002800	3.830600	-11.500000	22.211808	0.000919	20.700596
197.054708	-2.991600	3.830800	-11.459000	22.209096	0.000921	20.713529
198.052778	-3.005000	3.830200	-11.508000	22.209668	0.000922	20.710782
199.058224	-2.996000	3.831100	-11.477000	22.207732	0.000923	20.714059
200.063331	-3.015600	3.828900	-11.545000	22.230333	0.000923	20.709662
201.056829	-3.019500	3.829000	-11.561000	22.226447	0.000923	20.701976
202.057909	-2.990600	3.830700	-11.456000	22.224429	0.000923	20.719873
203.060081	-2.993800	3.828400	-11.461000	22.241004	0.000926	20.708966
204.054830	-3.003600	3.829100	-11.500000	22.242253	0.000923	20.719226
205.058529	-2.992000	3.829900	-11.458000	22.244621	0.000926	20.716855
206.061142	-3.000300	3.829100	-11.487000	22.263612	0.000924	20.703153
207.054351	-3.013500	3.828500	-11.536000	22.261041	0.000927	20.721443
208.058038	-3.001700	3.829500	-11.493000	22.286791	0.000927	20.736796
209.060425	-2.992300	3.828200	-11.454000	22.287043	0.000926	20.723297
210.055089	-2.999100	3.827900	-11.480000	22.297314	0.000928	20.717460
211.058806	-3.000700	3.827500	-11.483000	22.304171	0.000927	20.722430
212.062528	-2.997600	3.826600	-11.469000	22.300530	0.000931	20.726371
213.059231	-2.997200	3.827600	-11.471000	22.284609	0.000930	20.699995
214.062079	-3.007600	3.827300	-11.509000	22.314761	0.000932	20.724499
215.065985	-2.983300	3.826700	-11.415000	22.311078	0.000931	20.717965
216.061682	-3.019300	3.825300	-11.548000	22.293010	0.000932	20.721211
217.062868	-3.000100	3.826800	-11.480000	22.284837	0.000930	20.730097
218.064689	-2.994200	3.825600	-11.454000	22.301460	0.000933	20.726827
219.061799	-3.017700	3.825500	-11.543000	22.321552	0.000933	20.736989
220.062498	-3.015600	3.825400	-11.535000	22.323046	0.000934	20.724734
221.065472	-2.967200	3.825100	-11.348000	22.305525	0.000934	20.716673
222.063421	-3.011200	3.825300	-11.515000	22.322499	0.000933	20.749317
223.066155	-3.000000	3.823900	-11.471000	22.299997	0.000936	20.740062
224.066609	-3.001900	3.825800	-11.483000	22.339152	0.000933	20.733750
225.065641	-3.011800	3.825100	-11.520000	22.326122	0.000936	20.727340
226.061988	-3.017400	3.823100	-11.535000	22.341969	0.000937	20.727087
227.064865	-2.986800	3.825400	-11.423000	22.379874	0.000935	20.717628
228.066800	-2.990300	3.824000	-11.433000	22.381042	0.000938	20.728281
229.066287	-2.992800	3.823900	-11.443000	22.392020	0.000938	20.707031
230.068137	-3.009500	3.822200	-11.501000	22.366371	0.000939	20.742040
231.070944	-2.997300	3.823500	-11.460000	22.396005	0.000940	20.728092
232.066054	-3.013800	3.822300	-11.518000	22.375946	0.000938	20.719858
233.070247	-2.998400	3.823500	-11.463000	22.387334	0.000940	20.743118
234.071688	-3.000000	3.821500	-11.463000	22.391522	0.000939	20.713645
235.068146	-2.996400	3.823100	-11.453000	22.383946	0.000943	20.749683
236.067762	-2.994500	3.823000	-11.446000	22.369464	0.000942	20.741344
237.065866	-2.988800	3.822400	-11.423000	22.366574	0.000942	20.744140
238.072598	-2.999400	3.822600	-11.464000	22.373406	0.000942	20.738179
239.069710	-2.993200	3.821700	-11.438000	22.381610	0.000942	20.743076
240.069258	-2.997900	3.821100	-11.454000	22.373087	0.000943	20.727902
241.072682	-3.016300	3.820300	-11.522000	22.383725	0.000944	20.739029
242.070509	-2.997200	3.820700	-11.450000	22.418143	0.000946	20.742201
243.068907	-2.996700	3.820800	-11.448000	22.423246	0.000945	20.740199
244.069833	-2.996600	3.821000	-11.449000	22.435237	0.000944	20.743673
245.072742	-3.021600	3.819500	-11.540000	22.455123	0.000944	20.731344
246.070134	-2.999200	3.820900	-11.458000	22.472322	0.000946	20.749517
247.072516	-3.007500	3.819700	-11.487000	22.468282	0.000947	20.737884
248.072778	-3.015200	3.819400	-11.514000	22.491776	0.000946	20.743395
249.074551	-3.013500	3.818800	-11.506000	22.523276	0.000946	20.741277
250.073162	-3.015800	3.817700	-11.511000	22.522076	0.000948	20.756198
251.074843	-3.025400	3.817700	-11.549000	22.566652	0.000945	20.753901
252.075639	-3.025200	3.817400	-11.548000	22.559404	0.000947	20.745692
253.074710	-2.994800	3.818200	-11.432000	22.561974	0.000949	20.719816
254.075585	-2.979100	3.819000	-11.376000	22.550114	0.000950	20.737336
255.072220	-2.993900	3.817300	-11.428000	22.550889	0.000950	20.732423
256.076834	-2.984900	3.818600	-11.398000	22.552874	0.000948	20.738678
257.075289	-2.977500	3.817800	-11.366000	22.570324	0.000949	20.751414
258.077042	-2.993900	3.818700	-11.432000	22.576251	0.000952	20.730322
259.073059	-2.994400	3.816400	-11.426000	22.561427	0.000952	20.741555
260.078653	-3.016700	3.816700	-11.513000	22.567108	0.000951	20.756728
261.076657	-2.994700	3.816200	-11.427000	22.559485	0.000953	20.735341
262.075412	-2.998800	3.816000	-11.441000	22.584902	0.000951	20.766963
263.075615	-2.999200	3.817000	-11.447000	22.581213	0.000952	20.755682
264.074538	-2.974500	3.816000	-11.349000	22.593097	0.000953	20.726806
265.075220	-3.005000	3.814900	-11.463000	22.595594	0.000955	20.762499
266.077241	-3.002000	3.816200	-11.455000	22.596116	0.000954	20.749746
267.076395	-3.016600	3.814800	-11.505000	22.583040	0.000954	20.750873
268.076586	-2.994200	3.816200	-11.424000	22.617753	0.000955	20.768572
269.079816	-3.001400	3.813700	-11.445000	22.615712	0.000955	20.758941
270.084872	-3.000100	3.813600	-11.440000	22.621245	0.000957	20.776812
271.079666	-2.999200	3.813100	-11.435000	22.642204	0.000956	20.775519
272.083365	-3.001600	3.813800	-11.446000	22.633315	0.000958	20.754287
273.091346	-2.989300	3.814300	-11.401000	22.651476	0.000958	20.768210
274.078080	-3.001300	3.812400	-11.441000	22.651157	0.000958	20.762201
275.079217	-3.004900	3.812300	-11.455000	22.690952	0.000962	20.764129
276.078350	-2.974400	3.813400	-11.341000	22.685671	0.000959	20.756943
277.082526	-3.006000	3.812400	-11.458000	22.690486	0.000959	20.759869
278.081590	-2.998900	3.812300	-11.431000	22.719214	0.000961	20.755453
279.078493	-2.994200	3.813600	-11.417000	22.717050	0.000961	20.765141
280.081277	-2.992200	3.812700	-11.408000	22.723228	0.000961	20.751414
281.084310	-2.984900	3.812600	-11.378000	22.718028	0.000961	20.775130
282.082260	-2.998400	3.811100	-11.427000	22.724761	0.000962	20.757691
283.082615	-3.007900	3.812100	-11.465000	22.746689	0.000962	20.766855
284.080603	-3.006900	3.810800	-11.456000	22.733239	0.000964	20.774719
285.081105	-2.998400	3.811600	-11.426000	22.745073	0.000964	20.757175
286.080759	-2.979700	3.811600	-11.355000	22.717871	0.000965	20.786826
287.079870	-3.000300	3.810500	-11.432000	22.739529	0.000964	20.753518
288.080775	-2.994300	3.809300	-11.404000	22.732429	0.000965	20.756838
289.083993	-3.014800	3.809200	-11.483000	22.720129	0.000966	20.779605
290.083583	-2.982200	3.811100	-11.364000	22.730396	0.000967	20.762861
291.083130	-3.010000	3.807800	-11.460000	22.733464	0.000967	20.764986
292.084470	-3.013100	3.809300	-11.476000	22.763414	0.000966	20.767487
293.083685	-3.006100	3.807900	-11.446000	22.774676	0.000967	20.778295
294.083323	-3.014300	3.807200	-11.474000	22.794728	0.000968	20.788424
295.084690	-3.005500	3.808700	-11.446000	22.795566	0.000969	20.771246
296.085764	-2.979800	3.808400	-11.348000	22.811080	0.000969	20.778253
297.084876	-2.998400	3.808500	-11.417000	22.814309	0.000969	20.777694
298.086066	-2.997300	3.808400	-11.413000	22.807241	0.000970	20.779148
299.085922	-2.975000	3.808300	-11.328000	22.804370	0.000971	20.765840
300.084968	-2.991700	3.808800	-11.392000	22.822731	0.000971	20.775225
301.088361	-3.017400	3.806700	-11.485000	22.833501	0.000970	20.752823
302.084657	-3.021800	3.806200	-11.499000	22.820101	0.000973	20.788238
303.087192	-2.986400	3.807100	-11.368000	22.828516	0.000971	20.797616
304.087172	-2.977900	3.806700	-11.335000	22.840534	0.000973	20.791638
305.091534	-2.998000	3.805400	-11.406000	22.838494	0.000973	20.790068
306.087411	-3.007500	3.804800	-11.442000	22.818885	0.000974	20.786071
307.088253	-3.020900	3.804200	-11.491000	22.806775	0.000974	20.787690
308.088474	-3.011800	3.804700	-11.459000	22.798311	0.000975	20.797230
309.090378	-3.009600	3.804600	-11.450000	22.826465	0.000973	20.785604
310.090045	-3.005400	3.803700	-11.431000	22.820336	0.000976	20.786103
311.089840	-3.000400	3.804500	-11.414000	22.838648	0.000976	20.797809
312.089503	-2.991400	3.804700	-11.381000	22.843504	0.000979	20.781811
313.094400	-3.007900	3.803900	-11.441000	22.870531	0.000978	20.791817
314.090786	-2.982500	3.804500	-11.346000	22.859540	0.000978	20.783651
315.089813	-2.990300	3.803800	-11.373000	22.879801	0.000978	20.795888
316.090374	-3.000100	3.802900	-11.408000	22.899580	0.000979	20.773030
317.090778	-3.008500	3.802800	-11.441000	22.900331	0.000978	20.810766
318.090462	-2.974300	3.805100	-11.316000	22.925691	0.000977	20.793500
319.090169	-2.972600	3.804100	-11.306000	22.939367	0.000982	20.786813
320.090651	-3.005700	3.801100	-11.424000	22.934561	0.000982	20.778204
321.090829	-3.022600	3.799600	-11.483000	22.948212	0.000982	20.768647
322.090421	-3.009800	3.800900	-11.438000	22.954936	0.000982	20.787712
323.091404	-2.999000	3.800400	-11.396000	22.945193	0.000981	20.772735
324.091179	-3.000200	3.800600	-11.401000	22.935311	0.000982	20.808827
325.092360	-3.003300	3.801000	-11.415000	22.944794	0.000982	20.800310
326.090239	-2.995000	3.801200	-11.383000	22.964555	0.000980	20.782176
327.090755	-3.018900	3.800200	-11.472000	22.990633	0.000981	20.791709
328.091149	-3.020800	3.800600	-11.480000	23.010158	0.000984	20.776659
329.093956	-3.000500	3.799700	-11.401000	23.001615	0.000985	20.810773
330.092165	-3.012700	3.799800	-11.447000	22.995936	0.000985	20.800342
331.099442	-3.025900	3.797700	-11.490000	23.009986	0.000985	20.821531
332.091162	-3.001400	3.799900	-11.403000	23.033697	0.000985	20.787441
333.093587	-2.999600	3.800200	-11.399000	23.031772	0.000986	20.804479
334.096494	-2.988400	3.800700	-11.357000	23.007147	0.000987	20.804936
335.093909	-2.995000	3.797600	-11.372000	23.011676	0.000985	20.793352
336.094025	-3.019800	3.797400	-11.466000	23.009057	0.000987	20.813488
337.095112	-3.011600	3.796300	-11.432000	23.022511	0.000986	20.815588
338.096544	-3.005700	3.797300	-11.413000	22.987860	0.000987	20.812638
339.096240	-2.975200	3.799100	-11.301000	23.008886	0.000988	20.808100
340.098253	-3.030300	3.795800	-11.502000	23.001307	0.000989	20.806197
341.097770	-3.014400	3.797300	-11.445000	22.999372	0.000989	20.812793
342.097598	-2.997400	3.796400	-11.378000	23.008356	0.000990	20.803303
343.096181	-3.009900	3.795100	-11.422000	23.051353	0.000989	20.809874
344.097698	-3.002200	3.796800	-11.397000	23.049208	0.000989	20.820526
345.098989	-2.974000	3.798500	-11.295000	23.070404	0.000991	20.824695
346.098985	-2.994100	3.796400	-11.365000	23.088908	0.000992	20.835176
347.100755	-2.992300	3.795600	-11.356000	23.113066	0.000990	20.818605
348.099966	-2.999700	3.794500	-11.382000	23.129571	0.000990	20.828980
349.102660	-3.010400	3.794600	-11.422000	23.129382	0.000992	20.824997
350.101159	-3.000200	3.795200	-11.385000	23.134636	0.000993	20.819357
351.100449	-3.000500	3.794300	-11.384000	23.128478	0.000993	20.834048
352.102908	-3.002400	3.794300	-11.391000	23.122880	0.000991	20.829862
353.102828	-3.031100	3.793700	-11.498000	23.133160	0.000994	20.814559
354.107831	-3.013300	3.793000	-11.428000	23.137027	0.000993	20.824597
355.103560	-3.010700	3.793400	-11.419000	23.129603	0.000996	20.838495
356.104390	-2.987800	3.793600	-11.334000	23.148611	0.000993	20.827670
357.103880	-2.990900	3.793400	-11.344000	23.159150	0.000995	20.838231
358.102583	-2.976400	3.793700	-11.290000	23.144475	0.000995	20.837276
359.102814	-3.003300	3.793000	-11.390000	23.134692	0.000996	20.825577
360.119628	-2.971100	3.793300	-11.269000	23.142638	0.000998	20.836858
361.104482	-2.982300	3.792200	-11.309000	23.110739	0.000998	20.824334
362.104745	-2.980700	3.792600	-11.304000	23.112403	0.000996	20.823631
363.112592	-3.010900	3.791300	-11.413000	23.085487	0.000999	20.833645
364.105731	-2.975100	3.791900	-11.280000	23.076349	0.000999	20.827333
365.108256	-2.984100	3.790700	-11.309000	23.116147	0.000997	20.838762
366.107476	-2.996800	3.789600	-11.355000	23.126084	0.001000	20.828805
367.104129	-2.986700	3.790000	-11.319000	23.133255	0.000999	20.832198
368.107738	-2.975400	3.790300	-11.276000	23.134054	0.001001	20.807869
369.105473	-2.997700	3.789300	-11.357000	23.173913	0.001000	20.833111
370.105001	-3.000300	3.789200	-11.368000	23.185865	0.001000	20.819958
371.108242	-2.982200	3.788300	-11.296000	23.211082	0.001000	20.826262
372.107140	-3.008100	3.788300	-11.394000	23.202646	0.001000	20.837248
373.106825	-2.999900	3.788800	-11.364000	23.232405	0.001002	20.834828
374.109813	-2.987600	3.787800	-11.315000	23.240547	0.001000	20.804581
375.112105	-3.004300	3.786700	-11.376000	23.262041	0.001000	20.832286
376.107388	-3.009300	3.786500	-11.394000	23.267645	0.001002	20.830789
377.113162	-2.966800	3.788900	-11.239000	23.275387	0.001002	20.818160
378.111348	-2.992800	3.787200	-11.333000	23.292166	0.001003	20.820277
379.108435	-2.970700	3.787600	-11.250000	23.280044	0.001002	20.814293
380.112194	-2.995700	3.785800	-11.339000	23.297777	0.001002	20.832064
381.112041	-3.009300	3.785600	-11.390000	23.293341	0.001004	20.811971
382.109532	-2.999300	3.785100	-11.351000	23.293968	0.001004	20.821135
383.111925	-2.975900	3.787100	-11.268000	23.254993	0.001005	20.826645
384.110867	-2.968000	3.787000	-11.238000	23.264463	0.001006	20.802945
385.108442	-2.988300	3.785900	-11.312000	23.266692	0.001005	20.818929
386.109500	-2.981200	3.784700	-11.283000	23.275247	0.001004	20.805692
387.109791	-2.974900	3.784900	-11.259000	23.263835	0.001005	20.804213
388.109109	-2.980200	3.783900	-11.274000	23.297932	0.001005	20.804719
389.110957	-2.976300	3.784200	-11.261000	23.279203	0.001006	20.804915
390.111732	-2.997700	3.783300	-11.340000	23.278078	0.001007	20.807581
391.110578	-2.970900	3.784100	-11.242000	23.276806	0.001006	20.804884
392.108706	-3.020900	3.781800	-11.423000	23.279725	0.001006	20.829146
393.111090	-3.005100	3.782500	-11.366000	23.255743	0.001009	20.787094
394.108681	-3.019800	3.781100	-11.418000	23.282042	0.001007	20.808234
395.110414	-2.999500	3.782500	-11.345000	23.241567	0.001009	20.805129
396.112237	-3.023900	3.779500	-11.427000	23.271381	0.001008	20.788541
397.109045	-3.002200	3.780500	-11.349000	23.288553	0.001009	20.810492
398.109808	-3.002300	3.781200	-11.351000	23.307331	0.001010	20.800862
399.112967	-2.995200	3.781100	-11.324000	23.332503	0.001009	20.797641
400.111020	-3.008400	3.779200	-11.368000	23.348434	0.001010	20.813608
401.112470	-2.999500	3.779700	-11.336000	23.339347	0.001009	20.803078
402.112865	-2.997500	3.779600	-11.328000	23.322733	0.001009	20.810608
403.111258	-3.007100	3.780100	-11.365000	23.327797	0.001010	20.803830
404.113945	-3.006600	3.779800	-11.363000	23.349282	0.001010	20.778422
405.112306	-3.003700	3.778100	-11.347000	23.331599	0.001010	20.805270
406.115676	-3.017900	3.777800	-11.400000	23.301338	0.001011	20.771622
407.116473	-3.019500	3.778400	-11.407000	23.310270	0.001010	20.820878
408.114218	-3.001500	3.778600	-11.341000	23.303360	0.001012	20.791193
409.111643	-3.012200	3.777900	-11.379000	23.305448	0.001011	20.801821
410.115249	-3.014500	3.777600	-11.386000	23.324267	0.001013	20.803138
411.114046	-2.990400	3.777300	-11.295000	23.360362	0.001013	20.792847
412.114262	-3.014200	3.776400	-11.381000	23.390573	0.001012	20.790409
413.114248	-2.993100	3.776100	-11.301000	23.397588	0.001013	20.772784
414.113327	-3.018800	3.775800	-11.397000	23.399512	0.001012	20.813593
415.116461	-2.997600	3.777200	-11.321000	23.404180	0.001014	20.778917
416.114720	-3.012500	3.774800	-11.371000	23.417327	0.001013	20.793517
417.116807	-3.017800	3.773900	-11.387000	23.456020	0.001015	20.802902
418.114390	-3.009100	3.775600	-11.360000	23.445115	0.001012	20.800981
419.116221	-2.990700	3.775000	-11.289000	23.452284	0.001014	20.793942
420.118482	-3.018600	3.775000	-11.393000	23.462765	0.001016	20.802551
421.115821	-3.012500	3.773500	-11.365000	23.438173	0.001015	20.801610
422.117266	-2.984800	3.775200	-11.267000	23.430923	0.001016	20.802403
423.118646	-2.994800	3.773200	-11.299000	23.400346	0.001014	20.786928
424.119658	-2.989400	3.774400	-11.282000	23.380729	0.001015	20.780069
425.122082	-2.970800	3.773200	-11.208000	23.393324	0.001015	20.768036
426.120877	-3.008300	3.772600	-11.348000	23.402841	0.001017	20.787058
427.120529	-3.007300	3.773500	-11.348000	23.413445	0.001016	20.800057
428.120514	-2.990700	3.772500	-11.280000	23.455497	0.001017	20.784835
429.121312	-3.007900	3.770900	-11.342000	23.438338	0.001017	20.792292
430.121839	-2.989100	3.771500	-11.272000	23.427016	0.001017	20.785211
431.120624	-2.988300	3.773100	-11.274000	23.457495	0.001017	20.783518
432.122610	-2.972600	3.771400	-11.210000	23.454103	0.001017	20.789601
433.118326	-3.004600	3.770500	-11.329000	23.446664	0.001016	20.778351
434.122434	-2.999900	3.770200	-11.309000	23.460880	0.001019	20.779324
435.121868	-3.002800	3.770800	-11.322000	23.444169	0.001018	20.790550
436.121932	-3.009600	3.768800	-11.342000	23.443027	0.001018	20.805526
437.138933	-3.005700	3.770100	-11.330000	23.448605	0.001018	20.776030
438.126934	-3.009000	3.768800	-11.338000	23.449201	0.001018	20.794645
439.123250	-2.992500	3.768600	-11.276000	23.471402	0.001018	20.769009
440.132252	-2.994800	3.769300	-11.287000	23.493022	0.001020	20.769817
441.122466	-3.004300	3.768600	-11.321000	23.471115	0.001019	20.771092
442.125252	-2.985300	3.769100	-11.251000	23.494090	0.001019	20.788432
443.124420	-3.017300	3.767600	-11.367000	23.493316	0.001020	20.768689
444.124220	-3.015100	3.765600	-11.353000	23.505548	0.001019	20.771942
445.129415	-2.993200	3.766500	-11.273000	23.520040	0.001022	20.776511
446.126369	-3.000000	3.767600	-11.302000	23.527878	0.001021	20.790532
447.125700	-3.001100	3.766100	-11.301000	23.538105	0.001021	20.776128
448.129960	-3.010400	3.766600	-11.338000	23.548095	0.001022	20.773339
449.129742	-2.988100	3.767400	-11.256000	23.502955	0.001022	20.771713
450.127113	-2.993300	3.765400	-11.270000	23.523824	0.001023	20.782675
451.130393	-2.997000	3.764700	-11.282000	23.529966	0.001024	20.769866
452.128641	-3.003100	3.763200	-11.300000	23.534900	0.001023	20.771018
453.130734	-3.014700	3.764800	-11.349000	23.541564	0.001021	20.784336
454.130325	-3.005900	3.764300	-11.313000	23.557401	0.001025	20.749951
455.127687	-3.020800	3.762300	-11.364000	23.590584	0.001023	20.765198
456.128728	-3.022000	3.762800	-11.370000	23.595836	0.001022	20.787058
457.128645	-3.014000	3.762700	-11.340000	23.619386	0.001024	20.774158
458.130814	-2.989100	3.763400	-11.247000	23.605572	0.001023	20.790181
459.129134	-3.000100	3.763900	-11.292000	23.633705	0.001024	20.778555
460.131143	-3.004700	3.763600	-11.307000	23.587150	0.001023	20.778826
461.133659	-3.009300	3.762300	-11.320000	23.551774	0.001025	20.787933
462.132372	-2.985600	3.762500	-11.232000	23.569460	0.001024	20.775791
463.134916	-3.002100	3.762400	-11.294000	23.558998	0.001023	20.754872
464.132687	-3.011600	3.760900	-11.325000	23.568889	0.001022	20.769529
465.132786	-3.014300	3.760300	-11.333000	23.594056	0.001023	20.771524
466.133245	-3.026700	3.759700	-11.378000	23.559054	0.001024	20.768679
467.132536	-3.005000	3.760300	-11.299000	23.591008	0.001023	20.760407
468.131634	-2.986800	3.762200	-11.235000	23.584123	0.001024	20.756350
469.136388	-2.995200	3.759200	-11.259000	23.551094	0.001025	20.755483
470.135417	-3.019500	3.759100	-11.349000	23.548361	0.001024	20.766020
471.135134	-3.011000	3.758800	-11.317000	23.577810	0.001024	20.756185
472.134650	-3.005900	3.760000	-11.300000	23.579400	0.001025	20.759202
473.135543	-2.989300	3.758000	-11.232000	23.609132	0.001024	20.763403
474.139615	-3.021500	3.758300	-11.355000	23.626583	0.001026	20.768096
475.134117	-3.010000	3.757900	-11.310000	23.645884	0.001025	20.758996
476.135311	-2.998800	3.757700	-11.266000	23.623858	0.001026	20.763941
477.135921	-2.994200	3.758100	-11.252000	23.613102	0.001025	20.762167
478.135595	-2.979700	3.757100	-11.194000	23.641088	0.001028	20.764619
479.134349	-3.008600	3.755600	-11.299000	23.650824	0.001026	20.765845
480.137513	-2.984900	3.756500	-11.212000	23.676640	0.001025	20.759010
481.139657	-3.002200	3.756600	-11.277000	23.667801	0.001027	20.747777
482.136082	-3.006100	3.754800	-11.286000	23.658545	0.001026	20.763154
483.135574	-3.014900	3.755600	-11.322000	23.648662	0.001027	20.779325
484.138890	-3.014700	3.754700	-11.318000	23.632042	0.001026	20.759818
485.141977	-2.989900	3.755400	-11.227000	23.656237	0.001027	20.744244
486.138947	-2.980300	3.754900	-11.189000	23.676476	0.001027	20.745568
487.138095	-2.998100	3.754600	-11.256000	23.670163	0.001029	20.764844
488.138528	-2.986600	3.754800	-11.213000	23.690345	0.001027	20.771328
489.138546	-2.998500	3.753300	-11.254000	23.689684	0.001028	20.737947
490.137607	-2.985900	3.754200	-11.209000	23.689407	0.001027	20.731979
491.139908	-2.997000	3.753400	-11.249000	23.704947	0.001025	20.748508
492.138940	-3.003300	3.752900	-11.270000	23.692080	0.001027	20.734185
493.138927	-2.998000	3.752400	-11.248000	23.725602	0.001027	20.745983
494.143677	-2.987600	3.752300	-11.210000	23.720057	0.001028	20.739000
495.141243	-2.989000	3.753000	-11.217000	23.718915	0.001029	20.727898
496.141171	-2.987300	3.752300	-11.208000	23.741542	0.001027	20.745368
497.142398	-3.002800	3.751500	-11.264000	23.728349	0.001029	20.766281
498.143821	-2.987600	3.751000	-11.205000	23.712578	0.001027	20.740037
499.142418	-3.012200	3.751400	-11.299000	23.715440	0.001027	20.760451
500.147946	-2.975800	3.752100	-11.165000	23.762781	0.001028	20.749594
501.143782	-3.012500	3.748700	-11.292000	23.739934	0.001027	20.745653
502.149815	-2.996800	3.749000	-11.235000	23.767763	0.001027	20.756485
503.147213	-3.005600	3.749800	-11.270000	23.749498	0.001026	20.744810
504.143799	-3.014200	3.749700	-11.301000	23.761769	0.001026	20.734828
505.149141	-3.008700	3.747400	-11.274000	23.763986	0.001028	20.750328
506.146132	-2.983200	3.749000	-11.183000	23.764761	0.001026	20.748734
507.151863	-3.001300	3.748200	-11.249000	23.757863	0.001028	20.734231
508.147528	-2.955800	3.749900	-11.082000	23.735913	0.001029	20.732138
509.149130	-3.000800	3.746600	-11.242000	23.710774	0.001027	20.740125
510.151367	-3.013000	3.747900	-11.291000	23.702310	0.001028	20.750132
511.149416	-3.005600	3.747000	-11.260000	23.711622	0.001027	20.730543
512.153778	-3.000500	3.746800	-11.242000	23.712991	0.001027	20.747564
513.152224	-2.998800	3.745800	-11.232000	23.739728	0.001026	20.724583
514.151342	-3.008400	3.746000	-11.268000	23.778237	0.001028	20.720993
515.153097	-2.994300	3.747400	-11.219000	23.784630	0.001027	20.740680
516.156351	-2.991700	3.746200	-11.207000	23.790638	0.001027	20.725366
517.152960	-2.990600	3.745400	-11.199000	23.810517	0.001028	20.716374
518.154113	-3.011300	3.743900	-11.273000	23.841090	0.001029	20.734228
519.153973	-3.019600	3.744300	-11.304000	23.848712	0.001028	20.739975
520.154508	-2.996700	3.745400	-11.223000	23.854054	0.001028	20.722096
521.155161	-3.001700	3.743900	-11.237000	23.853581	0.001029	20.727786
522.158290	-3.017400	3.743200	-11.294000	23.820300	0.001029	20.718123
523.156456	-2.997700	3.744300	-11.222000	23.795913	0.001028	20.736820
524.155974	-2.993700	3.742500	-11.201000	23.813043	0.001028	20.717958
525.159761	-2.977000	3.743500	-11.144000	23.813190	0.001028	20.723322
526.159271	-3.028700	3.741300	-11.331000	23.835464	0.001030	20.720052
527.166757	-2.994100	3.741700	-11.202000	23.849048	0.001028	20.735570
528.157873	-3.009200	3.740800	-11.256000	23.863518	0.001029	20.718310
529.158175	-2.989900	3.742800	-11.189000	23.879189	0.001027	20.709841
530.157725	-3.006400	3.741100	-11.245000	23.872772	0.001028	20.719528
531.157393	-2.999100	3.741600	-11.220000	23.887929	0.001027	20.716708
532.159407	-2.983400	3.741500	-11.161000	23.882752	0.001029	20.719578
533.160287	-2.998800	3.740600	-11.217000	23.909704	0.001029	20.712465
534.159534	-3.020100	3.738400	-11.288000	23.892503	0.001030	20.709440
535.161321	-3.000900	3.740100	-11.222000	23.885270	0.001029	20.741545
536.162272	-2.986300	3.740000	-11.168000	23.870212	0.001026	20.727393
537.163135	-3.003200	3.739000	-11.228000	23.866748	0.001027	20.723445
538.162179	-2.996100	3.738200	-11.199000	23.879718	0.001029	20.715113
539.166915	-2.974100	3.739500	-11.120000	23.872349	0.001030	20.725742
540.166836	-2.987900	3.739000	-11.170000	23.885246	0.001028	20.722079
541.164142	-2.987300	3.738800	-11.168000	23.903687	0.001028	20.708327
542.167715	-3.015500	3.736400	-11.265000	23.919463	0.001029	20.726044
543.168120	-2.998300	3.737900	-11.207000	23.939648	0.001029	20.706455
544.166441	-2.997700	3.736500	-11.200000	23.923897	0.001029	20.723852
545.165946	-2.999400	3.737300	-11.208000	23.901698	0.001029	20.712022
546.166859	-2.999900	3.735500	-11.206000	23.894906	0.001027	20.706634
547.167625	-2.991300	3.735000	-11.172000	23.875039	0.001029	20.725120
548.167708	-2.993300	3.736200	-11.181000	23.885375	0.001028	20.727425
549.175022	-2.985000	3.736300	-11.151000	23.901078	0.001028	20.715668
550.171238	-3.000100	3.735500	-11.206000	23.920195	0.001028	20.727727
551.167788	-2.988400	3.734800	-11.160000	23.932440	0.001029	20.724833
552.168845	-2.988400	3.735500	-11.161000	23.924524	0.001029	20.719265
553.169671	-2.990400	3.735300	-11.169000	23.918206	0.001030	20.702971
554.168354	-3.006000	3.734000	-11.224000	23.942989	0.001028	20.722609
555.169894	-2.982600	3.733800	-11.135000	23.957451	0.001028	20.700126
556.169313	-2.995400	3.733500	-11.182000	23.931014	0.001029	20.689735
557.168129	-2.982200	3.733000	-11.131000	23.963850	0.001028	20.708440
558.170733	-3.006800	3.731900	-11.220000	23.957150	0.001028	20.706462
559.168978	-2.997300	3.732400	-11.185000	23.983652	0.001028	20.728299
560.169214	-2.953100	3.734400	-11.027000	23.976788	0.001028	20.719992
561.170627	-2.984800	3.732100	-11.138000	24.003192	0.001028	20.712806
562.169242	-2.968900	3.732000	-11.079000	23.978949	0.001028	20.709356
563.177018	-2.979000	3.730600	-11.111000	24.007300	0.001028	20.708865
564.173707	-3.015500	3.730700	-11.249000	24.005132	0.001027	20.691991
565.168962	-2.988200	3.730600	-11.146000	24.022349	0.001027	20.718742
566.170814	-2.998300	3.730500	-11.184000	23.987320	0.001031	20.685981
567.172251	-2.993300	3.729900	-11.164000	24.030313	0.001027	20.711555
568.171434	-3.002200	3.728200	-11.191000	24.037185	0.001027	20.690470
569.179042	-2.977400	3.729600	-11.103000	24.054058	0.001027	20.685106
570.174335	-2.989500	3.729600	-11.148000	24.051270	0.001027	20.685155
571.170516	-2.998500	3.729700	-11.182000	24.053382	0.001029	20.694860
572.172002	-3.017600	3.727300	-11.246000	24.047807	0.001028	20.700649
573.172241	-2.996500	3.728600	-11.171000	24.073859	0.001028	20.680782
574.173870	-2.983100	3.728000	-11.120000	24.075677	0.001028	20.699676
575.176737	-2.994900	3.726600	-11.160000	24.072441	0.001026	20.686472
576.173239	-2.981400	3.728000	-11.114000	24.086656	0.001029	20.700730
577.174214	-3.014100	3.726800	-11.232000	24.104173	0.001028	20.705971
578.174266	-3.003000	3.726300	-11.189000	24.102730	0.001026	20.714481
579.172883	-3.002400	3.725900	-11.184000	24.061868	0.001026	20.691516
580.182148	-2.970400	3.728100	-11.072000	24.014694	0.001025	20.697786
581.175980	-2.978700	3.726300	-11.099000	23.980651	0.001024	20.691622
582.176034	-3.008000	3.724900	-11.203000	23.987393	0.001027	20.690796
583.176947	-2.996100	3.725300	-11.160000	24.021435	0.001026	20.681787
584.178267	-3.005600	3.724500	-11.193000	24.013471	0.001027	20.706993
585.179026	-2.984700	3.725400	-11.118000	24.018844	0.001026	20.703845
586.178304	-2.999200	3.724100	-11.168000	24.016928	0.001026	20.684379
587.179632	-2.986800	3.723800	-11.121000	24.030622	0.001027	20.686733
588.176317	-2.997100	3.723600	-11.160000	24.024020	0.001027	20.698605
589.177045	-2.990800	3.722500	-11.133000	24.001178	0.001026	20.690870
590.178263	-2.983100	3.724600	-11.109000	23.994527	0.001029	20.691313
591.184618	-3.003500	3.721800	-11.177000	23.989407	0.001026	20.700403
592.178721	-3.021800	3.720800	-11.242000	23.958029	0.001025	20.687902
593.177810	-2.978900	3.722700	-11.088000	23.993287	0.001025	20.703347
594.179730	-2.996200	3.722400	-11.152000	24.011156	0.001023	20.694239
595.180130	-2.978600	3.722600	-11.088000	24.028748	0.001025	20.692440
596.182752	-2.994200	3.721100	-11.140000	24.054254	0.001025	20.684354
597.179598	-2.998100	3.719700	-11.151000	24.070126	0.001026	20.681779
598.180424	-3.002600	3.719600	-11.167000	24.080485	0.001024	20.697860
599.180288	-2.998700	3.718600	-11.151000	24.075978	0.001025	20.685278
600.180878	-3.005800	3.721100	-11.184000	24.082915	0.001025	20.689391
601.182005	-3.002900	3.719000	-11.166000	24.076321	0.001023	20.702693
602.179825	-3.011000	3.718900	-11.195000	24.059879	0.001024	20.679089
603.179568	-2.999000	3.717600	-11.147000	24.080324	0.001024	20.697698
604.183351	-3.017400	3.717400	-11.216000	24.067184	0.001024	20.702539
605.178722	-3.001000	3.718200	-11.157000	24.076639	0.001024	20.693529
606.180679	-2.991300	3.717700	-11.120000	24.094108	0.001024	20.691133
607.184971	-2.963600	3.719300	-11.022000	24.079648	0.001024	20.671888
608.180146	-3.016500	3.717800	-11.213000	24.082036	0.001024	20.693726
609.181052	-3.005900	3.716600	-11.171000	24.082484	0.001024	20.695598
610.182678	-3.007100	3.716800	-11.175000	24.108014	0.001024	20.697020
611.184825	-3.013500	3.715000	-11.194000	24.141849	0.001023	20.693023
612.185441	-2.988800	3.716700	-11.108000	24.132149	0.001025	20.694674
613.187037	-2.979400	3.716500	-11.072000	24.146300	0.001024	20.707445
614.183527	-3.004900	3.717100	-11.168000	24.156399	0.001022	20.682011
615.183360	-2.989100	3.715500	-11.105000	24.135574	0.001024	20.698109
616.185665	-2.976100	3.716300	-11.059000	24.141590	0.001022	20.692289
617.184103	-2.985400	3.715100	-11.090000	24.099661	0.001024	20.693384
618.184436	-2.984700	3.714200	-11.085000	24.084060	0.001024	20.698601
619.185758	-3.008600	3.714900	-11.176000	24.124637	0.001022	20.683345
620.184246	-2.984700	3.714800	-11.086000	24.101332	0.001023	20.713553
621.187473	-2.993500	3.714200	-11.118000	24.105685	0.001023	20.715548
622.191964	-2.966600	3.714600	-11.018000	24.085177	0.001023	20.711102
623.187774	-2.999500	3.712900	-11.136000	24.070349	0.001020	20.703342
624.190260	-2.994800	3.713500	-11.120000	24.076618	0.001021	20.698723
625.192975	-2.992100	3.714600	-11.112000	24.089057	0.001020	20.705510
626.190442	-3.009900	3.711200	-11.170000	24.097143	0.001022	20.723578
627.193394	-3.019300	3.712100	-11.207000	24.086921	0.001021	20.699573
628.191920	-3.030600	3.711300	-11.246000	24.085821	0.001022	20.706532
629.194336	-3.001200	3.712000	-11.139000	24.077034	0.001020	20.706728
630.195517	-2.995200	3.713200	-11.121000	24.071435	0.001021	20.690205
631.195365	-3.027300	3.709100	-11.227000	24.059745	0.001022	20.700293
632.196360	-2.982700	3.711300	-11.068000	24.070937	0.001023	20.686861
633.194846	-2.981200	3.710800	-11.061000	24.088602	0.001021	20.711691
634.194479	-3.007600	3.709700	-11.156000	24.114163	0.001021	20.695601
635.195930	-3.015200	3.708700	-11.182000	24.160958	0.001021	20.711716
636.196080	-2.990000	3.710600	-11.094000	24.189648	0.001020	20.717259
637.196390	-2.997800	3.710000	-11.121000	24.188443	0.001020	20.702299
638.198361	-3.006800	3.709100	-11.152000	24.209919	0.001021	20.690174
639.196763	-3.002400	3.709500	-11.137000	24.241867	0.001021	20.712264
640.199473	-3.003800	3.707900	-11.137000	24.264403	0.001022	20.694090
641.211635	-2.993800	3.708600	-11.101000	24.242708	0.001020	20.714529
642.201874	-3.003700	3.707100	-11.133000	24.269350	0.001021	20.713753
643.199149	-2.995700	3.708500	-11.108000	24.252627	0.001020	20.717841
644.201204	-2.984800	3.708400	-11.068000	24.271983	0.001021	20.693633
645.202566	-3.006200	3.706500	-11.141000	24.278055	0.001017	20.703517
646.199578	-2.992000	3.706100	-11.088000	24.287957	0.001018	20.709657
647.201573	-2.965200	3.707900	-10.994000	24.303737	0.001020	20.702727
648.202164	-3.000600	3.707100	-11.123000	24.315537	0.001018	20.718832
649.200585	-2.996600	3.705200	-11.100000	24.330207	0.001020	20.697036
650.201999	-3.021900	3.704300	-11.192000	24.345798	0.001019	20.703194
651.202113	-3.002600	3.704400	-11.121000	24.362390	0.001018	20.712727
652.202278	-3.000800	3.705000	-11.117000	24.321716	0.001020	20.715547
653.204845	-2.994800	3.703800	-11.091000	24.317626	0.001018	20.719506
654.203540	-2.999000	3.704600	-11.109000	24.282665	0.001017	20.719523
655.205915	-3.009700	3.703500	-11.144000	24.292298	0.001018	20.719702
656.203030	-2.987500	3.703500	-11.063000	24.289552	0.001017	20.736390
657.202296	-3.013500	3.703600	-11.160000	24.274108	0.001017	20.710939
658.202754	-3.018100	3.701900	-11.170000	24.297662	0.001017	20.732196
659.203287	-2.992000	3.703200	-11.078000	24.301590	0.001016	20.714325
660.203633	-3.002900	3.702800	-11.119000	24.302633	0.001015	20.714897
661.203383	-2.998200	3.702800	-11.100000	24.336666	0.001017	20.711578
662.204827	-3.023000	3.700600	-11.185000	24.342950	0.001017	20.728789
663.205521	-2.994200	3.701300	-11.082000	24.319643	0.001016	20.717261
664.208100	-3.001200	3.701700	-11.108000	24.341207	0.001016	20.709969
665.205098	-2.988900	3.702300	-11.064000	24.326358	0.001015	20.737275
666.204807	-3.002000	3.700600	-11.108000	24.309041	0.001016	20.725592
667.204025	-3.004400	3.700800	-11.118000	24.321884	0.001017	20.700541
668.206409	-3.011600	3.701500	-11.145000	24.324705	0.001016	20.724711
669.207663	-2.996700	3.701300	-11.090000	24.336627	0.001014	20.735248
670.204976	-3.024400	3.699800	-11.188000	24.354336	0.001015	20.737840
671.207167	-3.017000	3.698900	-11.158000	24.370806	0.001014	20.724015
672.206409	-2.998100	3.699400	-11.091000	24.368989	0.001014	20.725037
673.206099	-3.001800	3.698300	-11.100000	24.379289	0.001015	20.729207
674.207195	-3.014600	3.697100	-11.145000	24.401528	0.001014	20.732076
675.207124	-2.998700	3.697900	-11.089000	24.414730	0.001016	20.723035
676.205811	-2.990500	3.697200	-11.055000	24.423514	0.001013	20.729951
677.207510	-2.981500	3.698800	-11.027000	24.406653	0.001014	20.751444
678.204839	-2.974000	3.697800	-10.996000	24.433243	0.001014	20.720271
679.204948	-2.993300	3.697200	-11.066000	24.431930	0.001012	20.729860
680.206986	-2.998000	3.696000	-11.079000	24.454290	0.001013	20.721946
681.208841	-3.000600	3.695500	-11.088000	24.458544	0.001014	20.737594
682.207683	-2.973400	3.697000	-10.991000	24.427620	0.001012	20.717949
683.206488	-2.999000	3.695400	-11.082000	24.393892	0.001012	20.722045
684.206846	-2.971200	3.696100	-10.981000	24.392278	0.001014	20.719951
685.207974	-2.989100	3.695400	-11.045000	24.381358	0.001011	20.731757
686.209862	-2.975700	3.695800	-10.997000	24.367952	0.001013	20.733007
687.206379	-2.994800	3.694200	-11.062000	24.357701	0.001012	20.758286
688.206234	-2.990100	3.693800	-11.044000	24.377031	0.001012	20.716035
689.207932	-3.007000	3.693100	-11.103000	24.381855	0.001010	20.738420
690.206861	-2.996600	3.693400	-11.066000	24.409902	0.001011	20.742849
691.209642	-3.000200	3.693600	-11.081000	24.414996	0.001013	20.730889
692.211311	-3.015900	3.692300	-11.135000	24.392162	0.001011	20.734061
693.208218	-2.989300	3.692000	-11.036000	24.408502	0.001011	20.744289
694.208568	-2.993100	3.691800	-11.049000	24.397158	0.001010	20.751402
695.208357	-2.994000	3.691000	-11.050000	24.406415	0.001009	20.730341
696.213060	-2.991200	3.692800	-11.044000	24.420822	0.001009	20.720138
697.209635	-2.989700	3.691500	-11.034000	24.422761	0.001009	20.743896
698.211681	-2.969300	3.692500	-10.962000	24.380500	0.001010	20.751286
699.211574	-3.000500	3.689900	-11.070000	24.354634	0.001012	20.760899
700.209587	-2.997300	3.690400	-11.060000	24.351350	0.001010	20.721093
701.213131	-2.987600	3.690800	-11.026000	24.356598	0.001011	20.724462
702.213169	-3.013500	3.689400	-11.118000	24.366843	0.001009	20.734739
703.210635	-3.020800	3.688500	-11.141000	24.404262	0.001009	20.733871
704.211100	-2.997700	3.689400	-11.059000	24.415385	0.001009	20.745505
705.211921	-2.991100	3.689400	-11.034000	24.406951	0.001008	20.737043
706.212645	-2.990200	3.688700	-11.028000	24.438120	0.001008	20.718051
707.212646	-3.002600	3.689600	-11.078000	24.442349	0.001007	20.726088
708.211778	-2.967100	3.689600	-10.944000	24.437875	0.001007	20.747679
709.213533	-2.997900	3.687700	-11.054000	24.433075	0.001008	20.746183
710.212853	-2.992200	3.687400	-11.033000	24.432676	0.001009	20.725867
711.213666	-3.005100	3.686300	-11.077000	24.446911	0.001009	20.752003
712.214944	-3.009100	3.686500	-11.091000	24.474697	0.001007	20.730092
713.212668	-2.983300	3.688300	-11.001000	24.471763	0.001008	20.747539
714.214020	-2.982400	3.687600	-10.997000	24.428227	0.001009	20.722825
715.213791	-2.988500	3.685800	-11.014000	24.426010	0.001006	20.728663
716.213253	-2.993400	3.686500	-11.034000	24.388630	0.001003	20.723879
717.216783	-2.998700	3.687000	-11.055000	24.362684	0.001006	20.750482
718.216452	-2.991700	3.685100	-11.024000	24.334667	0.001004	20.746084
719.214162	-3.015700	3.684600	-11.110000	24.365397	0.001005	20.740401
720.214067	-3.012400	3.683900	-11.096000	24.386218	0.001005	20.754177
721.215860	-2.978500	3.685800	-10.977000	24.375421	0.001006	20.749983
722.215662	-3.003800	3.683400	-11.063000	24.395093	0.001006	20.724673
723.219727	-3.005400	3.685000	-11.074000	24.400740	0.001005	20.755469
724.218877	-2.998800	3.684200	-11.048000	24.425822	0.001006	20.732741
725.221910	-2.995300	3.684100	-11.034000	24.459101	0.001004	20.756172
726.217094	-3.007500	3.684800	-11.081000	24.470289	0.001002	20.774984
727.219683	-3.024600	3.681400	-11.134000	24.509809	0.001002	20.752045
728.217102	-2.995700	3.682900	-11.031000	24.505108	0.001002	20.764398
729.216618	-3.014500	3.681600	-11.097000	24.528468	0.001003	20.748006
730.222050	-3.006300	3.680900	-11.065000	24.524508	0.001003	20.751620
731.216437	-2.988800	3.681900	-11.003000	24.552643	0.001001	20.738596
732.218032	-3.005100	3.682200	-11.063000	24.544290	0.001002	20.749657
733.224589	-3.010600	3.680900	-11.080000	24.542670	0.000999	20.764152
734.220047	-2.992200	3.680700	-11.011000	24.576124	0.001005	20.784917
735.220266	-3.007000	3.679300	-11.063000	24.567642	0.001001	20.757914
736.230188	-3.007500	3.679200	-11.064000	24.552447	0.001002	20.771117
737.220275	-2.976600	3.681600	-10.958000	24.573712	0.001001	20.752150
738.219443	-3.002700	3.678300	-11.044000	24.573436	0.001003	20.765149
739.225086	-3.000200	3.679100	-11.036000	24.588183	0.001001	20.760506
740.221585	-3.003700	3.680400	-11.054000	24.612087	0.001001	20.774060
741.223235	-3.006300	3.678800	-11.059000	24.589282	0.000999	20.746910
742.221067	-3.007500	3.678000	-11.060000	24.623127	0.001000	20.767120
743.225085	-2.998800	3.677700	-11.028000	24.599419	0.001001	20.775574
744.227173	-2.978100	3.679200	-10.956000	24.630509	0.001000	20.775950
745.221713	-3.007900	3.678000	-11.061000	24.618517	0.000999	20.772451
746.225092	-3.026900	3.676600	-11.127000	24.645795	0.001000	20.792236
747.223905	-2.994000	3.676900	-11.008000	24.652158	0.001001	20.771594
748.223408	-2.987400	3.677600	-10.984000	24.631213	0.001000	20.797518
749.225399	-2.990600	3.677100	-10.996000	24.612262	0.000999	20.775658
750.222856	-3.004300	3.675800	-11.043000	24.616606	0.000997	20.787129
751.224311	-3.001600	3.676500	-11.035000	24.627327	0.000997	20.780343
752.224785	-2.991700	3.676200	-10.997000	24.652259	0.000999	20.782127
753.225015	-3.012700	3.673200	-11.066000	24.615548	0.000996	20.761412
754.224462	-2.997800	3.674800	-11.016000	24.623109	0.000997	20.768050
755.228589	-2.991300	3.675000	-10.991000	24.618401	0.000997	20.762377
756.224147	-2.983700	3.676200	-10.968000	24.629262	0.000997	20.787975
757.226154	-2.977100	3.674800	-10.939000	24.612926	0.000994	20.799558
758.225548	-3.001300	3.673600	-11.024000	24.627992	0.000996	20.781958
759.234549	-3.024900	3.672200	-11.107000	24.632563	0.000996	20.766156
760.227878	-2.990800	3.673800	-10.986000	24.619202	0.000995	20.780725
761.225963	-3.017100	3.672300	-11.078000	24.623326	0.000995	20.798139
762.228525	-3.010500	3.672000	-11.052000	24.579907	0.000996	20.787290
763.226239	-3.015600	3.671300	-11.070000	24.605754	0.000997	20.777188
764.226236	-3.020600	3.672000	-11.090000	24.593075	0.000996	20.782485
765.229185	-3.020100	3.672000	-11.088000	24.594045	0.000994	20.797208
766.225603	-2.986000	3.672400	-10.964000	24.591707	0.000996	20.772577
767.231457	-3.006100	3.671400	-11.035000	24.606006	0.000996	20.802572
768.228422	-2.989800	3.672000	-10.978000	24.610227	0.000995	20.803014
769.229036	-2.981800	3.671600	-10.946000	24.643329	0.000995	20.778383
770.232535	-2.990300	3.671800	-10.978000	24.620770	0.000995	20.796523
771.231056	-3.023700	3.669900	-11.094000	24.656462	0.000993	20.808630
772.231702	-2.994900	3.669400	-10.988000	24.682696	0.000992	20.792755
773.229730	-2.996800	3.668200	-10.990000	24.703830	0.000992	20.784090
774.237741	-2.975800	3.670600	-10.921000	24.686942	0.000990	20.801757
775.230327	-2.980300	3.669500	-10.935000	24.674607	0.000993	20.801707
776.235481	-3.025400	3.667600	-11.095000	24.653473	0.000994	20.786664
777.234852	-3.010800	3.667700	-11.042000	24.634712	0.000992	20.788227
778.235927	-2.990900	3.668700	-10.972000	24.654754	0.000993	20.794588
779.231136	-3.010100	3.668100	-11.040000	24.620658	0.000994	20.805420
780.232274	-2.998200	3.667500	-10.995000	24.599166	0.000991	20.788596
781.237415	-3.007900	3.667400	-11.030000	24.604560	0.000991	20.794008
782.235311	-3.005400	3.667900	-11.023000	24.609758	0.000990	20.814397
783.242282	-3.016000	3.665800	-11.055000	24.624848	0.000990	20.816736
784.239945	-3.008000	3.666900	-11.029000	24.655286	0.000989	20.779000
785.236338	-2.982200	3.666500	-10.933000	24.655058	0.000992	20.798687
786.233695	-2.976900	3.667400	-10.915000	24.692689	0.000989	20.799937
787.233286	-2.999500	3.668100	-11.001000	24.703574	0.000988	20.813231
788.236073	-2.985600	3.666900	-10.946000	24.711802	0.000989	20.789246
789.235999	-3.009900	3.665100	-11.030000	24.735525	0.000988	20.812577
790.234941	-2.982600	3.666700	-10.934000	24.753879	0.000989	20.794486
791.237130	-2.990200	3.666000	-10.961000	24.749196	0.000989	20.804011
792.236802	-2.999100	3.666200	-10.994000	24.708187	0.000988	20.820705
793.235307	-3.005900	3.664000	-11.013000	24.716716	0.000987	20.802712
794.235374	-2.981100	3.664700	-10.924000	24.708488	0.000987	20.813420
795.236479	-2.997100	3.664200	-10.981000	24.685279	0.000987	20.811942
796.235789	-2.984400	3.664800	-10.936000	24.708831	0.000987	20.817558
797.240046	-2.990300	3.663200	-10.953000	24.729271	0.000986	20.792551
798.237587	-2.992400	3.663300	-10.961000	24.751299	0.000986	20.822243
799.235273	-2.993400	3.663100	-10.964000	24.770297	0.000987	20.803849
800.237041	-2.966600	3.663400	-10.866000	24.756227	0.000984	20.819128
801.236962	-3.005800	3.662200	-11.006000	24.758957	0.000986	20.826608
802.238635	-3.015100	3.660800	-11.037000	24.729663	0.000986	20.826134
803.234648	-2.960300	3.662100	-10.839000	24.748912	0.000984	20.826011
804.238142	-2.994200	3.662300	-10.964000	24.747960	0.000984	20.828375
805.238563	-3.002200	3.660800	-10.988000	24.747299	0.000985	20.819651
806.238360	-2.990300	3.661500	-10.947000	24.748139	0.000987	20.828554
807.240407	-2.979500	3.661000	-10.907000	24.761491	0.000981	20.826306
808.237666	-2.982600	3.661400	-10.920000	24.762656	0.000982	20.828424
809.240625	-3.000700	3.659000	-10.979000	24.752465	0.000983	20.812981
810.237706	-2.983600	3.661200	-10.921000	24.725729	0.000984	20.835937
811.238093	-3.000400	3.659400	-10.979000	24.726943	0.000983	20.819612
812.242731	-2.974000	3.659600	-10.883000	24.709412	0.000981	20.837106
813.326763	-2.995100	3.659700	-10.961000	24.736068	0.000980	20.829717
814.241253	-2.987900	3.658200	-10.930000	24.738325	0.000983	20.845258
815.238922	-3.012300	3.657000	-11.014000	24.747708	0.000981	20.839976
816.242417	-2.990000	3.658100	-10.937000	24.745843	0.000980	20.832414
817.241206	-2.995300	3.657500	-10.955000	24.716482	0.000981	20.825235
818.239831	-2.990500	3.657100	-10.935000	24.696727	0.000979	20.834335
819.240493	-2.991000	3.656800	-10.936000	24.693378	0.000979	20.846621
820.238179	-2.982800	3.656700	-10.906000	24.691285	0.000980	20.827451
821.239951	-3.002000	3.657200	-10.978000	24.711799	0.000979	20.832389
822.243535	-2.994700	3.657400	-10.952000	24.729477	0.000979	20.840646
823.242128	-3.002800	3.655900	-10.977000	24.779039	0.000979	20.826373
824.241365	-2.990000	3.656000	-10.931000	24.804657	0.000977	20.836435
825.241795	-2.999700	3.655700	-10.965000	24.806173	0.000977	20.844594
826.242500	-3.012200	3.654900	-11.009000	24.776180	0.000978	20.840573
827.241849	-2.990200	3.655100	-10.929000	24.790501	0.000978	20.824599
828.245323	-2.978900	3.655400	-10.888000	24.786427	0.000977	20.833787
829.242370	-3.001400	3.654400	-10.968000	24.819972	0.000975	20.852753
830.246635	-3.003500	3.654000	-10.974000	24.838097	0.000974	20.863830
831.242906	-2.991100	3.653700	-10.928000	24.879874	0.000975	20.850284
832.242802	-3.000900	3.654900	-10.967000	24.861988	0.000975	20.850824
833.248106	-3.023400	3.652000	-11.040000	24.880249	0.000975	20.847341
834.246146	-3.010700	3.651400	-10.992000	24.902250	0.000973	20.837180
835.243502	-3.009500	3.651600	-10.988000	24.887580	0.000975	20.840000
836.243724	-2.998900	3.652300	-10.951000	24.904969	0.000973	20.844650
837.244706	-2.990000	3.653300	-10.923000	24.897403	0.000975	20.828523
838.242612	-2.993800	3.651900	-10.931000	24.865351	0.000973	20.859415
839.246092	-2.998500	3.652300	-10.951000	24.858363	0.000973	20.866625
840.245072	-3.010100	3.649600	-10.984000	24.866744	0.000977	20.868399
841.249542	-3.033000	3.650000	-11.068000	24.836809	0.000976	20.847365
842.247226	-3.028300	3.649900	-11.052000	24.840312	0.000971	20.854200
843.246352	-2.983000	3.652400	-10.894000	24.852914	0.000974	20.848356
844.247130	-3.007200	3.651000	-10.979000	24.858030	0.000973	20.859180
845.249166	-2.964600	3.650700	-10.822000	24.877089	0.000971	20.847962
846.246136	-2.987700	3.648700	-10.900000	24.852669	0.000970	20.863282
847.246995	-3.011000	3.649400	-10.988000	24.835434	0.000971	20.839821
848.247620	-2.996100	3.649000	-10.931000	24.834415	0.000970	20.848756
849.249155	-2.983100	3.651400	-10.892000	24.850772	0.000970	20.841465
850.247625	-2.954200	3.650700	-10.784000	24.870142	0.000969	20.825818
851.251122	-3.010700	3.648200	-10.981000	24.894464	0.000969	20.847857
852.247602	-2.986200	3.649100	-10.895000	24.894740	0.000969	20.841971
853.249539	-3.015100	3.647200	-10.995000	24.899457	0.000972	20.852394
854.252086	-2.987100	3.648000	-10.895000	24.862639	0.000970	20.861434
855.247838	-3.001300	3.647000	-10.944000	24.849649	0.000969	20.844605
856.252518	-2.993500	3.647800	-10.918000	24.824014	0.000969	20.845904
857.249227	-3.002700	3.646800	-10.950000	24.848550	0.000967	20.843976
858.249298	-2.982500	3.645500	-10.870000	24.874958	0.000968	20.842978
859.252727	-2.998200	3.645400	-10.928000	24.842310	0.000967	20.832024
860.252234	-2.994000	3.644500	-10.911000	24.793427	0.000968	20.839863
861.250650	-2.984200	3.646200	-10.880000	24.794641	0.000967	20.840608
862.251261	-2.997900	3.645200	-10.927000	24.824063	0.000965	20.824143
863.251484	-3.010200	3.645000	-10.971000	24.861600	0.000964	20.833840
864.251114	-2.985700	3.646900	-10.887000	24.890100	0.000966	20.806494
865.255100	-2.982400	3.645400	-10.871000	24.892486	0.000965	20.838286
866.252270	-3.001300	3.644700	-10.937000	24.934182	0.000966	20.795262
867.255283	-3.001600	3.643500	-10.935000	24.944403	0.000965	20.817375
868.258536	-3.005700	3.643600	-10.950000	24.952654	0.000965	20.809536
869.256332	-2.988900	3.643500	-10.889000	24.950667	0.000965	20.824610
870.261129	-2.983200	3.643000	-10.866000	24.929230	0.000966	20.840077
871.252901	-3.002500	3.641800	-10.934000	24.890565	0.000964	20.814548
872.253210	-2.989600	3.643600	-10.892000	24.881817	0.000965	20.844173
873.254193	-3.008400	3.641900	-10.955000	24.859133	0.000963	20.821881
874.252395	-3.001700	3.641700	-10.931000	24.839714	0.000963	20.804763
875.253964	-3.001600	3.642300	-10.931000	24.845008	0.000965	20.812447
876.257962	-3.004000	3.639200	-10.930000	24.873551	0.000964	20.817860
877.255907	-3.003500	3.641100	-10.934000	24.850352	0.000964	20.803112
878.254670	-2.998100	3.640400	-10.913000	24.864844	0.000961	20.809595
879.254496	-2.989300	3.641100	-10.884000	24.897221	0.000964	20.824547
880.255339	-3.021000	3.640200	-10.995000	24.912356	0.000962	20.808917
881.259434	-3.011800	3.639100	-10.960000	24.884140	0.000961	20.822324
882.254521	-3.008800	3.639200	-10.948000	24.879164	0.000962	20.817329
883.257352	-2.975600	3.639400	-10.828000	24.853750	0.000959	20.817902
884.259139	-3.006300	3.637800	-10.935000	24.850510	0.000959	20.808485
885.256330	-2.995100	3.638500	-10.896000	24.860634	0.000961	20.808689
886.257702	-3.002200	3.638900	-10.924000	24.882537	0.000959	20.821189
887.257810	-3.009100	3.638500	-10.947000	24.898470	0.000960	20.824378
888.258843	-2.997100	3.637900	-10.903000	24.913066	0.000959	20.791139
889.258902	-2.992000	3.637200	-10.881000	24.939987	0.000957	20.809149
890.258844	-2.974600	3.638900	-10.823000	24.917238	0.000958	20.804808
891.259205	-2.992300	3.637500	-10.884000	24.917581	0.000958	20.807049
892.259754	-3.010700	3.636000	-10.945000	24.918851	0.000959	20.799789
893.262773	-2.982200	3.637600	-10.846000	24.966882	0.000957	20.800109
894.260707	-3.015700	3.635300	-10.962000	24.983262	0.000957	20.805644
895.261267	-3.003600	3.635600	-10.919000	24.961679	0.000957	20.812904
896.264854	-3.001700	3.635000	-10.910000	25.000782	0.000957	20.798574
897.262609	-3.005700	3.635600	-10.926000	24.997703	0.000956	20.802596
898.264391	-2.998600	3.635400	-10.900000	25.009407	0.000955	20.789688
899.261266	-2.991500	3.635700	-10.875000	25.006265	0.000954	20.816406
900.263823	-2.972900	3.636500	-10.809000	25.015989	0.000954	20.787286
901.265925	-2.986300	3.634800	-10.854000	25.053386	0.000957	20.795901
902.269549	-2.979400	3.634300	-10.827000	25.054544	0.000954	20.806073
903.264021	-2.999000	3.634300	-10.898000	25.010964	0.000952	20.803579
904.265872	-2.993400	3.634300	-10.878000	25.014866	0.000953	20.794693
905.266240	-2.991500	3.633400	-10.869000	25.028785	0.000953	20.785431
906.266415	-2.976200	3.633900	-10.813000	25.020331	0.000955	20.803024
907.268822	-2.976800	3.634500	-10.818000	24.992584	0.000951	20.789871
908.266501	-2.990700	3.632900	-10.864000	24.963191	0.000952	20.812999
909.269213	-3.005000	3.632200	-10.914000	24.931645	0.000948	20.794138
910.265734	-2.993900	3.631500	-10.871000	24.924852	0.000951	20.793011
911.266889	-2.991600	3.632700	-10.867000	24.916748	0.000951	20.796730
912.269984	-2.982200	3.632000	-10.830000	24.900042	0.000951	20.797506
913.265894	-3.004400	3.631400	-10.909000	24.890555	0.000952	20.779450
914.266965	-2.993600	3.630900	-10.868000	24.868848	0.000951	20.772362
915.266325	-3.005200	3.631100	-10.911000	24.866332	0.000950	20.794493
916.265119	-2.993900	3.628600	-10.862000	24.874517	0.000951	20.787061
917.268790	-2.994800	3.630000	-10.870000	24.852533	0.000949	20.769738
918.272319	-2.999900	3.630300	-10.889000	24.862748	0.000950	20.789474
919.265943	-2.980400	3.631000	-10.820000	24.866853	0.000948	20.777472
920.265635	-3.040100	3.628600	-11.030000	24.933164	0.000948	20.783335
921.266876	-3.026500	3.628400	-10.979000	24.935494	0.000948	20.768604
922.267209	-2.993100	3.628500	-10.860000	24.942605	0.000948	20.783328
923.267789	-2.978100	3.630300	-10.811000	24.965833	0.000947	20.805694
924.268167	-2.985700	3.628800	-10.833000	24.947507	0.000946	20.795361
925.266127	-2.992400	3.627900	-10.855000	24.935242	0.000947	20.779731
926.268001	-3.006300	3.626700	-10.901000	24.917291	0.000946	20.764558
927.268469	-3.009700	3.625600	-10.910000	24.918732	0.000945	20.794929
928.268862	-2.987300	3.626600	-10.833000	24.888571	0.000944	20.780303
929.266486	-2.980100	3.626400	-10.806000	24.883896	0.000946	20.786043
930.269150	-2.999400	3.626500	-10.877000	24.914873	0.000943	20.786313
931.269618	-3.007500	3.625500	-10.903000	24.957389	0.000943	20.791055
932.271192	-2.998700	3.625200	-10.869000	24.972936	0.000943	20.780581
933.268888	-3.001900	3.625900	-10.884000	24.961518	0.000943	20.756792
934.270470	-2.996600	3.624700	-10.861000	24.967057	0.000942	20.773258
935.272008	-2.981700	3.625100	-10.808000	24.976904	0.000942	20.765123
936.270077	-3.015900	3.622500	-10.924000	24.917707	0.000943	20.796270
937.270730	-3.001800	3.623600	-10.875000	24.898296	0.000941	20.774417
938.272262	-3.031200	3.622800	-10.980000	24.866286	0.000939	20.777378
939.271416	-3.001100	3.624200	-10.876000	24.850395	0.000940	20.766170
940.275509	-2.994700	3.622800	-10.848000	24.828442	0.000939	20.782070
941.273582	-2.973900	3.623500	-10.774000	24.863182	0.000941	20.759563
942.274155	-3.018500	3.622100	-10.932000	24.870612	0.000941	20.770339
943.275565	-2.996800	3.621500	-10.852000	24.850818	0.000941	20.760431
944.275167	-3.019500	3.621500	-10.933000	24.881159	0.000938	20.769545
945.272943	-2.996800	3.621900	-10.853000	24.908584	0.000935	20.771941
946.273169	-2.994900	3.620800	-10.843000	24.927180	0.000936	20.761681
947.274756	-2.997200	3.620700	-10.851000	24.973034	0.000936	20.770722
948.272429	-2.983100	3.621800	-10.803000	25.008130	0.000937	20.763750
949.277510	-3.015900	3.619700	-10.916000	25.018425	0.000938	20.764126
950.274031	-3.005500	3.620200	-10.879000	25.031357	0.000937	20.758141
951.277722	-3.008800	3.619000	-10.887000	25.083389	0.000935	20.762956
952.278513	-3.017600	3.619900	-10.922000	25.038988	0.000933	20.762482
953.274318	-3.006700	3.619600	-10.881000	25.012364	0.000936	20.762310
954.275212	-3.013200	3.618100	-10.902000	25.004229	0.000934	20.763153
955.279011	-2.995700	3.618700	-10.840000	24.995611	0.000935	20.765408
956.273941	-3.018100	3.617500	-10.917000	25.019670	0.000936	20.748306
957.274828	-2.983400	3.617900	-10.792000	24.996849	0.000934	20.758116
958.273828	-3.003800	3.618700	-10.869000	24.969867	0.000935	20.741938
959.275594	-2.993000	3.619000	-10.831000	24.938052	0.000932	20.761214
960.277531	-2.984800	3.618000	-10.798000	24.916615	0.000935	20.774786
961.274018	-3.009000	3.618100	-10.886000	24.949365	0.000932	20.755499
962.276116	-3.006700	3.617300	-10.876000	24.971040	0.000934	20.762082
963.275129	-3.009900	3.617000	-10.885000	24.992027	0.000931	20.747112
964.274581	-2.973500	3.616900	-10.752000	25.046945	0.000934	20.769995
965.276401	-2.984300	3.616800	-10.793000	25.048467	0.000932	20.757772
966.278132	-2.995300	3.614900	-10.827000	25.079089	0.000930	20.761010
967.278504	-2.984700	3.616300	-10.793000	25.099806	0.000930	20.759995
968.275552	-2.977900	3.616200	-10.767000	25.098333	0.000927	20.735282
969.275345	-3.012100	3.614200	-10.884000	25.129709	0.000929	20.757772
970.278377	-2.995700	3.614900	-10.827000	25.147780	0.000927	20.753153
971.277021	-2.982400	3.616700	-10.785000	25.152828	0.000927	20.763437
972.279988	-2.963000	3.614700	-10.709000	25.164580	0.000928	20.742043
973.277324	-3.009400	3.613700	-10.873000	25.205229	0.000925	20.745394
974.276796	-2.998600	3.615000	-10.838000	25.176020	0.000928	20.763486
975.277484	-3.007400	3.611800	-10.862000	25.184406	0.000926	20.759103
976.278481	-3.011000	3.612400	-10.874000	25.167764	0.000926	20.748559
977.278841	-3.016900	3.612500	-10.898000	25.147381	0.000926	20.743269
978.282388	-2.985100	3.612900	-10.784000	25.132225	0.000927	20.751288
979.278154	-3.011300	3.612100	-10.876000	25.142885	0.000924	20.743023
980.282069	-3.032400	3.610900	-10.948000	25.164195	0.000924	20.753985
981.278682	-3.007900	3.611300	-10.860000	25.160539	0.000924	20.730874
982.279887	-3.008300	3.610800	-10.861000	25.147689	0.000923	20.747846
983.279858	-3.017400	3.612400	-10.898000	25.049142	0.000925	20.740905
984.280094	-2.984200	3.612500	-10.779000	25.031959	0.000922	20.733139
985.283004	-3.036000	3.609300	-10.957000	25.047382	0.000923	20.760950
986.282193	-3.003200	3.610900	-10.843000	25.032057	0.000921	20.735609
987.280006	-3.010400	3.608700	-10.861000	25.014481	0.000924	20.737407
988.282162	-2.988800	3.609600	-10.788000	25.029670	0.000921	20.727997
989.285305	-3.005100	3.609700	-10.846000	25.064348	0.000921	20.750480
990.281696	-3.001400	3.609700	-10.833000	25.068729	0.000920	20.740652
991.283717	-2.994400	3.608200	-10.803000	25.070979	0.000921	20.748127
992.281607	-2.985700	3.609000	-10.774000	25.013082	0.000919	20.726518
993.282392	-2.997200	3.608300	-10.813000	25.037970	0.000919	20.731587
994.282028	-3.013700	3.608700	-10.873000	25.024216	0.000918	20.737221
995.282927	-3.007500	3.607100	-10.846000	25.074831	0.000921	20.735398
996.281003	-2.992800	3.606800	-10.793000	25.075751	0.000920	20.731580
997.283348	-2.974100	3.607000	-10.727000	25.090037	0.000916	20.750663
998.281473	-2.989300	3.606500	-10.780000	25.112734	0.000917	20.742152
999.284580	-2.983000	3.606900	-10.758000	25.123191	0.000916	20.756444
1000.283432	-3.004000	3.605600	-10.829000	25.161897	0.000917	20.727021
1001.287189	-2.986900	3.606000	-10.769000	25.158958	0.000917	20.744460
1002.285690	-3.005500	3.604700	-10.833000	25.167565	0.000915	20.735556
1003.285164	-2.984500	3.604500	-10.756000	25.161498	0.000914	20.719982
1004.284425	-2.986100	3.604000	-10.760000	25.175846	0.000914	20.738654
1005.285486	-2.994000	3.604700	-10.791000	25.154707	0.000913	20.720751
1006.285824	-3.015900	3.603200	-10.866000	25.127761	0.000913	20.723572
1007.288106	-3.014800	3.602500	-10.860000	25.107500	0.000913	20.720302
1008.285708	-3.021800	3.601200	-10.881000	25.152647	0.000914	20.713941
1009.289531	-2.976200	3.603900	-10.725000	25.131809	0.000914	20.715307
1010.285017	-2.992400	3.602500	-10.778000	25.155400	0.000911	20.730456
1011.286672	-2.987600	3.603000	-10.763000	25.177518	0.000913	20.716624
1012.288887	-2.957800	3.604200	-10.658000	25.213615	0.000909	20.729631
1013.287257	-3.014500	3.601500	-10.854000	25.228508	0.000912	20.735100
1014.286323	-2.986000	3.601100	-10.752000	25.211849	0.000911	20.733547
1015.287097	-2.991600	3.602100	-10.774000	25.170360	0.000911	20.739311
1016.289927	-2.980300	3.601600	-10.733000	25.133765	0.000912	20.743825
1017.286122	-3.001200	3.598600	-10.799000	25.137316	0.000909	20.728897
1018.288236	-2.977600	3.600300	-10.720000	25.122730	0.000911	20.703347
1019.287042	-3.012100	3.600500	-10.844000	25.133317	0.000909	20.720614
1020.290905	-2.982200	3.600000	-10.734000	25.123423	0.000908	20.729648
1021.289281	-2.990500	3.599400	-10.763000	25.142910	0.000906	20.712227
1022.287985	-3.016600	3.597400	-10.851000	25.153399	0.000907	20.727025
1023.293707	-3.014800	3.598100	-10.845000	25.161876	0.000907	20.717991
1024.292100	-2.990000	3.598800	-10.759000	25.163758	0.000905	20.715613
1025.291315	-2.991900	3.598700	-10.764000	25.196470	0.000905	20.714787
1026.291946	-2.994100	3.597900	-10.771000	25.233081	0.000906	20.719301
1027.293321	-3.001000	3.599100	-10.800000	25.188385	0.000906	20.714731
1028.292393	-3.007800	3.595800	-10.815000	25.205289	0.000903	20.735971
1029.295290	-2.999700	3.598000	-10.792000	25.225738	0.000904	20.706712
1030.291295	-2.989700	3.598300	-10.756000	25.191163	0.000904	20.724633
1031.292806	-3.023300	3.595400	-10.869000	25.200713	0.000905	20.725213
1032.293314	-2.997500	3.595800	-10.777000	25.224044	0.000902	20.726825
1033.293661	-2.982400	3.595000	-10.719000	25.239832	0.000901	20.732245
1034.300139	-3.018000	3.593900	-10.845000	25.248879	0.000902	20.705290
1035.295158	-3.002500	3.594500	-10.791000	25.300121	0.000902	20.731135
1036.296341	-2.986800	3.595400	-10.737000	25.312651	0.000901	20.726646
1037.295398	-2.992200	3.594900	-10.755000	25.326591	0.000900	20.705553
1038.297029	-2.997000	3.594300	-10.771000	25.309118	0.000899	20.715511
1039.299188	-3.018500	3.593900	-10.846000	25.274602	0.000898	20.728272
1040.296812	-2.986700	3.593700	-10.732000	25.226123	0.000897	20.728437
1041.296965	-3.000900	3.592200	-10.779000	25.202736	0.000898	20.712069
1042.296096	-3.010200	3.592400	-10.812000	25.152444	0.000897	20.718954
1043.296733	-2.983400	3.592500	-10.717000	25.146084	0.000895	20.709248
1044.299409	-3.001000	3.592300	-10.780000	25.161075	0.000898	20.716238
1045.298821	-2.990000	3.592200	-10.740000	25.153788	0.000895	20.708922
1046.297798	-2.992100	3.591600	-10.745000	25.142575	0.000897	20.738444
1047.296348	-2.989600	3.591900	-10.736000	25.133559	0.000893	20.715167
1048.299706	-2.995400	3.591300	-10.756000	25.150254	0.000895	20.710590
1049.298523	-3.001000	3.591600	-10.777000	25.164682	0.000897	20.716540
1050.302683	-3.003300	3.591300	-10.784000	25.165424	0.000894	20.703534
1051.299512	-2.989300	3.590700	-10.733000	25.146679	0.000893	20.704630
1052.299628	-3.012400	3.590000	-10.814000	25.152046	0.000893	20.713811
1053.298743	-2.994000	3.588300	-10.743000	25.101630	0.000893	20.719150
1054.300069	-2.998700	3.589100	-10.762000	25.101808	0.000894	20.725968
1055.303650	-2.985700	3.590200	-10.718000	25.109470	0.000894	20.725599
1056.301181	-3.006500	3.589100	-10.789000	25.114187	0.000892	20.708521
1057.303253	-2.998100	3.587000	-10.754000	25.145465	0.000891	20.722852
1058.302439	-2.980700	3.589300	-10.698000	25.126093	0.000891	20.698662
1059.301369	-3.002200	3.587000	-10.767000	25.138030	0.000890	20.723449
1060.302490	-3.012900	3.586700	-10.806000	25.135791	0.000889	20.705079
1061.302473	-2.992700	3.587400	-10.736000	25.171165	0.000889	20.683691
1062.302729	-3.017900	3.585900	-10.821000	25.164056	0.000890	20.711170
1063.302934	-3.013500	3.584600	-10.801000	25.173639	0.000887	20.699452
1064.302090	-3.015300	3.584800	-10.807000	25.166841	0.000889	20.716811
1065.301886	-3.000300	3.585300	-10.756000	25.173583	0.000888	20.738753
1066.304061	-3.005400	3.585300	-10.773000	25.174024	0.000888	20.722125
1067.302033	-2.981900	3.586100	-10.691000	25.180366	0.000886	20.729442
1068.307265	-2.996500	3.585600	-10.742000	25.190928	0.000886	20.730088
1069.303210	-3.011300	3.582600	-10.787000	25.186279	0.000887	20.703607
1070.302614	-2.979600	3.584800	-10.680000	25.224167	0.000886	20.716990
1071.309793	-2.992900	3.583200	-10.723000	25.258643	0.000884	20.706084
1072.302853	-3.006400	3.583400	-10.772000	25.281483	0.000884	20.732810
1073.302276	-2.991900	3.582500	-10.717000	25.277233	0.000885	20.717636
1074.302992	-2.997700	3.584100	-10.743000	25.314792	0.000883	20.706034
1075.302286	-3.006200	3.581100	-10.764000	25.315803	0.000883	20.713688
1076.302671	-2.999400	3.580400	-10.737000	25.339471	0.000882	20.690035
1077.306175	-2.980100	3.583200	-10.678000	25.350430	0.000881	20.730913
1078.304766	-2.999400	3.582400	-10.743000	25.359231	0.000881	20.740699
1079.304177	-2.989100	3.579900	-10.699000	25.370263	0.000880	20.720956
1080.305304	-3.005600	3.580400	-10.759000	25.397057	0.000880	20.709452
1081.307157	-3.006400	3.580500	-10.764000	25.378543	0.000879	20.703664
1082.309702	-3.024800	3.578900	-10.824000	25.357618	0.000879	20.691661
1083.306604	-2.972500	3.580800	-10.642000	25.317423	0.000878	20.700615
1084.307207	-3.014100	3.578800	-10.786000	25.309965	0.000878	20.702136
1085.304881	-3.010700	3.580200	-10.778000	25.298442	0.000878	20.715697
1086.305851	-2.990900	3.579100	-10.702000	25.335448	0.000877	20.721560
1087.307454	-3.002500	3.580000	-10.747000	25.320385	0.000876	20.720660
1088.305344	-3.006100	3.578000	-10.755000	25.321876	0.000876	20.706509
1089.306569	-3.000200	3.577000	-10.731000	25.276190	0.000874	20.699993
1090.305050	-3.005400	3.577200	-10.749000	25.298330	0.000875	20.720327
1091.305984	-3.015700	3.576900	-10.785000	25.291897	0.000874	20.716238
1092.305169	-2.976400	3.576900	-10.645000	25.287622	0.000873	20.724749
1093.312211	-3.014600	3.575900	-10.777000	25.280287	0.000874	20.706003
1094.307916	-3.002900	3.576600	-10.739000	25.289830	0.000873	20.723172
1095.306976	-3.008400	3.576300	-10.759000	25.304899	0.000873	20.721233
1096.306900	-2.996400	3.575800	-10.714000	25.312326	0.000872	20.732484
1097.306436	-3.009600	3.575100	-10.759000	25.284789	0.000874	20.717636
1098.308721	-2.996300	3.574900	-10.710000	25.297435	0.000872	20.708996
1099.306986	-3.015200	3.574000	-10.775000	25.227994	0.000873	20.717988
1100.310523	-2.997800	3.574800	-10.715000	25.215837	0.000870	20.728068
1101.306220	-2.983800	3.574400	-10.664000	25.196099	0.000872	20.696396
1102.305878	-3.000100	3.573400	-10.719000	25.183568	0.000870	20.726017
1103.309530	-3.004900	3.572300	-10.733000	25.190253	0.000869	20.724668
1104.310825	-2.995200	3.573200	-10.701000	25.203624	0.000867	20.724342
1105.306270	-2.988100	3.573800	-10.679000	25.229576	0.000870	20.713411
1106.306183	-2.983500	3.572400	-10.655000	25.278244	0.000868	20.721497
1107.307225	-3.000000	3.571600	-10.713000	25.292380	0.000870	20.734742
1108.305285	-2.987800	3.572900	-10.674000	25.310724	0.000867	20.704321
1109.312091	-2.992400	3.572100	-10.688000	25.329491	0.000865	20.717949
1110.309465	-3.001000	3.570600	-10.715000	25.361026	0.000865	20.724008
1111.309245	-3.017400	3.569400	-10.769000	25.381772	0.000864	20.709277
1112.307417	-3.005600	3.570500	-10.730000	25.422731	0.000865	20.714370
1113.308173	-2.996200	3.570900	-10.698000	25.438208	0.000864	20.735129
1114.309350	-3.028900	3.569500	-10.810000	25.471814	0.000862	20.708181
1115.307722	-3.020400	3.568700	-10.778000	25.455011	0.000862	20.730190
1116.308386	-3.005600	3.569200	-10.726000	25.439422	0.000862	20.732080
1117.309013	-2.996000	3.570100	-10.694000	25.408485	0.000860	20.719031
1118.308644	-2.988000	3.569500	-10.664000	25.420982	0.000863	20.727788
1119.310242	-2.999600	3.568700	-10.703000	25.427072	0.000860	20.741016
1120.309923	-2.989400	3.568600	-10.667000	25.403934	0.000861	20.740067
1121.309855	-2.973700	3.569300	-10.613000	25.423441	0.000859	20.723144
1122.313273	-3.003400	3.566700	-10.711000	25.433438	0.000860	20.736976
1123.310664	-2.981700	3.567100	-10.635000	25.441409	0.000859	20.734075
1124.310874	-2.996600	3.567700	-10.689000	25.440562	0.000859	20.729432
1125.315409	-3.002200	3.566700	-10.706000	25.454525	0.000857	20.736341
1126.312625	-3.008200	3.565600	-10.724000	25.418541	0.000856	20.734346
1127.315437	-2.988500	3.565600	-10.654000	25.397666	0.000855	20.741834
1128.316465	-2.993900	3.566200	-10.676000	25.400989	0.000856	20.735688
1129.312777	-3.013400	3.564800	-10.740000	25.427782	0.000855	20.704268
1130.314850	-2.984100	3.566700	-10.643000	25.438373	0.000855	20.740984
1131.317101	-2.997700	3.564200	-10.683000	25.454256	0.000855	20.713784
1132.312486	-2.986700	3.564800	-10.646000	25.463203	0.000856	20.753590
1133.313523	-3.013400	3.562500	-10.734000	25.435540	0.000853	20.759477
1134.314212	-3.000400	3.564200	-10.693000	25.429076	0.000854	20.751564
1135.314879	-3.003300	3.563400	-10.701000	25.427163	0.000854	20.721192
1136.316661	-2.972700	3.564800	-10.596000	25.412304	0.000853	20.717177
1137.314128	-3.003100	3.561500	-10.695000	25.441199	0.000852	20.756625
1138.317862	-3.000900	3.562300	-10.689000	25.473590	0.000852	20.745529
1139.330075	-2.996000	3.562100	-10.671000	25.472818	0.000850	20.734795
1140.318947	-3.000200	3.560800	-10.683000	25.444690	0.000849	20.720299
1141.317045	-2.982600	3.561500	-10.620000	25.438048	0.000848	20.734493
1142.317522	-3.000200	3.562100	-10.685000	25.409464	0.000847	20.740405
1143.317613	-2.980000	3.560800	-10.610000	25.395207	0.000849	20.723717
1144.319132	-3.006800	3.560300	-10.705000	25.419534	0.000848	20.728231
1145.320084	-3.015800	3.559900	-10.735000	25.423466	0.000847	20.767741
1146.320541	-3.008900	3.558600	-10.706000	25.400769	0.000846	20.762494
1147.323202	-3.001900	3.559600	-10.685000	25.397838	0.000847	20.753861
1148.321271	-3.015900	3.558700	-10.732000	25.386228	0.000847	20.742203
1149.322483	-2.996500	3.559000	-10.662000	25.371443	0.000846	20.737788
1150.323199	-3.012900	3.557500	-10.718000	25.364286	0.000845	20.731550
1151.322747	-3.011500	3.557400	-10.711000	25.403210	0.000845	20.739815
1152.325446	-3.003300	3.559700	-10.689000	25.415040	0.000846	20.736046
1153.323330	-3.007300	3.556300	-10.693000	25.431143	0.000844	20.744630
1154.324040	-2.991800	3.557500	-10.642000	25.416708	0.000843	20.745308
1155.322889	-3.011300	3.556800	-10.708000	25.407233	0.000843	20.740535
1156.326556	-2.983500	3.556200	-10.608000	25.426495	0.000844	20.754661
1157.325997	-3.010300	3.555900	-10.703000	25.427936	0.000842	20.738564
1158.325114	-2.988000	3.556200	-10.625000	25.401713	0.000841	20.743053
1159.325449	-2.984100	3.557000	-10.613000	25.386774	0.000840	20.718568
1160.324149	-2.992300	3.555100	-10.636000	25.409660	0.000841	20.755301
1161.325038	-3.006300	3.554000	-10.684000	25.433056	0.000839	20.748922
1162.325322	-3.003000	3.555000	-10.672000	25.417198	0.000840	20.737739
1163.325526	-3.005700	3.554900	-10.684000	25.391454	0.000837	20.773056
1164.327463	-3.006200	3.554000	-10.683000	25.375318	0.000839	20.755431
1165.332098	-2.996400	3.553300	-10.645000	25.383143	0.000837	20.762814
1166.327676	-3.014300	3.552200	-10.706000	25.396568	0.000840	20.756853
1167.325817	-3.010100	3.552800	-10.693000	25.399573	0.000838	20.744223
1168.331374	-3.004600	3.553500	-10.676000	25.401535	0.000839	20.764686
1169.325270	-3.029700	3.551700	-10.759000	25.432105	0.000836	20.750338
1170.327880	-3.007000	3.551600	-10.678000	25.442420	0.000835	20.762118
1171.330250	-2.977500	3.552400	-10.575000	25.455120	0.000835	20.775346
1172.329490	-2.988900	3.552000	-10.616000	25.442346	0.000834	20.744974
1173.330603	-2.972700	3.552200	-10.558000	25.456316	0.000835	20.763270
1174.335100	-2.988400	3.550500	-10.608000	25.446921	0.000836	20.763319
1175.332362	-3.000600	3.550900	-10.654000	25.440230	0.000832	20.755178
1176.333030	-3.000000	3.549900	-10.649000	25.432228	0.000830	20.770850
1177.332519	-3.002000	3.550600	-10.658000	25.467610	0.000830	20.774138
1178.338956	-3.008100	3.547900	-10.671000	25.474497	0.000829	20.750233
1179.336645	-3.048500	3.547300	-10.813000	25.472503	0.000831	20.762930
1180.333159	-2.977900	3.549200	-10.567000	25.478379	0.000831	20.760295
1181.334245	-2.998600	3.548100	-10.638000	25.525035	0.000831	20.756415
1182.335826	-3.025200	3.547500	-10.731000	25.518565	0.000829	20.765090
1183.334457	-2.982900	3.549500	-10.585000	25.529977	0.000831	20.759955
1184.335266	-3.019400	3.546000	-10.705000	25.516260	0.000828	20.766095
1185.333938	-3.011200	3.547100	-10.680000	25.490211	0.000828	20.757005
1186.338075	-3.010800	3.545600	-10.674000	25.507479	0.000827	20.779087
1187.336101	-3.010900	3.545700	-10.675000	25.463273	0.000828	20.784956
1188.337059	-2.992900	3.546800	-10.614000	25.454988	0.000826	20.764781
1189.339874	-2.978400	3.546500	-10.562000	25.457723	0.000825	20.787443
1190.336890	-3.001600	3.545100	-10.640000	25.449713	0.000826	20.770391
1191.336640	-2.967600	3.547100	-10.525000	25.493902	0.000825	20.764030
1192.337160	-2.988500	3.545400	-10.594000	25.531275	0.000823	20.770268
1193.336232	-3.019400	3.543200	-10.697000	25.569242	0.000823	20.801285
1194.339351	-2.997700	3.543800	-10.622000	25.542876	0.000824	20.768167
1195.338080	-3.006600	3.543300	-10.650000	25.529324	0.000822	20.781111
1196.340160	-3.001000	3.543700	-10.634000	25.541330	0.000821	20.771357
1197.339317	-2.995400	3.543300	-10.613000	25.540631	0.000823	20.776344
1198.337969	-3.023700	3.543000	-10.712000	25.535867	0.000820	20.798113
1199.341232	-2.995500	3.543100	-10.613000	25.537749	0.000819	20.766338
1200.346578	-3.005700	3.543100	-10.648000	25.560111	0.000821	20.764613
1201.340424	-3.025600	3.539400	-10.707000	25.565102	0.000820	20.791437
1202.340989	-2.991300	3.542500	-10.596000	25.599168	0.000817	20.765432
1203.341738	-3.004900	3.541200	-10.640000	25.613510	0.000817	20.778887
1204.341373	-2.967800	3.542900	-10.513000	25.618892	0.000818	20.784767
1205.345895	-2.984500	3.540500	-10.566000	25.626925	0.000817	20.785722
1206.342626	-2.994600	3.540800	-10.602000	25.643840	0.000818	20.786116
1207.345821	-2.958200	3.541400	-10.475000	25.612062	0.000815	20.794029
1208.343711	-3.002900	3.540000	-10.627000	25.605876	0.000818	20.774539
1209.342803	-2.984200	3.541400	-10.567000	25.590492	0.000814	20.784693
1210.345430	-2.978600	3.540500	-10.544000	25.593006	0.000815	20.787693
1211.344049	-2.998800	3.539300	-10.613000	25.579063	0.000812	20.783172
1212.345436	-3.018600	3.537200	-10.676000	25.586592	0.000812	20.785045
1213.345587	-3.005400	3.538700	-10.634000	25.564875	0.000813	20.786941
1214.344644	-3.001300	3.537700	-10.617000	25.538638	0.000814	20.801844
1215.344381	-3.014500	3.536100	-10.658000	25.535056	0.000812	20.787816
1216.349573	-2.965800	3.538300	-10.492000	25.545965	0.000811	20.789761
1217.345157	-3.002700	3.536500	-10.618000	25.601025	0.000811	20.782944
1218.346550	-2.984300	3.536900	-10.554000	25.603589	0.000810	20.807330
1219.346837	-2.985400	3.535100	-10.554000	25.581147	0.000811	20.796171
1220.346641	-2.992800	3.535400	-10.579000	25.588775	0.000811	20.801935
1221.348643	-2.983000	3.536400	-10.549000	25.632835	0.000810	20.800667
1222.346649	-2.994200	3.536200	-10.587000	25.621774	0.000808	20.782920
1223.346975	-3.005500	3.533400	-10.618000	25.626715	0.000809	20.794047
1224.347043	-3.037700	3.532800	-10.730000	25.616256	0.000808	20.807723
1225.346161	-3.006000	3.534100	-10.622000	25.605519	0.000807	20.818752
1226.349079	-3.009700	3.533600	-10.633000	25.572331	0.000807	20.807706
1227.349897	-3.026000	3.532000	-10.686000	25.592398	0.000806	20.787082
1228.346240	-2.996300	3.533600	-10.587000	25.576604	0.000805	20.774539
1229.345925	-3.004600	3.532900	-10.614000	25.533364	0.000807	20.803660
1230.345067	-3.007000	3.531700	-10.618000	25.514999	0.000807	20.793751
1231.347078	-2.979300	3.533400	-10.525000	25.520965	0.000806	20.807804
1232.350148	-2.978400	3.533000	-10.522000	25.565672	0.000803	20.788216
1233.346014	-3.004500	3.530100	-10.605000	25.607219	0.000804	20.809553
1234.347934	-3.022500	3.530700	-10.669000	25.600959	0.000805	20.791886
1235.345891	-2.987700	3.532900	-10.554000	25.607348	0.000803	20.797355
1236.346434	-2.985400	3.531400	-10.541000	25.605729	0.000802	20.792884
1237.349786	-2.982700	3.532000	-10.534000	25.614601	0.000802	20.799424
1238.348682	-3.000600	3.529800	-10.591000	25.636391	0.000801	20.791437
1239.351815	-3.014600	3.529300	-10.638000	25.634503	0.000800	20.802342
1240.351210	-3.019600	3.528700	-10.655000	25.645337	0.000799	20.811801
1241.349839	-2.993800	3.528700	-10.563000	25.672774	0.000800	20.827029
1242.354542	-3.003700	3.528600	-10.598000	25.702043	0.000800	20.801900
1243.354447	-2.995300	3.528000	-10.566000	25.711827	0.000799	20.814572
1244.350800	-3.011300	3.526100	-10.618000	25.695206	0.000799	20.814473
1245.352576	-2.994700	3.527400	-10.563000	25.690884	0.000797	20.816296
1246.353613	-2.979900	3.527100	-10.509000	25.707861	0.000798	20.812959
1247.353240	-3.014600	3.526100	-10.629000	25.690045	0.000797	20.787004
1248.355828	-3.005700	3.527300	-10.601000	25.690989	0.000796	20.804074
1249.354052	-2.999400	3.527000	-10.578000	25.681628	0.000795	20.804628
1250.357049	-2.999100	3.525900	-10.574000	25.703711	0.000797	20.820170
1251.353503	-2.995500	3.526300	-10.562000	25.723635	0.000794	20.834967
1252.353836	-3.022100	3.525200	-10.652000	25.710627	0.000795	20.813841
1253.355286	-3.005600	3.525600	-10.596000	25.710854	0.000794	20.823078
1254.354884	-3.028500	3.525300	-10.674000	25.667049	0.000792	20.812271
1255.356410	-2.997000	3.523800	-10.559000	25.656932	0.000793	20.831033
1256.353510	-2.996400	3.523000	-10.555000	25.662769	0.000793	20.811765
1257.355238	-3.005300	3.522600	-10.585000	25.670231	0.000791	20.814519
1258.359541	-2.995600	3.524100	-10.556000	25.674382	0.000790	20.826274
1259.355793	-3.003900	3.522800	-10.580000	25.681984	0.000790	20.823004
1260.359002	-2.992900	3.522300	-10.539000	25.672739	0.000790	20.818933
1261.358977	-2.982200	3.521400	-10.501000	25.657834	0.000791	20.820559
1262.356893	-3.001600	3.521400	-10.569000	25.657810	0.000790	20.839501
1263.358263	-2.979500	3.521400	-10.492000	25.659471	0.000789	20.832634
1264.362305	-2.995200	3.521000	-10.545000	25.659502	0.000788	20.820338
1265.359523	-3.005800	3.521200	-10.583000	25.685981	0.000787	20.839346
1266.359278	-3.014400	3.519200	-10.607000	25.710358	0.000789	20.813096
1267.358528	-3.010600	3.521700	-10.601000	25.730908	0.000786	20.827099
1268.358888	-2.997100	3.519300	-10.547000	25.737835	0.000787	20.824574
1269.363386	-3.014800	3.519900	-10.611000	25.741570	0.000786	20.835437
1270.359702	-3.014900	3.517600	-10.604000	25.723387	0.000784	20.810536
1271.365120	-2.997800	3.517500	-10.544000	25.697839	0.000782	20.839402
1272.363278	-2.979000	3.518100	-10.479000	25.717788	0.000782	20.844741
1273.362558	-3.012200	3.517500	-10.594000	25.716078	0.000782	20.839704
1274.363689	-2.999100	3.517900	-10.550000	25.732698	0.000781	20.832690
1275.363160	-3.007200	3.516700	-10.574000	25.735304	0.000783	20.858065
1276.362377	-3.007600	3.517700	-10.579000	25.716330	0.000780	20.853233
1277.362097	-2.988500	3.517200	-10.510000	25.704805	0.000782	20.843079
1278.362733	-3.007100	3.515100	-10.569000	25.683414	0.000780	20.854785
1279.362584	-3.012900	3.514900	-10.589000	25.694639	0.000781	20.852783
1280.368863	-3.002100	3.515600	-10.554000	25.714215	0.000779	20.844470
1281.366761	-2.996100	3.515300	-10.532000	25.723589	0.000778	20.848670
1282.364682	-2.994800	3.514400	-10.524000	25.727041	0.000781	20.838387
1283.362686	-2.991100	3.514900	-10.511000	25.736929	0.000779	20.835043
1284.364139	-2.996300	3.513900	-10.528000	25.756290	0.000777	20.843111
1285.368087	-2.987800	3.515400	-10.502000	25.775050	0.000775	20.847255
1286.363215	-2.990200	3.512300	-10.501000	25.797896	0.000775	20.843177
1287.366288	-2.998500	3.513500	-10.534000	25.810966	0.000775	20.837340
1288.364209	-2.991800	3.514000	-10.512000	25.830197	0.000774	20.833424
1289.366532	-2.997200	3.511800	-10.524000	25.798375	0.000775	20.852667
1290.368934	-3.000700	3.511800	-10.538000	25.777183	0.000775	20.842285
1291.374202	-2.984800	3.511700	-10.481000	25.729156	0.000774	20.830081
1292.365965	-2.996800	3.510500	-10.519000	25.707840	0.000772	20.857033
1293.365386	-2.981100	3.511000	-10.465000	25.668510	0.000772	20.841713
1294.366343	-3.000500	3.510100	-10.531000	25.645825	0.000770	20.844059
1295.365664	-2.999700	3.510100	-10.528000	25.644839	0.000772	20.859189
1296.377404	-3.013800	3.508700	-10.573000	25.669479	0.000772	20.837944
1297.367579	-2.991100	3.509000	-10.494000	25.680907	0.000771	20.837094
1298.369821	-3.008400	3.507700	-10.549000	25.693922	0.000769	20.840210
1299.368481	-2.987300	3.510400	-10.485000	25.701752	0.000769	20.865616
1300.371020	-2.993300	3.508000	-10.500000	25.750171	0.000771	20.856404
1301.374554	-2.997700	3.508400	-10.516000	25.738223	0.000769	20.851515
1302.368270	-2.998100	3.507400	-10.515000	25.762770	0.000770	20.842981
1303.368124	-3.004700	3.507200	-10.537000	25.752679	0.000768	20.828103
1304.370681	-3.004800	3.506600	-10.536000	25.751238	0.000766	20.849889
1305.374896	-3.001500	3.506200	-10.522000	25.769574	0.000766	20.838436
1306.368274	-2.996300	3.505400	-10.502000	25.771578	0.000768	20.828595
1307.372159	-2.955500	3.507100	-10.364000	25.779033	0.000767	20.841773
1308.367752	-2.995500	3.507700	-10.506000	25.795187	0.000767	20.840930
1309.367180	-2.992100	3.505200	-10.488000	25.814355	0.000765	20.853545
1310.367742	-3.009900	3.506100	-10.552000	25.803921	0.000766	20.850652
1311.366689	-2.994500	3.504600	-10.493000	25.785543	0.000765	20.835037
1312.372022	-2.996300	3.504300	-10.499000	25.806355	0.000765	20.825122
1313.368000	-3.006700	3.502700	-10.530000	25.801519	0.000763	20.833540
1314.370279	-2.995700	3.503800	-10.496000	25.835798	0.000762	20.824353
1315.370551	-2.979300	3.503400	-10.437000	25.806085	0.000760	20.834808
1316.369069	-3.002900	3.501700	-10.513000	25.801788	0.000763	20.844242
1317.371614	-3.009400	3.502300	-10.539000	25.780124	0.000762	20.835282
1318.373973	-3.027400	3.501000	-10.598000	25.770910	0.000761	20.845468
1319.370790	-3.014200	3.501900	-10.555000	25.765214	0.000761	20.837376
1320.369752	-3.005100	3.501000	-10.520000	25.795627	0.000760	20.830941
1321.370513	-3.006600	3.500900	-10.525000	25.793690	0.000758	20.829944
1322.371207	-2.998000	3.500900	-10.496000	25.800078	0.000760	20.845369
1323.374535	-2.975900	3.501400	-10.418000	25.822239	0.000760	20.825905
1324.374097	-3.020400	3.497500	-10.563000	25.818089	0.000758	20.830271
1325.378751	-2.988700	3.499900	-10.459000	25.789491	0.000760	20.839476
1326.372874	-3.008000	3.498300	-10.521000	25.800795	0.000758	20.842770
1327.373142	-3.020100	3.496600	-10.559000	25.803425	0.000757	20.808428
1328.378177	-3.011000	3.497500	-10.530000	25.841193	0.000756	20.816496
1329.373617	-3.017800	3.497100	-10.552000	25.847549	0.000757	20.813398
1330.373589	-2.997300	3.497100	-10.481000	25.835228	0.000757	20.822832
1331.374897	-3.007300	3.496800	-10.514000	25.809439	0.000754	20.802616
1332.373988	-3.012400	3.496100	-10.531000	25.832942	0.000757	20.818164
1333.373499	-2.983500	3.497000	-10.432000	25.845459	0.000754	20.816039
1334.377316	-2.997400	3.495600	-10.476000	25.856388	0.000754	20.815639
1335.373293	-3.023800	3.496000	-10.570000	25.803474	0.000753	20.826021
1336.373774	-3.005100	3.496500	-10.507000	25.789232	0.000752	20.835897
1337.373503	-2.996800	3.495800	-10.476000	25.755791	0.000754	20.809419
1338.374511	-2.999800	3.495400	-10.484000	25.724782	0.000752	20.809092
1339.377179	-2.990200	3.494900	-10.449000	25.733003	0.000753	20.816401
1340.375695	-2.999600	3.493700	-10.478000	25.756403	0.000752	20.842276
1341.380616	-2.991700	3.493200	-10.449000	25.792953	0.000750	20.793168
1342.376263	-3.022200	3.492500	-10.554000	25.822708	0.000749	20.812626
1343.376061	-3.016600	3.493200	-10.536000	25.862902	0.000749	20.810329
1344.385230	-2.989500	3.493100	-10.442000	25.848742	0.000749	20.800372
1345.378216	-2.985000	3.492400	-10.423000	25.800946	0.000748	20.798826
1346.378386	-3.011700	3.491800	-10.515000	25.809345	0.000747	20.796357
1347.378088	-2.981500	3.491100	-10.408000	25.817491	0.000749	20.802644
1348.379157	-3.023100	3.490900	-10.552000	25.772544	0.000746	20.810125
1349.379207	-3.021500	3.489500	-10.542000	25.756592	0.000747	20.800267
1350.380340	-3.020800	3.488800	-10.539000	25.774757	0.000745	20.799547
1351.378431	-2.981000	3.489600	-10.401000	25.804544	0.000745	20.804811
1352.387276	-3.009000	3.489300	-10.497000	25.780611	0.000744	20.818228
1353.379418	-2.999700	3.490400	-10.469000	25.730231	0.000746	20.806030
1354.380703	-3.008300	3.488500	-10.492000	25.725835	0.000744	20.797822
1355.381666	-2.985400	3.488800	-10.415000	25.720513	0.000743	20.793899
1356.379001	-3.000400	3.489000	-10.466000	25.711747	0.000744	20.826819
1357.382144	-3.017000	3.488400	-10.525000	25.738525	0.000742	20.800137
1358.379110	-2.999300	3.487300	-10.459000	25.776509	0.000743	20.798936
1359.379271	-3.002700	3.486600	-10.468000	25.794576	0.000742	20.813290
1360.379474	-3.011400	3.485400	-10.495000	25.842372	0.000741	20.791602
1361.384322	-3.000700	3.486800	-10.462000	25.827660	0.000741	20.791521
1362.380555	-2.996500	3.486800	-10.447000	25.802195	0.000740	20.812883
1363.380265	-3.005000	3.485700	-10.473000	25.796604	0.000740	20.785930
1364.381061	-2.989000	3.486800	-10.421000	25.765345	0.000738	20.806687
1365.381614	-3.020400	3.484200	-10.522000	25.792496	0.000737	20.785122
1366.385292	-2.979300	3.485800	-10.383000	25.794255	0.000738	20.785467
1367.381196	-2.984000	3.484200	-10.396000	25.809255	0.000738	20.779197
1368.383097	-2.991600	3.484600	-10.424000	25.817041	0.000736	20.811201
1369.382655	-3.005100	3.484800	-10.472000	25.800262	0.000737	20.814260
1370.382783	-2.968500	3.485000	-10.344000	25.836086	0.000736	20.793348
1371.384357	-2.984300	3.482800	-10.391000	25.838740	0.000736	20.802178
1372.382984	-2.973800	3.482900	-10.356000	25.800311	0.000736	20.807197
1373.385049	-3.005000	3.482100	-10.462000	25.783881	0.000736	20.798280
1374.384617	-2.992300	3.481900	-10.418000	25.782612	0.000733	20.794160
1375.383234	-2.999300	3.480400	-10.438000	25.805815	0.000735	20.784277
1376.384146	-2.996700	3.480400	-10.430000	25.809867	0.000735	20.789296
1377.385097	-3.010900	3.478500	-10.473000	25.829342	0.000732	20.799376
1378.383451	-2.985900	3.480300	-10.391000	25.794363	0.000732	20.789369
1379.385461	-2.996700	3.479500	-10.426000	25.776818	0.000730	20.775538
1380.384923	-3.024000	3.477800	-10.515000	25.800567	0.000732	20.785169
1381.388120	-2.998000	3.478400	-10.427000	25.793836	0.000731	20.790736
1382.386681	-3.016300	3.478000	-10.489000	25.828930	0.000731	20.778099
1383.385588	-3.007600	3.476200	-10.454000	25.817081	0.000730	20.769989
1384.387020	-2.995400	3.476800	-10.414000	25.810993	0.000728	20.785685
1385.385901	-3.016700	3.476100	-10.485000	25.847534	0.000729	20.776399
1386.387518	-3.006000	3.476500	-10.450000	25.846094	0.000727	20.794392
1387.389456	-3.006600	3.477600	-10.454000	25.885050	0.000728	20.768566
1388.385420	-2.988900	3.476300	-10.390000	25.909715	0.000728	20.781018
1389.387078	-3.003900	3.474800	-10.437000	25.886710	0.000727	20.783511
1390.389031	-2.988900	3.474600	-10.383000	25.845671	0.000728	20.785907
1391.387079	-3.005700	3.473000	-10.438000	25.833441	0.000726	20.783104
1392.389780	-3.007600	3.473100	-10.445000	25.826888	0.000724	20.772254
1393.389576	-2.992900	3.474700	-10.399000	25.860946	0.000724	20.775647
1394.393685	-2.999100	3.473800	-10.418000	25.894011	0.000725	20.788948
1395.391346	-3.015300	3.471900	-10.467000	25.924763	0.000722	20.777642
1396.390639	-2.992300	3.473000	-10.391000	25.889560	0.000724	20.781158
1397.396426	-3.000900	3.472800	-10.421000	25.894360	0.000724	20.790722
1398.391509	-2.986700	3.471900	-10.368000	25.925179	0.000724	20.779957
1399.391361	-3.014900	3.470700	-10.462000	25.936555	0.000723	20.786171
1400.391637	-3.002600	3.469500	-10.417000	25.958475	0.000722	20.785433
1401.391148	-2.991500	3.470800	-10.382000	25.988331	0.000722	20.790771
1402.391069	-2.970800	3.471400	-10.312000	25.983709	0.000721	20.789447
1403.397193	-2.995500	3.470300	-10.394000	25.980234	0.000722	20.774576
1404.391479	-3.015800	3.468500	-10.460000	25.966247	0.000720	20.774274
1405.392982	-3.020800	3.468200	-10.475000	25.939467	0.000721	20.775345
1406.393520	-2.994300	3.468200	-10.384000	25.927423	0.000719	20.769884
1407.395398	-3.012700	3.469600	-10.452000	25.913760	0.000720	20.787452
1408.394369	-3.001600	3.468600	-10.410000	25.876099	0.000719	20.762420
1409.393252	-3.011700	3.467200	-10.441000	25.875701	0.000717	20.782883
1410.393673	-3.013800	3.467000	-10.448000	25.866041	0.000720	20.773652
1411.392487	-2.984300	3.468500	-10.351000	25.896248	0.000719	20.771756
1412.392493	-3.001900	3.466800	-10.406000	25.850066	0.000715	20.769459
1413.396277	-2.984500	3.466600	-10.345000	25.855184	0.000717	20.780291
1414.396021	-3.019700	3.465200	-10.463000	25.858691	0.000716	20.774330
1415.396030	-2.987100	3.466300	-10.354000	25.884847	0.000714	20.767414
1416.397981	-2.976800	3.466600	-10.319000	25.888256	0.000715	20.772261
1417.397610	-2.988800	3.465100	-10.356000	25.910880	0.000713	20.765117
1418.396633	-3.007800	3.464300	-10.419000	25.917169	0.000713	20.767643
1419.397786	-3.000700	3.464700	-10.395000	25.934209	0.000713	20.762476
1420.397585	-2.985100	3.464400	-10.341000	25.899951	0.000711	20.781639
1421.404020	-3.002700	3.464600	-10.401000	25.841153	0.000710	20.758609
1422.397577	-2.989300	3.464800	-10.355000	25.842895	0.000712	20.774109
1423.397719	-2.992700	3.463100	-10.363000	25.825584	0.000711	20.760987
1424.403066	-2.981000	3.462100	-10.320000	25.844636	0.000712	20.758314
1425.398017	-2.997700	3.461200	-10.375000	25.784266	0.000711	20.768320
1426.398702	-2.985400	3.462000	-10.334000	25.785829	0.000711	20.755191
1427.396884	-2.990200	3.460800	-10.348000	25.785185	0.000709	20.767347
1428.397153	-2.977200	3.462700	-10.308000	25.761056	0.000710	20.759231
1429.397871	-2.979800	3.461600	-10.314000	25.751842	0.000709	20.743811
1430.402534	-2.973100	3.460700	-10.288000	25.752412	0.000708	20.760506
1431.397855	-2.988000	3.460700	-10.339000	25.794301	0.000708	20.766073
1432.398118	-3.015100	3.458700	-10.427000	25.820042	0.000708	20.737875
1433.399716	-3.024700	3.457900	-10.458000	25.856080	0.000708	20.779767
1434.400797	-3.010000	3.458100	-10.408000	25.887979	0.000706	20.770087
1435.400929	-2.999000	3.458200	-10.370000	25.909047	0.000705	20.743362
1436.400692	-2.992500	3.457800	-10.346000	25.944586	0.000706	20.758676
1437.404063	-3.012500	3.455900	-10.409000	25.908649	0.000704	20.757186
1438.403689	-2.987100	3.457400	-10.327000	25.894857	0.000703	20.751865
1439.401694	-2.990500	3.456000	-10.334000	25.915428	0.000706	20.747875
1440.406687	-2.992700	3.456700	-10.344000	25.896818	0.000701	20.750042
1441.405311	-3.019100	3.454400	-10.429000	25.840853	0.000703	20.756410
1442.405456	-2.982700	3.455400	-10.305000	25.849765	0.000702	20.756828
1443.405444	-3.001500	3.454600	-10.368000	25.837045	0.000702	20.732670
1444.405787	-3.007000	3.455000	-10.388000	25.810490	0.000703	20.746772
1445.405264	-2.988000	3.454200	-10.320000	25.830364	0.000702	20.749192
1446.407901	-3.008900	3.454700	-10.394000	25.855576	0.000701	20.764088
1447.406871	-2.988700	3.453400	-10.319000	25.862184	0.000700	20.734690
1448.406670	-3.000100	3.453100	-10.358000	25.913331	0.000699	20.761890
1449.407252	-3.006300	3.451600	-10.375000	25.906877	0.000699	20.744974
1450.412007	-3.000500	3.452700	-10.359000	25.957426	0.000699	20.736962
1451.408728	-3.014000	3.450400	-10.399000	25.980626	0.000700	20.762641
1452.407720	-3.014000	3.450900	-10.399000	25.940779	0.000698	20.734462
1453.408091	-3.014200	3.448800	-10.395000	25.922917	0.000697	20.761089
1454.408228	-2.989400	3.450600	-10.315000	25.896909	0.000695	20.746341
1455.407161	-2.977400	3.450500	-10.272000	25.930095	0.000696	20.744591
1456.411376	-2.999700	3.449400	-10.346000	25.946939	0.000697	20.747289
1457.407572	-3.018500	3.447800	-10.407000	25.942593	0.000695	20.750984
1458.408500	-2.984300	3.449700	-10.294000	25.957168	0.000694	20.760886
1459.407970	-2.988900	3.449200	-10.308000	25.957469	0.000693	20.716141
1460.408689	-2.972600	3.449900	-10.255000	25.960202	0.000693	20.758718
1461.410500	-3.002600	3.448300	-10.353000	25.990848	0.000694	20.748255
1462.408924	-3.004300	3.447400	-10.356000	25.966044	0.000693	20.741827
1463.409237	-3.004200	3.446200	-10.351000	25.975697	0.000693	20.734455
1464.410813	-3.002400	3.445700	-10.344000	25.964524	0.000694	20.747886
1465.410982	-2.974400	3.447800	-10.254000	25.957021	0.000692	20.735607
1466.410578	-2.992400	3.445800	-10.310000	25.915537	0.000691	20.745139
1467.414237	-3.001000	3.445600	-10.340000	25.882750	0.000689	20.727373
1468.409636	-2.997300	3.444400	-10.323000	25.837658	0.000691	20.723327
1469.410889	-2.997600	3.444200	-10.323000	25.822424	0.000690	20.736475
1470.411040	-2.992400	3.445200	-10.309000	25.823840	0.000690	20.739794
1471.411159	-3.005400	3.442900	-10.347000	25.826997	0.000687	20.723524
1472.415839	-3.003600	3.443000	-10.340000	25.839018	0.000689	20.735600
1473.412459	-3.001100	3.443300	-10.332000	25.809882	0.000688	20.738101
1474.415572	-2.978400	3.444000	-10.257000	25.833458	0.000686	20.737128
1475.411750	-2.969800	3.444100	-10.227000	25.816987	0.000688	20.748083
1476.413172	-3.000400	3.441800	-10.326000	25.830497	0.000686	20.724195
1477.415307	-3.000300	3.442000	-10.326000	25.851370	0.000685	20.719084
1478.419201	-3.007100	3.441700	-10.349000	25.867265	0.000687	20.719878
1479.411909	-2.960000	3.442400	-10.188000	25.884054	0.000685	20.731529
1480.416813	-3.017400	3.440400	-10.380000	25.886040	0.000685	20.723566
1481.413295	-3.003300	3.441100	-10.334000	25.894794	0.000683	20.744216
1482.414958	-3.001600	3.439900	-10.324000	25.905625	0.000682	20.716689
1483.415092	-2.988000	3.439700	-10.276000	25.938853	0.000680	20.715930
1484.413551	-3.014000	3.437900	-10.361000	25.920648	0.000683	20.732730
1485.417279	-2.983700	3.438900	-10.259000	25.893868	0.000680	20.738543
1486.414830	-3.000600	3.438500	-10.316000	25.909443	0.000679	20.741388
1487.414922	-3.019300	3.438000	-10.379000	25.902689	0.000680	20.705203
1488.418836	-3.000200	3.438200	-10.315000	25.904479	0.000679	20.734030
1489.415289	-3.011600	3.437100	-10.350000	25.906391	0.000679	20.718406
1490.415046	-2.996900	3.437000	-10.299000	25.925068	0.000679	20.731006
1491.416201	-2.997300	3.436600	-10.299000	25.905993	0.000679	20.704729
1492.415781	-2.997400	3.437000	-10.301000	25.940698	0.000677	20.703085
1493.415086	-3.004600	3.436300	-10.324000	25.963377	0.000677	20.725396
1494.417481	-3.010300	3.435300	-10.339000	25.971768	0.000677	20.708694
1495.416163	-2.994700	3.435300	-10.287000	25.978651	0.000676	20.718930
1496.417940	-3.001500	3.434200	-10.307000	26.009254	0.000676	20.714588
1497.416617	-3.007800	3.433600	-10.326000	26.029449	0.000676	20.733457
1498.421975	-2.980700	3.434600	-10.236000	26.004111	0.000676	20.721276
1499.420515	-3.006900	3.433200	-10.323000	25.975550	0.000675	20.739997
1500.418063	-3.032700	3.431800	-10.407000	25.957095	0.000675	20.727619
1501.419661	-2.984700	3.433500	-10.248000	25.982304	0.000673	20.697468
1502.419841	-3.000700	3.432200	-10.298000	26.004069	0.000673	20.710802
1503.421288	-2.990400	3.432300	-10.261000	25.978284	0.000673	20.715241
1504.420255	-3.000900	3.431800	-10.296000	25.957444	0.000673	20.727022
1505.420254	-3.004500	3.431100	-10.308000	25.902776	0.000671	20.728051
1506.420674	-2.994400	3.430600	-10.272000	25.870030	0.000672	20.703689
1507.422537	-2.989100	3.431900	-10.258000	25.843329	0.000671	20.718592
1508.421632	-3.004700	3.430000	-10.305000	25.873775	0.000669	20.701761
1509.421697	-2.996000	3.429900	-10.275000	25.856790	0.000672	20.737331
1510.425089	-2.978500	3.429500	-10.214000	25.909604	0.000670	20.727798
1511.423779	-3.001000	3.429400	-10.291000	25.926350	0.000671	20.721388
1512.424350	-2.986100	3.429300	-10.240000	25.942250	0.000670	20.726457
1513.422738	-3.006500	3.426900	-10.302000	25.967729	0.000668	20.724553
1514.423159	-2.992100	3.427100	-10.254000	25.967037	0.000668	20.705838
1515.426404	-2.977800	3.428400	-10.207000	25.977206	0.000668	20.709891
1516.423002	-3.002900	3.428200	-10.293000	25.987638	0.000669	20.699983
1517.426129	-3.024200	3.425400	-10.356000	25.995606	0.000667	20.706565
1518.423376	-3.001300	3.426200	-10.282000	25.979168	0.000667	20.704275
1519.428097	-2.998100	3.426600	-10.271000	25.967890	0.000665	20.712385
1520.425107	-2.994000	3.426000	-10.256000	25.940799	0.000665	20.721205
1521.422700	-2.971800	3.425900	-10.181000	25.909813	0.000664	20.721370
1522.422848	-2.996300	3.424500	-10.258000	25.891504	0.000664	20.708666
1523.423962	-2.991300	3.426000	-10.245000	25.895458	0.000663	20.718328
1524.426138	-2.977400	3.425200	-10.197000	25.933719	0.000663	20.707454
1525.423105	-2.995600	3.423800	-10.256000	25.951857	0.000662	20.714770
1526.426957	-2.987800	3.423500	-10.227000	25.983520	0.000663	20.721451
1527.423738	-2.981700	3.424000	-10.207000	25.979580	0.000663	20.704215
1528.425046	-2.983700	3.423200	-10.213000	26.021956	0.000661	20.724506
1529.425209	-3.000400	3.422700	-10.267000	26.024837	0.000662	20.725978
1530.425501	-3.007300	3.420800	-10.286000	26.055610	0.000661	20.729396
1531.432502	-3.010400	3.421800	-10.300000	26.068596	0.000661	20.730116
1532.428719	-3.023800	3.421200	-10.343000	26.075724	0.000660	20.726846
1533.430991	-2.983800	3.421400	-10.208000	26.028141	0.000659	20.715546
1534.429147	-3.007700	3.421400	-10.289000	26.043046	0.000659	20.705866
1535.429346	-3.001500	3.419300	-10.262000	26.041061	0.000660	20.698180
1536.430656	-3.010400	3.419300	-10.293000	26.049531	0.000657	20.721865
1537.429727	-2.993600	3.419400	-10.235000	26.058693	0.000657	20.699301
1538.429755	-3.015000	3.418700	-10.306000	26.035642	0.000658	20.725929
1539.429489	-2.995000	3.420100	-10.241000	25.976038	0.000657	20.696389
1540.431238	-3.018300	3.417500	-10.314000	25.960181	0.000656	20.724556
1541.429538	-3.050800	3.417000	-10.423000	25.951895	0.000657	20.700583
1542.432226	-2.996200	3.417000	-10.236000	25.974273	0.000657	20.701728
1543.432407	-3.010500	3.416800	-10.285000	25.951846	0.000655	20.704801
1544.431591	-2.980000	3.417100	-10.181000	25.933415	0.000655	20.696241
1545.431317	-2.985600	3.416900	-10.200000	25.903680	0.000654	20.723270
1546.432532	-2.995100	3.415600	-10.229000	25.870235	0.000656	20.705792
1547.437444	-2.991600	3.415900	-10.218000	25.847383	0.000652	20.713182
1548.432616	-3.006000	3.415400	-10.266000	25.865792	0.000653	20.727408
1549.436842	-2.962500	3.415700	-10.117000	25.841345	0.000651	20.715177
1550.430645	-3.012800	3.415300	-10.288000	25.859607	0.000653	20.726884
1551.433195	-2.995000	3.415500	-10.228000	25.859981	0.000651	20.713983
1552.437605	-2.984100	3.414600	-10.189000	25.846146	0.000651	20.731380
1553.439266	-3.011400	3.411900	-10.273000	25.856352	0.000652	20.715553
1554.431707	-3.019600	3.412800	-10.304000	25.884843	0.000651	20.729002
1555.433389	-2.996000	3.412800	-10.223000	25.890800	0.000648	20.728349
1556.433020	-3.003100	3.412300	-10.247000	25.909655	0.000650	20.736860
1557.437257	-2.991500	3.411700	-10.205000	25.918151	0.000648	20.739231
1558.440197	-3.018900	3.411500	-10.297000	25.955461	0.000648	20.721236
1559.437503	-2.977400	3.412000	-10.157000	25.943735	0.000649	20.724155
1560.440987	-3.020300	3.409600	-10.298000	25.934866	0.000648	20.720460
1561.438849	-3.002700	3.411000	-10.241000	25.904880	0.000648	20.716414
1562.437798	-3.008000	3.410500	-10.258000	25.886553	0.000645	20.722185
1563.442643	-2.989600	3.409600	-10.192000	25.881287	0.000645	20.721163
1564.436887	-2.972600	3.409400	-10.134000	25.901307	0.000645	20.701443
1565.437639	-2.986800	3.410100	-10.185000	25.938292	0.000647	20.735283
1566.438594	-2.982300	3.409000	-10.165000	25.950784	0.000644	20.713692
1567.438494	-3.020100	3.406900	-10.288000	25.982160	0.000646	20.725300
1568.438420	-3.001700	3.407600	-10.228000	26.005977	0.000645	20.721728
1569.443034	-3.004700	3.408100	-10.239000	26.027221	0.000644	20.738331
1570.449655	-3.008900	3.405900	-10.247000	26.039166	0.000644	20.717615
1571.440719	-3.014000	3.406500	-10.266000	26.021502	0.000643	20.726895
1572.441051	-2.997400	3.407000	-10.212000	26.037670	0.000643	20.720380
1573.441214	-3.015800	3.405300	-10.268000	26.017727	0.000641	20.740172
1574.442210	-2.997000	3.405400	-10.205000	26.045969	0.000640	20.716863
1575.441409	-2.988800	3.406200	-10.180000	26.046270	0.000640	20.733288
1576.443997	-2.996300	3.405200	-10.202000	26.004684	0.000642	20.723748
1577.442995	-3.012600	3.403900	-10.253000	26.031829	0.000642	20.723994
1578.443479	-3.008600	3.404200	-10.240000	26.039484	0.000639	20.725522
1579.444449	-3.019900	3.403200	-10.276000	26.042162	0.000637	20.726316
1580.444259	-3.004400	3.402100	-10.220000	26.065262	0.000640	20.729610
1581.444198	-3.004900	3.403100	-10.225000	26.096733	0.000639	20.737524
1582.445206	-2.983100	3.402800	-10.148000	26.113267	0.000638	20.732326
1583.445190	-2.999100	3.401500	-10.201000	26.116724	0.000637	20.720151
1584.446827	-2.985100	3.400800	-10.151000	26.120492	0.000635	20.733422
1585.445555	-3.014100	3.400500	-10.248000	26.140667	0.000635	20.743737
1586.446329	-3.020100	3.399700	-10.266000	26.161269	0.000635	20.717022
1587.444362	-2.993000	3.399900	-10.175000	26.178403	0.000636	20.757475
1588.444585	-3.018600	3.400300	-10.263000	26.182748	0.000634	20.740503
1589.450029	-2.976000	3.401200	-10.121000	26.200654	0.000634	20.737633
1590.444740	-3.009100	3.399000	-10.227000	26.213939	0.000633	20.731543
1591.449054	-3.018600	3.398300	-10.256000	26.226655	0.000634	20.720612
1592.445824	-3.006100	3.399600	-10.219000	26.210367	0.000635	20.751188
1593.446146	-3.016700	3.396800	-10.246000	26.223425	0.000634	20.741075
1594.446747	-3.004300	3.397700	-10.206000	26.175744	0.000630	20.743422
1595.448907	-2.998100	3.398100	-10.186000	26.170798	0.000632	20.746987
1596.446957	-3.010900	3.397500	-10.229000	26.136008	0.000631	20.743798
1597.447554	-3.000600	3.396300	-10.190000	26.147707	0.000630	20.745122
1598.450707	-2.997700	3.396700	-10.181000	26.114473	0.000630	20.743021
1599.449665	-2.986000	3.398400	-10.147000	26.112683	0.000630	20.736955
1600.453261	-2.984000	3.396700	-10.134000	26.088396	0.000628	20.763288
1601.447668	-3.005800	3.394600	-10.203000	26.080895	0.000628	20.742948
1602.450033	-2.991200	3.395400	-10.155000	26.046886	0.000626	20.751925
1603.448950	-3.000900	3.394300	-10.185000	26.032882	0.000627	20.726000
1604.449862	-2.997600	3.394100	-10.173000	26.006754	0.000629	20.742898
1605.451779	-2.979400	3.393600	-10.110000	25.987674	0.000626	20.742221
1606.450532	-2.986400	3.394400	-10.135000	26.021475	0.000626	20.759112
1607.452923	-2.993300	3.393200	-10.155000	26.019398	0.000628	20.738058
1608.451146	-2.991100	3.393400	-10.149000	26.001734	0.000625	20.744967
1609.452877	-2.988800	3.393100	-10.140000	25.969065	0.000625	20.751501
1610.453946	-3.010400	3.392600	-10.212000	25.972540	0.000622	20.747405
1611.454609	-2.998900	3.391800	-10.170000	25.949844	0.000622	20.751156
1612.454055	-3.007400	3.391700	-10.198000	25.942139	0.000623	20.733457
1613.456637	-2.984800	3.392300	-10.124000	25.927532	0.000622	20.752923
1614.455865	-3.025400	3.389300	-10.252000	25.899262	0.000623	20.743015
1615.456660	-3.003700	3.389800	-10.181000	25.892599	0.000622	20.776625
1616.459339	-3.021900	3.389000	-10.239000	25.906961	0.000620	20.753120
1617.457882	-3.016400	3.389700	-10.223000	25.923903	0.000622	20.752596
1618.458452	-3.015200	3.388800	-10.217000	25.955378	0.000618	20.767622
1619.457114	-3.007900	3.389500	-10.194000	25.983535	0.000621	20.765564
1620.458838	-3.004400	3.388900	-10.180000	26.024275	0.000619	20.759555
1621.458505	-3.009100	3.388600	-10.195000	26.050036	0.000620	20.756039
1622.459309	-3.003400	3.388200	-10.176000	26.033665	0.000620	20.750496
1623.458422	-2.975400	3.387500	-10.078000	26.060191	0.000618	20.757707
1624.460518	-3.009700	3.387800	-10.195000	26.060240	0.000619	20.762498
1625.459543	-3.002000	3.387800	-10.170000	26.052566	0.000617	20.752417
1626.460510	-3.009300	3.387600	-10.193000	26.039052	0.000618	20.766815
1627.462352	-3.014900	3.385600	-10.206000	26.059712	0.000618	20.771925
1628.458689	-2.998700	3.386500	-10.154000	26.075358	0.000616	20.777215
1629.466495	-2.995000	3.386300	-10.141000	26.096674	0.000616	20.765916
1630.460114	-2.996900	3.385600	-10.145000	26.139690	0.000616	20.765515
1631.460027	-3.010600	3.385100	-10.190000	26.159655	0.000614	20.757602
1632.465345	-2.972200	3.386000	-10.062000	26.169883	0.000615	20.765983
1633.461366	-3.005500	3.382600	-10.165000	26.191767	0.000614	20.769007
1634.461838	-3.012800	3.383700	-10.194000	26.187992	0.000612	20.783706
1635.461312	-2.998100	3.384600	-10.147000	26.207184	0.000612	20.767904
1636.460862	-3.013400	3.383500	-10.194000	26.193353	0.000612	20.761118
1637.460345	-3.010200	3.382600	-10.181000	26.144224	0.000611	20.787141
1638.464442	-2.994200	3.381900	-10.124000	26.122891	0.000611	20.776137
1639.461150	-3.020700	3.381100	-10.212000	26.126366	0.000612	20.772042
1640.461254	-2.975400	3.381600	-10.060000	26.125764	0.000609	20.765748
1641.462646	-2.995200	3.381200	-10.125000	26.124594	0.000610	20.764571
1642.463053	-2.976400	3.381600	-10.064000	26.117613	0.000609	20.778894
1643.468665	-2.995700	3.379800	-10.124000	26.114132	0.000610	20.776345
1644.463196	-2.995900	3.379100	-10.122000	26.132535	0.000606	20.762594
1645.462469	-2.990500	3.380200	-10.108000	26.170537	0.000609	20.758105
1646.464139	-2.995900	3.380300	-10.126000	26.175427	0.000606	20.766812
1647.463257	-3.013500	3.378000	-10.178000	26.157667	0.000607	20.774571
1648.465050	-2.995500	3.378300	-10.119000	26.128306	0.000606	20.777311
1649.463638	-2.971000	3.379200	-10.039000	26.131040	0.000605	20.775316
1650.464199	-3.019200	3.377100	-10.195000	26.077660	0.000605	20.783321
1651.463213	-3.004300	3.378100	-10.148000	26.106201	0.000605	20.778807
1652.463965	-2.978300	3.377500	-10.059000	26.099594	0.000604	20.788290
1653.465108	-2.993000	3.377900	-10.108000	26.107715	0.000605	20.772741
1654.463489	-2.992200	3.377100	-10.104000	26.085578	0.000604	20.786060
1655.463319	-3.010300	3.376100	-10.160000	26.078003	0.000603	20.768492
1656.464126	-3.010900	3.375100	-10.161000	26.059500	0.000604	20.784041
1657.465122	-2.963700	3.375800	-10.003000	26.061461	0.000602	20.783166
1658.474781	-2.997700	3.376200	-10.121000	26.072340	0.000603	20.784139
1659.464079	-2.998200	3.374600	-10.117000	26.083659	0.000603	20.798831
1660.464742	-2.991800	3.374500	-10.095000	26.145801	0.000603	20.786356
1661.465037	-2.996600	3.373800	-10.109000	26.147811	0.000600	20.779840
1662.467638	-3.018900	3.373600	-10.184000	26.183894	0.000599	20.781010
1663.470807	-2.994000	3.374700	-10.103000	26.226287	0.000599	20.791842
1664.466138	-2.995700	3.374100	-10.106000	26.245852	0.000596	20.783528
1665.467000	-2.997800	3.372700	-10.110000	26.259780	0.000598	20.790413
1666.466734	-3.011000	3.372000	-10.152000	26.242525	0.000598	20.779711
1667.477010	-3.018500	3.371600	-10.176000	26.239736	0.000598	20.799193
1668.469323	-2.997300	3.372700	-10.108000	26.280313	0.000598	20.811521
1669.471218	-3.016900	3.372000	-10.172000	26.291508	0.000597	20.796219
1670.469724	-3.026800	3.371900	-10.204000	26.302660	0.000596	20.791779
1671.469763	-2.990900	3.371900	-10.083000	26.313169	0.000596	20.794280
1672.470654	-3.014500	3.370900	-10.161000	26.354851	0.000594	20.798238
1673.472316	-2.997600	3.370300	-10.102000	26.347554	0.000594	20.792327
1674.472457	-3.003100	3.369700	-10.119000	26.340894	0.000596	20.810289
1675.472534	-2.995100	3.369900	-10.092000	26.358252	0.000594	20.786483
1676.475025	-3.002000	3.369400	-10.114000	26.365598	0.000593	20.809039
1677.474960	-2.999000	3.368600	-10.102000	26.389162	0.000593	20.806643
1678.473538	-3.003600	3.368400	-10.117000	26.385559	0.000594	20.793065
1679.475408	-3.001600	3.368100	-10.109000	26.403113	0.000591	20.809285
1680.474206	-2.995900	3.368400	-10.090000	26.401526	0.000594	20.801052
1681.477533	-3.019000	3.367300	-10.165000	26.401348	0.000590	20.799925
1682.474598	-2.999300	3.368600	-10.103000	26.370634	0.000591	20.807936
1683.474557	-2.997600	3.367600	-10.094000	26.333975	0.000590	20.793852
1684.476111	-2.995700	3.367900	-10.088000	26.351033	0.000590	20.785865
1685.479435	-2.977700	3.366300	-10.023000	26.355279	0.000585	20.828539
1686.474834	-2.994500	3.365500	-10.077000	26.317112	0.000587	20.800139
1687.474892	-3.010100	3.365500	-10.130000	26.277578	0.000587	20.799764
1688.477226	-3.005400	3.364300	-10.110000	26.248154	0.000586	20.810497
1689.477890	-2.994800	3.365100	-10.077000	26.205964	0.000585	20.811722
1690.483993	-3.004800	3.364000	-10.107000	26.205087	0.000585	20.810367
1691.478383	-2.994300	3.363800	-10.071000	26.195178	0.000586	20.807048
1692.479174	-2.998600	3.362600	-10.082000	26.182567	0.000585	20.804807
1693.477933	-2.987200	3.362400	-10.042000	26.213507	0.000584	20.811242
1694.481545	-3.005400	3.362200	-10.103000	26.204461	0.000585	20.813058
1695.480298	-2.997300	3.362300	-10.077000	26.221602	0.000582	20.822695
1696.479783	-3.012600	3.361800	-10.127000	26.257859	0.000586	20.802707
1697.479301	-2.986900	3.362800	-10.043000	26.284631	0.000583	20.826291
1698.479050	-3.003800	3.361100	-10.095000	26.277603	0.000580	20.825392
1699.479542	-2.953400	3.363200	-9.931700	26.306555	0.000582	20.796167
1700.480236	-3.010900	3.360400	-10.116000	26.269956	0.000581	20.814863
1701.487514	-2.990600	3.362200	-10.054000	26.291579	0.000581	20.814308
1702.481383	-3.018700	3.360700	-10.144000	26.308920	0.000581	20.816088
1703.481225	-3.000600	3.359500	-10.080000	26.282897	0.000578	20.827394
1704.482049	-2.986900	3.361900	-10.040000	26.240580	0.000580	20.828016
1705.481541	-3.018300	3.360300	-10.141000	26.252425	0.000578	20.826168
1706.484839	-3.012400	3.359400	-10.119000	26.290097	0.000577	20.824672
1707.482366	-3.015100	3.358000	-10.123000	26.325531	0.000577	20.815712
1708.485167	-2.980600	3.358400	-10.008000	26.344158	0.000577	20.824949
1709.486196	-3.010200	3.358100	-10.107000	26.337148	0.000576	20.823120
1710.482419	-2.994000	3.358300	-10.054000	26.333160	0.000578	20.833810
1711.484097	-3.006100	3.356700	-10.090000	26.315728	0.000577	20.819137
1712.488487	-2.997600	3.356500	-10.060000	26.331518	0.000576	20.811772
1713.484178	-3.009300	3.355800	-10.098000	26.338270	0.000575	20.822350
1714.484417	-3.004600	3.356400	-10.083000	26.356449	0.000575	20.838250
1715.484142	-3.005100	3.356300	-10.085000	26.356896	0.000576	20.826846
1716.485345	-3.006300	3.353900	-10.082000	26.341855	0.000573	20.826428
1717.487567	-3.012200	3.355500	-10.106000	26.311905	0.000573	20.825725
1718.485272	-3.042600	3.354100	-10.204000	26.319429	0.000574	20.830916
1719.489782	-3.006600	3.355900	-10.088000	26.297058	0.000572	20.829771
1720.488375	-2.980800	3.355500	-10.001000	26.303884	0.000572	20.836631
1721.485713	-3.016300	3.354500	-10.117000	26.264049	0.000571	20.835005
1722.489335	-2.986100	3.355100	-10.018000	26.240960	0.000569	20.820812
1723.486840	-3.004600	3.353400	-10.075000	26.232191	0.000568	20.830966
1724.487934	-3.010000	3.354300	-10.095000	26.229857	0.000571	20.827671
1725.487870	-2.975700	3.354200	-9.980000	26.265213	0.000570	20.838071
1726.486905	-3.000100	3.353200	-10.059000	26.288363	0.000570	20.842369
1727.485894	-3.012500	3.351800	-10.096000	26.267376	0.000567	20.836452
1728.489260	-3.001800	3.351100	-10.058000	26.301494	0.000569	20.839444
1729.487326	-3.013100	3.350700	-10.095000	26.324091	0.000567	20.842714
1730.488395	-2.996700	3.351500	-10.042000	26.355744	0.000568	20.851291
1731.487203	-2.993000	3.350700	-10.027000	26.379095	0.000565	20.832086
1732.489519	-3.002600	3.349900	-10.057000	26.369230	0.000565	20.830706
1733.493498	-3.001300	3.349400	-10.051000	26.402180	0.000563	20.856710
1734.489535	-3.000100	3.349700	-10.048000	26.395925	0.000564	20.826242
1735.491426	-2.992700	3.350600	-10.027000	26.393014	0.000564	20.847498
1736.492044	-3.002400	3.348700	-10.053000	26.395079	0.000562	20.845780
1737.501448	-2.999900	3.349100	-10.045000	26.407314	0.000561	20.840059
1738.502199	-3.003500	3.348600	-10.056000	26.376282	0.000562	20.834000
1739.493746	-2.994300	3.348300	-10.025000	26.385061	0.000561	20.850410
1740.495440	-3.010800	3.348500	-10.080000	26.375503	0.000560	20.849338
1741.493982	-3.003500	3.347900	-10.054000	26.323159	0.000563	20.842725
1742.498672	-3.008700	3.346900	-10.069000	26.318839	0.000561	20.830324
1743.497059	-3.006000	3.346500	-10.059000	26.328918	0.000562	20.845194
1744.494007	-3.015100	3.346100	-10.088000	26.343562	0.000560	20.850902
1745.498062	-2.984900	3.346600	-9.987400	26.374479	0.000559	20.853051
1746.495138	-2.985800	3.345800	-9.988600	26.406039	0.000559	20.866751
1747.495617	-3.021100	3.344100	-10.102000	26.366305	0.000559	20.858112
1748.496918	-3.006800	3.346400	-10.060000	26.332428	0.000557	20.843506
1749.495720	-2.994300	3.344200	-10.013000	26.331288	0.000556	20.861800
1750.495979	-2.992100	3.344500	-10.006000	26.327220	0.000558	20.856763
1751.496021	-3.013400	3.343500	-10.073000	26.319738	0.000557	20.864891
1752.493886	-3.010900	3.343100	-10.065000	26.363388	0.000555	20.843801
1753.494724	-2.988100	3.344600	-9.992700	26.382853	0.000553	20.867156
1754.495797	-2.983600	3.344000	-9.976000	26.406134	0.000555	20.861632
1755.496371	-2.992100	3.341700	-9.997300	26.430029	0.000555	20.852458
1756.496418	-3.013900	3.341100	-10.069000	26.448488	0.000554	20.875751
1757.495086	-2.996400	3.342600	-10.015000	26.474734	0.000555	20.863251
1758.494460	-3.020300	3.340300	-10.088000	26.473109	0.000553	20.864463
1759.497161	-2.979300	3.342400	-9.956700	26.443683	0.000554	20.860492
1760.495852	-2.992700	3.340600	-9.996000	26.446140	0.000554	20.854900
1761.498261	-2.974800	3.341000	-9.936600	26.459625	0.000555	20.872246
1762.497829	-3.012500	3.339300	-10.059000	26.464164	0.000552	20.846939
1763.497375	-2.996600	3.340800	-10.010000	26.452916	0.000551	20.860288
1764.500300	-2.992400	3.340600	-9.995100	26.450998	0.000549	20.865472
1765.502682	-2.992100	3.338700	-9.988500	26.464249	0.000549	20.865515
1766.496127	-2.981700	3.340200	-9.958600	26.505761	0.000550	20.842756
1767.497655	-2.984100	3.339400	-9.963200	26.524507	0.000548	20.864918
1768.502131	-3.026600	3.337600	-10.101000	26.523159	0.000547	20.841752
1769.497926	-3.004800	3.338300	-10.030000	26.536416	0.000547	20.858396
1770.499109	-2.983100	3.339000	-9.959500	26.550413	0.000547	20.844018
1771.500222	-2.993200	3.338400	-9.992000	26.564760	0.000546	20.848008
1772.501014	-2.974600	3.338500	-9.928400	26.603683	0.000544	20.856788
1773.499169	-2.991400	3.337100	-9.981300	26.601771	0.000547	20.842540
1774.498673	-2.984200	3.336400	-9.955200	26.599860	0.000545	20.857213
1775.501164	-2.985600	3.336600	-9.960900	26.571455	0.000543	20.845729
1776.499013	-3.014700	3.335800	-10.056000	26.553800	0.000545	20.848370
1777.501383	-2.992300	3.336200	-9.982100	26.484084	0.000543	20.838038
1778.499198	-3.000500	3.335800	-10.008000	26.464621	0.000542	20.848346
1779.509721	-2.998600	3.335000	-10.000000	26.422555	0.000544	20.833567
1780.501419	-3.000600	3.334400	-10.003000	26.464939	0.000541	20.836812
1781.505058	-3.002700	3.334200	-10.011000	26.485321	0.000541	20.858246
1782.502722	-3.008100	3.333000	-10.025000	26.491992	0.000542	20.859262
1783.503857	-3.002900	3.332400	-10.006000	26.525068	0.000540	20.863111
1784.504662	-3.003300	3.332300	-10.006000	26.558454	0.000541	20.839299
1785.504461	-2.993600	3.331500	-9.972400	26.581543	0.000539	20.828369
1786.508098	-3.008400	3.332200	-10.024000	26.606217	0.000541	20.848431
1787.503404	-3.004500	3.332100	-10.010000	26.632759	0.000539	20.851405
1788.509086	-2.996400	3.331700	-9.981200	26.640226	0.000539	20.850376
1789.504499	-3.017700	3.331400	-10.052000	26.638419	0.000538	20.841923
1790.504602	-2.994500	3.331900	-9.976100	26.590180	0.000538	20.843215
1791.506918	-3.013400	3.330100	-10.034000	26.589935	0.000536	20.830167
1792.504542	-3.011100	3.330700	-10.029000	26.556194	0.000537	20.837501
1793.505386	-2.968700	3.331500	-9.888700	26.570712	0.000533	20.850198
1794.503959	-2.998800	3.330000	-9.985000	26.591993	0.000533	20.832236
1795.505082	-2.998300	3.328700	-9.978600	26.584635	0.000535	20.821995
1796.505110	-2.995200	3.329100	-9.970300	26.591815	0.000533	20.812618
1797.507174	-2.986500	3.328100	-9.938400	26.586547	0.000532	20.842882
1798.505710	-3.005300	3.329600	-10.005000	26.605071	0.000532	20.824520
1799.505558	-3.024800	3.325700	-10.059000	26.588360	0.000534	20.811515
1800.505430	-2.999800	3.326800	-9.978100	26.586498	0.000532	20.813910
1801.506661	-2.992200	3.327900	-9.956700	26.528504	0.000534	20.813935
1802.507549	-2.994800	3.326900	-9.961900	26.484107	0.000532	20.831422
1803.505354	-2.985400	3.327000	-9.931600	26.498908	0.000530	20.797937
1804.507064	-2.993000	3.326700	-9.955500	26.517648	0.000530	20.814402
1805.512266	-2.995800	3.326100	-9.963500	26.514737	0.000528	20.798201
1806.506573	-2.980200	3.326400	-9.912500	26.508238	0.000527	20.794513
1807.511788	-3.003000	3.325200	-9.984800	26.510792	0.000527	20.822210
1808.506438	-3.005800	3.323500	-9.989200	26.531425	0.000527	20.828251
1809.508432	-2.994000	3.324300	-9.951100	26.554888	0.000528	20.816274
1810.505859	-2.993300	3.323900	-9.948300	26.590020	0.000525	20.832623
1811.509559	-2.979600	3.323900	-9.903500	26.581743	0.000527	20.818140
1812.508319	-3.011300	3.323800	-10.008000	26.611735	0.000527	20.811305
1813.511149	-3.019200	3.323000	-10.032000	26.603961	0.000524	20.815818
1814.515171	-3.005500	3.322800	-9.985300	26.575391	0.000525	20.810806
1815.509027	-3.008400	3.322900	-9.995300	26.594080	0.000523	20.821533
1816.510160	-3.015900	3.322800	-10.019000	26.622038	0.000523	20.826404
1817.510469	-2.992600	3.322000	-9.940800	26.614093	0.000522	20.817943
1818.512835	-3.007000	3.319900	-9.980700	26.622755	0.000522	20.821434
1819.514395	-2.991800	3.320700	-9.933500	26.669871	0.000521	20.809057
1820.516381	-3.009000	3.320000	-9.988500	26.653909	0.000521	20.822407
1821.513128	-2.993700	3.320200	-9.939100	26.650981	0.000519	20.818041
1822.514590	-3.016600	3.320300	-10.014000	26.650013	0.000519	20.803318
1823.516744	-2.996400	3.320000	-9.947000	26.677987	0.000518	20.816268
1824.515796	-2.997600	3.320100	-9.951800	26.715596	0.000518	20.810455
1825.513138	-3.007800	3.318400	-9.979800	26.718101	0.000517	20.820086
1826.514046	-3.014100	3.317300	-9.997000	26.713740	0.000518	20.813331
1827.515724	-3.015300	3.318200	-10.004000	26.702561	0.000518	20.813946
1828.514482	-2.997300	3.317200	-9.941700	26.682801	0.000516	20.798349
1829.515288	-3.022000	3.316700	-10.021000	26.673271	0.000516	20.796828
1830.523940	-3.000800	3.317600	-9.954600	26.658674	0.000515	20.799697
1831.513512	-3.013300	3.316600	-9.992700	26.629358	0.000514	20.821908
1832.513254	-2.997700	3.316800	-9.941300	26.638969	0.000515	20.809759
1833.514227	-2.996300	3.314800	-9.930400	26.631741	0.000512	20.792536
1834.519796	-2.998200	3.315500	-9.939500	26.656892	0.000512	20.793638
1835.514802	-3.017600	3.314800	-10.002000	26.672303	0.000513	20.788742
1836.517598	-3.006900	3.314200	-9.964500	26.678434	0.000512	20.804389
1837.517043	-2.999000	3.313500	-9.936700	26.672474	0.000514	20.801243
1838.515996	-2.992400	3.313600	-9.914600	26.679451	0.000511	20.804463
1839.514081	-3.000500	3.313100	-9.939700	26.694813	0.000512	20.792880
1840.518366	-3.002200	3.313800	-9.947800	26.714799	0.000507	20.805861
1841.517469	-2.987100	3.313600	-9.895400	26.704245	0.000510	20.802363
1842.515761	-2.986800	3.313200	-9.894300	26.727998	0.000507	20.785940
1843.514401	-3.011300	3.312800	-9.974700	26.745423	0.000509	20.780226
1844.516451	-3.015800	3.310500	-9.982200	26.727680	0.000508	20.789413
1845.521115	-2.994000	3.311700	-9.914800	26.753140	0.000508	20.802209
1846.515850	-2.984800	3.312500	-9.886400	26.720924	0.000506	20.830510
1847.518642	-2.998200	3.311000	-9.926500	26.673778	0.000506	20.812511
1848.518753	-2.977900	3.311600	-9.859700	26.604671	0.000505	20.787134
1849.521166	-2.989000	3.310300	-9.893600	26.610729	0.000505	20.798914
1850.521538	-3.003100	3.308600	-9.934200	26.634729	0.000504	20.784160
1851.520054	-2.995900	3.309400	-9.913200	26.641957	0.000503	20.778150
1852.521415	-2.999700	3.309900	-9.927000	26.671469	0.000504	20.799284
1853.520603	-2.992600	3.308500	-9.899700	26.673478	0.000502	20.774750
1854.523925	-2.982000	3.308600	-9.864400	26.683701	0.000503	20.787398
1855.520794	-2.967300	3.309300	-9.818400	26.666697	0.000500	20.795435
1856.521485	-3.004500	3.307900	-9.937500	26.670023	0.000502	20.812529
1857.519927	-3.006800	3.307500	-9.944100	26.629754	0.000500	20.779159
1858.520205	-2.996400	3.306600	-9.906700	26.657638	0.000498	20.781111
1859.521774	-3.002700	3.307700	-9.931300	26.664234	0.000500	20.795804
1860.522460	-2.995800	3.307400	-9.907400	26.675529	0.000498	20.774916
1861.524553	-2.992100	3.306800	-9.893300	26.676448	0.000496	20.785323
1862.523722	-3.017300	3.305600	-9.972700	26.678904	0.000496	20.799646
1863.523613	-2.997800	3.306000	-9.909800	26.649662	0.000496	20.796801
1864.523597	-2.992900	3.305300	-9.892000	26.597447	0.000496	20.776079
1865.522542	-2.992500	3.305600	-9.890700	26.574114	0.000495	20.778703
1866.526804	-3.007600	3.303400	-9.933500	26.586256	0.000495	20.769096
1867.524328	-3.015400	3.303300	-9.959400	26.597521	0.000495	20.785162
1868.527546	-2.997600	3.304300	-9.904200	26.596553	0.000493	20.750049
1869.522722	-3.005100	3.303800	-9.926800	26.629563	0.000494	20.797459
1870.524315	-2.977800	3.303600	-9.835900	26.669336	0.000493	20.776276
1871.524951	-3.018700	3.301700	-9.966100	26.683136	0.000495	20.778770
1872.522131	-3.041500	3.300200	-10.036000	26.702075	0.000493	20.776947
1873.523671	-2.994000	3.302400	-9.886700	26.693536	0.000492	20.778320
1874.524155	-2.986600	3.302700	-9.862400	26.651560	0.000493	20.765518
1875.522852	-3.005100	3.300700	-9.916200	26.623009	0.000490	20.770007
1876.522849	-2.984500	3.301700	-9.853500	26.636198	0.000491	20.792749
1877.532269	-2.989200	3.301900	-9.868700	26.649128	0.000489	20.764970
1878.523163	-3.020600	3.297800	-9.959000	26.619658	0.000488	20.790347
1879.523770	-3.004400	3.299500	-9.912300	26.602525	0.000486	20.774545
1880.526038	-2.993300	3.299900	-9.877100	26.588123	0.000488	20.790888
1881.523580	-2.994700	3.299800	-9.880400	26.630653	0.000488	20.763941
1882.524260	-3.008800	3.298200	-9.923300	26.602849	0.000487	20.780562
1883.522871	-2.997400	3.299200	-9.887500	26.631167	0.000487	20.799072
1884.524521	-3.004200	3.297200	-9.905000	26.650683	0.000485	20.776491
1885.523568	-2.998200	3.298800	-9.889200	26.645918	0.000485	20.766484
1886.522165	-2.972600	3.297400	-9.801200	26.661336	0.000485	20.777717
1887.528632	-2.981500	3.297300	-9.830300	26.715396	0.000486	20.771848
1888.526531	-3.015600	3.296900	-9.940100	26.755159	0.000484	20.763460
1889.522695	-2.994500	3.295800	-9.867300	26.765736	0.000482	20.763190
1890.523626	-2.988300	3.296000	-9.848600	26.776430	0.000483	20.768726
1891.526132	-3.030700	3.294900	-9.984100	26.743264	0.000482	20.785167
1892.524182	-2.995800	3.295700	-9.872100	26.701565	0.000480	20.795876
1893.528186	-2.983400	3.295100	-9.828800	26.711396	0.000480	20.766404
1894.530877	-2.994100	3.295200	-9.865200	26.717968	0.000480	20.760683
1895.529923	-3.010200	3.294100	-9.914000	26.743956	0.000479	20.770689
1896.525591	-3.014400	3.293300	-9.926100	26.754356	0.000478	20.766447
1897.525298	-2.981200	3.293900	-9.818900	26.775051	0.000477	20.768762
1898.528889	-3.018000	3.293200	-9.937700	26.773471	0.000477	20.759113
1899.526690	-3.000700	3.294200	-9.884300	26.741843	0.000476	20.769987
1900.525970	-3.028600	3.292300	-9.970200	26.694404	0.000476	20.772555
1901.528930	-2.978100	3.293600	-9.807700	26.644679	0.000473	20.770455
1902.532257	-2.990600	3.292400	-9.845200	26.642597	0.000474	20.771206
1903.529297	-3.000900	3.291900	-9.877600	26.601310	0.000474	20.764789
1904.535527	-3.001000	3.289400	-9.870200	26.600790	0.000473	20.765689
1905.530046	-3.017400	3.288700	-9.922200	26.640979	0.000472	20.764839
1906.529967	-2.991700	3.291400	-9.846000	26.647876	0.000473	20.758970
1907.531221	-3.021400	3.288800	-9.935400	26.678191	0.000471	20.759574
1908.530490	-2.996200	3.290400	-9.856800	26.693804	0.000470	20.758200
1909.534890	-2.988300	3.288900	-9.827200	26.711083	0.000471	20.767511
1910.531829	-2.984500	3.290200	-9.818800	26.708700	0.000470	20.761323
1911.533115	-2.999400	3.288300	-9.861300	26.702961	0.000468	20.763613
1912.531261	-3.006700	3.288800	-9.887500	26.722150	0.000469	20.745447
1913.531592	-2.988000	3.287800	-9.822200	26.750074	0.000469	20.745545
1914.534778	-3.003100	3.287700	-9.872700	26.778395	0.000467	20.744147
1915.533578	-3.012400	3.286700	-9.900200	26.800210	0.000468	20.757547
1916.533090	-2.991300	3.287400	-9.831500	26.818144	0.000466	20.778424
1917.532634	-3.024500	3.287100	-9.940400	26.839236	0.000465	20.739412
1918.533140	-3.024600	3.285300	-9.936100	26.847424	0.000465	20.750016
1919.532205	-2.995500	3.287100	-9.846000	26.844919	0.000465	20.769310
1920.536591	-3.007900	3.283600	-9.875800	26.870586	0.000464	20.741537
1921.534049	-2.976700	3.284600	-9.776000	26.849408	0.000462	20.749641
1922.532845	-3.007900	3.283900	-9.875800	26.850277	0.000463	20.759050
1923.532996	-2.985400	3.284800	-9.805200	26.857302	0.000461	20.779864
1924.534101	-2.976900	3.284500	-9.776300	26.862961	0.000461	20.759475
1925.536452	-2.983000	3.284000	-9.794300	26.892222	0.000460	20.747645
1926.533864	-2.987700	3.282600	-9.807000	26.895620	0.000460	20.756279
1927.535801	-3.027000	3.281300	-9.931700	26.860278	0.000458	20.762942
1928.533739	-2.991400	3.282700	-9.818800	26.847773	0.000459	20.749893
1929.533609	-2.988100	3.281700	-9.805400	26.861344	0.000458	20.730347
1930.532631	-2.992900	3.281100	-9.818900	26.867750	0.000457	20.753385
1931.535419	-3.006700	3.280300	-9.861300	26.843840	0.000459	20.738826
1932.533684	-3.011000	3.281800	-9.880700	26.849995	0.000458	20.741222
1933.535550	-3.019500	3.279800	-9.902500	26.836400	0.000457	20.745096
1934.534512	-2.990700	3.280500	-9.809800	26.855507	0.000457	20.743919
1935.535930	-2.998900	3.280200	-9.835700	26.883500	0.000453	20.733186
1936.545102	-2.966400	3.280300	-9.729300	26.864558	0.000455	20.736899
1937.543725	-3.000000	3.280200	-9.839300	26.861362	0.000453	20.744116
1938.544132	-2.997800	3.279300	-9.830100	26.868526	0.000453	20.739940
1939.535874	-3.008300	3.277300	-9.857800	26.845297	0.000453	20.758310
1940.536745	-3.016700	3.278100	-9.888300	26.795879	0.000453	20.747028
1941.542016	-2.988700	3.278600	-9.798000	26.813922	0.000454	20.736246
1942.540746	-2.984600	3.278200	-9.782500	26.799701	0.000452	20.753716
1943.540829	-2.982200	3.277400	-9.773000	26.812985	0.000451	20.728665
1944.540328	-2.997300	3.276800	-9.819700	26.814222	0.000452	20.741763
1945.549581	-2.988400	3.276100	-9.789400	26.854300	0.000449	20.735592
1946.538712	-3.008500	3.276100	-9.855800	26.848151	0.000449	20.739842
1947.542898	-2.994800	3.277000	-9.813300	26.863284	0.000448	20.735143
1948.538966	-3.008700	3.275300	-9.854000	26.845438	0.000449	20.742804
1949.538482	-2.998800	3.276700	-9.825600	26.871049	0.000448	20.741055
1950.538341	-2.992600	3.274200	-9.796600	26.905815	0.000447	20.736657
1951.539058	-2.967400	3.275400	-9.718800	26.900505	0.000446	20.729422
1952.542533	-2.988900	3.275900	-9.791000	26.841358	0.000446	20.736805
1953.539726	-2.991000	3.273300	-9.789500	26.821999	0.000444	20.737729
1954.548081	-2.967200	3.273700	-9.712600	26.856896	0.000444	20.726348
1955.539638	-2.996500	3.272900	-9.806400	26.863834	0.000445	20.718625
1956.545766	-2.984900	3.272500	-9.766900	26.868482	0.000444	20.747483
1957.540195	-3.009000	3.271800	-9.843600	26.904565	0.000442	20.740616
1958.542191	-3.004300	3.272800	-9.831000	26.908729	0.000441	20.727733
1959.542309	-2.991600	3.271300	-9.785400	26.964614	0.000441	20.741256
1960.557918	-3.012700	3.272400	-9.856400	26.891753	0.000442	20.735320
1961.538698	-2.998700	3.270100	-9.804200	26.838908	0.000441	20.727702
1962.539704	-2.991200	3.270600	-9.782300	26.797758	0.000438	20.735640
1963.550507	-2.990400	3.269800	-9.776500	26.785937	0.000439	20.729919
1964.547166	-2.980900	3.269000	-9.743400	26.776928	0.000439	20.725602
1965.545187	-2.993600	3.267800	-9.781700	26.827541	0.000436	20.721963
1966.541552	-2.993200	3.269800	-9.786500	26.865731	0.000436	20.734285
1967.540949	-3.005800	3.268400	-9.822700	26.871390	0.000436	20.753252
1968.542479	-3.006600	3.266900	-9.821300	26.895341	0.000436	20.735609
1969.544991	-2.988900	3.268900	-9.769600	26.907326	0.000433	20.735806
1970.551319	-2.996600	3.268600	-9.793300	26.925863	0.000432	20.734531
1971.544722	-2.998800	3.268200	-9.799900	26.953934	0.000433	20.740948
1972.546045	-3.011400	3.266200	-9.835200	26.951105	0.000432	20.730990
1973.545586	-2.987500	3.267400	-9.760300	26.991435	0.000431	20.726501
1974.547469	-3.004200	3.264500	-9.805500	26.973395	0.000428	20.756725
1975.546119	-2.991200	3.265900	-9.768300	27.013944	0.000430	20.720214
1976.546169	-2.992400	3.264800	-9.768400	26.996792	0.000430	20.727148
1977.544957	-3.003500	3.265000	-9.804000	26.943015	0.000430	20.736607
1978.546769	-3.000500	3.263100	-9.788800	26.896235	0.000429	20.716118
1979.548518	-3.013100	3.263900	-9.833900	26.878990	0.000429	20.748092
1980.542905	-2.995800	3.262900	-9.773400	26.903462	0.000428	20.733343
1981.544329	-3.009900	3.262300	-9.818300	26.899316	0.000427	20.731545
1982.542769	-2.993400	3.262500	-9.765400	26.884722	0.000428	20.725879
1983.547776	-3.001100	3.263900	-9.794400	26.896536	0.000427	20.733017
1984.543146	-2.976500	3.262500	-9.709800	26.916169	0.000426	20.729051
1985.548697	-3.022800	3.260600	-9.855400	26.921632	0.000426	20.735018
1986.546182	-2.980100	3.261900	-9.720400	26.911656	0.000424	20.737315
1987.548086	-2.999800	3.261000	-9.780300	26.904926	0.000425	20.739082
1988.548826	-2.994900	3.260700	-9.763800	26.867110	0.000423	20.717178
1989.547667	-3.009400	3.259600	-9.808400	26.859485	0.000425	20.732272
1990.551171	-2.974400	3.260400	-9.696500	26.856515	0.000419	20.739243
1991.548009	-3.015700	3.260500	-9.831600	26.848621	0.000422	20.730831
1992.545375	-2.987700	3.260200	-9.739600	26.827254	0.000420	20.726890
1993.547677	-3.015900	3.257800	-9.823400	26.852247	0.000419	20.747754
1994.546569	-3.003100	3.257700	-9.782400	26.895997	0.000417	20.723940
1995.547251	-2.994700	3.257700	-9.754400	26.932030	0.000418	20.732198
1996.552117	-3.001600	3.258000	-9.777500	26.885134	0.000417	20.733880
1997.544582	-3.025400	3.256700	-9.850900	26.873694	0.000416	20.724273
1998.549006	-2.982600	3.257300	-9.714300	26.849693	0.000415	20.722425
1999.548734	-2.976800	3.257200	-9.695100	26.867986	0.000416	20.727069
2000.548271	-3.022900	3.256000	-9.840700	26.876750	0.000414	20.742046
2001.548315	-2.979400	3.256400	-9.701800	26.931271	0.000413	20.730961
2002.547185	-2.999100	3.256700	-9.766000	26.990805	0.000415	20.749102
2003.549552	-2.999100	3.254900	-9.760100	27.019573	0.000413	20.745316
2004.549694	-3.012100	3.254000	-9.800600	27.058094	0.000412	20.730949
2005.546103	-2.997800	3.254400	-9.754600	27.109006	0.000411	20.728572
2006.549117	-3.013000	3.254700	-9.806400	27.118110	0.000409	20.749109
2007.557714	-2.987800	3.253800	-9.720600	27.114087	0.000408	20.736528
2008.550803	-3.020400	3.252600	-9.822800	27.072801	0.000409	20.735309
2009.549393	-3.013300	3.252000	-9.798100	27.005446	0.000407	20.738695
2010.548463	-2.988500	3.253000	-9.720300	26.973788	0.000408	20.730093
2011.548852	-3.023300	3.252300	-9.832000	26.970065	0.000408	20.749109
2012.554642	-3.002800	3.251700	-9.763000	26.953041	0.000406	20.722980
2013.550930	-3.007400	3.250400	-9.773500	26.975325	0.000406	20.734958
2014.550240	-3.011000	3.250200	-9.786200	27.004632	0.000404	20.757792
2015.552206	-2.991500	3.252300	-9.728400	26.953537	0.000403	20.733911
2016.552705	-3.007700	3.250800	-9.775400	26.980610	0.000401	20.724150
2017.554885	-3.000300	3.248300	-9.744900	27.017160	0.000402	20.754269
2018.551095	-3.014600	3.248500	-9.791700	26.987780	0.000400	20.741793
2019.554704	-3.017800	3.247400	-9.798700	26.951865	0.000400	20.735074
2020.572589	-2.985600	3.248400	-9.697100	26.903824	0.000398	20.752200
2021.551270	-2.995300	3.247700	-9.726800	26.860735	0.000400	20.744434
2022.551221	-3.002400	3.248700	-9.752000	26.807601	0.000398	20.758814
2023.558340	-3.005300	3.246300	-9.754900	26.781883	0.000397	20.765200
2024.553237	-2.977800	3.247500	-9.668600	26.794714	0.000397	20.726890
2025.554175	-2.994600	3.247500	-9.723800	26.804942	0.000398	20.737648
2026.553983	-3.004500	3.245800	-9.751000	26.818392	0.000395	20.746430
2027.553682	-2.985800	3.246900	-9.693500	26.817871	0.000396	20.753967
2028.556351	-2.981000	3.245800	-9.674600	26.823408	0.000393	20.743412
2029.554043	-2.975700	3.245800	-9.657600	26.804918	0.000392	20.750426
2030.557497	-2.953700	3.245300	-9.585000	26.806682	0.000392	20.735604
2031.556631	-3.002400	3.242900	-9.736100	26.828717	0.000393	20.761080
2032.555267	-3.016300	3.242200	-9.777300	26.896671	0.000394	20.745007
2033.558426	-2.988500	3.244400	-9.694700	26.948620	0.000392	20.733233
2034.555356	-3.014700	3.242000	-9.772000	26.989708	0.000391	20.749897
2035.556047	-2.989500	3.241900	-9.690800	27.034654	0.000388	20.745309
2036.561492	-3.003500	3.240800	-9.733200	27.019989	0.000389	20.753795
2037.555730	-2.996100	3.241600	-9.710800	27.045473	0.000388	20.750974
2038.561073	-3.002900	3.242900	-9.736900	27.052797	0.000388	20.739373
2039.557777	-3.022100	3.239100	-9.788300	27.038168	0.000387	20.754533
2040.556542	-2.988700	3.240400	-9.683900	27.023656	0.000387	20.769337
2041.558047	-2.993200	3.239300	-9.695000	27.059587	0.000384	20.744779
2042.558208	-2.992700	3.239800	-9.694900	27.105074	0.000384	20.742162
2043.557082	-2.997400	3.238200	-9.704000	27.137531	0.000384	20.752046
2044.559958	-3.002500	3.238600	-9.723100	27.138792	0.000383	20.736244
2045.557192	-2.985600	3.238300	-9.666700	27.139514	0.000386	20.751670
2046.558272	-3.017200	3.236000	-9.762000	27.102968	0.000382	20.739095
2047.558104	-2.988200	3.237900	-9.673800	27.106929	0.000380	20.755408
2048.557471	-2.989200	3.237500	-9.675800	27.112684	0.000382	20.779214
2049.560327	-2.997800	3.236100	-9.700500	27.119487	0.000382	20.761874
2050.559778	-3.014800	3.235500	-9.753000	27.127624	0.000380	20.768161
2051.558451	-2.983000	3.235300	-9.650100	27.121397	0.000377	20.759053
2052.558463	-3.009000	3.235400	-9.733500	27.137604	0.000379	20.755913
2053.557791	-2.999000	3.234500	-9.698300	27.173444	0.000376	20.768727
2054.561464	-2.994000	3.236000	-9.687700	27.209425	0.000377	20.743750
2055.560966	-2.959500	3.234800	-9.572600	27.242637	0.000376	20.755820
2056.559641	-3.004900	3.234400	-9.718300	27.245992	0.000374	20.753030
2057.560441	-3.013600	3.233200	-9.742900	27.291710	0.000375	20.779103
2058.559373	-2.997000	3.232600	-9.687100	27.284119	0.000372	20.762458
2059.562193	-2.995700	3.233300	-9.685900	27.249903	0.000370	20.772138
2060.564930	-2.997600	3.232400	-9.688300	27.257641	0.000372	20.761429
2061.561712	-3.007100	3.230700	-9.714100	27.257213	0.000371	20.787077
2062.565274	-3.000100	3.231800	-9.693900	27.216152	0.000369	20.773277
2063.564430	-3.012900	3.230500	-9.731800	27.170051	0.000369	20.764840
2064.564852	-3.004200	3.229000	-9.699500	27.119528	0.000370	20.769502
2065.566319	-2.988700	3.231400	-9.656200	27.089575	0.000367	20.770197
2066.568708	-3.005200	3.229300	-9.703500	27.110490	0.000367	20.779379
2067.564186	-2.989500	3.228400	-9.650500	27.128081	0.000368	20.767198
2068.564559	-2.980700	3.229400	-9.624100	27.149669	0.000369	20.766151
2069.565836	-3.029000	3.227300	-9.774000	27.182295	0.000365	20.777156
2070.567610	-3.020900	3.226700	-9.746300	27.233134	0.000365	20.790358
2071.568726	-2.988100	3.227900	-9.642600	27.241906	0.000364	20.776422
2072.567746	-3.000700	3.227000	-9.681500	27.277603	0.000363	20.756852
2073.575774	-3.003900	3.225500	-9.688000	27.270336	0.000362	20.785579
2074.568629	-3.007600	3.226800	-9.704100	27.287575	0.000361	20.755977
2075.568872	-2.988900	3.227200	-9.644900	27.239770	0.000362	20.773325
2076.570337	-2.972100	3.226800	-9.589300	27.261992	0.000361	20.783349
2077.568658	-2.990800	3.223900	-9.641400	27.250801	0.000361	20.773989
2078.572692	-3.010100	3.224700	-9.705300	27.248101	0.000359	20.781231
2079.569892	-2.987600	3.223700	-9.629700	27.233855	0.000358	20.790609
2080.570469	-2.990100	3.223000	-9.635600	27.242512	0.000358	20.758064
2081.570524	-3.007800	3.223400	-9.694200	27.237626	0.000357	20.773065
2082.571586	-2.989900	3.224200	-9.639100	27.276354	0.000358	20.770768
2083.573493	-2.956800	3.224400	-9.531900	27.267404	0.000358	20.777413
2084.574942	-2.988400	3.222000	-9.626200	27.247550	0.000356	20.783522
2085.573570	-2.970400	3.221700	-9.569200	27.226062	0.000355	20.772339
2086.577489	-3.008200	3.221600	-9.688800	27.269001	0.000353	20.785184
2087.575251	-2.998700	3.220600	-9.656200	27.282806	0.000353	20.787216
2088.573523	-2.973700	3.220800	-9.575600	27.337802	0.000351	20.779002
2089.577102	-3.001900	3.220500	-9.666500	27.360898	0.000352	20.795597
2090.573643	-2.979800	3.220000	-9.593800	27.397987	0.000350	20.789760
2091.575977	-3.024300	3.217200	-9.728700	27.432546	0.000350	20.790862
2092.577697	-2.997800	3.218000	-9.646500	27.401813	0.000350	20.793608
2093.578517	-2.989300	3.218400	-9.619500	27.359686	0.000349	20.792007
2094.575994	-2.990000	3.217100	-9.616700	27.356387	0.000348	20.788688
2095.576499	-2.988300	3.216900	-9.612300	27.368691	0.000348	20.792531
2096.575679	-2.992000	3.217500	-9.624800	27.417562	0.000348	20.773417
2097.577209	-2.985700	3.216800	-9.603400	27.418211	0.000345	20.806312
2098.580970	-2.995800	3.215600	-9.631900	27.439175	0.000347	20.785203
2099.577755	-2.978200	3.214900	-9.573500	27.459637	0.000345	20.773072
2100.583010	-3.010500	3.215100	-9.678200	27.501337	0.000344	20.798430
2101.579855	-2.995800	3.215800	-9.632600	27.480900	0.000345	20.816276
2102.582864	-2.983300	3.217000	-9.595000	27.450640	0.000344	20.794841
2103.585529	-2.998900	3.215200	-9.641100	27.444317	0.000345	20.797489
2104.580624	-2.994100	3.212700	-9.617600	27.441887	0.000340	20.795992
2105.580649	-3.001200	3.212400	-9.639500	27.466597	0.000341	20.803782
2106.582262	-2.985500	3.212900	-9.591100	27.480442	0.000341	20.783572
2107.581694	-2.994300	3.213000	-9.619000	27.502317	0.000339	20.792778
2108.582232	-3.000300	3.211700	-9.635200	27.510011	0.000339	20.799096
2109.585353	-2.973200	3.212400	-9.550100	27.467295	0.000341	20.792630
2110.585702	-2.975700	3.211800	-9.556600	27.450886	0.000337	20.791295
2111.584133	-3.006000	3.208900	-9.645000	27.464571	0.000336	20.806486
2112.584851	-3.022600	3.208400	-9.696700	27.431416	0.000336	20.798260
2113.589834	-2.981700	3.208200	-9.565300	27.468397	0.000332	20.811283
2114.586314	-2.996400	3.209200	-9.614700	27.479470	0.000334	20.795871
2115.588119	-2.977400	3.207900	-9.549700	27.464224	0.000334	20.783377
2116.583556	-3.007900	3.207200	-9.645500	27.454792	0.000333	20.792379
2117.584028	-3.013100	3.207000	-9.662200	27.388269	0.000331	20.816020
2118.584093	-3.021200	3.205900	-9.685100	27.407398	0.000332	20.806814
2119.586932	-2.954200	3.207100	-9.473500	27.421604	0.000329	20.798346
2120.583978	-3.018300	3.206200	-9.676300	27.419352	0.000332	20.818840
2121.587553	-2.983200	3.206500	-9.564100	27.393454	0.000330	20.803692
2122.584015	-3.019300	3.204500	-9.674100	27.417920	0.000329	20.811235
2123.586473	-2.989300	3.204400	-9.578200	27.448513	0.000328	20.814986
2124.586079	-2.990500	3.204000	-9.580400	27.473834	0.000327	20.803477
2125.585211	-3.010000	3.201900	-9.636500	27.508416	0.000327	20.810768
2126.587194	-2.991100	3.203900	-9.582100	27.496860	0.000327	20.809099
2127.585746	-3.014600	3.203300	-9.654900	27.499363	0.000326	20.807350
2128.586307	-2.980800	3.202600	-9.545000	27.487135	0.000325	20.798366
2129.587191	-2.989500	3.201600	-9.569600	27.543418	0.000323	20.815639
2130.587408	-3.019100	3.201600	-9.664500	27.553112	0.000323	20.820651
2131.589226	-3.003700	3.200600	-9.611800	27.567103	0.000323	20.804382
2132.588026	-3.005600	3.199600	-9.614400	27.557329	0.000321	20.809721
2133.588549	-3.012100	3.199900	-9.636400	27.571222	0.000321	20.820380
2134.587315	-2.988100	3.199600	-9.559000	27.593726	0.000320	20.825005
2135.593661	-3.001900	3.198500	-9.600600	27.616119	0.000321	20.824303
2136.590945	-2.989500	3.199000	-9.561100	27.599203	0.000319	20.819137
2137.591012	-2.977700	3.197600	-9.520500	27.578573	0.000319	20.812130
2138.590161	-2.997900	3.200200	-9.592800	27.549900	0.000317	20.812203
2139.589454	-2.988500	3.196500	-9.551900	27.502082	0.000317	20.819568
2140.590783	-3.012000	3.197800	-9.631300	27.486181	0.000314	20.809734
2141.592621	-2.994200	3.198300	-9.574600	27.445545	0.000315	20.830017
2142.590221	-3.018100	3.193700	-9.638000	27.438377	0.000315	20.817117
2143.591147	-2.983800	3.195100	-9.532800	27.441652	0.000315	20.811877
2144.590473	-2.979500	3.196400	-9.523000	27.446421	0.000314	20.825209
2145.591788	-2.985100	3.195400	-9.537200	27.485171	0.000313	20.817253
2146.594153	-2.983500	3.194200	-9.528800	27.504983	0.000312	20.822961
2147.593019	-3.017800	3.192400	-9.632600	27.569926	0.000312	20.827136
2148.596357	-2.992500	3.194100	-9.557400	27.612931	0.000311	20.819673
2149.592326	-2.960900	3.192700	-9.452400	27.646314	0.000312	20.821970
2150.593305	-3.014100	3.191700	-9.619100	27.672304	0.000310	20.802130
2151.594326	-2.981900	3.190400	-9.512200	27.688992	0.000307	20.824612
2152.594032	-3.005200	3.191200	-9.589800	27.700098	0.000309	20.828675
2153.592303	-3.003600	3.191900	-9.586400	27.716505	0.000307	20.833331
2154.593323	-3.014300	3.191100	-9.617400	27.711633	0.000308	20.816576
2155.595288	-3.023900	3.190200	-9.646200	27.703378	0.000307	20.849045
2156.595179	-2.990800	3.189700	-9.539100	27.693012	0.000306	20.823916
2157.596460	-2.984100	3.189900	-9.518400	27.730058	0.000306	20.818047
2158.594357	-2.996500	3.187200	-9.548300	27.750723	0.000304	20.831730
2159.597913	-3.024800	3.185800	-9.635100	27.787320	0.000304	20.829679
2160.596945	-2.987800	3.187800	-9.523700	27.819431	0.000302	20.825012
2161.596130	-3.014600	3.185500	-9.602100	27.858290	0.000301	20.833300
2162.595496	-3.004300	3.185500	-9.568900	27.844157	0.000302	20.830930
2163.596816	-3.007200	3.184800	-9.576600	27.870668	0.000301	20.832482
2164.598112	-2.964000	3.187300	-9.446300	27.882073	0.000300	20.841589
2165.597325	-2.987200	3.184000	-9.510500	27.867737	0.000301	20.839489
2166.598290	-2.962000	3.185900	-9.435600	27.837390	0.000299	20.841188
2167.599090	-2.989400	3.185200	-9.521100	27.810486	0.000299	20.836398
2168.600900	-2.971000	3.183300	-9.455400	27.816758	0.000298	20.847925
2169.599161	-3.000600	3.181500	-9.545400	27.821071	0.000298	20.835671
2170.599849	-2.972600	3.184100	-9.464100	27.843581	0.000297	20.854531
2171.600487	-2.980400	3.182400	-9.483700	27.846824	0.000297	20.842148
2172.599874	-2.994100	3.182000	-9.525600	27.850886	0.000297	20.875632
2173.603859	-2.978000	3.182900	-9.477100	27.857966	0.000296	20.850043
2174.600814	-2.997800	3.181100	-9.535400	27.871151	0.000297	20.850510
2175.601340	-3.009100	3.179500	-9.566400	27.884287	0.000294	20.829592
2176.601172	-3.004800	3.179300	-9.552200	27.871689	0.000294	20.847733
2177.605756	-2.974100	3.179300	-9.454600	27.824925	0.000293	20.844765
2178.605103	-3.004500	3.177500	-9.546000	27.830695	0.000292	20.850097
2179.604470	-2.975300	3.177200	-9.451600	27.847882	0.000292	20.857437
2180.601361	-2.990800	3.177600	-9.502100	27.871958	0.000291	20.861753
2181.602069	-2.988400	3.177200	-9.493900	27.870275	0.000289	20.850103
2182.601871	-2.986500	3.175400	-9.481700	27.831692	0.000288	20.848730
2183.605391	-3.008000	3.176400	-9.553100	27.815894	0.000288	20.835202
2184.602557	-2.992700	3.176000	-9.504500	27.787949	0.000287	20.845959
2185.603488	-3.014200	3.174700	-9.568200	27.746389	0.000287	20.866722
2186.606906	-3.001600	3.173700	-9.525300	27.720493	0.000287	20.865792
2187.602629	-3.011500	3.172000	-9.551700	27.727658	0.000286	20.870158
2188.603903	-3.006800	3.172500	-9.538900	27.708817	0.000287	20.847880
2189.608452	-2.982700	3.175000	-9.468500	27.738813	0.000285	20.878538
2190.604158	-2.996000	3.172800	-9.504500	27.773662	0.000286	20.853865
2191.604692	-3.015500	3.169500	-9.556200	27.774782	0.000283	20.877276
2192.603586	-3.003800	3.171500	-9.525800	27.785563	0.000283	20.866316
2193.604097	-3.025700	3.169800	-9.589500	27.828883	0.000282	20.878144
2194.606150	-3.020700	3.169200	-9.572300	27.863160	0.000281	20.861433
2195.610071	-2.998300	3.169500	-9.502500	27.855787	0.000281	20.867763
2196.605785	-3.004600	3.170400	-9.524000	27.885051	0.000283	20.837474
2197.605031	-3.020300	3.166600	-9.562500	27.858351	0.000279	20.843318
2198.605370	-3.016900	3.167000	-9.553500	27.886489	0.000279	20.862153
2199.606319	-3.005700	3.167200	-9.518800	27.889793	0.000279	20.867850
2200.605499	-3.002100	3.166200	-9.504500	27.914737	0.000276	20.849334
2201.605347	-3.007000	3.166300	-9.520200	27.888753	0.000278	20.842148
2202.607021	-2.988500	3.166100	-9.461100	27.835510	0.000277	20.865374
2203.605635	-2.994400	3.165300	-9.477300	27.819100	0.000277	20.851705
2204.604025	-3.005700	3.164000	-9.509100	27.846133	0.000277	20.832444
2205.607093	-3.023100	3.162400	-9.558800	27.868129	0.000273	20.861692
2206.606575	-3.013600	3.164000	-9.534100	27.884709	0.000275	20.847560
2207.604716	-3.015500	3.162100	-9.534300	27.902568	0.000274	20.840406
2208.607305	-2.983300	3.162200	-9.432600	27.953122	0.000274	20.857622
2209.608844	-2.990700	3.164000	-9.461200	27.955184	0.000271	20.835043
2210.607420	-2.980300	3.161300	-9.418900	27.978224	0.000272	20.837845
2211.612922	-3.008900	3.161200	-9.510900	27.990796	0.000272	20.847180
2212.612181	-3.009700	3.159500	-9.507300	27.981686	0.000271	20.832795
2213.612392	-2.985100	3.160300	-9.432400	27.986232	0.000270	20.851595
2214.610972	-3.016300	3.159700	-9.529900	27.998082	0.000271	20.858306
2215.612098	-2.996700	3.158100	-9.463000	28.003888	0.000271	20.841866
2216.614305	-2.984100	3.157600	-9.421300	28.040060	0.000270	20.846509
2217.612404	-2.979400	3.158000	-9.406400	28.018441	0.000267	20.827593
2218.615509	-3.011500	3.156800	-9.505000	28.043302	0.000266	20.843134
2219.614509	-2.994900	3.156200	-9.451800	28.026003	0.000269	20.843738
2220.612605	-2.981300	3.155600	-9.407200	27.987603	0.000266	20.837328
2221.613096	-2.988500	3.155900	-9.430100	27.960281	0.000268	20.828319
2222.618824	-3.011600	3.154000	-9.497100	27.953037	0.000264	20.846158
2223.617491	-2.995400	3.153300	-9.444100	27.929165	0.000265	20.824976
2224.615429	-3.004500	3.153800	-9.474800	27.931667	0.000265	20.827494
2225.614049	-2.990800	3.153500	-9.429300	27.948455	0.000265	20.837279
2226.613153	-3.005500	3.151100	-9.468800	27.941015	0.000263	20.817937
2227.617721	-3.002600	3.149400	-9.453800	27.928492	0.000263	20.819557
2228.615897	-2.984600	3.150200	-9.401000	27.910719	0.000263	20.829643
2229.618770	-3.002700	3.151400	-9.461700	27.912205	0.000259	20.825924
2230.617033	-2.982000	3.151000	-9.395000	27.927305	0.000259	20.836380
2231.614783	-3.007900	3.149700	-9.473600	27.949544	0.000261	20.835530
2232.614906	-3.000500	3.148000	-9.445000	27.933129	0.000259	20.819957
2233.614910	-3.006900	3.148100	-9.465200	27.909697	0.000258	20.830037
2234.615265	-3.005000	3.146800	-9.455200	27.853886	0.000258	20.835979
2235.615489	-2.999200	3.146000	-9.434300	27.801339	0.000258	20.830511
2236.615871	-2.999100	3.145500	-9.432100	27.753654	0.000257	20.815714
2237.616474	-2.992400	3.145700	-9.410600	27.750981	0.000256	20.830093
2238.618383	-2.986800	3.144200	-9.389500	27.751598	0.000257	20.832137
2239.617074	-2.997300	3.143700	-9.422100	27.792467	0.000255	20.819686
2240.618136	-2.998300	3.143100	-9.423000	27.784549	0.000255	20.833054
2241.620605	-3.012900	3.142400	-9.466100	27.755735	0.000254	20.810696
2242.620937	-2.986400	3.141900	-9.382200	27.740186	0.000254	20.820653
2243.622710	-3.009500	3.139900	-9.448200	27.707852	0.000253	20.816564
2244.620538	-2.994600	3.139600	-9.400800	27.702938	0.000254	20.797869
2245.622812	-3.002400	3.140000	-9.426600	27.718414	0.000252	20.815339
2246.620511	-3.007200	3.138000	-9.435000	27.769527	0.000252	20.818412
2247.621431	-2.998400	3.138100	-9.408300	27.799179	0.000251	20.821699
2248.623149	-2.982800	3.137400	-9.357100	27.806815	0.000250	20.818479
2249.623628	-3.013700	3.136300	-9.450900	27.856217	0.000251	20.825050
2250.619485	-2.994400	3.136000	-9.388500	27.868637	0.000248	20.821903
2251.621125	-3.000000	3.136500	-9.408500	27.866820	0.000250	20.809168
2252.620195	-3.009300	3.134000	-9.430700	27.852141	0.000251	20.802456
2253.623525	-3.008200	3.133400	-9.423900	27.855048	0.000248	20.829089
2254.622658	-3.017900	3.133000	-9.454500	27.897264	0.000248	20.823214
2255.621409	-2.999000	3.133700	-9.396500	27.943486	0.000244	20.805726
2256.631042	-3.000700	3.132200	-9.397500	27.978028	0.000245	20.819631
2257.624358	-3.001300	3.131500	-9.397000	28.017046	0.000243	20.804852
2258.623581	-3.016600	3.130500	-9.442300	28.040703	0.000245	20.809698
2259.627723	-2.989100	3.131900	-9.360300	28.089139	0.000243	20.800135
2260.624748	-3.018300	3.128400	-9.441000	28.100596	0.000244	20.805505
2261.621736	-3.014100	3.129000	-9.430300	28.117173	0.000242	20.789001
2262.622901	-2.996100	3.128400	-9.371900	28.126195	0.000244	20.812783
2263.622499	-2.995800	3.126800	-9.366500	28.067221	0.000242	20.803201
2264.623082	-3.010500	3.126200	-9.409400	28.015773	0.000242	20.821588
2265.626324	-3.011600	3.127100	-9.416900	28.010047	0.000240	20.805393
2266.623483	-3.001200	3.125100	-9.378200	28.013320	0.000240	20.805843
2267.629067	-3.002700	3.124600	-9.381400	28.035502	0.000239	20.809204
2268.626056	-3.028000	3.123000	-9.455600	28.077821	0.000239	20.784474
2269.626402	-3.013400	3.123600	-9.411500	28.094282	0.000240	20.795830
2270.628321	-2.998000	3.122600	-9.359800	28.103036	0.000238	20.798478
2271.627178	-2.994700	3.122200	-9.347500	28.118328	0.000239	20.790639
2272.630303	-2.999200	3.121000	-9.359200	28.104363	0.000239	20.795546
2273.626984	-3.004900	3.120200	-9.375200	28.169685	0.000239	20.815312
2274.626806	-2.990100	3.120600	-9.330200	28.187948	0.000239	20.801457
2275.630609	-2.996700	3.119000	-9.345300	28.185447	0.000237	20.793249
2276.636287	-3.001800	3.117300	-9.357000	28.196652	0.000237	20.804056
2277.627394	-2.988000	3.117300	-9.313600	28.109837	0.000235	20.794893
2278.626380	-2.997100	3.116700	-9.339500	28.038168	0.000235	20.807621
2279.627049	-2.966900	3.115500	-9.242100	27.979360	0.000237	20.795841
2280.628718	-3.011900	3.115300	-9.380900	27.959966	0.000235	20.783433
2281.632257	-2.979200	3.114800	-9.277800	27.939465	0.000235	20.795515
2282.629416	-2.996200	3.113700	-9.328200	27.979213	0.000233	20.805651
2283.632411	-2.995800	3.113200	-9.325200	28.002840	0.000235	20.800035
2284.629425	-2.973500	3.114300	-9.259200	28.023015	0.000236	20.790471
2285.629342	-2.950100	3.112500	-9.181100	27.984566	0.000233	20.790650
2286.634034	-3.004300	3.110400	-9.343200	27.967154	0.000233	20.800625
2287.630831	-2.992900	3.109500	-9.305200	27.976472	0.000232	20.814745
2288.631293	-2.986600	3.109900	-9.286900	27.969956	0.000233	20.781160
2289.631309	-3.001900	3.108200	-9.329100	27.943827	0.000232	20.804172
2290.631679	-3.002400	3.106800	-9.326700	27.917293	0.000233	20.804967
2291.632806	-3.004500	3.106000	-9.330100	27.910642	0.000230	20.794479
2292.635069	-3.002700	3.105300	-9.323500	27.880229	0.000232	20.800379
2293.632540	-3.004200	3.104100	-9.324400	27.906538	0.000230	20.777546
2294.633006	-3.003700	3.104300	-9.323300	27.933066	0.000230	20.788125
2295.632044	-3.007500	3.102300	-9.329300	28.024355	0.000231	20.782337
2296.634720	-3.024000	3.102900	-9.381800	28.026692	0.000230	20.790853
2297.636018	-3.018200	3.101900	-9.360900	28.015503	0.000230	20.786703
2298.633072	-3.009700	3.100700	-9.331300	28.051553	0.000230	20.791697
2299.634685	-3.012900	3.100400	-9.340500	28.019595	0.000230	20.788452
2300.635052	-3.011800	3.098600	-9.330200	27.993638	0.000230	20.794566
2301.636937	-2.952400	3.100000	-9.151300	27.980626	0.000230	20.785262
2302.637594	-2.989100	3.098700	-9.261500	27.951291	0.000230	20.802202
2303.637800	-3.019700	3.096900	-9.350500	27.891462	0.000228	20.794141
2304.635807	-3.003500	3.094900	-9.294400	27.899844	0.000227	20.780292
2305.634920	-3.012300	3.094700	-9.320900	27.875702	0.000227	20.786340
2306.636419	-3.009300	3.094600	-9.311500	27.895366	0.000225	20.775785
2307.634629	-3.005500	3.092600	-9.293500	27.939147	0.000226	20.779548
2308.637763	-3.012200	3.091500	-9.311500	28.002228	0.000226	20.787566
2309.636541	-3.000100	3.091100	-9.272100	28.028387	0.000226	20.775964
2310.639720	-3.014000	3.090300	-9.313400	28.053719	0.000223	20.791981
2311.637182	-2.992500	3.090400	-9.246800	28.069929	0.000225	20.777479
2312.638718	-3.000500	3.090300	-9.271900	28.090490	0.000225	20.787270
2313.642460	-3.060700	3.086200	-9.444500	28.080103	0.000226	20.786771
2314.636695	-3.012700	3.087300	-9.299800	28.118628	0.000224	20.758697
2315.639915	-3.039900	3.086900	-9.381000	28.117760	0.000226	20.776789
2316.636638	-2.992700	3.086900	-9.237600	28.166645	0.000223	20.771949
2317.637961	-2.997000	3.085400	-9.246000	28.155488	0.000223	20.797227
2318.637842	-3.011000	3.083800	-9.283600	28.214935	0.000223	20.766986
2319.643880	-2.998300	3.083200	-9.243200	28.209932	0.000225	20.788028
2320.638341	-3.001900	3.080600	-9.247100	28.216770	0.000223	20.764566
2321.641438	-3.006300	3.081100	-9.260600	28.203883	0.000223	20.764868
2322.640826	-3.024400	3.081100	-9.316600	28.139114	0.000221	20.780269
2323.641852	-3.018400	3.079100	-9.291800	28.102749	0.000224	20.788232
2324.643930	-2.970200	3.078800	-9.143300	28.074090	0.000222	20.774081
2325.639557	-2.997700	3.076800	-9.222600	28.126324	0.000222	20.753642
2326.643546	-2.968300	3.077000	-9.132200	28.142962	0.000219	20.770867
2327.638224	-2.997200	3.074800	-9.215000	28.182127	0.000221	20.776630
2328.641055	-3.006100	3.073900	-9.238900	28.238936	0.000220	20.759382
2329.642004	-3.006600	3.073700	-9.240200	28.228477	0.000220	20.749800
2330.639556	-3.003000	3.072200	-9.223400	28.189412	0.000221	20.751721
2331.640521	-2.992400	3.070500	-9.187100	28.200317	0.000219	20.750372
2332.640522	-3.028300	3.068600	-9.289900	28.213009	0.000218	20.765521
2333.640329	-3.008500	3.069500	-9.233900	28.234966	0.000220	20.750169
2334.641342	-3.002800	3.068400	-9.212900	28.229810	0.000218	20.786230
2335.646145	-2.988700	3.068100	-9.168500	28.214324	0.000219	20.767319
2336.643001	-3.025100	3.065200	-9.271800	28.199846	0.000219	20.761752
2337.642271	-2.989100	3.066200	-9.164300	28.226196	0.000219	20.784962
2338.642190	-3.004800	3.064900	-9.208100	28.237279	0.000218	20.764351
2339.642573	-2.966000	3.065000	-9.089400	28.233114	0.000219	20.776279
2340.645936	-3.017100	3.061900	-9.236300	28.228948	0.000220	20.756912
2341.644826	-3.004600	3.061700	-9.198600	28.234153	0.000216	20.744134
2342.648679	-3.010700	3.060400	-9.213500	28.245487	0.000216	20.765503
2343.642848	-3.010900	3.059600	-9.210600	28.261206	0.000215	20.753828
2344.643006	-2.989200	3.059100	-9.142800	28.307204	0.000214	20.764579
2345.647411	-3.001700	3.057200	-9.175600	28.353928	0.000217	20.750459
2346.644326	-2.979600	3.055500	-9.103400	28.372984	0.000216	20.744042
2347.647684	-3.008200	3.054900	-9.188500	28.383692	0.000216	20.741074
2348.645208	-3.015400	3.052900	-9.204800	28.425594	0.000217	20.765725
2349.646040	-2.995000	3.053100	-9.143500	28.445848	0.000216	20.768576
2350.648518	-2.986700	3.053100	-9.117600	28.445701	0.000216	20.754678
2351.645865	-3.004000	3.049200	-9.158600	28.443567	0.000215	20.762960
2352.646358	-2.994000	3.049600	-9.129300	28.462028	0.000215	20.753101
2353.647268	-3.002400	3.048300	-9.150900	28.482128	0.000214	20.758169
2354.646851	-2.987700	3.049500	-9.109900	28.486714	0.000215	20.756624
2355.646980	-3.018100	3.046200	-9.191200	28.526588	0.000214	20.767382
2356.648161	-3.027600	3.044300	-9.216500	28.494143	0.000213	20.763631
2357.646945	-3.008300	3.044500	-9.157900	28.492981	0.000215	20.748710
2358.646308	-3.019200	3.042400	-9.184700	28.508226	0.000215	20.772598
2359.647054	-2.997600	3.042500	-9.119800	28.442631	0.000214	20.754432
2360.646033	-3.016500	3.041100	-9.171500	28.363029	0.000214	20.748243
2361.652041	-3.003400	3.040700	-9.131700	28.328133	0.000212	20.747719
2362.648487	-2.968000	3.040000	-9.022100	28.286618	0.000214	20.744326
2363.651051	-3.006300	3.038200	-9.133600	28.296379	0.000212	20.754154
2364.648514	-2.982300	3.037200	-9.057000	28.363548	0.000212	20.736438
2365.651747	-3.005800	3.036100	-9.125200	28.386402	0.000213	20.726732
2366.654216	-2.990900	3.034400	-9.074900	28.381846	0.000211	20.740164
2367.651339	-2.978300	3.033300	-9.032900	28.370294	0.000213	20.753662
2368.648667	-2.973800	3.033300	-9.018800	28.334799	0.000213	20.729774
2369.649767	-3.003700	3.030400	-9.100800	28.297750	0.000213	20.745102
2370.650074	-3.001400	3.030200	-9.094400	28.335625	0.000211	20.758108
2371.652399	-2.996000	3.028100	-9.070500	28.327895	0.000211	20.735151
2372.654364	-2.991300	3.028000	-9.056900	28.306770	0.000212	20.724786
2373.651430	-2.978900	3.027200	-9.016800	28.305089	0.000213	20.748699
2374.656340	-3.001400	3.023800	-9.073700	28.333937	0.000210	20.733648
2375.652509	-2.985200	3.025200	-9.030100	28.346529	0.000212	20.740638
2376.652877	-2.993800	3.022100	-9.045800	28.384892	0.000210	20.738014
2377.652932	-2.993800	3.022000	-9.046300	28.403758	0.000210	20.725243
2378.652881	-2.992400	3.019100	-9.033200	28.374165	0.000211	20.737645
2379.654012	-2.998500	3.019400	-9.053400	28.386684	0.000210	20.719904
2380.651527	-3.010200	3.016200	-9.077500	28.435135	0.000210	20.726019
2381.651720	-2.978100	3.016400	-8.981400	28.447206	0.000209	20.720156
2382.652062	-2.998000	3.015500	-9.039500	28.426757	0.000207	20.735127
2383.657284	-2.989800	3.014600	-9.012200	28.425320	0.000208	20.714712
2384.653045	-2.992300	3.013600	-9.016900	28.413646	0.000208	20.730459
2385.658887	-2.993200	3.011600	-9.013400	28.395251	0.000209	20.741334
2386.654778	-3.014300	3.010300	-9.073300	28.434609	0.000208	20.751094
2387.654833	-2.968900	3.011500	-8.939900	28.471367	0.000208	20.738797
2388.656338	-2.990900	3.007800	-8.993400	28.510520	0.000208	20.742664
2389.653516	-3.006600	3.008700	-9.044900	28.532819	0.000210	20.737146
2390.654767	-3.016700	3.005700	-9.066200	28.472351	0.000208	20.730304
2391.654316	-3.008100	3.003900	-9.034200	28.401372	0.000209	20.729005
2392.655446	-3.002900	3.002900	-9.016700	28.333215	0.000209	20.734818
2393.657205	-2.976600	3.002600	-8.935900	28.360210	0.000209	20.730231
2394.660362	-2.977300	3.002200	-8.937700	28.377131	0.000208	20.732570
2395.654463	-3.002700	3.000200	-9.007700	28.381449	0.000207	20.717477
2396.654698	-2.987200	2.998000	-8.954700	28.409133	0.000209	20.742510
2397.656665	-3.025900	2.996400	-9.065200	28.401794	0.000207	20.741284
2398.656256	-2.991400	2.995600	-8.960400	28.393074	0.000207	20.731555
2399.659606	-3.015700	2.995100	-9.031500	28.351574	0.000208	20.722009
2400.655093	-2.986400	2.993200	-8.937500	28.346296	0.000208	20.742774
2401.657146	-3.003800	2.990300	-8.980500	28.338193	0.000209	20.714225
2402.657137	-2.995300	2.991300	-8.959200	28.371822	0.000207	20.717741
2403.656681	-2.987800	2.989900	-8.931600	28.377717	0.000208	20.700442
2404.661178	-2.977200	2.987600	-8.893600	28.366465	0.000206	20.716140
2405.658981	-2.984500	2.986400	-8.911900	28.350057	0.000209	20.713842
2406.657882	-3.002000	2.984300	-8.957700	28.351738	0.000208	20.722648
2407.656928	-3.056900	2.981700	-9.113400	28.407310	0.000209	20.728345
2408.656752	-3.020100	2.981100	-9.001600	28.399029	0.000208	20.710049
2409.656138	-3.002700	2.979800	-8.946300	28.441945	0.000208	20.706323
2410.661233	-3.025800	2.978200	-9.010300	28.487624	0.000208	20.719607
2411.658418	-2.949200	2.979400	-8.785200	28.494259	0.000208	20.727710
2412.657783	-2.981000	2.977200	-8.874100	28.521873	0.000205	20.715690
2413.659083	-3.002000	2.975000	-8.930200	28.560895	0.000206	20.701408
2414.659061	-3.000500	2.974500	-8.924500	28.549101	0.000206	20.729361
2415.662893	-3.013900	2.971700	-8.955000	28.562186	0.000206	20.709347
2416.660634	-2.993200	2.971900	-8.895000	28.537281	0.000207	20.725518
2417.661957	-3.016900	2.968100	-8.953600	28.539880	0.000209	20.722919
2418.660909	-3.008100	2.968300	-8.927900	28.559305	0.000205	20.710713
2419.662691	-2.997800	2.965400	-8.888300	28.564784	0.000208	20.723344
2420.661039	-3.028400	2.963600	-8.972100	28.582528	0.000206	20.697590
2421.662081	-3.009400	2.962900	-8.915700	28.597141	0.000206	20.717999
2422.661253	-2.991500	2.962100	-8.860500	28.597196	0.000209	20.719951
2423.662174	-2.975200	2.960400	-8.806700	28.651207	0.000207	20.723615
2424.662783	-2.995900	2.958300	-8.861200	28.639291	0.000206	20.705448
2425.661519	-2.986100	2.957700	-8.831100	28.605462	0.000205	20.729225
2426.664114	-2.992500	2.955700	-8.844200	28.600307	0.000206	20.739207
2427.662208	-3.012700	2.954200	-8.899200	28.623700	0.000208	20.716773
2428.665347	-2.999200	2.953200	-8.856100	28.646493	0.000206	20.703692
2429.661839	-3.009200	2.949600	-8.875100	28.619585	0.000207	20.716896
2430.663018	-3.002700	2.949100	-8.853500	28.609479	0.000205	20.719045
2431.668596	-2.959600	2.950100	-8.730200	28.650949	0.000205	20.727623
2432.664215	-2.993700	2.947500	-8.822700	28.666589	0.000206	20.718719
2433.664082	-2.978700	2.945700	-8.773200	28.646126	0.000205	20.701427
2434.662469	-2.985700	2.944200	-8.788500	28.623254	0.000204	20.713004
2435.663261	-3.010300	2.940900	-8.852600	28.513727	0.000205	20.687096
2436.664655	-3.038100	2.939000	-8.927500	28.496233	0.000205	20.708835
2437.666098	-2.997900	2.937700	-8.804400	28.513061	0.000205	20.694486
2438.665061	-2.996900	2.936700	-8.799500	28.528922	0.000204	20.708090
2439.664586	-3.005000	2.936100	-8.821300	28.534945	0.000205	20.723165
2440.662693	-2.999300	2.934000	-8.798700	28.579972	0.000205	20.711613
2441.667701	-2.973000	2.932300	-8.716100	28.533784	0.000205	20.721047
2442.668167	-3.010800	2.929100	-8.818300	28.498820	0.000205	20.706224
2443.666162	-3.006800	2.929300	-8.806000	28.506500	0.000203	20.694517
2444.670835	-2.975400	2.928900	-8.712500	28.555221	0.000204	20.706126
2445.666049	-3.015400	2.925300	-8.819800	28.542527	0.000204	20.723215
2446.673747	-3.004000	2.924400	-8.783900	28.573931	0.000205	20.705529
2447.668449	-3.003700	2.922100	-8.775700	28.576750	0.000205	20.738715
2448.671686	-2.990200	2.920100	-8.730400	28.611961	0.000205	20.712536
2449.664633	-3.003000	2.920200	-8.767400	28.647447	0.000204	20.721251
2450.665902	-2.997100	2.917900	-8.743300	28.671279	0.000204	20.693569
2451.666625	-2.963300	2.918100	-8.644800	28.656618	0.000205	20.704408
2452.668531	-2.986900	2.914500	-8.704300	28.619207	0.000206	20.707980
2453.670011	-2.996600	2.913100	-8.727400	28.527805	0.000203	20.700326
2454.666222	-2.989500	2.911200	-8.702200	28.477768	0.000204	20.720586
2455.670695	-3.015700	2.909500	-8.773700	28.439409	0.000205	20.711355
2456.668658	-2.967500	2.909300	-8.632700	28.462780	0.000203	20.729202
2457.669745	-2.981200	2.907300	-8.665700	28.452177	0.000205	20.697185
2458.672834	-2.978300	2.903600	-8.646700	28.457161	0.000206	20.709317
2459.674286	-2.994100	2.902200	-8.688100	28.427197	0.000205	20.700954
2460.671308	-2.992200	2.901100	-8.679400	28.423632	0.000204	20.692148
2461.670017	-2.993500	2.899600	-8.679500	28.407127	0.000203	20.709194
2462.670275	-2.972700	2.897300	-8.612300	28.450716	0.000203	20.705671
2463.670456	-2.997600	2.895600	-8.679100	28.487748	0.000203	20.736802
2464.675422	-2.986100	2.893900	-8.640800	28.540370	0.000207	20.717723
2465.669970	-3.012000	2.891500	-8.708700	28.519539	0.000202	20.714761
2466.670472	-3.006500	2.888300	-8.682800	28.500112	0.000203	20.718432
2467.672288	-2.969400	2.887900	-8.574100	28.508116	0.000206	20.733606
2468.673039	-3.005500	2.884400	-8.668200	28.539240	0.000204	20.710420
2469.676809	-3.006400	2.882600	-8.665300	28.595492	0.000205	20.717287
2470.673836	-2.981400	2.882600	-8.593400	28.629071	0.000204	20.720760
2471.677483	-3.005500	2.879900	-8.653100	28.678519	0.000203	20.702285
2472.673504	-3.007100	2.877000	-8.649300	28.683826	0.000203	20.699095
2473.673644	-3.021300	2.875300	-8.685700	28.687739	0.000204	20.727694
2474.673031	-3.016000	2.874300	-8.667900	28.722330	0.000205	20.719387
2475.677443	-3.002200	2.872800	-8.623900	28.738066	0.000205	20.707736
2476.673658	-3.018200	2.870200	-8.661900	28.756937	0.000204	20.706830
2477.674054	-3.014300	2.868200	-8.644600	28.747927	0.000204	20.733317
2478.673925	-2.991000	2.867700	-8.575700	28.757536	0.000204	20.733514
2479.674020	-3.003700	2.863800	-8.599800	28.776041	0.000204	20.722281
2480.674439	-3.006600	2.863100	-8.606600	28.765294	0.000205	20.722836
2481.673830	-3.012500	2.860000	-8.614400	28.763558	0.000203	20.709232
2482.673822	-3.022200	2.858200	-8.636600	28.750793	0.000204	20.723402
2483.673495	-3.020700	2.856300	-8.627100	28.764451	0.000204	20.744746
2484.673754	-2.987700	2.855100	-8.529300	28.789887	0.000204	20.720581
2485.677569	-2.988900	2.853700	-8.528400	28.755856	0.000203	20.722337
2486.674742	-2.976100	2.851900	-8.486500	28.742986	0.000204	20.725021
2487.678553	-3.000200	2.849300	-8.546300	28.762408	0.000203	20.728938
2488.674429	-2.984200	2.846600	-8.494300	28.776065	0.000205	20.714719
2489.676401	-3.010800	2.843200	-8.559400	28.763820	0.000202	20.726567
2490.678884	-2.967800	2.842400	-8.433800	28.702014	0.000205	20.747764
2491.676641	-2.995500	2.839300	-8.504800	28.663413	0.000204	20.710303
2492.674258	-2.988600	2.839400	-8.484900	28.641733	0.000203	20.721185
2493.674690	-2.962600	2.835900	-8.400700	28.616977	0.000203	20.720908
2494.674716	-2.997800	2.833500	-8.493700	28.554654	0.000204	20.736851
2495.673764	-2.982000	2.831500	-8.442100	28.541796	0.000201	20.730539
2496.677540	-2.980200	2.828200	-8.427600	28.533279	0.000203	20.750886
2497.675179	-2.957600	2.829300	-8.366800	28.575003	0.000202	20.729369
2498.678867	-2.971400	2.826900	-8.397800	28.621587	0.000202	20.735983
2499.676278	-2.988000	2.822800	-8.433200	28.647358	0.000205	20.736808
2500.687931	-2.987200	2.821700	-8.428100	28.664929	0.000205	20.717995
2501.679066	-2.991000	2.819200	-8.430400	28.669068	0.000203	20.723587
2502.675185	-2.980400	2.816800	-8.393700	28.649223	0.000203	20.737739
2503.678259	-2.977700	2.813400	-8.375900	28.598783	0.000203	20.741939
2504.676601	-2.976000	2.811000	-8.364400	28.583491	0.000203	20.729382
2505.675214	-2.995700	2.809100	-8.415000	28.583540	0.000202	20.736070
2506.677251	-2.986800	2.806100	-8.379600	28.644344	0.000203	20.731402
2507.676959	-2.984700	2.803500	-8.366700	28.714940	0.000205	20.741342
2508.677692	-2.997100	2.800600	-8.392800	28.742908	0.000203	20.736797
2509.679751	-3.012100	2.798900	-8.430000	28.729233	0.000204	20.729186
2510.676907	-2.958900	2.796200	-8.272300	28.707237	0.000202	20.742118
2511.679588	-2.999700	2.792700	-8.376500	28.648790	0.000201	20.710748
2512.681516	-2.959500	2.790900	-8.259000	28.615469	0.000203	20.724605
2513.679831	-3.005800	2.787900	-8.379000	28.631298	0.000203	20.748135
2514.682094	-3.006500	2.784400	-8.370500	28.692204	0.000203	20.749262
2515.679081	-2.989200	2.781700	-8.313800	28.745892	0.000201	20.752606
2516.678686	-2.971700	2.782300	-8.267000	28.823761	0.000202	20.727204
2517.683583	-2.999000	2.776700	-8.325700	28.877296	0.000205	20.759324
2518.682183	-2.970300	2.775600	-8.243100	28.931080	0.000203	20.733849
2519.682265	-2.976600	2.772500	-8.251000	28.988894	0.000202	20.747526
2520.678610	-3.002500	2.769600	-8.314400	28.960932	0.000201	20.754442
2521.681018	-2.995300	2.765600	-8.282600	28.937278	0.000202	20.737248
2522.682114	-2.989600	2.764800	-8.264300	28.921007	0.000202	20.730813
2523.684291	-2.994500	2.761200	-8.267500	28.905849	0.000202	20.753475
2524.679869	-2.971000	2.759100	-8.195900	28.890519	0.000204	20.754627
2525.695585	-2.986700	2.755400	-8.228900	28.874004	0.000203	20.741782
2526.682156	-3.006500	2.751900	-8.273100	28.901968	0.000202	20.737237
2527.683180	-2.983300	2.749100	-8.200100	28.893900	0.000203	20.744757
2528.686914	-2.991900	2.744700	-8.211000	28.889866	0.000204	20.744012
2529.683671	-2.989700	2.744100	-8.203200	28.956025	0.000203	20.746179
2530.683677	-2.961000	2.739700	-8.111200	28.961979	0.000202	20.764980
2531.686768	-2.960300	2.736600	-8.099800	28.953948	0.000204	20.739344
2532.685047	-2.978000	2.733400	-8.138500	28.969705	0.000203	20.749530
2533.685807	-2.973800	2.729900	-8.116500	28.934041	0.000203	20.761015
2534.688103	-3.011200	2.726100	-8.207400	28.971985	0.000203	20.759413
2535.686690	-2.987800	2.723600	-8.136600	28.999898	0.000202	20.755768
2536.686635	-2.999700	2.720900	-8.160600	29.026252	0.000204	20.746284
2537.685752	-2.984900	2.716100	-8.107000	29.033561	0.000203	20.753650
2538.685226	-2.996400	2.712600	-8.126600	29.098136	0.000202	20.758496
2539.688738	-3.018600	2.709500	-8.177500	29.113316	0.000204	20.762887
2540.689115	-2.998400	2.705800	-8.112600	29.131026	0.000203	20.752757
2541.688784	-2.996200	2.703000	-8.097900	29.144208	0.000202	20.749919
2542.686403	-3.010200	2.698600	-8.122100	29.176167	0.000203	20.753200
2543.686490	-3.008100	2.694500	-8.103900	29.226178	0.000203	20.742430
2544.688458	-3.014800	2.690200	-8.109400	29.252397	0.000203	20.757948
2545.691210	-2.996500	2.688000	-8.053500	29.234769	0.000201	20.759624
2546.688469	-3.024700	2.682300	-8.112000	29.237599	0.000204	20.742560
2547.687953	-3.012100	2.679800	-8.071500	29.247357	0.000202	20.767094
2548.690021	-3.008000	2.676400	-8.047600	29.272269	0.000204	20.746206
2549.689514	-3.007900	2.672500	-8.038100	29.279919	0.000202	20.755812
2550.690545	-2.964300	2.668500	-7.908000	29.311661	0.000203	20.778794
2551.689274	-3.032000	2.663100	-8.074200	29.330193	0.000204	20.765703
2552.690013	-2.989600	2.659800	-7.951200	29.317320	0.000201	20.755099
2553.690985	-2.980500	2.654900	-7.911800	29.298208	0.000202	20.771399
2554.690908	-3.002700	2.651800	-7.961700	29.302191	0.000202	20.782052
2555.694159	-2.989400	2.646900	-7.911400	29.318536	0.000202	20.768653
2556.692582	-2.984700	2.643900	-7.890400	29.317693	0.000203	20.759742
2557.695554	-2.996700	2.638900	-7.906700	29.345255	0.000201	20.767132
2558.693309	-3.002700	2.634800	-7.910400	29.327280	0.000202	20.756602
2559.693044	-2.991900	2.629500	-7.866300	29.334312	0.000201	20.770802
2560.696908	-2.975700	2.626000	-7.813600	29.287216	0.000204	20.778814
2561.694722	-3.020600	2.619700	-7.912400	29.322526	0.000205	20.750388
2562.692080	-3.020100	2.614900	-7.896900	29.336591	0.000203	20.786376
2563.691834	-3.029900	2.610200	-7.907900	29.338651	0.000203	20.768536
2564.693226	-2.997400	2.605200	-7.807800	29.370366	0.000203	20.770630
2565.695470	-3.003500	2.599700	-7.807700	29.372951	0.000204	20.767071
2566.698407	-2.982500	2.594600	-7.736000	29.404091	0.000204	20.767163
2567.699137	-2.982700	2.590900	-7.726600	29.428487	0.000205	20.769467
2568.695345	-3.044100	2.582900	-7.861600	29.398282	0.000203	20.768894
2569.693793	-3.026800	2.578300	-7.803100	29.304857	0.000203	20.772410
2570.694007	-3.037200	2.573300	-7.812600	29.232376	0.000206	20.788981
2571.697378	-2.979200	2.569600	-7.653900	29.220199	0.000203	20.784295
2572.692743	-3.045000	2.561000	-7.796900	29.236025	0.000203	20.768476
2573.697573	-3.030100	2.557600	-7.747800	29.270915	0.000205	20.787042
2574.693902	-3.000700	2.551700	-7.655400	29.332841	0.000204	20.761258
2575.697544	-2.979500	2.546300	-7.585400	29.390438	0.000202	20.774738
2576.698333	-2.984500	2.540200	-7.579900	29.450805	0.000204	20.768254
2577.699275	-3.011300	2.533900	-7.628900	29.502727	0.000205	20.770330
2578.696926	-3.028000	2.527000	-7.649700	29.550088	0.000205	20.768760
2579.698176	-2.998600	2.522700	-7.563500	29.599995	0.000206	20.778292
2580.696796	-2.996800	2.515300	-7.536400	29.608113	0.000203	20.773674
2581.698431	-2.999200	2.508200	-7.521500	29.645165	0.000205	20.778784
2582.699991	-2.962900	2.503800	-7.416400	29.615541	0.000206	20.775472
2583.695907	-2.998900	2.496100	-7.485000	29.601302	0.000206	20.779610
