LabVIEW Measurement	
Writer_Version	2
Reader_Version	2
Separator	Tab
Decimal_Separator	.
Multi_Headings	No
X_Columns	One
Time_Pref	Absolute
Operator	admin
Description	Clolumns are: time, Current, Voltage, Power, Battery Temp, and Chamber Temp
Date	2024/08/16
Time	13:06:06.104549407958984375
***End_of_Header***	
	
Channels	6						
Samples	1	1	1	1	1	1	
Date	2024/09/01	2024/09/01	2024/09/01	2024/09/01	2024/09/01	2024/09/01	
Time	04:12:38.6768050193786621094	04:12:38.6828126907348632812	04:12:38.6878399848937988281	04:12:38.6606373786926269531	04:12:38.6606373786926269531	04:12:38.6606373786926269531	
X_Dimension	Time	Time	Time	Time	Time	Time	
X0	0.0000000000000000E+0	0.0000000000000000E+0	0.0000000000000000E+0	0.0000000000000000E+0	0.0000000000000000E+0	0.0000000000000000E+0	
Delta_X	1.000000	1.000000	1.000000	1.000000	1.000000	1.000000	
***End_of_Header***							
X_Value	Untitled	Untitled 1	Untitled 2	Untitled 3	Untitled 4	Untitled 5	Comment
0.000000	0.026279	4.109400	0.107910	21.121007	0.000962	20.880654
1.003401	-3.020700	3.941200	-11.905000	21.107519	0.000962	20.881860
2.000716	-2.995300	3.934100	-11.783000	21.116586	0.000960	20.907523
3.001655	-2.987600	3.928900	-11.736000	21.104313	0.000959	20.876757
4.003850	-2.979000	3.924600	-11.691000	21.123110	0.000958	20.870904
5.001632	-3.043700	3.920300	-11.929000	21.123429	0.000960	20.886395
6.001789	-3.008100	3.918200	-11.786000	21.112381	0.000958	20.868707
7.005237	-3.028000	3.913700	-11.849000	21.119311	0.000955	20.873741
8.001795	-3.003600	3.912400	-11.750000	21.139029	0.000958	20.859327
9.002202	-3.006700	3.911700	-11.760000	21.118708	0.000954	20.868871
10.003039	-2.998500	3.909500	-11.722000	21.134660	0.000955	20.880560
11.002024	-3.005200	3.908000	-11.743000	21.106667	0.000952	20.886223
12.003990	-3.010800	3.905800	-11.759000	21.129368	0.000953	20.876689
13.003614	-2.984000	3.905100	-11.652000	21.154759	0.000951	20.877431
14.003758	-3.026200	3.902100	-11.808000	21.154888	0.000952	20.877086
15.004056	-2.993200	3.902100	-11.680000	21.149683	0.000950	20.874251
16.004364	-2.990000	3.900100	-11.660000	21.155371	0.000948	20.869509
17.004472	-3.001000	3.899000	-11.700000	21.145623	0.000948	20.885836
18.002777	-3.011100	3.896900	-11.733000	21.169462	0.000950	20.872225
19.010964	-3.002800	3.895800	-11.697000	21.161188	0.000947	20.852570
20.004353	-2.994500	3.896700	-11.668000	21.159086	0.000947	20.875596
21.003565	-3.000700	3.895700	-11.689000	21.167669	0.000946	20.874225
22.003523	-3.038800	3.892800	-11.827000	21.151950	0.000946	20.873673
23.004873	-2.995600	3.893900	-11.663000	21.177813	0.000946	20.879156
24.004961	-2.989900	3.893800	-11.640000	21.185784	0.000944	20.880966
25.005002	-3.030600	3.891300	-11.792000	21.187500	0.000944	20.872251
26.006684	-2.987400	3.892800	-11.627000	21.198937	0.000945	20.874208
27.006147	-3.009000	3.889300	-11.701000	21.200323	0.000943	20.876544
28.004645	-3.010900	3.889300	-11.708000	21.201142	0.000939	20.860769
29.005250	-3.010900	3.889600	-11.711000	21.190534	0.000941	20.865803
30.005178	-3.014300	3.888100	-11.718000	21.218422	0.000939	20.859562
31.005846	-2.996700	3.886900	-11.647000	21.217241	0.000940	20.865968
32.007626	-2.989100	3.888300	-11.622000	21.235597	0.000940	20.877217
33.007740	-2.994400	3.887100	-11.638000	21.211666	0.000939	20.868451
34.009377	-2.995200	3.885700	-11.638000	21.264535	0.000939	20.881984
35.010132	-3.006700	3.884900	-11.679000	21.243216	0.000937	20.863503
36.010939	-3.001600	3.884800	-11.659000	21.247111	0.000937	20.863132
37.010469	-3.004800	3.884500	-11.672000	21.260701	0.000936	20.866770
38.011286	-3.027000	3.883700	-11.754000	21.246457	0.000937	20.869589
39.012017	-3.010100	3.882000	-11.684000	21.264432	0.000935	20.874295
40.012292	-3.029900	3.880400	-11.756000	21.270699	0.000937	20.889099
41.012065	-2.989700	3.882900	-11.608000	21.260427	0.000935	20.857013
42.012710	-3.023900	3.880600	-11.733000	21.289132	0.000933	20.846376
43.011759	-3.011100	3.881500	-11.686000	21.281600	0.000934	20.883409
44.016537	-2.973900	3.880700	-11.541000	21.273311	0.000933	20.859471
45.011868	-3.010200	3.881100	-11.682000	21.294252	0.000934	20.871411
46.014206	-2.995400	3.880500	-11.622000	21.303627	0.000933	20.857558
47.016600	-3.007700	3.878600	-11.665000	21.290218	0.000931	20.865480
48.014972	-2.972900	3.879700	-11.533000	21.304327	0.000935	20.869162
49.014832	-2.971400	3.879100	-11.525000	21.305204	0.000932	20.857713
50.017836	-2.987700	3.878800	-11.587000	21.308393	0.000932	20.864221
51.014308	-2.989700	3.878200	-11.594000	21.338786	0.000934	20.846740
52.014535	-2.981600	3.879200	-11.565000	21.353771	0.000933	20.858412
53.016760	-2.999800	3.877200	-11.630000	21.328411	0.000932	20.852955
54.016716	-3.010500	3.875800	-11.666000	21.345930	0.000935	20.869059
55.015873	-2.978000	3.877200	-11.545000	21.350360	0.000932	20.849784
56.017968	-2.984000	3.876200	-11.566000	21.368765	0.000932	20.853500
57.017210	-3.009900	3.875000	-11.662000	21.368085	0.000932	20.830535
58.021064	-3.013200	3.875600	-11.676000	21.368662	0.000931	20.857664
59.021806	-3.007500	3.875200	-11.654000	21.364484	0.000930	20.836415
60.019424	-3.004800	3.874200	-11.640000	21.359718	0.000931	20.859621
61.020336	-3.008200	3.873800	-11.652000	21.395375	0.000932	20.857363
62.021521	-2.999900	3.872600	-11.616000	21.364293	0.000931	20.848552
63.021020	-3.014200	3.874900	-11.679000	21.396719	0.000928	20.845433
64.019181	-3.018400	3.872900	-11.689000	21.397029	0.000931	20.863285
65.024647	-2.983800	3.873500	-11.557000	21.394202	0.000930	20.845759
66.020966	-2.996200	3.873500	-11.605000	21.416881	0.000929	20.856122
67.021014	-3.003100	3.873300	-11.630000	21.416330	0.000929	20.826648
68.025265	-2.988800	3.871100	-11.569000	21.445176	0.000928	20.840337
69.020797	-3.004100	3.872500	-11.631000	21.458255	0.000928	20.846784
70.021059	-2.982400	3.872600	-11.549000	21.460212	0.000928	20.836889
71.024462	-2.978300	3.872700	-11.532000	21.475608	0.000928	20.854190
72.021663	-2.998500	3.870100	-11.603000	21.453913	0.000929	20.854293
73.021422	-2.990500	3.872300	-11.579000	21.455386	0.000928	20.860034
74.023649	-2.998300	3.870100	-11.603000	21.482078	0.000928	20.845491
75.023151	-2.993700	3.871400	-11.589000	21.478822	0.000928	20.841285
76.024290	-3.006300	3.869700	-11.632000	21.476211	0.000929	20.873758
77.027766	-2.968300	3.871800	-11.491000	21.496139	0.000929	20.881370
78.023567	-2.997400	3.869800	-11.599000	21.515171	0.000928	20.830715
79.022040	-3.021200	3.868100	-11.685000	21.511035	0.000930	20.851707
80.027508	-3.016900	3.867700	-11.667000	21.520065	0.000928	20.840827
81.022230	-3.000400	3.868500	-11.606000	21.517515	0.000927	20.834957
82.023013	-3.025900	3.868500	-11.705000	21.528594	0.000928	20.829922
83.028772	-3.002400	3.868800	-11.614000	21.526905	0.000928	20.849568
84.026614	-3.006300	3.869100	-11.630000	21.516532	0.000928	20.840137
85.025809	-2.993000	3.868200	-11.575000	21.527888	0.000927	20.837276
86.028204	-2.994200	3.868100	-11.580000	21.528233	0.000927	20.829561
87.026864	-2.999500	3.867700	-11.601000	21.518143	0.000927	20.842698
88.024639	-3.022500	3.866100	-11.683000	21.557534	0.000927	20.829957
89.028810	-3.010900	3.867800	-11.643000	21.588978	0.000928	20.846249
90.025307	-3.018400	3.866200	-11.669000	21.568655	0.000928	20.832077
91.024813	-2.998200	3.865400	-11.587000	21.580552	0.000928	20.849671
92.028896	-3.002300	3.867800	-11.612000	21.589339	0.000927	20.841395
93.025881	-3.023100	3.864200	-11.681000	21.589004	0.000927	20.820197
94.027137	-3.019500	3.865600	-11.671000	21.613781	0.000927	20.823181
95.030403	-2.991200	3.865600	-11.562000	21.615193	0.000927	20.813688
96.026291	-3.011900	3.865400	-11.641000	21.613514	0.000927	20.831922
97.027576	-3.023500	3.863400	-11.680000	21.617743	0.000926	20.812921
98.034308	-3.003000	3.864500	-11.604000	21.620147	0.000926	20.828603
99.028157	-2.981400	3.865500	-11.523000	21.621681	0.000928	20.818285
100.028574	-2.997300	3.862800	-11.575000	21.638316	0.000928	20.831138
101.034032	-3.007400	3.864100	-11.620000	21.649894	0.000926	20.833241
102.030059	-3.004900	3.863600	-11.608000	21.672698	0.000927	20.826664
103.030021	-2.996900	3.863100	-11.576000	21.671112	0.000927	20.830767
104.030986	-3.000200	3.863100	-11.588000	21.676858	0.000927	20.814233
105.030905	-2.998600	3.861800	-11.579000	21.663041	0.000928	20.831225
106.029834	-2.991100	3.863600	-11.556000	21.691778	0.000928	20.823000
107.033089	-3.010500	3.862200	-11.626000	21.683405	0.000927	20.821733
108.031384	-2.986900	3.864700	-11.542000	21.697757	0.000930	20.831828
109.030682	-2.994800	3.861700	-11.563000	21.706733	0.000927	20.812837
110.032668	-2.998600	3.861400	-11.578000	21.709756	0.000927	20.841466
111.032030	-2.997000	3.860900	-11.570000	21.716553	0.000926	20.822190
112.035445	-2.987000	3.862400	-11.535000	21.724366	0.000928	20.826690
113.032078	-3.003700	3.860300	-11.594000	21.734324	0.000930	20.809156
114.031739	-2.992000	3.862100	-11.555000	21.718165	0.000929	20.810053
115.032041	-3.003600	3.860500	-11.594000	21.732645	0.000927	20.822648
116.031300	-2.993000	3.861400	-11.556000	21.733351	0.000928	20.824303
117.030774	-2.992900	3.861900	-11.557000	21.752044	0.000927	20.815510
118.031004	-3.004700	3.859600	-11.596000	21.750674	0.000927	20.825993
119.032977	-3.040200	3.858200	-11.728000	21.749021	0.000928	20.830976
120.030970	-2.989400	3.859200	-11.535000	21.771555	0.000929	20.837882
121.031572	-3.006800	3.859200	-11.603000	21.773923	0.000927	20.811804
122.030417	-3.005600	3.859800	-11.600000	21.804330	0.000928	20.823744
123.030709	-2.997600	3.858400	-11.565000	21.809480	0.000929	20.821313
124.032257	-3.021200	3.857400	-11.653000	21.805097	0.000928	20.804124
125.034204	-3.007000	3.858000	-11.600000	21.819912	0.000929	20.811365
126.034187	-3.018200	3.856800	-11.639000	21.832538	0.000929	20.802666
127.035205	-2.996700	3.858700	-11.562000	21.818233	0.000930	20.793089
128.033828	-3.017100	3.857600	-11.638000	21.813589	0.000928	20.802192
129.035171	-3.002300	3.858300	-11.582000	21.827069	0.000930	20.806675
130.035562	-3.012300	3.857300	-11.619000	21.838783	0.000928	20.809865
131.034912	-3.010700	3.855900	-11.607000	21.863443	0.000930	20.799934
132.034068	-3.003200	3.855300	-11.576000	21.863994	0.000931	20.807124
133.033377	-3.015700	3.855800	-11.626000	21.861918	0.000930	20.795563
134.038085	-3.003400	3.856300	-11.581000	21.882211	0.000932	20.785054
135.038743	-3.006300	3.856500	-11.593000	21.862753	0.000930	20.805408
136.038929	-3.013100	3.855700	-11.617000	21.880203	0.000929	20.786364
137.039331	-3.004900	3.856100	-11.586000	21.890815	0.000931	20.781338
138.039460	-3.023900	3.855000	-11.655000	21.890496	0.000931	20.799511
139.038377	-3.010400	3.856900	-11.609000	21.924257	0.000930	20.794425
140.038454	-2.996400	3.855800	-11.552000	21.899806	0.000931	20.774217
141.039967	-3.003600	3.855900	-11.580000	21.903734	0.000932	20.820822
142.039716	-3.010300	3.854700	-11.602000	21.914387	0.000932	20.797821
143.039449	-3.048800	3.852600	-11.745000	21.923870	0.000933	20.808262
144.040432	-3.026400	3.852600	-11.658000	21.912363	0.000932	20.786312
145.038539	-3.015000	3.853600	-11.617000	21.932706	0.000931	20.796718
146.044561	-2.991300	3.854300	-11.528000	21.913285	0.000932	20.799563
147.039606	-3.022200	3.851900	-11.639000	21.920451	0.000933	20.811004
148.039976	-2.987000	3.853100	-11.507000	21.909505	0.000934	20.791512
149.041046	-2.994600	3.852200	-11.535000	21.940053	0.000932	20.788899
150.042245	-3.007000	3.852700	-11.584000	21.923284	0.000932	20.796770
151.041358	-2.995900	3.852800	-11.542000	21.933292	0.000934	20.788296
152.041877	-2.975200	3.853500	-11.463000	21.915499	0.000935	20.779493
153.042832	-2.995100	3.853800	-11.542000	21.923793	0.000936	20.798702
154.041619	-3.029900	3.851600	-11.669000	21.937082	0.000934	20.787822
155.042180	-3.000900	3.852100	-11.558000	21.942163	0.000934	20.791012
156.043597	-2.984800	3.854600	-11.504000	21.949166	0.000936	20.759140
157.044259	-3.020400	3.851100	-11.630000	21.966089	0.000935	20.778451
158.042674	-2.991600	3.853900	-11.527000	21.963556	0.000935	20.784925
159.043838	-3.000300	3.852500	-11.558000	21.995740	0.000936	20.779209
160.045359	-2.999000	3.852100	-11.551000	21.993777	0.000936	20.793840
161.044525	-3.003000	3.851300	-11.563000	21.996249	0.000935	20.780193
162.044590	-3.003600	3.851400	-11.567000	22.006067	0.000937	20.804720
163.045420	-2.972200	3.851900	-11.447000	22.014834	0.000938	20.793582
164.044164	-2.985500	3.852200	-11.500000	22.024349	0.000938	20.785090
165.044367	-2.978200	3.849400	-11.463000	22.018253	0.000938	20.782306
166.045011	-2.994600	3.849400	-11.527000	22.020621	0.000937	20.778512
167.048440	-2.997000	3.850800	-11.539000	22.030697	0.000939	20.795711
168.044225	-2.979000	3.850800	-11.470000	22.029852	0.000938	20.788702
169.043956	-2.978000	3.850300	-11.466000	22.056608	0.000938	20.785615
170.045188	-2.984400	3.849000	-11.486000	22.049668	0.000939	20.780090
171.044903	-2.991400	3.850500	-11.516000	22.049797	0.000942	20.779271
172.047716	-2.997800	3.849600	-11.539000	22.056315	0.000941	20.794805
173.049019	-3.003600	3.848800	-11.559000	22.073607	0.000939	20.778926
174.050004	-2.989100	3.849500	-11.505000	22.062998	0.000940	20.786796
175.047081	-2.989900	3.847800	-11.502000	22.083174	0.000942	20.795141
176.050029	-3.026500	3.846900	-11.642000	22.086283	0.000941	20.780235
177.054214	-2.984500	3.848500	-11.484000	22.079101	0.000943	20.783477
178.048234	-2.995500	3.847300	-11.523000	22.086128	0.000943	20.789089
179.051548	-3.025100	3.846300	-11.634000	22.102025	0.000941	20.803107
180.054640	-3.002600	3.847700	-11.552000	22.098262	0.000944	20.778003
181.050451	-2.996800	3.847000	-11.528000	22.134875	0.000943	20.782890
182.055165	-2.992500	3.846600	-11.510000	22.137304	0.000943	20.812823
183.052690	-2.989800	3.846300	-11.498000	22.140903	0.000944	20.781338
184.050009	-2.991000	3.847100	-11.505000	22.146956	0.000946	20.795934
185.052014	-2.993800	3.846900	-11.516000	22.172211	0.000944	20.804150
186.051157	-3.002100	3.847000	-11.548000	22.185291	0.000944	20.784054
187.050421	-2.994700	3.845700	-11.516000	22.193110	0.000945	20.797573
188.052141	-3.024400	3.844300	-11.625000	22.173961	0.000945	20.786935
189.052107	-3.013600	3.845100	-11.587000	22.208893	0.000946	20.785399
190.050192	-2.996500	3.846800	-11.525000	22.233441	0.000947	20.800495
191.051940	-3.024600	3.844700	-11.628000	22.249249	0.000947	20.797357
192.057126	-2.988400	3.844000	-11.486000	22.266667	0.000948	20.791089
193.050956	-2.996000	3.844100	-11.516000	22.240760	0.000947	20.792176
194.054602	-2.987100	3.845000	-11.484000	22.257834	0.000949	20.786512
195.055984	-3.006600	3.842800	-11.553000	22.269328	0.000947	20.794702
196.049444	-2.993800	3.844100	-11.507000	22.258420	0.000948	20.799901
197.053706	-3.015400	3.844300	-11.591000	22.291249	0.000950	20.810961
198.069899	-3.023200	3.842200	-11.614000	22.280909	0.000949	20.791125
199.050747	-3.018900	3.843000	-11.600000	22.295830	0.000949	20.804169
200.053186	-3.010600	3.842900	-11.568000	22.309321	0.000949	20.776900
201.052698	-3.006700	3.843100	-11.554000	22.307323	0.000950	20.803349
202.052541	-3.009400	3.842000	-11.561000	22.325179	0.000952	20.797995
203.054378	-3.010700	3.842400	-11.567000	22.304904	0.000950	20.799030
204.055445	-2.999800	3.841600	-11.523000	22.289097	0.000951	20.807858
205.052783	-2.999900	3.842200	-11.525000	22.311189	0.000951	20.792047
206.056131	-3.028600	3.840100	-11.629000	22.292618	0.000951	20.788625
207.057096	-3.003400	3.842900	-11.541000	22.293282	0.000953	20.784547
208.053372	-2.993300	3.842100	-11.500000	22.300349	0.000953	20.804901
209.057053	-3.003200	3.842400	-11.539000	22.303174	0.000955	20.775013
210.055941	-2.991200	3.842600	-11.493000	22.325955	0.000954	20.795927
211.054554	-2.997500	3.841600	-11.514000	22.314555	0.000955	20.806323
212.061559	-3.004000	3.842500	-11.541000	22.309933	0.000957	20.796953
213.054940	-3.008400	3.839400	-11.549000	22.300040	0.000956	20.809333
214.054475	-3.041300	3.839400	-11.676000	22.284008	0.000955	20.802762
215.059950	-3.003000	3.840100	-11.531000	22.295166	0.000955	20.814884
216.058136	-3.010900	3.838500	-11.556000	22.266409	0.000956	20.794624
217.057212	-2.980800	3.842300	-11.451000	22.275596	0.000956	20.805720
218.060506	-3.000400	3.839600	-11.519000	22.278299	0.000957	20.807478
219.058649	-2.994000	3.840300	-11.497000	22.291507	0.000959	20.831134
220.057004	-2.996000	3.840200	-11.505000	22.293875	0.000957	20.801737
221.065465	-3.016900	3.839000	-11.580000	22.304086	0.000959	20.804849
222.059054	-2.993600	3.838900	-11.490000	22.312945	0.000959	20.813719
223.058973	-3.009500	3.838600	-11.551000	22.333616	0.000960	20.794115
224.063560	-2.981800	3.838800	-11.445000	22.331963	0.000961	20.817116
225.062633	-2.995300	3.838000	-11.495000	22.347476	0.000960	20.810839
226.058556	-3.000000	3.837300	-11.511000	22.377127	0.000961	20.798331
227.061706	-2.990300	3.838600	-11.477000	22.384049	0.000962	20.827073
228.061806	-2.993700	3.837900	-11.489000	22.396170	0.000962	20.801753
229.060205	-3.017900	3.836500	-11.576000	22.393432	0.000962	20.828883
230.063157	-2.992500	3.838400	-11.485000	22.373658	0.000962	20.823306
231.063873	-3.014900	3.835800	-11.564000	22.386752	0.000963	20.804175
232.061331	-3.001100	3.837300	-11.515000	22.372968	0.000965	20.817874
233.067513	-3.004800	3.836100	-11.525000	22.402335	0.000964	20.807926
234.069016	-2.981900	3.837600	-11.442000	22.354183	0.000966	20.810443
235.066437	-3.005900	3.835800	-11.529000	22.383092	0.000963	20.825167
236.068613	-3.009500	3.835300	-11.541000	22.380174	0.000965	20.829831
237.069647	-2.992800	3.835700	-11.479000	22.371142	0.000963	20.824580
238.066561	-3.038200	3.834400	-11.649000	22.363119	0.000965	20.816071
239.069399	-3.033300	3.835500	-11.632000	22.366778	0.000966	20.833485
240.068549	-2.989100	3.834400	-11.460000	22.371168	0.000967	20.818442
241.066903	-3.019800	3.835400	-11.581000	22.384297	0.000967	20.823054
242.068761	-3.012400	3.836200	-11.555000	22.399294	0.000967	20.815313
243.070220	-3.012800	3.833600	-11.547000	22.435882	0.000968	20.829192
244.066825	-3.029000	3.833600	-11.612000	22.439798	0.000969	20.815097
245.068875	-2.994600	3.835200	-11.484000	22.444662	0.000969	20.827080
246.072064	-2.996800	3.833300	-11.486000	22.455845	0.000970	20.830218
247.066474	-2.999700	3.833800	-11.500000	22.485312	0.000972	20.824641
248.071548	-2.996900	3.834600	-11.491000	22.495142	0.000969	20.838753
249.073787	-3.006400	3.832700	-11.521000	22.518814	0.000970	20.833537
250.068508	-2.980500	3.833500	-11.423000	22.525890	0.000972	20.837778
251.072270	-3.013700	3.831900	-11.547000	22.542873	0.000972	20.823019
252.070320	-3.002400	3.830700	-11.500000	22.545301	0.000973	20.824977
253.069246	-2.993900	3.833600	-11.476000	22.566656	0.000972	20.833563
254.071049	-3.014400	3.831900	-11.550000	22.579026	0.000973	20.835046
255.072384	-2.996700	3.832900	-11.483000	22.574756	0.000972	20.853054
256.069203	-3.013900	3.830000	-11.542000	22.580144	0.000974	20.840907
257.070563	-2.995100	3.831700	-11.475000	22.592169	0.000974	20.834934
258.068745	-3.001200	3.830900	-11.496000	22.589062	0.000974	20.822813
259.071636	-3.019400	3.830700	-11.565000	22.611234	0.000975	20.856399
260.073523	-3.000300	3.831600	-11.495000	22.620306	0.000977	20.832769
261.073383	-2.999300	3.831000	-11.490000	22.617225	0.000978	20.852915
262.071121	-2.999700	3.831300	-11.492000	22.617518	0.000977	20.831399
263.079979	-2.995400	3.830000	-11.472000	22.614497	0.000978	20.850183
264.074175	-2.992800	3.829600	-11.460000	22.586092	0.000977	20.847813
265.076701	-3.012500	3.828800	-11.533000	22.591351	0.000979	20.842175
266.077191	-2.986300	3.829900	-11.436000	22.603737	0.000978	20.836088
267.077224	-2.993600	3.828700	-11.460000	22.609676	0.000977	20.838243
268.075952	-2.993000	3.829600	-11.460000	22.627717	0.000980	20.846829
269.077705	-2.998700	3.829300	-11.482000	22.630937	0.000979	20.851477
270.078422	-3.009300	3.827200	-11.516000	22.654967	0.000982	20.856105
271.078466	-2.999900	3.828300	-11.483000	22.664383	0.000981	20.844675
272.079412	-2.985500	3.829500	-11.432000	22.657360	0.000981	20.847597
273.077809	-3.007600	3.827300	-11.511000	22.658754	0.000981	20.850890
274.079586	-3.010100	3.828900	-11.525000	22.669358	0.000982	20.837330
275.079536	-3.006500	3.827700	-11.507000	22.667491	0.000982	20.856321
276.078782	-3.003900	3.826600	-11.493000	22.689662	0.000984	20.848658
277.078613	-2.987500	3.828200	-11.436000	22.684481	0.000983	20.845365
278.082759	-3.003500	3.826500	-11.491000	22.670882	0.000984	20.845020
279.081960	-2.996200	3.826700	-11.465000	22.679953	0.000983	20.846519
280.078269	-2.995100	3.827300	-11.461000	22.683843	0.000985	20.848519
281.078141	-3.017000	3.825200	-11.539000	22.720180	0.000986	20.841769
282.082426	-2.993900	3.827000	-11.457000	22.730680	0.000987	20.855605
283.078883	-3.023300	3.825500	-11.564000	22.720997	0.000989	20.843062
284.077869	-2.996500	3.826600	-11.466000	22.743650	0.000988	20.848209
285.082092	-3.012400	3.824400	-11.519000	22.753951	0.000989	20.844778
286.082411	-2.994400	3.826400	-11.457000	22.745396	0.000987	20.833837
287.078264	-3.028600	3.824400	-11.582000	22.776353	0.000989	20.871484
288.083655	-2.986500	3.825400	-11.424000	22.784142	0.000988	20.850364
289.081009	-3.007200	3.823700	-11.498000	22.771852	0.000988	20.881199
290.077557	-2.998000	3.825300	-11.467000	22.784081	0.000990	20.859786
291.084024	-2.990900	3.824100	-11.436000	22.775216	0.000990	20.860863
292.087144	-3.003500	3.824400	-11.485000	22.790302	0.000991	20.851319
293.078474	-2.993700	3.822000	-11.440000	22.794906	0.000993	20.890068
294.082767	-3.005300	3.824100	-11.491000	22.782419	0.000990	20.867130
295.080126	-3.022200	3.822400	-11.551000	22.823048	0.000991	20.874164
296.080531	-3.012900	3.823300	-11.517000	22.803590	0.000992	20.864630
297.081308	-2.998400	3.822400	-11.460000	22.798091	0.000995	20.867181
298.081877	-3.001400	3.822800	-11.472000	22.827575	0.000992	20.864001
299.080844	-2.980600	3.821700	-11.391000	22.815259	0.000996	20.872052
300.083271	-3.001700	3.821700	-11.471000	22.806421	0.000994	20.856086
301.082142	-3.013700	3.822600	-11.519000	22.786232	0.000993	20.862889
302.082475	-3.002700	3.822100	-11.473000	22.795148	0.000995	20.864708
303.084373	-3.021800	3.820500	-11.543000	22.772747	0.000997	20.870242
304.081439	-3.014100	3.820100	-11.513000	22.791146	0.000996	20.881560
305.081607	-2.989500	3.820700	-11.421000	22.795380	0.000997	20.883431
306.081234	-3.009300	3.820300	-11.495000	22.817049	0.000995	20.876216
307.081761	-2.996300	3.820800	-11.446000	22.841188	0.000997	20.885224
308.081724	-2.982100	3.820300	-11.390000	22.854759	0.000999	20.878431
309.083958	-2.991700	3.821700	-11.432000	22.845921	0.000998	20.883802
310.083605	-3.003600	3.820400	-11.474000	22.855207	0.000998	20.895000
311.084525	-2.992600	3.819300	-11.427000	22.852444	0.000998	20.878483
312.083556	-2.990500	3.819700	-11.421000	22.851807	0.000998	20.871207
313.083732	-2.980600	3.819500	-11.383000	22.866170	0.001000	20.896025
314.084159	-2.989500	3.818600	-11.415000	22.882339	0.001001	20.869552
315.083123	-2.979900	3.818500	-11.378000	22.895971	0.001001	20.905491
316.083632	-2.992000	3.819000	-11.425000	22.887993	0.001000	20.897025
317.083833	-2.984300	3.818200	-11.394000	22.904979	0.001002	20.880379
318.084288	-2.982200	3.818000	-11.384000	22.951817	0.001003	20.873251
319.083638	-2.995500	3.818200	-11.436000	22.922294	0.001001	20.891087
320.084846	-3.007000	3.817100	-11.477000	22.908852	0.001003	20.887104
321.085423	-3.009800	3.817000	-11.488000	22.899026	0.001004	20.896225
322.087206	-3.001100	3.817000	-11.453000	22.928446	0.001005	20.895828
323.083869	-3.011300	3.816900	-11.492000	22.924531	0.001004	20.899492
324.086869	-3.011200	3.816600	-11.490000	22.951482	0.001004	20.882398
325.087170	-3.019700	3.817300	-11.525000	22.957901	0.001006	20.889303
326.088439	-3.015200	3.815800	-11.505000	22.938411	0.001008	20.890165
327.088040	-3.006900	3.815000	-11.471000	22.965103	0.001006	20.898889
328.088290	-2.999100	3.816700	-11.446000	22.998971	0.001011	20.911009
329.088795	-2.994400	3.816400	-11.427000	22.983457	0.001008	20.918224
330.092194	-3.010000	3.816200	-11.485000	23.000114	0.001009	20.903146
331.090568	-3.005900	3.817100	-11.473000	23.004830	0.001008	20.900285
332.091061	-2.985200	3.816000	-11.390000	23.024998	0.001010	20.905320
333.091157	-3.000000	3.815400	-11.445000	23.000664	0.001010	20.912232
334.095095	-2.981300	3.815500	-11.374000	22.994187	0.001007	20.893890
335.093196	-3.022700	3.813000	-11.525000	23.011137	0.001012	20.898070
336.092745	-2.992300	3.814200	-11.412000	22.992922	0.001012	20.889777
337.101308	-2.997500	3.814300	-11.433000	22.989265	0.001012	20.904604
338.094575	-3.003100	3.812000	-11.447000	22.982871	0.001014	20.906733
339.095726	-2.982900	3.813200	-11.373000	22.970386	0.001013	20.901811
340.099904	-3.000800	3.813800	-11.443000	22.989049	0.001012	20.902018
341.095652	-3.004200	3.811900	-11.450000	23.005828	0.001013	20.917405
342.098685	-2.988200	3.812900	-11.392000	23.000484	0.001014	20.884553
343.098435	-3.004200	3.811900	-11.449000	23.009785	0.001014	20.913783
344.097349	-3.018800	3.811300	-11.505000	23.011326	0.001014	20.926232
345.098463	-3.006000	3.810500	-11.454000	23.035065	0.001015	20.894544
346.104395	-3.010200	3.811300	-11.471000	23.042266	0.001016	20.916931
347.099312	-3.011400	3.810800	-11.475000	23.084691	0.001017	20.907758
348.096870	-2.996400	3.811100	-11.418000	23.073920	0.001017	20.926361
349.099916	-2.972000	3.811900	-11.326000	23.102415	0.001016	20.917931
350.096873	-2.994600	3.810400	-11.409000	23.105625	0.001018	20.893174
351.099824	-2.999300	3.809000	-11.424000	23.110959	0.001017	20.912741
352.099557	-2.993000	3.811100	-11.406000	23.124629	0.001018	20.927387
353.099859	-3.012400	3.809200	-11.473000	23.161347	0.001019	20.931464
354.100105	-3.000200	3.809200	-11.428000	23.155170	0.001017	20.935231
355.103135	-2.986100	3.809200	-11.373000	23.159937	0.001020	20.938585
356.100343	-2.987400	3.808900	-11.378000	23.166156	0.001019	20.951453
357.101696	-3.015600	3.808000	-11.481000	23.117265	0.001018	20.934705
358.103384	-3.010000	3.807700	-11.460000	23.141242	0.001022	20.923172
359.103825	-2.994000	3.808400	-11.400000	23.108876	0.001020	20.940997
360.099835	-2.992500	3.808000	-11.394000	23.126384	0.001023	20.945738
361.102768	-2.993100	3.808700	-11.399000	23.125438	0.001022	20.936256
362.102892	-3.007100	3.806400	-11.444000	23.131666	0.001022	20.939178
363.102046	-3.010300	3.806000	-11.456000	23.133800	0.001023	20.939420
364.103307	-2.993300	3.806600	-11.394000	23.119476	0.001025	20.935024
365.104681	-2.997000	3.806800	-11.408000	23.171912	0.001024	20.943471
366.102399	-2.994300	3.806700	-11.397000	23.176807	0.001025	20.952169
367.108603	-3.004000	3.806100	-11.433000	23.191105	0.001024	20.919559
368.106958	-2.982100	3.808000	-11.354000	23.217834	0.001026	20.946815
369.104153	-3.009700	3.804000	-11.447000	23.205284	0.001026	20.947515
370.104914	-3.010100	3.803000	-11.446000	23.209945	0.001025	20.955030
371.109936	-2.978800	3.806000	-11.336000	23.204956	0.001026	20.938653
372.102455	-2.995500	3.805000	-11.397000	23.194417	0.001027	20.948479
373.109288	-2.960500	3.806200	-11.268000	23.202986	0.001026	20.958961
374.105737	-2.987000	3.804800	-11.363000	23.220312	0.001027	20.943609
375.103692	-3.006600	3.804200	-11.437000	23.195940	0.001027	20.961857
376.105425	-3.012600	3.803700	-11.459000	23.227985	0.001028	20.936127
377.106882	-2.979200	3.805400	-11.335000	23.223753	0.001028	20.957487
378.112484	-2.984300	3.803400	-11.349000	23.243367	0.001030	20.953436
379.108547	-3.000800	3.803200	-11.411000	23.240226	0.001029	20.955504
380.106887	-2.967100	3.803600	-11.284000	23.253216	0.001029	20.943393
381.104474	-2.968300	3.803900	-11.290000	23.280364	0.001030	20.941678
382.111606	-3.003800	3.801800	-11.420000	23.296872	0.001030	20.981923
383.108536	-2.986900	3.803500	-11.360000	23.320054	0.001032	20.949686
384.104766	-2.990200	3.802200	-11.368000	23.312819	0.001031	20.954762
385.109554	-2.993700	3.802600	-11.383000	23.329111	0.001032	20.965873
386.108348	-3.000900	3.799600	-11.401000	23.313775	0.001031	20.960935
387.106130	-3.018400	3.801600	-11.474000	23.333008	0.001032	20.966934
388.106124	-2.991600	3.801200	-11.371000	23.314866	0.001033	20.962502
389.105915	-3.025000	3.799400	-11.492000	23.308140	0.001034	20.967140
390.108622	-3.006300	3.801400	-11.427000	23.339175	0.001034	20.944668
391.106288	-2.997300	3.800800	-11.390000	23.347613	0.001032	20.957865
392.106955	-3.003100	3.801100	-11.415000	23.321618	0.001035	20.970217
393.110336	-3.003600	3.799800	-11.412000	23.361229	0.001034	20.976725
394.109091	-3.008700	3.799300	-11.430000	23.347098	0.001036	20.974890
395.109691	-3.001500	3.798800	-11.402000	23.363595	0.001037	20.965821
396.109016	-2.972400	3.800200	-11.295000	23.362993	0.001034	20.963322
397.108651	-3.007100	3.797500	-11.418000	23.356679	0.001036	20.975958
398.111916	-2.987000	3.799800	-11.348000	23.372764	0.001036	20.969320
399.110745	-2.997000	3.799300	-11.385000	23.353892	0.001038	20.948038
400.110064	-3.001000	3.797700	-11.396000	23.341118	0.001036	20.958468
401.110910	-3.010300	3.797300	-11.430000	23.332336	0.001038	20.959623
402.111660	-3.012100	3.797100	-11.436000	23.336989	0.001039	20.957175
403.110292	-2.969300	3.797900	-11.276000	23.324078	0.001038	20.951821
404.121123	-3.019000	3.796200	-11.459000	23.328542	0.001037	20.960561
405.113403	-3.008400	3.797100	-11.421000	23.296602	0.001039	20.962690
406.111860	-3.002000	3.796800	-11.398000	23.289843	0.001039	20.937901
407.113740	-2.997300	3.796300	-11.378000	23.290599	0.001039	20.941030
408.110436	-3.003000	3.795300	-11.397000	23.291054	0.001038	20.958078
409.110584	-2.989000	3.796500	-11.345000	23.313299	0.001039	20.955717
410.113571	-2.997000	3.795300	-11.374000	23.331699	0.001040	20.935754
411.112155	-3.003600	3.794100	-11.395000	23.352067	0.001040	20.934831
412.111742	-2.992600	3.794300	-11.354000	23.375825	0.001040	20.929720
413.115557	-2.991500	3.794400	-11.350000	23.368754	0.001043	20.943020
414.116004	-3.020000	3.793700	-11.456000	23.356618	0.001043	20.924220
415.114299	-3.008900	3.794000	-11.414000	23.375377	0.001042	20.934960
416.119426	-2.978300	3.794700	-11.301000	23.362948	0.001042	20.934831
417.116821	-2.995500	3.792900	-11.360000	23.371860	0.001042	20.937599
418.114989	-2.990000	3.794500	-11.345000	23.369787	0.001044	20.905653
419.115777	-2.998300	3.793300	-11.373000	23.373347	0.001045	20.933874
420.117690	-3.001500	3.792900	-11.382000	23.374035	0.001044	20.929823
421.119353	-2.996500	3.791600	-11.361000	23.417352	0.001044	20.939098
422.121768	-3.005000	3.792000	-11.394000	23.393328	0.001045	20.919763
423.117747	-3.006400	3.792000	-11.400000	23.377958	0.001046	20.906730
424.118858	-2.990500	3.791000	-11.336000	23.377064	0.001046	20.920531
425.121549	-2.986800	3.790900	-11.321000	23.375895	0.001044	20.935479
426.120448	-2.971700	3.791100	-11.265000	23.355517	0.001045	20.922169
427.119758	-2.979400	3.791500	-11.295000	23.358916	0.001048	20.928894
428.119210	-2.995200	3.790300	-11.352000	23.375017	0.001046	20.909946
429.119009	-2.972200	3.790500	-11.266000	23.390663	0.001049	20.926101
430.121109	-2.995500	3.789400	-11.349000	23.396710	0.001046	20.911300
431.123200	-3.014100	3.788700	-11.419000	23.395404	0.001047	20.912361
432.119575	-3.003400	3.788400	-11.377000	23.402851	0.001045	20.918876
433.123363	-3.008000	3.788400	-11.394000	23.423237	0.001049	20.909439
434.122796	-3.012200	3.787100	-11.407000	23.425757	0.001047	20.912438
435.121013	-2.979800	3.789200	-11.290000	23.434375	0.001047	20.885991
436.119970	-2.979000	3.788800	-11.286000	23.444576	0.001046	20.926084
437.123245	-2.972300	3.789000	-11.260000	23.425722	0.001048	20.909559
438.119841	-2.994600	3.787700	-11.342000	23.407230	0.001050	20.915680
439.119842	-3.008800	3.785800	-11.389000	23.399034	0.001049	20.922636
440.124357	-2.996200	3.786500	-11.343000	23.418249	0.001050	20.892587
441.120002	-2.999000	3.786800	-11.356000	23.407678	0.001050	20.906646
442.120699	-2.993000	3.786700	-11.332000	23.420553	0.001049	20.899637
443.125101	-2.981300	3.786300	-11.287000	23.412752	0.001052	20.904620
444.122212	-2.994500	3.786300	-11.337000	23.430523	0.001050	20.894932
445.121801	-2.970000	3.788000	-11.249000	23.417071	0.001051	20.882872
446.127414	-2.978900	3.786100	-11.278000	23.406233	0.001049	20.906146
447.121016	-3.004000	3.785300	-11.370000	23.447655	0.001051	20.908310
448.122764	-3.013800	3.783500	-11.401000	23.406052	0.001052	20.905017
449.127165	-3.016200	3.784800	-11.415000	23.418748	0.001051	20.912999
450.121412	-3.017900	3.784000	-11.417000	23.405846	0.001052	20.888217
451.122715	-3.013100	3.784400	-11.400000	23.381092	0.001053	20.894225
452.127098	-3.036500	3.782900	-11.486000	23.421509	0.001054	20.888268
453.124091	-2.994200	3.784300	-11.330000	23.419488	0.001053	20.893829
454.124372	-3.003200	3.782100	-11.357000	23.427195	0.001053	20.896812
455.125680	-3.014500	3.783300	-11.404000	23.429164	0.001056	20.898312
456.123884	-2.992700	3.783600	-11.320000	23.480675	0.001053	20.900630
457.123771	-3.004500	3.782600	-11.364000	23.499673	0.001054	20.907820
458.124026	-3.004300	3.782400	-11.363000	23.477991	0.001055	20.902208
459.123631	-3.008800	3.782600	-11.379000	23.461959	0.001054	20.894673
460.123687	-2.996900	3.781700	-11.331000	23.443140	0.001055	20.906630
461.123184	-2.998600	3.781600	-11.338000	23.444173	0.001055	20.902449
462.125256	-3.002800	3.781300	-11.354000	23.451424	0.001056	20.898337
463.125996	-3.003000	3.780800	-11.351000	23.458262	0.001056	20.885752
464.125462	-2.993700	3.780600	-11.316000	23.473270	0.001056	20.883727
465.124513	-2.985000	3.781000	-11.285000	23.488768	0.001055	20.906371
466.124288	-3.008900	3.780400	-11.374000	23.466905	0.001056	20.902001
467.125250	-2.995300	3.780200	-11.323000	23.493929	0.001056	20.875512
468.126430	-2.997900	3.779100	-11.329000	23.484649	0.001056	20.873796
469.125757	-3.005300	3.778700	-11.354000	23.485991	0.001057	20.896002
470.125677	-2.993500	3.779100	-11.312000	23.467732	0.001056	20.884813
471.126807	-3.003100	3.778000	-11.345000	23.467861	0.001057	20.872615
472.129917	-3.004000	3.777500	-11.346000	23.493765	0.001057	20.896683
473.126363	-2.987500	3.778400	-11.287000	23.532218	0.001057	20.875012
474.127157	-3.002500	3.778100	-11.343000	23.536871	0.001058	20.885365
475.128120	-3.025100	3.776500	-11.422000	23.518655	0.001056	20.874218
476.128429	-2.987000	3.778400	-11.284000	23.536388	0.001058	20.884407
477.132118	-3.006300	3.776000	-11.351000	23.535838	0.001059	20.876744
478.128596	-3.002500	3.775800	-11.336000	23.523781	0.001058	20.887416
479.130786	-2.996500	3.775900	-11.314000	23.516599	0.001058	20.879744
480.129776	-2.995500	3.776700	-11.312000	23.496346	0.001057	20.873667
481.130133	-3.001500	3.776400	-11.334000	23.474741	0.001059	20.868132
482.128921	-2.994300	3.775000	-11.302000	23.472591	0.001058	20.883520
483.129987	-2.965000	3.776100	-11.194000	23.467275	0.001059	20.882459
484.129561	-2.993600	3.774800	-11.299000	23.470071	0.001059	20.877676
485.130729	-3.004900	3.774800	-11.342000	23.454271	0.001059	20.864210
486.130471	-3.004700	3.773100	-11.335000	23.446892	0.001061	20.891425
487.130892	-2.998200	3.775300	-11.318000	23.449576	0.001059	20.890796
488.130935	-2.978800	3.775300	-11.245000	23.455227	0.001060	20.859004
489.132971	-3.003100	3.772000	-11.327000	23.479403	0.001060	20.882762
490.132112	-3.001700	3.773200	-11.326000	23.469753	0.001062	20.881150
491.134152	-2.996700	3.772500	-11.304000	23.469383	0.001060	20.882675
492.134813	-2.998700	3.773400	-11.314000	23.457936	0.001064	20.862194
493.133797	-2.996200	3.772000	-11.300000	23.475671	0.001063	20.882814
494.133340	-2.995900	3.772200	-11.300000	23.507708	0.001061	20.880788
495.135317	-2.982900	3.772900	-11.253000	23.546254	0.001064	20.867271
496.134443	-2.989800	3.771900	-11.277000	23.548602	0.001062	20.873892
497.134693	-3.008000	3.769800	-11.338000	23.582700	0.001062	20.874883
498.138107	-2.995200	3.770500	-11.292000	23.597183	0.001064	20.870909
499.138059	-2.995100	3.770800	-11.293000	23.617460	0.001064	20.868003
500.136131	-3.024100	3.769300	-11.399000	23.634152	0.001063	20.859133
501.137798	-2.999800	3.770300	-11.308000	23.633283	0.001063	20.872960
502.136912	-2.999600	3.769300	-11.306000	23.631736	0.001065	20.858133
503.136736	-3.006000	3.769100	-11.329000	23.645374	0.001065	20.877495
504.138357	-2.995900	3.769000	-11.291000	23.629586	0.001063	20.864513
505.137661	-2.991500	3.769100	-11.274000	23.616790	0.001062	20.866384
506.137016	-3.001500	3.768100	-11.308000	23.634445	0.001064	20.857530
507.138298	-3.004400	3.767600	-11.319000	23.637360	0.001064	20.868987
508.138453	-3.002700	3.768900	-11.315000	23.643775	0.001064	20.874470
509.140117	-2.996600	3.767300	-11.287000	23.638167	0.001062	20.881650
510.140520	-3.002000	3.767200	-11.307000	23.636491	0.001064	20.882814
511.140436	-3.003800	3.768100	-11.317000	23.638064	0.001064	20.881546
512.141523	-3.016600	3.766600	-11.361000	23.596253	0.001063	20.869029
513.141891	-3.011700	3.766900	-11.344000	23.585117	0.001063	20.866874
514.140997	-3.004600	3.765500	-11.312000	23.603692	0.001066	20.863684
515.141017	-3.016600	3.765300	-11.357000	23.570238	0.001064	20.853383
516.141391	-3.015900	3.765700	-11.356000	23.547827	0.001065	20.865529
517.142611	-2.990600	3.765200	-11.259000	23.572896	0.001064	20.877382
518.139892	-2.998800	3.764400	-11.288000	23.576947	0.001063	20.867219
519.140620	-2.988900	3.765300	-11.254000	23.574952	0.001066	20.849573
520.141804	-3.010800	3.763600	-11.330000	23.574875	0.001066	20.869409
521.141046	-2.992100	3.763400	-11.259000	23.580026	0.001065	20.876944
522.142329	-2.976800	3.765000	-11.206000	23.562371	0.001066	20.858298
523.142346	-2.990300	3.763200	-11.252000	23.570068	0.001066	20.858901
524.142994	-2.978200	3.763800	-11.208000	23.567049	0.001067	20.862513
525.141316	-3.000600	3.762800	-11.291000	23.557770	0.001065	20.871228
526.141259	-3.017600	3.762600	-11.352000	23.569286	0.001066	20.860488
527.142639	-3.010200	3.760200	-11.318000	23.573877	0.001066	20.852289
528.145122	-3.011100	3.761300	-11.324000	23.572545	0.001066	20.854272
529.141932	-3.013600	3.760200	-11.330000	23.578401	0.001064	20.840703
530.141913	-3.001200	3.761600	-11.288000	23.590062	0.001065	20.872306
531.144611	-2.991300	3.761100	-11.249000	23.615844	0.001067	20.864487
532.142205	-3.013300	3.761200	-11.332000	23.657311	0.001067	20.853427
533.142786	-3.007800	3.761000	-11.312000	23.688818	0.001068	20.863678
534.144012	-3.012300	3.758300	-11.321000	23.706266	0.001066	20.868367
535.143302	-2.980700	3.761100	-11.209000	23.715724	0.001066	20.857936
536.144252	-3.010000	3.759200	-11.314000	23.714933	0.001068	20.865677
537.147231	-3.016200	3.757800	-11.334000	23.702791	0.001067	20.862513
538.147812	-2.994000	3.758800	-11.253000	23.718510	0.001066	20.860255
539.146110	-3.020100	3.758100	-11.350000	23.711622	0.001066	20.863307
540.149206	-3.026700	3.756600	-11.369000	23.714711	0.001067	20.842696
541.145788	-3.008700	3.757400	-11.303000	23.717934	0.001067	20.870109
542.148458	-2.984900	3.758300	-11.217000	23.739371	0.001067	20.854618
543.153998	-2.990600	3.756700	-11.234000	23.722612	0.001068	20.865316
544.150395	-3.004600	3.755500	-11.283000	23.709077	0.001067	20.840842
545.150582	-2.991500	3.757600	-11.240000	23.673159	0.001066	20.849876
546.155175	-3.013600	3.755000	-11.315000	23.738924	0.001066	20.848954
547.149868	-2.995100	3.755800	-11.248000	23.734616	0.001066	20.840842
548.150369	-3.005500	3.756900	-11.290000	23.749045	0.001068	20.844403
549.153058	-3.014700	3.754100	-11.317000	23.771091	0.001067	20.843748
550.150785	-3.029400	3.754700	-11.372000	23.764522	0.001068	20.849489
551.151079	-3.005700	3.753400	-11.280000	23.755871	0.001066	20.845557
552.154679	-2.997000	3.753900	-11.249000	23.735906	0.001068	20.849247
553.152588	-2.988100	3.753200	-11.214000	23.733567	0.001068	20.840739
554.154857	-2.988000	3.754100	-11.216000	23.741314	0.001066	20.841868
555.161284	-2.980600	3.755800	-11.193000	23.738692	0.001066	20.844454
556.154113	-2.975800	3.753400	-11.167000	23.728201	0.001067	20.829669
557.152974	-3.038500	3.751300	-11.397000	23.764693	0.001069	20.852979
558.157417	-2.991500	3.752800	-11.225000	23.789963	0.001068	20.874995
559.153994	-2.984900	3.752000	-11.198000	23.816789	0.001067	20.836936
560.152842	-3.005300	3.752000	-11.275000	23.821872	0.001067	20.846773
561.159686	-2.984700	3.751400	-11.196000	23.838989	0.001069	20.833117
562.155284	-2.993700	3.751500	-11.230000	23.835971	0.001069	20.827721
563.155403	-3.012900	3.750300	-11.299000	23.830760	0.001067	20.835772
564.158224	-2.999300	3.749900	-11.246000	23.828190	0.001068	20.856901
565.153805	-3.014700	3.749400	-11.303000	23.854276	0.001068	20.837539
566.153370	-3.013200	3.750800	-11.302000	23.863173	0.001068	20.841245
567.157635	-3.034300	3.748500	-11.372000	23.873602	0.001067	20.854547
568.162914	-2.992000	3.749700	-11.218000	23.882423	0.001067	20.839210
569.157942	-2.998800	3.749400	-11.243000	23.929312	0.001067	20.843555
570.162344	-2.992000	3.748900	-11.216000	23.929158	0.001069	20.834392
571.161193	-2.999700	3.749800	-11.246000	23.931779	0.001067	20.843658
572.159534	-3.008500	3.748200	-11.275000	23.922770	0.001069	20.825615
573.165271	-3.011700	3.748300	-11.288000	23.922950	0.001068	20.847132
574.161872	-2.981500	3.748700	-11.176000	23.913287	0.001065	20.835072
575.158937	-2.985400	3.747300	-11.187000	23.935948	0.001067	20.827451
576.166298	-3.021400	3.747700	-11.322000	23.948930	0.001066	20.831460
577.163060	-2.987200	3.747100	-11.192000	23.942861	0.001067	20.825373
578.160860	-2.993300	3.747000	-11.215000	23.941365	0.001066	20.841891
579.162446	-2.993500	3.747100	-11.216000	23.952996	0.001066	20.832692
580.163057	-3.006500	3.745900	-11.262000	23.962736	0.001069	20.842459
581.162551	-3.012300	3.745900	-11.282000	23.984717	0.001066	20.846010
582.170142	-2.979000	3.745900	-11.159000	23.979310	0.001067	20.832054
583.165082	-3.030800	3.744500	-11.348000	23.995910	0.001067	20.830209
584.161450	-2.986200	3.746300	-11.186000	24.005547	0.001067	20.823277
585.164537	-3.008400	3.743900	-11.262000	24.017978	0.001066	20.852338
586.164006	-3.019500	3.743600	-11.303000	24.039064	0.001067	20.838398
587.162465	-2.983500	3.744900	-11.172000	24.039270	0.001067	20.819165
588.167798	-2.992400	3.744000	-11.203000	24.016524	0.001068	20.825751
589.164298	-3.014600	3.743400	-11.284000	23.995850	0.001067	20.833941
590.163114	-3.007200	3.743600	-11.256000	23.996271	0.001067	20.825354
591.164457	-3.000400	3.742800	-11.228000	24.000269	0.001069	20.824148
592.167298	-2.996400	3.741900	-11.211000	23.940976	0.001067	20.837708
593.164586	-3.001200	3.741700	-11.228000	23.965435	0.001067	20.831889
594.165320	-3.002300	3.741300	-11.232000	23.977686	0.001068	20.856028
595.166478	-3.005800	3.742300	-11.248000	23.977943	0.001068	20.826415
596.165809	-2.985400	3.740700	-11.167000	24.007448	0.001067	20.829925
597.166680	-2.998100	3.740300	-11.213000	23.999117	0.001069	20.823942
598.172212	-3.000500	3.740200	-11.221000	23.991260	0.001068	20.809898
599.167754	-3.006200	3.739400	-11.240000	23.981150	0.001066	20.825364
600.167207	-2.992600	3.740900	-11.194000	23.971617	0.001068	20.822916
601.167412	-2.996400	3.739800	-11.204000	23.966776	0.001066	20.835605
602.168370	-2.995000	3.739800	-11.200000	23.984373	0.001068	20.826699
603.169861	-3.015600	3.737900	-11.271000	24.000449	0.001067	20.834760
604.170784	-2.985500	3.738800	-11.160000	24.004222	0.001068	20.811517
605.167614	-2.984300	3.739500	-11.159000	23.995248	0.001068	20.825751
606.170434	-3.006500	3.738000	-11.236000	23.997217	0.001069	20.813975
607.168887	-3.000800	3.737800	-11.216000	23.987786	0.001067	20.842923
608.169324	-2.979500	3.738300	-11.137000	24.016602	0.001066	20.826777
609.170853	-3.013300	3.735700	-11.255000	24.003990	0.001066	20.824561
610.168038	-2.986700	3.737400	-11.161000	24.003981	0.001067	20.815543
611.169938	-2.986500	3.737000	-11.160000	24.014804	0.001069	20.815017
612.171134	-3.004400	3.736100	-11.223000	24.028714	0.001066	20.826122
613.169415	-3.009000	3.733900	-11.235000	24.009535	0.001066	20.804992
614.168872	-2.976300	3.734800	-11.114000	24.012543	0.001066	20.813698
615.169847	-3.009400	3.734500	-11.238000	24.009603	0.001065	20.814069
616.171980	-2.992400	3.736500	-11.179000	24.001437	0.001066	20.811095
617.170516	-2.985900	3.736300	-11.156000	23.998986	0.001066	20.815275
618.173014	-2.998600	3.735300	-11.200000	23.968812	0.001064	20.822474
619.172624	-3.000900	3.736300	-11.211000	23.974107	0.001066	20.821146
620.172910	-2.992600	3.734300	-11.174000	23.980684	0.001066	20.813517
621.172887	-2.973500	3.733800	-11.101000	24.005175	0.001065	20.811050
622.174016	-3.012600	3.731300	-11.240000	24.017744	0.001064	20.819862
623.172729	-3.007400	3.733600	-11.228000	24.001093	0.001065	20.821655
624.172637	-2.993800	3.732900	-11.175000	24.024096	0.001065	20.799680
625.173180	-3.002500	3.732900	-11.207000	24.059427	0.001066	20.828474
626.170930	-2.996300	3.731500	-11.179000	24.061765	0.001066	20.825603
627.171520	-3.003600	3.732600	-11.211000	24.073266	0.001066	20.843301
628.175684	-3.010400	3.731700	-11.232000	24.051518	0.001067	20.802525
629.173505	-3.002300	3.731000	-11.200000	24.041693	0.001064	20.812111
630.173134	-2.996900	3.730600	-11.179000	24.043162	0.001068	20.825913
631.178034	-2.987400	3.731000	-11.146000	24.070816	0.001065	20.811921
632.174721	-3.001600	3.730500	-11.197000	24.054793	0.001066	20.817662
633.174370	-2.988800	3.732000	-11.154000	24.036122	0.001066	20.806050
634.177126	-2.993900	3.731500	-11.171000	24.026116	0.001064	20.801706
635.180207	-2.960000	3.730300	-11.040000	24.025807	0.001067	20.806612
636.175798	-2.995500	3.727800	-11.166000	24.030706	0.001066	20.814843
637.180988	-3.016900	3.726600	-11.241000	24.071314	0.001062	20.815266
638.179000	-3.010200	3.727900	-11.221000	24.098812	0.001064	20.807283
639.177862	-3.012300	3.726500	-11.225000	24.085591	0.001063	20.811566
640.179317	-3.016200	3.727900	-11.244000	24.117430	0.001065	20.818843
641.180057	-2.996800	3.728400	-11.172000	24.110632	0.001063	20.801593
642.179182	-2.996500	3.727800	-11.170000	24.092383	0.001064	20.814111
643.180056	-3.004800	3.726200	-11.196000	24.099629	0.001064	20.792455
644.181602	-2.993300	3.726600	-11.154000	24.096130	0.001064	20.825455
645.183387	-3.004300	3.728100	-11.199000	24.118093	0.001063	20.817611
646.180325	-3.006100	3.724900	-11.197000	24.114697	0.001063	20.831274
647.180477	-3.010900	3.726100	-11.216000	24.094583	0.001063	20.794981
648.181324	-2.991800	3.726500	-11.148000	24.072887	0.001066	20.794558
649.184124	-3.001000	3.725200	-11.178000	24.060801	0.001062	20.810412
650.181629	-3.013900	3.724600	-11.224000	24.033009	0.001065	20.814308
651.183489	-2.983000	3.725500	-11.112000	24.054629	0.001062	20.801377
652.184545	-2.986800	3.723700	-11.121000	24.073910	0.001063	20.815972
653.183220	-2.996600	3.724500	-11.160000	24.080056	0.001063	20.786101
654.183311	-2.997500	3.723800	-11.160000	24.116408	0.001064	20.800748
655.182403	-3.011700	3.723000	-11.212000	24.128021	0.001063	20.823775
656.182366	-2.997100	3.723600	-11.160000	24.136315	0.001063	20.779463
657.184127	-2.993100	3.724300	-11.145000	24.155164	0.001062	20.816385
658.184852	-2.984400	3.722000	-11.106000	24.143689	0.001062	20.800135
659.185417	-3.002400	3.722800	-11.176000	24.127986	0.001062	20.804774
660.185380	-3.022600	3.721400	-11.246000	24.120782	0.001063	20.786643
661.188184	-3.008000	3.722400	-11.196000	24.063595	0.001061	20.821275
662.187320	-3.015300	3.721400	-11.219000	24.059717	0.001062	20.817859
663.187102	-3.007400	3.721200	-11.190000	24.035460	0.001062	20.793058
664.189636	-2.998600	3.719700	-11.153000	24.023991	0.001061	20.806686
665.188994	-3.018900	3.720200	-11.231000	24.005834	0.001062	20.791323
666.187885	-3.000700	3.718500	-11.157000	23.994152	0.001061	20.816592
667.192169	-2.981900	3.720600	-11.094000	24.009359	0.001063	20.799600
668.190901	-2.996600	3.718500	-11.142000	24.019022	0.001061	20.824936
669.191031	-2.982500	3.720500	-11.095000	24.060962	0.001060	20.810574
670.194353	-3.000600	3.719800	-11.160000	24.065037	0.001062	20.808022
671.193045	-2.999100	3.718900	-11.152000	24.107423	0.001060	20.820660
672.195212	-3.016400	3.718900	-11.217000	24.101338	0.001059	20.803651
673.196668	-3.006000	3.718800	-11.178000	24.125886	0.001060	20.782279
674.191748	-3.004800	3.718500	-11.172000	24.079040	0.001060	20.800729
675.192216	-3.013300	3.717500	-11.201000	24.087222	0.001062	20.796607
676.195989	-3.015800	3.717600	-11.210000	24.057833	0.001060	20.805064
677.192950	-2.983600	3.718500	-11.093000	24.042617	0.001058	20.800236
678.192338	-2.998400	3.716300	-11.142000	24.025725	0.001058	20.798469
679.197381	-3.001000	3.716700	-11.153000	24.010914	0.001061	20.813012
680.192561	-2.994600	3.716800	-11.129000	23.988588	0.001057	20.791572
681.195277	-2.987500	3.717100	-11.104000	24.005816	0.001059	20.802684
682.194203	-3.012100	3.716400	-11.193000	24.030556	0.001061	20.828917
683.195276	-2.991400	3.715600	-11.114000	24.038387	0.001058	20.823969
684.195097	-3.004300	3.715800	-11.162000	24.044534	0.001060	20.815909
685.197251	-3.002700	3.714900	-11.154000	24.102222	0.001059	20.814496
686.194962	-3.006300	3.713600	-11.163000	24.108282	0.001058	20.802081
687.196198	-2.987900	3.715400	-11.100000	24.119129	0.001059	20.818176
688.196580	-2.979500	3.715500	-11.069000	24.135409	0.001058	20.815538
689.196626	-2.974700	3.715600	-11.051000	24.138882	0.001058	20.821866
690.197305	-2.983200	3.713300	-11.077000	24.140162	0.001058	20.799917
691.196826	-2.980300	3.713400	-11.066000	24.129160	0.001057	20.818280
692.197577	-2.996000	3.712200	-11.121000	24.114289	0.001057	20.808581
693.197862	-2.997600	3.712400	-11.128000	24.135512	0.001054	20.820383
694.199097	-3.005900	3.712900	-11.159000	24.148861	0.001055	20.820969
695.199308	-2.998800	3.712600	-11.132000	24.195653	0.001057	20.834236
696.200591	-3.005600	3.711100	-11.153000	24.220157	0.001054	20.820408
697.198548	-2.989300	3.711400	-11.093000	24.235628	0.001056	20.805107
698.199188	-3.003000	3.711200	-11.144000	24.205976	0.001056	20.807607
699.200009	-3.009900	3.711700	-11.171000	24.171810	0.001057	20.807477
700.200191	-3.030100	3.710500	-11.242000	24.175644	0.001057	20.799468
701.201622	-3.013200	3.709000	-11.175000	24.188777	0.001055	20.806952
702.199996	-2.987400	3.711800	-11.088000	24.176245	0.001056	20.811925
703.199575	-2.987300	3.710700	-11.084000	24.202528	0.001055	20.825486
704.202281	-2.984400	3.711800	-11.076000	24.208519	0.001055	20.808261
705.202417	-3.009600	3.708600	-11.161000	24.227299	0.001056	20.812874
706.201639	-3.010700	3.708500	-11.164000	24.242159	0.001056	20.820667
707.201334	-3.010300	3.709400	-11.166000	24.257260	0.001055	20.829175
708.202625	-3.019900	3.707200	-11.194000	24.243131	0.001056	20.833494
709.202414	-3.010200	3.707900	-11.160000	24.234175	0.001054	20.825934
710.204290	-2.991200	3.706500	-11.085000	24.221807	0.001053	20.820641
711.203845	-2.997000	3.706300	-11.107000	24.206516	0.001053	20.827589
712.205050	-2.978600	3.707800	-11.043000	24.200612	0.001055	20.822141
713.204536	-3.002700	3.707700	-11.133000	24.217646	0.001054	20.814571
714.205529	-2.982700	3.706800	-11.056000	24.181668	0.001053	20.827321
715.205052	-3.006000	3.703700	-11.132000	24.201480	0.001054	20.817322
716.204575	-2.985700	3.707200	-11.067000	24.215678	0.001052	20.819235
717.207424	-2.994300	3.705800	-11.096000	24.216099	0.001054	20.824873
718.204777	-3.009900	3.705300	-11.151000	24.236031	0.001053	20.828269
719.205482	-3.004900	3.704900	-11.131000	24.271827	0.001051	20.842838
720.204249	-3.036600	3.703200	-11.244000	24.296947	0.001052	20.833898
721.203646	-3.008600	3.704000	-11.142000	24.283403	0.001052	20.846390
722.204358	-3.016600	3.703900	-11.171000	24.315520	0.001051	20.847786
723.203997	-3.016100	3.703100	-11.169000	24.333877	0.001053	20.831588
724.204052	-3.005800	3.704700	-11.135000	24.350205	0.001052	20.848441
725.205452	-3.012200	3.702500	-11.152000	24.347102	0.001051	20.834424
726.204937	-3.018000	3.703000	-11.175000	24.365777	0.001052	20.839407
727.206074	-3.001100	3.702900	-11.111000	24.331479	0.001050	20.833924
728.206922	-3.003000	3.703000	-11.118000	24.320462	0.001052	20.847528
729.208149	-3.018900	3.701400	-11.173000	24.299465	0.001051	20.838320
730.208540	-3.012100	3.701100	-11.147000	24.302517	0.001049	20.849915
731.208384	-3.005500	3.702000	-11.125000	24.323993	0.001051	20.845855
732.207638	-2.987300	3.700800	-11.054000	24.322102	0.001050	20.859130
733.207029	-2.998100	3.700300	-11.093000	24.304588	0.001051	20.826389
734.208153	-2.981100	3.701300	-11.033000	24.360980	0.001052	20.860672
735.211025	-3.000800	3.699800	-11.101000	24.374275	0.001049	20.830863
736.207381	-2.990900	3.700300	-11.067000	24.363276	0.001050	20.838794
737.207633	-2.980200	3.701000	-11.029000	24.367529	0.001049	20.853492
738.208297	-2.989900	3.699300	-11.059000	24.368629	0.001050	20.852699
739.213822	-3.019400	3.697600	-11.163000	24.349929	0.001049	20.858595
740.208646	-2.972600	3.699900	-10.998000	24.346681	0.001048	20.855337
741.209806	-2.995600	3.699200	-11.081000	24.331315	0.001048	20.833285
742.208962	-2.997600	3.699100	-11.087000	24.342340	0.001048	20.858095
743.209675	-3.014200	3.698100	-11.145000	24.340132	0.001050	20.859198
744.209499	-2.973300	3.698400	-10.996000	24.356151	0.001048	20.855354
745.208509	-2.995200	3.698300	-11.076000	24.372144	0.001047	20.869974
746.212337	-2.996900	3.698200	-11.083000	24.393300	0.001048	20.850896
747.210263	-3.024500	3.696100	-11.178000	24.384243	0.001047	20.840388
748.211545	-2.998700	3.696100	-11.082000	24.412077	0.001045	20.857879
749.209567	-3.001400	3.695400	-11.090000	24.436207	0.001047	20.862172
750.210486	-2.996800	3.695500	-11.074000	24.415720	0.001045	20.872439
751.212188	-3.023200	3.694800	-11.169000	24.417388	0.001046	20.851828
752.213569	-3.005200	3.695000	-11.103000	24.419141	0.001046	20.849793
753.213933	-3.001300	3.695900	-11.091000	24.444740	0.001046	20.866465
754.214555	-2.971900	3.694700	-10.979000	24.455395	0.001046	20.862456
755.212187	-2.981300	3.695800	-11.017000	24.450669	0.001043	20.870042
756.214244	-2.972300	3.694600	-10.981000	24.464873	0.001045	20.874809
757.214078	-3.007900	3.694900	-11.113000	24.470930	0.001045	20.866662
758.216516	-2.993200	3.693900	-11.056000	24.489998	0.001044	20.871568
759.214494	-2.992000	3.694400	-11.053000	24.476782	0.001044	20.862576
760.213483	-3.010500	3.693700	-11.119000	24.490496	0.001043	20.862585
761.213571	-3.018000	3.692700	-11.144000	24.494406	0.001043	20.867456
762.216074	-3.008600	3.692400	-11.107000	24.504845	0.001044	20.868446
763.215002	-3.017400	3.692800	-11.142000	24.462224	0.001045	20.877842
764.214532	-3.023800	3.692500	-11.164000	24.446113	0.001044	20.879222
765.215880	-2.994200	3.692300	-11.055000	24.402863	0.001041	20.863808
766.217251	-2.990500	3.691300	-11.038000	24.393831	0.001043	20.873239
767.216904	-2.992400	3.693000	-11.049000	24.366727	0.001042	20.885402
768.220329	-2.984300	3.692900	-11.019000	24.353132	0.001042	20.874610
769.223830	-3.013800	3.690500	-11.122000	24.334560	0.001042	20.890591
770.218220	-3.001700	3.692000	-11.081000	24.353801	0.001042	20.898987
771.223699	-2.992100	3.691100	-11.043000	24.369502	0.001043	20.875858
772.224161	-3.000400	3.688400	-11.065000	24.390118	0.001041	20.858135
773.221141	-3.017800	3.691300	-11.138000	24.420418	0.001043	20.883315
774.221007	-3.014600	3.689300	-11.121000	24.405156	0.001039	20.887444
775.225708	-2.979700	3.691400	-10.998000	24.420315	0.001039	20.881315
776.220509	-3.008900	3.688800	-11.099000	24.404031	0.001041	20.894375
777.222126	-2.984900	3.689800	-11.013000	24.420084	0.001040	20.896255
778.223368	-2.992500	3.689500	-11.040000	24.412538	0.001040	20.868298
779.223720	-2.985500	3.688400	-11.011000	24.405638	0.001040	20.889824
780.224477	-3.002900	3.687700	-11.073000	24.399838	0.001041	20.884005
781.224707	-3.009100	3.687200	-11.094000	24.393031	0.001039	20.883815
782.222997	-2.989500	3.687300	-11.021000	24.440355	0.001040	20.894781
783.224245	-2.990400	3.688200	-11.029000	24.462645	0.001041	20.904341
784.226584	-3.003900	3.686900	-11.073000	24.476824	0.001038	20.888221
785.226087	-2.999400	3.685800	-11.054000	24.516169	0.001039	20.899719
786.225653	-2.982400	3.687200	-10.995000	24.560282	0.001036	20.901780
787.225908	-2.989500	3.687600	-11.023000	24.562696	0.001036	20.901357
788.224802	-3.014600	3.685200	-11.108000	24.542453	0.001037	20.892901
789.230536	-2.969000	3.686000	-10.943000	24.588980	0.001034	20.895487
790.227379	-3.027500	3.684000	-11.152000	24.610090	0.001037	20.907659
791.226450	-3.002300	3.684000	-11.059000	24.576298	0.001035	20.907418
792.227386	-3.007600	3.684900	-11.081000	24.526102	0.001036	20.895462
793.227650	-2.993000	3.685100	-11.028000	24.498219	0.001034	20.899729
794.226560	-3.011600	3.684100	-11.094000	24.521273	0.001036	20.906263
795.227651	-3.020000	3.683200	-11.122000	24.517811	0.001037	20.926494
796.227525	-2.999200	3.682900	-11.044000	24.530674	0.001036	20.907633
797.226639	-2.998200	3.684200	-11.045000	24.529118	0.001034	20.872885
798.228143	-3.013700	3.683100	-11.099000	24.532323	0.001034	20.913081
799.229074	-2.985700	3.682600	-10.994000	24.525845	0.001033	20.903263
800.229531	-3.001200	3.680800	-11.046000	24.510292	0.001034	20.921796
801.228901	-2.995900	3.682400	-11.031000	24.500814	0.001034	20.900435
802.230248	-2.997600	3.681300	-11.034000	24.518274	0.001033	20.896142
803.227738	-2.988300	3.682300	-11.003000	24.515120	0.001034	20.901512
804.230361	-3.024900	3.680100	-11.131000	24.488157	0.001032	20.913813
805.229946	-3.011400	3.681200	-11.084000	24.498416	0.001034	20.907511
806.230163	-2.994800	3.681900	-11.026000	24.498554	0.001032	20.901012
807.231218	-3.008700	3.680000	-11.072000	24.500538	0.001031	20.911063
808.232877	-3.023700	3.680400	-11.127000	24.505109	0.001032	20.934613
809.230505	-3.009700	3.680200	-11.075000	24.532786	0.001032	20.919709
810.231050	-2.995300	3.679100	-11.018000	24.507353	0.001031	20.919796
811.231277	-3.004500	3.678800	-11.051000	24.535561	0.001033	20.939086
812.230835	-3.021700	3.678800	-11.115000	24.536274	0.001030	20.946439
813.232908	-3.001000	3.678400	-11.038000	24.539023	0.001031	20.903683
814.232625	-3.000100	3.678000	-11.034000	24.580198	0.001031	20.924131
815.234062	-3.008400	3.677900	-11.064000	24.587656	0.001031	20.924502
816.235632	-3.016700	3.677600	-11.093000	24.608818	0.001030	20.923450
817.232657	-3.004600	3.679600	-11.054000	24.623981	0.001030	20.919226
818.233028	-3.021800	3.677500	-11.112000	24.619307	0.001029	20.940612
819.235443	-3.010600	3.676800	-11.068000	24.612322	0.001030	20.912743
820.232772	-2.998700	3.676000	-11.022000	24.616266	0.001030	20.926182
821.233241	-3.004800	3.676600	-11.046000	24.594159	0.001029	20.945249
822.234476	-2.978800	3.677000	-10.953000	24.578401	0.001029	20.935129
823.233922	-2.992600	3.676500	-11.000000	24.585300	0.001028	20.921664
824.241127	-2.982700	3.676300	-10.965000	24.565539	0.001030	20.950197
825.237504	-2.999500	3.675500	-11.023000	24.579475	0.001028	20.922932
826.238339	-2.986400	3.675800	-10.976000	24.535577	0.001029	20.927724
827.235386	-2.990400	3.676400	-10.993000	24.551172	0.001028	20.941473
828.237370	-2.992100	3.674900	-10.994000	24.548896	0.001027	20.942508
829.235869	-3.009900	3.673700	-11.056000	24.511244	0.001027	20.939818
830.238845	-3.003700	3.675200	-11.038000	24.516176	0.001028	20.957566
831.236397	-3.006500	3.674400	-11.046000	24.518667	0.001027	20.931620
832.241351	-3.000200	3.673000	-11.018000	24.499101	0.001026	20.949446
833.236683	-3.011300	3.674400	-11.064000	24.475755	0.001026	20.930292
834.237692	-3.010200	3.671900	-11.051000	24.479956	0.001026	20.951101
835.241372	-3.019800	3.672200	-11.089000	24.487174	0.001026	20.924206
836.240019	-2.998900	3.673300	-11.016000	24.484683	0.001025	20.966271
837.239809	-2.982400	3.673000	-10.952000	24.536375	0.001025	20.950333
838.240917	-3.001700	3.672800	-11.023000	24.556722	0.001024	20.935662
839.239404	-2.989300	3.672300	-10.977000	24.604020	0.001024	20.947557
840.238909	-3.005600	3.672600	-11.037000	24.605550	0.001023	20.950040
841.243353	-3.005300	3.672600	-11.036000	24.619356	0.001024	20.974795
842.239261	-3.016700	3.672000	-11.076000	24.620430	0.001024	20.943161
843.239733	-2.992100	3.672600	-10.989000	24.602852	0.001024	20.965349
844.241514	-2.989400	3.671900	-10.975000	24.594784	0.001022	20.949669
845.238659	-2.989000	3.671800	-10.974000	24.593315	0.001023	20.966684
846.240901	-2.960200	3.670700	-10.865000	24.627836	0.001022	20.953910
847.240890	-2.986700	3.670700	-10.961000	24.631986	0.001022	20.966607
848.240421	-3.001300	3.668600	-11.009000	24.643302	0.001021	20.944773
849.240000	-2.999000	3.669600	-11.004000	24.644160	0.001022	20.954168
850.244374	-2.996400	3.671400	-10.999000	24.651669	0.001022	20.958383
851.241369	-3.014200	3.668600	-11.057000	24.636866	0.001020	20.961547
852.242210	-3.002800	3.669200	-11.017000	24.665382	0.001021	20.959341
853.244226	-3.031500	3.668400	-11.119000	24.664462	0.001022	20.974537
854.243768	-2.997400	3.667800	-10.992000	24.709686	0.001020	20.963969
855.243577	-2.991300	3.669000	-10.973000	24.705073	0.001020	20.979252
856.245004	-2.995200	3.667600	-10.984000	24.691525	0.001022	20.977985
857.243135	-2.976000	3.667200	-10.912000	24.671756	0.001020	20.969529
858.244505	-3.002200	3.666200	-11.005000	24.668165	0.001021	20.996267
859.244299	-2.968500	3.667500	-10.886000	24.615560	0.001018	20.958660
860.244595	-3.006200	3.665400	-11.017000	24.593057	0.001019	20.994397
861.247043	-3.018100	3.666900	-11.066000	24.620362	0.001019	20.981019
862.246006	-2.995500	3.667200	-10.984000	24.599785	0.001018	20.998302
863.246716	-3.019100	3.664700	-11.062000	24.639874	0.001016	20.967884
864.246892	-2.975100	3.666300	-10.906000	24.636859	0.001017	20.960592
865.247485	-2.982700	3.665400	-10.931000	24.656069	0.001017	20.970383
866.247051	-2.988900	3.665200	-10.954000	24.673674	0.001018	20.977142
867.249382	-2.981300	3.665600	-10.927000	24.650382	0.001017	20.962307
868.251672	-3.001700	3.663300	-10.995000	24.648389	0.001017	20.973582
869.251954	-2.998100	3.665000	-10.987000	24.628028	0.001015	21.000562
870.249567	-2.980800	3.663800	-10.919000	24.590206	0.001015	20.995803
871.253001	-3.017800	3.664400	-11.057000	24.616283	0.001015	20.988304
872.256630	-3.020000	3.662600	-11.061000	24.612081	0.001017	20.995941
873.251439	-2.983400	3.666100	-10.936000	24.612563	0.001015	20.985047
874.257017	-2.992900	3.664100	-10.964000	24.639334	0.001016	20.978245
875.256866	-3.013200	3.662900	-11.035000	24.664121	0.001014	20.990787
876.254395	-3.000200	3.662400	-10.987000	24.696432	0.001013	20.975798
877.263202	-2.991200	3.661800	-10.951000	24.691553	0.001014	20.993183
878.258193	-2.997500	3.661400	-10.974000	24.724027	0.001014	20.975039
879.256136	-3.023500	3.660800	-11.067000	24.727643	0.001015	20.977720
880.257600	-3.021100	3.660500	-11.057000	24.758622	0.001013	20.982254
881.258236	-3.013700	3.660400	-11.030000	24.791961	0.001014	20.982996
882.256235	-2.993900	3.661700	-10.961000	24.784161	0.001013	20.983228
883.259050	-2.993600	3.661700	-10.960000	24.797647	0.001014	20.971634
884.258094	-2.999100	3.661400	-10.980000	24.792064	0.001014	20.979780
885.256349	-3.002200	3.659900	-10.985000	24.807681	0.001012	20.975539
886.258856	-3.010600	3.660200	-11.017000	24.811220	0.001012	20.973401
887.264506	-2.994300	3.660200	-10.959000	24.821434	0.001012	20.966109
888.256553	-2.974300	3.658900	-10.881000	24.793826	0.001010	20.973962
889.259679	-3.001100	3.660100	-10.982000	24.833795	0.001011	20.960972
890.257662	-2.980000	3.659000	-10.901000	24.827550	0.001011	20.972721
891.257380	-2.998900	3.658700	-10.970000	24.854454	0.001010	20.963213
892.257842	-2.999700	3.658000	-10.972000	24.851748	0.001008	20.973772
893.259100	-2.992600	3.659600	-10.951000	24.835032	0.001010	20.962687
894.259963	-3.003600	3.656600	-10.981000	24.817732	0.001010	20.953386
895.261283	-3.008400	3.656400	-11.000000	24.781988	0.001008	20.974885
896.262510	-2.991300	3.657800	-10.941000	24.789368	0.001008	20.976600
897.262365	-3.006600	3.657200	-10.995000	24.769463	0.001009	20.945724
898.262702	-2.998400	3.655700	-10.960000	24.791412	0.001007	20.975333
899.263571	-2.983500	3.658000	-10.913000	24.774721	0.001007	20.958585
900.263837	-3.028500	3.655400	-11.069000	24.777556	0.001007	20.957637
901.264576	-3.009800	3.655800	-11.003000	24.751878	0.001005	20.970273
902.265553	-2.997800	3.655900	-10.959000	24.736321	0.001005	20.968412
903.264152	-2.994500	3.656200	-10.948000	24.745581	0.001006	20.951629
904.264439	-3.021600	3.655300	-11.043000	24.746218	0.001005	20.961275
905.268365	-3.012200	3.655000	-11.008000	24.730548	0.001005	20.955982
906.264281	-2.982200	3.657400	-10.906000	24.684603	0.001005	20.945440
907.266040	-3.012700	3.654700	-11.009000	24.677946	0.001005	20.951086
908.266164	-3.004200	3.654100	-10.977000	24.678392	0.001004	20.940631
909.266608	-2.992200	3.653700	-10.932000	24.672558	0.001004	20.940466
910.265646	-3.013700	3.653900	-11.010000	24.671176	0.001005	20.937657
911.268106	-2.995500	3.653200	-10.942000	24.694879	0.001004	20.943423
912.267517	-3.004500	3.653500	-10.976000	24.699414	0.001004	20.933277
913.268430	-3.032700	3.652300	-11.074000	24.707662	0.001003	20.946768
914.268099	-3.023300	3.652300	-11.041000	24.747619	0.001003	20.950828
915.267878	-3.001600	3.652600	-10.963000	24.730307	0.001001	20.938199
916.269156	-3.006700	3.652100	-10.980000	24.737963	0.001004	20.937821
917.269484	-3.009500	3.650700	-10.986000	24.739638	0.001004	20.924330
918.269827	-3.007900	3.651700	-10.983000	24.729269	0.001002	20.944268
919.270869	-3.009800	3.651400	-10.987000	24.756046	0.001001	20.942217
920.274774	-2.994200	3.651600	-10.932000	24.773682	0.001001	20.955647
921.271596	-3.019000	3.648700	-11.014000	24.783347	0.001002	20.931684
922.271620	-2.998400	3.651400	-10.947000	24.787178	0.001001	20.963974
923.275528	-3.005300	3.650900	-10.971000	24.806524	0.001000	20.932184
924.274990	-3.000800	3.650300	-10.953000	24.801619	0.000998	20.942907
925.272256	-2.999100	3.650800	-10.948000	24.819537	0.001001	20.943820
926.274903	-3.022700	3.649600	-11.030000	24.825319	0.000998	20.945355
927.277285	-2.978900	3.649400	-10.870000	24.807186	0.000999	20.923366
928.272208	-3.013000	3.647200	-10.988000	24.789541	0.000998	20.931735
929.273800	-2.996100	3.648100	-10.929000	24.758659	0.000998	20.938675
930.271302	-3.000800	3.648000	-10.946000	24.730644	0.000997	20.913410
931.273176	-3.011500	3.647800	-10.984000	24.718170	0.000998	20.926969
932.275198	-3.023900	3.647100	-11.028000	24.699716	0.000997	20.927891
933.273453	-3.019700	3.646200	-11.009000	24.681786	0.000997	20.921753
934.273373	-2.998100	3.647500	-10.934000	24.668935	0.000997	20.906962
935.275763	-2.958000	3.649300	-10.794000	24.704579	0.000995	20.933719
936.273000	-3.013100	3.645700	-10.984000	24.760359	0.000998	20.913358
937.278825	-2.976700	3.645900	-10.852000	24.769783	0.000994	20.920444
938.274545	-2.989800	3.645900	-10.900000	24.800262	0.000996	20.926849
939.273792	-2.988800	3.646600	-10.898000	24.826659	0.000994	20.906401
940.272936	-2.971000	3.647000	-10.834000	24.814032	0.000995	20.922176
941.275824	-2.993600	3.646500	-10.915000	24.831564	0.000994	20.927917
942.273645	-3.010400	3.644500	-10.970000	24.817811	0.000994	20.928339
943.273692	-2.993500	3.642900	-10.904000	24.788673	0.000995	20.926598
944.276504	-2.983400	3.643900	-10.870000	24.784224	0.000994	20.925926
945.274335	-2.995200	3.643200	-10.910000	24.788605	0.000994	20.924633
946.274289	-3.029100	3.643100	-11.034000	24.808654	0.000991	20.940485
947.275705	-3.011000	3.642000	-10.965000	24.835893	0.000991	20.933683
948.274648	-3.017000	3.642100	-10.986000	24.821221	0.000992	20.923701
949.272635	-3.010400	3.642900	-10.965000	24.824667	0.000991	20.931426
950.276963	-2.988900	3.644200	-10.892000	24.796499	0.000989	20.926865
951.274458	-3.008400	3.641800	-10.955000	24.771191	0.000991	20.924701
952.274408	-3.005500	3.641200	-10.942000	24.774293	0.000992	20.921176
953.277933	-2.994300	3.643000	-10.907000	24.755342	0.000991	20.918280
954.277774	-3.000700	3.641600	-10.927000	24.710378	0.000990	20.928633
955.273839	-2.979000	3.641600	-10.847000	24.740309	0.000990	20.921685
956.276797	-3.011300	3.641100	-10.963000	24.723840	0.000987	20.909427
957.274009	-3.015600	3.640100	-10.977000	24.764853	0.000989	20.924030
958.274902	-3.013100	3.639700	-10.966000	24.782987	0.000988	20.922314
959.278616	-3.002500	3.641100	-10.932000	24.832724	0.000989	20.912013
960.276722	-2.982900	3.641000	-10.860000	24.844124	0.000988	20.942417
961.277175	-3.011300	3.639900	-10.960000	24.842157	0.000985	20.920531
962.283052	-3.005300	3.638200	-10.932000	24.862205	0.000985	20.925478
963.276497	-3.001400	3.639300	-10.921000	24.827752	0.000986	20.916031
964.277357	-3.018600	3.638900	-10.984000	24.804884	0.000986	20.905885
965.277402	-3.026600	3.638000	-11.010000	24.815751	0.000986	20.914419
966.276357	-2.992500	3.637700	-10.885000	24.810579	0.000984	20.928668
967.277282	-3.014200	3.637400	-10.962000	24.833643	0.000985	20.928581
968.280167	-2.987400	3.638300	-10.868000	24.854071	0.000985	20.906885
969.277061	-2.994100	3.637100	-10.889000	24.850326	0.000984	20.909291
970.275635	-3.009500	3.638300	-10.947000	24.839769	0.000985	20.901540
971.278851	-2.984800	3.636600	-10.853000	24.798768	0.000984	20.905437
972.279386	-2.978700	3.636500	-10.831000	24.838875	0.000985	20.918186
973.277208	-3.010200	3.635800	-10.943000	24.846598	0.000983	20.913135
974.281094	-3.015800	3.633900	-10.958000	24.856786	0.000982	20.921936
975.280737	-2.976400	3.636500	-10.823000	24.875468	0.000983	20.916031
976.278865	-2.995700	3.636600	-10.893000	24.929668	0.000981	20.917325
977.282557	-2.985400	3.636300	-10.853000	24.895834	0.000978	20.941684
978.279493	-3.008700	3.634500	-10.934000	24.878209	0.000980	20.920204
979.278055	-2.992700	3.635900	-10.880000	24.883869	0.000979	20.897912
980.281578	-2.997000	3.636000	-10.894000	24.900137	0.000979	20.909497
981.279910	-3.011400	3.633600	-10.941000	24.915419	0.000980	20.904920
982.278529	-2.988300	3.633700	-10.858000	24.922530	0.000981	20.905894
983.279693	-3.008900	3.633100	-10.931000	24.934822	0.000980	20.905904
984.281149	-2.984900	3.633900	-10.846000	24.962926	0.000981	20.902817
985.281153	-3.002100	3.633400	-10.907000	24.925236	0.000979	20.920937
986.283469	-3.009700	3.633700	-10.935000	24.910575	0.000979	20.906223
987.280865	-3.002500	3.633200	-10.908000	24.874645	0.000979	20.928006
988.279271	-3.011800	3.631100	-10.935000	24.856898	0.000980	20.915886
989.281478	-2.988000	3.632000	-10.851000	24.858814	0.000976	20.922075
990.281056	-2.997700	3.632300	-10.888000	24.895483	0.000977	20.922368
991.278646	-2.984200	3.632200	-10.838000	24.887761	0.000977	20.894706
992.283245	-2.999500	3.631200	-10.891000	24.921948	0.000976	20.898198
993.281166	-3.007500	3.630900	-10.919000	24.882702	0.000976	20.916179
994.282077	-2.976600	3.631800	-10.809000	24.899941	0.000975	20.909300
995.286168	-2.997400	3.630000	-10.879000	24.891164	0.000973	20.920878
996.284043	-3.014000	3.630200	-10.940000	24.885572	0.000975	20.902939
997.281680	-3.006800	3.631000	-10.917000	24.857319	0.000973	20.902559
998.291227	-2.994800	3.630500	-10.872000	24.850955	0.000976	20.896647
999.281133	-2.992900	3.629500	-10.862000	24.824996	0.000973	20.895250
1000.281584	-3.004200	3.630500	-10.906000	24.818270	0.000973	20.921214
1001.284338	-3.015500	3.629000	-10.942000	24.813915	0.000975	20.887449
1002.288920	-3.022000	3.629100	-10.967000	24.826388	0.000971	20.909922
1003.284745	-3.007800	3.628700	-10.913000	24.820831	0.000975	20.899130
1004.285238	-3.001700	3.628200	-10.890000	24.825623	0.000973	20.905836
1005.283747	-3.025100	3.627100	-10.971000	24.851617	0.000969	20.917224
1006.284470	-3.015900	3.628400	-10.940000	24.867285	0.000969	20.905448
1007.284916	-2.998200	3.626500	-10.872000	24.868892	0.000970	20.908957
1008.284817	-2.988300	3.629200	-10.844000	24.878839	0.000969	20.888596
1009.285850	-2.999500	3.626400	-10.876000	24.864331	0.000969	20.900588
1010.285147	-2.979500	3.627600	-10.807000	24.882001	0.000970	20.898407
1011.286766	-3.005200	3.625200	-10.894000	24.879372	0.000969	20.907148
1012.288456	-3.011000	3.626200	-10.918000	24.930024	0.000967	20.885442
1013.291076	-2.991000	3.625000	-10.841000	24.942727	0.000968	20.914311
1014.288898	-2.982000	3.626500	-10.813000	24.963641	0.000968	20.895002
1015.289039	-3.008800	3.624500	-10.905000	24.986068	0.000967	20.907554
1016.290672	-2.981700	3.627200	-10.814000	24.994099	0.000965	20.906131
1017.289584	-3.019600	3.624400	-10.943000	24.982376	0.000967	20.896736
1018.290714	-2.994900	3.625500	-10.857000	24.995911	0.000967	20.902735
1019.290460	-3.000500	3.623500	-10.872000	24.984918	0.000967	20.881271
1020.293885	-2.987700	3.623300	-10.825000	24.981920	0.000967	20.873047
1021.296719	-2.986400	3.624600	-10.824000	24.974808	0.000966	20.901942
1022.292080	-3.002500	3.622900	-10.877000	24.985416	0.000965	20.884142
1023.291860	-2.997100	3.622900	-10.857000	24.988388	0.000962	20.908460
1024.290385	-3.004200	3.621800	-10.880000	24.983398	0.000965	20.901081
1025.293322	-2.995600	3.621800	-10.848000	24.994108	0.000962	20.884332
1026.292260	-3.010900	3.623400	-10.909000	25.002421	0.000962	20.891253
1027.294310	-3.010400	3.621000	-10.900000	25.026024	0.000962	20.877488
1028.296456	-2.982700	3.621500	-10.801000	25.043003	0.000963	20.881255
1029.295235	-2.995600	3.621700	-10.847000	25.071524	0.000964	20.890444
1030.294658	-2.996900	3.620900	-10.850000	25.068304	0.000962	20.869669
1031.298215	-2.968600	3.622000	-10.751000	25.038691	0.000961	20.873134
1032.295948	-2.989900	3.620800	-10.824000	25.072668	0.000961	20.878790
1033.296679	-3.014400	3.619700	-10.911000	25.070014	0.000959	20.901728
1034.297201	-2.994400	3.621600	-10.844000	25.037232	0.000960	20.881626
1035.297191	-2.966800	3.621500	-10.743000	25.021284	0.000957	20.900703
1036.297736	-2.965200	3.620700	-10.735000	25.021104	0.000961	20.877765
1037.304684	-3.000000	3.619100	-10.857000	25.027193	0.000959	20.869653
1038.297643	-2.987000	3.618800	-10.809000	25.031454	0.000959	20.892894
1039.297413	-2.995800	3.618800	-10.841000	25.053963	0.000958	20.873291
1040.298437	-2.995000	3.618200	-10.836000	25.009089	0.000958	20.890359
1041.297801	-2.999900	3.617000	-10.850000	24.981433	0.000958	20.875403
1042.300139	-3.018900	3.616600	-10.917000	24.965604	0.000958	20.883696
1043.302200	-2.988500	3.619100	-10.815000	24.959343	0.000957	20.892584
1044.300011	-2.998000	3.617300	-10.844000	24.973146	0.000954	20.888627
1045.299371	-2.994500	3.616800	-10.829000	24.993510	0.000956	20.879938
1046.299841	-2.999300	3.615800	-10.844000	25.034786	0.000956	20.873955
1047.299368	-3.021600	3.615500	-10.924000	25.043864	0.000955	20.860783
1048.301696	-3.020000	3.616200	-10.919000	25.076594	0.000955	20.871826
1049.300011	-2.977100	3.615800	-10.764000	25.073863	0.000952	20.881886
1050.300984	-3.000900	3.616600	-10.853000	25.046646	0.000953	20.871636
1051.301048	-2.993800	3.615800	-10.824000	25.023561	0.000954	20.865060
1052.301606	-3.002000	3.615700	-10.853000	25.027710	0.000954	20.855474
1053.303923	-3.005400	3.614200	-10.862000	24.975507	0.000954	20.877042
1054.305017	-3.002500	3.612900	-10.847000	24.929771	0.000952	20.877129
1055.301016	-3.011400	3.614600	-10.885000	24.911588	0.000952	20.884482
1056.302729	-2.996900	3.612100	-10.824000	24.924661	0.000950	20.853983
1057.301548	-3.015100	3.612800	-10.891000	24.965124	0.000951	20.877999
1058.304925	-3.018200	3.612600	-10.902000	24.985549	0.000950	20.867207
1059.303133	-3.013800	3.612300	-10.885000	25.006395	0.000949	20.860156
1060.304346	-3.001600	3.612100	-10.840000	25.030949	0.000951	20.862992
1061.302156	-2.982700	3.613100	-10.773000	25.067304	0.000950	20.871510
1062.304549	-3.005000	3.610900	-10.849000	25.022774	0.000948	20.876122
1063.303101	-2.995400	3.612100	-10.818000	25.020155	0.000950	20.873493
1064.305581	-3.000100	3.611400	-10.834000	24.978148	0.000948	20.865942
1065.308105	-3.020400	3.611100	-10.905000	24.929825	0.000946	20.876235
1066.305629	-3.000700	3.609500	-10.830000	24.916864	0.000948	20.868916
1067.305155	-2.997200	3.610600	-10.821000	24.884955	0.000948	20.868184
1068.304827	-2.973700	3.610900	-10.737000	24.883014	0.000946	20.873348
1069.305872	-2.997400	3.609700	-10.818000	24.891199	0.000947	20.858805
1070.305095	-2.985300	3.609900	-10.776000	24.922096	0.000947	20.855202
1071.307461	-2.992300	3.609700	-10.800000	24.927534	0.000946	20.863030
1072.305017	-2.997200	3.609700	-10.818000	24.890110	0.000946	20.849651
1073.306091	-2.999900	3.608400	-10.823000	24.915157	0.000943	20.844919
1074.308940	-3.012500	3.607800	-10.867000	24.918481	0.000945	20.859159
1075.306273	-3.002300	3.607500	-10.829000	24.965859	0.000943	20.867358
1076.306493	-3.010300	3.607900	-10.860000	24.985073	0.000942	20.852031
1077.307941	-3.007000	3.606200	-10.842000	25.011474	0.000944	20.851979
1078.306853	-3.010000	3.606700	-10.855000	25.045864	0.000943	20.862790
1079.305596	-2.989900	3.607900	-10.785000	25.028592	0.000940	20.876272
1080.308960	-2.997300	3.606400	-10.809000	25.032879	0.000940	20.867299
1081.308019	-2.997800	3.606000	-10.809000	25.033772	0.000942	20.874834
1082.308254	-2.991100	3.607200	-10.789000	25.065497	0.000938	20.874911
1083.311666	-2.997300	3.606900	-10.810000	25.069224	0.000940	20.858265
1084.308234	-2.997200	3.604700	-10.802000	25.027091	0.000939	20.851534
1085.309136	-3.006900	3.603400	-10.832000	25.027348	0.000939	20.849421
1086.311795	-2.990400	3.605600	-10.779000	25.018055	0.000938	20.843412
1087.309409	-2.988900	3.604900	-10.774000	25.046586	0.000937	20.843128
1088.310028	-2.998600	3.604100	-10.806000	25.053097	0.000937	20.856301
1089.314343	-3.005700	3.603500	-10.829000	25.066082	0.000936	20.854162
1090.309991	-2.984100	3.604300	-10.755000	25.064664	0.000937	20.833300
1091.314209	-2.982200	3.605500	-10.751000	25.065223	0.000936	20.863258
1092.315500	-3.001200	3.603800	-10.814000	25.074490	0.000934	20.845060
1093.312060	-3.002600	3.600800	-10.811000	25.102256	0.000936	20.843060
1094.314815	-2.999300	3.602900	-10.804000	25.131334	0.000936	20.866560
1095.315402	-3.011100	3.602600	-10.846000	25.146706	0.000933	20.863974
1096.313047	-2.988400	3.602700	-10.766000	25.194881	0.000936	20.851646
1097.313415	-3.006800	3.601300	-10.828000	25.180300	0.000935	20.842225
1098.317193	-2.993600	3.602200	-10.781000	25.150879	0.000932	20.825966
1099.313858	-3.015000	3.600400	-10.854000	25.133233	0.000932	20.831958
1100.313937	-3.009800	3.599800	-10.834000	25.128603	0.000933	20.847224
1101.319256	-3.003200	3.599900	-10.810000	25.151885	0.000935	20.817018
1102.312409	-3.008800	3.600200	-10.832000	25.148363	0.000931	20.838138
1103.316732	-3.010400	3.598500	-10.831000	25.137233	0.000930	20.836448
1104.316610	-3.008000	3.599400	-10.825000	25.134194	0.000930	20.837664
1105.316511	-3.013900	3.599000	-10.846000	25.137269	0.000929	20.847863
1106.314753	-3.010400	3.597800	-10.829000	25.106404	0.000929	20.828733
1107.318699	-2.998500	3.598300	-10.787000	25.098245	0.000930	20.842354
1108.317267	-3.028800	3.597700	-10.895000	25.089795	0.000929	20.846673
1109.316721	-3.025500	3.595700	-10.878000	25.055278	0.000929	20.827198
1110.316117	-2.992900	3.597700	-10.766000	25.026233	0.000929	20.839293
1111.315783	-2.993400	3.597500	-10.767000	25.061265	0.000927	20.829888
1112.314665	-3.018300	3.594400	-10.848000	25.088979	0.000927	20.844431
1113.322618	-3.009400	3.596400	-10.822000	25.120204	0.000927	20.821250
1114.318062	-3.005600	3.595400	-10.805000	25.164756	0.000927	20.846060
1115.314456	-3.004600	3.596700	-10.805000	25.192355	0.000926	20.818292
1116.319276	-2.980500	3.596100	-10.717000	25.204445	0.000924	20.839913
1117.325707	-2.976700	3.596600	-10.705000	25.227828	0.000923	20.848689
1118.316242	-2.997400	3.592800	-10.767000	25.275974	0.000923	20.836810
1119.317373	-2.997400	3.595000	-10.775000	25.267361	0.000925	20.848550
1120.316559	-3.007900	3.593100	-10.806000	25.289583	0.000922	20.825343
1121.314079	-3.017600	3.593200	-10.842000	25.250170	0.000922	20.807110
1122.319142	-2.984200	3.596300	-10.731000	25.241223	0.000923	20.806661
1123.317646	-2.998400	3.593100	-10.772000	25.218691	0.000922	20.841412
1124.316415	-3.027500	3.592900	-10.876000	25.199437	0.000923	20.837729
1125.322146	-2.998300	3.592800	-10.771000	25.183999	0.000922	20.816541
1126.317233	-3.015000	3.591100	-10.826000	25.175058	0.000921	20.829376
1127.315667	-2.994500	3.594000	-10.761000	25.183430	0.000919	20.806488
1128.318301	-2.989600	3.592500	-10.738000	25.147689	0.000919	20.811858
1129.317480	-2.994800	3.591700	-10.755000	25.123241	0.000919	20.811497
1130.318603	-2.987900	3.590900	-10.728000	25.129664	0.000920	20.851134
1131.322925	-3.002100	3.590200	-10.776000	25.140226	0.000919	20.837556
1132.318692	-2.976100	3.590300	-10.684000	25.152413	0.000918	20.815177
1133.320037	-2.989100	3.590300	-10.731000	25.202390	0.000919	20.834530
1134.322649	-2.978100	3.591700	-10.695000	25.237365	0.000917	20.817487
1135.321305	-2.982300	3.589800	-10.705000	25.244140	0.000916	20.821918
1136.324121	-3.001400	3.590700	-10.776000	25.215871	0.000916	20.832892
1137.331586	-2.998300	3.589900	-10.762000	25.215527	0.000916	20.825909
1138.324466	-3.000800	3.590100	-10.772000	25.192626	0.000914	20.830892
1139.323321	-3.021100	3.588000	-10.838000	25.219890	0.000913	20.826970
1140.330069	-2.990400	3.590100	-10.735000	25.228048	0.000914	20.822831
1141.323953	-2.967000	3.588700	-10.645000	25.226734	0.000913	20.810133
1142.321867	-2.988900	3.587600	-10.722000	25.212813	0.000912	20.825554
1143.327357	-2.987500	3.586800	-10.714000	25.216540	0.000914	20.815545
1144.325836	-3.005400	3.587200	-10.780000	25.240334	0.000914	20.816200
1145.322014	-2.999400	3.586700	-10.757000	25.241519	0.000912	20.826873
1146.330306	-3.008100	3.586700	-10.788000	25.245529	0.000912	20.804347
1147.331613	-2.993900	3.586300	-10.736000	25.245683	0.000912	20.804976
1148.324682	-3.034200	3.584200	-10.874000	25.252150	0.000910	20.826641
1149.331864	-2.990200	3.586600	-10.723000	25.251479	0.000911	20.805105
1150.329908	-3.010500	3.585100	-10.792000	25.228492	0.000910	20.819958
1151.336148	-2.998500	3.586100	-10.752000	25.215637	0.000909	20.809424
1152.335019	-3.016300	3.585100	-10.812000	25.193645	0.000909	20.827174
1153.325720	-2.981600	3.584200	-10.686000	25.214220	0.000907	20.797570
1154.324341	-2.994200	3.583400	-10.728000	25.239620	0.000909	20.811217
1155.329878	-3.005800	3.583600	-10.771000	25.255514	0.000906	20.812001
1156.328632	-2.995800	3.583200	-10.732000	25.232665	0.000907	20.820829
1157.330425	-3.016600	3.581900	-10.804000	25.242737	0.000907	20.812923
1158.335766	-2.992100	3.583300	-10.720000	25.241690	0.000906	20.805708
1159.331613	-3.017100	3.582700	-10.808000	25.264564	0.000904	20.811130
1160.332555	-3.020900	3.580400	-10.815000	25.275195	0.000905	20.799518
1161.328624	-3.015000	3.581200	-10.796000	25.281652	0.000904	20.796044
1162.335917	-3.013100	3.581900	-10.792000	25.282889	0.000906	20.817200
1163.328408	-2.984400	3.581600	-10.687000	25.283686	0.000903	20.799509
1164.329793	-2.998800	3.581900	-10.741000	25.262890	0.000902	20.813243
1165.329481	-3.015600	3.581100	-10.798000	25.272515	0.000904	20.818639
1166.332054	-3.012700	3.579900	-10.785000	25.258331	0.000901	20.800605
1167.331238	-3.001300	3.579400	-10.741000	25.283875	0.000902	20.822932
1168.329555	-2.990700	3.580800	-10.709000	25.303710	0.000900	20.796854
1169.333947	-2.999200	3.580000	-10.735000	25.336982	0.000900	20.805605
1170.331729	-2.991600	3.580800	-10.711000	25.356137	0.000901	20.803976
1171.333267	-2.995000	3.579200	-10.718000	25.356748	0.000900	20.815968
1172.329510	-3.005800	3.578200	-10.754000	25.329349	0.000899	20.802682
1173.331029	-2.991100	3.578100	-10.701000	25.290737	0.000898	20.824132
1174.333709	-3.001200	3.576800	-10.734000	25.307832	0.000899	20.792932
1175.332708	-3.011600	3.577400	-10.773000	25.282699	0.000897	20.811320
1176.330742	-2.987400	3.578600	-10.689000	25.226535	0.000899	20.816571
1177.335326	-2.999800	3.577100	-10.729000	25.186063	0.000899	20.811027
1178.332855	-2.981700	3.577600	-10.666000	25.133723	0.000898	20.811588
1179.333665	-2.977400	3.577200	-10.649000	25.109978	0.000896	20.801502
1180.338244	-2.994100	3.576700	-10.708000	25.090458	0.000895	20.812252
1181.332582	-2.968200	3.576400	-10.614000	25.122207	0.000895	20.800028
1182.336831	-3.000000	3.575200	-10.725000	25.145978	0.000894	20.819148
1183.338971	-3.003600	3.575100	-10.737000	25.198618	0.000894	20.820787
1184.336432	-2.987900	3.575200	-10.682000	25.223589	0.000895	20.806976
1185.334540	-2.976000	3.574800	-10.638000	25.199907	0.000893	20.810701
1186.337404	-3.014500	3.574100	-10.773000	25.206535	0.000895	20.823519
1187.335440	-3.008000	3.574900	-10.752000	25.198850	0.000894	20.800157
1188.333595	-3.026900	3.572400	-10.812000	25.235765	0.000893	20.815407
1189.335094	-3.033600	3.572200	-10.834000	25.264034	0.000892	20.815339
1190.335292	-2.993900	3.573900	-10.699000	25.278896	0.000891	20.827890
1191.336555	-2.998300	3.574000	-10.715000	25.306286	0.000892	20.823148
1192.339289	-3.010500	3.572600	-10.753000	25.350024	0.000889	20.819174
1193.335672	-3.002200	3.571400	-10.721000	25.367101	0.000887	20.816407
1194.334854	-2.988400	3.572500	-10.676000	25.326146	0.000889	20.804208
1195.338451	-3.016900	3.570100	-10.769000	25.346959	0.000888	20.819416
1196.334747	-3.019300	3.571300	-10.782000	25.316907	0.000890	20.831441
1197.338776	-3.000800	3.571000	-10.715000	25.292935	0.000888	20.810691
1198.337868	-3.015100	3.570200	-10.763000	25.255411	0.000887	20.811424
1199.337990	-3.000600	3.570300	-10.711000	25.275641	0.000889	20.829838
1200.337693	-2.992600	3.570900	-10.684000	25.295261	0.000885	20.832941
1201.337153	-2.981500	3.570300	-10.643000	25.319612	0.000886	20.816139
1202.338326	-3.004300	3.569500	-10.722000	25.362524	0.000883	20.830777
1203.337289	-3.001700	3.569000	-10.712000	25.352617	0.000885	20.847855
1204.339870	-2.986400	3.569100	-10.657000	25.339256	0.000884	20.826854
1205.338885	-2.993400	3.569400	-10.683000	25.317627	0.000885	20.830267
1206.338853	-3.007800	3.566600	-10.726000	25.306190	0.000883	20.819259
1207.339961	-3.001200	3.568400	-10.709000	25.308294	0.000882	20.825164
1208.339487	-3.018300	3.566300	-10.762000	25.289739	0.000883	20.833560
1209.339918	-3.014100	3.565500	-10.746000	25.273313	0.000882	20.835086
1210.339443	-3.015800	3.565700	-10.752000	25.283445	0.000881	20.839095
1211.339859	-2.994500	3.567500	-10.682000	25.327338	0.000882	20.821052
1212.341271	-2.991100	3.567100	-10.667000	25.350314	0.000879	20.811879
1213.339390	-3.027000	3.565700	-10.791000	25.361098	0.000880	20.839302
1214.340489	-2.982900	3.566500	-10.637000	25.367735	0.000880	20.818465
1215.341560	-2.997600	3.567100	-10.692000	25.384596	0.000879	20.841085
1216.341019	-3.016200	3.565600	-10.754000	25.412251	0.000879	20.818594
1217.340856	-2.993900	3.565200	-10.672000	25.385267	0.000876	20.822794
1218.339501	-3.008500	3.565200	-10.724000	25.380587	0.000876	20.815249
1219.340400	-3.025400	3.564100	-10.782000	25.333760	0.000875	20.818017
1220.342404	-2.988400	3.563600	-10.648000	25.339135	0.000877	20.828155
1221.351453	-2.983600	3.563600	-10.631000	25.376090	0.000875	20.844872
1222.341820	-2.995100	3.562700	-10.670000	25.382845	0.000873	20.839327
1223.342313	-2.975800	3.564100	-10.605000	25.406122	0.000875	20.832828
1224.343281	-3.009500	3.562600	-10.720000	25.383610	0.000872	20.843414
1225.351196	-3.007900	3.562200	-10.714000	25.359218	0.000874	20.843104
1226.344882	-3.007000	3.560700	-10.706000	25.349292	0.000872	20.838827
1227.343726	-3.000000	3.562800	-10.688000	25.361262	0.000872	20.849423
1228.343061	-2.982400	3.562800	-10.624000	25.387963	0.000873	20.838776
1229.342984	-2.995600	3.560300	-10.664000	25.366267	0.000870	20.845440
1230.342420	-2.994500	3.562000	-10.666000	25.345437	0.000871	20.824526
1231.342784	-3.001100	3.562300	-10.690000	25.332687	0.000871	20.832112
1232.342654	-3.020900	3.559600	-10.752000	25.331107	0.000870	20.864189
1233.345164	-3.005200	3.560100	-10.697000	25.318356	0.000868	20.858025
1234.344662	-2.981900	3.559800	-10.614000	25.343609	0.000868	20.829802
1235.346489	-2.987200	3.559100	-10.631000	25.329417	0.000868	20.834044
1236.344472	-3.010000	3.558900	-10.711000	25.318469	0.000869	20.834905
1237.343549	-2.986000	3.559900	-10.628000	25.305949	0.000868	20.838931
1238.345219	-3.028900	3.557600	-10.774000	25.322899	0.000866	20.826551
1239.345270	-2.996600	3.558300	-10.662000	25.322169	0.000866	20.857586
1240.345921	-2.988800	3.558000	-10.632000	25.312715	0.000865	20.850465
1241.344934	-3.002800	3.556100	-10.677000	25.270813	0.000866	20.832103
1242.348287	-3.005100	3.556100	-10.685000	25.263832	0.000864	20.846904
1243.345868	-3.006600	3.556400	-10.692000	25.250712	0.000865	20.842266
1244.345481	-3.036600	3.555100	-10.795000	25.240193	0.000864	20.848301
1245.344945	-2.986700	3.556100	-10.620000	25.282861	0.000862	20.849887
1246.344428	-2.978800	3.556500	-10.593000	25.272522	0.000862	20.852784
1247.345220	-2.980700	3.555400	-10.597000	25.282851	0.000862	20.844188
1248.344457	-3.000900	3.554900	-10.666000	25.257667	0.000859	20.849249
1249.345610	-2.981300	3.556700	-10.602000	25.246795	0.000861	20.851136
1250.345924	-3.005500	3.553900	-10.679000	25.271250	0.000861	20.846291
1251.346537	-2.992300	3.555600	-10.639000	25.253828	0.000862	20.846343
1252.344445	-2.988500	3.554000	-10.620000	25.281219	0.000860	20.843972
1253.345358	-2.982500	3.554700	-10.599000	25.315976	0.000860	20.877445
1254.345178	-2.978700	3.554400	-10.586000	25.363989	0.000858	20.856903
1255.345903	-3.014900	3.552600	-10.709000	25.366813	0.000857	20.850256
1256.347549	-3.000900	3.552600	-10.660000	25.398246	0.000856	20.862377
1257.349616	-3.019300	3.551500	-10.722000	25.402718	0.000857	20.873504
1258.345577	-3.010200	3.551800	-10.690000	25.420774	0.000857	20.854178
1259.347491	-2.981500	3.553100	-10.591000	25.393000	0.000857	20.860903
1260.350296	-3.002000	3.551400	-10.660000	25.379159	0.000857	20.853643
1261.346892	-3.017500	3.549000	-10.708000	25.372008	0.000855	20.866376
1262.348982	-2.981300	3.552000	-10.589000	25.376781	0.000855	20.851730
1263.349940	-2.994500	3.551600	-10.635000	25.371835	0.000855	20.875211
1264.346453	-3.001300	3.552100	-10.659000	25.338882	0.000855	20.842125
1265.350785	-3.004000	3.550200	-10.664000	25.360148	0.000854	20.878175
1266.349633	-3.005300	3.549800	-10.667000	25.374874	0.000853	20.878736
1267.348785	-3.007700	3.549500	-10.674000	25.372307	0.000855	20.878530
1268.351053	-2.990800	3.548600	-10.612000	25.392243	0.000852	20.867728
1269.354739	-3.006900	3.548900	-10.669000	25.427658	0.000852	20.857771
1270.351186	-2.990900	3.548500	-10.612000	25.396801	0.000850	20.864719
1271.355619	-3.000800	3.547000	-10.643000	25.409146	0.000852	20.869528
1272.354745	-2.993700	3.547500	-10.619000	25.348069	0.000850	20.875530
1273.353609	-2.996700	3.548000	-10.631000	25.324310	0.000850	20.872537
1274.354058	-3.002900	3.547300	-10.651000	25.301608	0.000851	20.863494
1275.354804	-3.001000	3.547400	-10.645000	25.337430	0.000850	20.854417
1276.353568	-3.013600	3.546700	-10.688000	25.342066	0.000848	20.880881
1277.353959	-3.005400	3.545800	-10.655000	25.376281	0.000849	20.870667
1278.355716	-2.996600	3.546500	-10.626000	25.426566	0.000849	20.901242
1279.356444	-2.998300	3.545700	-10.630000	25.432756	0.000847	20.889441
1280.354131	-3.002000	3.544500	-10.640000	25.462041	0.000847	20.889451
1281.357621	-3.002500	3.545300	-10.644000	25.472634	0.000847	20.886338
1282.355912	-3.010500	3.544500	-10.670000	25.449703	0.000847	20.884648
1283.357889	-3.002400	3.543500	-10.638000	25.409378	0.000846	20.873554
1284.353722	-2.994800	3.544300	-10.613000	25.419714	0.000846	20.885355
1285.353700	-3.000400	3.543000	-10.629000	25.428394	0.000845	20.897389
1286.356927	-2.992800	3.544200	-10.606000	25.451566	0.000843	20.880356
1287.355507	-2.993800	3.543300	-10.607000	25.413515	0.000843	20.899991
1288.358846	-3.003500	3.542000	-10.638000	25.398131	0.000843	20.897346
1289.360007	-3.022200	3.541900	-10.704000	25.374048	0.000841	20.911570
1290.358453	-3.004900	3.542200	-10.643000	25.354318	0.000841	20.867580
1291.358928	-3.025500	3.540700	-10.711000	25.344135	0.000842	20.915198
1292.360614	-2.997300	3.542000	-10.615000	25.385681	0.000838	20.890061
1293.359698	-2.992200	3.542800	-10.601000	25.407832	0.000841	20.903294
1294.359118	-2.995500	3.541300	-10.607000	25.418186	0.000842	20.877656
1295.362420	-3.012500	3.539800	-10.663000	25.429913	0.000838	20.906974
1296.361027	-3.001100	3.540400	-10.625000	25.473611	0.000838	20.888742
1297.362864	-3.001300	3.540700	-10.626000	25.506981	0.000839	20.885742
1298.362933	-3.006200	3.540500	-10.643000	25.528115	0.000840	20.883733
1299.361546	-2.992000	3.539700	-10.589000	25.534115	0.000839	20.906352
1300.361258	-2.989300	3.538600	-10.577000	25.548752	0.000836	20.906826
1301.366187	-3.016800	3.538300	-10.673000	25.554915	0.000836	20.903533
1302.362568	-2.993100	3.537900	-10.588000	25.534947	0.000836	20.907662
1303.361218	-2.945100	3.540600	-10.426000	25.493028	0.000834	20.894490
1304.367834	-3.015800	3.538400	-10.670000	25.473095	0.000836	20.916196
1305.362937	-2.998500	3.539200	-10.612000	25.444549	0.000835	20.932573
1306.363981	-2.986600	3.538800	-10.568000	25.468913	0.000835	20.902040
1307.364565	-2.992900	3.536200	-10.583000	25.482821	0.000833	20.915531
1308.363969	-2.999700	3.535700	-10.606000	25.518721	0.000833	20.905117
1309.363968	-2.989300	3.537400	-10.573000	25.561137	0.000833	20.916893
1310.363436	-2.991600	3.534600	-10.573000	25.554004	0.000832	20.914945
1311.363568	-2.979200	3.537200	-10.536000	25.532138	0.000831	20.911478
1312.364520	-2.975800	3.536400	-10.523000	25.501534	0.000830	20.921995
1313.368293	-3.017000	3.534800	-10.664000	25.485995	0.000830	20.920615
1314.365245	-2.968900	3.535700	-10.495000	25.463546	0.000828	20.909927
1315.365578	-2.985700	3.533200	-10.548000	25.493309	0.000829	20.909943
1316.365339	-2.997500	3.534600	-10.594000	25.505010	0.000828	20.926907
1317.365426	-3.015200	3.534300	-10.654000	25.544825	0.000827	20.917106
1318.366921	-2.983800	3.534400	-10.544000	25.554868	0.000826	20.938096
1319.368866	-2.994500	3.533700	-10.580000	25.577746	0.000826	20.911762
1320.366094	-2.993700	3.532300	-10.574000	25.568894	0.000825	20.929424
1321.367160	-2.994500	3.532800	-10.578000	25.556593	0.000827	20.914701
1322.368568	-3.007400	3.532100	-10.621000	25.550507	0.000825	20.934190
1323.366695	-3.004800	3.532100	-10.613000	25.514512	0.000825	20.922225
1324.369059	-2.984600	3.529900	-10.534000	25.492304	0.000826	20.920312
1325.371569	-3.001400	3.531400	-10.598000	25.466412	0.000824	20.911856
1326.369016	-2.990800	3.531400	-10.561000	25.478370	0.000826	20.931449
1327.368898	-2.993600	3.530400	-10.568000	25.485736	0.000823	20.923199
1328.370308	-3.031000	3.529200	-10.695000	25.516005	0.000822	20.929414
1329.370073	-2.993000	3.531000	-10.567000	25.509919	0.000822	20.945585
1330.371412	-3.007000	3.529300	-10.610000	25.515138	0.000821	20.943714
1331.371241	-3.010900	3.529800	-10.626000	25.509524	0.000821	20.938551
1332.371311	-2.981500	3.528600	-10.520000	25.550180	0.000821	20.922957
1333.371635	-3.001100	3.528000	-10.587000	25.537416	0.000820	20.925312
1334.372769	-3.004400	3.528700	-10.600000	25.524375	0.000819	20.954412
1335.371483	-2.983700	3.527400	-10.523000	25.497951	0.000820	20.942576
1336.371299	-2.993600	3.527100	-10.557000	25.472008	0.000819	20.944024
1337.372670	-3.001000	3.528400	-10.586000	25.486988	0.000819	20.921613
1338.372006	-2.985600	3.528200	-10.532000	25.528307	0.000817	20.943663
1339.372282	-2.993500	3.527200	-10.557000	25.546634	0.000818	20.931724
1340.374270	-2.992300	3.527900	-10.556000	25.558601	0.000817	20.960333
1341.370546	-2.996500	3.524800	-10.561000	25.609401	0.000816	20.959669
1342.371602	-3.004000	3.525000	-10.588000	25.629368	0.000817	20.967867
1343.373944	-3.023400	3.524800	-10.655000	25.657350	0.000815	20.944766
1344.373805	-3.013400	3.524200	-10.619000	25.682868	0.000815	20.966126
1345.374461	-3.010100	3.523600	-10.605000	25.694696	0.000814	20.943395
1346.375907	-3.003100	3.524200	-10.581000	25.690807	0.000812	20.975047
1347.373857	-2.992100	3.525800	-10.548000	25.688825	0.000813	20.947930
1348.375127	-3.010500	3.522800	-10.604000	25.706498	0.000813	20.958566
1349.374784	-2.999200	3.523000	-10.565000	25.715888	0.000812	20.943818
1350.374722	-2.985800	3.523100	-10.517000	25.720377	0.000810	20.960179
1351.375429	-2.983000	3.524200	-10.510000	25.728058	0.000812	20.961256
1352.376900	-3.006600	3.521100	-10.586000	25.754940	0.000808	20.945585
1353.380379	-3.009800	3.521400	-10.598000	25.761558	0.000810	20.961713
1354.378357	-3.010200	3.521300	-10.599000	25.763128	0.000810	20.939112
1355.378290	-3.004900	3.520700	-10.577000	25.790824	0.000807	20.962662
1356.378942	-3.011600	3.521100	-10.603000	25.797150	0.000808	20.941992
1357.380933	-3.002900	3.521400	-10.573000	25.793236	0.000809	20.965084
1358.379538	-2.999900	3.521200	-10.562000	25.790404	0.000807	20.966980
1359.380445	-3.008900	3.518400	-10.584000	25.824116	0.000807	20.951535
1360.382199	-2.979900	3.520400	-10.489000	25.797278	0.000805	20.971988
1361.379170	-3.003600	3.518800	-10.567000	25.781839	0.000808	20.955534
1362.380586	-2.991600	3.520400	-10.530000	25.700672	0.000805	20.966464
1363.381472	-2.999100	3.518300	-10.550000	25.678458	0.000806	20.968808
1364.380527	-3.002500	3.517300	-10.560000	25.637155	0.000804	20.980428
1365.381429	-3.003800	3.518300	-10.566000	25.667799	0.000804	20.942933
1366.381296	-3.011300	3.516600	-10.588000	25.686785	0.000803	20.975748
1367.381438	-3.018400	3.517700	-10.617000	25.680545	0.000805	20.975645
1368.381490	-3.021800	3.516400	-10.625000	25.679283	0.000802	20.979592
1369.380918	-3.020500	3.515700	-10.618000	25.671283	0.000803	20.969188
1370.381521	-3.007600	3.515600	-10.572000	25.606117	0.000803	20.978180
1371.383708	-3.016100	3.517000	-10.605000	25.583250	0.000802	21.001203
1372.382256	-3.013400	3.516000	-10.594000	25.578657	0.000800	20.965302
1373.383928	-3.014500	3.515600	-10.596000	25.549549	0.000801	20.972577
1374.382593	-3.012500	3.514500	-10.586000	25.568254	0.000800	20.958174
1375.384108	-2.987000	3.515200	-10.499000	25.574838	0.000799	20.992282
1376.383462	-3.016800	3.514200	-10.600000	25.585379	0.000799	20.982482
1377.382749	-2.991900	3.514200	-10.513000	25.570701	0.000798	20.986232
1378.384043	-2.988500	3.514000	-10.500000	25.600419	0.000797	20.980043
1379.384780	-2.979500	3.514400	-10.470000	25.584152	0.000798	20.994998
1380.386641	-3.011200	3.512600	-10.576000	25.568058	0.000798	20.995904
1381.387160	-2.996600	3.513100	-10.527000	25.549224	0.000796	20.966562
1382.388424	-3.008900	3.512100	-10.566000	25.553370	0.000797	20.988741
1383.389436	-2.980600	3.511700	-10.465000	25.553242	0.000795	20.973915
1384.388040	-2.983700	3.511400	-10.476000	25.586789	0.000795	20.988163
1385.388094	-2.965900	3.513000	-10.417000	25.608403	0.000795	20.989008
1386.390437	-3.007600	3.512100	-10.562000	25.664429	0.000794	20.983165
1387.390896	-3.010400	3.510100	-10.565000	25.675055	0.000794	20.988147
1388.389575	-2.986400	3.510800	-10.484000	25.682866	0.000794	20.970864
1389.389398	-2.994900	3.510100	-10.510000	25.709543	0.000794	20.974425
1390.391034	-3.004700	3.508300	-10.540000	25.700291	0.000793	20.986941
1391.390589	-2.990700	3.509300	-10.495000	25.678052	0.000791	20.976459
1392.390157	-3.013800	3.508400	-10.571000	25.666310	0.000792	20.952816
1393.391877	-2.984500	3.509500	-10.474000	25.653949	0.000790	20.980700
1394.391021	-2.995600	3.508800	-10.509000	25.627271	0.000789	20.964814
1395.392388	-3.014600	3.505900	-10.568000	25.642799	0.000791	20.967607
1396.393822	-3.010700	3.506200	-10.555000	25.665125	0.000791	20.969167
1397.390945	-3.007600	3.507000	-10.547000	25.697124	0.000788	20.977598
1398.391856	-3.008800	3.507100	-10.551000	25.694112	0.000788	20.964617
1399.393109	-3.002600	3.506200	-10.527000	25.714754	0.000787	20.956902
1400.392737	-3.006700	3.505900	-10.540000	25.714754	0.000788	20.957850
1401.391979	-3.008600	3.505300	-10.546000	25.685778	0.000787	20.960040
1402.391953	-2.998000	3.504800	-10.506000	25.653461	0.000786	20.939438
1403.393962	-3.001900	3.505900	-10.523000	25.600405	0.000788	20.960592
1404.395988	-3.015000	3.505000	-10.566000	25.608466	0.000788	20.919855
1405.395020	-2.989300	3.505100	-10.477000	25.616329	0.000787	20.935810
1406.395761	-3.007300	3.503400	-10.535000	25.597762	0.000784	20.947981
1407.395837	-3.014200	3.502500	-10.556000	25.609436	0.000786	20.928889
1408.395962	-2.995500	3.503000	-10.492000	25.608707	0.000783	20.943327
1409.395950	-2.959300	3.502900	-10.364000	25.583890	0.000783	20.941163
1410.397938	-2.991400	3.501700	-10.474000	25.571358	0.000782	20.938061
1411.397575	-2.979200	3.501100	-10.429000	25.569444	0.000782	20.938509
1412.396891	-3.018300	3.499700	-10.562000	25.541973	0.000782	20.951697
1413.398396	-2.988900	3.501700	-10.466000	25.513577	0.000782	20.933139
1414.401509	-2.990400	3.500900	-10.467000	25.521998	0.000781	20.919787
1415.399204	-3.001900	3.501000	-10.509000	25.531364	0.000781	20.935355
1416.403949	-2.992900	3.500800	-10.477000	25.601583	0.000779	20.920528
1417.407477	-3.007800	3.499300	-10.523000	25.623532	0.000781	20.916968
1418.399016	-2.984100	3.500100	-10.443000	25.625738	0.000779	20.933407
1419.402450	-2.998100	3.500000	-10.493000	25.611790	0.000778	20.935993
1420.403740	-3.008900	3.498400	-10.524000	25.581712	0.000778	20.928072
1421.399453	-2.987200	3.499300	-10.450000	25.584227	0.000780	20.923486
1422.404649	-3.004700	3.498500	-10.510000	25.567523	0.000776	20.920935
1423.399230	-2.999800	3.498200	-10.493000	25.581077	0.000777	20.925063
1424.398777	-2.996100	3.498400	-10.481000	25.574373	0.000777	20.931132
1425.403237	-2.995300	3.497800	-10.476000	25.571463	0.000777	20.923469
1426.400865	-2.995700	3.497600	-10.477000	25.537967	0.000776	20.910694
1427.401259	-2.986100	3.496800	-10.439000	25.586992	0.000774	20.917254
1428.404666	-3.000600	3.495500	-10.486000	25.585164	0.000775	20.914471
1429.400612	-3.006900	3.494500	-10.506000	25.615078	0.000773	20.922228
1430.401272	-2.976400	3.496500	-10.407000	25.593508	0.000775	20.895826
1431.403488	-3.007600	3.496200	-10.514000	25.579962	0.000773	20.905927
1432.401346	-3.031500	3.492800	-10.586000	25.549488	0.000774	20.901402
1433.400717	-2.999300	3.494900	-10.481000	25.534492	0.000770	20.906256
1434.404629	-2.986900	3.494200	-10.435000	25.539332	0.000772	20.917754
1435.403323	-3.021400	3.491400	-10.548000	25.523289	0.000771	20.903066
1436.404041	-3.020200	3.492900	-10.549000	25.545669	0.000770	20.911791
1437.407198	-3.009500	3.493200	-10.512000	25.541712	0.000768	20.897861
1438.404365	-3.000400	3.492900	-10.479000	25.553275	0.000768	20.913264
1439.404776	-3.006300	3.493100	-10.500000	25.526998	0.000769	20.923385
1440.408526	-3.022700	3.489900	-10.548000	25.538828	0.000769	20.897335
1441.405457	-3.017200	3.491200	-10.532000	25.560392	0.000768	20.915670
1442.406402	-3.002500	3.491100	-10.481000	25.589028	0.000767	20.893223
1443.407784	-2.999400	3.490300	-10.467000	25.619243	0.000767	20.898438
1444.410057	-3.018400	3.490900	-10.536000	25.644583	0.000767	20.912032
1445.405604	-3.012800	3.491200	-10.517000	25.633622	0.000766	20.904817
1446.405821	-3.017600	3.490200	-10.531000	25.614214	0.000767	20.916618
1447.407702	-3.004500	3.490100	-10.485000	25.631046	0.000767	20.915032
1448.405466	-3.013700	3.488400	-10.513000	25.658376	0.000767	20.896964
1449.409505	-2.999900	3.488500	-10.464000	25.652737	0.000768	20.903153
1450.408584	-2.994200	3.488600	-10.445000	25.673827	0.000764	20.899680
1451.407690	-3.001800	3.487000	-10.466000	25.671260	0.000765	20.898999
1452.407928	-3.004400	3.488300	-10.479000	25.669388	0.000764	20.911816
1453.407747	-2.991200	3.487200	-10.430000	25.648934	0.000763	20.895068
1454.408067	-2.985500	3.487800	-10.412000	25.649904	0.000762	20.889878
1455.407027	-2.979400	3.486600	-10.387000	25.649904	0.000762	20.892723
1456.406412	-2.982500	3.487500	-10.401000	25.630959	0.000763	20.894558
1457.406158	-3.008700	3.483900	-10.481000	25.654856	0.000764	20.892007
1458.406440	-3.021500	3.484900	-10.529000	25.647432	0.000761	20.875542
1459.410030	-2.994200	3.484800	-10.433000	25.628763	0.000759	20.900886
1460.408107	-2.998600	3.484800	-10.449000	25.633724	0.000758	20.903972
1461.405335	-3.018900	3.483300	-10.514000	25.647364	0.000759	20.893490
1462.409098	-3.003600	3.484100	-10.463000	25.656427	0.000759	20.890740
1463.409064	-2.998400	3.484100	-10.446000	25.703584	0.000757	20.900170
1464.408940	-2.972900	3.484200	-10.356000	25.692495	0.000758	20.890930
1465.412140	-2.971200	3.484700	-10.352000	25.715806	0.000758	20.888740
1466.410899	-3.003100	3.482000	-10.455000	25.722158	0.000757	20.873310
1467.410569	-2.982400	3.481900	-10.383000	25.682607	0.000756	20.879577
1468.410173	-2.990500	3.481300	-10.411000	25.649063	0.000755	20.897093
1469.412564	-2.990000	3.481700	-10.409000	25.650418	0.000754	20.884231
1470.410565	-3.008400	3.481400	-10.472000	25.644050	0.000754	20.911023
1471.411682	-3.006400	3.479400	-10.460000	25.636101	0.000754	20.881231
1472.409885	-3.013700	3.480000	-10.487000	25.649432	0.000754	20.883715
1473.412860	-3.008300	3.479100	-10.465000	25.633921	0.000752	20.903695
1474.412414	-3.013000	3.478800	-10.480000	25.636255	0.000752	20.887550
1475.412034	-3.012100	3.480000	-10.480000	25.673371	0.000750	20.874568
1476.411878	-3.006700	3.478600	-10.457000	25.669748	0.000752	20.887524
1477.414841	-3.022300	3.478000	-10.511000	25.702322	0.000751	20.884205
1478.415838	-3.016400	3.477400	-10.488000	25.666521	0.000751	20.880964
1479.413324	-3.009800	3.477100	-10.464000	25.627947	0.000750	20.897696
1480.416937	-2.998700	3.475300	-10.420000	25.612204	0.000751	20.874774
1481.415220	-2.999400	3.477200	-10.428000	25.567378	0.000748	20.884757
1482.415748	-3.010600	3.476100	-10.464000	25.574203	0.000749	20.890662
1483.418242	-3.007500	3.475900	-10.453000	25.571421	0.000749	20.877913
1484.418610	-3.019000	3.475300	-10.491000	25.633063	0.000750	20.887188
1485.415789	-3.039100	3.474800	-10.559000	25.670641	0.000748	20.871352
1486.422548	-3.000000	3.475200	-10.425000	25.651070	0.000748	20.873033
1487.417558	-2.999700	3.474700	-10.422000	25.641397	0.000749	20.870904
1488.416514	-2.989700	3.474900	-10.388000	25.650229	0.000746	20.873610
1489.424370	-2.999600	3.473500	-10.418000	25.635141	0.000746	20.889749
1490.418545	-2.987000	3.475500	-10.379000	25.640350	0.000745	20.881705
1491.418005	-2.980200	3.474000	-10.352000	25.697267	0.000746	20.882447
1492.419901	-2.988800	3.472700	-10.377000	25.714554	0.000745	20.876103
1493.419004	-2.993800	3.471400	-10.391000	25.731204	0.000744	20.887611
1494.423270	-3.002700	3.473000	-10.428000	25.712527	0.000743	20.877387
1495.423812	-2.998100	3.472400	-10.409000	25.706914	0.000744	20.885498
1496.421953	-3.027400	3.471100	-10.506000	25.671672	0.000740	20.879499
1497.420748	-3.000900	3.471600	-10.417000	25.649596	0.000742	20.881508
1498.422992	-3.005200	3.469300	-10.425000	25.644454	0.000742	20.872552
1499.422221	-3.000700	3.470500	-10.413000	25.636445	0.000740	20.849810
1500.422892	-3.023300	3.467300	-10.482000	25.623252	0.000740	20.866430
1501.423038	-3.006500	3.469200	-10.429000	25.633140	0.000740	20.871146
1502.425549	-3.001600	3.469700	-10.413000	25.630558	0.000739	20.876138
1503.424325	-3.014300	3.468500	-10.453000	25.654985	0.000739	20.887869
1504.423334	-3.021500	3.468300	-10.478000	25.677183	0.000739	20.878396
1505.423335	-2.991400	3.469000	-10.376000	25.677680	0.000739	20.889327
1506.423356	-3.004500	3.466200	-10.413000	25.718494	0.000739	20.878164
1507.422934	-2.994300	3.469000	-10.385000	25.718648	0.000737	20.885905
1508.423954	-2.999900	3.467300	-10.401000	25.722726	0.000739	20.864872
1509.423098	-2.998200	3.466400	-10.392000	25.745770	0.000737	20.874742
1510.422650	-2.996400	3.467500	-10.389000	25.730844	0.000736	20.862595
1511.424557	-2.983300	3.466300	-10.339000	25.695911	0.000735	20.898154
1512.422709	-3.014200	3.466000	-10.446000	25.706743	0.000737	20.889594
1513.424157	-2.998900	3.464400	-10.388000	25.699097	0.000735	20.860105
1514.422889	-3.000500	3.465700	-10.398000	25.712546	0.000736	20.870768
1515.423474	-3.019000	3.463700	-10.455000	25.715276	0.000736	20.882992
1516.423544	-2.994700	3.466000	-10.377000	25.707482	0.000733	20.885121
1517.422824	-3.021700	3.463100	-10.463000	25.705542	0.000733	20.860889
1518.423765	-2.997900	3.463800	-10.382000	25.645074	0.000733	20.852312
1519.424471	-2.985700	3.465200	-10.345000	25.638060	0.000731	20.862337
1520.424309	-3.006900	3.461400	-10.406000	25.660171	0.000731	20.851829
1521.422680	-2.986000	3.462900	-10.339000	25.680239	0.000731	20.862501
1522.423799	-2.999800	3.460600	-10.380000	25.717395	0.000732	20.860940
1523.423091	-2.980200	3.463100	-10.320000	25.730099	0.000730	20.848571
1524.424593	-2.990700	3.463200	-10.356000	25.741428	0.000732	20.866588
1525.426088	-3.000500	3.461700	-10.385000	25.754200	0.000730	20.851441
1526.428643	-3.005400	3.460800	-10.400000	25.790418	0.000730	20.862691
1527.423614	-3.008500	3.459400	-10.407000	25.779150	0.000730	20.853744
1528.424818	-2.998100	3.459800	-10.372000	25.745523	0.000730	20.889665
1529.427605	-3.008500	3.459800	-10.407000	25.746785	0.000728	20.877657
1530.425594	-3.002900	3.458900	-10.386000	25.718590	0.000727	20.854554
1531.425070	-3.008400	3.459000	-10.405000	25.714942	0.000729	20.840459
1532.434743	-3.020300	3.457100	-10.440000	25.749514	0.000729	20.870442
1533.426789	-3.010500	3.458500	-10.411000	25.765117	0.000729	20.887536
1534.426002	-2.983400	3.457500	-10.314000	25.802983	0.000730	20.855399
1535.436404	-2.992500	3.458600	-10.349000	25.809412	0.000726	20.871813
1536.428376	-3.021300	3.455500	-10.439000	25.829005	0.000725	20.845503
1537.426665	-2.988800	3.457000	-10.331000	25.809806	0.000725	20.868416
1538.428513	-2.987000	3.456800	-10.323000	25.821479	0.000726	20.860701
1539.427052	-3.020200	3.454200	-10.431000	25.812459	0.000726	20.868236
1540.433544	-3.003800	3.455300	-10.378000	25.780823	0.000724	20.864907
1541.429677	-3.002200	3.453700	-10.367000	25.779057	0.000725	20.876408
1542.427139	-3.017200	3.454600	-10.421000	25.766225	0.000723	20.843133
1543.428876	-2.989300	3.454100	-10.324000	25.801567	0.000723	20.838330
1544.432739	-3.000000	3.453300	-10.359000	25.804383	0.000723	20.852064
1545.429469	-3.000800	3.454200	-10.364000	25.827220	0.000722	20.865520
1546.428237	-3.020000	3.451900	-10.423000	25.837578	0.000721	20.844632
1547.433303	-2.978600	3.453800	-10.287000	25.855361	0.000722	20.863443
1548.430150	-3.029100	3.452300	-10.456000	25.826439	0.000721	20.833443
1549.430053	-3.011100	3.451800	-10.393000	25.830954	0.000721	20.852202
1550.433240	-3.017900	3.450200	-10.412000	25.810099	0.000719	20.834098
1551.428922	-2.992000	3.451300	-10.326000	25.783536	0.000719	20.843452
1552.429484	-3.029200	3.449900	-10.450000	25.771633	0.000718	20.836711
1553.433805	-3.013800	3.450800	-10.399000	25.742761	0.000722	20.857021
1554.434769	-3.009300	3.449600	-10.380000	25.733011	0.000717	20.842487
1555.431581	-2.990300	3.450400	-10.317000	25.732684	0.000718	20.864443
1556.435345	-2.983600	3.450400	-10.293000	25.758733	0.000715	20.845090
1557.430908	-3.009400	3.449100	-10.379000	25.741971	0.000716	20.861917
1558.430242	-3.016300	3.447700	-10.398000	25.824818	0.000715	20.833237
1559.432179	-2.999800	3.447700	-10.341000	25.830456	0.000715	20.849332
1560.430844	-2.991100	3.446900	-10.309000	25.875271	0.000714	20.838875
1561.433715	-2.992000	3.448600	-10.317000	25.880643	0.000713	20.863710
1562.435751	-3.000000	3.448100	-10.343000	25.895438	0.000714	20.841116
1563.432507	-3.013400	3.447400	-10.387000	25.880797	0.000711	20.855331
1564.433768	-2.982500	3.447900	-10.283000	25.868827	0.000712	20.835720
1565.436870	-2.981700	3.446700	-10.276000	25.811688	0.000710	20.828108
1566.433260	-3.014800	3.445400	-10.386000	25.826372	0.000710	20.845703
1567.433578	-2.978600	3.445900	-10.263000	25.771401	0.000709	20.830314
1568.437488	-3.009800	3.444800	-10.367000	25.797132	0.000712	20.832453
1569.433666	-3.014400	3.443600	-10.380000	25.765583	0.000711	20.835375
1570.435862	-3.003500	3.444600	-10.344000	25.763325	0.000709	20.835952
1571.438550	-3.006800	3.444100	-10.355000	25.784490	0.000711	20.848203
1572.437038	-2.990000	3.442200	-10.290000	25.764587	0.000707	20.841961
1573.436934	-2.998600	3.443100	-10.323000	25.759077	0.000708	20.847332
1574.441346	-2.994200	3.441400	-10.304000	25.690165	0.000706	20.848289
1575.437423	-2.996100	3.442800	-10.314000	25.680724	0.000707	20.834540
1576.437587	-3.022300	3.441200	-10.400000	25.653789	0.000707	20.814600
1577.442206	-3.026500	3.440900	-10.413000	25.635515	0.000706	20.818057
1578.438270	-3.046800	3.439800	-10.480000	25.685891	0.000706	20.834514
1579.439284	-2.995600	3.441400	-10.308000	25.683119	0.000704	20.831730
1580.441189	-2.999000	3.440600	-10.317000	25.683652	0.000703	20.830843
1581.438957	-2.978900	3.440700	-10.249000	25.667550	0.000702	20.835533
1582.438790	-3.000400	3.439200	-10.318000	25.652443	0.000705	20.822257
1583.439137	-2.986900	3.440400	-10.275000	25.626529	0.000703	20.851231
1584.439416	-2.991000	3.438200	-10.282000	25.594795	0.000702	20.849231
1585.439014	-2.993300	3.438300	-10.291000	25.650632	0.000702	20.833714
1586.441182	-2.995800	3.439500	-10.303000	25.659113	0.000702	20.826585
1587.441242	-2.997400	3.438900	-10.306000	25.683164	0.000703	20.819921
1588.439930	-3.004500	3.437700	-10.327000	25.720072	0.000700	20.831862
1589.443592	-2.995400	3.437800	-10.297000	25.730252	0.000701	20.837345
1590.441023	-3.001300	3.437200	-10.315000	25.770402	0.000701	20.826940
1591.439905	-2.999300	3.436700	-10.307000	25.791454	0.000700	20.815370
1592.442561	-3.019000	3.437400	-10.376000	25.807512	0.000700	20.826759
1593.439968	-2.995800	3.436200	-10.293000	25.819262	0.000700	20.810112
1594.439281	-3.021400	3.434300	-10.376000	25.847265	0.000698	20.831129
1595.441172	-3.005900	3.435800	-10.327000	25.852646	0.000700	20.834165
1596.440968	-2.974600	3.434500	-10.215000	25.862060	0.000699	20.814699
1597.439067	-3.005500	3.435000	-10.323000	25.844458	0.000697	20.810767
1598.442360	-2.997400	3.435500	-10.297000	25.804028	0.000698	20.822785
1599.443259	-2.999300	3.434000	-10.299000	25.792468	0.000696	20.820182
1600.440307	-3.011500	3.432000	-10.335000	25.746963	0.000695	20.819992
1601.443401	-3.016400	3.432500	-10.352000	25.730056	0.000695	20.818656
1602.445467	-3.004800	3.432200	-10.312000	25.691002	0.000695	20.818785
1603.439776	-2.990100	3.434400	-10.268000	25.730287	0.000695	20.843070
1604.443368	-3.001100	3.431800	-10.299000	25.760919	0.000696	20.816941
1605.441253	-2.978000	3.431200	-10.217000	25.788503	0.000696	20.806716
1606.441705	-2.983600	3.431600	-10.237000	25.799292	0.000694	20.811863
1607.443005	-3.001900	3.431200	-10.299000	25.781319	0.000692	20.808983
1608.443128	-2.991400	3.431100	-10.263000	25.804295	0.000693	20.818311
1609.441457	-2.999500	3.430700	-10.289000	25.840203	0.000691	20.821192
1610.442213	-3.033200	3.428600	-10.399000	25.806347	0.000693	20.837915
1611.441670	-3.004400	3.428500	-10.300000	25.846150	0.000690	20.812467
1612.443297	-3.003000	3.429600	-10.298000	25.867708	0.000693	20.809941
1613.442729	-3.005800	3.429200	-10.307000	25.846648	0.000691	20.812493
1614.443716	-3.011300	3.429100	-10.325000	25.831759	0.000691	20.798484
1615.443177	-2.992700	3.428600	-10.260000	25.795121	0.000688	20.811467
1616.443561	-3.000100	3.427200	-10.281000	25.775372	0.000689	20.817708
1617.443118	-2.991200	3.429400	-10.256000	25.747290	0.000689	20.819372
1618.443929	-3.009500	3.426200	-10.309000	25.705913	0.000690	20.803416
1619.444491	-3.004800	3.426800	-10.296000	25.684249	0.000688	20.807261
1620.445210	-3.006200	3.426400	-10.300000	25.651803	0.000687	20.797907
1621.446252	-3.003800	3.425000	-10.287000	25.672145	0.000687	20.796526
1622.445186	-2.966600	3.427100	-10.164000	25.677501	0.000686	20.811389
1623.445653	-2.989600	3.425100	-10.239000	25.676609	0.000685	20.798165
1624.445165	-2.972400	3.426200	-10.183000	25.652901	0.000684	20.771509
1625.445693	-2.998000	3.424400	-10.264000	25.680247	0.000684	20.799923
1626.446114	-2.992300	3.424300	-10.246000	25.674428	0.000686	20.795501
1627.452160	-3.008000	3.422500	-10.294000	25.664309	0.000684	20.789604
1628.446046	-2.988400	3.423300	-10.229000	25.658901	0.000684	20.775163
1629.444829	-2.995300	3.422500	-10.250000	25.669990	0.000682	20.787250
1630.446947	-3.000800	3.422200	-10.268000	25.707534	0.000684	20.772802
1631.446727	-3.011800	3.420900	-10.302000	25.746937	0.000684	20.799578
1632.446384	-3.006400	3.421600	-10.286000	25.776153	0.000681	20.794310
1633.446362	-2.999400	3.421600	-10.260000	25.823064	0.000681	20.789275
1634.446622	-2.988300	3.421600	-10.224000	25.839671	0.000681	20.802639
1635.447368	-3.004800	3.421300	-10.278000	25.872779	0.000680	20.807448
1636.446227	-2.992200	3.419400	-10.230000	25.883849	0.000681	20.770206
1637.446272	-2.986800	3.419900	-10.214000	25.900883	0.000679	20.818612
1638.451741	-2.995700	3.420500	-10.246000	25.894182	0.000679	20.814725
1639.449642	-2.979000	3.421100	-10.190000	25.873215	0.000678	20.796507
1640.446995	-2.999300	3.420100	-10.257000	25.884303	0.000679	20.802904
1641.449313	-2.998200	3.419200	-10.250000	25.878896	0.000677	20.802688
1642.451030	-2.998400	3.418900	-10.250000	25.886826	0.000677	20.797852
1643.449796	-3.001300	3.418400	-10.259000	25.915059	0.000677	20.807723
1644.449785	-3.026700	3.416500	-10.339000	25.917839	0.000676	20.783963
1645.450345	-3.001800	3.417800	-10.258000	25.932624	0.000676	20.793601
1646.447618	-2.997800	3.417800	-10.245000	25.904717	0.000675	20.802549
1647.450025	-2.985300	3.417300	-10.201000	25.885821	0.000676	20.784989
1648.450059	-3.000700	3.416600	-10.251000	25.881753	0.000675	20.795127
1649.449641	-3.019000	3.415300	-10.310000	25.877823	0.000673	20.786911
1650.450145	-2.982600	3.415800	-10.187000	25.915332	0.000673	20.786660
1651.451870	-2.983100	3.417700	-10.193000	25.899551	0.000673	20.776022
1652.450428	-2.973900	3.415200	-10.155000	25.942054	0.000674	20.825360
1653.451746	-3.001400	3.413900	-10.245000	25.898915	0.000672	20.804307
1654.452240	-2.988900	3.413500	-10.201000	25.854496	0.000673	20.780074
1655.449656	-2.993200	3.413200	-10.215000	25.832543	0.000671	20.783625
1656.455201	-3.003900	3.414500	-10.255000	25.815284	0.000672	20.798056
1657.456710	-2.996000	3.413100	-10.224000	25.778286	0.000672	20.766581
1658.450622	-3.005600	3.412300	-10.255000	25.750692	0.000672	20.787228
1659.451983	-2.975800	3.413300	-10.157000	25.728033	0.000669	20.794815
1660.453675	-2.979500	3.411700	-10.164000	25.683823	0.000671	20.794505
1661.451529	-2.987300	3.413400	-10.195000	25.662646	0.000669	20.797892
1662.454491	-3.011800	3.410200	-10.270000	25.681813	0.000668	20.813823
1663.452568	-2.979700	3.411000	-10.162000	25.718609	0.000667	20.802417
1664.452122	-2.970800	3.411600	-10.134000	25.708592	0.000668	20.800417
1665.460194	-2.996200	3.410900	-10.219000	25.732796	0.000668	20.805762
1666.455637	-2.996700	3.409200	-10.215000	25.770277	0.000667	20.821599
1667.454578	-2.985500	3.410400	-10.181000	25.795999	0.000667	20.793857
1668.456382	-2.998600	3.408600	-10.220000	25.763377	0.000665	20.784322
1669.455858	-3.000500	3.409600	-10.230000	25.746331	0.000666	20.782848
1670.455818	-2.993200	3.409500	-10.204000	25.749318	0.000666	20.807185
1671.456837	-3.008800	3.407300	-10.251000	25.718239	0.000666	20.798727
1672.454717	-3.021600	3.407600	-10.296000	25.757497	0.000664	20.789796
1673.456342	-2.981300	3.408900	-10.162000	25.756707	0.000663	20.783313
1674.456632	-2.980000	3.407600	-10.153000	25.761900	0.000663	20.810339
1675.455801	-3.002700	3.408300	-10.232000	25.770079	0.000661	20.802434
1676.455987	-2.993300	3.406700	-10.196000	25.791844	0.000663	20.797270
1677.457714	-2.987400	3.406000	-10.175000	25.814809	0.000662	20.784303
1678.455001	-3.008900	3.405600	-10.245000	25.827031	0.000663	20.811278
1679.458050	-3.027600	3.405400	-10.309000	25.822869	0.000661	20.796192
1680.455835	-3.022900	3.405300	-10.292000	25.841894	0.000662	20.808191
1681.455144	-2.961700	3.406600	-10.088000	25.808175	0.000661	20.799450
1682.455910	-3.001200	3.404600	-10.217000	25.812963	0.000661	20.809475
1683.460415	-2.993600	3.404500	-10.190000	25.794117	0.000660	20.803347
1684.454577	-3.016100	3.403400	-10.264000	25.814148	0.000658	20.781742
1685.454562	-2.999200	3.403500	-10.207000	25.799618	0.000659	20.796544
1686.456939	-2.999600	3.402900	-10.206000	25.814113	0.000658	20.802570
1687.455653	-2.979000	3.404200	-10.140000	25.853650	0.000658	20.810992
1688.456760	-3.006800	3.402400	-10.230000	25.856148	0.000656	20.795009
1689.460784	-3.013100	3.401800	-10.249000	25.821553	0.000657	20.811466
1690.457867	-3.004100	3.402100	-10.219000	25.800123	0.000658	20.825500
1691.458468	-2.991100	3.401900	-10.174000	25.826659	0.000654	20.812801
1692.461109	-3.002300	3.400900	-10.210000	25.799076	0.000655	20.816862
1693.460236	-3.008600	3.400800	-10.231000	25.830194	0.000654	20.802128
1694.460945	-2.989500	3.400700	-10.165000	25.827629	0.000655	20.793861
1695.463978	-3.005200	3.398500	-10.212000	25.846612	0.000653	20.812930
1696.460012	-2.992100	3.398700	-10.169000	25.807656	0.000652	20.832593
1697.459463	-3.000200	3.398700	-10.195000	25.787343	0.000653	20.835422
1698.463606	-3.004500	3.398700	-10.210000	25.758651	0.000653	20.840740
1699.462412	-3.000500	3.399600	-10.198000	25.745681	0.000653	20.813963
1700.461718	-2.994300	3.399200	-10.176000	25.739124	0.000653	20.841041
1701.473015	-2.994200	3.397900	-10.173000	25.789006	0.000651	20.817653
1702.462478	-3.033300	3.396400	-10.301000	25.802506	0.000651	20.809402
1703.461637	-2.985700	3.398300	-10.145000	25.820674	0.000651	20.811057
1704.465728	-2.994700	3.397200	-10.172000	25.815421	0.000651	20.813841
1705.462198	-3.015500	3.396900	-10.242000	25.775729	0.000650	20.810480
1706.462288	-3.010500	3.396400	-10.223000	25.768819	0.000650	20.824401
1707.466577	-3.010900	3.395600	-10.222000	25.781881	0.000647	20.829462
1708.465259	-2.990800	3.395500	-10.153000	25.840018	0.000649	20.795401
1709.464664	-2.994800	3.394100	-10.164000	25.866604	0.000647	20.813099
1710.465390	-3.031600	3.394100	-10.288000	25.908113	0.000648	20.830617
1711.465036	-2.975200	3.395100	-10.100000	25.908216	0.000646	20.814125
1712.464636	-2.996200	3.395600	-10.173000	25.905083	0.000647	20.812400
1713.467366	-2.974600	3.395300	-10.099000	25.929892	0.000645	20.803658
1714.466196	-3.020200	3.393100	-10.247000	25.969322	0.000645	20.800598
1715.468937	-2.999800	3.392200	-10.175000	25.953215	0.000645	20.830408
1716.469979	-2.995100	3.392700	-10.161000	25.954271	0.000644	20.836210
1717.465558	-2.996900	3.391500	-10.163000	25.935331	0.000645	20.812916
1718.467181	-2.989500	3.391300	-10.137000	25.887446	0.000643	20.834036
1719.469544	-2.994300	3.392100	-10.156000	25.897118	0.000644	20.830476
1720.467749	-2.999000	3.391200	-10.169000	25.907398	0.000643	20.821838
1721.467168	-3.007700	3.390800	-10.198000	25.914366	0.000643	20.809872
1722.470381	-2.996700	3.390400	-10.159000	25.928053	0.000643	20.843061
1723.466187	-3.017700	3.390400	-10.230000	25.924217	0.000641	20.841104
1724.467073	-3.018500	3.389300	-10.229000	25.951016	0.000644	20.842897
1725.468904	-2.993400	3.390600	-10.149000	25.958051	0.000641	20.828628
1726.469582	-2.988600	3.390300	-10.131000	25.987733	0.000638	20.810559
1727.469960	-2.968100	3.391200	-10.064000	26.003608	0.000640	20.834095
1728.471483	-2.973400	3.389400	-10.077000	26.003805	0.000638	20.837611
1729.469496	-3.007900	3.387500	-10.188000	26.052310	0.000640	20.822810
1730.469038	-2.997900	3.387300	-10.154000	26.077158	0.000638	20.833076
1731.469508	-3.007600	3.386800	-10.185000	26.093331	0.000639	20.841266
1732.469294	-3.003300	3.386200	-10.169000	26.098994	0.000637	20.828938
1733.469629	-2.984000	3.388500	-10.110000	26.117973	0.000637	20.845162
1734.470787	-3.000800	3.387400	-10.164000	26.120204	0.000636	20.834128
1735.470985	-2.978100	3.388200	-10.089000	26.142315	0.000638	20.849706
1736.470009	-3.001000	3.386700	-10.163000	26.092327	0.000635	20.840731
1737.471352	-3.023100	3.385700	-10.235000	26.061807	0.000634	20.839463
1738.469921	-2.999800	3.385900	-10.157000	26.041842	0.000636	20.857809
1739.470609	-3.007100	3.384900	-10.178000	26.069547	0.000636	20.843920
1740.471837	-3.016600	3.383900	-10.207000	26.027983	0.000633	20.823497
1741.471536	-3.020900	3.384000	-10.221000	26.070619	0.000632	20.849739
1742.472135	-3.006700	3.384100	-10.174000	26.054918	0.000632	20.860989
1743.472930	-3.013700	3.383500	-10.196000	26.079714	0.000633	20.847498
1744.472865	-3.001400	3.384700	-10.158000	26.100349	0.000634	20.844524
1745.473134	-3.006200	3.383500	-10.170000	26.102674	0.000632	20.819359
1746.474052	-2.997200	3.381900	-10.135000	26.097114	0.000631	20.858342
1747.473550	-3.012500	3.382100	-10.187000	26.101319	0.000631	20.817049
1748.472620	-2.998100	3.382900	-10.142000	26.070911	0.000630	20.835809
1749.474660	-3.007700	3.381700	-10.170000	26.079062	0.000631	20.847317
1750.473758	-3.020700	3.380000	-10.209000	26.071065	0.000628	20.854929
1751.474002	-3.018700	3.379900	-10.202000	26.047152	0.000629	20.848920
1752.475302	-3.008900	3.379800	-10.169000	26.001263	0.000627	20.848333
1753.474549	-3.006000	3.380500	-10.160000	25.985062	0.000629	20.863350
1754.473831	-3.008100	3.380700	-10.168000	25.988941	0.000627	20.848282
1755.475934	-3.011300	3.380000	-10.177000	26.010152	0.000627	20.855842
1756.475065	-3.003700	3.379600	-10.151000	26.015764	0.000628	20.858161
1757.475282	-3.004500	3.378800	-10.150000	26.047409	0.000628	20.857238
1758.476566	-3.002300	3.379600	-10.146000	26.048867	0.000628	20.863918
1759.475543	-2.994200	3.378500	-10.116000	26.077422	0.000626	20.858945
1760.477527	-3.024000	3.377600	-10.213000	26.094626	0.000625	20.854419
1761.480478	-3.017800	3.377900	-10.193000	26.080469	0.000625	20.875755
1762.479389	-3.003600	3.377600	-10.144000	26.040699	0.000623	20.869937
1763.477614	-2.987400	3.377500	-10.089000	26.006428	0.000623	20.880074
1764.479283	-3.001600	3.376800	-10.135000	25.988443	0.000622	20.856790
1765.479980	-3.022200	3.375200	-10.200000	25.973967	0.000623	20.869272
1766.480203	-2.985900	3.377600	-10.083000	26.004849	0.000623	20.879910
1767.481590	-3.006300	3.376400	-10.150000	26.025306	0.000623	20.862531
1768.480881	-3.027700	3.374900	-10.217000	26.023074	0.000621	20.856497
1769.479537	-2.990800	3.376300	-10.096000	25.997616	0.000620	20.885444
1770.481167	-3.016200	3.373900	-10.176000	25.994363	0.000621	20.861315
1771.481786	-3.008400	3.374400	-10.149000	26.035756	0.000618	20.872556
1772.482362	-3.011800	3.374200	-10.162000	26.039377	0.000620	20.874772
1773.484180	-3.007500	3.374100	-10.147000	26.065487	0.000619	20.886305
1774.483517	-2.984200	3.373400	-10.066000	26.066138	0.000619	20.893124
1775.484492	-2.985800	3.374100	-10.073000	26.118529	0.000619	20.859471
1776.497100	-2.999600	3.372600	-10.116000	26.168625	0.000617	20.879935
1777.483575	-2.991300	3.373200	-10.090000	26.185320	0.000617	20.902400
1778.483586	-3.004400	3.371300	-10.127000	26.175883	0.000617	20.865892
1779.487689	-2.988500	3.371700	-10.075000	26.183073	0.000617	20.888763
1780.484342	-3.013600	3.371800	-10.161000	26.172281	0.000617	20.880290
1781.484468	-3.021000	3.370100	-10.179000	26.138846	0.000614	20.882728
1782.490972	-3.004300	3.370000	-10.123000	26.132891	0.000614	20.887650
1783.484322	-3.010600	3.370200	-10.145000	26.125950	0.000613	20.863609
1784.485502	-3.009000	3.370200	-10.139000	26.154212	0.000614	20.858342
1785.486325	-2.972600	3.370900	-10.019000	26.148437	0.000614	20.870082
1786.488382	-2.990400	3.369300	-10.075000	26.119258	0.000613	20.906192
1787.487151	-2.984600	3.369100	-10.055000	26.087409	0.000614	20.908805
1788.487700	-2.998700	3.369900	-10.104000	26.060106	0.000611	20.902709
1789.488052	-2.996500	3.367700	-10.090000	26.047374	0.000612	20.882806
1790.487405	-3.008200	3.367000	-10.128000	26.068816	0.000611	20.901029
1791.488583	-3.008500	3.369300	-10.136000	26.055654	0.000612	20.887805
1792.489526	-2.994000	3.368400	-10.084000	26.045512	0.000610	20.888521
1793.489875	-2.975300	3.367700	-10.018000	26.014365	0.000609	20.886151
1794.489696	-2.974300	3.368100	-10.017000	26.033859	0.000610	20.900520
1795.489755	-3.004000	3.366300	-10.111000	26.027733	0.000609	20.912382
1796.489909	-2.995600	3.367400	-10.086000	26.000627	0.000608	20.906960
1797.489378	-2.967000	3.367500	-9.990700	25.997118	0.000607	20.893952
1798.490289	-3.005600	3.366400	-10.117000	26.000541	0.000607	20.897865
1799.491457	-3.017000	3.364000	-10.147000	26.028179	0.000608	20.910459
1800.491741	-3.009600	3.365200	-10.127000	26.050549	0.000607	20.911124
1801.492877	-3.003500	3.365500	-10.108000	26.064758	0.000606	20.896478
1802.492692	-3.014200	3.365800	-10.144000	26.048421	0.000606	20.906141
1803.492493	-3.013600	3.364400	-10.137000	26.007825	0.000606	20.900442
1804.492800	-3.003700	3.363900	-10.103000	26.001896	0.000605	20.893063
1805.492965	-3.005800	3.363800	-10.109000	25.997452	0.000605	20.921312
1806.493691	-2.983700	3.365400	-10.039000	26.005835	0.000604	20.907925
1807.493285	-3.008400	3.364100	-10.120000	26.020680	0.000604	20.915726
1808.497081	-2.999300	3.363800	-10.088000	26.015694	0.000603	20.907399
1809.493039	-3.000300	3.363800	-10.092000	26.025004	0.000602	20.912959
1810.494759	-3.016300	3.362700	-10.140000	26.004788	0.000601	20.900236
1811.493917	-3.018400	3.360800	-10.143000	26.006702	0.000601	20.922544
1812.493927	-3.009600	3.361500	-10.116000	26.042989	0.000600	20.922493
1813.498775	-2.997800	3.362800	-10.080000	26.047837	0.000601	20.906028
1814.497188	-3.002500	3.362300	-10.094000	26.067005	0.000599	20.910588
1815.493263	-3.026200	3.360400	-10.168000	26.048694	0.000598	20.914475
1816.494424	-3.036000	3.359300	-10.197000	26.044610	0.000599	20.903261
1817.496787	-3.014300	3.359600	-10.126000	26.035987	0.000599	20.929682
1818.492660	-3.003600	3.360800	-10.094000	26.073140	0.000599	20.920545
1819.498585	-3.019000	3.359100	-10.139000	26.094109	0.000596	20.930233
1820.496040	-2.997200	3.358300	-10.064000	26.122449	0.000598	20.907028
1821.501234	-3.019400	3.357900	-10.138000	26.111226	0.000597	20.902864
1822.498665	-2.985700	3.358100	-10.025000	26.107734	0.000597	20.934439
1823.499695	-3.006000	3.358100	-10.094000	26.079901	0.000596	20.931130
1824.497184	-2.997400	3.356800	-10.061000	26.087683	0.000595	20.914769
1825.500860	-3.016600	3.357200	-10.127000	26.093946	0.000596	20.944292
1826.500004	-2.986300	3.357800	-10.027000	26.122353	0.000595	20.940593
1827.498280	-3.010900	3.356500	-10.105000	26.114803	0.000593	20.917836
1828.501157	-2.988700	3.356900	-10.032000	26.086592	0.000592	20.930266
1829.502454	-2.977300	3.357200	-9.994500	26.094091	0.000593	20.918362
1830.497133	-3.006100	3.357100	-10.090000	26.097462	0.000593	20.933601
1831.501353	-3.000000	3.355500	-10.066000	26.076570	0.000592	20.924938
1832.503296	-2.995800	3.355000	-10.049000	26.065347	0.000590	20.944006
1833.498365	-2.993800	3.355200	-10.044000	26.099546	0.000591	20.952762
1834.501233	-2.970100	3.355600	-9.964800	26.115574	0.000592	20.959383
1835.502367	-2.989700	3.354000	-10.026000	26.152500	0.000590	20.938643
1836.497920	-2.987800	3.355000	-10.022000	26.176806	0.000590	20.922765
1837.501241	-3.007800	3.353400	-10.085000	26.194281	0.000591	20.955494
1838.506286	-2.988000	3.354700	-10.023000	26.199102	0.000589	20.937582
1839.497910	-3.001100	3.353100	-10.062000	26.145936	0.000588	20.932048
1840.501249	-3.014500	3.353600	-10.109000	26.150157	0.000590	20.952882
1841.501781	-2.988200	3.353400	-10.020000	26.075967	0.000589	20.933341
1842.502323	-3.013400	3.352900	-10.103000	26.081364	0.000588	20.946822
1843.501783	-3.005300	3.352300	-10.073000	26.061543	0.000585	20.944452
1844.500809	-2.996100	3.352500	-10.043000	26.090141	0.000589	20.951373
1845.499588	-2.993900	3.352100	-10.035000	26.101123	0.000585	20.952450
1846.501738	-3.019900	3.350500	-10.117000	26.100041	0.000584	20.959897
1847.507322	-3.009800	3.351400	-10.086000	26.096472	0.000586	20.947303
1848.499546	-3.001000	3.350000	-10.052000	26.085454	0.000584	20.954725
1849.504709	-2.994200	3.350800	-10.032000	26.085326	0.000585	20.969292
1850.506337	-2.981400	3.350500	-9.987800	26.087127	0.000583	20.961146
1851.500891	-3.000200	3.347900	-10.043000	26.119242	0.000583	20.960224
1852.501790	-3.006400	3.348900	-10.068000	26.151570	0.000582	20.957147
1853.505623	-3.007600	3.347400	-10.067000	26.201845	0.000582	20.972576
1854.501555	-2.988500	3.348100	-10.005000	26.194003	0.000583	20.958060
1855.505888	-2.982600	3.350300	-9.992100	26.200154	0.000582	20.950965
1856.504882	-3.002100	3.349000	-10.053000	26.210277	0.000580	20.963507
1857.504111	-2.976800	3.348200	-9.965300	26.215089	0.000583	20.964075
1858.503843	-2.995000	3.348200	-10.027000	26.210663	0.000579	20.965791
1859.505481	-3.018600	3.347100	-10.103000	26.233148	0.000578	20.977004
1860.503820	-3.016500	3.347000	-10.095000	26.241143	0.000581	20.984090
1861.507429	-3.011200	3.345200	-10.072000	26.237507	0.000577	20.963843
1862.509715	-3.009200	3.346100	-10.069000	26.217946	0.000578	20.970738
1863.508070	-3.013200	3.344800	-10.077000	26.231380	0.000578	20.984235
1864.506128	-3.002600	3.345200	-10.043000	26.205926	0.000578	20.979520
1865.507062	-2.982200	3.346200	-9.977900	26.193057	0.000575	20.977495
1866.503669	-2.988500	3.343900	-9.991700	26.197699	0.000574	20.979314
1867.507139	-3.008600	3.344100	-10.060000	26.187206	0.000577	20.969246
1868.506301	-2.998400	3.343100	-10.023000	26.192714	0.000575	20.974780
1869.505938	-3.019200	3.343300	-10.092000	26.225795	0.000575	20.977202
1870.505816	-2.980700	3.343400	-9.963500	26.238114	0.000574	20.980098
1871.506325	-3.001200	3.341500	-10.027000	26.228677	0.000573	20.981046
1872.507624	-2.995500	3.344500	-10.017000	26.248280	0.000574	20.997897
1873.506815	-3.004500	3.340900	-10.037000	26.254250	0.000571	20.976399
1874.505729	-2.992900	3.341700	-9.999100	26.262075	0.000572	20.978098
1875.506505	-2.998300	3.341000	-10.015000	26.262142	0.000573	21.007085
1876.506272	-3.001700	3.340700	-10.027000	26.298919	0.000571	20.989992
1877.505849	-2.982100	3.341000	-9.962900	26.273989	0.000570	20.961625
1878.506881	-2.988000	3.340500	-9.979800	26.224216	0.000570	20.977037
1879.507187	-2.999200	3.340200	-10.017000	26.235591	0.000571	20.987993
1880.506209	-2.989200	3.340200	-9.983900	26.271280	0.000569	20.976444
1881.506593	-2.975500	3.341500	-9.941100	26.247696	0.000567	20.994940
1882.507318	-2.989800	3.339500	-9.983100	26.272815	0.000569	20.966608
1883.506428	-2.978700	3.340300	-9.948500	26.252552	0.000568	20.983226
1884.506282	-2.996800	3.338100	-10.002000	26.219789	0.000569	20.978753
1885.506889	-2.983400	3.338000	-9.957500	26.236038	0.000567	20.968056
1886.507799	-2.991900	3.337900	-9.986000	26.250716	0.000566	20.965263
1887.508244	-2.987900	3.339000	-9.975700	26.230530	0.000567	20.957307
1888.510132	-2.978400	3.338200	-9.941300	26.252243	0.000566	20.980072
1889.509335	-2.986500	3.337100	-9.964600	26.254070	0.000565	20.985226
1890.509321	-2.989700	3.337100	-9.976200	26.254757	0.000565	20.968849
1891.509789	-2.995400	3.335900	-9.991600	26.298215	0.000564	20.969849
1892.513866	-2.995400	3.336900	-9.993900	26.308852	0.000565	20.953514
1893.510999	-3.000800	3.336600	-10.012000	26.339108	0.000564	20.948360
1894.514143	-3.008400	3.335600	-10.033000	26.399367	0.000562	20.957713
1895.512420	-3.011100	3.336500	-10.046000	26.357225	0.000560	20.965143
1896.514097	-2.998100	3.334200	-9.995700	26.323856	0.000560	20.961005
1897.514673	-3.015800	3.335400	-10.058000	26.312267	0.000560	20.944619
1898.514997	-3.002200	3.335100	-10.011000	26.296200	0.000561	20.934637
1899.511506	-3.013400	3.334500	-10.047000	26.302590	0.000561	20.952437
1900.516164	-2.988200	3.333800	-9.960700	26.274548	0.000560	20.941326
1901.515399	-3.002300	3.333600	-10.008000	26.255787	0.000560	20.946654
1902.515081	-3.008200	3.333300	-10.025000	26.202443	0.000561	20.953265
1903.514231	-3.027400	3.331600	-10.084000	26.168546	0.000559	20.963298
1904.516869	-3.009200	3.330900	-10.023000	26.197879	0.000561	20.960057
1905.514925	-2.982600	3.332400	-9.938600	26.199595	0.000557	20.962256
1906.514323	-3.000100	3.332400	-9.996300	26.178275	0.000557	20.958851
1907.515766	-3.005500	3.331500	-10.012000	26.167663	0.000559	20.937758
1908.514482	-2.984300	3.330200	-9.937500	26.144756	0.000556	20.953145
1909.515240	-2.998000	3.329700	-9.981400	26.123316	0.000556	20.941086
1910.518992	-2.991800	3.329700	-9.960700	26.083298	0.000556	20.936439
1911.515165	-3.006700	3.328900	-10.007000	26.059806	0.000554	20.926112
1912.513777	-2.991000	3.329200	-9.956100	26.041574	0.000554	20.925812
1913.519409	-3.002500	3.328800	-9.993600	26.063831	0.000556	20.939638
1914.517362	-2.987300	3.329100	-9.943500	26.123479	0.000553	20.933191
1915.517240	-2.990800	3.330100	-9.958700	26.140939	0.000553	20.956422
1916.519236	-3.000400	3.327600	-9.983700	26.172991	0.000553	20.935052
1917.516280	-3.012500	3.327900	-10.022000	26.229495	0.000551	20.933036
1918.517409	-3.005000	3.327600	-9.997200	26.255994	0.000552	20.937854
1919.520070	-2.976400	3.329600	-9.908400	26.235157	0.000550	20.924976
1920.519325	-3.014600	3.326000	-10.025000	26.206409	0.000551	20.929278
1921.519454	-2.988000	3.326100	-9.937700	26.152273	0.000549	20.942682
1922.520767	-2.995900	3.326300	-9.964100	26.121832	0.000549	20.929640
1923.522236	-2.976100	3.326300	-9.898600	26.125874	0.000547	20.917107
1924.520259	-2.979700	3.325500	-9.906700	26.131125	0.000547	20.919538
1925.520655	-3.004000	3.323900	-9.983500	26.123514	0.000548	20.921848
1926.520837	-3.013300	3.324000	-10.015000	26.126612	0.000547	20.908366
1927.522540	-2.979000	3.325500	-9.905600	26.152523	0.000547	20.937718
1928.523374	-2.975000	3.324800	-9.890400	26.158606	0.000548	20.916332
1929.523390	-2.995300	3.323000	-9.952500	26.195103	0.000546	20.923608
1930.522563	-2.975900	3.322600	-9.885900	26.223517	0.000546	20.917548
1931.525093	-3.015500	3.323000	-10.020000	26.241087	0.000545	20.911497
1932.523098	-2.998600	3.324600	-9.967100	26.218850	0.000545	20.922340
1933.523912	-2.983200	3.324100	-9.915400	26.226983	0.000544	20.915342
1934.527632	-2.991100	3.321900	-9.935000	26.244047	0.000544	20.932487
1935.524302	-3.020600	3.320900	-10.030000	26.256006	0.000544	20.918902
1936.523199	-3.019700	3.321900	-10.030000	26.273909	0.000543	20.907498
1937.526100	-2.999600	3.322200	-9.964800	26.307674	0.000544	20.921514
1938.525022	-3.006000	3.320000	-9.978500	26.315592	0.000544	20.943694
1939.524721	-3.028600	3.320500	-10.056000	26.320070	0.000540	20.919273
1940.529588	-2.992500	3.319600	-9.933200	26.324274	0.000542	20.913541
1941.527372	-2.973800	3.321100	-9.875700	26.340058	0.000540	20.908068
1942.527250	-3.007200	3.320100	-9.983500	26.342735	0.000539	20.906016
1943.530087	-2.999800	3.318800	-9.953600	26.331556	0.000538	20.919911
1944.528621	-3.002800	3.318100	-9.963200	26.322130	0.000540	20.919446
1945.526734	-3.005500	3.319300	-9.974800	26.287447	0.000540	20.913515
1946.530794	-2.977200	3.319500	-9.881400	26.295949	0.000539	20.919688
1947.529613	-3.003600	3.317600	-9.963600	26.293273	0.000536	20.901827
1948.528164	-3.020700	3.317100	-10.018000	26.280646	0.000537	20.909051
1949.531389	-3.017200	3.316900	-10.007000	26.257003	0.000535	20.927490
1950.529931	-3.004600	3.317700	-9.966200	26.205727	0.000534	20.902043
1951.529183	-3.015800	3.317400	-10.003000	26.227406	0.000536	20.887320
1952.536987	-2.990300	3.316200	-9.915600	26.254044	0.000534	20.928783
1953.532487	-3.011600	3.316200	-9.986300	26.238903	0.000536	20.911673
1954.530900	-2.985400	3.316600	-9.900400	26.265926	0.000535	20.913698
1955.534746	-3.003600	3.314100	-9.953800	26.279291	0.000533	20.897259
1956.533615	-3.003200	3.315000	-9.954500	26.310620	0.000531	20.900294
1957.531072	-3.002400	3.315200	-9.952900	26.346759	0.000533	20.920017
1958.533497	-3.002000	3.314700	-9.948600	26.318580	0.000532	20.911612
1959.534609	-3.005200	3.314500	-9.959500	26.323323	0.000530	20.907371
1960.532125	-3.014900	3.313900	-9.990700	26.308697	0.000530	20.904052
1961.535433	-3.026400	3.312000	-10.022000	26.258788	0.000528	20.925490
1962.532629	-3.009000	3.313300	-9.968100	26.267393	0.000529	20.912328
1963.532704	-2.999900	3.312200	-9.934900	26.273508	0.000527	20.916102
1964.533613	-2.999200	3.312900	-9.934800	26.297271	0.000526	20.908690
1965.533244	-3.011100	3.312000	-9.972200	26.328968	0.000528	20.900717
1966.532866	-2.983700	3.311700	-9.880100	26.348646	0.000527	20.897734
1967.535236	-2.993200	3.310800	-9.909300	26.377158	0.000528	20.910741
1968.536933	-3.008400	3.309200	-9.954300	26.371763	0.000524	20.896311
1969.533440	-2.993200	3.309300	-9.904100	26.362241	0.000525	20.915189
1970.536444	-2.987000	3.310700	-9.888700	26.369507	0.000523	20.891673
1971.536252	-3.003000	3.310100	-9.939500	26.345635	0.000524	20.884752
1972.533770	-2.989900	3.309700	-9.893800	26.298738	0.000522	20.904000
1973.539176	-2.995500	3.308000	-9.908700	26.291378	0.000523	20.899923
1974.537339	-2.985800	3.308200	-9.877200	26.278931	0.000522	20.901639
1975.535197	-3.005100	3.307200	-9.937200	26.299254	0.000524	20.904519
1976.537781	-2.984100	3.309300	-9.873400	26.324010	0.000520	20.895734
1977.537744	-2.987300	3.307800	-9.880400	26.313957	0.000521	20.906019
1978.537538	-2.973000	3.307600	-9.832900	26.343174	0.000520	20.907880
1979.539618	-3.016200	3.306300	-9.971400	26.345182	0.000519	20.904683
1980.543235	-2.981400	3.306200	-9.856400	26.331096	0.000519	20.898588
1981.535510	-3.023000	3.306200	-9.993900	26.357783	0.000520	20.902648
1982.542035	-3.017300	3.305900	-9.973100	26.366455	0.000519	20.890502
1983.541922	-2.980000	3.305300	-9.848000	26.400268	0.000517	20.895562
1984.539033	-2.980900	3.305700	-9.853500	26.450309	0.000517	20.904132
1985.540700	-2.993900	3.304900	-9.893800	26.459872	0.000517	20.885296
1986.543652	-2.977700	3.305800	-9.842900	26.461913	0.000519	20.908209
1987.540261	-3.000100	3.304800	-9.913700	26.481187	0.000516	20.898184
1988.544931	-2.995000	3.304300	-9.895600	26.467112	0.000515	20.884512
1989.540549	-3.004000	3.303200	-9.921700	26.459015	0.000514	20.897236
1990.541358	-2.994300	3.302200	-9.886700	26.454452	0.000513	20.891227
1991.542445	-2.987200	3.302700	-9.864400	26.489335	0.000515	20.885038
1992.540008	-3.020800	3.301800	-9.973400	26.476084	0.000513	20.898745
1993.540453	-2.998500	3.301100	-9.897700	26.450799	0.000515	20.888979
1994.542059	-2.985300	3.303100	-9.859800	26.409087	0.000514	20.898262
1995.542034	-2.986400	3.301500	-9.858600	26.372205	0.000512	20.889169
1996.544026	-3.008200	3.302300	-9.933200	26.376630	0.000513	20.906892
1997.546424	-2.997500	3.302000	-9.896000	26.363661	0.000513	20.915193
1998.543980	-3.015100	3.299800	-9.947300	26.404285	0.000510	20.892962
1999.543238	-2.983400	3.300400	-9.844300	26.424288	0.000511	20.914487
2000.543071	-2.997000	3.300900	-9.890900	26.423585	0.000510	20.893394
2001.543283	-3.009600	3.300100	-9.930600	26.416843	0.000507	20.886618
2002.543399	-2.997600	3.299000	-9.888100	26.407433	0.000508	20.904660
2003.542360	-3.011200	3.300000	-9.935600	26.431743	0.000506	20.890213
2004.542771	-2.998200	3.299200	-9.890200	26.437471	0.000505	20.909720
2005.544853	-3.026300	3.297000	-9.976900	26.408386	0.000507	20.888549
2006.545291	-2.994600	3.297100	-9.872700	26.403248	0.000506	20.899031
2007.544797	-3.017000	3.297800	-9.948000	26.372188	0.000506	20.877300
2008.547281	-3.005400	3.296700	-9.906400	26.341429	0.000506	20.898541
2009.545562	-2.996500	3.296500	-9.878000	26.332824	0.000505	20.892265
2010.552138	-3.011100	3.295800	-9.923500	26.289890	0.000503	20.893687
2011.546857	-3.018400	3.294900	-9.944200	26.297311	0.000502	20.899721
2012.547699	-2.994700	3.296400	-9.870100	26.276079	0.000503	20.892610
2013.550764	-3.015400	3.296000	-9.937400	26.266720	0.000503	20.890317
2014.546921	-2.986000	3.296300	-9.842100	26.244313	0.000502	20.893403
2015.548904	-3.002300	3.295300	-9.892500	26.241395	0.000503	20.860602
2016.554778	-2.986400	3.293100	-9.832000	26.221767	0.000499	20.868852
2017.550414	-3.008300	3.293700	-9.907100	26.210863	0.000500	20.872119
2018.550002	-2.993100	3.293600	-9.856500	26.219803	0.000501	20.889636
2019.554319	-3.013300	3.294300	-9.925400	26.253775	0.000500	20.895325
2020.550227	-2.991900	3.294300	-9.854900	26.246277	0.000497	20.892058
2021.551657	-3.014700	3.291500	-9.921900	26.259857	0.000499	20.880102
2022.556369	-2.974700	3.293300	-9.795600	26.262293	0.000497	20.883972
2023.552733	-3.003200	3.291100	-9.882100	26.240040	0.000496	20.881998
2024.552633	-3.002000	3.293100	-9.884500	26.270100	0.000497	20.889920
2025.556000	-3.014200	3.289900	-9.915400	26.288449	0.000494	20.895558
2026.552722	-3.007200	3.290900	-9.895500	26.330706	0.000493	20.882076
2027.552932	-3.000500	3.290800	-9.872300	26.323835	0.000493	20.871852
2028.558012	-2.966500	3.292300	-9.765000	26.315317	0.000495	20.881308
2029.552470	-3.023100	3.289900	-9.944400	26.340588	0.000491	20.863559
2030.554940	-3.001200	3.290900	-9.876000	26.329685	0.000493	20.895748
2031.558114	-2.996700	3.290000	-9.858700	26.308162	0.000491	20.885972
2032.554544	-2.978600	3.289600	-9.796700	26.348840	0.000491	20.866162
2033.554646	-2.997200	3.288500	-9.854900	26.413919	0.000491	20.866137
2034.556624	-3.006400	3.286500	-9.880000	26.473651	0.000491	20.889662
2035.556418	-3.024600	3.287400	-9.942200	26.536072	0.000490	20.888869
2036.555437	-2.984400	3.289200	-9.815600	26.571690	0.000489	20.872042
2037.559262	-2.981700	3.286900	-9.799500	26.611465	0.000489	20.895429
2038.561185	-2.980700	3.287600	-9.798500	26.618960	0.000487	20.885421
2039.558090	-2.995200	3.285900	-9.841500	26.584185	0.000487	20.900247
2040.563088	-3.021900	3.285600	-9.927900	26.577719	0.000488	20.878102
2041.558017	-3.008100	3.287100	-9.886500	26.563886	0.000486	20.884111
2042.559887	-3.003500	3.286200	-9.868700	26.548474	0.000485	20.888533
2043.560192	-3.027500	3.285000	-9.944500	26.562830	0.000487	20.857921
2044.559303	-3.001500	3.284100	-9.856700	26.558242	0.000484	20.853783
2045.557920	-3.005000	3.284700	-9.870000	26.566218	0.000483	20.868439
2046.560824	-2.983800	3.284600	-9.799500	26.575181	0.000484	20.865594
2047.558969	-2.998900	3.282800	-9.844500	26.570155	0.000483	20.876189
2048.561910	-2.968900	3.284400	-9.749700	26.548612	0.000484	20.888671
2049.561431	-3.021000	3.283300	-9.917700	26.549272	0.000481	20.861362
2050.558936	-3.008300	3.282200	-9.873000	26.548063	0.000482	20.861569
2051.559629	-3.001400	3.281800	-9.849200	26.564915	0.000480	20.853854
2052.561317	-3.031500	3.280700	-9.944100	26.535927	0.000481	20.878767
2053.557932	-2.982900	3.282000	-9.788700	26.531004	0.000480	20.867181
2054.559165	-3.008300	3.281600	-9.871200	26.481500	0.000479	20.885223
2055.563223	-3.000300	3.280300	-9.840800	26.493893	0.000479	20.871129
2056.560752	-3.009500	3.281700	-9.874200	26.510926	0.000477	20.878292
2057.562163	-2.986000	3.282100	-9.800100	26.532394	0.000477	20.881853
2058.564095	-3.024600	3.281200	-9.922800	26.493585	0.000477	20.866078
2059.561586	-3.005600	3.281100	-9.860600	26.502522	0.000476	20.861311
2060.561627	-3.000600	3.280500	-9.842700	26.495876	0.000476	20.879285
2061.563846	-2.987700	3.281100	-9.801800	26.533835	0.000475	20.879508
2062.562319	-3.019600	3.278000	-9.896400	26.560156	0.000475	20.867087
2063.562997	-3.008100	3.277800	-9.858600	26.605335	0.000473	20.872199
2064.565888	-2.999200	3.276800	-9.826200	26.578758	0.000472	20.869190
2065.564744	-2.986900	3.279000	-9.792800	26.561889	0.000472	20.869777
2066.564046	-3.027400	3.277000	-9.920100	26.530603	0.000471	20.874363
2067.568067	-3.006000	3.277200	-9.850600	26.518647	0.000471	20.880363
2068.565217	-3.027100	3.275500	-9.913700	26.464767	0.000470	20.855605
2069.563991	-3.009000	3.276900	-9.859000	26.488123	0.000470	20.863433
2070.566756	-3.012800	3.275600	-9.866800	26.530577	0.000469	20.870070
2071.564768	-3.028700	3.274700	-9.917200	26.574137	0.000469	20.868338
2072.566529	-3.017300	3.274300	-9.877100	26.546041	0.000467	20.867597
2073.570893	-3.008500	3.274000	-9.848600	26.554643	0.000468	20.856330
2074.564950	-3.031800	3.273600	-9.923700	26.510595	0.000467	20.847141
2075.566634	-3.010400	3.274600	-9.857100	26.525321	0.000464	20.847718
2076.569017	-3.010100	3.274800	-9.855300	26.486941	0.000465	20.872676
2077.564565	-3.001200	3.273500	-9.823000	26.479830	0.000465	20.852727
2078.564736	-3.035400	3.271800	-9.929500	26.462591	0.000465	20.870012
2079.567398	-3.018300	3.273400	-9.879700	26.475215	0.000464	20.843822
2080.566612	-3.011400	3.273000	-9.855000	26.501821	0.000464	20.836900
2081.566724	-2.987600	3.274300	-9.780400	26.552920	0.000462	20.869770
2082.569987	-3.001600	3.271600	-9.818200	26.573341	0.000461	20.831978
2083.566025	-2.985100	3.272400	-9.766900	26.587911	0.000460	20.845202
2084.566483	-3.004600	3.270900	-9.825700	26.627952	0.000460	20.847521
2085.567968	-2.991400	3.270600	-9.782100	26.663696	0.000459	20.826082
2086.566996	-3.010300	3.270500	-9.843900	26.678445	0.000460	20.854185
2087.565630	-2.993000	3.271600	-9.791300	26.731800	0.000458	20.829117
2088.568690	-2.987300	3.269300	-9.765300	26.759840	0.000458	20.854936
2089.566632	-2.996600	3.269400	-9.795700	26.747296	0.000457	20.833790
2090.565516	-2.984000	3.269800	-9.756200	26.702379	0.000457	20.838893
2091.568760	-2.990100	3.268400	-9.771700	26.717815	0.000459	20.830229
2092.567402	-3.007200	3.268900	-9.829400	26.738669	0.000454	20.825591
2093.566387	-2.971200	3.270100	-9.715200	26.719393	0.000455	20.830868
2094.571349	-3.013400	3.266600	-9.842700	26.697990	0.000455	20.843489
2095.569515	-2.990100	3.268000	-9.770500	26.681826	0.000451	20.856161
2096.567781	-3.003900	3.267000	-9.812800	26.653810	0.000453	20.856919
2097.569165	-3.004800	3.266000	-9.813300	26.625699	0.000451	20.836248
2098.567693	-3.003300	3.266700	-9.808000	26.622921	0.000452	20.843411
2099.567576	-3.003000	3.267400	-9.810600	26.648143	0.000450	20.828939
2100.571739	-3.034700	3.265400	-9.908400	26.682307	0.000451	20.845740
2101.568446	-2.994200	3.266600	-9.779700	26.691397	0.000448	20.824533
2102.568069	-2.987800	3.264300	-9.751500	26.695943	0.000448	20.828155
2103.569578	-3.020800	3.263500	-9.858000	26.702013	0.000447	20.820507
2104.568755	-3.006500	3.264000	-9.811900	26.735893	0.000449	20.838921
2105.567749	-3.018400	3.262000	-9.844300	26.746878	0.000446	20.813456
2106.572792	-3.016600	3.262200	-9.840400	26.778870	0.000446	20.825232
2107.570460	-3.046800	3.261000	-9.934700	26.770356	0.000444	20.829000
2108.571265	-2.989900	3.262300	-9.753500	26.733605	0.000445	20.836621
2109.576252	-3.019100	3.263100	-9.850100	26.765717	0.000443	20.814379
2110.572496	-3.009300	3.262600	-9.817600	26.765331	0.000443	20.831535
2111.572562	-3.002000	3.262900	-9.793900	26.757426	0.000441	20.821216
2112.575145	-2.992300	3.260700	-9.756400	26.737301	0.000440	20.835595
2113.573673	-3.003200	3.260800	-9.791100	26.723993	0.000442	20.818423
2114.571971	-2.973600	3.261100	-9.696600	26.751270	0.000440	20.809337
2115.577595	-2.992300	3.259700	-9.752900	26.762331	0.000440	20.824725
2116.573470	-2.997700	3.260100	-9.771600	26.758148	0.000439	20.818149
2117.573649	-3.003600	3.258100	-9.784300	26.757968	0.000439	20.816071
2118.576982	-3.036000	3.258400	-9.891300	26.735090	0.000438	20.817252
2119.574055	-3.008600	3.257500	-9.799300	26.767631	0.000436	20.803027
2120.575416	-3.014000	3.257400	-9.816000	26.784240	0.000437	20.802182
2121.577229	-2.990400	3.257900	-9.741700	26.773547	0.000437	20.818932
2122.575456	-3.015100	3.257200	-9.819600	26.774859	0.000436	20.808398
2123.576059	-3.011800	3.256400	-9.806200	26.797582	0.000435	20.816071
2124.578334	-2.999600	3.257200	-9.768500	26.826974	0.000434	20.806269
2125.575624	-2.981900	3.256200	-9.708900	26.820793	0.000433	20.812855
2126.576525	-2.992900	3.256300	-9.745000	26.841526	0.000434	20.812365
2127.579916	-3.017100	3.255100	-9.819600	26.821264	0.000432	20.808114
2128.577487	-2.993900	3.256400	-9.748700	26.855243	0.000432	20.807192
2129.577404	-2.987800	3.255000	-9.723300	26.862214	0.000432	20.807088
2130.581713	-2.985100	3.255200	-9.715100	26.884566	0.000429	20.815339
2131.579249	-3.017900	3.254000	-9.819900	26.911640	0.000431	20.810795
2132.580404	-3.014400	3.253100	-9.804100	26.915602	0.000431	20.810511
2133.582924	-2.999700	3.254400	-9.761100	26.940378	0.000428	20.803182
2134.578730	-3.015100	3.252300	-9.805700	26.922588	0.000427	20.813743
2135.581155	-3.014300	3.253200	-9.804800	26.909376	0.000428	20.808992
2136.580856	-3.005100	3.251900	-9.771600	26.866028	0.000427	20.798122
2137.581470	-2.995400	3.253400	-9.744800	26.835479	0.000426	20.779733
2138.579812	-2.995000	3.251100	-9.734900	26.817113	0.000426	20.791612
2139.581621	-3.015800	3.250100	-9.800000	26.811419	0.000425	20.798215
2140.578908	-3.004100	3.251000	-9.765800	26.832143	0.000425	20.819526
2141.580554	-2.976400	3.252200	-9.678600	26.880397	0.000424	20.804034
2142.582641	-2.998400	3.250200	-9.743800	26.917562	0.000423	20.799680
2143.579610	-3.024300	3.248500	-9.823400	26.956057	0.000422	20.812311
2144.580532	-3.016700	3.250300	-9.804700	26.951127	0.000422	20.809724
2145.583992	-2.992900	3.248000	-9.720200	26.941123	0.000420	20.786861
2146.582806	-3.033000	3.246200	-9.844700	26.932600	0.000421	20.780662
2147.581551	-3.002700	3.246500	-9.746800	26.923846	0.000420	20.815956
2148.585267	-2.990700	3.246900	-9.709700	26.891396	0.000418	20.809405
2149.581773	-2.982200	3.247100	-9.682500	26.858532	0.000418	20.787739
2150.581945	-2.987700	3.247700	-9.701300	26.839284	0.000416	20.818172
2151.582674	-2.983300	3.245800	-9.681900	26.802543	0.000416	20.790239
2152.580701	-3.002900	3.245400	-9.743500	26.740035	0.000415	20.799464
2153.582258	-2.991200	3.244800	-9.704700	26.749612	0.000416	20.795816
2154.583240	-3.004400	3.245100	-9.748900	26.785505	0.000414	20.784488
2155.582248	-2.977900	3.244700	-9.661900	26.823944	0.000415	20.796110
2156.581817	-3.011200	3.243400	-9.765800	26.820813	0.000414	20.807186
2157.585636	-3.020100	3.243000	-9.793100	26.857278	0.000413	20.804971
2158.582844	-3.018000	3.242900	-9.784900	26.892302	0.000412	20.791349
2159.583359	-2.999800	3.243400	-9.726900	26.898483	0.000413	20.804677
2160.584272	-2.994700	3.243500	-9.711700	26.895147	0.000411	20.800375
2161.581400	-3.006900	3.243200	-9.750900	26.863999	0.000409	20.801771
2162.584169	-2.998900	3.243100	-9.725000	26.880504	0.000409	20.778538
2163.585217	-3.013000	3.242400	-9.768200	26.937114	0.000407	20.807487
2164.584847	-3.004700	3.241400	-9.739600	26.972341	0.000405	20.801659
2165.586150	-2.993800	3.240800	-9.699800	26.976867	0.000407	20.789615
2166.587644	-3.000000	3.240000	-9.719000	27.008663	0.000408	20.788399
2167.588508	-2.994500	3.241500	-9.704500	27.025104	0.000406	20.794976
2168.587934	-2.996100	3.240100	-9.706100	27.017827	0.000405	20.772958
2169.589373	-2.983200	3.238700	-9.661000	26.978477	0.000405	20.800243
2170.591367	-2.983600	3.240000	-9.665300	26.984049	0.000403	20.792096
2171.587787	-2.989900	3.239200	-9.682300	26.955938	0.000403	20.807923
2172.586964	-3.003500	3.238800	-9.726900	26.900332	0.000403	20.797527
2173.590260	-2.991700	3.238900	-9.688600	26.930681	0.000402	20.792483
2174.588209	-2.980700	3.238700	-9.653200	26.920968	0.000402	20.784138
2175.588202	-3.011700	3.235300	-9.742300	26.878365	0.000401	20.774016
2176.598137	-2.986400	3.236100	-9.663600	26.868402	0.000398	20.784387
2177.588065	-2.995600	3.236900	-9.695500	26.842046	0.000399	20.791077
2178.589336	-2.985100	3.234400	-9.654100	26.845783	0.000397	20.784403
2179.594890	-2.997500	3.235600	-9.698100	26.880730	0.000398	20.790619
2180.588082	-2.997700	3.234200	-9.693600	26.858824	0.000396	20.805576
2181.590294	-3.021800	3.233700	-9.770900	26.849967	0.000396	20.790506
2182.588882	-2.998600	3.235500	-9.699300	26.821621	0.000394	20.810843
2183.588058	-3.014200	3.232300	-9.740900	26.834687	0.000394	20.799325
2184.589046	-2.995700	3.234300	-9.688000	26.862526	0.000396	20.797919
2185.592101	-2.989700	3.233800	-9.666200	26.877616	0.000394	20.791281
2186.589637	-3.018500	3.231800	-9.754600	26.869359	0.000394	20.808583
2187.592105	-3.003800	3.231400	-9.705600	26.822709	0.000394	20.789652
2188.591877	-3.049000	3.230200	-9.847000	26.825683	0.000394	20.789323
2189.587988	-2.991800	3.232500	-9.669200	26.818035	0.000391	20.797281
2190.588614	-3.008700	3.229800	-9.715500	26.808132	0.000391	20.801074
2191.589079	-2.983800	3.230500	-9.638100	26.810172	0.000390	20.802177
2192.590863	-2.986400	3.231400	-9.649100	26.854106	0.000389	20.807944
2193.595661	-3.017700	3.229300	-9.744000	26.886540	0.000390	20.813057
2194.590911	-2.989000	3.230000	-9.652700	26.891102	0.000390	20.811479
2195.591545	-3.008900	3.227400	-9.709400	26.910426	0.000386	20.800090
2196.590304	-2.997200	3.227300	-9.672200	26.981446	0.000388	20.795168
2197.591169	-2.991800	3.227600	-9.655400	26.994828	0.000386	20.788237
2198.590515	-2.984600	3.226600	-9.628900	27.061016	0.000387	20.813073
2199.589840	-3.000900	3.226000	-9.680100	27.120103	0.000387	20.820340
2200.591547	-2.988400	3.226300	-9.640500	27.118140	0.000385	20.799400
2201.590064	-2.989800	3.225500	-9.642500	27.085077	0.000384	20.811193
2202.590890	-3.010000	3.225000	-9.705900	27.049691	0.000385	20.790305
2203.589385	-3.007700	3.226000	-9.701900	27.021325	0.000382	20.819624
2204.590245	-3.044800	3.225100	-9.818400	27.014596	0.000382	20.811435
2205.589942	-3.014700	3.225200	-9.721400	27.040262	0.000379	20.809271
2206.589189	-2.998800	3.224000	-9.666900	27.064118	0.000379	20.801020
2207.590009	-3.010500	3.223300	-9.702100	27.081100	0.000381	20.799607
2208.591027	-3.023800	3.224200	-9.748000	27.024514	0.000379	20.826624
2209.592564	-3.026400	3.220400	-9.745300	26.977922	0.000378	20.810590
2210.593101	-2.996900	3.222700	-9.656500	26.980664	0.000378	20.822357
2211.594222	-2.995100	3.222300	-9.649000	26.953428	0.000377	20.813461
2212.589557	-3.001200	3.220900	-9.665900	26.980408	0.000377	20.813090
2213.591593	-2.991200	3.220300	-9.630600	27.011312	0.000377	20.811925
2214.592784	-3.002100	3.221800	-9.671400	27.027035	0.000374	20.806874
2215.596603	-3.000400	3.220200	-9.660700	27.024052	0.000373	20.799607
2216.597322	-3.004800	3.218500	-9.670000	27.037484	0.000374	20.816435
2217.593132	-2.993500	3.220100	-9.637900	27.017416	0.000373	20.821857
2218.596912	-2.976000	3.218600	-9.577000	26.997151	0.000373	20.817599
2219.592586	-2.999300	3.218700	-9.652500	26.992949	0.000372	20.806736
2220.592899	-3.009600	3.219100	-9.687500	26.964565	0.000371	20.816125
2221.592369	-3.008100	3.218100	-9.680000	26.964908	0.000372	20.834013
2222.595175	-3.009500	3.216100	-9.677700	26.988201	0.000369	20.819979
2223.594573	-3.010800	3.216400	-9.683000	27.023186	0.000371	20.824340
2224.595726	-3.006300	3.215000	-9.665000	27.064573	0.000371	20.819495
2225.594142	-3.014000	3.214800	-9.688500	27.058495	0.000369	20.842306
2226.594824	-2.972700	3.215100	-9.556200	27.078871	0.000367	20.833874
2227.596588	-2.988200	3.214100	-9.602900	27.073737	0.000367	20.845780
2228.596137	-2.987800	3.215000	-9.604600	27.036018	0.000365	20.808797
2229.595854	-2.990900	3.214400	-9.612700	27.015084	0.000366	20.835158
2230.596872	-2.990900	3.215000	-9.614900	27.009031	0.000366	20.825279
2231.595006	-2.990900	3.213400	-9.610000	27.009692	0.000365	20.831159
2232.594967	-2.981500	3.213700	-9.581100	27.017467	0.000363	20.814322
2233.595688	-2.975000	3.213200	-9.557900	27.041504	0.000362	20.825692
2234.595185	-2.995800	3.212800	-9.624300	27.069827	0.000362	20.841374
2235.596932	-2.980000	3.212000	-9.571000	27.087082	0.000361	20.834072
2236.595463	-2.996300	3.209700	-9.615500	27.093657	0.000363	20.853485
2237.596456	-2.998200	3.208900	-9.620200	27.090751	0.000361	20.828753
2238.595661	-2.996800	3.209400	-9.616300	27.105761	0.000361	20.836262
2239.595714	-2.990600	3.208200	-9.593400	27.137502	0.000359	20.825037
2240.600045	-2.995200	3.211000	-9.616600	27.162873	0.000359	20.811674
2241.596766	-2.993000	3.210100	-9.607100	27.181525	0.000357	20.845132
2242.596639	-3.008800	3.207200	-9.648800	27.176750	0.000357	20.850286
2243.611059	-2.996600	3.208300	-9.613400	27.164672	0.000359	20.847622
2244.596338	-2.986100	3.207700	-9.578000	27.159820	0.000357	20.844165
2245.596410	-2.985400	3.207500	-9.573900	27.135177	0.000357	20.825070
2246.597080	-2.994900	3.207500	-9.604200	27.155946	0.000353	20.836949
2247.595910	-2.980400	3.207000	-9.557000	27.195100	0.000354	20.836501
2248.602138	-2.983300	3.206300	-9.564700	27.152268	0.000354	20.844155
2249.596388	-2.984100	3.204500	-9.561400	27.142531	0.000352	20.844794
2250.596448	-3.001200	3.204000	-9.615100	27.154446	0.000352	20.840656
2251.599426	-2.990600	3.205000	-9.584100	27.177434	0.000353	20.846707
2252.595327	-3.014700	3.203400	-9.656100	27.155097	0.000350	20.847000
2253.596485	-3.026300	3.202400	-9.690100	27.148333	0.000350	20.818388
2254.598901	-2.998000	3.203600	-9.603100	27.112212	0.000350	20.851758
2255.602664	-3.016600	3.200700	-9.654400	27.111458	0.000350	20.846259
2256.595665	-3.004400	3.200600	-9.614100	27.151377	0.000348	20.849897
2257.599720	-2.991100	3.201100	-9.573400	27.162031	0.000347	20.855870
2258.595721	-2.996100	3.201400	-9.589800	27.198141	0.000347	20.849991
2259.596756	-3.003300	3.201000	-9.611700	27.214794	0.000347	20.851094
2260.601017	-3.016300	3.199400	-9.649400	27.234593	0.000345	20.856783
2261.598825	-3.001600	3.200600	-9.606200	27.285074	0.000345	20.853033
2262.599219	-2.982400	3.198100	-9.537300	27.320204	0.000345	20.851861
2263.601253	-2.970600	3.199600	-9.503500	27.337962	0.000345	20.856448
2264.598102	-2.984600	3.199100	-9.546000	27.339203	0.000343	20.852481
2265.598964	-3.011900	3.196500	-9.625600	27.307074	0.000342	20.858567
2266.602498	-3.005300	3.197900	-9.608300	27.306080	0.000342	20.863731
2267.598489	-2.996100	3.196300	-9.574700	27.314308	0.000344	20.850671
2268.601152	-2.988400	3.196700	-9.552600	27.331045	0.000342	20.857077
2269.601326	-2.981000	3.196700	-9.527400	27.306997	0.000342	20.867024
2270.600730	-2.986300	3.194700	-9.539400	27.255120	0.000341	20.852300
2271.599564	-3.019100	3.193900	-9.640400	27.212489	0.000340	20.860154
2272.605044	-3.008500	3.194100	-9.608500	27.153398	0.000338	20.870895
2273.607454	-3.021800	3.192200	-9.645600	27.131737	0.000338	20.833938
2274.602542	-3.019000	3.193500	-9.640100	27.127135	0.000340	20.857757
2275.607445	-3.003800	3.193000	-9.590000	27.107197	0.000336	20.870420
2276.605072	-3.026700	3.190400	-9.655500	27.112469	0.000335	20.865292
2277.607493	-3.003300	3.190500	-9.580700	27.088896	0.000336	20.870507
2278.609664	-2.990300	3.191700	-9.543100	27.106090	0.000335	20.870256
2279.607727	-2.970900	3.191400	-9.480300	27.099063	0.000334	20.866982
2280.606872	-3.010000	3.190200	-9.601200	27.082818	0.000331	20.852542
2281.607651	-3.004100	3.191600	-9.587500	27.082793	0.000332	20.860102
2282.608073	-3.005200	3.188600	-9.581200	27.097065	0.000331	20.896265
2283.604944	-3.006000	3.189200	-9.584900	27.082870	0.000332	20.870610
2284.607069	-2.996400	3.187400	-9.548400	27.041620	0.000332	20.887446
2285.606752	-3.000200	3.188600	-9.565300	27.055910	0.000330	20.866257
2286.606486	-3.009300	3.188400	-9.594000	27.061388	0.000328	20.872714
2287.607153	-3.003200	3.186300	-9.567700	27.056355	0.000331	20.866231
2288.608394	-2.991700	3.186700	-9.532000	27.048366	0.000328	20.887592
2289.606781	-2.998900	3.186500	-9.555400	27.011487	0.000327	20.902660
2290.609911	-2.997000	3.187300	-9.550400	27.038353	0.000329	20.874204
2291.608244	-3.003600	3.186100	-9.568500	27.056064	0.000329	20.871153
2292.608291	-3.013000	3.183800	-9.592000	27.062270	0.000326	20.885928
2293.610451	-2.996200	3.183900	-9.537500	27.081257	0.000326	20.877049
2294.608418	-2.972400	3.184500	-9.464400	27.128634	0.000326	20.879178
2295.608029	-3.018300	3.182500	-9.604100	27.172888	0.000325	20.881487
2296.607625	-3.007900	3.182700	-9.572900	27.248339	0.000325	20.880091
2297.608768	-3.016700	3.181600	-9.597000	27.313174	0.000325	20.881297
2298.608686	-2.993400	3.181800	-9.524000	27.365914	0.000322	20.869867
2299.609190	-2.981200	3.183200	-9.489400	27.409722	0.000322	20.871263
2300.608474	-3.010900	3.180800	-9.576400	27.433878	0.000322	20.901252
2301.607337	-3.001700	3.180400	-9.546300	27.439799	0.000324	20.890141
2302.608797	-2.994800	3.180000	-9.522600	27.466423	0.000323	20.904597
2303.607790	-3.000300	3.179300	-9.537800	27.500972	0.000320	20.889571
2304.611446	-3.020500	3.177900	-9.597200	27.539616	0.000320	20.914699
2305.608666	-2.986400	3.179400	-9.493300	27.557720	0.000319	20.899725
2306.609885	-3.025800	3.177000	-9.612500	27.573614	0.000320	20.892484
2307.610771	-3.007900	3.176100	-9.552900	27.514912	0.000317	20.896009
2308.613833	-2.986300	3.176500	-9.483900	27.550873	0.000316	20.909904
2309.610421	-3.008000	3.175600	-9.550000	27.534430	0.000317	20.892888
2310.610756	-3.011300	3.177000	-9.566100	27.539563	0.000317	20.901370
2311.610695	-3.005000	3.175000	-9.540200	27.529743	0.000316	20.913774
2312.611916	-3.000200	3.175300	-9.525100	27.525835	0.000314	20.899887
2313.612341	-3.031600	3.172300	-9.616400	27.557718	0.000315	20.909679
2314.613249	-3.016700	3.173700	-9.571800	27.538448	0.000313	20.898352
2315.612056	-2.986000	3.172500	-9.472000	27.563501	0.000314	20.904593
2316.614131	-2.995400	3.172900	-9.503600	27.580748	0.000314	20.907247
2317.618165	-2.985200	3.171500	-9.466200	27.562078	0.000312	20.912169
2318.620828	-3.002900	3.172400	-9.524700	27.555369	0.000313	20.919168
2319.613380	-2.991700	3.171300	-9.487200	27.556731	0.000313	20.920539
2320.614535	-3.019600	3.170100	-9.571700	27.518421	0.000312	20.937468
2321.614220	-2.998300	3.170900	-9.505000	27.505774	0.000309	20.911944
2322.614581	-3.002100	3.169100	-9.512900	27.529440	0.000310	20.912996
2323.615137	-2.982100	3.169500	-9.450600	27.552635	0.000310	20.891290
2324.615933	-3.017400	3.168600	-9.560400	27.566455	0.000308	20.925581
2325.615521	-2.985600	3.170400	-9.464500	27.590402	0.000307	20.915538
2326.617467	-3.018300	3.167300	-9.558800	27.591559	0.000308	20.908642
2327.619069	-2.990700	3.167600	-9.471900	27.611633	0.000309	20.907978
2328.618308	-3.011000	3.164800	-9.527800	27.633807	0.000306	20.918908
2329.616486	-3.032700	3.164200	-9.595300	27.661711	0.000306	20.942716
2330.621994	-3.009900	3.162400	-9.518100	27.677235	0.000305	20.931786
2331.618654	-2.970200	3.165800	-9.402100	27.660640	0.000305	20.909400
2332.619214	-3.008500	3.163500	-9.516900	27.654043	0.000305	20.928364
2333.620653	-3.013500	3.160900	-9.523500	27.666715	0.000304	20.929261
2334.617898	-2.999900	3.161900	-9.482900	27.654043	0.000304	20.922201
2335.619514	-2.994400	3.161600	-9.466200	27.610143	0.000303	20.927339
2336.620539	-3.011200	3.161600	-9.518500	27.592826	0.000303	20.954482
2337.623065	-3.016200	3.161100	-9.532900	27.535968	0.000303	20.924304
2338.619819	-3.000500	3.159300	-9.478400	27.476956	0.000301	20.950276
2339.621788	-2.991700	3.157700	-9.445600	27.492637	0.000300	20.939975
2340.620740	-2.999700	3.157600	-9.470600	27.516732	0.000300	20.934347
2341.621890	-2.988700	3.159500	-9.441300	27.547904	0.000301	20.924933
2342.622742	-2.994700	3.158400	-9.457300	27.565452	0.000298	20.945906
2343.621958	-3.003000	3.155000	-9.474100	27.539344	0.000298	20.934812
2344.622178	-3.012700	3.155900	-9.506400	27.532378	0.000297	20.951982
2345.624710	-2.995000	3.157900	-9.456100	27.509474	0.000297	20.949328
2346.622370	-2.988200	3.156100	-9.429800	27.506955	0.000300	20.948690
2347.623970	-3.003500	3.154300	-9.472800	27.530570	0.000298	20.944000
2348.623925	-3.019200	3.154300	-9.522700	27.511847	0.000297	20.934647
2349.621609	-3.000700	3.153600	-9.461200	27.514624	0.000295	20.936966
2350.623272	-2.946900	3.153800	-9.292400	27.460606	0.000296	20.940940
2351.626019	-2.995700	3.153500	-9.445500	27.483176	0.000296	20.950844
2352.625787	-3.004000	3.150400	-9.462700	27.523946	0.000294	20.945871
2353.624697	-3.007900	3.149300	-9.471600	27.540226	0.000295	20.956559
2354.625460	-3.023000	3.150300	-9.522500	27.571210	0.000293	20.943165
2355.623544	-2.975500	3.149300	-9.370100	27.602319	0.000294	20.959765
2356.622690	-3.015900	3.149000	-9.495400	27.642296	0.000290	20.968695
2357.626145	-3.011300	3.148200	-9.478600	27.658378	0.000293	20.944104
2358.622435	-2.985900	3.149700	-9.402200	27.658926	0.000291	20.953189
2359.625473	-2.980600	3.148200	-9.382200	27.641199	0.000291	20.952421
2360.624608	-3.018300	3.146100	-9.495100	27.602713	0.000291	20.974858
2361.622475	-2.988200	3.147700	-9.404900	27.600537	0.000291	20.958446
2362.624195	-2.982500	3.145700	-9.380300	27.606422	0.000289	20.939715
2363.626874	-3.004100	3.143800	-9.442500	27.610878	0.000289	20.943723
2364.629744	-3.020800	3.143400	-9.494200	27.618966	0.000290	20.947120
2365.624660	-2.999100	3.143000	-9.425000	27.617748	0.000289	20.963436
2366.627033	-2.997600	3.143700	-9.423200	27.620380	0.000288	20.975091
2367.625700	-2.990000	3.141800	-9.393100	27.642912	0.000287	20.958885
2368.638848	-3.002400	3.142700	-9.433300	27.632365	0.000286	20.971031
2369.626371	-2.994900	3.142700	-9.411300	27.631731	0.000287	20.953799
2370.625638	-2.998500	3.141700	-9.419700	27.627833	0.000288	20.956041
2371.626817	-2.990200	3.139500	-9.386400	27.634447	0.000285	20.975021
2372.628165	-3.004000	3.138000	-9.425700	27.697220	0.000285	20.972279
2373.630981	-3.008900	3.136900	-9.436600	27.727975	0.000286	20.961031
2374.627544	-2.991800	3.138800	-9.390100	27.745991	0.000286	20.976314
2375.628448	-3.020800	3.135700	-9.470700	27.771588	0.000284	20.976943
2376.633003	-3.030700	3.134400	-9.498400	27.751200	0.000283	20.959747
2377.629317	-2.993800	3.136100	-9.388200	27.744020	0.000284	20.978123
2378.629436	-2.991800	3.136600	-9.382900	27.721901	0.000283	20.978623
2379.632973	-3.004000	3.133500	-9.412100	27.735668	0.000284	20.975408
2380.630108	-3.005100	3.132500	-9.413000	27.738889	0.000281	20.959686
2381.630681	-3.013500	3.131100	-9.434500	27.794820	0.000282	20.993681
2382.632143	-2.981200	3.132800	-9.338500	27.821700	0.000283	20.977114
2383.629989	-3.000600	3.131400	-9.394500	27.836074	0.000281	20.991578
2384.630123	-3.002300	3.131700	-9.400800	27.869867	0.000281	20.973908
2385.635932	-2.978400	3.132000	-9.327500	27.858637	0.000281	20.990104
2386.630141	-3.000700	3.130300	-9.391800	27.824142	0.000282	20.974357
2387.634375	-3.014300	3.128100	-9.428200	27.783538	0.000281	20.982803
2388.632113	-3.004000	3.127600	-9.394900	27.723965	0.000280	20.978330
2389.635408	-3.006300	3.126900	-9.399300	27.730604	0.000278	20.976476
2390.634385	-3.026400	3.126300	-9.460800	27.731684	0.000279	20.990363
2391.635225	-3.009200	3.125100	-9.401900	27.703884	0.000278	20.988466
2392.635609	-2.993700	3.123800	-9.350900	27.604347	0.000276	20.967968
2393.634650	-3.012300	3.123100	-9.405900	27.579243	0.000280	20.955039
2394.633458	-3.005000	3.122400	-9.381800	27.554600	0.000279	20.987138
2395.635314	-2.987600	3.123000	-9.329600	27.566305	0.000278	20.982794
2396.634721	-3.006600	3.123200	-9.387800	27.567513	0.000276	20.970261
2397.635997	-3.005800	3.121700	-9.381600	27.613240	0.000277	20.978811
2398.636317	-3.001700	3.119900	-9.363300	27.666692	0.000276	20.963847
2399.635289	-3.012200	3.118800	-9.393000	27.655246	0.000276	20.960864
2400.636239	-2.985000	3.118500	-9.308500	27.621815	0.000274	20.968950
2401.636131	-3.023500	3.117000	-9.422700	27.577064	0.000277	20.971337
2402.634302	-3.004300	3.117900	-9.366100	27.589720	0.000274	20.966528
2403.639383	-3.005200	3.116500	-9.364300	27.573980	0.000273	20.974871
2404.636980	-3.019600	3.114600	-9.404100	27.568111	0.000273	20.957114
2405.635860	-2.995600	3.114400	-9.329000	27.553296	0.000273	20.970656
2406.637789	-2.979500	3.114000	-9.277500	27.553425	0.000274	20.963200
2407.639837	-3.003700	3.113800	-9.352300	27.577039	0.000273	20.953296
2408.638410	-2.974200	3.113100	-9.257900	27.604765	0.000274	20.940892
2409.640065	-2.994100	3.110700	-9.312400	27.648082	0.000271	20.958398
2410.639857	-2.997300	3.110100	-9.320200	27.638770	0.000275	20.944288
2411.640005	-2.998100	3.110000	-9.322800	27.638889	0.000273	20.940615
2412.641592	-2.989900	3.110000	-9.296900	27.679970	0.000271	20.959191
2413.642975	-3.000500	3.109300	-9.328200	27.721272	0.000271	20.943382
2414.642330	-3.008500	3.107500	-9.347900	27.718582	0.000271	20.946365
2415.642490	-3.000200	3.107300	-9.321500	27.695536	0.000272	20.978171
2416.642247	-2.995400	3.105700	-9.302400	27.690456	0.000271	20.932762
2417.641736	-2.999700	3.106100	-9.316300	27.732289	0.000269	20.924599
2418.642704	-2.997900	3.105000	-9.306900	27.741549	0.000269	20.945769
2419.641990	-3.015800	3.103100	-9.357100	27.789223	0.000271	20.944908
2420.641982	-2.997000	3.102700	-9.297400	27.744274	0.000270	20.921487
2421.643356	-3.014200	3.102000	-9.349600	27.745944	0.000267	20.915108
2422.643277	-3.002700	3.100600	-9.309300	27.764448	0.000268	20.928986
2423.646136	-2.987300	3.100400	-9.260400	27.671804	0.000270	20.920159
2424.648231	-3.031200	3.099200	-9.391700	27.631408	0.000269	20.936407
2425.643217	-3.010500	3.096500	-9.321300	27.645340	0.000268	20.947579
2426.647013	-2.994600	3.096500	-9.271700	27.678375	0.000268	20.922029
2427.646733	-2.974000	3.098900	-9.215400	27.748239	0.000267	20.931641
2428.647274	-3.007400	3.096500	-9.310900	27.768208	0.000267	20.919495
2429.647404	-3.002200	3.095200	-9.292400	27.762743	0.000265	20.908780
2430.645969	-3.007000	3.091800	-9.295900	27.801454	0.000265	20.933037
2431.645800	-2.973400	3.095000	-9.201700	27.836755	0.000268	20.910245
2432.647102	-3.003500	3.093800	-9.291200	27.882514	0.000267	20.937804
2433.648205	-2.999500	3.091700	-9.273000	27.928707	0.000264	20.907013
2434.650117	-2.995200	3.089500	-9.253100	27.940244	0.000265	20.915779
2435.647422	-2.993800	3.089600	-9.248100	27.955918	0.000265	20.919701
2436.646593	-2.956400	3.090400	-9.135400	27.964801	0.000264	20.928641
2437.647639	-2.990600	3.086800	-9.230100	27.942737	0.000265	20.945312
2438.648288	-3.003900	3.088600	-9.276900	27.944775	0.000264	20.919865
2439.650252	-3.015900	3.085600	-9.305000	27.893820	0.000262	20.930692
2440.651003	-3.022000	3.086100	-9.325100	27.858230	0.000264	20.913840
2441.650260	-3.022700	3.085500	-9.326200	27.899525	0.000264	20.924107
2442.650237	-2.996300	3.084400	-9.241400	27.939885	0.000263	20.925848
2443.651975	-3.006800	3.083300	-9.269400	27.974514	0.000263	20.915659
2444.650744	-3.011700	3.083300	-9.284300	27.997852	0.000262	20.934408
2445.649984	-3.005300	3.081700	-9.260000	27.968800	0.000262	20.926977
2446.653636	-2.985600	3.082300	-9.201500	27.965589	0.000265	20.918056
2447.653392	-2.993600	3.079500	-9.218100	27.969794	0.000261	20.908539
2448.653540	-3.000500	3.077100	-9.232200	27.963705	0.000262	20.928960
2449.654412	-3.003800	3.078200	-9.245500	27.912904	0.000262	20.904858
2450.652846	-2.994900	3.076300	-9.212400	27.848071	0.000260	20.911202
2451.653239	-3.014800	3.075000	-9.269500	27.808333	0.000261	20.912935
2452.653574	-3.028300	3.073300	-9.305700	27.769913	0.000261	20.915047
2453.653760	-2.990000	3.074900	-9.192400	27.753473	0.000259	20.911780
2454.653528	-2.978600	3.073900	-9.155200	27.765493	0.000260	20.894005
2455.653857	-3.017300	3.071800	-9.266900	27.847805	0.000262	20.912357
2456.656384	-2.988700	3.071000	-9.176200	27.885007	0.000262	20.907600
2457.656779	-2.998600	3.069900	-9.204500	27.926557	0.000262	20.896315
2458.656989	-3.009900	3.067900	-9.233000	27.908193	0.000260	20.890161
2459.656958	-2.993100	3.069200	-9.185900	27.893401	0.000259	20.924581
2460.658876	-2.970600	3.066600	-9.108900	27.928973	0.000261	20.897798
2461.658853	-2.986700	3.065300	-9.154100	27.912322	0.000260	20.918495
2462.661873	-3.004400	3.064100	-9.205400	27.930095	0.000260	20.893712
2463.660190	-3.019500	3.063400	-9.249200	27.960869	0.000259	20.895289
2464.659590	-2.986400	3.062300	-9.144200	27.988191	0.000259	20.903349
2465.659167	-2.995100	3.061600	-9.168800	28.017627	0.000259	20.898841
2466.661000	-2.984200	3.060800	-9.133000	28.027648	0.000258	20.916038
2467.661985	-2.991900	3.060700	-9.156400	28.002151	0.000258	20.896538
2468.662152	-2.986400	3.058600	-9.133200	27.996687	0.000258	20.901469
2469.661403	-3.006500	3.057500	-9.192300	28.005037	0.000259	20.898496
2470.661408	-2.999500	3.056800	-9.167700	28.028907	0.000257	20.904504
2471.661275	-3.014400	3.055500	-9.209600	28.058582	0.000256	20.926313
2472.661505	-2.990500	3.053400	-9.130400	28.068413	0.000257	20.902073
2473.662025	-2.999800	3.054500	-9.161800	28.003067	0.000259	20.911684
2474.662765	-3.006300	3.052300	-9.175000	28.008806	0.000257	20.882376
2475.661436	-2.987800	3.051800	-9.116400	28.019948	0.000256	20.894539
2476.663833	-3.000200	3.049300	-9.146800	28.023819	0.000257	20.918821
2477.664066	-3.008600	3.048500	-9.170600	28.060089	0.000257	20.903650
2478.664192	-3.006800	3.048000	-9.162300	28.028110	0.000255	20.906546
2479.664422	-2.967400	3.047900	-9.043100	28.036614	0.000255	20.901831
2480.663186	-2.982000	3.045600	-9.081400	28.058119	0.000255	20.901667
2481.664416	-3.008100	3.044500	-9.156600	28.018766	0.000257	20.905201
2482.664965	-3.000800	3.042900	-9.129900	28.014363	0.000257	20.894133
2483.666842	-2.982700	3.042600	-9.073300	28.016462	0.000257	20.886763
2484.665327	-3.001500	3.041500	-9.128400	27.984104	0.000256	20.905873
2485.665916	-3.001900	3.040000	-9.124000	27.968379	0.000255	20.890995
2486.665684	-2.999900	3.039300	-9.116700	27.911788	0.000255	20.892356
2487.667006	-2.977600	3.038300	-9.046300	27.852454	0.000257	20.897597
2488.668195	-3.009000	3.036500	-9.136000	27.826423	0.000255	20.901744
2489.666174	-3.001300	3.035900	-9.110700	27.852377	0.000254	20.872866
2490.668086	-2.982700	3.035000	-9.051500	27.891729	0.000254	20.884021
2491.674348	-2.988500	3.034400	-9.067500	27.915531	0.000253	20.891856
2492.668666	-2.978700	3.032100	-9.030400	27.978845	0.000254	20.893943
2493.668682	-2.996400	3.031300	-9.081500	28.002424	0.000254	20.904399
2494.668286	-2.978400	3.031400	-9.027700	28.011793	0.000254	20.879693
2495.668804	-3.003100	3.028700	-9.093900	28.014312	0.000254	20.901667
2496.669638	-2.999600	3.027200	-9.078400	27.989936	0.000252	20.891830
2497.669544	-2.999400	3.026300	-9.076000	27.983924	0.000252	20.884831
2498.670068	-3.005700	3.025300	-9.092100	28.026576	0.000251	20.898839
2499.671813	-2.986900	3.024200	-9.031700	28.070965	0.000253	20.894684
2500.674172	-2.986500	3.023400	-9.028900	28.097727	0.000253	20.900287
2501.671180	-3.003800	3.020900	-9.073300	28.094695	0.000253	20.897236
2502.671908	-3.016000	3.019500	-9.106400	28.054059	0.000252	20.908959
2503.673811	-2.977300	3.019600	-8.989500	28.041469	0.000255	20.892969
2504.673129	-3.011600	3.017300	-9.084900	27.997216	0.000254	20.892046
2505.673466	-2.985500	3.017500	-9.008400	28.027681	0.000251	20.871504
2506.674978	-3.007900	3.015500	-9.068900	28.043584	0.000252	20.891305
2507.674076	-3.015800	3.012800	-9.085200	27.995332	0.000253	20.868340
2508.674795	-3.013000	3.013400	-9.079000	27.983539	0.000255	20.873539
2509.675543	-2.986500	3.013400	-8.998500	27.969116	0.000253	20.901693
2510.675402	-3.013300	3.009700	-9.068000	28.011716	0.000254	20.895736
2511.674867	-3.006000	3.008600	-9.042400	28.053220	0.000255	20.884409
2512.675977	-3.012000	3.008900	-9.061800	28.089866	0.000252	20.882418
2513.675073	-2.998400	3.007500	-9.015900	28.080129	0.000250	20.880677
2514.675142	-3.003700	3.005100	-9.025500	28.083657	0.000252	20.879487
2515.677897	-3.005100	3.004900	-9.028600	28.104356	0.000253	20.887521
2516.677067	-2.981600	3.004800	-8.957500	28.107310	0.000251	20.875797
2517.675334	-3.002300	3.002400	-9.013100	28.109803	0.000251	20.862660
2518.677382	-3.012100	3.001500	-9.039000	28.114410	0.000250	20.883892
2519.677885	-3.036800	2.998600	-9.104800	28.138251	0.000251	20.888453
2520.680341	-3.010200	2.998000	-9.022800	28.188124	0.000250	20.888401
2521.677731	-3.020200	2.997600	-9.052700	28.195926	0.000252	20.860695
2522.679161	-2.993500	2.996900	-8.970300	28.202494	0.000252	20.868729
2523.682439	-2.999000	2.993600	-8.976300	28.142157	0.000250	20.877686
2524.678361	-3.002000	2.992500	-8.982300	28.074392	0.000253	20.874902
2525.678710	-3.013800	2.992700	-9.018800	28.057230	0.000251	20.877066
2526.680984	-3.011000	2.990100	-9.002200	28.031810	0.000251	20.870445
2527.678153	-2.999400	2.990400	-8.968500	28.034645	0.000250	20.864291
2528.678971	-3.017500	2.986500	-9.010400	27.993253	0.000249	20.865774
2529.684651	-2.997400	2.987700	-8.954200	27.942112	0.000250	20.875463
2530.679261	-2.994800	2.985100	-8.938100	27.941401	0.000250	20.871903
2531.678685	-2.981200	2.985400	-8.898600	28.005424	0.000251	20.859059
2532.682021	-2.997000	2.983000	-8.939400	27.968527	0.000248	20.859378
2533.680953	-3.001700	2.981000	-8.947600	27.982822	0.000251	20.868076
2534.680202	-3.010300	2.980700	-8.971900	27.941839	0.000249	20.874240
2535.680967	-3.021200	2.978200	-8.996400	27.920117	0.000252	20.868973
2536.681307	-3.015400	2.977200	-8.976400	27.928315	0.000250	20.872482
2537.680514	-2.999800	2.975900	-8.925600	27.935176	0.000250	20.881283
2538.681453	-2.995500	2.974700	-8.909100	27.960460	0.000249	20.861689
2539.681729	-3.000600	2.973300	-8.920500	28.001074	0.000248	20.845198
2540.682076	-2.985400	2.972400	-8.872400	28.034048	0.000250	20.878387
2541.682602	-2.992900	2.970400	-8.889100	28.040489	0.000249	20.846466
2542.682580	-3.003000	2.969100	-8.914300	28.060015	0.000248	20.860905
2543.682573	-3.006800	2.966600	-8.919400	28.098921	0.000248	20.857871
2544.683375	-3.036900	2.964400	-9.001600	28.099898	0.000249	20.877345
2545.682785	-2.987800	2.965700	-8.860300	28.124151	0.000249	20.867146
2546.684273	-2.996100	2.962600	-8.875200	28.101526	0.000250	20.859544
2547.684483	-3.008400	2.961800	-8.908900	28.110757	0.000251	20.843233
2548.684314	-2.992900	2.960800	-8.860100	28.096576	0.000249	20.851242
2549.684049	-3.017200	2.958100	-8.924800	28.132055	0.000250	20.849500
2550.684749	-2.982700	2.957100	-8.819500	28.189224	0.000248	20.862009
2551.686303	-3.014600	2.955600	-8.909300	28.202840	0.000248	20.861492
2552.685124	-3.023800	2.953000	-8.928000	28.185046	0.000248	20.858751
2553.688003	-3.001700	2.952300	-8.860600	28.192180	0.000248	20.862140
2554.685242	-2.976000	2.953000	-8.785900	28.181672	0.000248	20.851561
2555.686464	-2.995400	2.950300	-8.835900	28.131756	0.000248	20.858208
2556.687665	-3.003000	2.948500	-8.853400	28.080313	0.000249	20.857157
2557.687604	-3.021000	2.947600	-8.903800	27.983159	0.000248	20.863674
2558.686440	-2.990700	2.945800	-8.808900	28.005187	0.000250	20.827054
2559.692333	-3.019500	2.943200	-8.886100	27.989386	0.000251	20.849554
2560.690627	-3.018900	2.942000	-8.880800	28.005334	0.000250	20.860865
2561.688398	-3.017800	2.940900	-8.873800	28.063897	0.000249	20.836839
2562.692916	-3.006000	2.938900	-8.832600	28.106426	0.000247	20.837452
2563.688691	-3.021300	2.936800	-8.872000	28.113175	0.000249	20.854201
2564.689097	-2.984200	2.935700	-8.759300	28.102633	0.000249	20.862081
2565.695530	-3.009800	2.934700	-8.831700	28.101614	0.000247	20.838771
2566.689021	-3.003200	2.931700	-8.803400	28.128102	0.000250	20.862590
2567.693291	-3.003300	2.932200	-8.805700	28.176460	0.000249	20.842521
2568.693912	-2.990700	2.929000	-8.758600	28.213093	0.000248	20.859013
2569.690888	-2.966100	2.929800	-8.688600	28.240837	0.000248	20.842376
2570.691221	-2.999400	2.926700	-8.777200	28.275130	0.000247	20.854616
2571.695274	-3.002200	2.926100	-8.782600	28.271833	0.000249	20.847504
2572.690499	-3.000200	2.923000	-8.768500	28.205935	0.000248	20.831419
2573.690338	-3.013500	2.921000	-8.801500	28.177017	0.000248	20.831703
2574.697298	-2.991600	2.921400	-8.738600	28.188167	0.000249	20.836289
2575.690299	-3.030400	2.917600	-8.840700	28.155618	0.000250	20.842401
2576.693371	-2.989500	2.916400	-8.717200	28.153134	0.000249	20.868824
2577.695582	-2.989700	2.916200	-8.717800	28.158059	0.000247	20.829686
2578.691225	-3.014600	2.914600	-8.785700	28.193956	0.000249	20.839747
2579.691910	-2.998300	2.913200	-8.734700	28.178654	0.000248	20.832876
2580.695920	-3.004500	2.910600	-8.744300	28.159308	0.000247	20.818617
2581.695257	-3.003800	2.908100	-8.734000	28.136281	0.000248	20.839531
2582.692633	-3.006700	2.906700	-8.738300	28.182293	0.000249	20.834644
2583.697795	-3.019700	2.903900	-8.768300	28.206133	0.000246	20.825454
2584.695400	-3.003500	2.904200	-8.721500	28.173233	0.000247	20.825522
2585.696201	-3.016200	2.901800	-8.751800	28.104057	0.000248	20.817049
2586.695156	-2.961100	2.903400	-8.595400	28.072960	0.000247	20.831738
2587.694595	-2.984200	2.898200	-8.647200	28.063155	0.000248	20.838937
2588.694274	-2.992500	2.897100	-8.669100	28.129783	0.000248	20.829670
2589.694748	-3.001800	2.894200	-8.686200	28.186926	0.000249	20.837885
2590.694726	-2.998700	2.892700	-8.673100	28.180204	0.000247	20.828747
2591.695674	-3.006400	2.891700	-8.692700	28.170938	0.000246	20.836963
2592.694978	-2.984000	2.890600	-8.624100	28.195198	0.000248	20.822032
2593.699320	-3.017200	2.888400	-8.713000	28.159747	0.000247	20.828541
2594.695488	-2.980100	2.886400	-8.600500	28.196131	0.000247	20.824393
2595.695266	-2.973500	2.884300	-8.575200	28.243467	0.000246	20.834118
2596.695774	-2.989800	2.881400	-8.613700	28.265217	0.000247	20.825196
2597.695510	-2.979300	2.880600	-8.580100	28.271416	0.000245	20.817213
2598.695317	-2.970900	2.878100	-8.548400	28.275500	0.000247	20.824170
2599.695525	-3.000900	2.875500	-8.628000	28.271124	0.000246	20.819290
2600.694855	-3.006700	2.874300	-8.640800	28.297419	0.000248	20.836282
2601.697653	-2.982600	2.873700	-8.570900	28.309398	0.000249	20.816575
2602.696961	-2.999800	2.870600	-8.610200	28.289782	0.000247	20.811523
2603.695810	-2.995600	2.868000	-8.589400	28.239597	0.000246	20.819790
2604.704741	-2.983000	2.867100	-8.551800	28.215424	0.000248	20.823429
2605.697805	-2.986700	2.865300	-8.556900	28.189957	0.000247	20.813911
2606.697590	-2.983500	2.861600	-8.537000	28.132926	0.000248	20.791109
2607.698763	-2.980800	2.860900	-8.526700	28.097908	0.000246	20.808962
2608.698547	-2.984600	2.857900	-8.528500	28.113323	0.000248	20.829696
2609.698585	-2.979500	2.857200	-8.512000	28.152682	0.000248	20.813368
2610.698989	-2.996200	2.855200	-8.554100	28.220742	0.000247	20.828783
2611.697584	-3.026800	2.852000	-8.631500	28.238921	0.000246	20.833808
2612.697681	-3.000500	2.850300	-8.551600	28.228928	0.000246	20.826118
2613.697718	-3.001300	2.848800	-8.549400	28.183741	0.000246	20.816187
2614.697998	-3.017000	2.845200	-8.583000	28.148589	0.000247	20.827266
2615.699395	-3.035100	2.844600	-8.632100	28.121451	0.000246	20.795679
2616.699469	-2.990800	2.844100	-8.505600	28.147587	0.000245	20.798282
2617.700624	-3.010900	2.840600	-8.551100	28.193641	0.000246	20.822360
2618.700770	-2.999500	2.839500	-8.515600	28.243450	0.000248	20.819403
2619.701799	-2.983600	2.837200	-8.464300	28.283413	0.000246	20.814593
2620.701414	-2.959500	2.834900	-8.387900	28.304073	0.000247	20.792247
2621.704085	-2.997300	2.832200	-8.488600	28.311342	0.000247	20.790083
2622.702251	-3.012100	2.830400	-8.524600	28.388006	0.000246	20.811326
2623.703998	-3.040400	2.825700	-8.590000	28.392346	0.000248	20.807162
2624.703966	-2.985900	2.825700	-8.436400	28.363776	0.000247	20.790247
2625.706132	-3.008200	2.823100	-8.491400	28.311085	0.000247	20.808317
2626.704012	-2.992000	2.821000	-8.439800	28.272735	0.000246	20.813800
2627.705083	-2.976800	2.819000	-8.391100	28.302112	0.000247	20.789799
2628.707237	-2.995300	2.817600	-8.439000	28.315170	0.000248	20.786825
2629.703942	-2.983300	2.815300	-8.397100	28.330496	0.000245	20.800360
2630.703569	-2.991800	2.811900	-8.411800	28.377826	0.000246	20.818145
2631.703825	-2.984500	2.811500	-8.390300	28.332113	0.000248	20.800092
2632.705404	-3.000500	2.806600	-8.419800	28.323175	0.000248	20.787299
2633.704988	-2.998800	2.805200	-8.411000	28.355274	0.000247	20.809662
2634.704892	-3.006300	2.801600	-8.420800	28.386318	0.000247	20.803937
2635.708361	-3.006000	2.800400	-8.415800	28.433774	0.000247	20.804782
2636.709118	-3.036600	2.797600	-8.493700	28.497038	0.000248	20.782668
2637.705532	-2.995700	2.795700	-8.373300	28.536597	0.000249	20.804014
2638.709245	-2.989200	2.793000	-8.347600	28.590714	0.000249	20.793083
2639.708389	-2.988300	2.789900	-8.335600	28.587204	0.000248	20.768685
2640.707438	-3.014900	2.785800	-8.397100	28.571565	0.000247	20.807937
2641.708282	-3.031400	2.784700	-8.440500	28.556131	0.000248	20.807566
2642.712276	-2.982200	2.782200	-8.296700	28.525304	0.000247	20.801651
2643.711033	-3.006000	2.778100	-8.349800	28.504802	0.000247	20.817988
2644.712622	-3.007400	2.775100	-8.344200	28.478144	0.000247	20.809634
2645.712588	-2.996600	2.774300	-8.312500	28.453138	0.000247	20.811005
2646.713609	-2.982300	2.772600	-8.267400	28.432170	0.000246	20.815021
2647.713525	-2.992200	2.769100	-8.285100	28.441322	0.000248	20.794839
2648.712021	-2.989600	2.764600	-8.263700	28.402813	0.000246	20.785934
2649.710259	-3.004700	2.761700	-8.297000	28.361144	0.000246	20.806564
2650.712168	-3.005800	2.760200	-8.295200	28.282707	0.000249	20.782589
2651.712475	-2.978700	2.757800	-8.212800	28.284728	0.000247	20.799323
2652.716817	-2.990500	2.755000	-8.237700	28.288743	0.000246	20.793408
2653.713150	-2.999300	2.751800	-8.252100	28.321535	0.000246	20.769526
2654.717232	-3.019400	2.746700	-8.292300	28.401965	0.000247	20.803097
2655.712651	-2.972500	2.745400	-8.158500	28.419301	0.000247	20.790683
2656.715036	-3.000700	2.741200	-8.224500	28.433367	0.000245	20.801527
2657.713850	-3.000300	2.739600	-8.218900	28.414583	0.000245	20.803950
2658.713923	-2.998100	2.735800	-8.200800	28.383566	0.000246	20.776984
2659.713979	-2.995400	2.734000	-8.188200	28.363017	0.000244	20.793751
2660.715741	-3.002200	2.730000	-8.195400	28.354207	0.000246	20.775397
2661.715396	-2.994200	2.727000	-8.164500	28.349694	0.000247	20.803095
2662.716452	-3.003000	2.721900	-8.172500	28.327930	0.000245	20.798725
2663.715723	-3.006500	2.719800	-8.176300	28.335311	0.000246	20.810898
2664.716267	-2.982500	2.716800	-8.101900	28.336621	0.000245	20.815536
2665.720460	-3.019000	2.710400	-8.181200	28.332220	0.000244	20.812053
2666.717113	-3.026200	2.706700	-8.189200	28.325172	0.000246	20.784568
2667.720314	-2.979700	2.705700	-8.060400	28.388231	0.000245	20.806337
2668.719996	-3.003100	2.703000	-8.115900	28.428777	0.000247	20.777939
2669.718616	-3.014700	2.697100	-8.130000	28.376356	0.000247	20.799121
2670.719628	-2.956000	2.694400	-7.963900	28.398453	0.000247	20.800509
2671.721414	-3.021800	2.689600	-8.126600	28.430926	0.000246	20.796699
2672.719044	-3.008900	2.686200	-8.081500	28.470837	0.000246	20.792793
2673.719062	-2.990300	2.684000	-8.025200	28.510260	0.000246	20.812104
2674.727572	-3.020600	2.678700	-8.090100	28.593379	0.000246	20.797664
2675.719343	-3.011100	2.675500	-8.055300	28.640646	0.000245	20.782681
2676.721049	-2.982900	2.673200	-7.972500	28.709137	0.000247	20.819897
2677.723226	-2.977400	2.668200	-7.943700	28.750535	0.000246	20.807544
2678.720046	-3.002200	2.663900	-7.997200	28.704695	0.000247	20.823010
2679.728728	-3.001600	2.659600	-7.982200	28.686207	0.000245	20.793009
2680.722049	-2.953600	2.656900	-7.847000	28.678727	0.000246	20.809656
2681.721690	-3.001500	2.651800	-7.958300	28.695408	0.000247	20.798957
2682.721220	-2.996400	2.646800	-7.929800	28.703308	0.000247	20.795061
2683.721867	-2.972800	2.642500	-7.854400	28.718535	0.000246	20.798544
2684.721821	-2.981200	2.639700	-7.868500	28.739958	0.000246	20.793570
2685.721441	-3.033900	2.635000	-7.993100	28.748037	0.000246	20.809294
2686.725122	-3.016900	2.628900	-7.930900	28.785112	0.000246	20.792587
2687.723385	-2.979500	2.627200	-7.826600	28.817436	0.000245	20.805708
2688.724658	-3.014500	2.620900	-7.899800	28.824711	0.000246	20.789803
2689.727386	-3.004200	2.616500	-7.859900	28.802922	0.000244	20.798199
2690.724493	-3.024100	2.609600	-7.890000	28.769014	0.000246	20.810984
2691.727016	-3.003400	2.607100	-7.829600	28.704490	0.000246	20.805734
2692.726610	-3.024400	2.601200	-7.866600	28.677195	0.000245	20.793889
2693.725049	-3.007100	2.595600	-7.804700	28.623999	0.000247	20.795786
2694.726413	-3.025300	2.591100	-7.837300	28.595486	0.000246	20.805001
2695.726845	-2.992600	2.587400	-7.741400	28.597926	0.000247	20.813623
2696.727105	-3.010500	2.580600	-7.767700	28.572631	0.000246	20.809484
2697.727229	-2.995100	2.575800	-7.713100	28.596821	0.000247	20.807295
2698.728287	-3.002600	2.569900	-7.715300	28.652818	0.000247	20.803001
2699.724034	-3.009900	2.566100	-7.721600	28.636873	0.000246	20.825347
2700.727327	-3.002300	2.559400	-7.683700	28.619428	0.000247	20.823425
2701.729972	-2.991800	2.553100	-7.637500	28.660950	0.000246	20.798389
2702.727406	-2.965600	2.547500	-7.554400	28.689281	0.000247	20.818864
2703.726458	-3.009300	2.542400	-7.649900	28.726992	0.000247	20.821761
2704.730587	-3.019000	2.534400	-7.650000	28.718159	0.000248	20.801959
2705.728741	-2.988800	2.528400	-7.556100	28.693364	0.000247	20.824873
2706.730145	-3.003100	2.523600	-7.578200	28.718125	0.000246	20.809036
2707.732443	-3.010100	2.518200	-7.579900	28.773405	0.000246	20.801182
2708.729940	-3.020800	2.511100	-7.584700	28.835889	0.000247	20.831408
2709.730399	-2.973700	2.505600	-7.450100	28.910014	0.000247	20.806985
2710.732410	-3.058300	2.498500	-7.640300	28.954101	0.000245	20.807778
