LabVIEW Measurement	
Writer_Version	2
Reader_Version	2
Separator	Tab
Decimal_Separator	.
Multi_Headings	No
X_Columns	One
Time_Pref	Absolute
Operator	admin
Description	Clolumns are: time, Current, Voltage, Power, Battery Temp, and Chamber Temp
Date	2024/08/16
Time	13:06:06.104549407958984375
***End_of_Header***	
	
Channels	6						
Samples	1	1	1	1	1	1	
Date	2024/08/21	2024/08/21	2024/08/21	2024/08/21	2024/08/21	2024/08/21	
Time	18:58:10.3453655242919921875	18:58:10.3503694534301757812	18:58:10.3563656806945800781	18:58:10.3253645896911621094	18:58:10.3253645896911621094	18:58:10.3253645896911621094	
X_Dimension	Time	Time	Time	Time	Time	Time	
X0	0.0000000000000000E+0	0.0000000000000000E+0	0.0000000000000000E+0	0.0000000000000000E+0	0.0000000000000000E+0	0.0000000000000000E+0	
Delta_X	1.000000	1.000000	1.000000	1.000000	1.000000	1.000000	
***End_of_Header***							
X_Value	Untitled	Untitled 1	Untitled 2	Untitled 3	Untitled 4	Untitled 5	Comment
0.000000	0.025990	4.110300	0.106830	20.983624	0.000996	20.718110
0.995003	-3.000800	3.958600	-11.877000	20.971469	0.000993	20.694572
1.994002	-2.990400	3.949900	-11.812000	20.960216	0.000994	20.721251
2.994518	-2.985400	3.946600	-11.781000	20.977682	0.000994	20.713116
3.995465	-2.998100	3.941100	-11.814000	20.962807	0.000991	20.688754
4.996439	-3.008900	3.937500	-11.846000	20.975109	0.000992	20.709593
5.997445	-3.012600	3.935100	-11.854000	20.969919	0.000991	20.723844
6.997679	-2.980000	3.932800	-11.719000	20.955071	0.000989	20.703302
7.996784	-3.011000	3.930300	-11.833000	20.988907	0.000989	20.725765
8.997795	-3.020800	3.927400	-11.862000	20.986961	0.000988	20.711016
9.998793	-2.968400	3.927200	-11.656000	20.965950	0.000988	20.716081
10.998654	-2.987300	3.925500	-11.725000	20.995117	0.000987	20.707794
11.998655	-2.971900	3.924000	-11.661000	20.988455	0.000986	20.702079
12.998729	-2.985100	3.921300	-11.704000	20.975005	0.000986	20.696686
14.000731	-3.014300	3.919700	-11.814000	20.972111	0.000985	20.702327
15.003628	-3.022600	3.918600	-11.843000	20.991873	0.000985	20.692694
16.000621	-2.995400	3.917300	-11.732000	20.975355	0.000983	20.710788
17.001791	-2.998300	3.917500	-11.745000	20.999781	0.000983	20.702027
18.004792	-3.021400	3.915800	-11.830000	20.993293	0.000982	20.693640
19.001791	-3.018800	3.914000	-11.815000	20.997136	0.000981	20.712183
20.001421	-3.011900	3.913300	-11.785000	21.012929	0.000981	20.717549
21.004470	-3.000700	3.914600	-11.745000	21.023507	0.000980	20.691617
22.003940	-2.986400	3.911900	-11.680000	21.011182	0.000980	20.712007
23.003939	-2.992900	3.911200	-11.705000	21.034584	0.000980	20.695585
24.006830	-3.005800	3.908800	-11.748000	21.033688	0.000980	20.703224
25.003834	-3.011400	3.909100	-11.771000	21.037801	0.000977	20.704967
26.003833	-2.993200	3.909400	-11.701000	21.036828	0.000979	20.686449
27.006831	-3.021500	3.907300	-11.805000	21.033386	0.000977	20.705766
28.004755	-2.996600	3.906400	-11.705000	21.029368	0.000978	20.713602
29.005169	-2.987800	3.906100	-11.670000	21.068588	0.000977	20.701146
30.008166	-3.000700	3.906500	-11.722000	21.050899	0.000975	20.709059
31.005652	-3.001000	3.904600	-11.715000	21.070856	0.000975	20.690138
32.005647	-3.006300	3.906000	-11.741000	21.076919	0.000974	20.688142
33.008478	-3.005100	3.904300	-11.732000	21.065791	0.000975	20.712575
34.006483	-2.999400	3.903700	-11.707000	21.088940	0.000976	20.700641
35.006833	-2.993000	3.904100	-11.684000	21.068558	0.000976	20.707756
36.009838	-2.982300	3.903100	-11.640000	21.079608	0.000973	20.710748
37.009489	-2.980300	3.903600	-11.632000	21.084746	0.000973	20.694549
38.007489	-2.991800	3.902200	-11.673000	21.085818	0.000975	20.694673
39.009531	-3.007300	3.901500	-11.732000	21.080155	0.000971	20.702285
40.008533	-2.992000	3.900000	-11.668000	21.097243	0.000973	20.704679
41.008531	-2.985200	3.900200	-11.642000	21.115202	0.000973	20.696089
42.011529	-3.011900	3.898300	-11.741000	21.129897	0.000971	20.714109
43.009700	-3.001200	3.898700	-11.699000	21.100356	0.000970	20.694516
44.010700	-3.006700	3.900100	-11.725000	21.110209	0.000971	20.693940
45.013698	-2.993800	3.897200	-11.667000	21.133960	0.000972	20.708690
46.010385	-3.019800	3.897100	-11.767000	21.151146	0.000972	20.707863
47.010385	-2.989000	3.897200	-11.647000	21.150496	0.000970	20.687771
48.011175	-2.986100	3.897600	-11.635000	21.165737	0.000970	20.702070
49.010177	-3.011800	3.897200	-11.736000	21.163988	0.000971	20.701742
50.011273	-3.001400	3.895200	-11.690000	21.129358	0.000968	20.700767
51.013537	-2.993300	3.895600	-11.660000	21.173216	0.000970	20.694377
52.010536	-3.000600	3.895900	-11.688000	21.182344	0.000968	20.689283
53.012503	-2.964000	3.897500	-11.551000	21.212501	0.000969	20.691002
54.013501	-3.007900	3.894100	-11.713000	21.194512	0.000967	20.706199
55.013265	-3.008300	3.892800	-11.709000	21.200645	0.000969	20.711386
56.013267	-2.998800	3.893400	-11.675000	21.204758	0.000967	20.700801
57.015857	-3.003500	3.895100	-11.698000	21.221993	0.000966	20.715198
58.013857	-2.991300	3.894300	-11.647000	21.240948	0.000967	20.716142
59.014268	-3.003400	3.892200	-11.689000	21.225231	0.000964	20.728869
60.016266	-3.003900	3.892800	-11.693000	21.232539	0.000967	20.691607
61.014859	-3.003000	3.891100	-11.684000	21.241342	0.000964	20.719855
62.015863	-2.987100	3.892500	-11.627000	21.239667	0.000962	20.725767
63.020949	-2.996800	3.891800	-11.661000	21.225370	0.000965	20.711937
64.016658	-2.981800	3.893200	-11.608000	21.273837	0.000965	20.721543
65.017698	-2.995600	3.890800	-11.654000	21.245947	0.000963	20.706918
66.020741	-2.984300	3.890900	-11.610000	21.274657	0.000965	20.728054
67.018738	-2.990000	3.889500	-11.629000	21.306360	0.000962	20.720415
68.018739	-3.021500	3.888900	-11.749000	21.273032	0.000961	20.716945
69.020806	-3.004700	3.889400	-11.685000	21.284653	0.000961	20.718140
70.017842	-3.016900	3.889300	-11.733000	21.291489	0.000962	20.725453
71.017844	-2.997000	3.888700	-11.654000	21.288621	0.000962	20.722109
72.018843	-2.995400	3.889700	-11.651000	21.314336	0.000961	20.708480
73.019843	-2.999800	3.887500	-11.662000	21.294429	0.000962	20.703262
74.020027	-3.005700	3.887600	-11.684000	21.310617	0.000961	20.737478
75.021026	-2.981000	3.888200	-11.589000	21.321493	0.000960	20.721805
76.022542	-2.989000	3.888300	-11.621000	21.322665	0.000960	20.703061
77.020098	-2.995600	3.887200	-11.644000	21.371802	0.000961	20.717610
78.020470	-2.993300	3.887300	-11.635000	21.361726	0.000959	20.731237
79.020270	-3.027000	3.885200	-11.759000	21.318596	0.000960	20.728864
80.019267	-2.996100	3.886400	-11.643000	21.335858	0.000961	20.711046
81.019788	-3.002200	3.886500	-11.667000	21.352545	0.000961	20.713516
82.020790	-2.985000	3.886700	-11.600000	21.344911	0.000960	20.719155
83.019843	-3.011700	3.885800	-11.702000	21.361600	0.000961	20.717360
84.019818	-3.025900	3.885000	-11.755000	21.365615	0.000960	20.709048
85.022639	-3.028800	3.884800	-11.766000	21.373446	0.000961	20.721625
86.022642	-3.002900	3.885600	-11.667000	21.380480	0.000962	20.715386
87.020951	-2.998600	3.885800	-11.651000	21.399784	0.000961	20.718579
88.021755	-3.004900	3.885600	-11.675000	21.388061	0.000960	20.720126
89.020916	-3.000200	3.884900	-11.653000	21.408563	0.000960	20.711241
90.024943	-3.001100	3.885100	-11.659000	21.390128	0.000961	20.717927
91.023942	-2.990200	3.886200	-11.620000	21.398110	0.000960	20.709792
92.022940	-3.009900	3.884400	-11.691000	21.395041	0.000961	20.724266
93.022955	-2.993500	3.885100	-11.628000	21.406562	0.000960	20.729629
94.025939	-3.004100	3.883000	-11.664000	21.412922	0.000962	20.727931
95.022462	-2.997500	3.883500	-11.639000	21.418685	0.000962	20.718050
96.022461	-3.012100	3.882300	-11.693000	21.427188	0.000963	20.714704
97.025110	-3.003100	3.883700	-11.662000	21.427186	0.000958	20.726556
98.026107	-2.995600	3.883500	-11.633000	21.449732	0.000962	20.728252
99.023113	-3.009500	3.882100	-11.682000	21.446935	0.000961	20.738256
100.026112	-3.007300	3.882900	-11.677000	21.454393	0.000960	20.718216
101.025316	-2.990300	3.883000	-11.610000	21.468831	0.000962	20.727922
102.023539	-3.003200	3.882100	-11.658000	21.467883	0.000962	20.728396
103.023622	-2.992900	3.883400	-11.622000	21.481947	0.000961	20.738201
104.023619	-3.009500	3.881900	-11.680000	21.511074	0.000961	20.729887
105.025764	-3.014800	3.880300	-11.696000	21.490272	0.000959	20.755541
106.023643	-3.011600	3.880600	-11.686000	21.496381	0.000959	20.726090
107.023410	-3.013400	3.881700	-11.695000	21.507226	0.000958	20.734572
108.023135	-3.021000	3.880200	-11.720000	21.519493	0.000961	20.744476
109.023482	-2.993500	3.880500	-11.616000	21.517822	0.000962	20.751813
110.023886	-2.995600	3.879600	-11.620000	21.534777	0.000959	20.757400
111.025888	-3.005000	3.879100	-11.656000	21.545001	0.000959	20.739180
112.024884	-3.006000	3.879600	-11.660000	21.532928	0.000960	20.735160
113.025900	-3.016700	3.880400	-11.705000	21.543651	0.000960	20.748261
114.025517	-2.995400	3.880500	-11.622000	21.556319	0.000960	20.746712
115.027074	-3.018200	3.877800	-11.701000	21.556141	0.000959	20.748905
116.027074	-3.002300	3.879100	-11.645000	21.543993	0.000959	20.734852
117.027376	-3.015700	3.878300	-11.693000	21.555839	0.000959	20.734378
118.029894	-3.015400	3.877800	-11.692000	21.565612	0.000959	20.739890
119.028279	-3.001700	3.878400	-11.641000	21.548405	0.000962	20.754441
120.029278	-2.998600	3.878900	-11.629000	21.580848	0.000961	20.767939
121.031418	-3.004500	3.878500	-11.652000	21.587254	0.000960	20.751116
122.030418	-2.995200	3.877600	-11.613000	21.612694	0.000960	20.750495
123.032527	-2.997600	3.878700	-11.626000	21.622019	0.000960	20.738963
124.033655	-2.994400	3.878500	-11.612000	21.608277	0.000961	20.742755
125.031692	-2.995500	3.877300	-11.613000	21.611269	0.000960	20.764716
126.031235	-2.994300	3.878200	-11.613000	21.638924	0.000960	20.753036
127.031322	-2.988800	3.878100	-11.590000	21.641541	0.000961	20.755655
128.036254	-3.003900	3.877400	-11.646000	21.648922	0.000960	20.734117
129.033253	-2.991400	3.878500	-11.600000	21.656128	0.000961	20.753183
130.034469	-2.989000	3.877600	-11.588000	21.675279	0.000960	20.736312
131.037474	-2.989000	3.877400	-11.589000	21.669144	0.000961	20.769529
132.035572	-3.002300	3.875100	-11.633000	21.672610	0.000963	20.737909
133.035573	-3.008600	3.875400	-11.659000	21.688342	0.000962	20.762663
134.038378	-3.004300	3.875400	-11.642000	21.711659	0.000962	20.746643
135.036757	-2.972400	3.877800	-11.525000	21.720061	0.000963	20.762164
136.037760	-2.975500	3.877000	-11.535000	21.709688	0.000963	20.752256
137.038482	-2.994100	3.875600	-11.604000	21.710832	0.000963	20.738228
138.038786	-2.985700	3.875800	-11.571000	21.719085	0.000964	20.731789
139.037517	-3.000900	3.875600	-11.629000	21.727313	0.000964	20.731963
140.038517	-3.015000	3.876000	-11.684000	21.741200	0.000963	20.773837
141.038414	-3.021700	3.873600	-11.702000	21.741500	0.000962	20.773189
142.039416	-2.978900	3.874100	-11.540000	21.757407	0.000964	20.744064
143.041016	-3.011300	3.873700	-11.664000	21.767904	0.000962	20.765002
144.039534	-2.978600	3.874400	-11.539000	21.757107	0.000964	20.768895
145.042781	-2.999500	3.872700	-11.616000	21.756655	0.000962	20.747105
146.042806	-2.999500	3.872600	-11.615000	21.766031	0.000963	20.750324
147.040806	-3.014800	3.873700	-11.677000	21.778646	0.000966	20.787133
148.041321	-2.980200	3.874400	-11.543000	21.770042	0.000964	20.764771
149.041317	-2.999000	3.874400	-11.619000	21.776773	0.000963	20.748273
150.040804	-2.988400	3.872500	-11.571000	21.793029	0.000966	20.761225
151.040804	-2.995100	3.873400	-11.599000	21.803501	0.000964	20.757007
152.042770	-2.974600	3.873000	-11.520000	21.806118	0.000963	20.754885
153.040774	-2.999600	3.871900	-11.613000	21.804248	0.000965	20.769135
154.040459	-2.998300	3.874000	-11.613000	21.818283	0.000966	20.777967
155.042460	-2.997600	3.873200	-11.609000	21.805891	0.000965	20.774099
156.040182	-2.985000	3.872600	-11.558000	21.840323	0.000964	20.742653
157.040748	-3.002100	3.872800	-11.625000	21.839647	0.000963	20.774694
158.041746	-2.987200	3.871600	-11.564000	21.831569	0.000965	20.783678
159.041395	-3.009500	3.870600	-11.648000	21.851490	0.000965	20.764736
160.041283	-3.015300	3.870800	-11.671000	21.838797	0.000966	20.762463
161.043404	-3.018700	3.870300	-11.682000	21.853108	0.000968	20.771572
162.044191	-3.026100	3.869700	-11.709000	21.871035	0.000966	20.780506
163.042796	-2.996700	3.871700	-11.602000	21.874225	0.000967	20.778010
164.044284	-3.005200	3.870300	-11.630000	21.882851	0.000967	20.786170
165.044828	-3.008200	3.870400	-11.642000	21.868890	0.000967	20.755599
166.043611	-3.012900	3.870000	-11.658000	21.864825	0.000967	20.771446
167.046609	-3.010000	3.869600	-11.646000	21.869137	0.000969	20.788564
168.046661	-2.991600	3.869700	-11.575000	21.890180	0.000970	20.801567
169.044663	-3.002500	3.868600	-11.614000	21.881977	0.000967	20.781501
170.045267	-2.990500	3.869000	-11.569000	21.896811	0.000969	20.794927
171.044264	-2.985600	3.869500	-11.552000	21.899827	0.000970	20.772341
172.045313	-2.996100	3.867900	-11.587000	21.908155	0.000972	20.770246
173.047312	-3.000100	3.869000	-11.607000	21.916954	0.000969	20.774312
174.047086	-2.994600	3.869400	-11.587000	21.924832	0.000970	20.784568
175.046148	-3.020900	3.867900	-11.684000	21.935902	0.000970	20.770519
176.047202	-2.985200	3.869200	-11.549000	21.925456	0.000970	20.780926
177.047806	-3.012300	3.866700	-11.645000	21.941710	0.000972	20.777282
178.047222	-3.011400	3.867600	-11.646000	21.930017	0.000970	20.767948
179.048366	-2.995300	3.867900	-11.585000	21.957092	0.000972	20.785566
180.048363	-3.014500	3.867400	-11.657000	21.977534	0.000971	20.784693
181.048767	-2.980900	3.867100	-11.527000	21.983965	0.000973	20.775009
182.051769	-3.009900	3.865300	-11.632000	21.980302	0.000972	20.774661
183.048418	-2.987200	3.868100	-11.553000	21.999844	0.000973	20.789956
184.050417	-2.990300	3.866600	-11.561000	22.011686	0.000973	20.780947
185.053401	-3.016100	3.866000	-11.660000	22.020712	0.000974	20.777655
186.050975	-2.994900	3.866700	-11.579000	22.016296	0.000974	20.807374
187.050974	-3.015900	3.864900	-11.655000	22.030979	0.000975	20.772286
188.052151	-2.976200	3.866700	-11.506000	22.005526	0.000975	20.805128
189.049196	-2.998600	3.866500	-11.592000	22.033820	0.000973	20.810691
190.050041	-3.003900	3.865400	-11.611000	22.012929	0.000976	20.813487
191.051041	-3.014900	3.863800	-11.647000	22.049996	0.000977	20.806497
192.051681	-3.005300	3.864800	-11.613000	22.066749	0.000977	20.800035
193.051684	-2.977900	3.865800	-11.511000	22.046706	0.000976	20.799884
194.052912	-2.985100	3.866600	-11.541000	22.044087	0.000976	20.817651
195.054925	-3.016200	3.863500	-11.651000	22.031847	0.000977	20.792122
196.055369	-3.000200	3.864800	-11.594000	22.069215	0.000976	20.786856
197.054409	-3.003800	3.863800	-11.605000	22.055652	0.000980	20.818797
198.056435	-3.015600	3.863700	-11.650000	22.079234	0.000977	20.799731
199.055634	-3.015300	3.863600	-11.648000	22.075768	0.000979	20.807167
200.054631	-2.984000	3.864100	-11.530000	22.096731	0.000979	20.799705
201.055634	-3.006600	3.862700	-11.612000	22.074523	0.000979	20.808765
202.055632	-3.012900	3.862900	-11.638000	22.105758	0.000980	20.794043
203.055890	-2.995600	3.862300	-11.569000	22.111889	0.000980	20.800655
204.057947	-3.010300	3.862400	-11.626000	22.117920	0.000979	20.798632
205.056332	-2.966000	3.864400	-11.461000	22.101370	0.000979	20.792495
206.058383	-2.998100	3.861900	-11.577000	22.112063	0.000980	20.826433
207.061940	-3.006100	3.861900	-11.608000	22.099000	0.000982	20.801502
208.060898	-2.992000	3.862000	-11.553000	22.121185	0.000981	20.793367
209.060900	-2.984200	3.862400	-11.526000	22.122904	0.000984	20.821640
210.062069	-2.998700	3.863200	-11.583000	22.145314	0.000983	20.799032
211.062104	-2.991800	3.861700	-11.553000	22.128662	0.000985	20.807016
212.061890	-2.990300	3.861700	-11.546000	22.149178	0.000983	20.797684
213.061716	-2.990000	3.860600	-11.541000	22.186616	0.000984	20.811933
214.062098	-3.005600	3.859800	-11.599000	22.166874	0.000982	20.814453
215.063097	-3.008900	3.859100	-11.610000	22.173579	0.000985	20.821640
216.063660	-2.999400	3.859400	-11.575000	22.199151	0.000985	20.805043
217.061541	-2.995400	3.860700	-11.563000	22.185071	0.000985	20.788575
218.061540	-2.972800	3.861700	-11.478000	22.183970	0.000985	20.823034
219.061400	-3.022400	3.858400	-11.661000	22.204360	0.000985	20.805991
220.061397	-3.004500	3.858900	-11.593000	22.215550	0.000987	20.819092
221.061742	-2.998000	3.860200	-11.572000	22.216645	0.000989	20.818291
222.062742	-2.994500	3.860300	-11.558000	22.219712	0.000987	20.814723
223.061655	-3.019400	3.857700	-11.647000	22.231850	0.000988	20.815972
224.063656	-2.999300	3.859300	-11.574000	22.250917	0.000991	20.814674
225.062652	-3.011700	3.859000	-11.619000	22.225519	0.000989	20.813899
226.062655	-2.987700	3.860000	-11.531000	22.235761	0.000988	20.816569
227.062200	-3.006300	3.858300	-11.598000	22.223722	0.000989	20.833911
228.063381	-2.986900	3.859400	-11.527000	22.230850	0.000990	20.816867
229.062380	-3.007200	3.857800	-11.600000	22.222649	0.000990	20.812923
230.062711	-3.000100	3.858200	-11.574000	22.221925	0.000989	20.818363
231.063706	-3.005800	3.858800	-11.598000	22.234861	0.000992	20.834158
232.063298	-3.002700	3.857500	-11.581000	22.247895	0.000991	20.822079
233.065305	-2.990500	3.857200	-11.534000	22.272094	0.000992	20.820705
234.064726	-3.012700	3.858300	-11.623000	22.290139	0.000992	20.822652
235.066730	-3.020800	3.855800	-11.646000	22.294324	0.000993	20.824946
236.068709	-2.991600	3.857700	-11.539000	22.317252	0.000993	20.839369
237.068047	-2.993400	3.857400	-11.546000	22.300553	0.000993	20.831183
238.066596	-3.015200	3.856700	-11.628000	22.302245	0.000995	20.852317
239.068314	-3.011900	3.855900	-11.612000	22.329534	0.000996	20.828908
240.067312	-3.006000	3.856700	-11.592000	22.309446	0.000994	20.851941
241.069673	-2.994400	3.856000	-11.545000	22.338379	0.000996	20.849618
242.069655	-2.986000	3.857400	-11.517000	22.345780	0.000995	20.809615
243.069688	-2.975900	3.856800	-11.476000	22.356095	0.000997	20.837486
244.071689	-3.010800	3.854700	-11.603000	22.372268	0.000998	20.854156
245.071092	-2.990200	3.855300	-11.527000	22.368901	0.000998	20.855999
246.072449	-2.990200	3.856600	-11.531000	22.382083	0.000997	20.839329
247.074239	-2.983400	3.856500	-11.505000	22.378693	0.000998	20.834985
248.071723	-3.016000	3.853500	-11.621000	22.397406	0.000998	20.859413
249.072722	-3.020500	3.854200	-11.640000	22.387661	0.000999	20.843492
250.073506	-2.985500	3.853600	-11.504000	22.368172	0.001000	20.826347
251.072527	-3.005500	3.853400	-11.579000	22.390775	0.000999	20.863679
252.072527	-3.010100	3.853000	-11.596000	22.384294	0.001002	20.859085
253.073531	-3.002400	3.853800	-11.569000	22.391868	0.001000	20.837274
254.073943	-3.007600	3.853300	-11.588000	22.392640	0.000998	20.858434
255.073943	-2.973600	3.853700	-11.458000	22.366298	0.001003	20.851022
256.075556	-3.007200	3.851600	-11.581000	22.414070	0.001003	20.850022
257.074342	-3.004800	3.854100	-11.580000	22.416187	0.001004	20.855462
258.073394	-3.002100	3.853900	-11.569000	22.429817	0.001003	20.848723
259.074206	-2.991200	3.852700	-11.523000	22.430763	0.001004	20.864842
260.073208	-3.011800	3.853400	-11.605000	22.450649	0.001005	20.861049
261.073821	-3.014900	3.851000	-11.609000	22.473997	0.001004	20.848871
262.073819	-2.988200	3.853500	-11.514000	22.419199	0.001005	20.875072
263.073692	-3.009500	3.852200	-11.593000	22.439209	0.001005	20.868085
264.075695	-3.008100	3.852000	-11.587000	22.433276	0.001006	20.844126
265.075506	-3.003000	3.851900	-11.565000	22.442545	0.001006	20.854357
266.075519	-3.014300	3.851900	-11.610000	22.420217	0.001006	20.852860
267.077319	-3.009800	3.850800	-11.589000	22.462232	0.001005	20.859847
268.077741	-2.978100	3.852700	-11.473000	22.435592	0.001006	20.855928
269.077176	-2.973900	3.853000	-11.457000	22.429985	0.001009	20.880183
270.077174	-3.010900	3.849100	-11.588000	22.435268	0.001010	20.880258
271.078003	-3.010500	3.849300	-11.587000	22.428964	0.001009	20.852135
272.077436	-2.963600	3.851800	-11.413000	22.428239	0.001009	20.874168
273.080001	-2.997100	3.850000	-11.538000	22.427615	0.001008	20.853629
274.078512	-2.986900	3.849700	-11.497000	22.456000	0.001009	20.870201
275.078515	-3.000200	3.849600	-11.548000	22.451566	0.001011	20.853908
276.079514	-3.000400	3.849200	-11.548000	22.448075	0.001012	20.879333
277.079515	-3.004600	3.849300	-11.564000	22.456872	0.001013	20.859695
278.082705	-3.010400	3.848800	-11.586000	22.449323	0.001014	20.870152
279.079871	-3.009400	3.847700	-11.578000	22.471425	0.001014	20.888492
280.080869	-3.025000	3.847900	-11.639000	22.457821	0.001014	20.866809
281.081871	-3.017200	3.847800	-11.608000	22.452537	0.001016	20.874318
282.081868	-2.993500	3.849500	-11.523000	22.461037	0.001016	20.877141
283.082376	-3.013100	3.847100	-11.590000	22.480374	0.001016	20.874696
284.082349	-3.016100	3.847200	-11.602000	22.483090	0.001017	20.864139
285.083591	-2.987900	3.848700	-11.499000	22.493032	0.001019	20.865088
286.083590	-3.014300	3.847500	-11.596000	22.506313	0.001019	20.887396
287.087519	-2.961000	3.849700	-11.397000	22.527643	0.001017	20.875568
288.086010	-2.996800	3.847300	-11.529000	22.514536	0.001018	20.881407
289.084356	-2.978800	3.847100	-11.458000	22.522684	0.001019	20.868705
290.085584	-3.004700	3.846000	-11.555000	22.505539	0.001020	20.871923
291.085580	-2.984400	3.846400	-11.478000	22.526745	0.001020	20.881780
292.086948	-2.987100	3.846700	-11.489000	22.521562	0.001021	20.858573
293.087938	-3.008200	3.846600	-11.570000	22.531280	0.001021	20.865461
294.087684	-3.015300	3.845900	-11.596000	22.523504	0.001019	20.860992
295.088688	-3.005800	3.844900	-11.556000	22.505390	0.001020	20.872248
296.088617	-3.029200	3.843800	-11.643000	22.525847	0.001021	20.869977
297.088618	-3.000900	3.845500	-11.538000	22.549344	0.001021	20.866482
298.088602	-2.988200	3.845700	-11.491000	22.555573	0.001022	20.864660
299.089687	-2.994200	3.844700	-11.510000	22.566039	0.001024	20.860919
300.088748	-2.997300	3.845000	-11.523000	22.583604	0.001021	20.865234
301.089780	-3.003200	3.843600	-11.542000	22.599652	0.001023	20.861393
302.090778	-2.984100	3.844500	-11.471000	22.594593	0.001024	20.872447
303.090228	-2.984800	3.843700	-11.470000	22.607448	0.001026	20.846917
304.092231	-2.982700	3.844800	-11.467000	22.611310	0.001025	20.851733
305.091999	-2.994900	3.844400	-11.513000	22.612631	0.001025	20.862538
306.093006	-3.010100	3.843800	-11.569000	22.626185	0.001027	20.858571
307.091999	-2.999700	3.842800	-11.524000	22.618287	0.001026	20.842126
308.093002	-3.001800	3.843200	-11.535000	22.645369	0.001027	20.856924
309.092999	-3.011300	3.842900	-11.571000	22.650428	0.001027	20.834964
310.092340	-3.008500	3.842200	-11.559000	22.645345	0.001028	20.847890
311.092341	-2.993800	3.842400	-11.502000	22.666273	0.001030	20.867903
312.095453	-3.007900	3.842000	-11.555000	22.665975	0.001029	20.855277
313.093454	-3.009200	3.841800	-11.559000	22.692010	0.001029	20.840579
314.093510	-2.981100	3.842200	-11.453000	22.683215	0.001031	20.854054
315.096502	-2.976300	3.841300	-11.431000	22.711069	0.001030	20.844022
316.094841	-2.994800	3.841200	-11.502000	22.678855	0.001033	20.853954
317.096541	-3.001400	3.840700	-11.526000	22.709300	0.001032	20.869750
318.099573	-2.989000	3.841300	-11.481000	22.698090	0.001031	20.853780
319.095182	-2.987200	3.840100	-11.470000	22.702348	0.001032	20.834813
320.095182	-2.996800	3.840500	-11.508000	22.720935	0.001034	20.839206
321.098595	-2.997900	3.841200	-11.514000	22.714010	0.001031	20.845546
322.095595	-2.998000	3.839400	-11.509000	22.706935	0.001034	20.845097
323.097600	-3.001000	3.840100	-11.522000	22.689246	0.001034	20.848241
324.099453	-3.011600	3.838600	-11.560000	22.700607	0.001034	20.831647
325.097663	-3.026700	3.838200	-11.615000	22.697942	0.001035	20.844150
326.097804	-2.987200	3.839600	-11.468000	22.710622	0.001035	20.826980
327.098805	-2.979200	3.839200	-11.437000	22.712343	0.001035	20.845773
328.097737	-2.990900	3.838500	-11.480000	22.724948	0.001036	20.837537
329.098741	-2.998300	3.838300	-11.507000	22.756040	0.001038	20.855405
330.099565	-2.982000	3.840100	-11.450000	22.733919	0.001037	20.829453
331.098562	-2.977100	3.839600	-11.430000	22.706913	0.001038	20.837489
332.100538	-3.012800	3.838400	-11.562000	22.740595	0.001038	20.840408
333.102199	-2.969700	3.838800	-11.400000	22.778115	0.001038	20.833896
334.099206	-2.991600	3.837100	-11.478000	22.755719	0.001041	20.811462
335.099195	-3.010500	3.836500	-11.549000	22.770667	0.001040	20.829755
336.102196	-3.000300	3.838000	-11.514000	22.789774	0.001041	20.832299
337.099198	-3.016200	3.836400	-11.570000	22.798819	0.001040	20.836144
338.099195	-3.021200	3.836500	-11.589000	22.765808	0.001043	20.826310
339.101195	-3.019200	3.835500	-11.577000	22.794784	0.001042	20.822619
340.099566	-3.009200	3.836800	-11.543000	22.788829	0.001044	20.811913
341.100566	-2.996900	3.834800	-11.492000	22.772112	0.001045	20.832150
342.099272	-2.990800	3.836400	-11.473000	22.789776	0.001044	20.828982
343.099271	-2.990000	3.837400	-11.472000	22.783449	0.001045	20.824540
344.101642	-2.982300	3.835400	-11.436000	22.782277	0.001044	20.822893
345.102751	-3.019000	3.833900	-11.573000	22.805046	0.001044	20.820572
346.100788	-3.003600	3.833700	-11.513000	22.811275	0.001045	20.807846
347.100893	-3.000500	3.835800	-11.508000	22.826794	0.001046	20.826237
348.103891	-3.008800	3.835700	-11.540000	22.819645	0.001047	20.820497
349.102892	-3.014900	3.834000	-11.558000	22.812919	0.001048	20.822768
350.103894	-3.011200	3.833800	-11.544000	22.828588	0.001047	20.803852
351.107979	-2.992500	3.834600	-11.474000	22.809655	0.001047	20.803852
352.104300	-3.010200	3.833600	-11.538000	22.838875	0.001049	20.810839
353.103301	-2.988200	3.834600	-11.457000	22.823954	0.001048	20.827185
354.107341	-2.982000	3.834900	-11.434000	22.830529	0.001049	20.822392
355.104339	-3.011500	3.832900	-11.541000	22.834041	0.001049	20.821643
356.105014	-3.014800	3.833100	-11.555000	22.848664	0.001053	20.808791
357.111016	-2.996100	3.832900	-11.483000	22.845225	0.001050	20.810088
358.106204	-3.003500	3.831200	-11.506000	22.849111	0.001051	20.818722
359.106143	-3.026100	3.831500	-11.594000	22.845425	0.001051	20.816926
360.108135	-3.022900	3.831000	-11.579000	22.868591	0.001053	20.792718
361.107139	-2.993800	3.832400	-11.472000	22.860096	0.001053	20.805071
362.106137	-2.994300	3.831900	-11.473000	22.832345	0.001053	20.802400
363.109801	-3.000700	3.830900	-11.495000	22.838573	0.001053	20.817648
364.106801	-2.969000	3.832300	-11.377000	22.854117	0.001054	20.820892
365.106799	-2.986900	3.832100	-11.445000	22.840938	0.001055	20.782085
366.109802	-3.016200	3.830000	-11.551000	22.873221	0.001055	20.806366
367.109592	-3.017400	3.830000	-11.556000	22.853416	0.001052	20.796956
368.108796	-2.997200	3.831200	-11.482000	22.848808	0.001056	20.806091
369.109795	-2.982300	3.828800	-11.417000	22.849356	0.001056	20.814700
370.107385	-3.006500	3.829000	-11.510000	22.854038	0.001058	20.788097
371.107384	-3.016000	3.828500	-11.547000	22.849305	0.001056	20.820339
372.110268	-2.983100	3.830600	-11.426000	22.839589	0.001057	20.803019
373.109274	-3.012500	3.829100	-11.534000	22.809595	0.001055	20.810904
374.109334	-3.008100	3.829400	-11.517000	22.827930	0.001057	20.804142
375.111333	-3.016200	3.828500	-11.546000	22.823843	0.001058	20.788193
376.110757	-3.014300	3.828200	-11.539000	22.846962	0.001059	20.808509
377.110096	-3.007900	3.828500	-11.514000	22.867984	0.001058	20.807284
378.112097	-2.997300	3.827800	-11.471000	22.896981	0.001059	20.808832
379.110890	-2.993100	3.828100	-11.457000	22.897128	0.001059	20.809928
380.110887	-3.015500	3.827600	-11.541000	22.919397	0.001061	20.803315
381.114890	-3.009800	3.826400	-11.515000	22.925649	0.001061	20.798673
382.110890	-2.999100	3.826800	-11.476000	22.976537	0.001061	20.790388
383.111943	-2.987200	3.826500	-11.428000	22.961991	0.001062	20.804263
384.113909	-3.007200	3.826600	-11.506000	22.976885	0.001063	20.819186
385.110318	-3.016000	3.824300	-11.533000	23.000572	0.001062	20.801193
386.111320	-2.984100	3.825000	-11.414000	22.994743	0.001063	20.789188
387.114323	-3.019100	3.824400	-11.545000	23.003635	0.001062	20.800943
388.116035	-3.015300	3.826000	-11.535000	22.996362	0.001063	20.787492
389.113035	-3.018300	3.824500	-11.542000	22.997506	0.001062	20.803337
390.116487	-2.989400	3.825800	-11.436000	22.995166	0.001062	20.789613
391.111517	-2.994300	3.823900	-11.449000	23.001244	0.001065	20.794280
392.111561	-2.995400	3.825200	-11.457000	22.996511	0.001066	20.807082
393.113567	-2.978100	3.825100	-11.390000	22.986248	0.001064	20.795850
394.111568	-2.988400	3.823300	-11.424000	23.012226	0.001066	20.799119
395.112721	-3.009300	3.824500	-11.507000	22.995090	0.001066	20.788588
396.113722	-2.985600	3.823600	-11.415000	22.965251	0.001067	20.781451
397.112407	-3.001800	3.825500	-11.482000	22.983110	0.001068	20.773266
398.113410	-2.990000	3.823300	-11.431000	22.964031	0.001066	20.783548
399.114407	-3.005100	3.822700	-11.486000	22.967794	0.001067	20.785896
400.113925	-2.988200	3.822200	-11.421000	22.986623	0.001066	20.808080
401.114923	-2.990300	3.822300	-11.429000	23.009315	0.001068	20.795729
402.114435	-2.993800	3.823600	-11.446000	23.016265	0.001068	20.785622
403.114130	-3.028600	3.820200	-11.569000	22.994024	0.001070	20.784675
404.114539	-2.972700	3.822300	-11.362000	22.980773	0.001068	20.784201
405.114606	-2.994800	3.820300	-11.441000	23.005630	0.001070	20.774492
406.113605	-3.008400	3.820700	-11.493000	23.037712	0.001069	20.779610
407.113122	-2.998200	3.820300	-11.452000	23.022046	0.001070	20.799001
408.114115	-3.000800	3.819500	-11.460000	23.022246	0.001069	20.786399
409.113198	-3.003600	3.820600	-11.474000	23.024711	0.001071	20.759945
410.113198	-3.015300	3.819800	-11.517000	23.000725	0.001071	20.757724
411.115199	-3.001300	3.819700	-11.463000	22.983989	0.001071	20.776518
412.114201	-2.989900	3.820100	-11.419000	22.966754	0.001069	20.767310
413.113229	-2.998000	3.819700	-11.450000	22.962595	0.001071	20.763143
414.114865	-3.005500	3.818500	-11.476000	22.959781	0.001073	20.783083
415.113864	-3.010700	3.817100	-11.490000	22.980380	0.001072	20.789497
416.113659	-2.994300	3.819100	-11.435000	22.969994	0.001072	20.759176
417.114662	-2.998200	3.818600	-11.448000	22.993259	0.001074	20.771106
418.115659	-3.002200	3.819000	-11.464000	23.001305	0.001074	20.763047
419.114658	-3.015700	3.816600	-11.509000	23.040110	0.001075	20.775375
420.115660	-3.012500	3.818200	-11.501000	23.045439	0.001074	20.775025
421.116659	-3.000400	3.816500	-11.450000	23.051070	0.001075	20.770235
422.117661	-3.014300	3.816200	-11.503000	23.068777	0.001076	20.760477
423.119996	-2.987300	3.817100	-11.401000	23.083099	0.001074	20.750171
424.119983	-3.002200	3.815900	-11.454000	23.069551	0.001076	20.769313
425.119983	-3.001200	3.816900	-11.454000	23.070923	0.001075	20.773058
426.119129	-3.008300	3.815400	-11.476000	23.068506	0.001076	20.770162
427.119127	-3.005700	3.816200	-11.470000	23.049354	0.001077	20.770412
428.119853	-2.979300	3.816600	-11.370000	23.054285	0.001079	20.761602
429.121856	-3.011600	3.814900	-11.488000	23.076901	0.001077	20.775729
430.120532	-3.006300	3.815600	-11.469000	23.068633	0.001077	20.773609
431.120532	-3.008300	3.814300	-11.473000	23.090748	0.001079	20.752619
432.121550	-3.001700	3.815000	-11.450000	23.101658	0.001078	20.776354
433.122656	-2.996700	3.814300	-11.428000	23.121356	0.001081	20.733977
434.121750	-2.987100	3.814900	-11.394000	23.087338	0.001079	20.738296
435.121200	-3.001400	3.813500	-11.445000	23.093537	0.001082	20.761105
436.121199	-2.998500	3.814400	-11.436000	23.111671	0.001082	20.745135
437.121200	-2.987100	3.812200	-11.386000	23.101959	0.001081	20.751051
438.121201	-2.994300	3.812300	-11.414000	23.122056	0.001080	20.777354
439.122603	-3.010500	3.813100	-11.478000	23.104747	0.001081	20.754319
440.123603	-2.996400	3.812500	-11.422000	23.119265	0.001082	20.743736
441.124463	-3.004100	3.812000	-11.451000	23.116252	0.001082	20.749252
442.125171	-2.989100	3.810700	-11.389000	23.142152	0.001083	20.751497
443.123172	-2.996100	3.811500	-11.419000	23.153159	0.001083	20.738344
444.124043	-2.980300	3.811100	-11.357000	23.161128	0.001084	20.745857
445.124041	-2.992200	3.811000	-11.402000	23.157915	0.001086	20.735524
446.123282	-2.981300	3.811500	-11.362000	23.174299	0.001084	20.757633
447.124281	-3.004500	3.808800	-11.443000	23.174996	0.001084	20.757857
448.125492	-3.002500	3.808700	-11.434000	23.158759	0.001084	20.733051
449.126498	-3.015900	3.809000	-11.486000	23.177761	0.001085	20.746402
450.127493	-2.994600	3.810400	-11.409000	23.158386	0.001088	20.744531
451.128374	-3.001100	3.809200	-11.431000	23.141621	0.001087	20.746698
452.127370	-3.000100	3.808900	-11.426000	23.165902	0.001086	20.743054
453.128036	-2.986300	3.809900	-11.375000	23.141123	0.001087	20.717748
454.129034	-3.006700	3.808600	-11.449000	23.159875	0.001087	20.750291
455.127386	-2.987600	3.808200	-11.376000	23.154495	0.001086	20.739209
456.127388	-2.996200	3.808600	-11.410000	23.171354	0.001087	20.739508
457.128581	-2.988200	3.808200	-11.378000	23.180716	0.001086	20.737510
458.128580	-3.024600	3.807500	-11.515000	23.181363	0.001086	20.739581
459.131319	-3.001300	3.807700	-11.426000	23.199292	0.001088	20.737633
460.132315	-3.012500	3.807400	-11.468000	23.212764	0.001088	20.744021
461.131316	-3.010000	3.806900	-11.458000	23.209875	0.001087	20.739230
462.131232	-3.003100	3.807000	-11.432000	23.228550	0.001086	20.729494
463.132233	-3.009200	3.806800	-11.454000	23.247550	0.001088	20.737630
464.134692	-2.998900	3.807300	-11.416000	23.245456	0.001088	20.746437
465.133695	-3.022600	3.804800	-11.499000	23.241598	0.001088	20.719810
466.136111	-3.015500	3.805000	-11.473000	23.254247	0.001090	20.713520
467.135110	-2.993500	3.805000	-11.390000	23.266970	0.001087	20.736230
468.133301	-2.986900	3.805800	-11.367000	23.259749	0.001090	20.742744
469.136339	-2.987100	3.804500	-11.363000	23.279222	0.001087	20.716264
470.134338	-2.997300	3.804300	-11.401000	23.290626	0.001088	20.750929
471.134337	-3.001800	3.804900	-11.420000	23.302977	0.001090	20.737228
472.137702	-2.993300	3.804300	-11.385000	23.293314	0.001090	20.742243
473.135293	-3.008100	3.804500	-11.444000	23.275036	0.001091	20.722028
474.137298	-2.998500	3.803200	-11.402000	23.244309	0.001089	20.729167
475.139290	-2.991800	3.802800	-11.375000	23.271079	0.001090	20.721855
476.137768	-2.989600	3.803300	-11.369000	23.266249	0.001090	20.718910
477.137628	-2.986800	3.803100	-11.358000	23.267642	0.001091	20.716987
478.138424	-3.005100	3.802500	-11.426000	23.256262	0.001091	20.733559
479.138426	-2.978900	3.802300	-11.326000	23.247623	0.001091	20.726323
480.138580	-2.997600	3.801800	-11.394000	23.245729	0.001090	20.724425
481.141583	-3.008000	3.800100	-11.430000	23.258007	0.001093	20.744317
482.141554	-3.021900	3.799900	-11.482000	23.270483	0.001093	20.732164
483.140547	-3.015500	3.800600	-11.459000	23.276162	0.001092	20.725053
484.141734	-2.994500	3.800300	-11.379000	23.283484	0.001092	20.706785
485.141801	-2.989400	3.799900	-11.358000	23.303679	0.001092	20.724180
486.141798	-2.982000	3.800000	-11.330000	23.321582	0.001092	20.739279
487.142222	-3.010100	3.799500	-11.436000	23.350094	0.001092	20.721861
488.141222	-2.984000	3.800100	-11.339000	23.361324	0.001094	20.716046
489.141851	-2.995200	3.798200	-11.375000	23.361376	0.001093	20.724634
490.142854	-3.013200	3.798100	-11.443000	23.369046	0.001095	20.714777
491.141726	-2.992600	3.797900	-11.365000	23.394543	0.001095	20.716624
492.143725	-3.004800	3.798900	-11.413000	23.413191	0.001095	20.716349
493.145278	-2.994500	3.798200	-11.373000	23.390958	0.001094	20.718247
494.143257	-2.997800	3.797500	-11.383000	23.392453	0.001094	20.708365
495.142774	-2.990400	3.797100	-11.354000	23.396787	0.001095	20.718874
496.142169	-2.970500	3.797300	-11.278000	23.384340	0.001095	20.708768
497.142485	-2.998500	3.796900	-11.384000	23.390963	0.001096	20.693594
498.142527	-2.974600	3.795200	-11.289000	23.383443	0.001096	20.714982
499.143530	-2.987800	3.796700	-11.342000	23.395022	0.001097	20.700982
500.146017	-2.994200	3.795400	-11.363000	23.398284	0.001097	20.701406
501.143465	-2.972700	3.796700	-11.285000	23.395870	0.001097	20.720800
502.143463	-2.987600	3.795500	-11.338000	23.372939	0.001097	20.700660
503.146906	-3.007100	3.794700	-11.409000	23.367264	0.001097	20.698290
504.145904	-3.012500	3.795000	-11.431000	23.329044	0.001097	20.700762
505.146060	-3.010200	3.795200	-11.423000	23.370080	0.001097	20.691630
506.151059	-2.988200	3.794500	-11.337000	23.401103	0.001098	20.704707
507.146458	-2.990900	3.794700	-11.349000	23.368537	0.001098	20.694825
508.147460	-2.998400	3.792900	-11.372000	23.381882	0.001099	20.688760
509.153780	-3.027300	3.792600	-11.480000	23.413654	0.001099	20.687413
510.147481	-3.003300	3.791800	-11.387000	23.395454	0.001100	20.689086
511.147479	-3.014400	3.792600	-11.431000	23.406909	0.001099	20.722855
512.152050	-3.007700	3.792000	-11.405000	23.411292	0.001099	20.713023
513.148382	-3.007300	3.792900	-11.404000	23.410620	0.001099	20.699546
514.148301	-3.001100	3.792600	-11.380000	23.409376	0.001099	20.702567
515.150299	-3.002600	3.791500	-11.384000	23.412314	0.001101	20.714522
516.149810	-2.989400	3.791900	-11.334000	23.405914	0.001102	20.704787
517.149814	-3.008000	3.791300	-11.403000	23.349744	0.001100	20.690688
518.151572	-3.006800	3.791600	-11.398000	23.362145	0.001101	20.713550
519.151570	-3.017100	3.789200	-11.431000	23.345090	0.001103	20.677962
520.152693	-2.997400	3.790200	-11.360000	23.335777	0.001101	20.687121
521.153081	-3.017600	3.789800	-11.435000	23.356369	0.001102	20.685473
522.152081	-3.020400	3.790500	-11.447000	23.386222	0.001102	20.694532
523.150239	-2.996600	3.789200	-11.352000	23.394415	0.001102	20.697528
524.152242	-2.987000	3.789400	-11.316000	23.419661	0.001101	20.686322
525.150280	-3.012800	3.789100	-11.415000	23.433828	0.001103	20.683452
526.150282	-3.021100	3.787900	-11.442000	23.444710	0.001104	20.702895
527.151803	-3.004200	3.787500	-11.377000	23.453595	0.001102	20.706112
528.150852	-2.984100	3.788300	-11.302000	23.459048	0.001105	20.707311
529.150855	-2.978100	3.787700	-11.280000	23.473264	0.001104	20.686471
530.153427	-2.984700	3.788000	-11.306000	23.468706	0.001104	20.698973
531.150425	-2.980700	3.786100	-11.284000	23.439899	0.001105	20.717514
532.151183	-3.009200	3.785300	-11.390000	23.452846	0.001104	20.718638
533.153283	-2.995400	3.786600	-11.341000	23.457425	0.001103	20.687664
534.154071	-2.985100	3.785500	-11.299000	23.464844	0.001104	20.696050
535.152261	-2.976500	3.786500	-11.270000	23.461407	0.001105	20.684069
536.153262	-2.982300	3.786200	-11.290000	23.468875	0.001102	20.683020
537.152322	-2.994000	3.785800	-11.334000	23.462824	0.001105	20.696869
538.152321	-3.011200	3.784400	-11.394000	23.446191	0.001104	20.698216
539.156154	-3.004100	3.784300	-11.367000	23.476912	0.001105	20.699138
540.154159	-2.989300	3.785200	-11.314000	23.454678	0.001105	20.726639
541.152526	-2.989200	3.784100	-11.309000	23.466754	0.001104	20.708870
542.157279	-3.020000	3.782700	-11.422000	23.476610	0.001104	20.704525
543.156787	-3.006100	3.783200	-11.370000	23.478999	0.001105	20.689374
544.154524	-2.997800	3.783200	-11.340000	23.462889	0.001105	20.682235
545.157967	-2.988400	3.783000	-11.304000	23.468065	0.001104	20.697381
546.160018	-3.015000	3.782400	-11.403000	23.476255	0.001104	20.709860
547.156641	-2.987300	3.782900	-11.299000	23.482578	0.001106	20.692963
548.161665	-2.990400	3.781800	-11.308000	23.470501	0.001104	20.716421
549.163663	-2.975900	3.782800	-11.256000	23.431685	0.001107	20.703591
550.158705	-3.002100	3.781000	-11.349000	23.441494	0.001104	20.706785
551.164707	-2.981500	3.782200	-11.276000	23.430912	0.001105	20.713248
552.165030	-2.990100	3.781100	-11.305000	23.450780	0.001106	20.689538
553.159445	-2.998800	3.780600	-11.337000	23.457300	0.001107	20.711723
554.163445	-3.002300	3.780900	-11.350000	23.430085	0.001104	20.704358
555.165818	-3.007900	3.780700	-11.371000	23.453787	0.001105	20.711995
556.161823	-2.984500	3.780900	-11.283000	23.470367	0.001105	20.701586
557.164483	-2.996700	3.779800	-11.326000	23.466332	0.001104	20.707973
558.166142	-3.015200	3.779100	-11.393000	23.467154	0.001105	20.719704
559.160140	-2.970800	3.780100	-11.229000	23.468047	0.001105	20.713487
560.165493	-2.979600	3.778700	-11.258000	23.506610	0.001106	20.710415
561.165921	-3.000000	3.777900	-11.333000	23.519904	0.001106	20.708093
562.161025	-2.997400	3.777800	-11.322000	23.542260	0.001104	20.724340
563.164038	-3.025800	3.777300	-11.428000	23.547883	0.001103	20.716226
564.162108	-2.975200	3.779600	-11.244000	23.540041	0.001104	20.728280
565.163110	-2.990400	3.778100	-11.297000	23.529932	0.001106	20.718147
566.162110	-3.004000	3.776700	-11.345000	23.504987	0.001105	20.712107
567.162683	-3.001500	3.776400	-11.333000	23.502894	0.001104	20.713329
568.161679	-3.009800	3.775700	-11.363000	23.516587	0.001106	20.730375
569.162378	-3.002400	3.776400	-11.338000	23.536777	0.001105	20.701299
570.165379	-3.003400	3.776600	-11.342000	23.555646	0.001106	20.710731
571.163661	-2.999200	3.774500	-11.320000	23.534087	0.001106	20.719941
572.164667	-2.989700	3.775400	-11.286000	23.544789	0.001106	20.723556
573.169306	-2.991200	3.773800	-11.286000	23.545412	0.001106	20.727026
574.164594	-3.003100	3.775100	-11.335000	23.550141	0.001105	20.730818
575.166597	-3.002300	3.774900	-11.332000	23.563758	0.001107	20.710329
576.169660	-2.986400	3.773500	-11.268000	23.582303	0.001105	20.717540
577.165660	-2.996200	3.774200	-11.307000	23.585788	0.001107	20.737630
578.166091	-2.977800	3.774700	-11.239000	23.575905	0.001105	20.722506
579.170097	-2.990500	3.772000	-11.279000	23.591512	0.001106	20.727720
580.167213	-2.992600	3.772200	-11.288000	23.585213	0.001105	20.738476
581.166713	-3.000000	3.772000	-11.315000	23.594946	0.001105	20.711247
582.168750	-2.995700	3.771000	-11.295000	23.608313	0.001105	20.712320
583.166235	-2.991000	3.769900	-11.274000	23.607840	0.001105	20.721803
584.167234	-2.991700	3.770100	-11.278000	23.629422	0.001106	20.733482
585.170130	-3.023300	3.769700	-11.396000	23.628450	0.001105	20.721127
586.169617	-2.997800	3.771200	-11.304000	23.624292	0.001105	20.725020
587.166618	-3.011700	3.771000	-11.355000	23.625113	0.001107	20.715411
588.170327	-3.003300	3.769900	-11.320000	23.609779	0.001106	20.735128
589.170331	-3.006600	3.771100	-11.337000	23.587498	0.001106	20.718006
590.166410	-2.989400	3.769100	-11.267000	23.602958	0.001108	20.747730
591.171458	-2.985200	3.770400	-11.255000	23.589488	0.001107	20.712414
592.169456	-3.010300	3.769300	-11.345000	23.572187	0.001107	20.725417
593.169557	-3.016200	3.768000	-11.364000	23.595834	0.001106	20.721621
594.169555	-3.003700	3.768800	-11.319000	23.621823	0.001104	20.729183
595.170476	-3.023200	3.766300	-11.385000	23.626875	0.001106	20.727136
596.171478	-3.022600	3.767800	-11.387000	23.647811	0.001105	20.737694
597.174901	-2.999800	3.766800	-11.300000	23.644549	0.001107	20.742958
598.172083	-3.001400	3.767700	-11.307000	23.652515	0.001104	20.731029
599.171082	-3.008500	3.766100	-11.329000	23.688010	0.001107	20.720620
600.173582	-3.008400	3.766300	-11.329000	23.675986	0.001106	20.728955
601.172580	-3.005600	3.765800	-11.317000	23.690125	0.001106	20.743605
602.171241	-3.024400	3.765000	-11.386000	23.701973	0.001104	20.738888
603.173231	-3.004300	3.765300	-11.311000	23.686441	0.001103	20.727583
604.174230	-2.990400	3.766200	-11.262000	23.685320	0.001105	20.733571
605.173517	-3.015500	3.764600	-11.351000	23.685070	0.001105	20.721941
606.176110	-2.988400	3.764800	-11.249000	23.688530	0.001104	20.743902
607.175920	-2.999200	3.764000	-11.288000	23.695574	0.001105	20.727731
608.174918	-3.010300	3.763100	-11.327000	23.707621	0.001107	20.742180
609.176470	-2.972600	3.764400	-11.188000	23.713893	0.001104	20.742779
610.176471	-3.009600	3.764000	-11.327000	23.755412	0.001106	20.753111
611.175471	-2.997700	3.762700	-11.279000	23.765191	0.001105	20.735414
612.176471	-2.987100	3.763500	-11.241000	23.750980	0.001106	20.733020
613.177469	-2.979700	3.762200	-11.209000	23.718448	0.001107	20.734542
614.176453	-2.984100	3.762800	-11.227000	23.722554	0.001105	20.741030
615.179454	-2.998900	3.761800	-11.281000	23.749835	0.001106	20.735190
616.179413	-2.997300	3.762200	-11.276000	23.737339	0.001107	20.767708
617.178196	-2.992700	3.761800	-11.257000	23.741795	0.001105	20.743726
618.178458	-2.997700	3.760800	-11.273000	23.787168	0.001106	20.747019
619.181819	-3.000000	3.761400	-11.283000	23.783486	0.001107	20.747594
620.179814	-3.003100	3.761300	-11.294000	23.795805	0.001105	20.730073
621.182639	-2.998300	3.761200	-11.276000	23.806109	0.001106	20.757475
622.181638	-2.986300	3.760200	-11.228000	23.810314	0.001106	20.746044
623.182529	-3.032600	3.759200	-11.399000	23.825000	0.001108	20.731371
624.182506	-3.017900	3.759200	-11.343000	23.831296	0.001105	20.747642
625.182567	-3.007000	3.758400	-11.300000	23.812057	0.001105	20.748266
626.182492	-3.012700	3.758000	-11.321000	23.812902	0.001106	20.750536
627.185493	-2.989000	3.760000	-11.238000	23.809517	0.001105	20.746193
628.183132	-3.001500	3.759200	-11.282000	23.854168	0.001106	20.760619
629.182131	-3.015600	3.757700	-11.330000	23.841276	0.001103	20.757175
630.184299	-2.989000	3.759100	-11.235000	23.839907	0.001105	20.757699
631.185297	-2.987100	3.758200	-11.224000	23.836298	0.001104	20.758348
632.183295	-3.004200	3.756700	-11.285000	23.868030	0.001104	20.743224
633.191068	-3.005300	3.756600	-11.288000	23.857753	0.001105	20.770377
634.185064	-3.003500	3.755900	-11.279000	23.854317	0.001104	20.736585
635.183342	-2.991500	3.757600	-11.240000	23.875097	0.001104	20.761690
636.186340	-3.011200	3.754700	-11.304000	23.873009	0.001105	20.750587
637.185341	-3.005100	3.754900	-11.282000	23.856509	0.001106	20.736887
638.184342	-3.011200	3.755000	-11.306000	23.874626	0.001105	20.745096
639.185945	-3.006400	3.754100	-11.285000	23.883137	0.001104	20.756476
640.187524	-2.985400	3.755100	-11.210000	23.864173	0.001105	20.752633
641.186522	-2.996900	3.753900	-11.249000	23.876991	0.001105	20.747468
642.188675	-2.998000	3.753400	-11.251000	23.911559	0.001104	20.756053
643.191116	-3.019900	3.752700	-11.332000	23.886200	0.001105	20.739158
644.191082	-2.996800	3.754100	-11.249000	23.914073	0.001104	20.744348
645.192074	-2.998800	3.753600	-11.256000	23.891849	0.001105	20.753357
646.190070	-3.004700	3.752100	-11.273000	23.918428	0.001105	20.753457
647.189085	-2.991500	3.752800	-11.226000	23.918902	0.001106	20.768157
648.193090	-2.988300	3.751800	-11.210000	23.905887	0.001104	20.777392
649.192122	-2.986800	3.752600	-11.207000	23.922485	0.001103	20.774595
650.189294	-2.980300	3.751600	-11.180000	23.904966	0.001103	20.782158
651.193293	-2.989900	3.750900	-11.214000	23.895609	0.001103	20.764715
652.189366	-2.998700	3.751500	-11.248000	23.873583	0.001106	20.758276
653.189364	-2.990700	3.751400	-11.218000	23.872861	0.001103	20.764190
654.189753	-3.011500	3.750500	-11.294000	23.845137	0.001104	20.752985
655.190759	-2.980300	3.750500	-11.176000	23.860395	0.001100	20.767337
656.189754	-2.995900	3.749500	-11.232000	23.895562	0.001105	20.749494
657.189786	-2.999800	3.750300	-11.249000	23.896905	0.001102	20.766014
658.189785	-2.989300	3.748900	-11.206000	23.887524	0.001102	20.750917
659.190400	-2.979300	3.750000	-11.172000	23.856316	0.001103	20.772730
660.192396	-2.991100	3.748800	-11.212000	23.846089	0.001104	20.769113
661.192879	-2.997000	3.748400	-11.232000	23.822071	0.001105	20.763997
662.191879	-2.996400	3.747800	-11.228000	23.828343	0.001103	20.764596
663.192944	-2.986800	3.747800	-11.193000	23.848354	0.001104	20.772807
664.193919	-3.008900	3.746800	-11.272000	23.876876	0.001104	20.773432
665.193919	-3.008600	3.746300	-11.270000	23.862766	0.001103	20.769240
666.196918	-3.020600	3.746300	-11.315000	23.879316	0.001103	20.772085
667.194141	-3.014100	3.745700	-11.288000	23.884566	0.001106	20.778298
668.194138	-3.004200	3.746100	-11.253000	23.906295	0.001102	20.752671
669.198146	-3.013100	3.744800	-11.282000	23.936782	0.001104	20.751948
670.196157	-3.002300	3.746200	-11.246000	23.931482	0.001102	20.767496
671.196869	-3.007900	3.744300	-11.261000	23.940366	0.001102	20.755542
672.196867	-2.989000	3.745700	-11.195000	23.942557	0.001102	20.759635
673.197438	-2.987600	3.744500	-11.186000	23.930213	0.001102	20.769543
674.199440	-2.996000	3.744600	-11.217000	23.921578	0.001104	20.787911
675.202433	-2.995400	3.744300	-11.215000	23.921606	0.001101	20.784619
676.198119	-3.015300	3.742600	-11.285000	23.925314	0.001103	20.793554
677.198542	-2.998400	3.743100	-11.223000	23.953585	0.001100	20.789661
678.202674	-2.995100	3.743500	-11.211000	23.959260	0.001102	20.775437
679.199674	-2.997100	3.743800	-11.218000	23.969439	0.001104	20.781378
680.199762	-3.006000	3.742900	-11.251000	23.982827	0.001104	20.778208
681.202764	-3.016600	3.741800	-11.287000	23.991362	0.001103	20.786768
682.199509	-3.013800	3.741700	-11.276000	23.999375	0.001103	20.787691
683.199511	-3.025800	3.741200	-11.318000	23.992308	0.001103	20.757844
684.202548	-3.009300	3.742000	-11.260000	23.984993	0.001104	20.773741
685.199511	-3.002300	3.741000	-11.230000	24.006867	0.001101	20.811325
686.199539	-3.008000	3.741000	-11.252000	24.030035	0.001101	20.776238
687.203513	-3.006900	3.741100	-11.248000	23.985044	0.001102	20.763361
688.200517	-3.001800	3.739900	-11.225000	23.985715	0.001102	20.789639
689.200378	-3.004300	3.740100	-11.235000	23.978100	0.001102	20.769200
690.203382	-3.001900	3.739300	-11.224000	23.960630	0.001103	20.780131
691.202189	-3.020600	3.739400	-11.294000	23.977229	0.001103	20.791086
692.202958	-3.013600	3.738000	-11.264000	23.996914	0.001101	20.793757
693.203956	-3.001300	3.739800	-11.222000	24.002436	0.001101	20.796924
694.202229	-2.977600	3.741000	-11.138000	23.986509	0.001102	20.779055
695.202227	-2.983400	3.739600	-11.155000	23.991834	0.001101	20.784395
696.203208	-2.988400	3.737700	-11.168000	23.996736	0.001100	20.790259
697.206209	-2.996500	3.738000	-11.200000	24.008331	0.001101	20.792405
698.203242	-3.011500	3.736600	-11.251000	24.024904	0.001100	20.798120
699.204242	-2.987100	3.737700	-11.164000	24.028563	0.001101	20.802263
700.205241	-2.980200	3.737900	-11.138000	24.021494	0.001099	20.795174
701.203474	-3.015100	3.736400	-11.265000	23.986605	0.001099	20.799541
702.203218	-2.987400	3.737000	-11.163000	23.975780	0.001097	20.780150
703.205550	-2.997800	3.736400	-11.199000	23.984491	0.001098	20.795524
704.203550	-2.992400	3.735600	-11.177000	23.973242	0.001098	20.803684
705.204062	-2.987300	3.737000	-11.163000	23.973069	0.001097	20.791656
706.206061	-3.009100	3.735500	-11.239000	23.997306	0.001097	20.811694
707.204061	-2.988200	3.736500	-11.164000	24.001935	0.001098	20.815862
708.205066	-3.002900	3.736000	-11.218000	24.002980	0.001098	20.811694
709.206561	-3.004000	3.734200	-11.216000	23.983744	0.001097	20.801413
710.203433	-3.005800	3.734600	-11.224000	23.970904	0.001098	20.809874
711.204432	-2.992900	3.734500	-11.176000	23.993327	0.001098	20.813393
712.205480	-2.993900	3.733500	-11.177000	24.003006	0.001097	20.808876
713.204481	-2.989100	3.734500	-11.162000	24.023312	0.001096	20.801739
714.204398	-3.018400	3.731900	-11.263000	24.032694	0.001096	20.812569
715.208691	-2.993000	3.733600	-11.174000	24.027270	0.001097	20.817087
716.205708	-2.991800	3.732700	-11.166000	24.028265	0.001095	20.804809
717.205706	-3.003600	3.731300	-11.207000	24.030654	0.001095	20.798196
718.209067	-3.017000	3.731200	-11.256000	24.028240	0.001097	20.803362
719.205297	-2.994200	3.732000	-11.174000	24.037051	0.001095	20.807930
720.205296	-2.999700	3.731600	-11.192000	24.040584	0.001096	20.825223
721.207767	-2.978600	3.731800	-11.115000	24.076142	0.001095	20.812047
722.206771	-2.996200	3.731400	-11.178000	24.073280	0.001096	20.812970
723.207753	-2.974800	3.731700	-11.100000	24.104409	0.001095	20.817163
724.209093	-2.997900	3.731100	-11.184000	24.099680	0.001093	20.804360
725.205834	-3.002000	3.729600	-11.196000	24.090923	0.001096	20.823552
726.205193	-2.991700	3.730900	-11.159000	24.113567	0.001094	20.833459
727.207192	-2.961800	3.731000	-11.048000	24.117175	0.001095	20.827596
728.206128	-2.993200	3.729000	-11.159000	24.118021	0.001096	20.815168
729.208135	-2.991700	3.729200	-11.155000	24.087789	0.001094	20.817564
730.213199	-3.018900	3.727200	-11.250000	24.110882	0.001095	20.823180
731.209770	-3.000400	3.728100	-11.184000	24.118968	0.001092	20.839351
732.209722	-3.001300	3.727300	-11.185000	24.107324	0.001094	20.821509
733.212940	-3.006500	3.726700	-11.204000	24.105109	0.001093	20.838727
734.208913	-2.983000	3.728300	-11.120000	24.100556	0.001092	20.831317
735.208601	-2.994600	3.727700	-11.162000	24.038622	0.001092	20.826101
736.211596	-2.998200	3.727700	-11.176000	24.049274	0.001093	20.814025
737.209937	-3.003500	3.725400	-11.188000	24.035115	0.001091	20.823059
738.209195	-3.017700	3.725700	-11.241000	24.073014	0.001092	20.821238
739.214314	-2.991600	3.725800	-11.146000	24.076449	0.001091	20.835114
740.210244	-3.003400	3.725500	-11.188000	24.111833	0.001093	20.845944
741.210775	-2.992100	3.727300	-11.152000	24.119995	0.001092	20.828053
742.213631	-2.980500	3.725800	-11.104000	24.109148	0.001091	20.820019
743.210630	-2.990600	3.725000	-11.139000	24.130223	0.001091	20.841630
744.210606	-3.006000	3.724400	-11.195000	24.104869	0.001090	20.834220
745.214601	-3.005500	3.725300	-11.196000	24.103651	0.001092	20.822092
746.211268	-2.999600	3.724700	-11.172000	24.089420	0.001091	20.831053
747.213271	-2.997600	3.724800	-11.165000	24.099199	0.001090	20.852240
748.217808	-2.994700	3.723700	-11.150000	24.091112	0.001089	20.843181
749.213869	-3.013100	3.722900	-11.217000	24.092207	0.001090	20.841908
750.212912	-2.983000	3.723000	-11.105000	24.116917	0.001090	20.845828
751.215978	-3.007800	3.722200	-11.195000	24.107837	0.001088	20.831032
752.213978	-3.005300	3.722600	-11.185000	24.137097	0.001089	20.854688
753.214540	-3.003300	3.722400	-11.179000	24.139612	0.001088	20.870960
754.218309	-3.013100	3.721500	-11.213000	24.119358	0.001088	20.856337
755.214307	-3.002900	3.722500	-11.177000	24.116697	0.001089	20.848926
756.215011	-3.000400	3.721000	-11.164000	24.117869	0.001088	20.856739
757.216011	-3.014800	3.720700	-11.216000	24.131704	0.001086	20.839796
758.215087	-2.986200	3.721100	-11.110000	24.129614	0.001088	20.847183
759.217088	-3.000900	3.720500	-11.164000	24.130062	0.001087	20.850952
760.217804	-3.010600	3.720500	-11.200000	24.110831	0.001087	20.827871
761.216815	-2.991600	3.721100	-11.131000	24.131756	0.001086	20.838901
762.215220	-2.987300	3.720300	-11.112000	24.147532	0.001087	20.845714
763.220790	-3.026600	3.719500	-11.256000	24.143502	0.001087	20.858741
764.216793	-3.000000	3.719900	-11.158000	24.146714	0.001086	20.835885
765.216529	-2.984200	3.719500	-11.099000	24.143381	0.001086	20.833965
766.220525	-3.017500	3.717200	-11.215000	24.128131	0.001085	20.842850
767.217860	-3.001200	3.719500	-11.163000	24.149654	0.001085	20.822713
768.219863	-3.014600	3.716900	-11.204000	24.167644	0.001086	20.846446
769.220862	-3.008700	3.719300	-11.188000	24.190610	0.001085	20.837712
770.218182	-3.008500	3.717500	-11.183000	24.198423	0.001083	20.840333
771.219179	-3.004900	3.716200	-11.166000	24.220120	0.001084	20.846449
772.223660	-2.951100	3.718700	-10.973000	24.228753	0.001086	20.819073
773.219658	-3.011800	3.716900	-11.194000	24.219525	0.001085	20.831154
774.219620	-2.977100	3.719000	-11.070000	24.240871	0.001085	20.846875
775.222621	-3.010500	3.715900	-11.186000	24.225946	0.001084	20.833801
776.219623	-2.994400	3.716700	-11.129000	24.235302	0.001083	20.823746
777.219622	-2.997600	3.715600	-11.137000	24.239980	0.001084	20.824644
778.221621	-3.013500	3.715300	-11.195000	24.221420	0.001084	20.828313
779.219356	-2.979700	3.715100	-11.069000	24.213784	0.001082	20.840568
780.219666	-2.995300	3.714900	-11.126000	24.211346	0.001082	20.832907
781.226961	-2.995000	3.716100	-11.129000	24.223089	0.001081	20.829513
782.220680	-2.985300	3.715100	-11.090000	24.235580	0.001080	20.827343
783.219165	-2.985800	3.714400	-11.090000	24.258446	0.001082	20.785795
784.223514	-2.998600	3.713700	-11.135000	24.268472	0.001083	20.823827
785.219511	-2.985100	3.713200	-11.083000	24.297257	0.001081	20.821880
786.220176	-3.011400	3.712200	-11.177000	24.291411	0.001082	20.828818
787.224177	-2.999800	3.713200	-11.138000	24.285142	0.001079	20.811625
788.220211	-2.996500	3.712200	-11.122000	24.284968	0.001081	20.817615
789.221213	-3.002100	3.711600	-11.142000	24.251681	0.001080	20.818364
790.224209	-3.001000	3.712900	-11.141000	24.262231	0.001080	20.827523
791.220737	-2.991800	3.713300	-11.108000	24.227974	0.001079	20.801223
792.221731	-2.999400	3.712500	-11.134000	24.234865	0.001079	20.811928
793.224292	-2.986500	3.713000	-11.087000	24.213722	0.001081	20.810634
794.222292	-2.979600	3.712200	-11.060000	24.243276	0.001077	20.791916
795.224026	-2.982100	3.711000	-11.065000	24.271987	0.001081	20.813602
796.229038	-3.010400	3.710400	-11.169000	24.257013	0.001079	20.789573
797.226708	-2.991900	3.710000	-11.099000	24.274426	0.001078	20.817471
798.223734	-2.998600	3.709700	-11.123000	24.234946	0.001080	20.818173
799.227450	-2.990800	3.709900	-11.095000	24.241017	0.001079	20.808615
800.224151	-2.991900	3.710500	-11.099000	24.204941	0.001078	20.811785
801.224638	-2.997200	3.709600	-11.118000	24.184713	0.001078	20.810936
802.227254	-3.007400	3.709900	-11.157000	24.187974	0.001078	20.804724
803.224258	-2.976600	3.710800	-11.044000	24.212930	0.001077	20.806047
804.224606	-3.008300	3.709000	-11.157000	24.201287	0.001076	20.784886
805.227608	-2.987900	3.709400	-11.082000	24.221116	0.001078	20.805724
806.224605	-2.992700	3.709600	-11.100000	24.256867	0.001077	20.797487
807.225920	-3.007100	3.707400	-11.148000	24.250623	0.001077	20.794543
808.229923	-3.004400	3.707200	-11.137000	24.251867	0.001078	20.821869
809.225466	-2.984900	3.708700	-11.069000	24.241916	0.001076	20.792921
810.226468	-2.999100	3.707900	-11.120000	24.247388	0.001076	20.785609
811.228529	-2.996800	3.708200	-11.111000	24.217607	0.001077	20.797462
812.227539	-2.985900	3.707600	-11.069000	24.209945	0.001075	20.810639
813.229913	-2.992800	3.706800	-11.093000	24.231316	0.001075	20.804575
814.230943	-3.013000	3.706900	-11.168000	24.246866	0.001077	20.800258
815.229639	-2.990500	3.705800	-11.081000	24.248557	0.001075	20.797212
816.229798	-2.994700	3.705300	-11.094000	24.259528	0.001074	20.788303
817.232795	-3.013700	3.704100	-11.163000	24.269779	0.001076	20.798585
818.230043	-3.002700	3.706100	-11.127000	24.250471	0.001075	20.792020
819.230321	-2.989500	3.705600	-11.077000	24.265523	0.001075	20.795264
820.233874	-2.991700	3.706100	-11.086000	24.257287	0.001075	20.782736
821.231878	-2.995900	3.704400	-11.097000	24.300375	0.001075	20.809361
822.234441	-3.005200	3.704500	-11.132000	24.327815	0.001074	20.762919
823.233591	-2.996800	3.703500	-11.098000	24.310848	0.001073	20.789047
824.231236	-2.983200	3.704700	-11.050000	24.328484	0.001073	20.791566
825.232416	-3.006700	3.704700	-11.137000	24.325623	0.001073	20.774945
826.233412	-2.991000	3.703700	-11.077000	24.313854	0.001073	20.807236
827.232427	-2.994400	3.703400	-11.088000	24.300816	0.001072	20.787993
828.234428	-3.013300	3.701800	-11.153000	24.317858	0.001073	20.779009
829.235981	-2.999100	3.701300	-11.100000	24.309749	0.001070	20.789368
830.235562	-3.012000	3.700700	-11.145000	24.336440	0.001072	20.790064
831.235560	-3.000200	3.702000	-11.105000	24.345717	0.001071	20.804586
832.237886	-3.004600	3.701900	-11.120000	24.329275	0.001072	20.772444
833.236887	-3.018300	3.700300	-11.167000	24.334846	0.001069	20.776136
834.238593	-2.989600	3.701700	-11.066000	24.329323	0.001069	20.770596
835.237617	-2.989200	3.701500	-11.063000	24.349173	0.001069	20.784819
836.238917	-2.985800	3.701700	-11.051000	24.337555	0.001069	20.786915
837.239916	-2.999500	3.698600	-11.093000	24.300116	0.001069	20.775437
838.240916	-2.988700	3.700200	-11.057000	24.306882	0.001069	20.787440
839.239164	-3.026200	3.699400	-11.192000	24.336485	0.001068	20.770669
840.241164	-3.006400	3.699800	-11.123000	24.337631	0.001070	20.777507
841.243731	-3.000500	3.699500	-11.099000	24.311310	0.001068	20.762483
842.243002	-3.018000	3.697900	-11.157000	24.319071	0.001067	20.766950
843.243999	-3.011700	3.698700	-11.137000	24.283694	0.001068	20.776508
844.243315	-3.008500	3.698100	-11.124000	24.279589	0.001068	20.772390
845.243319	-3.033700	3.697200	-11.215000	24.294169	0.001064	20.776584
846.243530	-3.020100	3.696400	-11.160000	24.314022	0.001066	20.768997
847.245532	-3.013200	3.697000	-11.138000	24.335615	0.001067	20.766476
848.244872	-3.009300	3.696900	-11.124000	24.318574	0.001066	20.784943
849.245874	-3.008600	3.696200	-11.120000	24.342108	0.001064	20.773464
850.248323	-2.999100	3.696200	-11.084000	24.364323	0.001066	20.784844
851.246833	-3.016500	3.695800	-11.148000	24.385493	0.001063	20.761984
852.246831	-2.998400	3.696600	-11.083000	24.409573	0.001062	20.785194
853.248413	-2.994600	3.697400	-11.071000	24.403604	0.001062	20.744591
854.246398	-3.008100	3.696500	-11.118000	24.406962	0.001066	20.773091
855.246341	-3.002100	3.696100	-11.095000	24.405294	0.001065	20.778056
856.248470	-3.008600	3.693700	-11.111000	24.401067	0.001063	20.770496
857.249561	-3.012200	3.695400	-11.130000	24.394475	0.001063	20.779056
858.248455	-2.987700	3.696000	-11.041000	24.395793	0.001065	20.772318
859.248454	-3.003700	3.694500	-11.096000	24.403927	0.001064	20.759615
860.248454	-2.991200	3.695300	-11.051000	24.380717	0.001063	20.760512
861.248455	-3.006100	3.695100	-11.106000	24.375668	0.001064	20.771569
862.248601	-3.006100	3.692900	-11.100000	24.384052	0.001063	20.781402
863.249601	-3.002400	3.693700	-11.089000	24.386192	0.001063	20.769324
864.251099	-2.970500	3.694700	-10.974000	24.415594	0.001062	20.776062
865.252101	-2.976600	3.693000	-10.992000	24.430843	0.001059	20.782824
866.252183	-2.973600	3.693400	-10.981000	24.443331	0.001060	20.781602
867.252180	-2.975000	3.693400	-10.986000	24.414552	0.001060	20.783550
868.253845	-2.994600	3.693100	-11.058000	24.400994	0.001059	20.795079
869.253503	-3.007000	3.691000	-11.098000	24.407488	0.001058	20.775990
870.254506	-2.998000	3.693000	-11.070000	24.410673	0.001059	20.755477
871.254261	-2.985500	3.693200	-11.025000	24.440599	0.001059	20.773172
872.254266	-3.025800	3.689700	-11.163000	24.417790	0.001057	20.773049
873.255033	-2.999200	3.691600	-11.071000	24.406024	0.001058	20.766460
874.256028	-2.991700	3.690500	-11.040000	24.403713	0.001058	20.777419
875.257267	-3.003800	3.691300	-11.087000	24.415405	0.001057	20.746473
876.255316	-2.999700	3.691400	-11.072000	24.399436	0.001056	20.752265
877.255311	-2.992400	3.691800	-11.046000	24.407273	0.001055	20.762023
878.256728	-3.012700	3.689600	-11.114000	24.422498	0.001057	20.745054
879.256727	-3.023200	3.688600	-11.151000	24.443393	0.001053	20.738041
880.256881	-2.990200	3.690300	-11.033000	24.413445	0.001054	20.755887
881.257817	-2.986200	3.689100	-11.015000	24.410860	0.001053	20.764200
882.258511	-2.998300	3.689000	-11.060000	24.437701	0.001054	20.764574
883.256513	-3.006400	3.689300	-11.091000	24.477526	0.001054	20.770865
884.256795	-3.016400	3.687700	-11.123000	24.468922	0.001054	20.749903
885.256731	-2.998200	3.689100	-11.060000	24.470690	0.001055	20.747884
886.262094	-2.986800	3.687300	-11.012000	24.480813	0.001052	20.755669
887.261585	-2.986000	3.687500	-11.010000	24.503598	0.001055	20.743442
888.258171	-2.995000	3.687000	-11.041000	24.512505	0.001056	20.734360
889.260167	-2.995400	3.686900	-11.043000	24.487110	0.001054	20.727847
890.260168	-3.007600	3.686100	-11.086000	24.488924	0.001054	20.742470
891.259168	-3.006200	3.685100	-11.077000	24.479849	0.001053	20.763712
892.262169	-3.003700	3.686600	-11.072000	24.451418	0.001052	20.747041
893.265169	-2.979600	3.686000	-10.982000	24.474355	0.001053	20.752035
894.264528	-3.005700	3.686200	-11.078000	24.439480	0.001051	20.755928
895.265298	-2.984700	3.685300	-10.998000	24.455526	0.001049	20.733618
896.264295	-2.973600	3.686200	-10.960000	24.471471	0.001051	20.742029
897.261276	-3.017500	3.684700	-11.118000	24.427794	0.001051	20.753212
898.262274	-3.017700	3.684300	-11.117000	24.419410	0.001052	20.748595
899.264994	-2.986400	3.684800	-11.003000	24.415482	0.001051	20.740386
900.262994	-3.001100	3.684500	-11.057000	24.432026	0.001049	20.738965
901.264084	-3.001400	3.682700	-11.053000	24.406854	0.001049	20.720824
902.266082	-3.002100	3.683100	-11.056000	24.443096	0.001050	20.741063
903.262445	-2.991600	3.682800	-11.016000	24.422376	0.001047	20.739716
904.264790	-3.006900	3.683400	-11.075000	24.414715	0.001049	20.713537
905.265787	-2.976400	3.684900	-10.967000	24.386061	0.001047	20.729836
906.263788	-3.001600	3.683600	-11.056000	24.352703	0.001049	20.723399
907.265846	-3.007500	3.681800	-11.073000	24.329319	0.001047	20.748780
908.266597	-2.980800	3.681900	-10.974000	24.313721	0.001047	20.716536
909.264599	-3.002700	3.681600	-11.053000	24.360814	0.001045	20.739123
910.268934	-2.987500	3.682000	-10.999000	24.352010	0.001046	20.741197
911.267931	-3.003000	3.681600	-11.054000	24.380844	0.001044	20.756846
912.264928	-2.999200	3.681800	-11.041000	24.424155	0.001044	20.725378
913.266399	-2.998500	3.681100	-11.037000	24.433584	0.001045	20.733890
914.270662	-3.022700	3.679400	-11.121000	24.441196	0.001043	20.726353
915.266703	-2.997300	3.680500	-11.031000	24.448834	0.001046	20.723110
916.270706	-2.978400	3.681400	-10.963000	24.438735	0.001043	20.724833
917.272769	-3.008200	3.680100	-11.069000	24.466324	0.001043	20.727381
918.269409	-2.998500	3.679400	-11.032000	24.438266	0.001043	20.723888
919.272460	-3.003800	3.677900	-11.046000	24.433839	0.001043	20.724662
920.271131	-3.034500	3.677700	-11.160000	24.438492	0.001043	20.713209
921.269133	-3.007500	3.678200	-11.061000	24.425137	0.001041	20.736795
922.272130	-2.998000	3.678400	-11.026000	24.450286	0.001041	20.724568
923.271795	-2.988000	3.679700	-10.994000	24.442055	0.001044	20.720103
924.271895	-3.003600	3.678400	-11.046000	24.444866	0.001041	20.735726
925.274593	-2.999200	3.678500	-11.032000	24.474096	0.001039	20.716212
926.276441	-3.010000	3.676000	-11.064000	24.495812	0.001040	20.740372
927.270918	-2.982900	3.677900	-10.970000	24.495191	0.001040	20.735007
928.272913	-3.021500	3.675000	-11.103000	24.473080	0.001040	20.695750
929.275150	-3.008600	3.675800	-11.058000	24.447735	0.001042	20.709680
930.273005	-3.006800	3.677500	-11.056000	24.397090	0.001039	20.711976
931.276406	-3.002700	3.675700	-11.036000	24.391919	0.001039	20.711056
932.273396	-3.000300	3.675700	-11.028000	24.365552	0.001040	20.714476
933.272895	-2.990300	3.675400	-10.989000	24.339407	0.001039	20.702473
934.275547	-2.991700	3.675700	-10.994000	24.349533	0.001037	20.703147
935.277543	-3.012400	3.675000	-11.068000	24.360430	0.001036	20.704122
936.273840	-3.000900	3.676100	-11.031000	24.394962	0.001036	20.707470
937.276843	-2.999900	3.675200	-11.024000	24.393944	0.001036	20.703604
938.277609	-3.011000	3.674700	-11.064000	24.389044	0.001038	20.705801
939.275599	-3.004300	3.675300	-11.041000	24.413398	0.001037	20.715061
940.275595	-2.995400	3.673700	-11.003000	24.425366	0.001036	20.700988
941.276596	-3.009300	3.673400	-11.053000	24.448525	0.001036	20.705730
942.274598	-3.001300	3.674200	-11.026000	24.433378	0.001036	20.708552
943.276597	-3.000800	3.672500	-11.019000	24.452609	0.001035	20.708879
944.277598	-2.992900	3.672900	-10.990000	24.438407	0.001036	20.707433
945.277692	-2.977600	3.674300	-10.939000	24.458581	0.001035	20.731467
946.277894	-3.005700	3.671800	-11.036000	24.486741	0.001033	20.688593
947.278900	-3.007100	3.671700	-11.040000	24.496816	0.001036	20.689693
948.276246	-3.028100	3.671700	-11.117000	24.480126	0.001033	20.682905
949.281281	-2.993600	3.672000	-10.991000	24.476944	0.001034	20.686350
950.282467	-2.998500	3.669700	-11.003000	24.502567	0.001033	20.693092
951.277465	-2.981100	3.671200	-10.943000	24.507990	0.001034	20.682885
952.279745	-2.980900	3.671600	-10.943000	24.520651	0.001032	20.701754
953.283751	-3.020100	3.670000	-11.082000	24.552640	0.001031	20.688329
954.278747	-3.009700	3.670900	-11.048000	24.539781	0.001031	20.698662
955.284786	-2.992700	3.671900	-10.987000	24.541351	0.001031	20.679847
956.282787	-3.006300	3.669100	-11.029000	24.577691	0.001031	20.697819
957.280823	-2.989000	3.670700	-10.971000	24.556302	0.001030	20.697694
958.283830	-2.987100	3.670000	-10.961000	24.544490	0.001029	20.707180
959.281870	-2.996400	3.670100	-10.996000	24.496835	0.001028	20.717689
960.281132	-3.000600	3.669100	-11.009000	24.479177	0.001030	20.693807
961.285127	-2.982800	3.669300	-10.943000	24.511018	0.001031	20.690665
962.284070	-2.996100	3.669200	-10.992000	24.509798	0.001028	20.691813
963.284072	-2.989400	3.668000	-10.964000	24.512863	0.001030	20.687774
964.286571	-2.996600	3.667900	-10.991000	24.498088	0.001028	20.706618
965.283139	-2.981600	3.668500	-10.937000	24.481999	0.001027	20.699958
966.283174	-3.005000	3.667900	-11.021000	24.472025	0.001029	20.684734
967.288176	-2.987000	3.667000	-10.952000	24.464915	0.001026	20.689455
968.285589	-2.975700	3.668400	-10.915000	24.450490	0.001027	20.665498
969.285687	-2.987900	3.667600	-10.957000	24.442231	0.001027	20.677128
970.288689	-2.976500	3.667400	-10.915000	24.472309	0.001027	20.694977
971.285857	-2.995300	3.667000	-10.982000	24.461866	0.001027	20.707734
972.285860	-3.001700	3.666700	-11.006000	24.464305	0.001024	20.700224
973.288074	-2.994600	3.664300	-10.971000	24.456770	0.001025	20.698354
974.287673	-3.003600	3.664600	-11.006000	24.468987	0.001025	20.692593
975.287666	-3.008100	3.665600	-11.025000	24.477746	0.001026	20.684310
976.288980	-3.019400	3.664200	-11.063000	24.471753	0.001025	20.695368
977.287980	-2.996900	3.664400	-10.981000	24.453546	0.001024	20.715509
978.287750	-2.987300	3.664900	-10.947000	24.437978	0.001025	20.690406
979.289110	-3.006100	3.664600	-11.015000	24.427260	0.001024	20.672065
980.288110	-2.989200	3.663000	-10.948000	24.408407	0.001022	20.660736
981.288711	-3.029200	3.663300	-11.095000	24.408755	0.001024	20.686219
982.288418	-3.025300	3.662800	-11.080000	24.450101	0.001023	20.685972
983.287698	-3.021300	3.661000	-11.058000	24.472314	0.001023	20.679333
984.287696	-2.979600	3.663200	-10.914000	24.484655	0.001023	20.690294
985.289431	-3.000200	3.661400	-10.983000	24.497815	0.001022	20.682634
986.288437	-2.994600	3.662700	-10.968000	24.543210	0.001022	20.670332
987.289551	-3.002600	3.663200	-10.998000	24.518960	0.001023	20.682512
988.288545	-2.996100	3.662400	-10.972000	24.518312	0.001022	20.681862
989.288507	-3.000100	3.662100	-10.985000	24.501377	0.001021	20.681940
990.289901	-3.005900	3.661100	-11.004000	24.503942	0.001022	20.689256
991.290897	-2.987500	3.662100	-10.940000	24.516628	0.001022	20.695820
992.289211	-2.988900	3.661300	-10.942000	24.517026	0.001022	20.681520
993.290215	-3.002500	3.660300	-10.990000	24.505038	0.001021	20.690830
994.292050	-2.999400	3.660100	-10.977000	24.525283	0.001022	20.691227
995.290038	-2.989500	3.659300	-10.939000	24.487453	0.001020	20.689308
996.289494	-2.996400	3.660500	-10.968000	24.505187	0.001020	20.676279
997.290806	-3.003900	3.660600	-10.993000	24.504939	0.001020	20.686937
998.291038	-2.982300	3.660600	-10.915000	24.534663	0.001020	20.685939
999.290198	-3.020000	3.657700	-11.045000	24.548514	0.001019	20.687508
1000.292203	-2.993400	3.658200	-10.949000	24.567518	0.001018	20.675755
1001.293318	-2.993800	3.659400	-10.953000	24.581022	0.001017	20.676502
1002.293121	-3.003800	3.657900	-10.986000	24.598853	0.001018	20.696292
1003.292119	-3.023000	3.656800	-11.054000	24.601266	0.001019	20.691126
1004.292247	-2.982200	3.658500	-10.909000	24.594549	0.001020	20.694818
1005.292250	-2.998700	3.657200	-10.966000	24.564129	0.001016	20.678519
1006.292198	-2.995000	3.658700	-10.957000	24.525378	0.001016	20.692271
1007.293197	-3.002000	3.657800	-10.979000	24.527143	0.001017	20.697361
1008.296577	-2.968800	3.658300	-10.860000	24.521123	0.001016	20.689424
1009.293588	-2.978000	3.657000	-10.889000	24.478290	0.001014	20.698608
1010.294583	-2.986200	3.655800	-10.917000	24.484832	0.001014	20.669607
1011.295388	-2.990400	3.656300	-10.932000	24.467967	0.001015	20.695363
1012.295389	-3.023300	3.653800	-11.044000	24.478042	0.001013	20.691246
1013.295704	-2.994900	3.654500	-10.942000	24.486300	0.001014	20.705221
1014.297711	-2.992700	3.655600	-10.940000	24.456649	0.001013	20.689697
1015.296702	-3.004100	3.654400	-10.978000	24.446724	0.001013	20.693491
1016.298705	-3.015600	3.654200	-11.018000	24.417273	0.001012	20.702351
1017.298702	-3.021200	3.653500	-11.036000	24.434040	0.001007	20.691196
1018.298292	-3.007400	3.654100	-10.988000	24.453815	0.001009	20.701080
1019.299295	-3.024700	3.653200	-11.049000	24.437771	0.001009	20.693044
1020.299452	-3.002400	3.654100	-10.970000	24.431080	0.001009	20.697237
1021.298455	-2.999400	3.653800	-10.958000	24.440908	0.001008	20.694294
1022.298451	-2.975800	3.654200	-10.872000	24.435833	0.001010	20.711015
1023.298789	-2.990800	3.653000	-10.924000	24.475037	0.001006	20.703405
1024.298790	-3.019100	3.652300	-11.026000	24.507447	0.001007	20.718853
1025.298819	-2.992000	3.651400	-10.924000	24.542370	0.001007	20.690354
1026.299821	-3.010600	3.651100	-10.991000	24.556199	0.001006	20.676726
1027.299815	-3.050700	3.651100	-11.137000	24.586866	0.001007	20.700386
1028.299818	-3.039600	3.650100	-11.094000	24.623155	0.001004	20.703608
1029.299815	-2.999000	3.651100	-10.949000	24.633628	0.001005	20.697520
1030.300827	-2.997800	3.650800	-10.944000	24.636065	0.001003	20.701863
1031.300820	-3.012400	3.648700	-10.990000	24.611519	0.001003	20.718960
1032.300279	-3.019500	3.650000	-11.020000	24.576975	0.001002	20.723654
1033.302282	-3.020300	3.647800	-11.016000	24.571156	0.001003	20.732041
1034.304107	-3.019800	3.649200	-11.019000	24.581030	0.001001	20.704014
1035.302021	-3.000600	3.649800	-10.950000	24.568025	0.001002	20.719890
1036.302019	-3.013800	3.647600	-10.991000	24.545369	0.001003	20.704743
1037.302022	-2.998300	3.650000	-10.941000	24.561486	0.001004	20.708586
1038.302018	-3.006900	3.649600	-10.973000	24.567507	0.001002	20.714154
1039.302110	-2.998900	3.647200	-10.937000	24.577458	0.001001	20.705646
1040.304112	-3.023000	3.646800	-11.023000	24.607578	0.000999	20.721170
1041.304643	-3.003700	3.647400	-10.954000	24.590444	0.001001	20.716306
1042.302889	-3.005800	3.646900	-10.961000	24.542470	0.001000	20.701834
1043.302888	-3.010000	3.646200	-10.973000	24.537894	0.001000	20.706727
1044.302233	-2.999900	3.646100	-10.937000	24.549038	0.000999	20.701786
1045.302233	-2.987300	3.646900	-10.893000	24.537053	0.001000	20.715840
1046.306274	-2.993600	3.646500	-10.915000	24.560906	0.000998	20.723178
1047.306276	-3.000700	3.646700	-10.942000	24.578992	0.000997	20.712875
1048.306593	-3.001900	3.644200	-10.937000	24.622739	0.000999	20.707932
1049.307723	-2.981700	3.645100	-10.868000	24.638035	0.000997	20.706211
1050.305721	-3.007000	3.646200	-10.963000	24.655697	0.000996	20.698328
1051.304911	-3.007200	3.644900	-10.960000	24.635405	0.000996	20.695984
1052.307907	-2.989100	3.645400	-10.896000	24.652443	0.000996	20.736317
1053.306376	-2.995400	3.644100	-10.915000	24.676049	0.000995	20.677497
1054.305380	-3.015700	3.643800	-10.988000	24.671398	0.000996	20.721197
1055.310507	-2.977500	3.644100	-10.850000	24.692438	0.000994	20.725716
1056.310478	-3.006700	3.643800	-10.955000	24.698509	0.000995	20.705253
1057.305477	-2.993600	3.643800	-10.907000	24.702961	0.000994	20.725844
1058.310508	-3.003500	3.643200	-10.942000	24.726913	0.000995	20.721904
1059.309511	-2.992800	3.643100	-10.901000	24.722338	0.000994	20.732961
1060.306631	-3.015100	3.641900	-10.980000	24.755685	0.000994	20.699567
1061.309159	-3.026500	3.641600	-11.020000	24.756088	0.000994	20.712300
1062.309154	-3.002000	3.641600	-10.931000	24.740896	0.000996	20.712702
1063.307538	-3.012900	3.640500	-10.967000	24.749799	0.000993	20.702669
1064.309751	-2.985200	3.642600	-10.871000	24.761312	0.000993	20.709482
1065.311121	-2.987700	3.641900	-10.879000	24.765492	0.000993	20.721264
1066.311123	-2.974200	3.643200	-10.833000	24.741296	0.000992	20.721639
1067.314885	-2.991400	3.641200	-10.890000	24.708271	0.000992	20.738285
1068.314885	-3.018600	3.639000	-10.983000	24.648140	0.000991	20.708290
1069.314080	-3.010500	3.639900	-10.957000	24.634411	0.000991	20.716800
1070.314384	-2.991400	3.641300	-10.890000	24.611777	0.000991	20.720641
1071.314382	-3.005500	3.640000	-10.938000	24.616655	0.000993	20.723165
1072.313693	-3.002100	3.639200	-10.924000	24.602206	0.000990	20.710089
1073.314693	-2.981100	3.640100	-10.851000	24.576686	0.000992	20.734745
1074.315694	-2.995000	3.639400	-10.899000	24.576587	0.000989	20.719946
1075.314695	-2.978900	3.639800	-10.842000	24.562212	0.000990	20.737766
1076.316041	-2.990600	3.639600	-10.883000	24.553557	0.000989	20.721969
1077.315039	-2.987400	3.638800	-10.869000	24.504559	0.000988	20.730181
1078.316091	-2.995600	3.638300	-10.898000	24.511475	0.000987	20.714833
1079.317351	-3.009500	3.637800	-10.946000	24.497295	0.000987	20.746127
1080.317354	-2.999300	3.637200	-10.909000	24.505356	0.000987	20.719600
1081.317799	-3.009400	3.637500	-10.946000	24.509386	0.000985	20.722696
1082.316838	-2.998000	3.636200	-10.900000	24.532098	0.000986	20.724619
1083.317997	-3.009600	3.635500	-10.940000	24.537645	0.000986	20.738721
1084.316165	-2.999900	3.636100	-10.907000	24.571472	0.000983	20.748954
1085.318167	-3.010700	3.634300	-10.941000	24.586769	0.000983	20.737276
1086.317163	-2.999800	3.635500	-10.905000	24.585253	0.000982	20.750453
1087.317163	-3.021600	3.635400	-10.982000	24.609303	0.000983	20.752774
1088.318161	-3.023400	3.633900	-10.984000	24.619031	0.000980	20.745939
1089.317171	-3.016300	3.635700	-10.965000	24.627188	0.000982	20.729467
1090.317174	-2.989000	3.634900	-10.864000	24.634253	0.000983	20.712374
1091.317317	-3.013000	3.634700	-10.951000	24.611596	0.000983	20.721408
1092.317316	-3.001300	3.633600	-10.904000	24.594164	0.000983	20.741376
1093.319043	-3.012600	3.633700	-10.946000	24.614609	0.000981	20.745770
1094.319457	-2.993900	3.633900	-10.879000	24.578126	0.000981	20.750889
1095.317490	-3.020200	3.632000	-10.968000	24.589739	0.000979	20.753059
1096.318995	-3.004000	3.632000	-10.910000	24.621625	0.000979	20.741904
1097.320994	-3.002300	3.631000	-10.901000	24.653935	0.000979	20.739238
1098.319606	-2.992900	3.633500	-10.873000	24.678633	0.000980	20.753115
1099.319607	-2.948400	3.632600	-10.709000	24.655880	0.000977	20.729808
1100.321805	-2.999500	3.630900	-10.889000	24.656003	0.000976	20.735148
1101.325721	-2.983700	3.632000	-10.835000	24.644566	0.000978	20.756863
1102.320723	-2.974500	3.632200	-10.803000	24.627183	0.000979	20.732308
1103.324546	-3.011100	3.630300	-10.929000	24.612312	0.000976	20.753896
1104.323500	-3.006100	3.631500	-10.916000	24.620743	0.000975	20.742442
1105.321666	-3.014700	3.628200	-10.937000	24.596124	0.000975	20.724375
1106.323667	-3.007500	3.629600	-10.915000	24.593538	0.000977	20.750232
1107.325055	-3.004700	3.629700	-10.905000	24.637635	0.000976	20.754176
1108.322652	-2.995400	3.630200	-10.873000	24.673572	0.000977	20.730492
1109.325648	-3.028800	3.628300	-10.988000	24.699862	0.000975	20.765410
1110.325099	-3.002700	3.628900	-10.895000	24.752834	0.000975	20.748392
1111.326100	-3.015000	3.628200	-10.938000	24.785311	0.000975	20.764389
1112.329270	-3.026900	3.627700	-10.979000	24.814057	0.000972	20.780910
1113.326300	-3.012900	3.627800	-10.928000	24.833878	0.000974	20.756231
1114.324343	-3.016000	3.627600	-10.939000	24.853795	0.000973	20.768160
1115.325402	-3.005600	3.626300	-10.898000	24.866553	0.000972	20.744454
1116.327400	-3.013600	3.627300	-10.930000	24.867970	0.000971	20.753937
1117.325972	-2.990800	3.627500	-10.846000	24.835599	0.000974	20.748475
1118.328974	-2.998600	3.628600	-10.879000	24.813443	0.000972	20.767018
1119.327972	-2.983900	3.626800	-10.821000	24.818267	0.000970	20.772807
1120.328979	-2.985000	3.625900	-10.822000	24.819884	0.000973	20.755464
1121.330977	-3.001900	3.626500	-10.885000	24.817025	0.000971	20.753542
1122.331984	-2.994300	3.627100	-10.860000	24.805686	0.000970	20.745007
1123.329986	-2.997300	3.626000	-10.867000	24.772689	0.000970	20.751722
1124.333958	-2.992300	3.625900	-10.848000	24.750161	0.000968	20.749977
1125.331055	-3.013500	3.623900	-10.920000	24.766498	0.000968	20.747405
1126.330056	-2.976000	3.626200	-10.789000	24.771596	0.000970	20.784291
1127.334396	-2.989400	3.626000	-10.839000	24.762619	0.000969	20.762953
1128.329391	-3.014500	3.625200	-10.927000	24.782040	0.000970	20.759210
1129.329415	-3.008500	3.623200	-10.899000	24.799049	0.000970	20.761580
1130.333416	-2.988600	3.623600	-10.828000	24.790344	0.000968	20.763750
1131.333713	-3.013700	3.623600	-10.920000	24.789226	0.000969	20.765473
1132.330161	-2.998700	3.621900	-10.860000	24.777637	0.000967	20.790353
1133.334191	-2.995800	3.623200	-10.854000	24.827196	0.000965	20.769914
1134.336060	-3.006200	3.621800	-10.887000	24.832886	0.000965	20.753813
1135.331347	-3.013000	3.622500	-10.913000	24.818865	0.000966	20.766769
1136.334520	-3.020600	3.621700	-10.938000	24.840992	0.000965	20.753888
1137.336525	-3.002200	3.621100	-10.869000	24.851732	0.000966	20.773202
1138.331522	-2.990200	3.622800	-10.832000	24.875178	0.000965	20.774448
1139.335132	-2.994500	3.621900	-10.845000	24.878163	0.000963	20.791669
1140.335132	-3.010300	3.622900	-10.904000	24.911278	0.000964	20.773696
1141.331656	-2.999700	3.620400	-10.858000	24.925723	0.000962	20.781082
1142.335525	-3.000700	3.621000	-10.865000	24.951307	0.000962	20.806761
1143.335527	-3.022500	3.619100	-10.938000	24.952301	0.000962	20.767455
1144.334529	-2.991200	3.619100	-10.824000	24.925520	0.000962	20.809328
1145.337525	-3.005000	3.619200	-10.873000	24.915872	0.000961	20.779255
1146.338491	-3.007200	3.619900	-10.884000	24.905355	0.000960	20.791933
1147.335497	-2.988400	3.619300	-10.816000	24.910675	0.000960	20.792057
1148.338613	-2.971100	3.619800	-10.754000	24.948913	0.000960	20.799143
1149.339099	-2.999500	3.617800	-10.851000	24.940133	0.000960	20.798865
1150.336256	-3.004900	3.619300	-10.874000	24.952047	0.000960	20.786641
1151.339683	-3.009100	3.616800	-10.883000	24.914774	0.000959	20.792852
1152.339683	-3.011000	3.616500	-10.888000	24.932973	0.000959	20.797368
1153.336930	-2.991700	3.618500	-10.825000	24.957563	0.000958	20.796444
1154.339929	-3.006700	3.616300	-10.871000	24.959054	0.000957	20.800786
1155.341930	-2.998900	3.617500	-10.847000	24.965094	0.000958	20.796892
1156.336274	-2.989900	3.617500	-10.815000	24.980111	0.000954	20.797266
1157.339271	-2.968800	3.617800	-10.739000	24.999605	0.000955	20.805928
1158.341802	-3.013800	3.613500	-10.889000	24.999927	0.000953	20.789655
1159.336806	-2.991000	3.616500	-10.816000	25.004774	0.000955	20.810642
1160.340695	-3.034400	3.614500	-10.966000	25.013972	0.000956	20.807072
1161.341039	-3.013900	3.615100	-10.894000	25.025484	0.000954	20.808197
1162.339054	-3.003600	3.613300	-10.852000	25.056838	0.000953	20.795573
1163.340726	-3.001200	3.614900	-10.847000	25.059719	0.000953	20.798939
1164.341724	-3.019100	3.613200	-10.907000	25.036475	0.000952	20.795995
1165.339318	-2.999100	3.614500	-10.839000	25.017756	0.000954	20.798542
1166.341318	-2.999200	3.613700	-10.837000	24.994879	0.000951	20.812089
1167.343542	-3.003400	3.613500	-10.852000	24.973226	0.000952	20.800786
1168.340530	-3.007700	3.611800	-10.862000	24.959353	0.000950	20.830010
1169.339711	-3.017300	3.611100	-10.895000	24.984214	0.000950	20.809445
1170.341711	-3.008900	3.610500	-10.862000	24.987546	0.000949	20.807573
1171.339711	-3.007100	3.611700	-10.859000	25.030285	0.000950	20.830558
1172.342752	-2.993100	3.611100	-10.806000	24.996897	0.000948	20.815537
1173.341755	-2.999100	3.612100	-10.832000	25.008335	0.000948	20.813268
1174.342391	-2.994700	3.611800	-10.815000	24.997470	0.000949	20.819432
1175.341699	-3.012400	3.608800	-10.870000	25.002169	0.000947	20.827467
1176.342746	-3.002600	3.609100	-10.836000	25.001573	0.000946	20.822602
1177.341191	-3.010900	3.608500	-10.863000	25.006173	0.000948	20.828641
1178.343143	-2.989100	3.609700	-10.788000	25.004185	0.000947	20.824749
1179.344240	-2.992800	3.610100	-10.803000	25.032928	0.000946	20.810926
1180.342241	-3.016000	3.608300	-10.882000	25.055527	0.000947	20.818912
1181.345578	-3.003600	3.608900	-10.838000	25.045085	0.000944	20.839251
1182.344077	-3.003500	3.607800	-10.834000	25.053491	0.000944	20.834887
1183.341134	-3.002000	3.607900	-10.830000	25.052720	0.000946	20.850707
1184.343439	-2.992600	3.606600	-10.792000	25.015205	0.000944	20.831543
1185.343331	-2.987600	3.607300	-10.776000	25.025646	0.000943	20.831592
1186.342441	-2.994400	3.607400	-10.802000	25.031218	0.000944	20.831969
1187.343446	-2.984100	3.607200	-10.762000	25.013968	0.000941	20.829353
1188.344578	-2.996800	3.606500	-10.806000	25.016827	0.000942	20.841231
1189.342786	-3.005800	3.606900	-10.839000	25.010686	0.000941	20.841231
1190.345790	-3.012300	3.605400	-10.860000	25.010688	0.000940	20.846449
1191.344798	-2.992700	3.606100	-10.790000	25.020610	0.000940	20.826063
1192.342929	-3.025200	3.605600	-10.907000	24.985855	0.000941	20.850445
1193.345279	-2.996800	3.604600	-10.801000	24.973872	0.000940	20.821823
1194.348281	-2.979900	3.604500	-10.739000	25.013975	0.000938	20.828411
1195.343451	-3.002000	3.604300	-10.819000	25.022678	0.000939	20.837147
1196.345315	-2.992700	3.605000	-10.787000	25.037748	0.000938	20.833783
1197.347312	-3.005700	3.604500	-10.833000	25.045830	0.000938	20.819611
1198.342217	-3.012700	3.603000	-10.853000	25.067284	0.000937	20.816016
1199.345217	-3.031500	3.601900	-10.917000	25.085114	0.000935	20.831543
1200.346738	-2.974300	3.603700	-10.717000	25.093020	0.000936	20.857971
1201.342738	-2.980400	3.603400	-10.739000	25.124219	0.000936	20.834289
1202.344741	-2.986600	3.603900	-10.762000	25.123007	0.000937	20.827383
1203.345950	-3.007100	3.601700	-10.829000	25.089546	0.000934	20.840733
1204.345953	-3.003100	3.602400	-10.817000	25.109957	0.000934	20.846524
1205.349169	-2.976900	3.602300	-10.722000	25.097753	0.000935	20.844230
1206.347532	-2.989500	3.601900	-10.767000	25.108493	0.000933	20.846003
1207.345532	-3.012100	3.601600	-10.845000	25.063947	0.000933	20.845856
1208.348810	-3.001200	3.599800	-10.802000	25.009677	0.000931	20.860132
1209.349809	-3.015500	3.599700	-10.854000	24.958064	0.000932	20.847681
1210.347444	-3.004800	3.599200	-10.813000	24.933053	0.000930	20.857190
1211.350445	-3.016300	3.599800	-10.857000	24.898965	0.000931	20.844314
1212.353996	-3.002400	3.598700	-10.804000	24.889492	0.000930	20.857091
1213.348178	-3.011800	3.598800	-10.838000	24.906798	0.000931	20.864029
1214.351176	-3.016800	3.598400	-10.855000	24.925049	0.000928	20.868123
1215.350650	-2.983600	3.599000	-10.736000	24.934253	0.000927	20.844644
1216.348649	-3.007600	3.599200	-10.823000	24.943305	0.000928	20.848040
1217.349642	-3.007700	3.598600	-10.823000	24.963767	0.000926	20.857198
1218.350643	-2.971200	3.598600	-10.691000	24.981198	0.000927	20.853357
1219.352816	-2.991300	3.595600	-10.753000	25.005391	0.000927	20.867683
1220.352855	-3.016000	3.596300	-10.844000	25.035128	0.000925	20.850118
1221.351858	-2.992500	3.595700	-10.758000	25.031623	0.000927	20.853238
1222.351032	-2.985300	3.595900	-10.733000	24.972977	0.000924	20.836097
1223.353033	-3.017200	3.594000	-10.843000	24.982103	0.000924	20.859481
1224.351710	-2.986600	3.597800	-10.743000	24.984687	0.000925	20.843110
1225.353713	-2.988200	3.594600	-10.740000	24.997024	0.000923	20.863552
1226.353441	-3.010500	3.594500	-10.821000	25.047715	0.000924	20.836675
1227.353441	-2.984400	3.593900	-10.723000	25.076531	0.000925	20.846635
1228.353439	-2.976300	3.595200	-10.700000	25.088268	0.000921	20.843718
1229.354440	-3.001800	3.594200	-10.787000	25.076863	0.000923	20.827053
1230.355442	-3.007600	3.592800	-10.804000	25.088372	0.000920	20.842400
1231.357079	-2.993700	3.593600	-10.757000	25.109380	0.000920	20.825556
1232.355987	-3.004600	3.594100	-10.798000	25.108390	0.000920	20.838788
1233.354986	-3.021200	3.592600	-10.853000	25.110082	0.000918	20.849020
1234.355354	-2.984700	3.594000	-10.726000	25.118062	0.000920	20.829531
1235.356355	-3.007800	3.592000	-10.803000	25.142650	0.000919	20.842360
1236.355271	-3.018200	3.591300	-10.838000	25.113072	0.000917	20.844435
1237.357608	-3.004100	3.592300	-10.791000	25.111556	0.000917	20.841017
1238.359501	-2.996100	3.591100	-10.758000	25.076880	0.000917	20.851726
1239.356462	-2.983600	3.590700	-10.712000	25.054012	0.000919	20.836357
1240.356461	-2.993700	3.592100	-10.753000	25.031712	0.000916	20.824879
1241.357983	-2.997100	3.590100	-10.759000	24.990022	0.000915	20.829024
1242.356981	-2.997000	3.591200	-10.762000	25.009839	0.000914	20.820942
1243.356405	-3.013800	3.589000	-10.814000	25.014242	0.000915	20.825834
1244.358509	-2.990100	3.589300	-10.731000	25.026226	0.000915	20.836916
1245.358190	-2.984800	3.589900	-10.714000	25.036596	0.000916	20.814135
1246.357307	-3.005400	3.589900	-10.786000	25.038562	0.000912	20.833177
1247.357305	-2.994100	3.588800	-10.743000	25.016465	0.000911	20.830911
1248.356307	-2.976000	3.589500	-10.682000	25.018206	0.000912	20.811796
1249.358307	-3.004400	3.587000	-10.776000	25.016319	0.000912	20.830291
1250.359777	-3.000000	3.588000	-10.763000	25.000934	0.000912	20.814848
1251.358778	-3.017100	3.587000	-10.821000	25.006028	0.000911	20.823754
1252.358222	-2.996100	3.588000	-10.749000	25.013418	0.000909	20.809836
1253.359746	-3.000400	3.588600	-10.764000	25.039624	0.000909	20.809113
1254.358747	-3.012500	3.586300	-10.802000	25.056829	0.000910	20.823065
1255.359081	-3.016800	3.585100	-10.815000	25.096808	0.000909	20.813410
1256.359083	-3.014900	3.586500	-10.811000	25.092233	0.000910	20.818775
1257.361249	-3.031900	3.585300	-10.869000	25.053431	0.000909	20.802585
1258.359941	-2.988200	3.585100	-10.711000	25.047392	0.000909	20.818333
1259.359937	-2.999500	3.584800	-10.750000	25.039513	0.000908	20.809476
1260.360513	-2.972800	3.585200	-10.656000	25.043816	0.000909	20.792933
1261.362513	-2.974000	3.583800	-10.657000	25.027731	0.000906	20.800495
1262.362514	-3.027700	3.582900	-10.846000	25.040638	0.000905	20.817244
1263.363799	-3.012800	3.583800	-10.797000	25.024877	0.000906	20.814699
1264.364801	-3.013900	3.581800	-10.794000	25.036016	0.000906	20.800751
1265.365425	-3.004600	3.582500	-10.763000	25.032440	0.000905	20.801903
1266.365423	-3.007000	3.582100	-10.771000	25.057898	0.000904	20.814181
1267.367033	-2.998200	3.582700	-10.740000	25.055314	0.000904	20.794043
1268.366319	-3.002500	3.581200	-10.751000	25.075254	0.000904	20.799835
1269.366314	-2.994100	3.582000	-10.722000	25.062704	0.000902	20.794349
1270.366992	-2.993700	3.582300	-10.723000	25.047467	0.000904	20.812245
1271.366994	-3.014600	3.581000	-10.794000	25.038591	0.000903	20.812344
1272.367361	-2.995400	3.580400	-10.724000	25.082822	0.000901	20.812647
1273.368773	-2.973700	3.581000	-10.647000	25.097563	0.000901	20.782401
1274.369780	-3.011400	3.581300	-10.783000	25.096198	0.000901	20.792885
1275.370243	-2.990300	3.581600	-10.709000	25.105524	0.000901	20.790866
1276.370239	-3.021600	3.579500	-10.815000	25.104555	0.000902	20.798902
1277.371367	-2.996500	3.580200	-10.726000	25.083129	0.000899	20.795412
1278.373371	-3.009600	3.579300	-10.771000	25.097074	0.000899	20.780013
1279.372640	-2.999300	3.578200	-10.731000	25.087531	0.000899	20.791296
1280.373054	-2.984100	3.579700	-10.680000	25.134888	0.000897	20.806593
1281.374091	-3.011000	3.576800	-10.768000	25.129495	0.000899	20.791696
1282.372572	-3.016300	3.578300	-10.792000	25.146177	0.000897	20.763872
1283.373574	-2.997400	3.578500	-10.725000	25.173024	0.000900	20.794144
1284.373267	-3.009900	3.578000	-10.768000	25.177250	0.000897	20.783213
1285.374268	-2.988200	3.577000	-10.688000	25.177327	0.000896	20.787558
1286.373267	-3.022900	3.574700	-10.804000	25.204423	0.000895	20.789631
1287.374789	-2.993700	3.576400	-10.705000	25.204371	0.000894	20.790053
1288.374786	-3.014400	3.576200	-10.779000	25.193734	0.000892	20.775580
1289.375207	-3.006100	3.576500	-10.751000	25.214514	0.000896	20.798339
1290.377208	-3.002000	3.574700	-10.730000	25.218592	0.000893	20.789631
1291.378683	-2.996800	3.576800	-10.718000	25.231118	0.000894	20.793198
1292.378638	-2.983200	3.577200	-10.669000	25.242329	0.000892	20.783591
1293.377995	-3.001700	3.574200	-10.727000	25.244542	0.000892	20.787235
1294.377150	-2.986200	3.576300	-10.679000	25.251701	0.000890	20.765973
1295.377133	-3.000900	3.574000	-10.725000	25.222645	0.000889	20.774259
1296.377134	-2.992900	3.573100	-10.692000	25.230448	0.000888	20.782094
1297.378212	-2.995200	3.573600	-10.703000	25.223142	0.000890	20.783293
1298.382431	-3.006200	3.571900	-10.737000	25.249268	0.000889	20.785816
1299.382036	-3.005100	3.573400	-10.737000	25.237708	0.000888	20.760459
1300.381039	-3.006600	3.572600	-10.740000	25.248669	0.000888	20.792801
1301.380584	-3.009200	3.571600	-10.747000	25.241637	0.000886	20.782896
1302.380582	-2.986100	3.573300	-10.669000	25.200999	0.000887	20.779555
1303.381582	-2.993700	3.572700	-10.695000	25.197742	0.000887	20.786717
1304.381612	-3.005800	3.569900	-10.729000	25.151061	0.000886	20.767828
1305.384040	-3.001300	3.571100	-10.717000	25.114069	0.000885	20.767676
1306.381505	-3.002800	3.570000	-10.719000	25.098982	0.000884	20.771023
1307.381502	-3.009400	3.571300	-10.745000	25.086207	0.000882	20.781906
1308.382412	-3.011900	3.570400	-10.752000	25.061823	0.000883	20.762645
1309.381410	-2.999700	3.568300	-10.702000	25.082851	0.000882	20.766209
1310.382059	-3.015000	3.568000	-10.756000	25.109975	0.000882	20.788222
1311.385063	-3.018700	3.569900	-10.774000	25.078377	0.000881	20.783056
1312.386491	-3.001900	3.568200	-10.711000	25.075497	0.000881	20.777319
1313.382391	-3.000100	3.570000	-10.709000	25.100283	0.000879	20.780390
1314.385389	-2.983100	3.569600	-10.647000	25.141796	0.000881	20.788872
1315.386303	-2.975100	3.569700	-10.619000	25.119402	0.000880	20.770658
1316.382304	-3.002100	3.566700	-10.706000	25.100657	0.000879	20.768911
1317.386734	-2.986500	3.568200	-10.655000	25.123480	0.000878	20.788503
1318.385687	-2.981800	3.569200	-10.641000	25.155375	0.000878	20.776426
1319.383046	-3.000200	3.566000	-10.698000	25.181500	0.000876	20.789851
1320.385533	-2.968500	3.567400	-10.588000	25.191965	0.000877	20.776175
1321.384533	-2.986700	3.566700	-10.651000	25.216894	0.000876	20.764693
1322.382739	-3.002400	3.566500	-10.707000	25.204942	0.000877	20.777823
1323.384740	-2.962300	3.565500	-10.562000	25.189554	0.000877	20.778496
1324.385737	-3.003100	3.565300	-10.706000	25.135908	0.000875	20.761624
1325.382343	-3.003300	3.564000	-10.703000	25.086536	0.000875	20.759477
1326.385345	-3.012400	3.565000	-10.738000	25.059764	0.000874	20.768164
1327.385516	-2.986200	3.565800	-10.647000	25.072687	0.000873	20.764067
1328.383519	-3.003100	3.564500	-10.704000	25.080918	0.000875	20.754311
1329.383551	-3.004000	3.564100	-10.705000	25.097125	0.000873	20.771530
1330.384380	-3.013500	3.563800	-10.738000	25.113654	0.000872	20.769156
1331.383381	-3.000800	3.564500	-10.695000	25.098666	0.000872	20.778292
1332.383245	-2.981000	3.563900	-10.623000	25.111718	0.000871	20.754884
1333.386014	-3.005100	3.562300	-10.704000	25.119026	0.000871	20.752262
1334.384439	-3.002400	3.562500	-10.695000	25.098861	0.000869	20.766160
1335.387437	-2.980000	3.561000	-10.611000	25.108011	0.000870	20.759223
1336.385436	-3.005800	3.561300	-10.704000	25.110993	0.000870	20.772175
1337.386022	-3.007600	3.560300	-10.706000	25.114201	0.000868	20.747893
1338.388021	-2.987200	3.562700	-10.641000	25.078825	0.000868	20.746520
1339.386386	-2.981100	3.562300	-10.617000	25.071515	0.000867	20.756252
1340.387393	-3.004700	3.559600	-10.694000	25.027286	0.000867	20.768754
1341.388389	-2.994300	3.560000	-10.659000	25.007922	0.000865	20.757376
1342.389386	-3.018900	3.559100	-10.743000	25.030994	0.000867	20.757776
1343.387383	-3.005800	3.558400	-10.695000	25.053096	0.000865	20.775221
1344.389841	-2.997300	3.557700	-10.661000	25.066344	0.000864	20.752483
1345.388845	-3.009000	3.558400	-10.706000	25.061175	0.000863	20.772426
1346.390338	-3.013500	3.558300	-10.722000	25.065451	0.000863	20.751587
1347.390099	-3.009900	3.557900	-10.708000	25.075920	0.000862	20.748345
1348.388583	-3.005100	3.558300	-10.692000	25.076741	0.000863	20.755808
1349.387187	-2.999800	3.557600	-10.671000	25.086685	0.000861	20.761048
1350.389186	-3.000300	3.556900	-10.670000	25.081936	0.000863	20.767662
1351.388120	-3.003400	3.558100	-10.684000	25.074755	0.000861	20.744331
1352.388126	-3.007900	3.556300	-10.695000	25.058643	0.000863	20.748546
1353.392690	-3.012600	3.556000	-10.713000	25.064262	0.000861	20.749919
1354.388182	-2.995800	3.556700	-10.654000	25.076916	0.000860	20.757881
1355.387179	-3.008400	3.554800	-10.693000	25.090990	0.000861	20.736921
1356.392012	-2.975100	3.556200	-10.578000	25.093624	0.000859	20.750945
1357.393051	-2.999900	3.555100	-10.664000	25.086292	0.000858	20.755912
1358.388884	-3.026700	3.553800	-10.756000	25.077169	0.000859	20.742012
1359.392886	-2.990100	3.554600	-10.628000	25.108121	0.000858	20.755540
1360.392882	-3.027100	3.552100	-10.752000	25.128579	0.000857	20.751421
1361.389933	-2.983300	3.553500	-10.600000	25.156199	0.000856	20.763028
1362.392933	-3.001800	3.552900	-10.664000	25.148271	0.000857	20.748430
1363.393320	-3.009100	3.554200	-10.693000	25.141584	0.000856	20.728915
1364.389351	-3.020200	3.552500	-10.727000	25.144742	0.000855	20.767648
1365.396704	-2.971600	3.553100	-10.557000	25.130847	0.000855	20.736154
1366.393147	-3.008300	3.552700	-10.687000	25.142260	0.000856	20.736231
1367.390220	-3.008600	3.552000	-10.685000	25.145742	0.000855	20.752529
1368.395835	-2.993400	3.552200	-10.632000	25.189718	0.000854	20.741676
1369.396836	-3.007100	3.551000	-10.677000	25.171123	0.000853	20.736283
1370.391958	-2.980500	3.551700	-10.584000	25.151736	0.000853	20.746693
1371.394959	-2.997500	3.551100	-10.643000	25.123202	0.000852	20.728953
1372.396629	-2.996300	3.550700	-10.638000	25.119967	0.000849	20.752259
1373.391627	-2.967500	3.551600	-10.538000	25.158626	0.000852	20.736066
1374.394629	-3.019900	3.548000	-10.714000	25.177694	0.000850	20.723439
1375.396537	-2.994000	3.549000	-10.625000	25.205713	0.000848	20.735922
1376.393538	-3.002600	3.547900	-10.652000	25.216125	0.000850	20.731202
1377.397417	-3.006500	3.547400	-10.664000	25.235294	0.000850	20.737645
1378.396217	-2.990700	3.548400	-10.611000	25.246109	0.000850	20.736650
1379.392214	-2.999700	3.548600	-10.643000	25.238007	0.000848	20.725195
1380.395426	-3.016600	3.548400	-10.702000	25.279791	0.000847	20.732060
1381.394887	-2.996500	3.548300	-10.631000	25.273380	0.000846	20.738425
1382.392957	-2.987600	3.547600	-10.598000	25.305718	0.000846	20.706407
1383.395961	-3.007900	3.547500	-10.670000	25.296995	0.000845	20.736057
1384.394955	-3.022700	3.547100	-10.720000	25.270327	0.000846	20.738679
1385.392956	-3.011900	3.546200	-10.679000	25.265456	0.000846	20.720037
1386.395940	-3.000100	3.547400	-10.642000	25.272641	0.000843	20.715397
1387.394471	-3.023600	3.544200	-10.716000	25.272617	0.000842	20.729124
1388.392532	-3.008800	3.543800	-10.660000	25.278037	0.000841	20.716547
1389.397529	-3.021900	3.544600	-10.710000	25.265113	0.000842	20.717322
1390.398858	-3.008100	3.545300	-10.663000	25.254577	0.000842	20.710537
1391.395877	-3.008400	3.544100	-10.661000	25.264940	0.000840	20.707664
1392.396513	-2.997100	3.544100	-10.620000	25.273446	0.000840	20.714782
1393.398514	-3.011100	3.543600	-10.670000	25.308664	0.000841	20.718849
1394.397360	-2.987700	3.543700	-10.587000	25.318282	0.000839	20.713807
1395.399985	-2.998700	3.541900	-10.620000	25.314908	0.000839	20.691925
1396.399985	-3.007600	3.543100	-10.656000	25.285403	0.000839	20.706399
1397.397807	-3.007300	3.542300	-10.652000	25.249240	0.000837	20.718455
1398.399416	-2.983400	3.542900	-10.569000	25.206932	0.000840	20.682140
1399.399411	-3.006400	3.541600	-10.647000	25.180138	0.000838	20.695545
1400.398413	-3.003900	3.541700	-10.637000	25.173698	0.000836	20.710418
1401.399050	-3.005700	3.541100	-10.643000	25.165299	0.000839	20.704830
1402.401726	-2.968800	3.541400	-10.513000	25.158936	0.000837	20.699391
1403.398760	-2.999000	3.540100	-10.616000	25.182054	0.000838	20.691779
1404.399343	-2.989300	3.540400	-10.582000	25.200921	0.000839	20.697918
1405.403342	-2.998700	3.541000	-10.617000	25.225777	0.000834	20.709597
1406.402830	-2.995700	3.539800	-10.602000	25.229135	0.000835	20.711546
1407.402810	-2.995000	3.540900	-10.605000	25.232364	0.000835	20.706253
1408.401663	-3.029700	3.537200	-10.715000	25.259558	0.000833	20.694199
1409.400225	-2.998300	3.538200	-10.607000	25.287570	0.000835	20.703832
1410.404224	-2.996900	3.540900	-10.611000	25.273553	0.000834	20.705881
1411.402092	-3.006000	3.538500	-10.635000	25.283544	0.000833	20.689358
1412.402092	-2.974600	3.539800	-10.528000	25.297589	0.000832	20.702512
1413.408840	-3.004700	3.538400	-10.630000	25.285406	0.000833	20.702608
1414.402835	-2.991300	3.537900	-10.582000	25.292987	0.000832	20.689830
1415.402836	-2.992400	3.535900	-10.579000	25.291098	0.000833	20.686984
1416.404346	-3.010100	3.536800	-10.646000	25.301139	0.000833	20.680944
1417.403346	-3.011700	3.535700	-10.648000	25.306556	0.000830	20.695393
1418.403306	-2.970600	3.536500	-10.505000	25.295323	0.000828	20.702134
1419.407304	-2.989400	3.536200	-10.570000	25.291968	0.000829	20.681220
1420.407089	-2.991700	3.535700	-10.577000	25.319257	0.000829	20.683014
1421.403844	-2.982100	3.536700	-10.546000	25.310111	0.000828	20.716508
1422.405834	-3.017500	3.533600	-10.662000	25.309117	0.000829	20.674730
1423.407958	-2.963300	3.536700	-10.479000	25.321991	0.000828	20.709944
1424.404171	-3.007000	3.534100	-10.626000	25.315427	0.000827	20.695765
1425.408998	-2.995800	3.534100	-10.587000	25.307599	0.000830	20.690750
1426.410002	-2.997800	3.533700	-10.592000	25.310979	0.000827	20.691773
1427.407001	-3.015400	3.533300	-10.652000	25.333921	0.000825	20.690626
1428.411003	-3.000500	3.532400	-10.597000	25.324399	0.000824	20.693394
1429.409998	-3.013200	3.531300	-10.639000	25.289481	0.000827	20.701483
1430.406998	-2.979800	3.532600	-10.525000	25.265192	0.000825	20.686579
1431.410000	-2.992600	3.532000	-10.569000	25.263528	0.000822	20.688228
1432.411998	-2.998700	3.530300	-10.585000	25.237875	0.000825	20.693292
1433.407393	-3.014000	3.530400	-10.639000	25.222114	0.000823	20.705445
1434.411390	-2.988400	3.532900	-10.557000	25.207720	0.000823	20.701425
1435.412535	-2.982800	3.533100	-10.538000	25.203074	0.000821	20.709564
1436.408538	-2.988900	3.532300	-10.556000	25.225269	0.000822	20.692964
1437.412410	-3.049300	3.528700	-10.758000	25.216990	0.000821	20.703146
1438.412207	-3.011300	3.529800	-10.629000	25.246521	0.000821	20.696758
1439.408206	-2.987300	3.530900	-10.547000	25.224945	0.000819	20.704019
1440.411364	-3.000200	3.528300	-10.585000	25.198499	0.000820	20.685529
1441.413366	-3.005300	3.527700	-10.600000	25.202099	0.000819	20.700998
1442.408486	-2.973800	3.528900	-10.493000	25.204461	0.000819	20.691988
1443.411486	-2.984700	3.528900	-10.531000	25.215996	0.000820	20.693138
1444.411458	-3.001300	3.527500	-10.587000	25.211894	0.000818	20.689019
1445.409346	-3.012300	3.527500	-10.624000	25.191709	0.000819	20.665433
1446.412349	-2.988500	3.527900	-10.542000	25.194046	0.000817	20.692912
1447.412344	-3.009300	3.527400	-10.613000	25.209604	0.000817	20.702368
1448.409490	-3.018300	3.525900	-10.642000	25.203640	0.000816	20.686422
1449.412491	-3.002700	3.526100	-10.587000	25.220192	0.000816	20.712525
1450.415056	-3.016200	3.523700	-10.627000	25.237718	0.000814	20.699774
1451.410140	-3.001900	3.524400	-10.579000	25.214697	0.000814	20.707482
1452.414219	-2.997800	3.525100	-10.567000	25.213580	0.000810	20.680279
1453.414379	-3.004800	3.524600	-10.589000	25.218750	0.000813	20.696377
1454.413594	-3.013200	3.524200	-10.618000	25.224689	0.000812	20.698547
1455.415712	-2.996100	3.523900	-10.556000	25.243007	0.000811	20.682796
1456.412714	-2.999700	3.524300	-10.571000	25.258690	0.000812	20.702338
1457.412710	-3.006200	3.523600	-10.591000	25.259937	0.000811	20.686993
1458.415711	-3.014600	3.522600	-10.617000	25.294233	0.000811	20.695823
1459.413710	-3.014200	3.522600	-10.617000	25.305790	0.000809	20.696046
1460.413858	-3.022000	3.522100	-10.642000	25.292193	0.000809	20.704681
1461.414295	-3.015200	3.522300	-10.619000	25.328754	0.000810	20.693973
1462.413132	-2.996100	3.521600	-10.549000	25.328877	0.000809	20.707375
1463.414133	-3.028300	3.520800	-10.661000	25.342223	0.000808	20.696592
1464.419262	-3.001100	3.520700	-10.565000	25.334294	0.000807	20.705701
1465.414779	-2.991400	3.521200	-10.532000	25.348758	0.000807	20.713586
1466.415777	-2.994100	3.521000	-10.541000	25.355789	0.000806	20.699782
1467.416748	-2.981900	3.520100	-10.496000	25.336900	0.000806	20.686030
1468.415744	-2.989700	3.522000	-10.529000	25.327331	0.000806	20.707719
1469.416590	-2.993800	3.520000	-10.537000	25.327304	0.000805	20.706269
1470.419592	-3.001900	3.520600	-10.568000	25.345795	0.000804	20.682160
1471.416749	-2.984800	3.520400	-10.507000	25.345965	0.000804	20.671424
1472.418008	-2.990800	3.518100	-10.520000	25.346435	0.000803	20.677112
1473.418004	-2.975500	3.518500	-10.469000	25.341364	0.000804	20.685297
1474.417203	-2.996600	3.518300	-10.542000	25.320061	0.000804	20.700419
1475.417329	-2.977400	3.518400	-10.474000	25.318365	0.000804	20.685438
1476.420339	-2.986600	3.517300	-10.504000	25.264281	0.000803	20.714116
1477.417656	-3.018000	3.515400	-10.608000	25.254907	0.000802	20.715136
1478.417653	-3.004600	3.516800	-10.565000	25.249786	0.000802	20.716633
1479.419022	-2.994800	3.516600	-10.530000	25.289352	0.000800	20.703725
1480.419023	-2.992000	3.516500	-10.520000	25.278411	0.000800	20.697006
1481.417678	-3.009700	3.514700	-10.577000	25.327821	0.000799	20.695407
1482.419674	-3.013300	3.514800	-10.590000	25.347207	0.000799	20.694958
1483.418679	-2.999200	3.514800	-10.540000	25.334924	0.000797	20.708230
1484.419395	-3.000500	3.514800	-10.545000	25.311361	0.000798	20.710651
1485.420394	-2.980100	3.514300	-10.472000	25.291620	0.000796	20.705529
1486.419515	-2.983000	3.515500	-10.485000	25.293185	0.000797	20.699987
1487.419516	-3.001800	3.513900	-10.547000	25.270292	0.000795	20.705926
1488.421516	-2.984300	3.513900	-10.484000	25.257143	0.000796	20.695094
1489.420655	-3.003800	3.514400	-10.555000	25.267777	0.000797	20.697236
1490.422655	-2.994800	3.512400	-10.517000	25.251742	0.000796	20.707690
1491.422514	-3.017700	3.510800	-10.593000	25.241300	0.000794	20.700525
1492.422516	-3.009000	3.512200	-10.566000	25.268167	0.000794	20.698576
1493.423536	-3.008200	3.511100	-10.561000	25.233392	0.000794	20.704440
1494.425067	-2.995700	3.512300	-10.521000	25.228840	0.000796	20.701766
1495.424990	-2.998600	3.510500	-10.526000	25.175123	0.000793	20.703313
1496.424613	-3.003900	3.511500	-10.547000	25.189761	0.000794	20.696671
1497.428620	-2.976200	3.511200	-10.449000	25.149514	0.000791	20.721227
1498.427881	-2.996100	3.509200	-10.513000	25.149311	0.000791	20.708695
1499.426159	-2.979600	3.510600	-10.459000	25.158631	0.000791	20.703352
1500.429159	-3.017800	3.508000	-10.584000	25.165312	0.000791	20.712905
1501.426778	-2.996600	3.509600	-10.516000	25.174012	0.000790	20.713578
1502.427815	-3.024800	3.507700	-10.609000	25.175151	0.000790	20.712825
1503.430557	-2.998500	3.508400	-10.519000	25.137564	0.000792	20.721559
1504.428559	-2.983400	3.509000	-10.467000	25.132715	0.000789	20.727123
1505.428615	-2.999300	3.508700	-10.523000	25.100817	0.000789	20.705057
1506.430671	-2.981400	3.506900	-10.454000	25.128929	0.000788	20.699612
1507.428670	-3.002300	3.505700	-10.524000	25.136085	0.000787	20.709168
1508.428669	-3.013900	3.505600	-10.564000	25.178291	0.000785	20.740635
1509.433674	-2.999700	3.504900	-10.512000	25.186169	0.000786	20.718671
1510.429670	-3.000300	3.506000	-10.518000	25.210204	0.000786	20.709610
1511.429670	-2.993400	3.504900	-10.490000	25.225340	0.000786	20.731919
1512.432140	-3.017500	3.504700	-10.574000	25.264610	0.000783	20.709704
1513.429362	-3.018600	3.503800	-10.575000	25.257773	0.000784	20.735084
1514.431365	-3.002700	3.504600	-10.523000	25.281631	0.000783	20.713043
1515.434363	-2.985800	3.504400	-10.462000	25.273877	0.000783	20.714267
1516.431364	-2.995800	3.503800	-10.495000	25.296070	0.000782	20.733706
1517.431361	-2.994800	3.502400	-10.487000	25.319507	0.000783	20.718356
1518.434361	-2.991500	3.503100	-10.478000	25.314980	0.000783	20.711439
1519.431398	-3.011600	3.502400	-10.546000	25.333419	0.000781	20.739912
1520.431791	-2.987700	3.503300	-10.466000	25.338241	0.000782	20.741434
1521.434800	-3.019200	3.500400	-10.566000	25.334512	0.000781	20.725362
1522.431730	-2.975900	3.502900	-10.423000	25.319198	0.000779	20.710458
1523.433947	-3.002200	3.502300	-10.514000	25.344671	0.000780	20.740305
1524.434947	-2.979500	3.502100	-10.433000	25.370295	0.000779	20.707236
1525.433377	-2.996500	3.500500	-10.488000	25.362987	0.000779	20.724555
1526.434379	-2.993300	3.500100	-10.476000	25.376903	0.000780	20.722882
1527.438590	-3.006600	3.500200	-10.523000	25.366164	0.000778	20.730590
1528.434446	-2.995400	3.499600	-10.481000	25.392410	0.000777	20.738927
1529.434633	-3.011300	3.500000	-10.539000	25.361639	0.000776	20.740272
1530.437271	-2.999900	3.498900	-10.495000	25.329899	0.000777	20.743490
1531.435272	-2.991000	3.500100	-10.467000	25.292119	0.000778	20.725945
1532.435918	-2.993600	3.497800	-10.470000	25.287792	0.000775	20.736774
1533.437922	-2.992500	3.498900	-10.469000	25.289033	0.000776	20.714786
1534.435918	-2.999000	3.497900	-10.489000	25.319952	0.000773	20.729709
1535.436794	-3.011400	3.496600	-10.529000	25.321690	0.000775	20.733825
1536.437778	-3.000800	3.497400	-10.494000	25.331728	0.000775	20.722566
1537.435891	-3.009300	3.497100	-10.523000	25.311026	0.000774	20.709840
1538.437890	-3.011200	3.495100	-10.523000	25.360633	0.000774	20.752539
1539.443218	-2.984300	3.495500	-10.429000	25.363019	0.000772	20.723165
1540.437280	-3.007900	3.495200	-10.512000	25.399253	0.000772	20.746273
1541.437281	-3.025100	3.494200	-10.570000	25.401639	0.000771	20.748194
1542.437713	-2.997400	3.494600	-10.472000	25.409639	0.000772	20.749115
1543.438133	-3.018700	3.494200	-10.547000	25.411750	0.000772	20.744597
1544.439134	-2.998300	3.494900	-10.478000	25.431034	0.000770	20.744994
1545.441511	-2.978800	3.494900	-10.409000	25.445941	0.000770	20.731040
1546.439513	-3.009600	3.494300	-10.515000	25.406378	0.000769	20.727348
1547.439135	-3.012400	3.491600	-10.517000	25.412391	0.000770	20.734334
1548.440136	-3.002500	3.492500	-10.484000	25.389080	0.000768	20.723728
1549.439656	-2.995500	3.493800	-10.465000	25.371806	0.000768	20.747162
1550.440659	-3.000500	3.492400	-10.478000	25.374985	0.000769	20.753199
1551.439661	-3.006700	3.492300	-10.499000	25.358302	0.000769	20.746405
1552.442457	-2.992300	3.493000	-10.451000	25.337101	0.000767	20.745032
1553.441826	-3.004000	3.489800	-10.482000	25.281151	0.000766	20.731529
1554.445791	-2.996500	3.491300	-10.461000	25.241382	0.000765	20.727636
1555.442791	-2.985700	3.490500	-10.420000	25.218387	0.000766	20.748647
1556.444147	-2.993600	3.489400	-10.445000	25.242099	0.000765	20.744953
1557.448108	-2.996100	3.489200	-10.452000	25.291957	0.000765	20.756129
1558.446107	-2.994800	3.489500	-10.450000	25.305278	0.000765	20.757651
1559.444107	-2.988800	3.489400	-10.427000	25.328317	0.000763	20.742850
1560.443124	-2.987600	3.489400	-10.424000	25.363084	0.000764	20.753103
1561.445115	-3.000200	3.488200	-10.464000	25.368924	0.000763	20.765605
1562.446116	-2.998400	3.488700	-10.459000	25.381597	0.000764	20.768374
1563.448116	-2.973100	3.487500	-10.367000	25.412589	0.000762	20.735956
1564.446708	-2.993600	3.488000	-10.439000	25.437215	0.000761	20.754995
1565.451706	-2.989800	3.488400	-10.429000	25.430031	0.000762	20.743987
1566.448076	-2.984000	3.487200	-10.405000	25.436442	0.000761	20.747580
1567.448074	-2.975000	3.487600	-10.375000	25.466436	0.000761	20.742138
1568.452250	-2.994600	3.485400	-10.436000	25.482488	0.000760	20.773431
1569.447250	-2.995900	3.485700	-10.442000	25.532835	0.000759	20.754765
1570.448252	-2.999000	3.484400	-10.448000	25.526794	0.000759	20.752491
1571.447453	-3.008300	3.482900	-10.477000	25.502487	0.000759	20.758901
1572.447453	-2.970600	3.485600	-10.353000	25.474503	0.000760	20.744549
1573.449799	-2.995400	3.483700	-10.434000	25.482802	0.000756	20.756677
1574.451397	-2.994000	3.482700	-10.426000	25.485188	0.000757	20.753382
1575.448396	-2.992700	3.482900	-10.422000	25.496666	0.000755	20.767280
1576.448836	-3.003800	3.482900	-10.461000	25.485556	0.000755	20.736208
1577.450837	-2.973100	3.482900	-10.354000	25.455137	0.000758	20.769673
1578.449835	-2.986300	3.482000	-10.397000	25.433540	0.000755	20.741821
1579.452835	-2.975200	3.483800	-10.364000	25.465273	0.000755	20.749979
1580.450835	-3.005500	3.481500	-10.463000	25.466067	0.000755	20.757415
1581.451452	-3.029000	3.480600	-10.541000	25.458361	0.000752	20.779549
1582.452455	-3.009700	3.479500	-10.471000	25.475510	0.000754	20.760260
1583.452743	-2.986200	3.480900	-10.394000	25.491290	0.000751	20.767097
1584.454633	-2.996200	3.479500	-10.425000	25.495712	0.000752	20.757787
1585.453353	-2.975600	3.479800	-10.353000	25.521926	0.000751	20.757085
1586.453058	-3.023600	3.478600	-10.515000	25.462235	0.000752	20.764947
1587.453053	-3.003200	3.478000	-10.444000	25.448095	0.000750	20.781568
1588.453055	-2.984600	3.479400	-10.383000	25.444216	0.000750	20.769138
1589.452055	-2.992200	3.478400	-10.407000	25.437556	0.000750	20.771933
1590.453163	-3.013800	3.478300	-10.481000	25.456641	0.000748	20.778296
1591.453151	-3.000200	3.477800	-10.433000	25.451398	0.000749	20.774927
1592.457150	-3.000200	3.477000	-10.431000	25.444661	0.000748	20.760101
1593.452480	-2.998300	3.477700	-10.425000	25.419435	0.000747	20.776970
1594.453485	-3.005800	3.475900	-10.447000	25.447670	0.000746	20.772606
1595.459456	-2.993000	3.476100	-10.403000	25.451494	0.000746	20.775024
1596.453183	-2.993300	3.477000	-10.405000	25.478109	0.000746	20.769508
1597.452185	-2.990100	3.476800	-10.395000	25.466381	0.000747	20.777171
1598.452798	-2.972200	3.476400	-10.332000	25.417099	0.000746	20.786478
1599.453908	-2.991700	3.476100	-10.397000	25.392818	0.000745	20.781538
1600.453942	-3.019800	3.473400	-10.488000	25.386331	0.000745	20.791620
1601.456356	-2.983600	3.474300	-10.366000	25.378553	0.000746	20.771481
1602.454356	-3.010700	3.473800	-10.458000	25.393614	0.000746	20.790398
1603.455315	-3.000500	3.474400	-10.424000	25.411284	0.000744	20.782536
1604.456316	-3.013200	3.472600	-10.462000	25.435566	0.000744	20.791746
1605.458974	-3.009000	3.472800	-10.449000	25.420132	0.000741	20.776722
1606.457293	-2.992800	3.473400	-10.393000	25.451123	0.000743	20.784135
1607.457289	-3.009100	3.471700	-10.446000	25.461635	0.000743	20.768137
1608.456707	-2.997900	3.471200	-10.405000	25.476072	0.000742	20.774101
1609.456710	-3.005800	3.471700	-10.434000	25.467175	0.000741	20.816375
1610.457681	-2.982100	3.471500	-10.351000	25.474258	0.000740	20.788400
1611.456683	-2.979900	3.471900	-10.346000	25.459148	0.000741	20.784607
1612.456419	-2.983800	3.470800	-10.355000	25.443566	0.000741	20.800254
1613.457624	-3.018500	3.469600	-10.472000	25.453680	0.000738	20.787650
1614.457624	-3.000000	3.468500	-10.404000	25.457830	0.000739	20.775697
1615.458713	-3.015400	3.468600	-10.458000	25.447393	0.000740	20.802200
1616.461937	-2.982300	3.470000	-10.347000	25.473462	0.000740	20.791868
1617.459934	-2.982400	3.469100	-10.345000	25.468688	0.000738	20.795609
1618.460288	-2.983900	3.468500	-10.348000	25.489315	0.000739	20.793564
1619.460285	-2.975200	3.468600	-10.319000	25.504076	0.000738	20.809809
1620.460485	-2.983500	3.468600	-10.347000	25.521321	0.000737	20.794884
1621.465484	-2.997000	3.467600	-10.391000	25.522587	0.000737	20.798526
1622.462343	-3.001700	3.466200	-10.403000	25.508570	0.000737	20.797727
1623.465502	-2.996700	3.466700	-10.387000	25.552828	0.000737	20.783378
1624.462499	-3.000800	3.465800	-10.400000	25.552307	0.000736	20.800398
1625.462137	-3.012500	3.464500	-10.435000	25.530588	0.000735	20.822683
1626.465138	-2.985200	3.465600	-10.345000	25.530537	0.000735	20.778061
1627.465641	-2.976300	3.465200	-10.312000	25.539184	0.000734	20.806659
1628.463641	-3.009200	3.464900	-10.425000	25.544128	0.000735	20.799296
1629.463455	-3.015700	3.462900	-10.442000	25.548725	0.000733	20.800120
1630.464879	-3.024100	3.463100	-10.472000	25.547457	0.000733	20.798847
1631.464871	-3.032600	3.463100	-10.501000	25.561273	0.000734	20.801816
1632.467866	-3.003900	3.461700	-10.398000	25.558388	0.000734	20.804609
1633.464181	-3.038400	3.461600	-10.516000	25.573445	0.000731	20.819730
1634.467181	-2.995900	3.462700	-10.373000	25.580304	0.000731	20.801489
1635.464499	-3.045600	3.461300	-10.541000	25.562163	0.000730	20.789908
1636.466500	-3.019100	3.461600	-10.450000	25.571556	0.000730	20.800290
1637.469501	-2.968900	3.463200	-10.281000	25.605077	0.000730	20.801712
1638.467430	-2.972600	3.462200	-10.289000	25.606019	0.000731	20.807874
1639.466424	-2.984100	3.462100	-10.329000	25.622271	0.000730	20.812342
1640.466246	-2.992900	3.460600	-10.356000	25.601595	0.000729	20.809120
1641.466707	-3.028300	3.459000	-10.473000	25.623509	0.000729	20.823543
1642.467705	-3.011200	3.460200	-10.418000	25.629624	0.000728	20.813089
1643.472381	-3.036500	3.459900	-10.504000	25.597444	0.000728	20.809219
1644.469378	-2.979600	3.460700	-10.310000	25.602487	0.000727	20.807646
1645.469334	-3.007300	3.458800	-10.401000	25.600300	0.000726	20.841958
1646.469342	-3.013400	3.456900	-10.415000	25.572271	0.000726	20.837991
1647.469448	-3.012600	3.456700	-10.413000	25.590560	0.000723	20.798513
1648.473265	-2.990600	3.457400	-10.339000	25.550753	0.000726	20.809743
1649.469258	-2.991300	3.457100	-10.340000	25.523915	0.000724	20.829732
1650.472703	-2.989000	3.457900	-10.335000	25.527393	0.000723	20.819000
1651.472738	-2.988100	3.455900	-10.326000	25.504332	0.000722	20.823342
1652.472771	-3.017200	3.455000	-10.423000	25.467950	0.000724	20.829007
1653.475798	-3.018200	3.454300	-10.425000	25.460396	0.000723	20.825688
1654.472118	-2.982500	3.456300	-10.308000	25.447399	0.000720	20.816431
1655.472331	-3.002500	3.455100	-10.373000	25.417229	0.000721	20.831179
1656.473332	-2.991300	3.455500	-10.335000	25.451402	0.000720	20.810019
1657.472164	-2.989700	3.454400	-10.327000	25.431221	0.000720	20.831005
1658.474530	-3.000700	3.453400	-10.361000	25.408581	0.000720	20.825815
1659.476529	-3.002000	3.453000	-10.365000	25.401030	0.000720	20.842414
1660.475856	-3.048100	3.452700	-10.523000	25.398568	0.000719	20.826666
1661.476895	-3.005200	3.453300	-10.377000	25.407045	0.000720	20.816212
1662.474814	-3.002500	3.451600	-10.362000	25.420887	0.000720	20.833430
1663.474816	-3.004500	3.451400	-10.369000	25.468405	0.000718	20.824248
1664.478868	-3.011300	3.452100	-10.395000	25.507246	0.000718	20.834803
1665.476780	-3.012000	3.451000	-10.393000	25.557244	0.000717	20.833331
1666.480788	-2.990900	3.451500	-10.323000	25.573823	0.000716	20.831014
1667.479089	-3.017100	3.450300	-10.409000	25.594472	0.000716	20.824726
1668.478085	-2.996300	3.450500	-10.337000	25.632587	0.000715	20.842143
1669.481082	-2.951800	3.452300	-10.190000	25.626974	0.000715	20.851203
1670.479234	-3.013100	3.449000	-10.389000	25.611795	0.000714	20.844968
1671.480230	-3.018100	3.449700	-10.411000	25.623896	0.000715	20.821087
1672.477456	-3.005100	3.449000	-10.364000	25.584686	0.000714	20.849510
1673.477458	-2.986000	3.449900	-10.300000	25.577132	0.000714	20.812053
1674.482588	-2.974600	3.448900	-10.258000	25.608193	0.000713	20.838980
1675.478986	-3.002700	3.447500	-10.351000	25.622880	0.000713	20.853256
1676.478960	-3.004700	3.446300	-10.355000	25.645714	0.000712	20.852956
1677.479417	-2.990200	3.446200	-10.304000	25.644149	0.000713	20.843324
1678.479419	-2.981700	3.447600	-10.278000	25.663382	0.000713	20.848889
1679.483672	-2.990400	3.447800	-10.310000	25.642459	0.000713	20.847316
1680.479508	-2.986300	3.447600	-10.295000	25.618633	0.000711	20.842353
1681.479803	-3.007100	3.444900	-10.358000	25.601462	0.000709	20.834117
1682.479805	-2.996800	3.445900	-10.325000	25.589461	0.000711	20.859521
1683.479746	-2.999000	3.446900	-10.336000	25.605835	0.000710	20.840405
1684.480570	-3.011100	3.445400	-10.373000	25.603798	0.000710	20.846894
1685.482571	-3.000400	3.445100	-10.336000	25.603501	0.000709	20.853233
1686.480111	-2.996700	3.444800	-10.322000	25.619551	0.000711	20.842326
1687.480883	-2.982200	3.443800	-10.269000	25.598407	0.000706	20.847169
1688.480875	-2.996400	3.443300	-10.317000	25.613240	0.000708	20.857324
1689.482950	-2.999000	3.443600	-10.327000	25.599126	0.000709	20.858322
1690.482955	-3.006000	3.442100	-10.345000	25.607600	0.000706	20.847392
1691.482947	-3.025800	3.441500	-10.412000	25.614456	0.000707	20.868502
1692.484950	-2.990300	3.443900	-10.297000	25.645890	0.000706	20.848865
1693.483951	-3.005500	3.442000	-10.344000	25.666488	0.000706	20.863389
1694.483947	-3.025600	3.441600	-10.411000	25.662440	0.000705	20.858848
1695.485308	-3.011500	3.441600	-10.363000	25.648003	0.000705	20.851935
1696.484309	-3.014300	3.441600	-10.372000	25.667633	0.000704	20.852685
1697.483952	-3.036300	3.439500	-10.441000	25.675062	0.000703	20.859672
1698.484951	-3.011800	3.439600	-10.359000	25.677796	0.000704	20.842030
1699.484367	-3.002100	3.440100	-10.327000	25.675957	0.000706	20.854882
1700.484821	-3.006000	3.439100	-10.337000	25.690194	0.000704	20.850689
1701.485821	-3.012700	3.438000	-10.356000	25.655309	0.000705	20.836989
1702.486121	-3.006100	3.439900	-10.339000	25.646838	0.000702	20.846973
1703.492118	-3.002400	3.438800	-10.323000	25.646987	0.000701	20.849492
1704.487662	-2.985200	3.439100	-10.266000	25.656505	0.000701	20.837716
1705.486267	-2.982700	3.438400	-10.255000	25.665050	0.000702	20.844401
1706.489265	-2.992400	3.438400	-10.288000	25.631830	0.000700	20.841382
1707.486267	-2.991100	3.436000	-10.276000	25.620947	0.000698	20.828556
1708.486385	-2.973700	3.437600	-10.220000	25.612797	0.000701	20.829854
1709.487664	-2.993500	3.436600	-10.287000	25.578483	0.000699	20.833324
1710.487665	-2.998200	3.435900	-10.300000	25.585563	0.000698	20.824313
1711.487581	-2.987800	3.436500	-10.267000	25.587256	0.000699	20.840238
1712.489387	-2.998000	3.436100	-10.301000	25.552665	0.000698	20.833473
1713.487386	-2.993200	3.435700	-10.282000	25.513998	0.000697	20.831152
1714.488745	-2.996300	3.435000	-10.291000	25.532266	0.000697	20.817730
1715.489199	-2.993200	3.434500	-10.279000	25.549636	0.000696	20.832803
1716.488195	-3.007100	3.433100	-10.322000	25.560073	0.000695	20.825266
1717.492211	-3.018700	3.432900	-10.361000	25.567202	0.000694	20.836219
1718.489625	-3.028800	3.433000	-10.397000	25.570484	0.000694	20.833826
1719.490916	-3.007500	3.432300	-10.322000	25.583160	0.000695	20.827115
1720.491883	-2.988500	3.433200	-10.259000	25.531571	0.000694	20.795221
1721.490877	-3.000200	3.432000	-10.295000	25.524986	0.000693	20.811367
1722.492877	-2.986200	3.432800	-10.250000	25.526501	0.000693	20.823794
1723.492877	-3.003800	3.430600	-10.304000	25.531598	0.000694	20.810895
1724.490362	-2.996100	3.431500	-10.281000	25.533311	0.000692	20.817831
1725.492366	-3.018200	3.430900	-10.354000	25.573641	0.000693	20.823246
1726.491467	-2.994300	3.430800	-10.272000	25.570637	0.000693	20.814065
1727.493910	-3.005500	3.430300	-10.309000	25.538357	0.000690	20.825743
1728.493965	-2.989200	3.429700	-10.250000	25.512517	0.000690	20.807854
1729.493621	-2.973600	3.429900	-10.198000	25.487141	0.000690	20.820778
1730.495624	-2.997600	3.428300	-10.276000	25.509632	0.000691	20.801164
1731.495780	-3.015200	3.428200	-10.335000	25.512566	0.000690	20.824973
1732.498924	-3.021400	3.427800	-10.356000	25.548247	0.000691	20.806752
1733.500919	-3.016700	3.427200	-10.339000	25.579037	0.000690	20.807328
1734.497958	-3.001500	3.428400	-10.290000	25.593648	0.000691	20.804458
1735.497961	-2.975800	3.428200	-10.200000	25.602047	0.000691	20.812893
1736.498666	-3.006400	3.426000	-10.299000	25.619041	0.000687	20.798193
1737.497170	-3.017300	3.426900	-10.339000	25.627912	0.000687	20.821326
1738.502758	-2.992700	3.426400	-10.252000	25.641627	0.000686	20.813291
1739.498384	-2.968000	3.427500	-10.172000	25.632331	0.000686	20.816756
1740.503385	-2.997900	3.426300	-10.270000	25.625351	0.000687	20.793625
1741.499487	-2.986400	3.426900	-10.234000	25.605495	0.000685	20.781744
1742.499491	-2.984900	3.426100	-10.225000	25.619857	0.000684	20.804702
1743.503081	-3.000900	3.425400	-10.277000	25.593191	0.000686	20.825336
1744.499614	-2.977300	3.424300	-10.194000	25.626958	0.000685	20.783859
1745.499607	-2.977600	3.425100	-10.197000	25.652153	0.000687	20.804896
1746.499382	-2.989900	3.423800	-10.236000	25.668550	0.000685	20.785803
1747.501385	-3.006200	3.425300	-10.296000	25.674363	0.000684	20.796384
1748.500381	-3.014300	3.423700	-10.318000	25.689045	0.000685	20.789793
1749.501841	-3.017600	3.422900	-10.328000	25.675726	0.000682	20.798700
1750.501910	-2.996200	3.423000	-10.254000	25.648092	0.000683	20.794180
1751.501912	-3.017200	3.422000	-10.324000	25.615765	0.000682	20.804385
1752.503912	-3.001700	3.422300	-10.272000	25.608382	0.000681	20.801238
1753.502415	-2.986900	3.421700	-10.219000	25.611709	0.000681	20.796993
1754.506103	-3.014200	3.420900	-10.310000	25.615832	0.000679	20.806350
1755.504103	-2.980100	3.421700	-10.196000	25.604497	0.000682	20.810613
1756.504110	-3.004500	3.419500	-10.273000	25.620722	0.000680	20.779966
1757.503388	-2.986500	3.421800	-10.218000	25.656550	0.000680	20.796984
1758.503387	-2.995000	3.420600	-10.244000	25.677569	0.000679	20.807664
1759.504069	-2.993100	3.419700	-10.236000	25.676721	0.000679	20.795433
1760.507066	-3.003100	3.420600	-10.272000	25.674010	0.000677	20.805038
1761.505068	-2.998200	3.418800	-10.249000	25.699154	0.000677	20.775290
1762.505722	-3.011400	3.417800	-10.291000	25.701809	0.000676	20.796449
1763.504720	-3.014500	3.416200	-10.297000	25.669782	0.000676	20.794627
1764.504338	-2.975000	3.419000	-10.171000	25.673084	0.000676	20.794625
1765.505335	-2.999500	3.416400	-10.247000	25.667788	0.000676	20.780770
1766.504810	-2.988600	3.416900	-10.211000	25.692682	0.000673	20.789179
1767.506785	-3.019000	3.415600	-10.310000	25.688409	0.000674	20.815706
1768.504785	-3.002200	3.416800	-10.257000	25.630315	0.000675	20.791498
1769.504783	-3.020100	3.415200	-10.313000	25.602310	0.000675	20.790872
1770.504784	-2.984600	3.415900	-10.194000	25.595228	0.000672	20.783286
1771.508741	-3.023100	3.414100	-10.321000	25.589486	0.000674	20.779890
1772.504665	-3.000000	3.414800	-10.244000	25.582301	0.000671	20.793537
1773.505661	-3.014900	3.415000	-10.295000	25.602330	0.000671	20.796583
1774.505463	-3.019800	3.414700	-10.310000	25.606330	0.000671	20.800125
1775.506993	-3.018700	3.412700	-10.299000	25.618555	0.000670	20.801498
1776.507607	-2.991300	3.413600	-10.210000	25.596761	0.000671	20.800947
1777.505190	-3.002400	3.415000	-10.252000	25.590298	0.000670	20.780231
1778.509186	-3.009500	3.413200	-10.271000	25.549744	0.000671	20.785022
1779.506550	-2.999000	3.413100	-10.236000	25.580903	0.000669	20.785969
1780.507576	-2.974900	3.413500	-10.154000	25.585226	0.000669	20.806906
1781.510778	-3.012100	3.411800	-10.276000	25.603488	0.000667	20.779254
1782.507779	-2.994700	3.412700	-10.219000	25.633505	0.000668	20.780477
1783.508779	-3.009500	3.411100	-10.265000	25.655494	0.000667	20.807778
1784.509112	-2.992900	3.411700	-10.210000	25.612557	0.000667	20.784569
1785.508111	-2.999900	3.410900	-10.231000	25.591384	0.000668	20.789383
1786.507804	-3.002500	3.409800	-10.235000	25.542782	0.000666	20.771866
1787.510804	-2.975800	3.411900	-10.152000	25.522601	0.000666	20.782419
1788.507806	-2.991600	3.410400	-10.201000	25.541860	0.000663	20.800812
1789.508784	-3.020800	3.408600	-10.295000	25.562659	0.000666	20.794199
1790.508786	-3.008900	3.409400	-10.256000	25.539699	0.000665	20.775883
1791.507605	-2.996400	3.408400	-10.212000	25.560271	0.000665	20.781844
1792.512953	-2.999500	3.409400	-10.226000	25.540691	0.000665	20.806276
1793.509956	-3.016600	3.408400	-10.281000	25.502719	0.000663	20.783316
1794.511523	-3.033400	3.406200	-10.331000	25.492702	0.000662	20.787956
1795.509631	-2.996800	3.408700	-10.214000	25.498838	0.000665	20.795066
1796.508626	-3.003400	3.408500	-10.236000	25.513052	0.000663	20.792271
1797.510626	-3.027400	3.405800	-10.309000	25.523440	0.000662	20.788478
1798.508625	-3.000600	3.407200	-10.222000	25.512333	0.000663	20.784436
1799.508977	-2.997300	3.406700	-10.211000	25.509374	0.000661	20.776723
1800.508980	-3.005900	3.405900	-10.236000	25.539390	0.000661	20.791219
1801.509975	-2.993100	3.405200	-10.192000	25.573257	0.000659	20.761695
1802.510563	-2.989700	3.406500	-10.184000	25.607098	0.000661	20.768654
1803.510556	-3.008600	3.404600	-10.242000	25.597132	0.000660	20.784249
1804.510077	-2.989600	3.405700	-10.180000	25.579712	0.000658	20.791411
1805.512053	-2.949200	3.406200	-10.044000	25.536497	0.000659	20.772666
1806.509302	-2.980800	3.404800	-10.147000	25.542977	0.000658	20.768268
1807.510210	-2.998900	3.403900	-10.207000	25.519221	0.000656	20.765274
1808.512206	-3.004400	3.403200	-10.222000	25.513105	0.000657	20.761978
1809.509758	-2.991500	3.402400	-10.177000	25.529554	0.000655	20.783239
1810.509198	-2.993400	3.402800	-10.185000	25.507483	0.000656	20.782884
1811.510195	-3.001100	3.403000	-10.211000	25.486236	0.000656	20.780514
1812.509194	-3.007500	3.402400	-10.232000	25.530119	0.000654	20.749666
1813.511203	-2.989500	3.403000	-10.173000	25.563241	0.000653	20.769179
1814.511426	-2.985200	3.401500	-10.152000	25.532748	0.000651	20.780756
1815.511431	-2.993700	3.402600	-10.184000	25.553048	0.000653	20.760839
1816.511426	-2.990000	3.401900	-10.171000	25.573373	0.000651	20.770345
1817.511219	-3.005800	3.400900	-10.222000	25.596480	0.000651	20.774111
1818.512223	-3.008400	3.400400	-10.228000	25.627315	0.000650	20.780425
1819.516613	-3.032900	3.399200	-10.309000	25.638965	0.000649	20.794970
1820.513863	-3.017400	3.399200	-10.256000	25.632131	0.000648	20.765821
1821.514858	-3.004700	3.399400	-10.213000	25.644602	0.000649	20.775975
1822.513245	-3.020900	3.398600	-10.267000	25.617863	0.000649	20.777569
1823.514246	-3.002700	3.398700	-10.205000	25.584516	0.000650	20.763519
1824.517345	-2.950800	3.398800	-10.028000	25.560287	0.000649	20.781860
1825.518343	-3.019800	3.396600	-10.256000	25.576065	0.000648	20.766411
1826.514610	-3.007100	3.396500	-10.213000	25.612192	0.000647	20.784676
1827.514166	-2.987000	3.397100	-10.146000	25.583217	0.000647	20.787819
1828.515156	-2.989500	3.397700	-10.156000	25.580805	0.000646	20.764059
1829.515757	-3.005500	3.397300	-10.209000	25.577748	0.000647	20.761937
1830.518760	-3.004700	3.394800	-10.199000	25.576554	0.000643	20.765005
1831.515790	-2.993800	3.395500	-10.163000	25.634872	0.000643	20.778531
1832.517410	-2.978700	3.397100	-10.118000	25.646946	0.000644	20.749406
1833.516407	-2.994600	3.394700	-10.165000	25.670005	0.000643	20.773514
1834.517064	-3.000800	3.395500	-10.187000	25.650276	0.000641	20.764604
1835.517067	-3.020400	3.393900	-10.250000	25.607065	0.000641	20.781423
1836.519064	-3.023100	3.394900	-10.262000	25.536916	0.000641	20.772139
1837.521422	-3.029600	3.394700	-10.283000	25.522205	0.000643	20.758313
1838.517879	-3.006400	3.393500	-10.201000	25.522726	0.000639	20.757415
1839.520001	-2.993300	3.393800	-10.158000	25.523025	0.000642	20.749180
1840.521005	-3.009600	3.392900	-10.210000	25.520687	0.000642	20.751574
1841.521999	-2.994600	3.392700	-10.159000	25.550334	0.000640	20.766648
1842.519473	-2.978600	3.394200	-10.109000	25.592353	0.000642	20.763803
1843.520474	-2.991500	3.392900	-10.149000	25.608230	0.000638	20.758411
1844.519988	-2.984600	3.392500	-10.125000	25.653455	0.000638	20.769219
1845.519177	-3.011700	3.392500	-10.216000	25.670499	0.000640	20.757415
1846.524251	-3.008200	3.392700	-10.205000	25.692413	0.000637	20.763304
1847.520670	-2.988600	3.390800	-10.132000	25.710651	0.000640	20.763604
1848.524163	-2.995500	3.391300	-10.158000	25.676412	0.000638	20.763828
1849.521554	-3.001900	3.390700	-10.176000	25.667195	0.000636	20.742715
1850.522414	-3.032300	3.389000	-10.276000	25.676389	0.000635	20.750528
1851.521410	-2.998500	3.389800	-10.164000	25.655244	0.000634	20.737825
1852.521382	-3.017700	3.388200	-10.223000	25.610941	0.000635	20.745960
1853.522385	-2.983600	3.390400	-10.115000	25.592427	0.000633	20.757713
1854.521457	-3.003700	3.389600	-10.180000	25.608384	0.000634	20.755721
1855.521621	-3.021600	3.389300	-10.240000	25.630695	0.000633	20.744937
1856.521622	-2.996800	3.389400	-10.156000	25.619738	0.000634	20.751950
1857.522404	-3.011200	3.388200	-10.201000	25.659693	0.000632	20.732809
1858.521406	-3.002000	3.387600	-10.168000	25.639516	0.000632	20.729614
1859.522407	-2.984900	3.388600	-10.113000	25.605352	0.000630	20.753149
1860.522370	-3.006200	3.387000	-10.181000	25.606520	0.000630	20.745314
1861.522370	-3.014700	3.386200	-10.206000	25.591536	0.000630	20.743542
1862.526531	-3.000100	3.386400	-10.159000	25.565471	0.000630	20.744390
1863.522603	-3.015200	3.386600	-10.210000	25.560475	0.000630	20.717087
1864.524835	-2.974700	3.386600	-10.072000	25.574765	0.000630	20.747561
1865.522902	-3.010800	3.386500	-10.195000	25.542734	0.000629	20.738626
1866.523904	-3.018400	3.385000	-10.216000	25.557024	0.000628	20.750606
1867.522539	-3.001400	3.385100	-10.160000	25.552948	0.000627	20.744142
1868.526544	-2.992800	3.384700	-10.128000	25.536497	0.000629	20.749907
1869.523038	-2.998000	3.383800	-10.144000	25.537194	0.000628	20.749658
1870.523710	-3.025800	3.384100	-10.238000	25.567485	0.000625	20.738352
1871.522709	-3.004600	3.384200	-10.167000	25.582692	0.000626	20.752203
1872.523181	-2.994100	3.384300	-10.131000	25.564652	0.000624	20.733137
1873.527183	-2.999600	3.383100	-10.147000	25.552923	0.000626	20.748385
1874.523214	-2.994700	3.383500	-10.132000	25.515846	0.000625	20.730115
1875.527196	-2.994300	3.382400	-10.126000	25.532347	0.000626	20.733410
1876.523154	-3.008800	3.382600	-10.177000	25.542014	0.000626	20.725574
1877.523148	-2.999200	3.381700	-10.142000	25.578342	0.000624	20.753524
1878.524151	-2.978700	3.381400	-10.071000	25.568252	0.000623	20.728691
1879.523149	-3.002100	3.381700	-10.151000	25.586741	0.000623	20.724500
1880.523095	-2.978500	3.380900	-10.069000	25.586440	0.000624	20.762132
1881.525098	-2.981900	3.380600	-10.080000	25.622620	0.000623	20.722127
1882.524093	-2.980600	3.381000	-10.077000	25.656584	0.000623	20.725419
1883.523791	-2.994300	3.379500	-10.118000	25.645726	0.000621	20.714987
1884.524790	-2.975700	3.380300	-10.058000	25.636010	0.000620	20.719928
1885.524530	-3.019300	3.379300	-10.201000	25.619884	0.000619	20.718431
1886.523702	-3.005400	3.379200	-10.154000	25.597470	0.000618	20.753294
1887.523698	-2.985100	3.379300	-10.086000	25.603210	0.000621	20.733454
1888.525039	-3.002500	3.377600	-10.140000	25.591234	0.000620	20.728538
1889.528039	-2.999100	3.378500	-10.132000	25.612825	0.000618	20.722247
1890.523666	-3.018900	3.377200	-10.194000	25.617721	0.000617	20.729062
1891.524666	-2.997600	3.378700	-10.127000	25.582014	0.000616	20.718804
1892.524078	-3.027400	3.375900	-10.219000	25.597815	0.000617	20.705748
1893.524570	-2.996600	3.376800	-10.118000	25.554752	0.000616	20.725565
1894.523568	-3.009600	3.375900	-10.159000	25.577860	0.000616	20.709415
1895.526625	-3.003900	3.375900	-10.139000	25.602909	0.000616	20.712287
1896.524627	-3.000000	3.376600	-10.129000	25.632825	0.000615	20.729532
1897.523624	-3.002200	3.376000	-10.134000	25.636181	0.000613	20.720574
1898.523791	-3.000500	3.374700	-10.125000	25.672258	0.000614	20.710341
1899.523792	-2.969700	3.376100	-10.025000	25.634567	0.000614	20.713737
1900.526779	-3.018100	3.374000	-10.182000	25.650443	0.000612	20.719725
1901.523714	-2.998600	3.374100	-10.117000	25.667214	0.000612	20.722345
1902.525712	-2.992100	3.374700	-10.097000	25.688035	0.000612	20.729981
1903.523716	-3.006200	3.373700	-10.141000	25.672431	0.000613	20.727111
1904.523721	-3.021400	3.372200	-10.187000	25.657100	0.000611	20.737792
1905.524704	-3.007700	3.372400	-10.142000	25.646365	0.000612	20.716578
1906.524679	-2.997200	3.372900	-10.108000	25.677820	0.000611	20.708815
1907.524023	-3.002400	3.372900	-10.126000	25.682516	0.000610	20.702151
1908.523488	-3.021800	3.370800	-10.185000	25.668923	0.000611	20.707939
1909.524490	-3.017900	3.371400	-10.174000	25.682663	0.000610	20.708463
1910.526663	-2.986200	3.372600	-10.070000	25.701595	0.000607	20.714677
1911.526316	-3.007200	3.371100	-10.137000	25.672873	0.000607	20.714278
1912.524316	-3.008700	3.370500	-10.140000	25.671205	0.000608	20.706912
1913.525074	-3.022600	3.371300	-10.190000	25.678383	0.000608	20.706061
1914.526071	-3.009700	3.370500	-10.143000	25.672869	0.000605	20.701471
1915.527795	-3.008600	3.371600	-10.143000	25.690707	0.000607	20.717492
1916.531094	-2.999500	3.369600	-10.106000	25.693315	0.000606	20.736707
1917.526093	-2.998600	3.368800	-10.100000	25.724247	0.000605	20.732688
1918.527194	-3.006800	3.367700	-10.125000	25.707947	0.000605	20.714893
1919.525733	-3.017800	3.368300	-10.162000	25.682204	0.000603	20.735505
1920.525731	-3.009900	3.366900	-10.133000	25.692142	0.000605	20.722252
1921.525394	-3.013700	3.369200	-10.152000	25.683942	0.000600	20.723025
1922.528395	-3.004200	3.367700	-10.117000	25.687692	0.000602	20.721101
1923.526395	-3.014400	3.367300	-10.149000	25.699368	0.000601	20.720501
1924.528398	-2.997200	3.368400	-10.095000	25.726822	0.000602	20.733853
1925.529622	-2.997000	3.368400	-10.094000	25.743864	0.000602	20.717304
1926.528126	-2.968600	3.367500	-9.995900	25.718199	0.000599	20.707646
1927.532630	-2.989200	3.367700	-10.066000	25.740856	0.000599	20.736095
1928.528139	-2.989300	3.367700	-10.066000	25.723638	0.000602	20.729706
1929.531146	-2.988400	3.367400	-10.062000	25.716307	0.000600	20.733248
1930.529395	-3.016000	3.365600	-10.148000	25.757624	0.000600	20.725910
1931.528702	-2.982800	3.367500	-10.043000	25.755313	0.000599	20.723115
1932.529703	-2.967800	3.366100	-9.988400	25.732355	0.000597	20.705744
1933.529136	-2.992700	3.365800	-10.072000	25.718291	0.000597	20.730973
1934.531135	-2.970400	3.365900	-9.997200	25.693570	0.000595	20.727480
1935.531132	-3.009000	3.363900	-10.121000	25.699233	0.000597	20.734117
1936.532132	-3.006900	3.364900	-10.116000	25.677218	0.000596	20.719591
1937.532134	-3.005500	3.363800	-10.109000	25.628195	0.000595	20.724407
1938.532130	-3.008400	3.365000	-10.122000	25.627822	0.000596	20.715023
1939.531790	-3.015500	3.362300	-10.138000	25.637685	0.000595	20.724929
1940.531787	-3.013000	3.363800	-10.133000	25.648767	0.000594	20.709981
1941.531342	-2.998300	3.362300	-10.080000	25.685143	0.000595	20.740354
1942.532344	-2.999200	3.362700	-10.084000	25.675678	0.000592	20.727528
1943.535344	-2.976400	3.362900	-10.008000	25.672123	0.000594	20.731543
1944.532604	-3.008500	3.362800	-10.116000	25.700521	0.000592	20.710279
1945.532607	-3.007300	3.361600	-10.109000	25.699130	0.000594	20.710304
1946.531219	-3.019500	3.360700	-10.147000	25.686235	0.000591	20.712052
1947.532247	-2.998100	3.360700	-10.075000	25.708075	0.000591	20.741575
1948.535247	-3.023800	3.360100	-10.159000	25.712201	0.000589	20.737660
1949.535246	-2.978700	3.361500	-10.012000	25.732325	0.000591	20.710455
1950.532249	-3.030100	3.360300	-10.180000	25.765593	0.000590	20.738658
1951.533065	-2.999800	3.359600	-10.077000	25.777419	0.000589	20.723509
1952.534066	-2.971700	3.360200	-9.983800	25.793443	0.000588	20.728226
1953.532210	-3.030000	3.358700	-10.176000	25.794140	0.000586	20.722287
1954.537623	-2.986900	3.359200	-10.033000	25.825691	0.000589	20.739757
1955.533620	-3.015700	3.357800	-10.126000	25.777940	0.000588	20.728300
1956.535713	-2.996800	3.358300	-10.063000	25.747456	0.000586	20.731818
1957.534798	-3.012400	3.358100	-10.115000	25.705815	0.000587	20.740728
1958.534796	-3.009300	3.356100	-10.099000	25.661938	0.000586	20.726530
1959.536030	-3.002000	3.356800	-10.077000	25.642432	0.000586	20.727327
1960.535030	-3.004700	3.356700	-10.085000	25.653416	0.000585	20.724608
1961.535111	-2.985000	3.357700	-10.022000	25.655379	0.000586	20.732744
1962.536022	-3.011300	3.355700	-10.104000	25.682984	0.000583	20.736763
1963.535066	-2.992800	3.356300	-10.044000	25.725916	0.000584	20.728675
1964.535065	-2.997300	3.355900	-10.058000	25.719655	0.000583	20.739457
1965.538068	-2.980200	3.356900	-10.004000	25.743059	0.000584	20.716021
1966.534335	-2.993300	3.354000	-10.039000	25.745145	0.000583	20.726178
1967.535746	-2.998700	3.354600	-10.059000	25.735007	0.000583	20.717891
1968.534742	-2.988600	3.355500	-10.026000	25.713193	0.000581	20.741501
1969.535666	-3.000200	3.354600	-10.064000	25.730659	0.000582	20.732966
1970.539667	-2.981600	3.353300	-9.996900	25.732993	0.000582	20.731042
1971.538841	-3.021300	3.352300	-10.127000	25.745788	0.000581	20.729195
1972.538068	-2.994300	3.352600	-10.037000	25.760047	0.000580	20.730241
1973.536528	-2.997800	3.352800	-10.050000	25.736743	0.000578	20.738128
1974.536874	-2.972800	3.353000	-9.966900	25.731798	0.000578	20.731738
1975.540914	-2.992800	3.353500	-10.035000	25.699695	0.000579	20.741220
1976.541142	-3.012900	3.351200	-10.096000	25.675024	0.000576	20.744889
1977.538397	-2.998100	3.350300	-10.042000	25.641625	0.000576	20.753545
1978.537394	-3.006600	3.351900	-10.077000	25.663789	0.000578	20.762529
1979.537673	-2.989600	3.351000	-10.016000	25.682448	0.000577	20.752820
1980.538676	-2.998500	3.350100	-10.044000	25.745628	0.000575	20.753692
1981.539425	-3.010900	3.350000	-10.085000	25.765679	0.000576	20.714086
1982.538424	-2.989700	3.349700	-10.014000	25.757203	0.000575	20.738765
1983.540422	-2.990700	3.349900	-10.017000	25.742568	0.000576	20.744453
1984.539116	-3.016300	3.349200	-10.101000	25.751486	0.000573	20.753411
1985.540118	-3.029700	3.348400	-10.144000	25.802812	0.000576	20.738111
1986.542562	-3.015600	3.348400	-10.096000	25.804251	0.000574	20.750937
1987.541323	-3.025100	3.347700	-10.126000	25.825492	0.000570	20.762317
1988.539315	-3.007900	3.347600	-10.068000	25.851748	0.000572	20.764036
1989.539251	-3.029300	3.347100	-10.139000	25.868540	0.000572	20.769525
1990.539258	-2.995500	3.348200	-10.028000	25.835622	0.000571	20.764432
1991.541179	-3.005100	3.347200	-10.057000	25.838701	0.000572	20.777483
1992.543558	-2.983400	3.348200	-9.987900	25.836612	0.000569	20.758314
1993.540936	-2.965500	3.348500	-9.928400	25.858299	0.000570	20.736951
1994.542935	-2.977400	3.347600	-9.966900	25.834075	0.000571	20.765249
1995.540937	-2.990900	3.346600	-10.008000	25.851463	0.000568	20.749051
1996.540451	-2.982700	3.346600	-9.981300	25.859885	0.000567	20.761779
1997.541283	-3.005800	3.346500	-10.059000	25.857076	0.000569	20.773182
1998.540279	-3.027200	3.345200	-10.126000	25.851412	0.000568	20.777449
1999.540451	-3.008400	3.345000	-10.061000	25.783462	0.000568	20.765142
2000.541456	-3.020300	3.343500	-10.097000	25.814144	0.000565	20.735744
2001.540454	-3.007900	3.344600	-10.059000	25.800033	0.000566	20.746699
2002.540955	-3.000600	3.343400	-10.031000	25.806365	0.000566	20.769657
2003.542009	-2.985600	3.344300	-9.983800	25.805421	0.000563	20.760173
2004.542017	-3.006100	3.343600	-10.050000	25.807407	0.000564	20.756003
2005.541007	-2.982900	3.345100	-9.977300	25.784500	0.000564	20.777091
2006.540224	-3.016200	3.343000	-10.082000	25.809021	0.000562	20.781333
2007.540617	-3.007300	3.344000	-10.055000	25.799976	0.000563	20.774144
2008.542614	-3.023200	3.342100	-10.103000	25.826682	0.000560	20.779634
2009.543918	-3.002700	3.342600	-10.036000	25.813515	0.000561	20.762613
2010.545339	-3.029800	3.341500	-10.123000	25.805416	0.000561	20.780083
2011.542335	-3.005400	3.340700	-10.039000	25.806035	0.000561	20.770747
2012.543249	-2.992200	3.341300	-9.996400	25.787304	0.000559	20.746715
2013.548254	-3.013600	3.340500	-10.066000	25.808073	0.000561	20.771372
2014.548363	-2.999600	3.340200	-10.019000	25.864987	0.000560	20.766904
2015.547050	-2.991900	3.341200	-9.995900	25.857905	0.000560	20.789188
2016.545748	-3.005200	3.339700	-10.036000	25.876861	0.000558	20.774565
2017.546432	-3.000200	3.340200	-10.018000	25.875047	0.000559	20.768950
2018.548810	-3.011500	3.338600	-10.053000	25.903142	0.000558	20.779630
2019.549887	-2.979200	3.338900	-9.945700	25.945546	0.000558	20.798048
2020.547815	-3.013000	3.336800	-10.053000	25.976596	0.000556	20.783724
2021.548814	-2.997000	3.339200	-10.007000	26.018846	0.000556	20.790136
2022.547198	-2.987900	3.338400	-9.973000	26.023640	0.000557	20.789737
2023.548213	-2.988000	3.337800	-9.971900	26.052178	0.000554	20.795176
2024.554076	-3.006700	3.337000	-10.033000	26.061146	0.000555	20.778582
2025.550633	-2.994400	3.336500	-9.989400	26.061392	0.000555	20.787364
2026.552631	-3.027600	3.335100	-10.096000	26.054562	0.000553	20.793304
2027.549631	-2.996300	3.337100	-9.996900	26.019241	0.000553	20.781049
2028.549633	-2.991700	3.336000	-9.979300	26.029749	0.000553	20.780227
2029.550653	-2.998000	3.335200	-9.997800	26.069687	0.000553	20.770094
2030.553515	-3.026500	3.334600	-10.091000	26.089979	0.000552	20.798069
2031.551517	-2.994500	3.336000	-9.989000	26.084440	0.000552	20.805780
2032.552511	-2.996300	3.335400	-9.992300	26.045891	0.000552	20.783644
2033.552525	-2.993500	3.336000	-9.984200	26.057166	0.000551	20.787385
2034.551565	-3.027500	3.333700	-10.091000	26.048147	0.000550	20.797290
2035.556122	-3.003100	3.335000	-10.015000	25.984239	0.000548	20.807524
2036.552123	-2.980300	3.336500	-9.942300	25.988561	0.000550	20.790055
2037.554702	-2.985900	3.335100	-9.957300	25.933688	0.000549	20.778549
2038.552704	-3.011700	3.333200	-10.038000	25.918087	0.000547	20.785635
2039.552728	-2.994200	3.332300	-9.975400	25.898562	0.000548	20.787831
2040.554731	-2.991800	3.331100	-9.964800	25.907726	0.000546	20.806521
2041.553732	-2.983600	3.332100	-9.940700	25.915451	0.000548	20.797686
2042.553477	-2.978600	3.332200	-9.924700	25.948042	0.000548	20.794391
2043.555479	-2.997300	3.331700	-9.985000	25.950301	0.000546	20.808041
2044.555922	-2.983400	3.332700	-9.942300	25.985374	0.000547	20.786379
2045.555583	-3.006900	3.329400	-10.010000	25.998241	0.000546	20.810211
2046.557586	-2.995000	3.330800	-9.974200	25.977797	0.000545	20.803422
2047.557482	-3.009800	3.329300	-10.019000	25.963886	0.000544	20.806515
2048.555927	-3.003400	3.329500	-9.999200	25.952011	0.000545	20.785102
2049.555942	-3.007900	3.330200	-10.016000	25.921357	0.000545	20.791765
2050.555628	-2.979500	3.330100	-9.921600	25.899197	0.000544	20.802694
2051.559632	-3.017600	3.328400	-10.042000	25.939091	0.000544	20.798675
2052.555629	-3.001500	3.329400	-9.992300	25.962341	0.000544	20.794058
2053.558705	-2.997900	3.327600	-9.975000	25.998306	0.000542	20.806484
2054.555707	-2.986600	3.328100	-9.938200	26.024113	0.000543	20.803014
2055.555906	-2.990100	3.328700	-9.951700	26.044876	0.000541	20.815340
2056.557908	-3.013800	3.327100	-10.026000	26.033152	0.000540	20.796923
2057.558907	-2.989600	3.328500	-9.950400	26.053964	0.000539	20.814040
2058.556767	-3.024000	3.326200	-10.058000	26.055926	0.000539	20.798942
2059.557779	-3.011200	3.326500	-10.016000	26.054212	0.000539	20.817608
2060.557782	-2.973700	3.326200	-9.890200	26.048996	0.000540	20.805729
2061.559079	-2.990800	3.326900	-9.948500	26.039482	0.000538	20.804231
2062.563077	-2.999800	3.324400	-9.971000	26.012159	0.000539	20.797168
2063.558498	-2.988200	3.326800	-9.939700	26.021872	0.000537	20.802185
2064.563820	-2.993100	3.324300	-9.948500	26.028624	0.000534	20.817504
2065.558820	-2.996800	3.324600	-9.961900	26.074324	0.000536	20.808893
2066.558843	-2.987100	3.324400	-9.929800	26.113914	0.000536	20.792248
2067.560843	-2.961200	3.324100	-9.841900	26.129959	0.000536	20.816903
2068.559719	-3.009100	3.323100	-9.998500	26.124049	0.000534	20.811439
2069.559163	-2.993000	3.324100	-9.947500	26.128690	0.000535	20.820844
2070.558616	-2.993500	3.322400	-9.944600	26.108050	0.000533	20.818598
2071.559884	-3.001200	3.322500	-9.970700	26.081177	0.000533	20.845174
2072.559885	-2.988200	3.322500	-9.927600	26.091186	0.000531	20.812558
2073.560235	-2.997800	3.321300	-9.956000	26.122851	0.000531	20.837262
2074.560199	-2.985500	3.321800	-9.915400	26.138920	0.000533	20.829700
2075.560198	-3.012700	3.321900	-10.007000	26.144259	0.000530	20.820841
2076.561327	-3.018900	3.319400	-10.019000	26.109338	0.000531	20.817520
2077.562329	-2.999500	3.320400	-9.958100	26.088002	0.000530	20.810307
2078.567203	-2.991200	3.320200	-9.929800	26.037655	0.000529	20.837008
2079.562435	-3.015700	3.319200	-10.008000	26.053204	0.000528	20.827026
2080.563430	-3.008400	3.320000	-9.986300	26.055958	0.000528	20.837854
2081.561701	-2.993700	3.317700	-9.931600	26.087205	0.000528	20.838429
2082.562703	-2.996300	3.319500	-9.945500	26.122795	0.000527	20.829619
2083.563381	-3.010000	3.318100	-9.986100	26.121575	0.000526	20.829817
2084.565215	-2.993600	3.319100	-9.935200	26.104660	0.000524	20.845062
2085.561211	-2.994500	3.317900	-9.934600	26.123212	0.000527	20.830513
2086.561236	-2.993600	3.318300	-9.932900	26.141116	0.000524	20.845657
2087.562231	-2.984200	3.317200	-9.897700	26.143772	0.000526	20.827938
2088.561228	-2.998800	3.317100	-9.945800	26.167539	0.000525	20.840914
2089.565773	-2.995000	3.317000	-9.933200	26.125143	0.000525	20.835772
2090.563775	-2.994800	3.317300	-9.933800	26.133685	0.000524	20.827760
2091.565775	-3.005300	3.317000	-9.967700	26.161572	0.000524	20.826858
2092.563772	-3.004000	3.315600	-9.958100	26.200685	0.000524	20.839134
2093.564564	-2.997700	3.316400	-9.940700	26.217149	0.000524	20.845721
2094.568487	-2.988600	3.316500	-9.910700	26.219058	0.000522	20.843846
2095.565485	-3.003200	3.314200	-9.952800	26.180614	0.000523	20.836509
2096.567840	-3.003200	3.314900	-9.954300	26.166681	0.000522	20.872292
2097.564324	-3.003100	3.313900	-9.950900	26.129919	0.000521	20.858588
2098.564323	-3.025400	3.314000	-10.025000	26.131482	0.000522	20.852098
2099.564870	-2.988200	3.314400	-9.902300	26.127606	0.000521	20.852945
2100.567873	-3.020900	3.312000	-10.004000	26.097402	0.000520	20.856261
2101.566445	-2.986200	3.314400	-9.896700	26.133512	0.000522	20.864568
2102.564823	-2.976300	3.314000	-9.861700	26.196591	0.000519	20.857304
2103.564822	-3.019900	3.311300	-9.998800	26.200214	0.000515	20.867583
2104.565094	-2.999500	3.313600	-9.936800	26.222886	0.000519	20.864761
2105.568095	-2.999000	3.311600	-9.931200	26.231279	0.000518	20.898323
2106.566336	-2.982900	3.312200	-9.879100	26.203759	0.000517	20.857395
2107.565949	-2.977300	3.311800	-9.859600	26.206888	0.000516	20.870022
2108.564950	-3.009100	3.311700	-9.963900	26.224270	0.000513	20.867574
2109.566558	-2.988400	3.312400	-9.897800	26.229383	0.000512	20.883616
2110.568561	-2.993600	3.310000	-9.907700	26.245076	0.000514	20.873783
2111.568707	-3.038300	3.309600	-10.054000	26.295584	0.000513	20.867643
2112.567029	-3.007600	3.309300	-9.952200	26.317757	0.000510	20.881391
2113.567076	-2.991400	3.308900	-9.897000	26.319841	0.000512	20.858830
2114.566646	-3.004400	3.308300	-9.938100	26.304915	0.000513	20.855210
2115.567650	-2.981100	3.308500	-9.862100	26.295156	0.000511	20.874799
2116.569706	-2.970700	3.310200	-9.831600	26.275561	0.000512	20.868858
2117.567558	-2.996700	3.308400	-9.912200	26.306997	0.000510	20.900921
2118.569559	-3.003700	3.308400	-9.936000	26.328798	0.000510	20.885848
2119.570194	-2.991300	3.308600	-9.895900	26.333962	0.000507	20.873495
2120.570738	-2.984900	3.308000	-9.872800	26.343174	0.000508	20.875166
2121.575671	-2.974700	3.306200	-9.833200	26.343966	0.000508	20.899194
2122.570692	-2.990200	3.306700	-9.886400	26.288094	0.000508	20.874814
2123.574697	-3.007900	3.305400	-9.941000	26.276446	0.000506	20.874013
2124.570219	-2.962000	3.308000	-9.796900	26.262041	0.000505	20.894623
2125.570177	-2.990500	3.304800	-9.881600	26.200007	0.000505	20.873538
2126.571176	-2.994500	3.305700	-9.898000	26.224639	0.000503	20.897815
2127.576011	-2.983100	3.303700	-9.853900	26.231740	0.000503	20.892623
2128.570459	-2.982400	3.305400	-9.857500	26.237401	0.000503	20.903526
2129.570458	-2.991200	3.304100	-9.882300	26.256025	0.000501	20.890949
2130.571083	-2.991200	3.304400	-9.881100	26.285947	0.000501	20.903000
2131.572086	-3.006900	3.303400	-9.932400	26.321082	0.000502	20.886154
2132.576189	-3.004900	3.304200	-9.927400	26.289173	0.000500	20.898655
2133.572694	-3.009000	3.303500	-9.939400	26.294511	0.000501	20.891693
2134.576694	-2.994100	3.302300	-9.887000	26.273079	0.000501	20.918990
2135.573372	-2.975900	3.302600	-9.826500	26.290784	0.000501	20.907860
2136.573369	-2.993800	3.302200	-9.885100	26.295302	0.000499	20.905289
2137.576836	-3.007200	3.301400	-9.926900	26.296791	0.000499	20.911052
2138.578569	-2.997100	3.300400	-9.890800	26.284821	0.000497	20.894756
2139.575569	-3.008100	3.302000	-9.931100	26.233936	0.000496	20.875391
2140.575439	-3.013700	3.300600	-9.945500	26.209772	0.000497	20.897573
2141.574414	-3.005400	3.300600	-9.918800	26.212975	0.000499	20.899843
2142.574414	-3.018300	3.299700	-9.958100	26.226855	0.000495	20.899093
2143.576246	-2.998000	3.301000	-9.895600	26.241878	0.000496	20.893802
2144.576314	-2.996300	3.298000	-9.880400	26.264923	0.000495	20.892779
2145.579340	-2.973200	3.300100	-9.810200	26.286552	0.000493	20.885591
2146.576342	-2.988700	3.298500	-9.857400	26.348406	0.000494	20.901285
2147.577796	-2.994700	3.298400	-9.876500	26.333457	0.000494	20.886263
2148.576827	-3.013500	3.296400	-9.932200	26.383514	0.000493	20.904802
2149.576830	-2.992300	3.297700	-9.866600	26.410257	0.000493	20.893748
2150.576198	-3.017800	3.296400	-9.946900	26.415966	0.000491	20.867246
2151.576199	-3.018100	3.296600	-9.948000	26.431981	0.000491	20.881445
2152.577199	-3.021100	3.295100	-9.953500	26.476845	0.000490	20.872011
2153.578235	-3.004300	3.296300	-9.902200	26.458721	0.000489	20.883190
2154.579233	-3.004500	3.296700	-9.903900	26.439676	0.000489	20.885386
2155.578234	-3.019700	3.294500	-9.947000	26.396423	0.000488	20.895965
2156.578883	-2.992100	3.295100	-9.858600	26.345074	0.000488	20.892721
2157.579883	-3.004400	3.294200	-9.895600	26.362977	0.000487	20.893645
2158.582129	-2.996500	3.293900	-9.868600	26.379016	0.000488	20.880368
2159.581438	-2.983200	3.294000	-9.825600	26.365235	0.000487	20.894966
2160.578434	-2.992000	3.293900	-9.854600	26.400096	0.000485	20.869313
2161.580802	-2.975000	3.293500	-9.796600	26.410400	0.000485	20.883936
2162.579806	-2.985800	3.293800	-9.833200	26.395701	0.000484	20.881965
2163.581060	-2.994500	3.293100	-9.860400	26.382838	0.000485	20.881839
2164.580721	-2.990700	3.293000	-9.847700	26.342687	0.000484	20.872307
2165.582502	-2.985200	3.292700	-9.828400	26.342414	0.000482	20.869187
2166.579519	-2.979400	3.293100	-9.811100	26.335809	0.000483	20.882937
2167.581521	-3.013400	3.290300	-9.914000	26.328534	0.000482	20.870884
2168.582834	-2.996600	3.290900	-9.861100	26.353538	0.000479	20.851445
2169.581903	-3.003300	3.290100	-9.880600	26.356592	0.000479	20.879643
2170.584899	-2.991800	3.290400	-9.841900	26.380032	0.000479	20.882338
2171.581901	-2.989900	3.291300	-9.839500	26.368089	0.000476	20.871284
2172.585902	-2.995500	3.289500	-9.853500	26.351229	0.000476	20.884684
2173.582822	-2.963600	3.290600	-9.751200	26.340899	0.000475	20.840166
2174.582712	-2.979900	3.290700	-9.805400	26.336903	0.000476	20.850848
2175.585713	-3.000200	3.289200	-9.867500	26.283167	0.000475	20.865596
2176.582678	-3.007300	3.288900	-9.890200	26.321060	0.000475	20.848676
2177.585676	-3.002600	3.288300	-9.872000	26.317360	0.000472	20.868190
2178.582673	-3.017800	3.287100	-9.918900	26.323196	0.000475	20.845608
2179.582231	-3.016200	3.287800	-9.915800	26.364863	0.000473	20.879420
2180.583236	-2.993000	3.286000	-9.833100	26.357837	0.000474	20.867144
2181.587236	-3.017400	3.286200	-9.915200	26.376832	0.000471	20.859682
2182.584487	-2.989200	3.286800	-9.823800	26.414426	0.000469	20.824448
2183.585529	-2.993000	3.286200	-9.834100	26.345844	0.000470	20.857462
2184.584830	-3.011100	3.285500	-9.891700	26.314482	0.000470	20.854867
2185.585833	-2.990200	3.285800	-9.824400	26.280462	0.000470	20.856714
2186.588832	-3.011000	3.284000	-9.886900	26.241152	0.000468	20.876004
2187.588747	-3.005000	3.285200	-9.871100	26.231096	0.000470	20.850727
2188.592038	-2.987100	3.284500	-9.810500	26.179268	0.000467	20.845114
2189.589036	-3.012800	3.283300	-9.891000	26.167671	0.000467	20.852900
2190.587652	-3.010600	3.282900	-9.882500	26.171867	0.000465	20.852375
2191.591655	-2.994900	3.283700	-9.833700	26.177209	0.000465	20.832613
2192.588867	-3.003600	3.282300	-9.857600	26.189949	0.000464	20.835932
2193.588605	-2.979900	3.283900	-9.784600	26.182152	0.000465	20.854649
2194.588603	-2.993300	3.282800	-9.824000	26.217194	0.000467	20.833438
2195.589879	-2.991700	3.281200	-9.815300	26.253129	0.000463	20.825454
2196.590880	-3.009900	3.280900	-9.873600	26.288865	0.000462	20.833391
2197.590879	-2.992000	3.282000	-9.818200	26.318638	0.000462	20.858570
2198.589240	-3.002600	3.279300	-9.846000	26.339697	0.000461	20.840380
2199.591239	-3.014600	3.279400	-9.885400	26.297584	0.000461	20.839309
2200.591870	-2.998700	3.280200	-9.835500	26.268779	0.000457	20.836913
2201.591873	-2.976800	3.279600	-9.761200	26.259172	0.000460	20.829629
2202.592871	-2.992100	3.279200	-9.810000	26.297736	0.000458	20.856529
2203.591873	-2.994700	3.278900	-9.818700	26.333173	0.000460	20.830504
2204.591877	-3.004800	3.278300	-9.848900	26.377248	0.000458	20.821222
2205.591810	-2.986900	3.278700	-9.792000	26.375661	0.000457	20.829584
2206.591811	-3.010800	3.277800	-9.867100	26.405186	0.000459	20.819903
2207.591812	-2.995400	3.278300	-9.817700	26.414820	0.000455	20.844759
2208.594050	-3.026200	3.276000	-9.912900	26.418172	0.000455	20.823946
2209.593052	-3.007200	3.276200	-9.851300	26.461896	0.000458	20.828538
2210.592758	-2.993000	3.276200	-9.804700	26.478931	0.000456	20.826694
2211.592578	-2.976900	3.275500	-9.749800	26.519177	0.000456	20.832060
2212.591575	-2.992200	3.276200	-9.801600	26.487646	0.000454	20.831661
2213.594578	-3.002300	3.275300	-9.832700	26.461851	0.000455	20.815691
2214.592575	-3.001500	3.276100	-9.831900	26.447947	0.000452	20.823053
2215.592617	-3.009000	3.273600	-9.848600	26.455074	0.000452	20.814570
2216.592221	-2.990700	3.274400	-9.792300	26.464634	0.000454	20.818014
2217.593218	-3.002800	3.274100	-9.829600	26.483703	0.000453	20.820586
2218.592506	-3.019000	3.273400	-9.881000	26.459894	0.000453	20.817991
2219.594502	-2.997500	3.272600	-9.808700	26.472333	0.000450	20.831443
2220.592552	-3.012100	3.272300	-9.855100	26.491077	0.000450	20.830368
2221.593762	-2.999900	3.271800	-9.813700	26.551708	0.000448	20.833940
2222.595877	-3.011400	3.272600	-9.853800	26.571543	0.000449	20.824481
2223.596008	-3.016100	3.271100	-9.864900	26.586787	0.000447	20.823683
2224.597319	-2.987900	3.271600	-9.773300	26.585223	0.000448	20.819267
2225.594318	-3.002300	3.270600	-9.818800	26.524847	0.000447	20.815001
2226.597314	-3.030800	3.269200	-9.906000	26.464466	0.000444	20.816898
2227.595313	-3.020400	3.270300	-9.876400	26.423525	0.000444	20.812731
2228.594349	-3.026400	3.270400	-9.896900	26.400458	0.000441	20.811833
2229.597351	-3.006600	3.267900	-9.824800	26.397776	0.000444	20.820991
2230.596355	-2.983100	3.270600	-9.755000	26.373717	0.000442	20.811509
2231.596849	-2.989900	3.268800	-9.772600	26.419528	0.000442	20.821990
2232.597873	-2.994200	3.268800	-9.786100	26.445326	0.000443	20.810461
2233.596160	-2.993300	3.268500	-9.781300	26.472787	0.000441	20.808192
2234.598480	-2.962500	3.269000	-9.683300	26.451087	0.000439	20.817200
2235.600484	-3.002300	3.267800	-9.809200	26.482918	0.000438	20.797986
2236.597480	-2.990800	3.266700	-9.768700	26.495778	0.000439	20.805222
2237.598481	-3.014200	3.267700	-9.847900	26.546848	0.000438	20.802029
2238.598480	-2.990900	3.266000	-9.767200	26.537167	0.000439	20.794668
2239.597477	-3.010100	3.264800	-9.825500	26.531554	0.000438	20.790923
2240.602710	-2.990000	3.266900	-9.767000	26.480437	0.000436	20.811139
2241.600710	-3.001300	3.266500	-9.802600	26.534386	0.000437	20.810839
2242.601708	-2.980000	3.265300	-9.729300	26.521079	0.000435	20.810739
2243.601712	-3.004900	3.264800	-9.809300	26.518920	0.000435	20.799086
2244.601709	-3.003000	3.263600	-9.799000	26.515197	0.000433	20.789180
2245.604711	-3.007700	3.263800	-9.815700	26.521875	0.000435	20.803479
2246.601713	-2.979100	3.263100	-9.720500	26.530516	0.000432	20.805052
2247.602713	-3.013200	3.262700	-9.829800	26.551942	0.000433	20.799089
2248.604074	-2.985000	3.262500	-9.737600	26.594567	0.000432	20.795470
2249.601650	-3.004300	3.263000	-9.801400	26.608148	0.000433	20.792053
2250.601740	-3.012000	3.262800	-9.825700	26.601744	0.000430	20.806003
2251.603737	-2.984500	3.263500	-9.739100	26.597921	0.000430	20.805480
2252.603733	-2.990200	3.261100	-9.750700	26.631286	0.000431	20.801562
2253.602731	-2.982000	3.261800	-9.724900	26.606835	0.000431	20.788362
2254.602381	-3.009300	3.261400	-9.813800	26.618106	0.000429	20.773139
2255.603382	-2.994000	3.258900	-9.755800	26.642309	0.000429	20.788461
2256.606914	-3.008600	3.259900	-9.807300	26.690047	0.000429	20.774339
2257.604037	-2.973000	3.259400	-9.688900	26.661525	0.000428	20.796873
2258.605067	-3.015200	3.258800	-9.824600	26.667384	0.000428	20.784745
2259.602410	-3.016000	3.257300	-9.822100	26.641543	0.000427	20.783424
2260.603410	-2.998400	3.257900	-9.767700	26.680616	0.000425	20.787143
2261.603403	-3.024500	3.257900	-9.852200	26.684663	0.000426	20.812074
2262.607366	-2.984300	3.258900	-9.723400	26.721227	0.000426	20.793358
2263.602364	-3.007300	3.258400	-9.796900	26.686153	0.000424	20.785123
2264.603006	-2.978200	3.257600	-9.700800	26.688561	0.000422	20.788966
2265.604008	-2.974800	3.256500	-9.686300	26.711275	0.000422	20.783352
2266.604305	-2.993900	3.256900	-9.749400	26.742575	0.000423	20.768353
2267.608356	-3.016500	3.254700	-9.817200	26.759009	0.000422	20.798626
2268.604354	-3.025200	3.255100	-9.844700	26.775962	0.000422	20.772523
2269.607911	-3.005000	3.254500	-9.778900	26.797556	0.000420	20.772423
2270.605911	-2.996500	3.255500	-9.752100	26.767275	0.000420	20.764737
2271.605127	-2.996100	3.254500	-9.749900	26.750025	0.000418	20.778214
2272.605920	-3.006900	3.253100	-9.781200	26.724782	0.000420	20.783181
2273.606921	-3.002900	3.253300	-9.768300	26.680152	0.000417	20.776718
2274.607262	-2.976000	3.252300	-9.676900	26.676601	0.000417	20.771252
2275.606266	-3.009400	3.252100	-9.785500	26.632564	0.000415	20.778665
2276.606283	-2.985900	3.252400	-9.709700	26.643289	0.000412	20.787549
2277.608930	-2.984100	3.252800	-9.705100	26.663397	0.000412	20.775047
2278.610934	-2.996100	3.251000	-9.739700	26.676604	0.000414	20.771729
2279.607931	-3.027600	3.250000	-9.838500	26.652626	0.000413	20.755684
2280.610439	-2.994900	3.249600	-9.730700	26.675884	0.000410	20.752987
2281.608438	-2.997100	3.251100	-9.742300	26.674843	0.000412	20.781339
2282.609086	-2.986700	3.248500	-9.701700	26.648879	0.000409	20.766142
2283.612081	-2.974600	3.249200	-9.663600	26.648556	0.000411	20.772455
2284.609081	-2.989300	3.248900	-9.710400	26.677676	0.000410	20.754314
2285.610292	-2.994700	3.248300	-9.726000	26.679115	0.000408	20.758132
2286.610280	-3.013400	3.248000	-9.786400	26.639993	0.000409	20.749148
2287.610450	-3.003700	3.247200	-9.752900	26.638679	0.000408	20.765845
2288.612043	-2.996800	3.245700	-9.725000	26.650496	0.000407	20.763026
2289.614043	-3.016000	3.245800	-9.788100	26.644216	0.000409	20.759558
2290.610510	-2.993300	3.246200	-9.716100	26.649033	0.000406	20.766771
2291.611417	-3.015600	3.245500	-9.784300	26.632474	0.000403	20.778100
2292.610417	-2.984900	3.245800	-9.687100	26.610159	0.000404	20.774159
2293.610416	-3.001000	3.244500	-9.735500	26.597970	0.000404	20.756689
2294.613414	-3.004400	3.245800	-9.750700	26.580618	0.000403	20.749204
2295.611578	-2.988700	3.243800	-9.694200	26.543232	0.000404	20.751926
2296.614581	-3.003300	3.242700	-9.737200	26.496285	0.000402	20.763057
2297.613670	-2.974300	3.243900	-9.647400	26.482233	0.000402	20.751304
2298.614265	-2.997100	3.242100	-9.714700	26.500185	0.000400	20.752753
2299.613263	-2.988500	3.242500	-9.689600	26.554979	0.000400	20.749510
2300.617107	-2.997200	3.243000	-9.719200	26.554036	0.000399	20.738604
2301.615108	-3.004400	3.241300	-9.737100	26.535740	0.000399	20.742972
2302.614059	-2.980700	3.242500	-9.663900	26.522037	0.000399	20.729198
2303.614916	-2.988300	3.241000	-9.684100	26.524844	0.000398	20.751461
2304.613912	-2.995400	3.241700	-9.710000	26.530680	0.000396	20.766810
2305.616954	-3.013100	3.240200	-9.761400	26.502527	0.000396	20.724285
2306.614955	-2.974200	3.240600	-9.637200	26.508288	0.000396	20.727231
2307.616061	-2.998300	3.238500	-9.709300	26.526510	0.000395	20.743178
2308.614062	-2.999400	3.237900	-9.710600	26.564671	0.000394	20.742657
2309.615062	-2.981800	3.238400	-9.655200	26.607172	0.000392	20.756458
2310.616061	-2.991200	3.237500	-9.682700	26.659751	0.000394	20.725387
2311.614394	-2.994400	3.237300	-9.692700	26.709300	0.000393	20.737268
2312.615397	-2.984200	3.237000	-9.658500	26.766093	0.000393	20.749797
2313.616395	-2.993900	3.236000	-9.687500	26.732933	0.000392	20.727838
2314.615793	-3.025700	3.235300	-9.788100	26.729136	0.000391	20.724493
2315.615790	-2.981700	3.236600	-9.649300	26.713549	0.000392	20.740592
2316.617645	-3.008100	3.235000	-9.730700	26.728418	0.000390	20.720453
2317.616644	-3.007100	3.235700	-9.729300	26.770195	0.000389	20.750129
2318.615775	-2.989000	3.235800	-9.670700	26.777494	0.000390	20.729965
2319.616850	-2.984100	3.234900	-9.651800	26.810828	0.000389	20.730289
2320.617852	-2.997300	3.233000	-9.689400	26.829815	0.000388	20.737527
2321.619246	-3.001900	3.233200	-9.704100	26.830638	0.000388	20.735983
2322.617215	-2.986400	3.233900	-9.656700	26.782015	0.000388	20.734511
2323.618267	-2.992100	3.231800	-9.668400	26.724952	0.000387	20.709855
2324.619046	-3.000700	3.231900	-9.696900	26.724083	0.000386	20.745019
2325.620047	-3.009400	3.231500	-9.723000	26.700627	0.000385	20.736135
2326.621442	-3.007500	3.231500	-9.717600	26.710458	0.000384	20.721363
2327.621054	-2.994000	3.231800	-9.674800	26.677891	0.000383	20.731296
2328.619052	-2.999400	3.231000	-9.690600	26.619803	0.000383	20.720315
2329.618837	-2.982800	3.230700	-9.634800	26.646986	0.000384	20.712080
2330.620836	-2.983500	3.229600	-9.634100	26.656023	0.000381	20.727330
2331.619827	-3.012900	3.229600	-9.727900	26.658357	0.000382	20.728253
2332.621704	-3.017900	3.227600	-9.739800	26.652997	0.000381	20.730452
2333.621534	-3.032000	3.226500	-9.780500	26.686682	0.000382	20.711683
2334.620935	-3.015500	3.227900	-9.731600	26.729476	0.000381	20.707765
2335.620206	-2.999300	3.228100	-9.680800	26.766760	0.000379	20.723440
2336.621267	-2.984900	3.227500	-9.633000	26.781256	0.000380	20.719522
2337.625265	-3.004300	3.226000	-9.691300	26.831963	0.000377	20.697484
2338.622266	-2.980500	3.228900	-9.622300	26.857230	0.000376	20.731901
2339.624588	-3.012500	3.224500	-9.713100	26.895527	0.000376	20.707344
2340.621129	-2.992000	3.225200	-9.649000	26.862890	0.000378	20.707719
2341.621128	-3.043100	3.225700	-9.814800	26.915854	0.000376	20.701705
2342.623058	-3.012500	3.222500	-9.706900	26.904738	0.000375	20.720401
2343.626225	-2.987700	3.223700	-9.630700	26.916301	0.000375	20.726812
2344.621225	-2.989600	3.222600	-9.633300	26.912009	0.000375	20.741464
2345.622015	-2.985500	3.223100	-9.620900	26.918858	0.000373	20.730332
2346.622020	-2.987900	3.222100	-9.625900	26.890567	0.000372	20.713263
2347.621546	-3.001700	3.222400	-9.670100	26.847283	0.000371	20.723795
2348.624959	-3.010800	3.221000	-9.697200	26.849317	0.000373	20.723470
2349.623046	-3.003000	3.221300	-9.672000	26.858775	0.000371	20.707848
2350.629111	-3.000400	3.220800	-9.662700	26.820180	0.000372	20.727839
2351.624119	-3.019100	3.218600	-9.716400	26.810849	0.000371	20.717508
2352.624458	-2.999000	3.219400	-9.654200	26.781485	0.000369	20.707424
2353.626331	-3.004100	3.218000	-9.665900	26.788460	0.000370	20.704005
2354.625334	-3.019000	3.218300	-9.715500	26.817326	0.000368	20.721649
2355.624421	-2.999500	3.218400	-9.651600	26.824748	0.000369	20.713464
2356.624420	-3.004600	3.217700	-9.666700	26.838250	0.000369	20.693848
2357.624418	-3.010100	3.216200	-9.679300	26.838697	0.000368	20.704729
2358.624905	-2.990000	3.217500	-9.619200	26.834453	0.000368	20.709471
2359.626906	-2.999000	3.216800	-9.646100	26.823730	0.000367	20.715286
2360.627494	-3.014600	3.216800	-9.696400	26.843909	0.000365	20.704280
2361.626489	-3.025300	3.214500	-9.723500	26.867984	0.000367	20.709995
2362.626486	-3.008500	3.214400	-9.669400	26.883322	0.000365	20.694123
2363.628046	-3.003500	3.215200	-9.654700	26.891663	0.000362	20.728117
2364.631046	-2.998600	3.214700	-9.638400	26.919757	0.000361	20.713217
2365.630818	-2.968600	3.214300	-9.541000	26.933654	0.000365	20.713441
2366.632950	-2.985400	3.215500	-9.598300	26.926904	0.000362	20.709024
2367.630947	-3.009900	3.212700	-9.668700	26.956387	0.000361	20.703110
2368.630763	-3.003200	3.212800	-9.647800	26.947132	0.000363	20.707079
2369.631766	-3.027500	3.210700	-9.719000	26.988574	0.000362	20.721253
2370.635282	-2.996300	3.212900	-9.625900	26.972966	0.000362	20.710299
2371.632280	-3.003800	3.211800	-9.646300	26.967555	0.000361	20.702960
2372.632282	-3.009900	3.212200	-9.667700	26.939165	0.000360	20.706654
2373.632342	-3.013200	3.208700	-9.667200	26.867367	0.000359	20.711272
2374.632784	-2.983600	3.210900	-9.579500	26.841480	0.000358	20.707528
2375.634779	-2.985100	3.208800	-9.577800	26.855207	0.000357	20.705209
2376.633083	-2.987100	3.209100	-9.584700	26.870073	0.000358	20.712096
2377.638085	-3.000700	3.209000	-9.627900	26.875385	0.000358	20.704635
2378.634083	-2.949900	3.210900	-9.470900	26.921720	0.000356	20.727520
2379.634385	-2.993400	3.208800	-9.603900	26.964828	0.000355	20.720608
2380.635385	-3.010500	3.207100	-9.654200	26.989273	0.000358	20.718163
2381.635274	-3.007100	3.206400	-9.641100	27.015106	0.000356	20.725650
2382.635225	-2.994100	3.206000	-9.598100	27.037787	0.000356	20.708155
2383.634225	-3.010600	3.206200	-9.651800	27.035380	0.000354	20.702415
2384.634385	-2.991100	3.205200	-9.585600	27.019078	0.000354	20.720635
2385.635390	-2.995100	3.203000	-9.592300	27.023867	0.000352	20.724029
2386.636809	-2.973400	3.204600	-9.527500	27.046797	0.000354	20.720535
2387.634589	-2.997300	3.203500	-9.601100	27.055209	0.000351	20.721409
2388.634583	-3.003300	3.202900	-9.618500	27.074566	0.000352	20.713374
2389.634607	-3.002000	3.201500	-9.610100	27.102827	0.000353	20.727573
2390.634608	-3.004600	3.202000	-9.619300	27.044962	0.000350	20.706361
2391.639663	-3.022400	3.201200	-9.674700	27.048089	0.000350	20.725629
2392.636644	-3.002000	3.200800	-9.607100	27.058091	0.000352	20.719565
2393.638649	-2.963500	3.201300	-9.486200	27.033747	0.000350	20.695082
2394.637415	-2.981100	3.198700	-9.533400	27.021562	0.000349	20.723133
2395.637604	-2.994500	3.199100	-9.578100	26.991833	0.000350	20.727850
2396.638602	-3.016400	3.198100	-9.646200	26.970444	0.000348	20.709185
2397.639862	-2.997600	3.199100	-9.588900	26.956918	0.000349	20.716921
2398.636863	-3.001000	3.198900	-9.598900	26.951908	0.000346	20.719469
2399.638060	-2.993700	3.199300	-9.575700	26.971957	0.000347	20.713552
2400.638656	-3.010700	3.196800	-9.622300	26.975359	0.000348	20.732146
2401.640656	-2.977200	3.199000	-9.523500	27.037944	0.000346	20.717322
2402.644411	-2.966800	3.197800	-9.485300	27.060575	0.000346	20.717322
2403.640841	-3.010800	3.196900	-9.623800	27.083677	0.000344	20.726332
2404.641836	-3.020600	3.194800	-9.650000	27.103056	0.000343	20.715475
2405.640555	-2.990100	3.196300	-9.556400	27.067449	0.000343	20.711433
2406.641558	-3.000700	3.195600	-9.588200	27.028415	0.000342	20.735242
2407.642626	-2.997700	3.195900	-9.579500	27.022586	0.000344	20.705670
2408.642912	-3.010200	3.194700	-9.616200	27.052910	0.000344	20.719096
2409.643907	-3.008700	3.194500	-9.611100	27.059957	0.000341	20.727133
2410.641922	-3.000300	3.191700	-9.574500	27.028343	0.000341	20.733272
2411.641924	-3.019800	3.190100	-9.632600	27.037773	0.000341	20.726633
2412.641922	-2.954400	3.192500	-9.429800	27.022436	0.000341	20.725435
2413.644567	-2.990900	3.192100	-9.545700	27.007521	0.000341	20.729402
2414.642570	-3.009200	3.191200	-9.601000	26.980619	0.000341	20.728427
2415.642218	-2.997800	3.190500	-9.564200	26.994816	0.000339	20.737014
2416.641219	-2.987700	3.190100	-9.529500	27.023527	0.000339	20.739335
2417.641215	-2.974300	3.189500	-9.485200	27.095416	0.000339	20.734345
2418.643959	-2.998900	3.189900	-9.566100	27.116605	0.000338	20.722938
2419.642961	-3.005800	3.188500	-9.582700	27.128937	0.000338	20.735341
2420.642958	-3.007800	3.188600	-9.589700	27.149507	0.000337	20.728528
2421.643759	-3.011800	3.187800	-9.600500	27.189677	0.000338	20.721515
2422.642756	-2.977000	3.185900	-9.483700	27.195110	0.000336	20.725083
2423.646007	-2.977300	3.186000	-9.483800	27.195705	0.000336	20.737062
2424.647007	-3.004700	3.184100	-9.565900	27.229845	0.000336	20.720666
2425.645005	-2.978400	3.184400	-9.482700	27.217338	0.000336	20.731795
2426.644686	-2.993000	3.183900	-9.528500	27.216941	0.000336	20.724282
2427.645689	-2.987500	3.184100	-9.511300	27.160421	0.000338	20.732393
2428.644688	-2.972600	3.182500	-9.458800	27.098886	0.000335	20.728825
2429.646688	-3.028900	3.182100	-9.637000	27.068613	0.000334	20.752909
2430.644687	-3.005900	3.181800	-9.563100	27.040944	0.000334	20.743574
2431.647690	-3.001900	3.181000	-9.548300	26.974142	0.000334	20.745148
2432.645688	-3.005200	3.180700	-9.558000	26.954116	0.000333	20.752985
2433.644689	-3.013000	3.180200	-9.581700	26.985357	0.000332	20.747892
2434.645158	-2.995700	3.179000	-9.522000	26.995483	0.000331	20.736263
2435.646158	-3.008200	3.180100	-9.566000	27.034246	0.000331	20.770030
2436.645155	-3.015500	3.177200	-9.580700	27.053005	0.000332	20.737211
2437.645709	-3.017000	3.177000	-9.584000	27.102486	0.000330	20.736240
2438.646711	-2.985000	3.178000	-9.484500	27.100028	0.000331	20.744674
2439.646178	-2.998500	3.177100	-9.525800	27.052659	0.000330	20.745398
2440.646174	-3.034200	3.175000	-9.632100	27.016256	0.000330	20.749092
2441.645175	-3.028800	3.175100	-9.614000	27.034345	0.000329	20.741679
2442.645138	-3.001200	3.175900	-9.530500	27.049159	0.000328	20.758474
2443.646134	-3.007000	3.175500	-9.547900	27.045239	0.000330	20.723236
2444.645133	-3.003100	3.173900	-9.530300	26.999778	0.000330	20.734418
2445.649058	-2.988800	3.173900	-9.484800	26.982927	0.000330	20.742603
2446.646055	-2.984100	3.173900	-9.471000	27.032684	0.000328	20.743327
2447.647503	-3.032500	3.171500	-9.616500	27.096555	0.000328	20.730274
2448.646507	-2.986800	3.173000	-9.476500	27.119409	0.000327	20.759424
2449.647212	-3.011600	3.171000	-9.548600	27.084991	0.000328	20.752310
2450.646975	-2.983900	3.175200	-9.473600	27.071717	0.000326	20.750815
2451.649975	-2.979900	3.174500	-9.458400	27.057100	0.000325	20.747020
2452.646895	-2.994600	3.169100	-9.489600	27.080698	0.000325	20.750364
2453.646895	-2.984200	3.170100	-9.458800	27.138538	0.000325	20.737886
2454.646645	-2.998900	3.169500	-9.503500	27.159380	0.000326	20.750788
2455.647514	-2.974500	3.168000	-9.422500	27.204884	0.000326	20.740605
2456.651535	-2.978300	3.168900	-9.436500	27.194292	0.000324	20.741805
2457.648778	-3.010400	3.167600	-9.534200	27.235550	0.000324	20.743475
2458.649189	-2.983000	3.165600	-9.441900	27.240488	0.000324	20.755081
2459.649001	-3.003900	3.166600	-9.510900	27.249344	0.000322	20.755928
2460.649210	-2.977000	3.166400	-9.425900	27.264183	0.000323	20.759948
2461.649212	-3.009300	3.163500	-9.518600	27.281426	0.000322	20.746947
2462.648211	-3.006200	3.164000	-9.510100	27.282443	0.000319	20.756031
2463.648627	-3.000900	3.163300	-9.492200	27.330347	0.000321	20.759174
2464.648625	-2.990900	3.162300	-9.456400	27.347763	0.000319	20.768158
2465.648632	-2.972600	3.162800	-9.399900	27.358208	0.000320	20.756381
2466.648626	-3.004500	3.162300	-9.500400	27.367559	0.000320	20.771003
2467.650627	-2.970100	3.163900	-9.395700	27.405366	0.000321	20.767311
2468.649642	-2.998900	3.160500	-9.477500	27.427668	0.000320	20.748021
2469.650642	-2.990000	3.159200	-9.445300	27.464502	0.000318	20.756155
2470.649611	-3.031700	3.157700	-9.572000	27.462145	0.000319	20.765164
2471.651613	-2.990600	3.158500	-9.444300	27.486082	0.000317	20.758426
2472.654613	-2.975700	3.157900	-9.395200	27.466636	0.000318	20.771105
2473.653338	-2.974400	3.156600	-9.387700	27.421140	0.000316	20.762318
2474.652647	-2.997600	3.157300	-9.463300	27.415735	0.000318	20.783433
2475.651647	-2.985700	3.156000	-9.421500	27.422109	0.000318	20.782259
2476.651370	-2.974500	3.154900	-9.383500	27.438803	0.000316	20.774397
2477.655371	-3.009600	3.154100	-9.492200	27.422581	0.000314	20.772776
2478.656948	-2.996100	3.152900	-9.444700	27.429576	0.000314	20.779339
2479.652475	-3.006000	3.151400	-9.472900	27.439101	0.000314	20.751937
2480.653475	-3.008700	3.153200	-9.486000	27.465568	0.000315	20.776668
2481.655046	-2.999700	3.151500	-9.452400	27.506692	0.000314	20.766360
2482.656049	-2.968800	3.152500	-9.357700	27.508453	0.000313	20.772873
2483.658046	-3.010600	3.148800	-9.478800	27.509396	0.000313	20.767184
2484.655241	-2.993900	3.149400	-9.427500	27.515621	0.000312	20.786249
2485.657244	-2.974900	3.149100	-9.366800	27.537151	0.000312	20.778988
2486.657772	-2.978600	3.150100	-9.382100	27.506791	0.000311	20.771675
2487.655499	-2.995700	3.147200	-9.427400	27.525668	0.000313	20.786874
2488.657502	-2.959400	3.148200	-9.315500	27.544420	0.000312	20.797206
2489.655164	-2.993300	3.145200	-9.413400	27.505476	0.000313	20.782206
2490.658167	-3.018100	3.143900	-9.487100	27.451304	0.000311	20.783181
2491.655168	-3.011600	3.144500	-9.468500	27.428582	0.000312	20.775969
2492.655149	-3.008200	3.143900	-9.456000	27.437636	0.000310	20.764688
2493.657155	-2.980500	3.142300	-9.364000	27.448399	0.000313	20.776939
2494.659149	-2.973400	3.143600	-9.346400	27.460158	0.000312	20.779286
2495.658153	-2.994700	3.141300	-9.405800	27.435502	0.000310	20.805216
2496.658151	-2.994000	3.141000	-9.403800	27.437486	0.000310	20.797254
2497.657149	-2.998600	3.141000	-9.417500	27.442545	0.000309	20.820836
2498.658150	-2.981800	3.139800	-9.361400	27.404494	0.000309	20.784452
2499.661168	-2.962200	3.139300	-9.297900	27.397398	0.000307	20.794857
2500.657830	-2.966800	3.138000	-9.309100	27.402533	0.000308	20.785324
2501.660831	-2.984000	3.138500	-9.363100	27.427167	0.000309	20.777390
2502.657831	-2.999200	3.136000	-9.404100	27.464326	0.000309	20.802919
2503.657446	-2.985800	3.136500	-9.364300	27.461274	0.000306	20.769503
2504.659446	-2.992200	3.135500	-9.381200	27.451078	0.000308	20.816144
2505.664217	-2.992200	3.135000	-9.378500	27.473303	0.000308	20.781131
2506.660171	-2.984200	3.135000	-9.354600	27.493272	0.000307	20.797903
2507.660251	-2.996000	3.132100	-9.382600	27.534470	0.000306	20.790989
2508.660150	-3.017600	3.131100	-9.447500	27.526484	0.000305	20.806187
2509.661152	-3.017700	3.130600	-9.445900	27.537893	0.000307	20.799174
2510.665900	-3.012100	3.131600	-9.431300	27.572739	0.000306	20.805312
2511.661687	-3.016300	3.130100	-9.440700	27.601686	0.000306	20.806936
2512.665687	-3.009900	3.128700	-9.416000	27.589432	0.000306	20.817840
2513.660979	-2.995500	3.128300	-9.369700	27.623313	0.000305	20.802619
2514.661983	-2.994700	3.130300	-9.372800	27.588961	0.000303	20.801245
2515.662979	-3.013200	3.126700	-9.420100	27.527551	0.000307	20.817218
2516.662033	-2.986500	3.127200	-9.337600	27.470105	0.000305	20.818691
2517.663035	-3.000600	3.125700	-9.378300	27.465766	0.000304	20.797730
2518.662951	-2.995800	3.124900	-9.360300	27.500242	0.000305	20.803493
2519.661338	-2.996400	3.124000	-9.359000	27.524353	0.000302	20.800724
2520.661338	-3.013400	3.122400	-9.407800	27.530704	0.000302	20.788148
2521.662505	-3.023600	3.120300	-9.433900	27.519566	0.000304	20.790218
2522.662507	-2.986100	3.122400	-9.321900	27.488289	0.000304	20.803795
2523.661504	-3.008500	3.120000	-9.385900	27.521280	0.000302	20.809486
2524.662812	-3.000500	3.119300	-9.358200	27.548735	0.000303	20.825256
2525.661807	-2.993600	3.118500	-9.334600	27.504413	0.000301	20.783507
2526.664146	-3.015700	3.118300	-9.402600	27.517411	0.000303	20.804645
2527.663146	-2.983500	3.116700	-9.297900	27.496106	0.000302	20.808341
2528.663145	-3.023300	3.114600	-9.414900	27.523440	0.000302	20.809289
2529.663861	-3.006600	3.115900	-9.366500	27.562754	0.000302	20.815180
2530.663860	-2.985500	3.115700	-9.301400	27.586640	0.000301	20.827358
2531.663859	-3.021700	3.112500	-9.403600	27.643909	0.000303	20.811489
2532.666892	-3.010600	3.111500	-9.364800	27.656109	0.000300	20.797687
2533.665897	-3.007700	3.111700	-9.357500	27.632202	0.000301	20.802081
2534.665126	-3.022000	3.110300	-9.397500	27.595471	0.000299	20.827710
2535.666319	-3.004000	3.110400	-9.342800	27.609659	0.000300	20.822071
2536.665319	-3.006200	3.108500	-9.343500	27.601377	0.000299	20.826539
2537.667934	-2.987200	3.108000	-9.282900	27.631609	0.000303	20.849372
2538.665936	-2.996000	3.107500	-9.309300	27.605568	0.000298	20.821748
2539.667937	-2.998800	3.106100	-9.313000	27.589470	0.000301	20.827836
2540.665348	-2.972200	3.105300	-9.228500	27.581585	0.000302	20.797616
2541.666347	-2.976100	3.104100	-9.236900	27.576475	0.000298	20.809545
2542.671441	-2.985200	3.104900	-9.268200	27.601675	0.000300	20.821624
2543.667048	-3.008600	3.102900	-9.334600	27.593067	0.000299	20.834300
2544.667040	-2.997600	3.101400	-9.295200	27.648797	0.000298	20.844382
2545.666817	-3.019300	3.101800	-9.363500	27.686469	0.000300	20.836771
2546.667820	-3.031700	3.098700	-9.392800	27.675557	0.000298	20.836223
2547.666814	-2.964800	3.100600	-9.191200	27.690561	0.000299	20.829510
2548.667271	-3.015100	3.098600	-9.341400	27.741696	0.000300	20.830707
2549.666272	-3.022800	3.095800	-9.356900	27.754691	0.000300	20.831456
2550.667017	-3.026800	3.095600	-9.369300	27.734828	0.000300	20.825218
2551.668017	-2.987200	3.095300	-9.245100	27.764339	0.000301	20.833578
2552.667055	-3.019200	3.093900	-9.340500	27.705987	0.000299	20.829860
2553.670555	-3.016000	3.093300	-9.328900	27.680592	0.000298	20.838444
2554.666558	-3.018300	3.092900	-9.334000	27.639151	0.000297	20.842736
2555.668556	-3.007800	3.090800	-9.295600	27.638877	0.000297	20.831082
2556.667557	-2.979800	3.091900	-9.211800	27.634115	0.000297	20.833877
2557.668559	-2.989300	3.091000	-9.239200	27.630321	0.000299	20.837645
2558.672153	-3.004500	3.089600	-9.281700	27.562615	0.000294	20.817884
2559.669992	-2.999900	3.088500	-9.263800	27.557530	0.000295	20.841690
2560.667990	-2.977100	3.087300	-9.190300	27.579479	0.000297	20.846231
2561.667989	-2.997500	3.085800	-9.248900	27.618194	0.000296	20.824495
2562.668993	-2.967600	3.086600	-9.159500	27.645352	0.000296	20.837123
2563.667987	-2.991600	3.085400	-9.229400	27.621444	0.000295	20.854316
2564.670170	-2.988100	3.083400	-9.212600	27.644584	0.000296	20.837773
2565.667172	-3.015200	3.082500	-9.292600	27.608823	0.000295	20.847307
2566.671525	-2.995900	3.081500	-9.231000	27.593593	0.000295	20.830087
2567.668142	-2.980200	3.082100	-9.184000	27.551977	0.000294	20.842741
2568.668137	-2.976500	3.080800	-9.168800	27.526776	0.000294	20.833033
2569.670507	-2.994200	3.077900	-9.214900	27.556839	0.000295	20.846685
2570.670507	-2.985700	3.078200	-9.189800	27.614529	0.000295	20.865375
2571.668506	-2.962000	3.077000	-9.111500	27.642655	0.000294	20.863806
2572.668398	-2.982500	3.074400	-9.167300	27.688585	0.000295	20.840323
2573.670403	-3.007600	3.074600	-9.245600	27.707386	0.000295	20.855923
2574.670111	-2.981400	3.074500	-9.165400	27.760529	0.000296	20.845865
2575.672451	-2.972100	3.073600	-9.133200	27.792147	0.000296	20.855399
2576.669448	-2.959900	3.072900	-9.093500	27.819869	0.000295	20.838728
2577.669586	-2.993300	3.070000	-9.188300	27.844295	0.000296	20.844345
2578.670638	-2.986400	3.069700	-9.166100	27.853443	0.000295	20.854025
2579.669636	-3.012300	3.069000	-9.244600	27.837550	0.000296	20.842297
2580.671528	-3.016800	3.066400	-9.249200	27.837648	0.000295	20.857569
2581.669525	-3.010700	3.067200	-9.233100	27.868247	0.000296	20.870346
2582.673203	-3.019100	3.064500	-9.251500	27.832166	0.000297	20.842095
2583.672833	-3.000100	3.065400	-9.195700	27.821776	0.000296	20.866725
2584.671829	-2.985200	3.064500	-9.145500	27.814979	0.000297	20.851350
2585.671258	-3.001600	3.062500	-9.191000	27.820111	0.000296	20.852721
2586.675266	-2.992200	3.060600	-9.156800	27.820335	0.000296	20.841568
2587.671336	-3.003500	3.059500	-9.188200	27.842302	0.000294	20.873157
2588.671340	-3.019600	3.059300	-9.237100	27.842820	0.000295	20.857085
2589.671335	-3.005400	3.057400	-9.187500	27.867765	0.000297	20.880766
2590.672771	-2.990300	3.056000	-9.137800	27.887079	0.000296	20.864644
2591.675774	-2.982000	3.056800	-9.114400	27.914304	0.000294	20.880191
2592.672830	-2.993600	3.055100	-9.144700	27.923451	0.000295	20.883232
2593.677210	-3.012200	3.053100	-9.195700	27.929623	0.000295	20.861471
2594.673954	-2.981800	3.051800	-9.098500	27.932350	0.000292	20.894086
2595.674957	-3.018700	3.051100	-9.209400	27.942340	0.000292	20.877589
2596.675241	-2.987800	3.050200	-9.112400	27.949355	0.000294	20.864262
2597.676242	-2.984000	3.049900	-9.099700	27.977297	0.000293	20.876265
2598.676455	-3.029300	3.047700	-9.230500	27.919404	0.000293	20.863987
2599.676455	-3.016700	3.047400	-9.191700	27.852852	0.000292	20.871921
2600.677455	-3.004600	3.045100	-9.147900	27.806953	0.000293	20.867928
2601.677668	-3.003500	3.044000	-9.141600	27.795769	0.000293	20.868052
2602.679985	-2.980800	3.044300	-9.073200	27.821781	0.000293	20.870996
2603.677988	-2.999700	3.042700	-9.126200	27.812208	0.000291	20.857570
2604.678830	-2.982600	3.041200	-9.069900	27.787881	0.000294	20.885717
2605.677826	-2.983100	3.040700	-9.069000	27.791080	0.000293	20.863808
2606.678960	-2.991200	3.038800	-9.088600	27.781283	0.000293	20.871018
2607.682204	-3.006000	3.038000	-9.131400	27.807916	0.000292	20.849458
2608.679203	-2.955900	3.038600	-8.979400	27.802187	0.000294	20.865502
2609.679202	-3.013900	3.033300	-9.140800	27.827927	0.000292	20.858216
2610.678202	-3.015000	3.033800	-9.146400	27.830108	0.000291	20.872264
2611.679575	-3.006300	3.033100	-9.117500	27.791845	0.000293	20.869318
2612.682692	-2.996000	3.032100	-9.082700	27.786662	0.000292	20.869318
2613.681688	-2.998100	3.030400	-9.084400	27.797299	0.000290	20.848256
2614.679400	-3.025400	3.027900	-9.159800	27.809450	0.000290	20.846734
2615.679397	-2.987800	3.028300	-9.046900	27.820955	0.000290	20.864002
2616.680398	-2.994600	3.027200	-9.064600	27.792639	0.000291	20.848308
2617.681396	-3.007600	3.026500	-9.101300	27.846670	0.000294	20.845786
2618.685399	-2.947200	3.026400	-8.918400	27.825372	0.000291	20.853749
2619.683805	-3.000900	3.024000	-9.073400	27.837000	0.000291	20.860236
2620.686692	-2.996800	3.023700	-9.060600	27.792662	0.000291	20.845486
2621.683690	-3.019900	3.020400	-9.119500	27.799828	0.000291	20.836103
2622.684580	-3.017300	3.019700	-9.110100	27.778825	0.000292	20.863329
2623.687787	-3.006400	3.018500	-9.074100	27.763898	0.000293	20.835506
2624.683785	-2.995100	3.018000	-9.037400	27.783512	0.000292	20.850977
2625.685791	-2.978300	3.018000	-8.987200	27.787903	0.000291	20.856343
2626.684787	-2.979100	3.016200	-8.984500	27.755615	0.000294	20.840446
2627.685266	-2.992400	3.015200	-9.021700	27.729328	0.000293	20.847658
2628.684210	-2.984100	3.014900	-8.995800	27.707852	0.000292	20.834107
2629.686211	-3.014000	3.011900	-9.077900	27.737065	0.000290	20.834107
2630.684215	-2.990200	3.011800	-9.004800	27.749216	0.000291	20.837326
2631.684806	-3.005300	3.009500	-9.043500	27.758590	0.000292	20.838225
2632.686822	-2.989000	3.008300	-8.991200	27.730294	0.000293	20.835828
2633.685789	-3.000500	3.007600	-9.023000	27.725430	0.000293	20.829985
2634.688998	-3.020900	3.004200	-9.074700	27.712387	0.000293	20.846257
2635.685205	-2.975700	3.005400	-8.941800	27.718709	0.000293	20.847877
2636.686998	-2.981700	3.003100	-8.953100	27.745319	0.000292	20.845257
2637.686002	-2.958900	3.002900	-8.884100	27.780008	0.000292	20.819476
2638.685666	-2.965600	3.002600	-8.903600	27.835330	0.000291	20.837693
2639.688439	-2.995700	2.999400	-8.984300	27.874431	0.000291	20.830105
2640.687444	-3.014700	2.998500	-9.039200	27.898258	0.000291	20.841283
2641.686499	-2.986400	2.997600	-8.949500	27.926053	0.000290	20.816628
2642.686887	-2.995000	2.996400	-8.972400	27.951142	0.000292	20.853260
2643.687886	-3.009600	2.995100	-9.013300	27.972960	0.000292	20.836814
2644.686165	-2.993300	2.994300	-8.961700	27.971596	0.000291	20.825484
2645.687167	-3.001700	2.992400	-8.981600	28.020833	0.000291	20.824785
2646.687166	-2.994400	2.989900	-8.951700	28.035981	0.000291	20.825808
2647.688015	-3.001000	2.989700	-8.971100	28.038980	0.000290	20.834516
2648.689084	-2.996200	2.989000	-8.955000	28.081323	0.000292	20.832570
2649.689062	-2.971900	2.987800	-8.878800	28.077009	0.000290	20.839132
2650.690163	-3.009100	2.985900	-8.983900	28.083950	0.000291	20.814826
2651.690165	-2.973500	2.984500	-8.873500	28.104550	0.000291	20.834140
2652.689162	-3.010100	2.981700	-8.975000	28.070291	0.000290	20.847068
2653.689164	-3.021200	2.980500	-9.003300	27.998814	0.000290	20.837234
2654.689167	-2.989300	2.980900	-8.910100	27.989097	0.000290	20.839780
2655.690248	-3.004900	2.978500	-8.949300	27.993634	0.000289	20.810209
2656.693249	-3.007600	2.976600	-8.951600	27.959569	0.000290	20.823336
2657.691251	-3.004500	2.976100	-8.940200	27.902841	0.000291	20.833094
2658.692600	-3.016200	2.974100	-8.969800	27.854366	0.000290	20.823187
2659.692603	-2.992100	2.974100	-8.897200	27.878442	0.000291	20.813754
2660.692975	-3.012100	2.971100	-8.948000	27.857145	0.000291	20.818871
2661.692637	-3.014100	2.971000	-8.954100	27.871674	0.000292	20.834442
2662.692638	-3.040800	2.968500	-9.024900	27.920173	0.000292	20.809761
2663.694167	-3.007800	2.966700	-8.921800	27.964827	0.000290	20.834792
2664.695045	-3.016200	2.964700	-8.941500	28.011661	0.000289	20.830725
2665.695043	-3.011200	2.964700	-8.926200	28.013619	0.000290	20.813730
2666.695062	-2.988400	2.964200	-8.857700	28.043593	0.000289	20.801702
2667.697063	-3.009000	2.961300	-8.908900	28.025396	0.000289	20.827955
2668.694244	-2.995400	2.959300	-8.861900	27.983249	0.000291	20.820145
2669.695706	-2.969600	2.961200	-8.792100	27.950943	0.000290	20.808490
2670.695708	-2.989900	2.957400	-8.841000	27.954959	0.000288	20.794514
2671.694169	-3.012900	2.954900	-8.901500	27.949503	0.000291	20.811782
2672.699015	-3.009100	2.954600	-8.890300	27.962396	0.000289	20.813853
2673.700017	-2.986200	2.954900	-8.822600	27.961452	0.000290	20.820964
2674.697582	-3.026800	2.949800	-8.927100	27.992791	0.000288	20.804145
2675.696239	-3.006400	2.949400	-8.866000	27.957533	0.000290	20.808485
2676.696236	-2.984800	2.948800	-8.801000	27.963283	0.000290	20.819962
2677.697858	-3.001600	2.946400	-8.842500	27.982251	0.000287	20.824830
2678.701859	-3.018500	2.944300	-8.885800	27.998167	0.000291	20.820461
2679.697565	-2.981600	2.944200	-8.776400	27.977315	0.000290	20.810378
2680.700593	-3.018600	2.942900	-8.881100	27.965561	0.000291	20.816091
2681.698981	-3.015700	2.941000	-8.868600	27.956784	0.000289	20.808205
2682.698470	-3.000400	2.939500	-8.818600	27.929782	0.000289	20.806632
2683.698399	-3.021800	2.936100	-8.871200	27.965807	0.000290	20.797372
2684.701403	-2.993200	2.937500	-8.792000	27.970071	0.000288	20.796449
2685.699439	-2.988100	2.935100	-8.769900	27.942971	0.000289	20.809949
2686.699127	-2.975700	2.934500	-8.731200	27.926208	0.000286	20.831957
2687.700127	-3.002300	2.931600	-8.800300	27.916912	0.000290	20.804108
2688.701286	-2.996100	2.931800	-8.782300	27.911553	0.000289	20.817207
2689.702551	-3.000900	2.928500	-8.786300	27.880312	0.000289	20.810420
2690.701547	-3.021800	2.927500	-8.844900	27.908353	0.000290	20.815883
2691.703731	-3.018600	2.926000	-8.831900	27.964139	0.000291	20.808021
2692.700735	-3.013700	2.923400	-8.809800	27.979857	0.000291	20.795867
2693.700735	-2.983700	2.924700	-8.725400	28.002667	0.000291	20.814086
2694.701925	-3.001700	2.921300	-8.768000	27.999220	0.000290	20.805874
2695.701926	-2.978800	2.920400	-8.698400	28.013772	0.000292	20.810090
2696.701782	-3.009600	2.917600	-8.778500	28.035265	0.000290	20.812760
2697.701387	-3.011500	2.915000	-8.777700	28.082589	0.000291	20.800654
2698.702389	-3.019400	2.914000	-8.797800	28.056658	0.000292	20.813905
2699.703766	-2.980000	2.914300	-8.683300	28.065357	0.000289	20.805119
2700.703885	-2.995200	2.912200	-8.721900	28.086330	0.000292	20.809635
2701.702881	-3.006400	2.908800	-8.744100	28.095302	0.000291	20.821986
2702.702995	-3.024400	2.907200	-8.792200	28.109406	0.000293	20.815796
2703.704002	-3.002900	2.906600	-8.727200	28.092993	0.000292	20.798799
2704.702996	-2.976400	2.906600	-8.647600	28.066666	0.000291	20.813548
2705.707735	-2.981200	2.904000	-8.656300	28.054490	0.000290	20.798921
2706.704737	-3.013600	2.900800	-8.740100	28.047026	0.000290	20.802787
2707.704806	-2.993600	2.899000	-8.677700	28.078559	0.000291	20.807502
2708.705350	-3.004100	2.898000	-8.704800	28.038941	0.000290	20.804132
2709.705352	-3.014300	2.895300	-8.726300	28.018238	0.000291	20.815061
2710.705914	-3.012500	2.894800	-8.720000	27.995948	0.000290	20.810167
2711.708701	-3.012600	2.892800	-8.714100	28.004252	0.000289	20.797189
2712.706703	-2.984300	2.891400	-8.627400	27.996640	0.000288	20.821769
2713.707059	-2.993700	2.889400	-8.649100	28.022992	0.000290	20.798509
2714.706516	-2.995800	2.887200	-8.648300	28.024924	0.000289	20.805196
2715.707520	-2.988300	2.885300	-8.621100	28.015652	0.000290	20.812457
2716.709771	-3.017700	2.883600	-8.701100	28.006104	0.000291	20.806166
2717.707157	-3.002100	2.881400	-8.649200	27.977964	0.000287	20.793014
2718.710155	-2.978700	2.881200	-8.582100	27.986664	0.000289	20.815047
2719.708195	-3.011800	2.877900	-8.667100	28.043563	0.000286	20.786973
2720.708270	-3.002400	2.875300	-8.631500	28.097161	0.000289	20.793986
2721.709270	-2.981000	2.875700	-8.570800	28.127057	0.000287	20.806063
2722.709182	-3.011900	2.871700	-8.648800	28.135905	0.000289	20.792686
2723.707462	-3.008100	2.870400	-8.633600	28.122617	0.000288	20.799223
2724.708462	-2.997000	2.868100	-8.595200	28.120511	0.000288	20.819862
2725.707461	-3.036900	2.865200	-8.700300	28.156700	0.000288	20.821207
2726.708463	-2.983600	2.864300	-8.545300	28.192596	0.000289	20.799024
2727.708458	-2.987800	2.862900	-8.552900	28.219094	0.000286	20.774967
2728.707154	-2.997100	2.859900	-8.570000	28.244475	0.000287	20.799097
2729.708395	-3.024300	2.857800	-8.641300	28.270874	0.000286	20.789641
2730.709644	-2.978000	2.857800	-8.508800	28.289164	0.000286	20.783400
2731.709650	-2.976300	2.855200	-8.496800	28.311868	0.000286	20.785871
2732.711647	-2.990900	2.852300	-8.529600	28.283688	0.000285	20.794956
2733.708271	-2.993700	2.850400	-8.532100	28.303244	0.000284	20.804689
2734.710271	-3.018600	2.848100	-8.595800	28.321436	0.000286	20.790763
2735.710272	-2.989500	2.845900	-8.506000	28.325922	0.000286	20.794332
2736.711041	-3.004400	2.844000	-8.544000	28.373087	0.000286	20.768328
2737.713373	-2.995000	2.843100	-8.514400	28.343074	0.000286	20.807809
2738.713405	-2.990600	2.840500	-8.493400	28.309590	0.000286	20.781207
2739.712402	-2.983400	2.837300	-8.463700	28.300222	0.000288	20.766559
2740.712404	-2.969400	2.835200	-8.417000	28.330310	0.000288	20.786897
2741.713487	-3.009100	2.832600	-8.522200	28.344587	0.000287	20.801746
2742.711209	-3.009200	2.830400	-8.516600	28.389671	0.000290	20.794511
2743.714205	-3.012600	2.827800	-8.518600	28.378766	0.000287	20.771677
2744.711735	-2.993900	2.826200	-8.460200	28.370588	0.000287	20.807064
2745.713738	-2.988600	2.824700	-8.441100	28.385013	0.000287	20.773699
2746.711738	-3.015200	2.822300	-8.509300	28.352969	0.000286	20.792168
2747.711352	-2.988800	2.820400	-8.428000	28.323079	0.000287	20.785306
2748.714355	-3.024400	2.816600	-8.517500	28.291727	0.000287	20.795464
2749.714456	-3.014400	2.816200	-8.487300	28.309202	0.000285	20.794092
2750.711426	-3.021400	2.813300	-8.499900	28.293489	0.000287	20.785858
2751.711425	-2.986300	2.811400	-8.395000	28.332179	0.000287	20.775502
2752.712011	-3.039300	2.806500	-8.528800	28.365467	0.000287	20.781519
2753.712012	-2.983100	2.806900	-8.372200	28.386336	0.000288	20.772660
2754.713047	-2.961000	2.804200	-8.301300	28.408171	0.000286	20.779474
2755.712795	-2.963600	2.803200	-8.306300	28.423958	0.000286	20.752223
2756.713798	-2.992900	2.798100	-8.373000	28.414665	0.000286	20.781747
2757.712794	-2.975200	2.795700	-8.316900	28.409139	0.000286	20.779975
2758.712551	-2.984900	2.792800	-8.335700	28.440367	0.000285	20.764005
2759.716909	-2.980400	2.791600	-8.318900	28.456301	0.000285	20.758713
2760.712525	-3.001700	2.788300	-8.368300	28.487180	0.000286	20.773215
2761.715217	-2.979800	2.787300	-8.305200	28.433604	0.000286	20.755772
2762.713214	-2.999300	2.783200	-8.345300	28.398091	0.000287	20.760315
2763.715717	-3.006100	2.781200	-8.359100	28.345846	0.000285	20.760340
2764.714718	-2.998900	2.775700	-8.321600	28.302995	0.000285	20.780730
2765.717466	-2.966700	2.776500	-8.236100	28.315759	0.000285	20.757072
2766.714591	-2.990400	2.771600	-8.287600	28.329466	0.000286	20.759968
2767.715122	-2.987300	2.769100	-8.271100	28.374997	0.000287	20.764088
2768.715629	-2.981900	2.767400	-8.251400	28.368009	0.000284	20.762741
2769.714646	-2.976300	2.763400	-8.223900	28.359930	0.000285	20.746545
2770.716642	-3.003800	2.759300	-8.287400	28.410440	0.000286	20.776069
2771.714631	-2.987200	2.756500	-8.232800	28.414654	0.000288	20.772253
2772.718635	-2.999700	2.753800	-8.259800	28.425063	0.000285	20.759500
2773.714630	-2.995300	2.751100	-8.240000	28.391731	0.000285	20.768136
2774.714658	-3.016100	2.746900	-8.283500	28.421174	0.000285	20.748471
2775.716656	-3.008000	2.743100	-8.249800	28.430071	0.000285	20.767862
2776.714935	-2.984700	2.742500	-8.184300	28.422738	0.000284	20.752891
2777.716218	-3.002900	2.737300	-8.219200	28.428043	0.000284	20.753965
2778.715219	-2.986400	2.736200	-8.170600	28.403656	0.000284	20.758332
2779.714231	-2.988900	2.732100	-8.165500	28.412430	0.000286	20.751046
2780.715233	-2.973800	2.729200	-8.115200	28.423708	0.000286	20.736797
2781.714683	-2.980600	2.726000	-8.123100	28.460510	0.000284	20.771488
2782.714847	-3.026300	2.720500	-8.231400	28.457687	0.000286	20.732607
2783.716850	-2.989700	2.717300	-8.123200	28.454714	0.000285	20.729139
2784.718689	-3.015100	2.713800	-8.181800	28.417614	0.000285	20.731135
2785.716195	-2.990100	2.710400	-8.103400	28.437491	0.000284	20.750677
2786.720022	-2.994800	2.706000	-8.103600	28.486262	0.000285	20.752849
2787.716990	-2.995200	2.703500	-8.096700	28.467156	0.000284	20.751627
2788.717994	-2.986800	2.699300	-8.061300	28.501554	0.000285	20.747386
2789.716991	-2.992000	2.696300	-8.066300	28.527476	0.000286	20.748835
2790.716998	-2.996400	2.691400	-8.063200	28.561872	0.000286	20.743172
2791.718002	-3.008100	2.689500	-8.089400	28.553224	0.000286	20.740627
2792.719998	-2.979400	2.685600	-8.000400	28.546658	0.000284	20.747764
2793.716478	-2.981300	2.682200	-7.995500	28.557562	0.000286	20.737883
2794.717478	-3.018200	2.674600	-8.071400	28.569059	0.000286	20.749462
2795.717478	-2.998500	2.674200	-8.017100	28.599119	0.000285	20.749391
2796.717444	-2.993300	2.669300	-7.988800	28.578454	0.000284	20.740431
2797.721446	-2.995300	2.664900	-7.981300	28.566040	0.000286	20.729351
2798.718623	-2.992800	2.660900	-7.962700	28.553305	0.000286	20.738337
2799.722219	-2.983100	2.659000	-7.930500	28.554991	0.000286	20.736715
2800.719217	-2.986400	2.652400	-7.920300	28.549217	0.000286	20.742755
2801.719710	-3.032500	2.647100	-8.026400	28.553730	0.000284	20.746826
2802.721238	-2.995400	2.644500	-7.920400	28.568178	0.000284	20.733875
2803.719234	-3.008000	2.638500	-7.935400	28.611539	0.000286	20.732027
2804.720056	-2.965100	2.636800	-7.818200	28.650987	0.000284	20.727661
2805.721056	-2.985900	2.631300	-7.855400	28.659512	0.000286	20.733877
2806.720280	-3.040500	2.625300	-7.980100	28.684612	0.000286	20.739718
2807.721613	-3.007700	2.621400	-7.883100	28.706837	0.000287	20.732706
2808.722609	-2.999300	2.616600	-7.847200	28.700224	0.000284	20.742641
2809.721295	-2.979700	2.613400	-7.786200	28.688579	0.000285	20.731859
2810.721295	-2.997000	2.608500	-7.816300	28.621658	0.000285	20.735580
2811.721294	-2.968800	2.604100	-7.730400	28.574257	0.000285	20.698270
2812.722717	-3.008900	2.598300	-7.816900	28.564917	0.000287	20.721581
2813.725720	-3.018200	2.591500	-7.820800	28.522149	0.000287	20.733986
2814.721714	-2.996000	2.586800	-7.749100	28.569974	0.000287	20.725252
2815.724543	-3.000900	2.580200	-7.742000	28.572182	0.000285	20.745494
2816.722546	-3.000100	2.575200	-7.724600	28.631007	0.000286	20.716072
2817.722052	-2.986000	2.570800	-7.675700	28.693695	0.000285	20.716148
2818.723055	-3.020100	2.563900	-7.742400	28.700336	0.000285	20.722838
2819.725053	-2.958900	2.560100	-7.574600	28.740375	0.000285	20.743255
2820.721396	-3.013300	2.553000	-7.692400	28.781701	0.000286	20.727035
2821.723397	-3.017100	2.545500	-7.677900	28.800507	0.000287	20.730805
2822.723395	-2.994800	2.542500	-7.613100	28.819433	0.000285	20.704824
2823.724495	-2.997400	2.536700	-7.602500	28.869650	0.000287	20.720325
2824.728497	-2.996800	2.528900	-7.577200	28.861872	0.000285	20.729086
2825.725577	-3.001800	2.523100	-7.572500	28.889916	0.000285	20.728414
2826.726273	-2.988700	2.518900	-7.527600	28.876812	0.000285	20.714264
2827.724769	-3.038300	2.510000	-7.625300	28.901512	0.000287	20.718758
2828.724174	-2.993300	2.506500	-7.502400	28.930273	0.000286	20.720232
2829.726177	-2.987000	2.499900	-7.465500	28.956135	0.000285	20.741073
