LabVIEW Measurement	
Writer_Version	2
Reader_Version	2
Separator	Tab
Decimal_Separator	.
Multi_Headings	No
X_Columns	One
Time_Pref	Absolute
Operator	admin
Description	Clolumns are: time, Current, Voltage, Power, Battery Temp, and Chamber Temp
Date	2024/08/16
Time	13:06:06.104549407958984375
***End_of_Header***	
	
Channels	6						
Samples	1	1	1	1	1	1	
Date	2024/09/15	2024/09/15	2024/09/15	2024/09/15	2024/09/15	2024/09/15	
Time	07:27:54.3166480064392089844	07:27:54.3246521949768066406	07:27:54.3306398391723632812	07:27:54.2978425025939941406	07:27:54.2978425025939941406	07:27:54.2978425025939941406	
X_Dimension	Time	Time	Time	Time	Time	Time	
X0	0.0000000000000000E+0	0.0000000000000000E+0	0.0000000000000000E+0	0.0000000000000000E+0	0.0000000000000000E+0	0.0000000000000000E+0	
Delta_X	1.000000	1.000000	1.000000	1.000000	1.000000	1.000000	
***End_of_Header***							
X_Value	Untitled	Untitled 1	Untitled 2	Untitled 3	Untitled 4	Untitled 5	Comment
0.000000	0.028421	4.090700	0.116270	20.983202	0.000935	20.749932
0.999215	-3.003800	3.909500	-11.743000	20.976441	0.000933	20.773991
1.995197	-2.998600	3.903300	-11.703000	20.991009	0.000933	20.764380
3.000556	-2.994700	3.898500	-11.674000	20.997819	0.000933	20.792528
4.006130	-2.986800	3.893200	-11.627000	20.973617	0.000930	20.762631
4.998430	-2.989000	3.891400	-11.630000	21.004234	0.000928	20.782349
5.998502	-2.973600	3.888600	-11.562000	20.983345	0.000928	20.769043
7.002745	-3.006800	3.884800	-11.680000	20.996772	0.000926	20.772989
7.999767	-3.000100	3.883400	-11.650000	21.010664	0.000926	20.772658
9.000339	-3.006900	3.881600	-11.671000	21.003178	0.000926	20.783663
10.000726	-3.012100	3.877900	-11.679000	21.013583	0.000925	20.779371
11.002185	-2.983500	3.879100	-11.573000	21.000931	0.000924	20.781890
12.000704	-2.991800	3.876000	-11.595000	21.015321	0.000923	20.783481
13.003010	-3.009200	3.874800	-11.659000	21.007563	0.000922	20.779515
14.000174	-2.990500	3.873700	-11.583000	21.021583	0.000924	20.774097
15.000974	-2.995700	3.872400	-11.600000	21.033134	0.000922	20.767157
16.001084	-3.014200	3.871400	-11.668000	21.033232	0.000922	20.807085
17.003002	-3.013300	3.869700	-11.659000	21.047800	0.000922	20.783249
18.001894	-3.016500	3.869100	-11.669000	21.055409	0.000922	20.765256
19.003953	-3.004900	3.868700	-11.624000	21.026986	0.000922	20.797993
20.001452	-3.005900	3.867400	-11.624000	21.051188	0.000920	20.764827
21.003057	-3.015100	3.864800	-11.652000	21.080075	0.000920	20.788979
22.001342	-3.020700	3.865200	-11.675000	21.081670	0.000921	20.779195
23.002803	-3.018800	3.862700	-11.659000	21.073311	0.000920	20.805921
24.005797	-3.013100	3.864200	-11.642000	21.102074	0.000922	20.782534
25.003048	-3.013000	3.862600	-11.636000	21.086851	0.000920	20.803817
26.004333	-3.010400	3.861800	-11.625000	21.091888	0.000920	20.783725
27.003635	-2.994900	3.861100	-11.563000	21.103611	0.000919	20.798770
28.005052	-3.011500	3.859900	-11.623000	21.126586	0.000918	20.798044
29.004613	-3.029000	3.859700	-11.690000	21.133069	0.000917	20.806426
30.005718	-2.994900	3.860000	-11.559000	21.110613	0.000917	20.800085
31.005505	-3.002800	3.858000	-11.584000	21.139602	0.000919	20.801581
32.003461	-2.988100	3.858600	-11.528000	21.155092	0.000918	20.792420
33.002726	-3.026900	3.857100	-11.674000	21.163575	0.000916	20.795215
34.001803	-3.007700	3.856200	-11.597000	21.143518	0.000918	20.813085
35.002581	-3.003200	3.857500	-11.583000	21.157383	0.000916	20.800402
36.004402	-2.985600	3.856500	-11.513000	21.156563	0.000916	20.781089
37.008781	-3.002100	3.855700	-11.574000	21.191334	0.000915	20.818242
38.001749	-2.993900	3.854900	-11.540000	21.192282	0.000916	20.817768
39.004479	-2.977500	3.856500	-11.481000	21.181903	0.000916	20.795532
40.005777	-2.996500	3.855000	-11.550000	21.200167	0.000915	20.816646
41.006242	-3.010200	3.852400	-11.595000	21.225308	0.000915	20.804339
42.004872	-2.994100	3.854000	-11.538000	21.214584	0.000916	20.785550
43.010861	-3.020200	3.853500	-11.636000	21.216031	0.000917	20.805015
44.006812	-2.994900	3.852200	-11.535000	21.214258	0.000915	20.811302
45.007083	-2.999200	3.853100	-11.555000	21.262954	0.000915	20.813550
46.010727	-2.976900	3.853300	-11.468000	21.251978	0.000917	20.804941
47.012252	-2.979100	3.852800	-11.476000	21.264129	0.000916	20.805242
48.010530	-2.987800	3.852100	-11.509000	21.265980	0.000913	20.814680
49.016808	-3.004700	3.849200	-11.564000	21.267826	0.000916	20.824588
50.011207	-3.000200	3.850800	-11.550000	21.299309	0.000912	20.806298
51.012244	-3.000800	3.850600	-11.553000	21.275962	0.000914	20.819451
52.013968	-3.000700	3.849200	-11.548000	21.313725	0.000912	20.815505
53.012917	-2.997500	3.849900	-11.537000	21.323213	0.000913	20.826419
54.010501	-3.013200	3.847500	-11.592000	21.325381	0.000913	20.825743
55.013651	-3.008600	3.848900	-11.579000	21.303085	0.000915	20.814817
56.029558	-3.000200	3.847900	-11.542000	21.332840	0.000915	20.822300
57.016861	-3.011300	3.846900	-11.584000	21.324965	0.000916	20.796404
58.014925	-2.998400	3.847700	-11.536000	21.343972	0.000912	20.802617
59.017220	-3.007100	3.847300	-11.566000	21.347590	0.000914	20.825203
60.019247	-3.021800	3.845100	-11.617000	21.360811	0.000913	20.812352
61.015256	-3.008300	3.845500	-11.567000	21.369020	0.000914	20.812979
62.012568	-3.010300	3.845500	-11.574000	21.378198	0.000914	20.812204
63.018392	-2.999100	3.846900	-11.536000	21.395638	0.000913	20.816377
64.011865	-2.982500	3.846300	-11.471000	21.383712	0.000914	20.813927
65.019528	-3.010000	3.844200	-11.569000	21.407012	0.000914	20.828705
66.015315	-2.993000	3.845400	-11.509000	21.396759	0.000913	20.814653
67.012365	-3.013900	3.844900	-11.587000	21.422458	0.000915	20.825667
68.018040	-2.989400	3.846800	-11.498000	21.415147	0.000914	20.834947
69.018361	-3.019800	3.843900	-11.607000	21.415971	0.000912	20.809220
70.021070	-2.997700	3.842600	-11.517000	21.444380	0.000914	20.815833
71.018500	-3.003000	3.844400	-11.543000	21.453186	0.000913	20.803782
72.018365	-3.010500	3.842200	-11.567000	21.460645	0.000914	20.820253
73.014834	-3.011900	3.841800	-11.569000	21.454480	0.000913	20.824042
74.018862	-3.006800	3.841100	-11.549000	21.470123	0.000914	20.824521
75.020928	-3.004900	3.841100	-11.540000	21.494640	0.000915	20.833880
76.016289	-2.997200	3.841200	-11.512000	21.486481	0.000915	20.824294
77.021513	-2.998900	3.842100	-11.521000	21.511349	0.000915	20.828788
78.019783	-3.014400	3.840500	-11.575000	21.514345	0.000916	20.847906
79.018230	-3.006100	3.840400	-11.544000	21.511028	0.000915	20.809501
80.019786	-2.993300	3.840500	-11.494000	21.521325	0.000915	20.847304
81.019844	-2.983800	3.839900	-11.457000	21.518985	0.000913	20.825997
82.017527	-3.004200	3.839800	-11.535000	21.523101	0.000917	20.819685
83.020163	-3.010000	3.838600	-11.553000	21.545072	0.000915	20.845461
84.016051	-3.007500	3.838400	-11.542000	21.573053	0.000918	20.840745
85.015543	-3.016400	3.839200	-11.579000	21.566044	0.000916	20.836576
86.020263	-3.012600	3.837300	-11.560000	21.567115	0.000916	20.833381
87.022889	-3.011400	3.837200	-11.555000	21.581607	0.000917	20.823700
88.022869	-2.984100	3.837700	-11.451000	21.592850	0.000917	20.844908
89.024620	-2.994200	3.838400	-11.492000	21.586336	0.000917	20.834596
90.020146	-3.003500	3.836800	-11.522000	21.590432	0.000917	20.864298
91.020899	-2.994900	3.836600	-11.488000	21.607164	0.000918	20.834576
92.023330	-3.030900	3.835900	-11.624000	21.600402	0.000917	20.829233
93.019015	-2.975600	3.838500	-11.421000	21.610151	0.000917	20.845625
94.017695	-2.949300	3.837700	-11.316000	21.624138	0.000917	20.843028
95.019492	-3.017100	3.836400	-11.574000	21.637331	0.000917	20.833471
96.021496	-3.006100	3.836200	-11.531000	21.636181	0.000918	20.837061
97.021623	-3.004600	3.835700	-11.524000	21.644685	0.000917	20.844149
98.023134	-2.996100	3.836400	-11.494000	21.651491	0.000919	20.847167
99.016835	-3.020300	3.834500	-11.580000	21.686345	0.000918	20.874933
100.019498	-2.984500	3.835400	-11.446000	21.685946	0.000919	20.866473
101.023362	-2.998600	3.833800	-11.495000	21.681529	0.000920	20.857786
102.024991	-3.012900	3.833400	-11.549000	21.687960	0.000917	20.851420
103.018186	-2.989200	3.834400	-11.461000	21.699928	0.000921	20.845380
104.022692	-2.986700	3.833900	-11.450000	21.718879	0.000920	20.852018
105.023599	-2.987400	3.833600	-11.451000	21.726084	0.000922	20.871082
106.019781	-3.011000	3.832100	-11.538000	21.727398	0.000921	20.855328
107.030684	-3.010500	3.831900	-11.535000	21.732605	0.000921	20.839203
108.029093	-2.989800	3.833900	-11.461000	21.734352	0.000921	20.861339
109.019504	-2.998200	3.831000	-11.484000	21.744923	0.000920	20.862435
110.027880	-2.988700	3.832100	-11.452000	21.765290	0.000922	20.869543
111.027847	-2.979700	3.832600	-11.419000	21.774237	0.000922	20.859532
112.021550	-2.956100	3.833900	-11.333000	21.778225	0.000922	20.856885
113.030573	-2.997700	3.831700	-11.486000	21.805179	0.000923	20.884335
114.026307	-3.001700	3.829800	-11.495000	21.801739	0.000921	20.850548
115.021835	-3.012700	3.830900	-11.541000	21.791791	0.000923	20.840117
116.028900	-3.000300	3.831200	-11.494000	21.799539	0.000924	20.860673
117.032381	-2.984500	3.832200	-11.435000	21.792882	0.000923	20.869657
118.025462	-3.000800	3.829400	-11.491000	21.834896	0.000925	20.855759
119.029378	-3.010900	3.829800	-11.529000	21.826621	0.000922	20.866442
120.026145	-2.987400	3.830200	-11.442000	21.824499	0.000923	20.857680
121.026622	-2.999900	3.830400	-11.489000	21.851699	0.000922	20.830378
122.030424	-3.002300	3.829100	-11.495000	21.863492	0.000925	20.846450
123.031205	-2.989300	3.828900	-11.445000	21.862594	0.000926	20.863568
124.027024	-3.010100	3.828800	-11.524000	21.888101	0.000923	20.845002
125.033165	-2.997000	3.829000	-11.475000	21.893938	0.000925	20.841836
126.028984	-2.990000	3.827700	-11.444000	21.875912	0.000927	20.846079
127.027459	-3.003700	3.828300	-11.498000	21.890848	0.000927	20.834951
128.031750	-2.991500	3.827300	-11.448000	21.902493	0.000927	20.838072
129.033484	-3.010000	3.826800	-11.517000	21.916828	0.000930	20.842937
130.036854	-2.997200	3.827700	-11.471000	21.914118	0.000926	20.835010
131.032367	-2.996000	3.827700	-11.467000	21.930841	0.000927	20.856015
132.033924	-2.992000	3.827900	-11.451000	21.924535	0.000929	20.829315
133.033207	-2.991500	3.826900	-11.446000	21.957470	0.000930	20.833360
134.033928	-3.005200	3.825100	-11.493000	21.920577	0.000931	20.835311
135.045427	-3.015000	3.825100	-11.532000	21.916787	0.000929	20.820612
136.037391	-3.014100	3.826500	-11.532000	21.914872	0.000932	20.848566
137.041765	-2.974300	3.825700	-11.376000	21.948899	0.000927	20.834264
138.040038	-3.003200	3.824800	-11.485000	21.923918	0.000928	20.834861
139.037939	-3.011500	3.825500	-11.520000	21.930307	0.000930	20.831300
140.039589	-3.022900	3.825100	-11.560000	21.937910	0.000932	20.826109
141.038324	-3.023600	3.824100	-11.562000	21.960869	0.000932	20.817797
142.039699	-2.998100	3.826000	-11.468000	21.960223	0.000931	20.827581
143.037100	-3.009500	3.823900	-11.508000	21.974511	0.000932	20.817702
144.036919	-3.016800	3.822900	-11.532000	21.998866	0.000934	20.827857
145.039370	-3.010700	3.823000	-11.509000	21.999991	0.000935	20.827561
146.036566	-3.009600	3.824500	-11.509000	21.997844	0.000935	20.826835
147.042325	-2.993800	3.824600	-11.449000	22.031725	0.000935	20.819500
148.039872	-3.010000	3.822700	-11.506000	22.024546	0.000934	20.815633
149.040940	-3.012000	3.822200	-11.512000	22.056631	0.000936	20.829259
150.042057	-3.025100	3.821800	-11.561000	22.055906	0.000937	20.815732
151.048263	-2.984600	3.824200	-11.413000	22.031799	0.000935	20.811040
152.044142	-3.008900	3.821800	-11.499000	22.040630	0.000938	20.811819
153.048806	-3.000500	3.821000	-11.464000	22.054761	0.000937	20.812215
154.040143	-3.005700	3.820400	-11.481000	22.068245	0.000937	20.816705
155.039618	-3.018600	3.820300	-11.531000	22.066079	0.000936	20.803157
156.042179	-3.010200	3.820300	-11.499000	22.072236	0.000938	20.794622
157.040221	-2.993200	3.821300	-11.437000	22.083603	0.000936	20.799363
158.042562	-3.015100	3.820200	-11.517000	22.072433	0.000938	20.799087
159.042237	-3.010900	3.820900	-11.503000	22.098961	0.000939	20.822799
160.040188	-2.985900	3.821600	-11.410000	22.099859	0.000939	20.825120
161.048273	-3.002700	3.819400	-11.468000	22.090909	0.000939	20.802885
162.041158	-3.018000	3.818700	-11.523000	22.086173	0.000939	20.818058
163.042577	-2.980400	3.821500	-11.388000	22.107239	0.000941	20.814965
164.043478	-3.013100	3.819200	-11.507000	22.099582	0.000942	20.803981
165.047870	-3.011400	3.819400	-11.501000	22.123193	0.000941	20.791584
166.040090	-2.999400	3.818800	-11.452000	22.120549	0.000943	20.804584
167.048097	-3.005600	3.817800	-11.473000	22.151758	0.000941	20.801689
168.040345	-3.008200	3.818900	-11.487000	22.159764	0.000943	20.794058
169.044510	-2.986600	3.818800	-11.404000	22.161382	0.000942	20.772919
170.048023	-2.980800	3.818700	-11.382000	22.155048	0.000943	20.779853
171.041833	-2.997800	3.818800	-11.447000	22.157169	0.000946	20.813271
172.041064	-2.997400	3.817500	-11.441000	22.193157	0.000944	20.804258
173.044985	-2.981200	3.817800	-11.379000	22.192762	0.000945	20.785844
174.043894	-3.007600	3.816100	-11.475000	22.206244	0.000946	20.813568
175.045202	-2.989800	3.817700	-11.413000	22.201839	0.000945	20.800148
176.047282	-2.987200	3.816800	-11.401000	22.202559	0.000946	20.818887
177.041925	-2.981900	3.818000	-11.384000	22.186758	0.000945	20.770350
178.044350	-3.004900	3.816500	-11.466000	22.174070	0.000947	20.784200
179.047072	-3.005800	3.816500	-11.471000	22.185387	0.000947	20.805961
180.043771	-3.003900	3.816100	-11.463000	22.207048	0.000945	20.794458
181.043370	-2.987900	3.817400	-11.405000	22.184839	0.000947	20.794507
182.048050	-2.994200	3.815600	-11.422000	22.190547	0.000948	20.794058
183.043359	-3.019200	3.813100	-11.511000	22.204932	0.000949	20.805615
184.046437	-3.015800	3.814200	-11.501000	22.221033	0.000949	20.803244
185.050062	-3.000000	3.813700	-11.440000	22.229606	0.000952	20.803768
186.044078	-3.000300	3.815600	-11.446000	22.203610	0.000951	20.793386
187.048322	-2.995600	3.814900	-11.427000	22.221408	0.000950	20.812154
188.048130	-3.007800	3.813700	-11.470000	22.214659	0.000951	20.776948
189.046782	-2.993200	3.815800	-11.420000	22.218744	0.000954	20.788150
190.044762	-2.993100	3.813300	-11.413000	22.201374	0.000952	20.775027
191.053234	-3.002300	3.813400	-11.448000	22.251927	0.000954	20.796245
192.052018	-2.995300	3.812600	-11.418000	22.258379	0.000953	20.776627
193.049389	-2.991200	3.814700	-11.410000	22.253866	0.000952	20.810040
194.052070	-3.024400	3.811100	-11.526000	22.258956	0.000955	20.772463
195.049811	-3.009900	3.812100	-11.472000	22.264165	0.000954	20.799964
196.049946	-3.017300	3.812600	-11.502000	22.302971	0.000954	20.799939
197.048803	-3.000500	3.812200	-11.438000	22.288069	0.000956	20.765577
198.049653	-3.010500	3.810400	-11.469000	22.320170	0.000954	20.775910
199.050325	-2.995100	3.809900	-11.410000	22.307089	0.000957	20.792209
200.054714	-2.983600	3.811300	-11.370000	22.307513	0.000957	20.796901
201.048581	-2.997700	3.810900	-11.423000	22.315518	0.000960	20.773622
202.056470	-3.013100	3.808800	-11.475000	22.309663	0.000958	20.788622
203.058821	-3.003100	3.810700	-11.443000	22.325117	0.000958	20.772802
204.051741	-3.016000	3.808700	-11.485000	22.333763	0.000958	20.786676
205.051674	-3.006500	3.810200	-11.453000	22.335583	0.000958	20.772377
206.052832	-2.978100	3.809300	-11.344000	22.333142	0.000961	20.763768
207.051735	-2.994400	3.808600	-11.403000	22.368507	0.000963	20.785431
208.048160	-2.984900	3.808800	-11.366000	22.345931	0.000961	20.776575
209.055949	-3.005900	3.809500	-11.450000	22.361759	0.000961	20.782468
210.052438	-2.976100	3.809700	-11.337000	22.371003	0.000963	20.780818
211.054413	-3.012300	3.807800	-11.469000	22.383787	0.000963	20.765645
212.058010	-3.029200	3.805500	-11.527000	22.403526	0.000963	20.775454
213.057221	-3.007900	3.807300	-11.451000	22.431461	0.000965	20.778773
214.055135	-2.987200	3.808000	-11.374000	22.433380	0.000964	20.776901
215.056991	-2.984100	3.808400	-11.362000	22.436822	0.000963	20.778926
216.053894	-2.991400	3.807200	-11.388000	22.467169	0.000965	20.771858
217.052059	-2.988600	3.807100	-11.376000	22.466601	0.000963	20.778402
218.054244	-2.982900	3.806400	-11.354000	22.491769	0.000967	20.784166
219.054608	-3.001700	3.806900	-11.426000	22.490097	0.000968	20.752146
220.053588	-2.996300	3.806900	-11.405000	22.486033	0.000966	20.795018
221.051676	-2.987600	3.805900	-11.370000	22.511579	0.000966	20.766548
222.055402	-3.012400	3.806500	-11.465000	22.510682	0.000968	20.779874
223.056304	-3.003500	3.806100	-11.430000	22.518010	0.000967	20.768721
224.053741	-2.976700	3.805900	-11.327000	22.508714	0.000969	20.760834
225.056866	-3.007000	3.805100	-11.441000	22.529043	0.000969	20.784987
226.059583	-3.009500	3.803700	-11.446000	22.511254	0.000971	20.761481
227.060997	-2.990500	3.804200	-11.376000	22.541698	0.000971	20.764469
228.058862	-2.996500	3.803800	-11.397000	22.559268	0.000971	20.775429
229.058922	-2.999500	3.805300	-11.413000	22.570157	0.000971	20.769739
230.057643	-2.972400	3.804600	-11.308000	22.575833	0.000972	20.753613
231.055461	-2.977300	3.803400	-11.322000	22.583610	0.000973	20.773256
232.059296	-2.999000	3.803100	-11.404000	22.615151	0.000971	20.769759
233.058107	-2.989500	3.803600	-11.369000	22.617567	0.000973	20.774076
234.060414	-3.009300	3.802200	-11.441000	22.629851	0.000972	20.774526
235.056455	-2.990400	3.802500	-11.369000	22.627406	0.000974	20.768283
236.059103	-2.998100	3.802100	-11.398000	22.631291	0.000974	20.784503
237.058626	-2.985800	3.800400	-11.346000	22.637347	0.000977	20.772076
238.055769	-3.003900	3.802800	-11.422000	22.614969	0.000976	20.770526
239.060595	-3.025300	3.799600	-11.493000	22.619127	0.000977	20.765206
240.056586	-2.999100	3.801100	-11.399000	22.608460	0.000977	20.745988
241.061205	-3.009100	3.800100	-11.433000	22.605299	0.000978	20.757995
242.061037	-2.974400	3.800900	-11.304000	22.609609	0.000979	20.768002
243.063251	-2.983000	3.800700	-11.336000	22.593587	0.000978	20.773292
244.064096	-3.000500	3.799100	-11.397000	22.586955	0.000979	20.761433
245.059974	-3.014600	3.800200	-11.455000	22.591265	0.000980	20.757215
246.061098	-2.976000	3.800700	-11.310000	22.614235	0.000981	20.764101
247.062804	-2.994800	3.800100	-11.379000	22.611173	0.000979	20.742540
248.063701	-3.015000	3.799500	-11.454000	22.649592	0.000982	20.783393
249.071217	-2.989200	3.799600	-11.357000	22.636633	0.000980	20.759507
250.072251	-3.007500	3.799700	-11.427000	22.660825	0.000982	20.762402
251.061322	-2.992200	3.798400	-11.365000	22.657561	0.000980	20.742536
252.068553	-2.997800	3.799200	-11.388000	22.639494	0.000983	20.746251
253.068941	-2.995200	3.798300	-11.376000	22.644898	0.000981	20.740758
254.062358	-2.988900	3.798400	-11.352000	22.646944	0.000984	20.755136
255.066819	-2.996000	3.798500	-11.379000	22.650204	0.000984	20.763617
256.068203	-2.997000	3.797700	-11.380000	22.648557	0.000984	20.777141
257.061533	-3.009900	3.796400	-11.425000	22.668513	0.000984	20.758723
258.072537	-2.997400	3.796600	-11.379000	22.691985	0.000985	20.773224
259.070227	-3.005800	3.796700	-11.411000	22.716777	0.000987	20.766764
260.063822	-3.007900	3.797000	-11.420000	22.731920	0.000987	20.755379
261.068230	-2.982900	3.795700	-11.321000	22.763383	0.000985	20.766507
262.069091	-3.003200	3.794800	-11.396000	22.765527	0.000986	20.773397
263.065346	-3.008600	3.794400	-11.415000	22.779974	0.000987	20.760368
264.068198	-2.988900	3.795800	-11.343000	22.778879	0.000988	20.772548
265.068084	-2.992800	3.795400	-11.357000	22.773150	0.000988	20.758273
266.064166	-2.985800	3.795500	-11.332000	22.761987	0.000989	20.762739
267.071669	-2.991900	3.794400	-11.351000	22.775216	0.000989	20.750385
268.069900	-2.986100	3.795200	-11.332000	22.734114	0.000991	20.745722
269.065118	-3.000300	3.792400	-11.377000	22.764921	0.000991	20.758565
270.078001	-2.999600	3.793200	-11.377000	22.755562	0.000991	20.765312
271.066732	-2.996000	3.794000	-11.366000	22.777233	0.000991	20.760467
272.064729	-3.000800	3.793700	-11.383000	22.774595	0.000990	20.754979
273.068419	-2.990100	3.792200	-11.338000	22.820384	0.000993	20.761020
274.074288	-3.014900	3.791800	-11.430000	22.834060	0.000991	20.747693
275.071743	-3.006900	3.791700	-11.400000	22.841490	0.000994	20.761775
276.070475	-2.995700	3.791700	-11.358000	22.845868	0.000994	20.741978
277.071981	-2.977800	3.793300	-11.294000	22.852598	0.000994	20.721692
278.068715	-3.003000	3.791600	-11.385000	22.848116	0.000996	20.751343
279.075436	-3.008000	3.791600	-11.404000	22.825047	0.000994	20.752415
280.070858	-2.996500	3.791200	-11.359000	22.833966	0.000995	20.745228
281.072588	-3.006900	3.791300	-11.399000	22.859648	0.000996	20.756732
282.073336	-2.989600	3.791700	-11.334000	22.854915	0.000998	20.742507
283.072433	-2.984500	3.790900	-11.312000	22.870657	0.000997	20.726034
284.073292	-3.016200	3.788000	-11.425000	22.863537	0.000998	20.744981
285.075638	-2.999200	3.790400	-11.367000	22.873629	0.000999	20.742763
286.074659	-2.988300	3.789500	-11.323000	22.874970	0.001001	20.725140
287.073716	-2.990100	3.789200	-11.328000	22.916043	0.001001	20.733571
288.079215	-3.025400	3.787800	-11.458000	22.911985	0.001000	20.734722
289.073159	-3.030600	3.787100	-11.475000	22.942147	0.001001	20.750716
290.078850	-2.995100	3.787700	-11.343000	22.932854	0.001002	20.720542
291.080850	-2.992900	3.789000	-11.339000	22.932553	0.001003	20.736363
292.077588	-3.008600	3.787600	-11.394000	22.901416	0.001002	20.730771
293.075901	-3.008900	3.786700	-11.393000	22.929882	0.001003	20.729418
294.079597	-3.015700	3.787000	-11.420000	22.930306	0.001000	20.735059
295.073281	-2.989300	3.787500	-11.320000	22.926968	0.001004	20.713696
296.075911	-2.993000	3.786600	-11.332000	22.950257	0.001003	20.737978
297.080800	-3.008300	3.785100	-11.385000	22.935610	0.001003	20.719510
298.074727	-2.996900	3.784900	-11.341000	22.928882	0.001004	20.732209
299.080202	-3.005500	3.785500	-11.377000	22.937080	0.001004	20.742794
300.079751	-3.001500	3.785100	-11.361000	22.949257	0.001004	20.731760
301.077248	-3.022400	3.784000	-11.435000	22.982882	0.001006	20.711395
302.075437	-3.004600	3.785600	-11.373000	23.002980	0.001005	20.745284
303.080203	-3.020300	3.783200	-11.424000	23.006170	0.001006	20.724297
304.076287	-2.989500	3.786000	-11.317000	22.990055	0.001006	20.728540
305.082822	-3.018700	3.783100	-11.418000	22.980516	0.001007	20.715662
306.086328	-3.006600	3.784400	-11.377000	23.014614	0.001007	20.703832
307.086216	-3.005600	3.784100	-11.373000	23.005124	0.001007	20.721353
308.079345	-3.019800	3.783200	-11.423000	23.005071	0.001008	20.726041
309.080225	-3.021100	3.782700	-11.427000	22.994314	0.001009	20.723798
310.082971	-3.004200	3.782000	-11.360000	22.988635	0.001009	20.704356
311.080739	-3.013300	3.782300	-11.396000	22.980487	0.001009	20.712788
312.080757	-3.027500	3.780600	-11.445000	22.992298	0.001009	20.711820
313.077775	-3.024500	3.781300	-11.435000	22.985845	0.001008	20.721950
314.080413	-3.006300	3.782000	-11.368000	23.037447	0.001011	20.717229
315.080990	-2.998500	3.782600	-11.341000	23.029407	0.001010	20.728140
316.080460	-3.026100	3.780500	-11.438000	23.049258	0.001011	20.698715
317.081241	-2.974300	3.782300	-11.247000	23.064026	0.001011	20.720627
318.079384	-3.012700	3.780600	-11.388000	23.070478	0.001010	20.721402
319.079850	-3.007900	3.779400	-11.367000	23.073199	0.001010	20.715593
320.079930	-2.989500	3.780200	-11.299000	23.081387	0.001012	20.724272
321.085651	-2.984300	3.780000	-11.280000	23.040365	0.001012	20.716359
322.082168	-2.984600	3.780000	-11.281000	23.072750	0.001013	20.729843
323.082586	-3.009600	3.777900	-11.369000	23.064504	0.001013	20.718260
324.080503	-3.014800	3.777300	-11.387000	23.060821	0.001011	20.702241
325.085694	-3.007800	3.779100	-11.366000	23.049040	0.001013	20.711300
326.080727	-2.987900	3.779300	-11.291000	23.077388	0.001013	20.699401
327.087888	-3.003800	3.778400	-11.348000	23.078157	0.001015	20.704914
328.087610	-2.999700	3.777900	-11.332000	23.098682	0.001015	20.702720
329.080859	-3.025600	3.775700	-11.423000	23.128543	0.001016	20.712253
330.084388	-3.014600	3.775300	-11.380000	23.106258	0.001015	20.713631
331.085320	-3.016000	3.776100	-11.386000	23.157214	0.001016	20.711586
332.084550	-3.000100	3.776700	-11.329000	23.128074	0.001018	20.716051
333.088874	-3.036700	3.774800	-11.462000	23.127951	0.001016	20.720670
334.084821	-3.026800	3.775800	-11.427000	23.131160	0.001017	20.724360
335.082160	-3.007500	3.775100	-11.353000	23.131263	0.001016	20.715454
336.083343	-2.982700	3.775900	-11.261000	23.146429	0.001018	20.717849
337.083856	-3.015100	3.775000	-11.380000	23.155893	0.001019	20.710262
338.080645	-3.023600	3.775100	-11.413000	23.177786	0.001019	20.699484
339.085554	-2.983800	3.775900	-11.265000	23.184485	0.001020	20.717103
340.097022	-2.988700	3.774300	-11.279000	23.178580	0.001017	20.695538
341.086152	-3.003700	3.773900	-11.334000	23.187122	0.001020	20.707891
342.084759	-3.000800	3.775000	-11.325000	23.198827	0.001021	20.710139
343.085558	-3.000800	3.773600	-11.323000	23.209862	0.001020	20.705075
344.084750	-3.019400	3.773600	-11.392000	23.205703	0.001022	20.703752
345.087299	-2.980500	3.774300	-11.247000	23.187196	0.001020	20.716027
346.083694	-3.003500	3.773200	-11.332000	23.214219	0.001022	20.706123
347.085841	-3.000500	3.773000	-11.320000	23.196688	0.001021	20.710366
348.086048	-3.007600	3.772700	-11.344000	23.210158	0.001022	20.701579
349.082795	-2.977600	3.773200	-11.234000	23.182345	0.001023	20.703579
350.086761	-3.020200	3.772500	-11.393000	23.198502	0.001023	20.728780
351.086609	-3.017300	3.771700	-11.379000	23.185633	0.001023	20.724892
352.087755	-3.004400	3.770700	-11.328000	23.165986	0.001025	20.719429
353.096658	-3.015100	3.771200	-11.368000	23.184464	0.001024	20.707599
354.089386	-3.013200	3.770000	-11.357000	23.195964	0.001026	20.712485
355.082813	-3.004300	3.769900	-11.325000	23.207644	0.001025	20.712337
356.086427	-2.996500	3.770500	-11.297000	23.198388	0.001027	20.690731
357.083135	-3.026300	3.768900	-11.405000	23.214096	0.001026	20.696989
358.083376	-2.988700	3.770100	-11.267000	23.231824	0.001027	20.710489
359.087449	-3.000600	3.769300	-11.308000	23.234889	0.001027	20.705974
360.095299	-2.997700	3.769000	-11.297000	23.251602	0.001028	20.730785
361.090520	-2.991100	3.769700	-11.274000	23.252844	0.001027	20.709269
362.086295	-3.006100	3.769200	-11.329000	23.242982	0.001026	20.718827
363.086924	-3.014800	3.768500	-11.360000	23.277097	0.001028	20.707970
364.085190	-2.999100	3.767000	-11.296000	23.309569	0.001026	20.714436
365.087436	-2.993500	3.768200	-11.278000	23.305064	0.001026	20.703756
366.084247	-3.015700	3.767500	-11.361000	23.316641	0.001028	20.703505
367.093045	-2.987500	3.767300	-11.254000	23.290748	0.001028	20.716910
368.088894	-2.986400	3.766100	-11.246000	23.275480	0.001028	20.731482
369.085839	-3.007200	3.765500	-11.321000	23.295553	0.001029	20.719829
370.092667	-2.998500	3.766100	-11.291000	23.293163	0.001028	20.703208
371.085623	-3.008000	3.766000	-11.327000	23.316345	0.001030	20.717434
372.086741	-3.008400	3.765100	-11.324000	23.344509	0.001028	20.721005
373.092191	-2.995900	3.765700	-11.281000	23.356139	0.001030	20.746413
374.090682	-2.987100	3.764100	-11.242000	23.379394	0.001029	20.706655
375.089235	-2.987700	3.765000	-11.247000	23.379048	0.001030	20.714845
376.091292	-2.986200	3.764200	-11.240000	23.366621	0.001031	20.718036
377.089739	-2.997800	3.762800	-11.279000	23.369764	0.001032	20.716919
378.091993	-3.013700	3.763300	-11.339000	23.392216	0.001032	20.714292
379.095030	-2.984400	3.763100	-11.229000	23.395236	0.001031	20.737235
380.093694	-2.981900	3.763100	-11.221000	23.422777	0.001033	20.711732
381.093067	-2.992700	3.763000	-11.261000	23.421856	0.001033	20.687573
382.098091	-3.000200	3.762000	-11.286000	23.452609	0.001031	20.695639
383.094912	-3.014200	3.761100	-11.335000	23.456294	0.001032	20.726837
384.091535	-2.996300	3.761400	-11.269000	23.446907	0.001034	20.685656
385.093486	-2.986700	3.761700	-11.234000	23.403115	0.001032	20.720949
386.090211	-2.997000	3.760600	-11.269000	23.378737	0.001031	20.726387
387.089501	-2.989800	3.760300	-11.241000	23.380786	0.001034	20.723225
388.098812	-3.007700	3.760200	-11.308000	23.374331	0.001035	20.725291
389.092877	-2.997200	3.759300	-11.266000	23.413502	0.001033	20.722351
390.092756	-3.003000	3.759200	-11.288000	23.419932	0.001035	20.713149
391.095576	-3.009600	3.759800	-11.315000	23.425037	0.001033	20.729172
392.091552	-2.988700	3.759000	-11.232000	23.404972	0.001034	20.713800
393.090215	-2.977900	3.760200	-11.196000	23.415552	0.001035	20.707809
394.097168	-2.997400	3.758500	-11.265000	23.434582	0.001035	20.706494
395.091819	-3.000300	3.758500	-11.275000	23.441476	0.001036	20.703921
396.094246	-2.980600	3.758700	-11.202000	23.467616	0.001037	20.742928
397.090827	-3.004100	3.758600	-11.290000	23.477678	0.001036	20.728356
398.090709	-2.991500	3.757200	-11.238000	23.454701	0.001033	20.721446
399.095985	-2.988800	3.756200	-11.226000	23.442002	0.001036	20.721994
400.094757	-3.012500	3.755200	-11.312000	23.441953	0.001036	20.727161
401.095204	-3.001100	3.756500	-11.271000	23.460427	0.001037	20.715331
402.099896	-2.982600	3.757100	-11.205000	23.463018	0.001037	20.716032
403.096311	-3.012900	3.755500	-11.312000	23.511819	0.001038	20.731759
404.094511	-2.989700	3.754900	-11.225000	23.514633	0.001038	20.744537
405.100734	-3.000500	3.754300	-11.264000	23.512435	0.001039	20.716255
406.094368	-2.987200	3.755300	-11.216000	23.515747	0.001038	20.728109
407.094423	-2.983900	3.753900	-11.200000	23.546916	0.001039	20.723318
408.094719	-2.982800	3.754500	-11.198000	23.525976	0.001041	20.709913
409.102152	-2.990300	3.753700	-11.223000	23.555878	0.001040	20.719026
410.098823	-3.005100	3.752300	-11.274000	23.568546	0.001040	20.738838
411.100932	-2.985400	3.753000	-11.202000	23.574271	0.001041	20.741258
412.098915	-3.016000	3.752600	-11.317000	23.596827	0.001041	20.732575
413.097331	-3.003200	3.752400	-11.268000	23.585668	0.001040	20.715223
414.099294	-3.007900	3.751000	-11.281000	23.608548	0.001039	20.713030
415.099857	-2.996500	3.753500	-11.246000	23.638321	0.001040	20.716324
416.095430	-2.994100	3.753000	-11.235000	23.615820	0.001042	20.717949
417.104460	-2.990400	3.751600	-11.216000	23.580519	0.001040	20.720019
418.097753	-2.994600	3.750900	-11.230000	23.573798	0.001042	20.735094
419.101104	-2.997400	3.751000	-11.242000	23.583056	0.001043	20.732995
420.103579	-3.027000	3.748900	-11.347000	23.581391	0.001042	20.715677
421.102449	-3.016000	3.750100	-11.309000	23.591821	0.001041	20.710486
422.104216	-3.010200	3.749000	-11.284000	23.593713	0.001043	20.747472
423.100913	-3.024100	3.749000	-11.335000	23.605986	0.001040	20.719945
424.098073	-2.995100	3.749300	-11.227000	23.600833	0.001043	20.727581
425.105653	-2.996200	3.748400	-11.230000	23.595083	0.001041	20.738887
426.112199	-2.986600	3.748200	-11.193000	23.574971	0.001043	20.739114
427.098359	-3.002500	3.747200	-11.250000	23.617938	0.001044	20.737618
428.100842	-2.992400	3.747600	-11.214000	23.622043	0.001044	20.725610
429.099446	-3.003900	3.747300	-11.254000	23.642060	0.001044	20.718176
430.098823	-3.005900	3.747400	-11.264000	23.629610	0.001043	20.753587
431.104743	-3.006400	3.745900	-11.260000	23.643203	0.001042	20.750144
432.098523	-2.994800	3.745900	-11.217000	23.647554	0.001044	20.738384
433.099485	-3.007100	3.745800	-11.264000	23.667920	0.001044	20.736042
434.102733	-2.994500	3.745600	-11.215000	23.654929	0.001044	20.745777
435.099721	-3.017700	3.744100	-11.297000	23.651313	0.001045	20.758274
436.098686	-2.994800	3.744800	-11.214000	23.680192	0.001046	20.746923
437.102389	-2.996100	3.744300	-11.217000	23.696795	0.001045	20.708564
438.100842	-3.007500	3.743400	-11.257000	23.697115	0.001047	20.756303
439.098944	-2.993700	3.744300	-11.208000	23.696470	0.001045	20.729577
440.107727	-3.005900	3.743200	-11.251000	23.690169	0.001045	20.764987
441.100916	-2.999400	3.743100	-11.226000	23.651239	0.001045	20.760571
442.101660	-3.012500	3.742900	-11.274000	23.645238	0.001046	20.746968
443.108896	-3.008700	3.743600	-11.261000	23.637691	0.001045	20.748411
444.107255	-3.005200	3.742200	-11.245000	23.629996	0.001046	20.754447
445.101899	-3.003900	3.743400	-11.243000	23.641824	0.001046	20.736433
446.106792	-3.005900	3.742500	-11.249000	23.659319	0.001048	20.746860
447.101985	-2.999300	3.741900	-11.222000	23.660590	0.001045	20.736280
448.102728	-3.002100	3.742300	-11.234000	23.659989	0.001047	20.742790
449.107432	-3.026000	3.741000	-11.319000	23.687692	0.001046	20.753968
450.102587	-2.992300	3.741100	-11.193000	23.698397	0.001047	20.756640
451.103401	-3.001700	3.739900	-11.224000	23.701851	0.001046	20.757258
452.109298	-2.999000	3.740900	-11.218000	23.736025	0.001047	20.761649
453.106915	-3.003400	3.739700	-11.230000	23.731217	0.001046	20.754932
454.103851	-3.003500	3.739700	-11.232000	23.738262	0.001046	20.740657
455.106511	-3.010300	3.738500	-11.253000	23.730198	0.001048	20.759600
456.108350	-2.995200	3.738200	-11.195000	23.774425	0.001046	20.752260
457.106527	-3.010200	3.739000	-11.254000	23.768795	0.001049	20.729070
458.114913	-2.972800	3.740800	-11.120000	23.761421	0.001048	20.751550
459.106667	-3.012100	3.738300	-11.259000	23.751436	0.001047	20.773307
460.107938	-3.018500	3.737800	-11.281000	23.762185	0.001048	20.753739
461.110349	-3.009500	3.736200	-11.243000	23.742841	0.001048	20.752361
462.111208	-3.011500	3.736800	-11.252000	23.749161	0.001049	20.775768
463.106637	-3.007600	3.735800	-11.235000	23.734427	0.001045	20.773323
464.109927	-3.012200	3.735500	-11.251000	23.747039	0.001048	20.766527
465.111305	-3.017900	3.736100	-11.274000	23.776010	0.001048	20.754323
466.113212	-2.993800	3.735500	-11.181000	23.794049	0.001047	20.768617
467.115392	-2.997400	3.734600	-11.192000	23.815975	0.001048	20.775429
468.110673	-3.018600	3.735000	-11.273000	23.823886	0.001050	20.762498
469.112215	-2.986300	3.734800	-11.151000	23.835285	0.001047	20.761599
470.112906	-2.997100	3.734400	-11.192000	23.843768	0.001048	20.765363
471.110526	-3.020700	3.733100	-11.276000	23.821862	0.001050	20.784651
472.112465	-2.990700	3.735000	-11.170000	23.837040	0.001048	20.774739
473.116743	-2.992200	3.733500	-11.169000	23.817853	0.001048	20.769725
474.109408	-3.004900	3.734000	-11.219000	23.834202	0.001049	20.771894
475.117311	-2.976600	3.733800	-11.112000	23.831883	0.001050	20.799440
476.115530	-2.987800	3.733000	-11.152000	23.838133	0.001049	20.785318
477.111399	-3.016300	3.731800	-11.255000	23.839700	0.001047	20.782148
478.114250	-2.981400	3.732400	-11.127000	23.885115	0.001048	20.791177
479.116055	-3.014200	3.731400	-11.245000	23.898730	0.001050	20.768318
480.113475	-2.990100	3.731200	-11.156000	23.888898	0.001050	20.773159
481.110682	-2.983600	3.731600	-11.132000	23.881263	0.001049	20.777831
482.117489	-2.982600	3.731600	-11.128000	23.864639	0.001048	20.774912
483.113545	-3.011700	3.729000	-11.229000	23.879264	0.001051	20.798586
484.114321	-3.003500	3.731500	-11.205000	23.850152	0.001048	20.776981
485.120747	-2.993200	3.730600	-11.166000	23.853734	0.001049	20.783417
486.118535	-3.009500	3.729700	-11.224000	23.860009	0.001050	20.787339
487.116921	-2.991100	3.729300	-11.153000	23.856871	0.001050	20.778029
488.114957	-2.993500	3.727100	-11.156000	23.854581	0.001049	20.780948
489.115261	-2.984600	3.729300	-11.129000	23.855379	0.001049	20.784118
490.114747	-2.992700	3.728100	-11.155000	23.850498	0.001050	20.775431
491.120209	-3.000600	3.728000	-11.185000	23.855123	0.001049	20.791449
492.115552	-2.997600	3.727100	-11.171000	23.864511	0.001051	20.791379
493.121963	-2.992200	3.727900	-11.154000	23.836459	0.001050	20.787907
494.119044	-2.997900	3.728300	-11.176000	23.870979	0.001048	20.776527
495.119372	-3.008600	3.726100	-11.208000	23.870856	0.001049	20.786361
496.121618	-3.005200	3.726600	-11.197000	23.872126	0.001050	20.800912
497.125641	-2.991300	3.725700	-11.144000	23.878569	0.001051	20.789829
498.132861	-3.003800	3.725900	-11.191000	23.886830	0.001049	20.811388
499.122240	-3.001900	3.724900	-11.180000	23.880136	0.001049	20.821745
500.128280	-3.034400	3.722300	-11.294000	23.862340	0.001050	20.808642
501.122352	-2.995800	3.724300	-11.155000	23.884392	0.001049	20.809891
502.119642	-2.999300	3.725700	-11.173000	23.882747	0.001051	20.791646
503.122082	-3.011800	3.724000	-11.214000	23.889564	0.001050	20.786154
504.129161	-3.003400	3.723400	-11.181000	23.895061	0.001050	20.806840
505.125856	-2.972300	3.725300	-11.072000	23.924678	0.001050	20.797658
506.124208	-3.001100	3.722600	-11.171000	23.920821	0.001051	20.778143
507.122078	-2.985600	3.723300	-11.115000	23.927042	0.001049	20.779166
508.125170	-2.993400	3.722000	-11.139000	23.961259	0.001049	20.803521
509.125203	-3.001700	3.722400	-11.171000	23.955885	0.001050	20.782959
510.142508	-2.999400	3.722600	-11.164000	23.955457	0.001050	20.817143
511.126779	-3.016000	3.721000	-11.222000	23.951527	0.001051	20.804192
512.124499	-2.998800	3.720900	-11.158000	23.935692	0.001050	20.802064
513.127913	-3.001200	3.722100	-11.169000	23.957447	0.001049	20.807759
514.128753	-2.995500	3.721100	-11.145000	23.954610	0.001050	20.799224
515.128476	-3.010000	3.719100	-11.192000	23.929122	0.001049	20.820131
516.129647	-2.991500	3.722500	-11.135000	23.919986	0.001050	20.801487
517.127326	-3.006400	3.718700	-11.179000	23.916902	0.001050	20.811197
518.128316	-2.985000	3.720600	-11.106000	23.887679	0.001050	20.816507
519.126475	-2.990500	3.718900	-11.120000	23.886557	0.001049	20.831502
520.128990	-2.999600	3.719000	-11.154000	23.877547	0.001048	20.827210
521.125794	-3.004200	3.718800	-11.170000	23.937225	0.001050	20.814507
522.129305	-3.010700	3.717500	-11.191000	23.962232	0.001051	20.820617
523.128164	-2.988100	3.717900	-11.108000	23.967088	0.001049	20.806046
524.129262	-3.003800	3.717700	-11.166000	23.968304	0.001051	20.817698
525.125142	-3.000300	3.717800	-11.152000	23.971758	0.001046	20.815471
526.128894	-3.007600	3.717100	-11.178000	23.981440	0.001048	20.824707
527.128622	-2.995700	3.717500	-11.136000	23.991439	0.001049	20.828569
528.129002	-2.995300	3.716100	-11.130000	24.033642	0.001049	20.807831
529.129579	-2.994700	3.715200	-11.124000	24.045816	0.001050	20.800599
530.129390	-3.003200	3.714800	-11.156000	24.038547	0.001049	20.818914
531.132888	-3.001900	3.717200	-11.158000	24.052130	0.001046	20.835855
532.129266	-2.995000	3.715800	-11.127000	24.039365	0.001048	20.801242
533.130336	-3.015600	3.715000	-11.201000	24.066589	0.001048	20.825226
534.132423	-2.974200	3.715300	-11.049000	24.075839	0.001051	20.825019
535.130513	-3.015700	3.714500	-11.201000	24.102639	0.001047	20.828664
536.130115	-2.997600	3.713600	-11.131000	24.097093	0.001050	20.834956
537.129237	-2.998900	3.713800	-11.137000	24.093558	0.001049	20.839470
538.130253	-2.993700	3.714000	-11.118000	24.092686	0.001049	20.837174
539.128602	-3.030800	3.713200	-11.252000	24.049594	0.001049	20.806285
540.138506	-2.986700	3.712700	-11.088000	24.053347	0.001049	20.838497
541.133674	-3.015800	3.711500	-11.193000	24.052529	0.001048	20.815866
542.131322	-3.017800	3.711700	-11.201000	24.085073	0.001048	20.822900
543.137713	-3.021800	3.711100	-11.213000	24.084477	0.001050	20.835578
544.134058	-3.022700	3.710700	-11.215000	24.114236	0.001048	20.820381
545.132513	-2.996400	3.710200	-11.116000	24.117196	0.001048	20.841367
546.133727	-3.019800	3.709900	-11.203000	24.139716	0.001049	20.827918
547.132257	-2.988200	3.711500	-11.089000	24.110779	0.001050	20.818810
548.130931	-2.985400	3.711400	-11.079000	24.115827	0.001051	20.821976
549.138090	-3.026300	3.709100	-11.224000	24.115679	0.001051	20.839371
550.135757	-3.007500	3.709600	-11.155000	24.131103	0.001051	20.832082
551.131918	-3.006200	3.709100	-11.149000	24.144941	0.001051	20.836003
552.134234	-2.974800	3.710000	-11.035000	24.126922	0.001050	20.837846
553.132847	-2.999600	3.707700	-11.121000	24.101517	0.001051	20.812840
554.137771	-3.008400	3.707300	-11.152000	24.122269	0.001051	20.835075
555.135134	-3.011900	3.707500	-11.165000	24.108830	0.001051	20.845778
556.139184	-3.017400	3.707600	-11.185000	24.108209	0.001050	20.818604
557.132262	-2.997500	3.707200	-11.111000	24.108180	0.001050	20.843704
558.140159	-2.993800	3.707800	-11.100000	24.121915	0.001050	20.838513
559.136979	-3.021000	3.706000	-11.194000	24.119423	0.001050	20.850712
560.138117	-3.014900	3.706100	-11.172000	24.105339	0.001051	20.847967
561.138783	-3.002500	3.706700	-11.129000	24.127554	0.001051	20.860764
562.137223	-3.017800	3.704800	-11.180000	24.140742	0.001049	20.843645
563.137012	-3.002700	3.704400	-11.121000	24.146888	0.001048	20.838904
564.141269	-2.981400	3.705700	-11.047000	24.183058	0.001050	20.863802
565.137917	-3.025700	3.704600	-11.208000	24.202268	0.001047	20.830439
566.142621	-3.015700	3.704500	-11.171000	24.224900	0.001048	20.861674
567.141939	-2.983600	3.703900	-11.050000	24.251450	0.001048	20.845632
568.134514	-2.998300	3.703700	-11.104000	24.291378	0.001049	20.836372
569.138986	-3.022000	3.702100	-11.186000	24.307445	0.001048	20.838738
570.141253	-2.982800	3.704000	-11.046000	24.333717	0.001047	20.855135
571.137702	-3.002700	3.703500	-11.120000	24.354613	0.001048	20.850493
572.139597	-3.018000	3.701900	-11.172000	24.371974	0.001049	20.847046
573.143055	-2.992600	3.701800	-11.077000	24.390082	0.001047	20.857151
574.139017	-2.987800	3.703700	-11.064000	24.401520	0.001049	20.854400
575.137805	-3.041700	3.700700	-11.255000	24.385504	0.001047	20.858247
576.140681	-3.008800	3.700800	-11.134000	24.378463	0.001047	20.866357
577.134631	-2.984200	3.701000	-11.044000	24.356199	0.001048	20.873419
578.137577	-2.996100	3.700600	-11.086000	24.349907	0.001046	20.859995
579.141467	-3.027400	3.700100	-11.201000	24.338316	0.001046	20.852162
580.138881	-2.996700	3.700600	-11.088000	24.295500	0.001047	20.852834
581.137825	-3.018000	3.698400	-11.161000	24.279301	0.001046	20.859818
582.141542	-3.006300	3.699100	-11.120000	24.286071	0.001047	20.844324
583.138904	-3.028400	3.698900	-11.200000	24.273284	0.001047	20.849515
584.137634	-3.002900	3.699700	-11.108000	24.304230	0.001046	20.855427
585.138451	-3.005700	3.699700	-11.120000	24.300420	0.001046	20.869148
586.135163	-3.032900	3.697000	-11.211000	24.302566	0.001046	20.863240
587.138706	-3.001900	3.698500	-11.101000	24.281940	0.001044	20.851086
588.145813	-3.008200	3.697900	-11.123000	24.301748	0.001046	20.873799
589.140928	-2.987900	3.697200	-11.046000	24.325008	0.001045	20.854459
590.141305	-3.005600	3.696200	-11.107000	24.328888	0.001045	20.832273
591.144960	-3.010900	3.694700	-11.123000	24.322846	0.001045	20.844704
592.140790	-2.994100	3.698000	-11.072000	24.360935	0.001045	20.867264
593.139105	-2.986900	3.695600	-11.037000	24.371584	0.001043	20.855189
594.143549	-3.016800	3.695000	-11.146000	24.381066	0.001044	20.836727
595.142802	-3.014900	3.695000	-11.139000	24.390864	0.001042	20.824271
596.141566	-3.010100	3.694800	-11.120000	24.401291	0.001043	20.831412
597.142735	-3.014700	3.694900	-11.137000	24.410374	0.001043	20.831990
598.142129	-3.007500	3.694900	-11.111000	24.426000	0.001042	20.831071
599.151007	-3.005800	3.694900	-11.105000	24.451423	0.001042	20.841403
600.143594	-2.993300	3.695200	-11.061000	24.485702	0.001042	20.823637
601.144200	-3.011200	3.693600	-11.122000	24.476229	0.001042	20.819350
602.140735	-3.022200	3.693000	-11.159000	24.506997	0.001042	20.852589
603.146629	-2.999700	3.692100	-11.075000	24.507898	0.001041	20.835001
604.141045	-2.998300	3.692500	-11.069000	24.521677	0.001042	20.824644
605.147193	-2.997400	3.690900	-11.062000	24.525063	0.001042	20.850800
606.144209	-2.967700	3.693000	-10.958000	24.513327	0.001042	20.833336
607.145046	-2.985500	3.693200	-11.023000	24.517482	0.001041	20.811900
608.141632	-2.982900	3.692600	-11.014000	24.511667	0.001042	20.825507
609.148796	-3.003200	3.690900	-11.083000	24.504854	0.001042	20.820567
610.141377	-2.991300	3.692600	-11.044000	24.489632	0.001040	20.799132
611.143551	-3.002300	3.690300	-11.079000	24.489637	0.001039	20.833749
612.144022	-2.982600	3.690500	-11.006000	24.531254	0.001042	20.841839
613.142850	-3.007300	3.688900	-11.092000	24.511085	0.001041	20.812120
614.140386	-3.018000	3.690300	-11.137000	24.535137	0.001040	20.831985
615.148226	-3.016900	3.688800	-11.126000	24.528526	0.001040	20.819188
616.146664	-3.016700	3.687100	-11.121000	24.538051	0.001041	20.800770
617.142445	-2.989900	3.689100	-11.028000	24.546587	0.001041	20.834464
618.155712	-2.991500	3.688700	-11.034000	24.532389	0.001040	20.812633
619.144435	-2.998500	3.687900	-11.057000	24.522465	0.001041	20.829702
620.145058	-2.996700	3.688200	-11.052000	24.483318	0.001039	20.824091
621.149172	-2.992300	3.686500	-11.030000	24.452977	0.001040	20.817358
622.144525	-2.989700	3.686400	-11.019000	24.474943	0.001040	20.815689
623.144618	-3.013900	3.687200	-11.113000	24.492282	0.001038	20.810799
624.148776	-2.978200	3.686900	-10.980000	24.509049	0.001042	20.823354
625.141282	-3.025000	3.685300	-11.146000	24.517733	0.001038	20.794608
626.141801	-3.006300	3.686300	-11.081000	24.514100	0.001039	20.810878
627.148352	-2.973200	3.686600	-10.960000	24.497588	0.001039	20.801424
628.147803	-2.973300	3.686100	-10.958000	24.489903	0.001039	20.786127
629.143673	-3.004600	3.685100	-11.071000	24.523039	0.001039	20.791397
630.153041	-2.999400	3.685000	-11.051000	24.509979	0.001042	20.806269
631.145597	-3.003400	3.683800	-11.063000	24.532667	0.001041	20.804377
632.145264	-2.999900	3.684600	-11.052000	24.543984	0.001040	20.816206
633.149547	-3.003500	3.682800	-11.059000	24.572339	0.001039	20.791550
634.144028	-2.990900	3.683800	-11.017000	24.576247	0.001040	20.785040
635.144463	-2.980000	3.682900	-10.973000	24.588435	0.001039	20.797743
636.153179	-3.004700	3.682200	-11.063000	24.560056	0.001038	20.809572
637.146738	-2.973900	3.683800	-10.954000	24.568095	0.001039	20.801990
638.147651	-3.013100	3.680600	-11.088000	24.544737	0.001037	20.795624
639.150399	-2.992600	3.681500	-11.016000	24.554213	0.001038	20.801339
640.151423	-2.992100	3.681500	-11.015000	24.568616	0.001040	20.808204
641.151465	-3.006600	3.680600	-11.064000	24.572545	0.001038	20.802662
642.156990	-2.992600	3.681800	-11.017000	24.590103	0.001037	20.786141
643.150758	-3.000000	3.680200	-11.040000	24.619677	0.001035	20.806332
644.147861	-2.994800	3.680900	-11.023000	24.614277	0.001037	20.796647
645.157575	-2.998600	3.680600	-11.036000	24.612560	0.001036	20.791130
646.149422	-3.024900	3.678000	-11.125000	24.619352	0.001036	20.803635
647.148622	-3.012300	3.677400	-11.075000	24.601445	0.001038	20.776658
648.155071	-3.013300	3.679000	-11.084000	24.603006	0.001038	20.794345
649.150586	-2.993400	3.678200	-11.010000	24.599476	0.001036	20.777528
650.154179	-2.986200	3.678200	-10.983000	24.617881	0.001038	20.784615
651.158014	-2.988900	3.677800	-10.991000	24.628277	0.001036	20.775132
652.156187	-2.984200	3.677900	-10.974000	24.640361	0.001037	20.777301
653.154923	-2.999300	3.678100	-11.030000	24.634641	0.001036	20.777725
654.171957	-3.008300	3.677300	-11.062000	24.598202	0.001036	20.794741
655.154726	-3.034400	3.676400	-11.155000	24.593225	0.001035	20.759875
656.156676	-3.004100	3.675400	-11.040000	24.514680	0.001035	20.760725
657.155473	-2.997400	3.676100	-11.017000	24.503810	0.001036	20.773053
658.157142	-2.994400	3.676900	-11.009000	24.511889	0.001033	20.772624
659.156504	-2.992000	3.675500	-10.995000	24.532309	0.001032	20.774620
660.162723	-2.989900	3.676000	-10.990000	24.503900	0.001036	20.783100
661.163397	-2.977800	3.675700	-10.944000	24.523975	0.001034	20.784276
662.153563	-2.997900	3.674900	-11.016000	24.532280	0.001033	20.789289
663.163013	-3.018200	3.674600	-11.090000	24.550632	0.001034	20.786840
664.155984	-2.994000	3.674300	-10.999000	24.560408	0.001033	20.775312
665.156591	-2.990000	3.675200	-10.988000	24.630095	0.001033	20.766525
666.157831	-3.002300	3.673900	-11.029000	24.603751	0.001033	20.776602
667.162559	-2.977100	3.673100	-10.934000	24.591888	0.001032	20.784139
668.165186	-2.997400	3.673600	-11.010000	24.570623	0.001032	20.779871
669.161193	-3.001000	3.672900	-11.021000	24.577214	0.001031	20.782691
670.161241	-2.980000	3.673400	-10.946000	24.542589	0.001031	20.742259
671.156008	-3.007200	3.671300	-11.039000	24.510084	0.001031	20.788357
672.158458	-3.022300	3.671500	-11.095000	24.494557	0.001034	20.768986
673.169271	-2.999800	3.671900	-11.014000	24.498408	0.001030	20.763365
674.160657	-3.009800	3.670600	-11.047000	24.547265	0.001031	20.777772
675.162910	-2.987900	3.671200	-10.968000	24.588694	0.001029	20.790417
676.163750	-3.002800	3.668900	-11.015000	24.607980	0.001030	20.797440
677.163455	-3.004000	3.669800	-11.023000	24.616181	0.001030	20.759201
678.165929	-2.994600	3.670300	-10.989000	24.658537	0.001028	20.782736
679.162155	-3.005700	3.670900	-11.031000	24.648466	0.001028	20.764096
680.162065	-3.014700	3.668300	-11.059000	24.670724	0.001030	20.770309
681.160298	-3.005600	3.667800	-11.023000	24.702978	0.001027	20.774700
682.168154	-3.016300	3.667500	-11.062000	24.714519	0.001028	20.759729
683.162457	-3.012800	3.668500	-11.051000	24.707831	0.001029	20.773880
684.165221	-3.018000	3.666900	-11.066000	24.696770	0.001027	20.768471
685.166263	-3.022900	3.667000	-11.083000	24.712014	0.001029	20.778078
686.165447	-2.998600	3.668100	-10.997000	24.653796	0.001028	20.768496
687.166982	-2.984300	3.668600	-10.947000	24.635844	0.001029	20.774190
688.167939	-3.008400	3.666300	-11.028000	24.617213	0.001027	20.768298
689.165956	-3.002700	3.667300	-11.010000	24.601053	0.001026	20.776264
690.167172	-3.021500	3.664700	-11.071000	24.605951	0.001025	20.793981
691.171867	-3.001800	3.665800	-11.002000	24.636523	0.001027	20.781509
692.165733	-3.011100	3.665700	-11.036000	24.667035	0.001028	20.785100
693.167850	-2.986900	3.665100	-10.946000	24.652539	0.001026	20.766761
694.170180	-2.995500	3.665100	-10.977000	24.623251	0.001027	20.763925
695.169653	-3.000600	3.665300	-10.996000	24.621834	0.001026	20.760132
696.164768	-2.998600	3.664400	-10.987000	24.616365	0.001025	20.784516
697.172862	-3.009300	3.663900	-11.024000	24.641709	0.001026	20.764428
698.169533	-3.009400	3.663300	-11.024000	24.646932	0.001025	20.765402
699.169072	-3.020800	3.663000	-11.065000	24.668520	0.001023	20.768572
700.170466	-3.029000	3.661000	-11.087000	24.672527	0.001025	20.774489
701.171798	-3.009800	3.663200	-11.024000	24.648334	0.001026	20.745945
702.179681	-2.982500	3.664200	-10.928000	24.652981	0.001024	20.733538
703.173127	-2.965200	3.663700	-10.862000	24.670798	0.001023	20.760426
704.173516	-2.971900	3.662300	-10.883000	24.698750	0.001024	20.752440
705.168067	-3.034500	3.662100	-11.111000	24.708008	0.001024	20.760781
706.175216	-2.988100	3.661800	-10.941000	24.678063	0.001023	20.757759
707.171197	-2.997600	3.661800	-10.976000	24.682044	0.001024	20.748952
708.167790	-2.989100	3.660900	-10.941000	24.715071	0.001023	20.743687
709.170182	-3.000900	3.660000	-10.983000	24.723728	0.001024	20.758539
710.175719	-2.999400	3.661700	-10.981000	24.748849	0.001023	20.757669
711.170329	-2.987800	3.660200	-10.936000	24.764889	0.001023	20.730142
712.180089	-3.010300	3.660600	-11.018000	24.741486	0.001022	20.741271
713.172756	-3.013600	3.659600	-11.027000	24.711994	0.001022	20.747712
714.176331	-3.001300	3.660100	-10.984000	24.705083	0.001021	20.755002
715.173257	-3.003700	3.658300	-10.986000	24.692326	0.001021	20.758795
716.171862	-3.023200	3.657600	-11.057000	24.707627	0.001022	20.751865
717.172667	-3.006700	3.658200	-10.997000	24.710261	0.001022	20.730799
718.174523	-2.981900	3.658400	-10.907000	24.726109	0.001021	20.737219
719.172309	-3.000200	3.658700	-10.976000	24.760030	0.001021	20.739491
720.168201	-2.994100	3.658000	-10.951000	24.760354	0.001018	20.742188
721.174955	-3.030800	3.656800	-11.081000	24.756545	0.001021	20.731727
722.171314	-2.988100	3.656300	-10.924000	24.771172	0.001020	20.744984
723.170207	-3.010100	3.655300	-11.001000	24.724293	0.001019	20.722594
724.176718	-2.993100	3.656900	-10.944000	24.724745	0.001020	20.744386
725.177314	-3.011800	3.654500	-11.006000	24.713302	0.001019	20.736696
726.174871	-3.011800	3.654200	-11.005000	24.753838	0.001020	20.737545
727.178161	-2.986500	3.656000	-10.917000	24.763859	0.001019	20.733851
728.178028	-3.002600	3.655300	-10.974000	24.766866	0.001018	20.757258
729.174071	-3.003400	3.654900	-10.975000	24.754581	0.001017	20.728808
730.177774	-2.991000	3.655800	-10.933000	24.735933	0.001018	20.753242
731.174275	-3.016100	3.654300	-11.021000	24.720040	0.001017	20.733026
732.173082	-2.992600	3.655100	-10.938000	24.741676	0.001017	20.735298
733.176403	-3.012000	3.652900	-11.002000	24.717107	0.001017	20.731504
734.180461	-3.001800	3.652800	-10.963000	24.710709	0.001014	20.731248
735.175059	-3.019500	3.651600	-11.026000	24.708819	0.001015	20.740257
736.178082	-3.000400	3.652500	-10.958000	24.718864	0.001014	20.746071
737.173977	-2.991200	3.652100	-10.922000	24.731868	0.001015	20.736361
738.178722	-3.029000	3.650500	-11.056000	24.728561	0.001015	20.751534
739.177796	-3.001800	3.651900	-10.961000	24.736018	0.001013	20.748112
740.175606	-3.010200	3.651100	-10.988000	24.750443	0.001013	20.705687
741.175302	-3.010900	3.650700	-10.991000	24.771409	0.001015	20.727203
742.182021	-3.005300	3.651000	-10.972000	24.750739	0.001014	20.734909
743.175720	-2.989100	3.651400	-10.913000	24.748273	0.001013	20.742392
744.175129	-3.002400	3.650700	-10.960000	24.788709	0.001013	20.726547
745.178237	-3.011400	3.649900	-10.990000	24.812583	0.001014	20.708779
746.178566	-2.989600	3.649300	-10.909000	24.801663	0.001012	20.726744
747.181658	-2.990200	3.649600	-10.911000	24.808582	0.001011	20.718989
748.181334	-3.017500	3.647600	-11.006000	24.793089	0.001014	20.728097
749.176785	-3.019700	3.647400	-11.012000	24.788011	0.001011	20.726320
750.175658	-3.015800	3.648700	-11.002000	24.755636	0.001013	20.727021
751.182498	-3.039000	3.646800	-11.081000	24.738671	0.001011	20.722798
752.178071	-3.010100	3.649000	-10.982000	24.731337	0.001012	20.720180
753.179517	-3.004600	3.648000	-10.959000	24.760903	0.001012	20.721874
754.180169	-2.996100	3.647800	-10.927000	24.766026	0.001011	20.718955
755.179699	-3.014100	3.648100	-10.995000	24.776371	0.001011	20.724122
756.177519	-3.003300	3.646500	-10.950000	24.805709	0.001009	20.719425
757.181436	-2.978600	3.647000	-10.862000	24.809361	0.001011	20.721193
758.179498	-2.992100	3.646000	-10.908000	24.832093	0.001010	20.700383
759.179245	-3.021000	3.645200	-11.012000	24.875430	0.001009	20.743880
760.184834	-2.997000	3.645200	-10.924000	24.882068	0.001010	20.725886
761.181261	-3.005700	3.645200	-10.954000	24.920979	0.001010	20.719420
762.182453	-3.017000	3.644300	-10.992000	24.921747	0.001009	20.728252
763.182090	-3.011800	3.645100	-10.978000	24.911526	0.001009	20.729848
764.182515	-3.005700	3.643700	-10.950000	24.906359	0.001009	20.733196
765.182999	-3.001900	3.644200	-10.939000	24.918396	0.001008	20.718723
766.179317	-2.988000	3.643600	-10.886000	24.888028	0.001008	20.720962
767.183705	-2.997500	3.643500	-10.920000	24.897378	0.001008	20.721337
768.183346	-2.998400	3.642600	-10.921000	24.894322	0.001009	20.730124
769.180355	-3.022300	3.641400	-11.003000	24.892280	0.001007	20.712901
770.181717	-2.991100	3.643100	-10.895000	24.868482	0.001006	20.719362
771.182323	-2.983600	3.642400	-10.866000	24.915626	0.001006	20.729221
772.180485	-2.990600	3.642800	-10.893000	24.869501	0.001006	20.714220
773.187094	-3.014400	3.642000	-10.978000	24.860471	0.001006	20.734081
774.184726	-3.014000	3.641500	-10.974000	24.882404	0.001004	20.713894
775.184143	-2.998500	3.642100	-10.919000	24.891105	0.001004	20.725472
776.185178	-2.998500	3.641300	-10.917000	24.920843	0.001004	20.724025
777.186016	-3.012100	3.639900	-10.962000	24.912541	0.001005	20.711424
778.186354	-3.004200	3.640400	-10.936000	24.972827	0.001005	20.707448
779.190199	-3.001800	3.639700	-10.925000	24.964324	0.001004	20.715984
780.184073	-3.001700	3.639400	-10.924000	24.978746	0.001004	20.705803
781.184349	-2.991300	3.639700	-10.887000	24.983018	0.001002	20.730007
782.186546	-3.036800	3.636800	-11.042000	24.980060	0.001005	20.709493
783.185521	-2.978900	3.640400	-10.843000	24.970042	0.001002	20.717930
784.184514	-3.011500	3.637500	-10.954000	24.957012	0.001004	20.716705
785.192362	-2.992900	3.639800	-10.893000	24.983913	0.001001	20.715732
786.191518	-2.984400	3.639200	-10.859000	24.965593	0.001001	20.713465
787.187754	-3.008700	3.637700	-10.943000	24.997740	0.001002	20.704005
788.193794	-2.966400	3.637100	-10.788000	25.003232	0.001002	20.720424
789.191835	-2.994800	3.636500	-10.890000	24.974166	0.001000	20.709741
790.191865	-2.983000	3.638600	-10.853000	24.956761	0.000999	20.725937
791.198034	-3.006900	3.636000	-10.932000	24.936674	0.000999	20.710516
792.194035	-3.004700	3.635700	-10.923000	24.937894	0.001000	20.714112
793.191888	-2.988700	3.636700	-10.868000	24.947342	0.000999	20.734027
794.194621	-3.022900	3.635200	-10.988000	24.990531	0.000998	20.713840
795.199405	-3.011600	3.635200	-10.946000	24.975037	0.000999	20.722470
796.193015	-3.007100	3.636200	-10.933000	24.993292	0.000999	20.697643
797.197003	-3.011300	3.635400	-10.946000	25.021482	0.000998	20.702232
798.193295	-3.007400	3.633500	-10.926000	25.046517	0.000998	20.725942
799.197614	-3.000300	3.633800	-10.901000	25.054375	0.000999	20.709646
800.198086	-2.978900	3.633400	-10.822000	24.984567	0.000999	20.704534
801.198267	-2.995500	3.634800	-10.886000	24.990482	0.000997	20.696720
802.197389	-2.999100	3.634100	-10.897000	25.007143	0.000995	20.718660
803.194515	-3.004700	3.633100	-10.916000	24.994113	0.000996	20.702736
804.199682	-3.013100	3.632700	-10.945000	24.963334	0.000997	20.708352
805.198658	-3.006000	3.633000	-10.920000	24.949109	0.000994	20.707350
806.199450	-3.011600	3.632000	-10.938000	24.948341	0.000994	20.716537
807.193761	-3.003500	3.631300	-10.905000	24.962607	0.000995	20.713312
808.198073	-3.005500	3.630700	-10.911000	24.998508	0.000995	20.713786
809.199172	-2.986500	3.632100	-10.845000	25.019091	0.000995	20.713584
810.197754	-3.007500	3.631600	-10.919000	25.035501	0.000992	20.712037
811.197240	-3.013000	3.629700	-10.935000	25.046833	0.000995	20.705868
812.197077	-2.999900	3.630100	-10.890000	25.038753	0.000995	20.712932
813.198187	-3.002800	3.629700	-10.897000	24.993504	0.000992	20.711134
814.197223	-3.013000	3.630400	-10.938000	24.994075	0.000993	20.706491
815.199623	-3.017000	3.629000	-10.948000	24.991532	0.000990	20.710577
816.197102	-3.014000	3.628200	-10.934000	24.997077	0.000991	20.697176
817.199937	-2.999400	3.628100	-10.882000	25.027679	0.000991	20.726946
818.201514	-3.013300	3.630200	-10.936000	25.030090	0.000992	20.717512
819.199205	-3.036800	3.627900	-11.015000	25.019447	0.000991	20.722002
820.199672	-3.005600	3.627500	-10.903000	25.040280	0.000990	20.722526
821.198657	-3.000200	3.628100	-10.884000	25.045845	0.000988	20.711516
822.199944	-3.014500	3.626300	-10.931000	25.079338	0.000988	20.713842
823.197375	-2.988500	3.628000	-10.841000	25.069188	0.000988	20.740639
824.207902	-2.996600	3.627900	-10.870000	25.066925	0.000989	20.709916
825.204982	-3.004800	3.627300	-10.898000	25.071874	0.000989	20.734800
826.205320	-3.008800	3.625400	-10.907000	25.064912	0.000988	20.723544
827.204533	-3.001200	3.625600	-10.880000	25.065261	0.000987	20.736697
828.202091	-2.994400	3.626500	-10.858000	25.074704	0.000986	20.717725
829.202516	-2.997000	3.626300	-10.866000	25.054171	0.000987	20.723667
830.200112	-2.978400	3.626900	-10.801000	25.058919	0.000987	20.690499
831.205651	-2.996400	3.625500	-10.861000	25.083831	0.000986	20.724517
832.201667	-3.015400	3.623300	-10.923000	25.083083	0.000985	20.725663
833.203131	-3.023200	3.623300	-10.953000	25.061679	0.000986	20.710815
834.204156	-2.982900	3.624400	-10.810000	25.062078	0.000984	20.709792
835.205418	-2.984100	3.624000	-10.813000	25.053049	0.000984	20.742457
836.205223	-3.011400	3.623100	-10.909000	25.062403	0.000983	20.710118
837.208436	-3.004100	3.622000	-10.880000	25.073990	0.000984	20.732656
838.203661	-3.027500	3.622400	-10.966000	25.080302	0.000983	20.718130
839.202732	-3.002300	3.623400	-10.877000	25.113263	0.000983	20.727510
840.211735	-2.979200	3.623600	-10.794000	25.131265	0.000982	20.721400
841.203125	-3.029000	3.622100	-10.969000	25.107826	0.000982	20.729638
842.205424	-3.001800	3.622100	-10.872000	25.147501	0.000983	20.712094
843.205733	-2.994000	3.621600	-10.843000	25.140991	0.000982	20.724526
844.205425	-2.995000	3.623000	-10.849000	25.111855	0.000982	20.719932
845.205379	-3.004700	3.620500	-10.878000	25.120066	0.000982	20.713950
846.209160	-2.999800	3.620500	-10.860000	25.138959	0.000980	20.736711
847.205611	-2.996900	3.621200	-10.852000	25.144351	0.000980	20.715570
848.206283	-3.012400	3.618300	-10.898000	25.166057	0.000979	20.720766
849.210093	-2.984500	3.619900	-10.802000	25.182239	0.000980	20.705241
850.204875	-2.991100	3.619900	-10.826000	25.147888	0.000982	20.719121
851.210434	-2.998500	3.619700	-10.852000	25.131608	0.000981	20.715579
852.223569	-2.982700	3.618800	-10.792000	25.116843	0.000978	20.718301
853.209177	-2.984300	3.618900	-10.799000	25.077314	0.000976	20.714181
854.214958	-2.999600	3.618100	-10.852000	25.082584	0.000978	20.716626
855.213498	-3.006700	3.617200	-10.873000	25.115499	0.000977	20.719797
856.213274	-2.995700	3.616500	-10.833000	25.127706	0.000977	20.729681
857.210148	-3.009500	3.616800	-10.884000	25.142820	0.000980	20.735845
858.211130	-2.995700	3.615700	-10.831000	25.177447	0.000977	20.714656
859.210125	-3.002400	3.615300	-10.853000	25.174145	0.000977	20.725566
860.215765	-3.004900	3.615500	-10.864000	25.174711	0.000977	20.731825
861.211838	-3.006600	3.614800	-10.867000	25.191542	0.000976	20.716478
862.211640	-2.992100	3.615900	-10.818000	25.198277	0.000976	20.730827
863.209202	-3.009000	3.614100	-10.874000	25.189800	0.000976	20.729904
864.211951	-3.006300	3.614400	-10.864000	25.173344	0.000973	20.716701
865.222255	-2.988400	3.615300	-10.803000	25.166284	0.000974	20.727157
866.213373	-2.967800	3.615400	-10.729000	25.154082	0.000975	20.744781
867.218258	-3.009500	3.613200	-10.873000	25.143436	0.000974	20.722238
868.219206	-2.982100	3.613600	-10.775000	25.157462	0.000971	20.722568
869.215403	-2.979800	3.613200	-10.766000	25.157733	0.000972	20.731850
870.215155	-2.986400	3.614500	-10.792000	25.131928	0.000971	20.716849
871.220625	-2.988000	3.613100	-10.795000	25.153708	0.000973	20.727335
872.214445	-2.980000	3.613100	-10.765000	25.126688	0.000971	20.722020
873.226016	-3.016100	3.611500	-10.892000	25.115204	0.000972	20.733252
874.218237	-3.003100	3.611900	-10.846000	25.127332	0.000969	20.745428
875.218807	-3.002800	3.611400	-10.842000	25.148911	0.000970	20.741012
876.221663	-3.007400	3.610600	-10.858000	25.108070	0.000969	20.742212
877.222147	-2.992700	3.611500	-10.807000	25.136857	0.000969	20.736971
878.218525	-2.995500	3.609600	-10.811000	25.136266	0.000968	20.739697
879.224487	-3.011600	3.610800	-10.873000	25.139371	0.000969	20.728589
880.230105	-3.007900	3.610300	-10.858000	25.147548	0.000971	20.746282
881.216168	-2.995100	3.608400	-10.807000	25.164802	0.000968	20.722350
882.226820	-3.031500	3.608300	-10.937000	25.180215	0.000968	20.742093
883.221327	-3.021000	3.608700	-10.901000	25.181928	0.000967	20.743338
884.220438	-3.007600	3.608600	-10.853000	25.207555	0.000967	20.717382
885.222802	-3.008200	3.607600	-10.851000	25.236812	0.000966	20.739169
886.226060	-3.018400	3.608900	-10.893000	25.235272	0.000967	20.734304
887.221133	-2.990500	3.608800	-10.790000	25.247949	0.000965	20.736601
888.222686	-3.004800	3.607100	-10.837000	25.257542	0.000965	20.743862
889.221632	-2.986600	3.607800	-10.774000	25.218963	0.000964	20.743062
890.217957	-3.008000	3.606600	-10.848000	25.232738	0.000964	20.753572
891.222258	-2.986700	3.607700	-10.774000	25.194183	0.000965	20.755168
892.220349	-3.016000	3.606400	-10.875000	25.171188	0.000964	20.758161
893.221401	-2.987800	3.608200	-10.779000	25.177373	0.000968	20.747774
894.221167	-3.003800	3.605400	-10.829000	25.168103	0.000964	20.754116
895.221447	-3.037300	3.603500	-10.944000	25.189726	0.000964	20.754487
896.221487	-2.993100	3.604400	-10.787000	25.236286	0.000962	20.737693
897.224647	-3.010200	3.604200	-10.846000	25.212770	0.000963	20.732576
898.223679	-3.021200	3.604300	-10.886000	25.187385	0.000961	20.752136
899.219257	-2.995400	3.604800	-10.797000	25.140799	0.000960	20.737135
900.220861	-3.004400	3.604200	-10.827000	25.107909	0.000963	20.737308
901.222575	-3.015700	3.602800	-10.863000	25.077925	0.000959	20.733762
902.220784	-3.018900	3.602800	-10.876000	25.061939	0.000960	20.744268
903.225690	-2.992700	3.602300	-10.780000	25.105193	0.000960	20.746437
904.224088	-2.981000	3.603200	-10.740000	25.108150	0.000958	20.756992
905.220830	-3.011300	3.600400	-10.840000	25.140785	0.000959	20.766520
906.225853	-2.999400	3.601800	-10.801000	25.163407	0.000958	20.751298
907.226432	-2.978300	3.601200	-10.724000	25.188661	0.000960	20.743933
908.224027	-3.013400	3.600900	-10.850000	25.197782	0.000957	20.757833
909.220892	-3.008000	3.599100	-10.824000	25.205885	0.000954	20.747475
910.222202	-3.033600	3.599000	-10.917000	25.215729	0.000956	20.749772
911.226181	-2.990400	3.600400	-10.764000	25.226287	0.000956	20.735715
912.224831	-2.995800	3.600800	-10.786000	25.211346	0.000955	20.758174
913.224590	-2.984700	3.599900	-10.745000	25.197453	0.000954	20.766511
914.220665	-2.999600	3.600200	-10.798000	25.203342	0.000953	20.759621
915.222047	-2.990900	3.599900	-10.765000	25.222878	0.000955	20.761217
916.226285	-3.011900	3.598700	-10.837000	25.236131	0.000953	20.770730
917.228822	-2.997200	3.598400	-10.783000	25.213560	0.000952	20.768458
918.224512	-3.001000	3.597600	-10.796000	25.218706	0.000953	20.763666
919.225153	-3.001600	3.597400	-10.797000	25.263100	0.000952	20.771253
920.225755	-2.989500	3.598800	-10.757000	25.274758	0.000953	20.772053
921.228364	-3.008500	3.599000	-10.826000	25.304732	0.000952	20.767060
922.228776	-3.007000	3.597900	-10.818000	25.328205	0.000950	20.765972
923.227140	-3.022200	3.595300	-10.865000	25.344183	0.000953	20.763997
924.229587	-3.002100	3.596500	-10.796000	25.339140	0.000950	20.744234
925.226713	-3.010000	3.596600	-10.824000	25.352117	0.000949	20.753471
926.227409	-3.007800	3.595800	-10.815000	25.297391	0.000949	20.751154
927.226511	-2.997100	3.595200	-10.774000	25.272484	0.000947	20.769770
928.234376	-2.998800	3.596200	-10.782000	25.257023	0.000950	20.757091
929.229264	-3.012100	3.594900	-10.828000	25.247484	0.000950	20.754626
930.223860	-2.986300	3.595000	-10.735000	25.263988	0.000946	20.768826
931.234875	-3.001200	3.592500	-10.781000	25.272493	0.000947	20.751761
932.230661	-2.999900	3.593300	-10.777000	25.276045	0.000946	20.770975
933.230653	-2.998100	3.593100	-10.772000	25.298743	0.000947	20.767685
934.231514	-3.022300	3.593700	-10.859000	25.296903	0.000946	20.790020
935.227537	-3.021100	3.593400	-10.855000	25.285721	0.000945	20.770258
936.226618	-2.994900	3.593000	-10.760000	25.336625	0.000946	20.765891
937.228091	-3.003600	3.591900	-10.788000	25.320376	0.000944	20.759534
938.232962	-2.977900	3.593500	-10.699000	25.350299	0.000945	20.771561
939.235207	-2.996800	3.592600	-10.764000	25.356188	0.000945	20.770361
940.239614	-2.988700	3.592500	-10.735000	25.350250	0.000943	20.775305
941.234561	-3.026500	3.590900	-10.867000	25.342842	0.000944	20.766444
942.229693	-3.012000	3.588800	-10.808000	25.364544	0.000943	20.771166
943.233312	-3.004300	3.590700	-10.787000	25.366335	0.000943	20.776283
944.232206	-3.002800	3.590500	-10.780000	25.348017	0.000943	20.775433
945.229267	-2.990900	3.588800	-10.733000	25.330097	0.000942	20.778777
946.236877	-2.996700	3.589500	-10.756000	25.324627	0.000941	20.769017
947.242654	-2.981600	3.589800	-10.701000	25.333727	0.000942	20.762507
948.234557	-2.998400	3.588500	-10.759000	25.330220	0.000940	20.790755
949.237293	-3.016000	3.588300	-10.822000	25.359231	0.000941	20.765357
950.235479	-3.014400	3.588000	-10.815000	25.348617	0.000940	20.783622
951.229689	-3.007000	3.587400	-10.786000	25.389026	0.000938	20.785316
952.233704	-3.003500	3.587400	-10.773000	25.392011	0.000937	20.775512
953.233476	-2.987400	3.588400	-10.719000	25.357613	0.000939	20.792656
954.234322	-2.989500	3.586200	-10.718000	25.362508	0.000937	20.786665
955.236145	-3.006600	3.585300	-10.779000	25.389375	0.000937	20.789934
956.232037	-3.002600	3.584400	-10.761000	25.399311	0.000937	20.802283
957.237014	-2.999500	3.584800	-10.752000	25.364466	0.000936	20.777725
958.238382	-3.005600	3.585500	-10.776000	25.358327	0.000936	20.802381
959.232476	-2.996500	3.586200	-10.744000	25.366104	0.000936	20.798811
960.235376	-2.998100	3.583700	-10.741000	25.360142	0.000935	20.785238
961.232563	-3.002600	3.584100	-10.759000	25.363020	0.000934	20.799033
962.243655	-2.987400	3.585200	-10.709000	25.383030	0.000933	20.820547
963.240041	-3.000000	3.584500	-10.753000	25.379794	0.000932	20.793116
964.241282	-2.998700	3.583300	-10.744000	25.387998	0.000933	20.796139
965.237757	-2.984600	3.583000	-10.693000	25.405342	0.000930	20.783208
966.245417	-3.011300	3.583300	-10.790000	25.410861	0.000932	20.813406
967.238770	-3.006700	3.584000	-10.775000	25.441869	0.000932	20.794757
968.240066	-2.991600	3.584100	-10.721000	25.426759	0.000931	20.790489
969.240428	-3.027800	3.581100	-10.841000	25.407822	0.000931	20.790914
970.239254	-2.987000	3.582200	-10.699000	25.428122	0.000931	20.803237
971.242035	-3.023000	3.582200	-10.828000	25.431900	0.000927	20.813195
972.240237	-3.006000	3.581900	-10.766000	25.438309	0.000931	20.813941
973.245509	-3.002300	3.581400	-10.751000	25.459474	0.000931	20.811013
974.243639	-2.986000	3.580700	-10.691000	25.456346	0.000930	20.787482
975.239969	-2.991600	3.581100	-10.713000	25.460718	0.000927	20.778123
976.241794	-2.998500	3.580900	-10.736000	25.443642	0.000927	20.798433
977.247962	-2.974000	3.581200	-10.649000	25.416997	0.000928	20.809610
978.245445	-3.010700	3.578700	-10.772000	25.436633	0.000926	20.820318
979.240394	-3.020100	3.578100	-10.805000	25.449406	0.000926	20.817972
980.243319	-2.990200	3.580500	-10.704000	25.437499	0.000926	20.804592
981.244253	-2.997100	3.578300	-10.722000	25.440307	0.000925	20.815947
982.244826	-2.988300	3.577500	-10.690000	25.443514	0.000923	20.818693
983.248065	-2.999400	3.578800	-10.734000	25.445074	0.000924	20.821208
984.244421	-2.995600	3.578600	-10.719000	25.457129	0.000925	20.797278
985.244874	-2.998500	3.577000	-10.724000	25.452550	0.000922	20.809276
986.246994	-3.017500	3.575800	-10.789000	25.423550	0.000922	20.801017
987.245090	-3.010900	3.576200	-10.766000	25.409478	0.000921	20.808224
988.243668	-2.996400	3.577000	-10.717000	25.445817	0.000921	20.814368
989.248125	-2.994900	3.576300	-10.709000	25.423525	0.000922	20.823277
990.243880	-2.983600	3.575900	-10.668000	25.424445	0.000920	20.802864
991.246657	-3.012300	3.574600	-10.766000	25.420318	0.000920	20.804885
992.246382	-3.013200	3.574400	-10.769000	25.383663	0.000919	20.816916
993.247835	-2.982300	3.574100	-10.658000	25.353486	0.000920	20.825495
994.253625	-2.994000	3.574600	-10.702000	25.380486	0.000920	20.814199
995.249278	-3.007700	3.572600	-10.744000	25.378444	0.000918	20.822581
996.247516	-3.003500	3.574300	-10.735000	25.404917	0.000919	20.807911
997.245389	-2.999700	3.574800	-10.722000	25.416870	0.000917	20.819913
998.249551	-3.007300	3.572600	-10.743000	25.402458	0.000917	20.821089
999.248331	-2.994300	3.573200	-10.697000	25.403899	0.000916	20.836760
1000.248697	-3.014100	3.572600	-10.767000	25.414838	0.000916	20.843002
1001.248115	-3.004200	3.572100	-10.731000	25.417942	0.000916	20.809136
1002.252951	-3.015100	3.570100	-10.763000	25.440513	0.000914	20.824214
1003.256225	-2.987700	3.572200	-10.672000	25.444089	0.000916	20.830650
1004.253646	-3.019800	3.570400	-10.781000	25.460251	0.000915	20.835025
1005.249222	-2.996300	3.571400	-10.699000	25.453616	0.000914	20.823147
1006.253771	-2.999000	3.570100	-10.706000	25.438810	0.000913	20.837677
1007.256340	-2.994500	3.571800	-10.695000	25.448455	0.000913	20.816543
1008.249970	-3.021500	3.568600	-10.782000	25.422489	0.000911	20.811806
1009.256190	-3.003700	3.569000	-10.718000	25.423508	0.000910	20.826104
1010.253375	-3.017000	3.570000	-10.770000	25.425023	0.000912	20.827581
1011.253161	-2.989400	3.567700	-10.664000	25.458852	0.000909	20.831724
1012.251685	-3.025600	3.568100	-10.794000	25.490763	0.000908	20.833527
1013.253608	-3.036900	3.567700	-10.833000	25.444745	0.000910	20.837947
1014.253529	-2.991000	3.569300	-10.674000	25.430756	0.000909	20.841443
1015.255460	-3.002700	3.567200	-10.710000	25.412867	0.000908	20.831066
1016.251030	-3.002400	3.567300	-10.709000	25.440972	0.000908	20.834158
1017.253565	-3.003600	3.566700	-10.711000	25.456637	0.000907	20.842302
1018.261755	-2.993000	3.566700	-10.674000	25.481588	0.000906	20.843650
1019.254282	-2.996200	3.566800	-10.684000	25.498385	0.000908	20.820689
1020.254471	-2.993100	3.567500	-10.676000	25.495359	0.000906	20.834720
1021.257622	-2.978400	3.566400	-10.621000	25.504532	0.000904	20.834448
1022.258084	-2.996100	3.563400	-10.675000	25.500735	0.000906	20.826842
1023.255595	-2.980400	3.564800	-10.624000	25.508983	0.000905	20.822797
1024.257432	-2.976500	3.565400	-10.611000	25.534533	0.000906	20.834704
1025.254527	-2.982600	3.564300	-10.629000	25.562118	0.000905	20.834907
1026.256459	-2.995500	3.563600	-10.673000	25.534680	0.000906	20.841965
1027.261010	-3.018900	3.562600	-10.755000	25.528822	0.000900	20.825177
1028.256734	-3.004900	3.563600	-10.708000	25.526462	0.000905	20.842246
1029.257459	-2.986900	3.564300	-10.645000	25.515824	0.000902	20.816391
1030.259163	-2.984800	3.563700	-10.636000	25.530288	0.000902	20.847511
1031.259669	-3.012700	3.561800	-10.730000	25.537793	0.000902	20.828022
1032.258601	-2.997800	3.562300	-10.678000	25.544358	0.000902	20.816123
1033.259280	-2.997500	3.560500	-10.673000	25.570621	0.000901	20.843446
1034.259470	-2.985000	3.561900	-10.630000	25.573179	0.000901	20.841747
1035.257825	-2.991900	3.560100	-10.650000	25.585483	0.000900	20.860267
1036.256535	-3.006500	3.561200	-10.706000	25.560957	0.000899	20.853654
1037.261915	-2.981000	3.560800	-10.613000	25.541624	0.000900	20.849412
1038.260604	-2.986000	3.559500	-10.629000	25.573803	0.000898	20.841426
1039.258362	-3.001100	3.559500	-10.680000	25.554170	0.000896	20.860115
1040.261582	-3.011400	3.560000	-10.719000	25.603345	0.000896	20.840275
1041.259295	-2.993600	3.558400	-10.650000	25.583024	0.000895	20.843574
1042.261555	-3.015000	3.557400	-10.724000	25.611450	0.000896	20.842250
1043.264354	-2.990700	3.557900	-10.640000	25.599991	0.000894	20.825527
1044.259093	-3.013300	3.558000	-10.720000	25.592265	0.000895	20.830570
1045.258918	-2.998200	3.559300	-10.671000	25.589880	0.000895	20.856148
1046.266421	-2.995900	3.558600	-10.660000	25.592240	0.000894	20.853304
1047.258742	-3.004400	3.555600	-10.682000	25.610304	0.000894	20.849160
1048.258498	-3.013200	3.555100	-10.711000	25.612797	0.000892	20.844551
1049.266971	-3.005200	3.556700	-10.688000	25.605041	0.000891	20.839608
1050.260461	-2.988800	3.555900	-10.626000	25.592171	0.000890	20.835691
1051.265682	-2.981600	3.557000	-10.604000	25.622460	0.000890	20.830550
1052.270086	-2.987400	3.554200	-10.616000	25.633352	0.000889	20.829161
1053.266157	-2.987300	3.556000	-10.622000	25.648204	0.000888	20.838862
1054.268063	-2.970000	3.555300	-10.558000	25.660779	0.000887	20.821146
1055.269750	-3.029600	3.550700	-10.755000	25.664904	0.000887	20.818651
1056.264294	-2.994200	3.552800	-10.637000	25.642967	0.000885	20.834550
1057.265062	-2.997800	3.553000	-10.649000	25.629000	0.000886	20.813885
1058.267767	-2.992600	3.552900	-10.631000	25.660557	0.000886	20.825191
1059.262983	-2.999500	3.551400	-10.652000	25.697060	0.000884	20.831033
1060.269080	-3.014600	3.553100	-10.709000	25.694080	0.000884	20.817135
1061.270413	-2.998100	3.552300	-10.649000	25.660056	0.000885	20.830377
1062.265901	-3.020100	3.551700	-10.725000	25.653279	0.000885	20.823570
1063.266121	-3.015800	3.549400	-10.702000	25.662770	0.000883	20.817456
1064.269907	-2.995200	3.552300	-10.639000	25.669576	0.000884	20.821447
1065.267687	-3.003300	3.552400	-10.667000	25.664880	0.000883	20.819101
1066.267179	-3.000100	3.551200	-10.653000	25.618240	0.000883	20.809243
1067.266722	-3.026700	3.550900	-10.746000	25.607583	0.000883	20.815135
1068.266873	-3.014800	3.548300	-10.696000	25.629468	0.000880	20.827157
1069.267862	-2.984400	3.550600	-10.596000	25.634440	0.000881	20.824089
1070.272452	-2.991900	3.550000	-10.620000	25.632128	0.000879	20.823665
1071.270045	-2.994100	3.549700	-10.627000	25.678742	0.000879	20.807420
1072.269845	-3.004600	3.550200	-10.665000	25.677395	0.000877	20.809860
1073.270771	-3.010400	3.548800	-10.681000	25.703094	0.000880	20.807222
1074.271251	-3.020700	3.547800	-10.715000	25.681103	0.000879	20.824964
1075.272511	-2.987400	3.548600	-10.599000	25.674420	0.000879	20.831053
1076.271829	-2.994900	3.547900	-10.625000	25.673225	0.000878	20.819422
1077.269828	-3.005800	3.546400	-10.659000	25.635610	0.000876	20.813411
1078.269594	-2.993800	3.547300	-10.619000	25.604249	0.000878	20.806097
1079.275765	-2.999400	3.547600	-10.639000	25.641743	0.000878	20.809613
1080.277693	-2.994200	3.547000	-10.619000	25.623532	0.000879	20.804600
1081.272961	-2.977800	3.547100	-10.562000	25.619229	0.000877	20.787476
1082.280531	-3.015700	3.545800	-10.692000	25.630560	0.000876	20.799330
1083.274740	-3.000500	3.545700	-10.638000	25.657617	0.000875	20.811806
1084.274442	-3.025800	3.543000	-10.720000	25.674731	0.000875	20.788218
1085.278112	-2.990600	3.543900	-10.596000	25.668471	0.000875	20.796629
1086.281534	-2.998200	3.543300	-10.622000	25.674751	0.000874	20.788238
1087.272605	-2.996200	3.542800	-10.614000	25.684615	0.000873	20.787240
1088.274703	-3.001000	3.543000	-10.631000	25.698576	0.000872	20.790831
1089.277026	-2.998100	3.543000	-10.621000	25.721186	0.000873	20.801213
1090.276633	-3.011800	3.541500	-10.664000	25.757928	0.000871	20.798764
1091.278234	-2.992600	3.541900	-10.599000	25.764861	0.000871	20.798615
1092.276875	-2.994700	3.541800	-10.606000	25.785134	0.000870	20.790530
1093.279632	-2.985600	3.542200	-10.575000	25.794919	0.000870	20.797040
1094.283520	-2.982900	3.541500	-10.562000	25.799369	0.000867	20.792501
1095.280480	-3.003600	3.540600	-10.633000	25.831959	0.000868	20.808168
1096.281016	-3.000200	3.541800	-10.625000	25.815320	0.000868	20.793824
1097.277772	-2.980500	3.542100	-10.556000	25.769007	0.000867	20.780020
1098.279339	-2.991400	3.541900	-10.594000	25.751496	0.000866	20.816485
1099.278944	-3.034600	3.539000	-10.738000	25.752834	0.000866	20.789379
1100.283372	-2.991900	3.540100	-10.591000	25.753901	0.000863	20.791400
1101.283029	-3.017900	3.538300	-10.677000	25.776785	0.000864	20.802058
1102.283103	-2.986800	3.539600	-10.571000	25.778005	0.000862	20.789532
1103.283200	-3.001800	3.538800	-10.622000	25.793434	0.000862	20.794126
1104.283278	-3.002700	3.539000	-10.626000	25.792013	0.000863	20.779896
1105.285075	-3.002400	3.537100	-10.619000	25.808018	0.000862	20.808775
1106.282342	-3.017100	3.536700	-10.669000	25.792338	0.000863	20.787809
1107.281306	-3.005000	3.537200	-10.628000	25.819715	0.000860	20.813887
1108.281390	-3.016600	3.534900	-10.662000	25.820438	0.000860	20.787112
1109.281437	-3.000100	3.536000	-10.606000	25.814503	0.000858	20.804384
1110.284848	-2.986500	3.536800	-10.561000	25.765009	0.000860	20.795445
1111.285265	-2.998300	3.535700	-10.600000	25.716692	0.000858	20.790060
1112.286643	-2.985000	3.536200	-10.555000	25.690030	0.000858	20.806429
1113.285444	-3.016800	3.532200	-10.654000	25.728961	0.000859	20.791004
1114.284982	-3.003700	3.535000	-10.617000	25.748393	0.000858	20.779703
1115.286123	-2.992300	3.534200	-10.574000	25.771770	0.000857	20.789433
1116.287059	-3.019100	3.532400	-10.663000	25.783251	0.000856	20.793854
1117.281450	-3.006900	3.533900	-10.625000	25.799423	0.000856	20.781649
1118.282466	-3.001600	3.533000	-10.603000	25.823742	0.000856	20.788535
1119.286691	-3.021500	3.532100	-10.671000	25.831122	0.000857	20.787887
1120.290754	-2.981900	3.533200	-10.535000	25.846423	0.000856	20.770067
1121.284551	-3.007500	3.530700	-10.617000	25.879065	0.000854	20.778676
1122.285627	-3.007000	3.531400	-10.617000	25.867737	0.000853	20.809022
1123.289286	-3.009900	3.530800	-10.626000	25.873647	0.000853	20.761853
1124.285710	-2.996600	3.529700	-10.575000	25.892802	0.000853	20.801485
1125.289354	-2.997800	3.529900	-10.581000	25.919258	0.000850	20.789182
1126.288340	-3.013900	3.528600	-10.634000	25.940177	0.000852	20.778429
1127.293992	-2.991600	3.530000	-10.559000	25.921441	0.000850	20.786633
1128.284524	-2.999900	3.529600	-10.588000	25.928447	0.000849	20.783714
1129.289546	-3.001100	3.528700	-10.588000	25.896574	0.000848	20.784411
1130.293158	-3.022100	3.528400	-10.662000	25.939597	0.000849	20.791123
1131.288643	-3.001000	3.528200	-10.587000	25.912424	0.000849	20.791800
1132.286873	-2.964700	3.529000	-10.461000	25.878063	0.000846	20.790946
1133.289309	-2.990000	3.528500	-10.548000	25.869317	0.000847	20.793065
1134.285746	-2.990700	3.527600	-10.549000	25.846591	0.000845	20.771184
1135.287168	-2.990200	3.526200	-10.543000	25.878481	0.000845	20.778089
1136.293813	-2.993600	3.527000	-10.557000	25.872916	0.000847	20.770128
1137.288818	-2.975400	3.527700	-10.495000	25.880320	0.000844	20.779462
1138.288997	-2.999800	3.526800	-10.578000	25.878703	0.000846	20.763139
1139.286581	-2.998000	3.525800	-10.570000	25.871618	0.000844	20.785894
1140.286372	-2.992300	3.524700	-10.546000	25.856662	0.000842	20.781301
1141.293179	-2.987500	3.524900	-10.530000	25.855693	0.000842	20.781276
1142.287090	-2.970900	3.525300	-10.473000	25.824138	0.000842	20.781820
1143.290555	-3.002700	3.523900	-10.580000	25.800866	0.000839	20.779305
1144.288533	-3.007900	3.523400	-10.596000	25.766201	0.000839	20.782892
1145.290076	-3.007900	3.522000	-10.593000	25.767794	0.000840	20.764577
1146.296113	-2.986000	3.522300	-10.517000	25.803516	0.000839	20.776752
1147.290631	-2.990100	3.522900	-10.532000	25.806373	0.000839	20.772984
1148.291713	-2.989700	3.522200	-10.528000	25.767543	0.000839	20.778076
1149.289469	-3.010100	3.522000	-10.600000	25.749708	0.000837	20.786714
1150.292073	-3.016800	3.521400	-10.622000	25.732759	0.000836	20.759732
1151.294414	-3.024600	3.519800	-10.645000	25.712259	0.000835	20.753839
1152.292992	-3.008800	3.520100	-10.590000	25.704755	0.000837	20.772856
1153.292003	-2.994900	3.520700	-10.542000	25.677699	0.000836	20.764172
1154.295194	-3.001300	3.519600	-10.563000	25.664933	0.000836	20.758462
1155.292432	-3.005000	3.518800	-10.574000	25.668582	0.000834	20.774930
1156.294177	-2.985000	3.520400	-10.507000	25.669895	0.000832	20.780990
1157.292668	-2.997200	3.519200	-10.548000	25.708462	0.000833	20.758561
1158.294438	-3.007700	3.518300	-10.579000	25.667416	0.000834	20.800312
1159.293723	-2.975700	3.519200	-10.471000	25.650323	0.000833	20.771763
1160.295989	-2.991100	3.518000	-10.520000	25.649531	0.000833	20.767649
1161.294998	-2.989600	3.518300	-10.517000	25.624731	0.000831	20.787312
1162.298213	-3.005200	3.518100	-10.570000	25.602571	0.000833	20.784496
1163.296537	-2.996900	3.517000	-10.539000	25.614024	0.000829	20.760437
1164.299672	-3.004300	3.516600	-10.564000	25.622502	0.000830	20.772746
1165.298053	-2.980800	3.515800	-10.478000	25.637236	0.000831	20.760516
1166.298902	-2.997300	3.516800	-10.539000	25.664745	0.000828	20.751635
1167.297132	-3.013500	3.515200	-10.591000	25.688152	0.000827	20.774671
1168.295093	-2.979100	3.516500	-10.474000	25.707478	0.000829	20.759943
1169.299037	-2.969500	3.517100	-10.443000	25.735950	0.000828	20.751556
1170.301658	-3.003300	3.513600	-10.549000	25.766805	0.000828	20.770696
1171.295214	-3.006600	3.513900	-10.564000	25.775803	0.000828	20.767406
1172.302826	-2.998400	3.512700	-10.531000	25.796745	0.000827	20.763786
1173.297118	-2.984900	3.514000	-10.487000	25.747107	0.000826	20.740003
1174.299041	-2.986900	3.512800	-10.491000	25.770881	0.000825	20.760566
1175.301865	-3.009400	3.511100	-10.565000	25.738113	0.000826	20.757049
1176.299136	-3.006400	3.512800	-10.560000	25.715877	0.000823	20.726652
1177.299680	-3.006000	3.511300	-10.554000	25.703869	0.000825	20.770069
1178.303740	-3.019200	3.510600	-10.597000	25.721237	0.000823	20.755745
1179.297897	-3.017000	3.508800	-10.585000	25.720716	0.000823	20.751428
1180.302209	-2.991900	3.510800	-10.503000	25.692412	0.000822	20.754293
1181.303034	-3.019200	3.508800	-10.591000	25.700162	0.000823	20.745008
1182.300037	-2.987200	3.512100	-10.489000	25.718745	0.000821	20.760354
1183.304761	-2.998400	3.509500	-10.522000	25.740460	0.000822	20.742810
1184.308190	-3.001400	3.508500	-10.529000	25.794342	0.000819	20.752837
1185.304056	-3.023200	3.508200	-10.605000	25.810666	0.000820	20.759278
1186.305408	-2.997600	3.507600	-10.513000	25.806266	0.000817	20.774298
1187.304922	-2.994800	3.509500	-10.509000	25.763035	0.000817	20.754107
1188.304202	-2.995100	3.506100	-10.500000	25.726761	0.000816	20.748491
1189.306112	-2.984800	3.507500	-10.468000	25.682805	0.000816	20.748437
1190.305312	-2.996000	3.507700	-10.507000	25.680149	0.000818	20.762365
1191.304588	-3.024400	3.505500	-10.601000	25.676569	0.000815	20.757347
1192.306092	-2.989300	3.508200	-10.485000	25.705263	0.000814	20.748235
1193.306917	-2.995000	3.506600	-10.502000	25.735229	0.000815	20.761264
1194.312233	-2.999200	3.506900	-10.517000	25.783452	0.000813	20.749010
1195.305854	-3.002700	3.506700	-10.528000	25.796496	0.000813	20.747889
1196.308353	-3.013700	3.505000	-10.562000	25.804722	0.000814	20.748091
1197.311396	-3.023400	3.502600	-10.588000	25.820693	0.000811	20.724777
1198.313670	-3.010700	3.503900	-10.549000	25.798405	0.000812	20.731787
1199.311251	-2.993300	3.505200	-10.491000	25.796299	0.000810	20.726353
1200.310581	-3.003500	3.504700	-10.525000	25.816970	0.000811	20.747118
1201.314669	-2.985700	3.504600	-10.463000	25.818386	0.000811	20.742376
1202.311135	-3.006500	3.501100	-10.524000	25.854756	0.000810	20.731020
1203.312414	-3.012100	3.500800	-10.544000	25.857268	0.000808	20.747295
1204.316170	-2.986400	3.502700	-10.459000	25.874088	0.000808	20.731000
1205.315747	-3.001200	3.500800	-10.506000	25.916124	0.000807	20.745729
1206.310980	-3.006300	3.502000	-10.527000	25.900372	0.000808	20.741758
1207.316269	-3.011100	3.500100	-10.536000	25.929462	0.000806	20.755336
1208.312896	-2.983000	3.499700	-10.438000	25.911856	0.000806	20.727690
1209.314534	-2.981500	3.502200	-10.440000	25.930037	0.000806	20.739318
1210.315209	-2.989700	3.500400	-10.463000	25.951777	0.000807	20.749304
1211.311706	-2.989400	3.499100	-10.459000	25.943277	0.000806	20.736971
1212.315726	-3.011400	3.498900	-10.535000	25.923360	0.000804	20.745412
1213.311075	-2.998700	3.499500	-10.490000	25.938738	0.000803	20.721506
1214.318845	-2.996400	3.497700	-10.480000	25.958581	0.000804	20.731484
1215.319340	-2.972100	3.498200	-10.395000	25.951703	0.000803	20.716986
1216.315267	-2.999000	3.495900	-10.482000	25.963453	0.000803	20.724049
1217.313127	-2.992800	3.495900	-10.462000	25.954259	0.000802	20.745161
1218.312639	-2.975700	3.496400	-10.403000	25.946634	0.000801	20.731335
1219.312702	-3.001700	3.495800	-10.492000	25.906693	0.000800	20.738625
1220.316984	-2.985200	3.496400	-10.437000	25.907928	0.000801	20.729908
1221.322122	-3.004900	3.496000	-10.504000	25.880282	0.000801	20.743387
1222.320901	-2.989500	3.495700	-10.449000	25.848826	0.000799	20.721269
1223.317589	-3.017000	3.494500	-10.542000	25.854367	0.000799	20.730630
1224.314820	-2.996200	3.494900	-10.471000	25.871506	0.000796	20.735520
1225.318464	-3.001500	3.493600	-10.485000	25.885760	0.000800	20.731821
1226.322058	-3.020400	3.491800	-10.546000	25.902998	0.000796	20.751983
1227.317630	-2.993300	3.493800	-10.457000	25.876615	0.000796	20.731643
1228.315532	-2.986000	3.494200	-10.433000	25.874555	0.000797	20.709657
1229.317487	-2.982200	3.492500	-10.414000	25.847002	0.000796	20.726551
1230.324123	-2.998700	3.492200	-10.472000	25.837066	0.000795	20.740277
1231.324537	-3.022800	3.491400	-10.553000	25.828245	0.000794	20.733787
1232.319749	-2.994900	3.490300	-10.452000	25.782360	0.000795	20.723256
1233.321087	-2.992600	3.491800	-10.448000	25.777192	0.000793	20.717116
1234.320819	-3.000500	3.490600	-10.473000	25.776170	0.000793	20.725099
1235.318800	-2.997900	3.489700	-10.461000	25.795552	0.000792	20.726551
1236.323123	-3.013600	3.489500	-10.515000	25.812865	0.000795	20.711698
1237.321911	-2.988000	3.490200	-10.428000	25.842656	0.000791	20.730719
1238.321875	-3.001200	3.488100	-10.467000	25.871148	0.000794	20.738005
1239.325605	-3.010200	3.487400	-10.497000	25.921548	0.000792	20.714667
1240.323438	-3.010200	3.487600	-10.497000	25.910496	0.000791	20.713046
1241.325346	-3.016500	3.487600	-10.520000	25.880239	0.000790	20.736232
1242.330015	-2.978400	3.488100	-10.388000	25.845061	0.000790	20.713694
1243.326582	-3.016900	3.485400	-10.513000	25.845134	0.000789	20.724674
1244.323880	-2.974500	3.486700	-10.369000	25.831643	0.000789	20.718707
1245.322669	-2.987000	3.485900	-10.410000	25.857923	0.000787	20.725667
1246.322965	-3.004600	3.485500	-10.471000	25.861449	0.000788	20.720200
1247.326064	-3.003800	3.484500	-10.465000	25.863115	0.000788	20.728987
1248.324299	-2.995800	3.485000	-10.440000	25.871862	0.000787	20.718332
1249.327262	-2.999300	3.484400	-10.450000	25.896971	0.000787	20.724591
1250.325886	-3.010000	3.482600	-10.481000	25.928516	0.000788	20.741109
1251.328098	-3.006600	3.482300	-10.468000	25.930777	0.000785	20.729629
1252.330401	-3.011000	3.483700	-10.488000	25.928914	0.000784	20.731551
1253.327309	-3.001700	3.483400	-10.455000	25.930030	0.000783	20.716076
1254.330389	-3.015900	3.481300	-10.499000	25.968854	0.000783	20.717148
1255.329175	-3.013800	3.481800	-10.493000	25.963264	0.000782	20.715325
1256.327815	-2.993500	3.481400	-10.420000	25.965644	0.000782	20.725303
1257.330833	-3.012600	3.480400	-10.484000	25.899622	0.000781	20.728676
1258.333599	-3.020800	3.479300	-10.510000	25.851376	0.000781	20.722409
1259.330833	-2.983400	3.479700	-10.380000	25.812395	0.000779	20.724503
1260.335413	-2.984700	3.479600	-10.384000	25.796592	0.000780	20.727596
1261.334639	-2.998600	3.479300	-10.432000	25.800275	0.000779	20.719914
1262.332943	-2.991500	3.479800	-10.409000	25.811028	0.000779	20.697524
1263.339025	-2.999100	3.479200	-10.432000	25.819328	0.000776	20.734313
1264.334939	-2.985700	3.479500	-10.387000	25.833960	0.000777	20.747115
1265.337222	-2.995800	3.479000	-10.421000	25.820748	0.000778	20.720566
1266.332697	-2.997600	3.478700	-10.427000	25.846857	0.000775	20.726404
1267.336559	-3.006300	3.477300	-10.453000	25.833292	0.000775	20.709457
1268.339245	-2.997100	3.477400	-10.419000	25.834014	0.000776	20.745273
1269.339962	-2.981300	3.476200	-10.363000	25.819755	0.000775	20.725733
1270.335151	-2.981000	3.477100	-10.364000	25.850411	0.000774	20.742778
1271.339987	-2.987900	3.474800	-10.382000	25.869169	0.000773	20.735068
1272.339345	-2.993300	3.476900	-10.406000	25.911279	0.000774	20.727584
1273.335435	-2.978700	3.475200	-10.350000	25.954552	0.000772	20.726488
1274.338973	-2.978800	3.476600	-10.356000	25.986099	0.000770	20.719775
1275.335414	-2.994200	3.473700	-10.400000	26.009873	0.000773	20.728014
1276.336456	-2.977900	3.474100	-10.345000	26.032953	0.000772	20.735555
1277.334923	-2.971900	3.473900	-10.323000	26.045818	0.000771	20.725721
1278.335623	-2.984300	3.474100	-10.367000	26.058265	0.000769	20.743443
1279.336969	-2.999600	3.473700	-10.418000	26.041428	0.000770	20.736009
1280.337132	-2.998200	3.472900	-10.411000	26.027668	0.000769	20.751109
1281.340164	-3.009200	3.470300	-10.441000	26.027373	0.000769	20.710981
1282.339159	-2.970800	3.473800	-10.318000	26.004774	0.000768	20.730951
1283.340179	-2.999700	3.471200	-10.412000	25.967863	0.000767	20.736542
1284.341082	-2.993000	3.471200	-10.389000	25.935396	0.000766	20.740909
1285.338195	-2.995600	3.469600	-10.392000	25.931900	0.000765	20.723645
1286.339443	-2.981000	3.473100	-10.352000	25.961314	0.000764	20.746558
1287.341866	-3.009800	3.469300	-10.441000	25.909122	0.000764	20.729686
1288.338020	-2.998300	3.468500	-10.399000	25.915484	0.000766	20.736077
1289.339184	-3.008000	3.467800	-10.430000	25.906270	0.000765	20.720656
1290.341542	-3.003500	3.468200	-10.416000	25.899441	0.000764	20.735607
1291.343826	-3.001500	3.467600	-10.407000	25.889382	0.000764	20.734985
1292.343164	-2.997300	3.467300	-10.391000	25.884042	0.000763	20.733888
1293.339874	-3.006700	3.467800	-10.425000	25.911639	0.000762	20.733637
1294.347283	-2.976000	3.468700	-10.321000	25.941924	0.000760	20.736086
1295.353734	-3.009300	3.466000	-10.430000	25.977542	0.000761	20.713548
1296.349386	-2.990300	3.465900	-10.363000	25.964106	0.000761	20.724706
1297.339630	-3.014700	3.464700	-10.444000	25.915444	0.000761	20.740778
1298.340518	-3.011900	3.465300	-10.436000	25.911447	0.000762	20.717321
1299.338112	-3.005100	3.464300	-10.410000	25.933732	0.000759	20.734969
1300.341870	-2.996100	3.463200	-10.374000	25.951117	0.000758	20.720191
1301.346084	-3.001400	3.463700	-10.395000	25.951938	0.000758	20.733344
1302.340506	-3.023200	3.461600	-10.463000	26.003705	0.000759	20.736515
1303.345419	-2.978600	3.463700	-10.315000	26.020026	0.000756	20.731576
1304.342058	-3.002400	3.462900	-10.396000	26.062356	0.000757	20.746606
1305.341381	-3.001000	3.461400	-10.387000	26.065999	0.000757	20.740783
1306.341949	-3.013700	3.462200	-10.432000	26.077108	0.000756	20.742462
1307.341738	-2.990300	3.462500	-10.353000	26.100649	0.000754	20.730079
1308.338030	-2.998600	3.459900	-10.374000	26.121167	0.000754	20.726513
1309.341708	-2.997600	3.460900	-10.373000	26.129189	0.000755	20.743583
1310.342854	-2.978200	3.460000	-10.303000	26.078848	0.000754	20.738520
1311.343494	-2.990600	3.459700	-10.344000	26.078047	0.000754	20.725861
1312.344391	-2.992300	3.459700	-10.351000	26.087534	0.000754	20.734920
1313.342336	-2.989300	3.459200	-10.339000	26.068515	0.000751	20.743311
1314.344529	-2.981700	3.459700	-10.314000	26.047702	0.000751	20.746107
1315.338766	-3.001700	3.459200	-10.382000	26.012956	0.000752	20.732533
1316.341514	-2.983500	3.458600	-10.317000	26.030162	0.000752	20.750296
1317.340118	-2.994800	3.457400	-10.353000	26.061215	0.000748	20.755417
1318.342309	-3.013400	3.455000	-10.410000	26.080691	0.000751	20.736104
1319.345134	-2.983100	3.456900	-10.311000	26.079324	0.000748	20.743266
1320.345773	-2.997000	3.456000	-10.356000	26.052823	0.000747	20.747934
1321.342547	-3.011100	3.455600	-10.404000	26.064331	0.000749	20.753332
1322.344938	-3.002000	3.454800	-10.369000	26.099945	0.000748	20.746916
1323.345422	-3.003000	3.454500	-10.373000	26.079309	0.000747	20.754157
1324.341662	-3.003700	3.453100	-10.370000	26.087528	0.000748	20.751984
1325.344802	-2.982300	3.454600	-10.301000	26.091480	0.000747	20.760696
1326.341378	-2.999500	3.454100	-10.359000	26.095481	0.000746	20.741008
1327.344255	-2.991600	3.452000	-10.326000	26.124517	0.000745	20.751692
1328.343751	-2.978000	3.453800	-10.284000	26.143913	0.000746	20.741309
1329.343819	-3.013300	3.452000	-10.401000	26.129732	0.000744	20.768786
1330.350750	-3.004200	3.452400	-10.371000	26.145555	0.000744	20.748649
1331.342895	-3.009700	3.452400	-10.389000	26.166740	0.000744	20.748599
1332.344581	-3.014600	3.450300	-10.400000	26.181446	0.000743	20.755317
1333.348105	-2.996300	3.450900	-10.338000	26.184208	0.000741	20.741496
1334.345682	-3.007200	3.450300	-10.374000	26.195980	0.000744	20.748584
1335.345207	-3.024900	3.448800	-10.431000	26.230548	0.000743	20.743492
1336.345481	-3.021900	3.448800	-10.421000	26.237827	0.000742	20.761238
1337.343047	-3.033200	3.447100	-10.454000	26.259683	0.000739	20.755227
1338.347837	-2.993000	3.449700	-10.324000	26.265517	0.000742	20.751132
1339.350045	-2.990600	3.448900	-10.313000	26.258263	0.000739	20.761387
1340.349615	-2.995300	3.448000	-10.327000	26.234725	0.000739	20.771398
1341.347626	-3.001000	3.448000	-10.347000	26.191959	0.000739	20.754027
1342.342235	-3.005600	3.446700	-10.358000	26.137021	0.000739	20.774688
1343.345897	-2.986700	3.446300	-10.292000	26.125495	0.000735	20.760735
1344.357108	-2.986500	3.448200	-10.297000	26.111244	0.000738	20.762537
1345.347626	-2.989600	3.446800	-10.304000	26.083398	0.000736	20.756843
1346.351130	-3.013900	3.444800	-10.382000	26.057890	0.000736	20.771991
1347.348349	-3.010800	3.445000	-10.370000	26.001927	0.000736	20.774560
1348.348334	-2.984100	3.445500	-10.281000	26.021999	0.000736	20.774337
1349.348751	-3.003700	3.443800	-10.343000	26.010451	0.000735	20.751829
1350.351129	-3.007700	3.444100	-10.358000	26.019689	0.000733	20.759213
1351.348952	-3.008700	3.442700	-10.356000	26.010673	0.000733	20.769121
1352.353622	-2.990900	3.443700	-10.299000	26.002119	0.000734	20.774753
1353.348542	-3.006900	3.444600	-10.356000	25.981510	0.000735	20.770643
1354.350556	-2.992500	3.441500	-10.298000	25.966974	0.000733	20.755090
1355.351106	-3.015600	3.441200	-10.376000	25.964240	0.000732	20.779371
1356.353581	-3.002300	3.441000	-10.330000	25.969953	0.000731	20.766144
1357.355093	-3.008900	3.440100	-10.349000	25.951891	0.000732	20.763171
1358.348101	-3.021400	3.439900	-10.392000	25.955175	0.000731	20.760780
1359.350984	-2.987100	3.440100	-10.274000	25.938622	0.000731	20.749366
1360.354542	-2.980700	3.440700	-10.255000	25.902605	0.000732	20.754907
1361.352478	-2.994900	3.439000	-10.298000	25.898829	0.000730	20.773874
1362.349920	-2.991400	3.437900	-10.282000	25.898882	0.000730	20.764445
1363.355934	-3.006600	3.440200	-10.342000	25.910550	0.000731	20.752458
1364.353455	-3.012200	3.438000	-10.354000	25.916041	0.000728	20.772200
1365.357087	-3.015700	3.437700	-10.364000	25.967088	0.000728	20.782706
1366.356120	-2.993100	3.438800	-10.293000	25.989422	0.000727	20.786178
1367.354880	-2.983100	3.437600	-10.254000	25.999824	0.000727	20.790465
1368.359977	-3.001400	3.435900	-10.312000	26.036713	0.000727	20.774422
1369.358767	-2.991100	3.436800	-10.278000	26.014311	0.000723	20.781312
1370.358059	-3.004600	3.436400	-10.324000	25.990287	0.000724	20.779935
1371.357722	-3.022900	3.433700	-10.378000	26.000699	0.000724	20.787076
1372.356038	-3.009100	3.435700	-10.337000	25.961675	0.000725	20.783906
1373.351545	-3.022700	3.432800	-10.375000	25.934970	0.000723	20.787422
1374.358887	-2.992000	3.434900	-10.276000	25.894256	0.000724	20.791092
1375.352664	-3.006200	3.435300	-10.326000	25.878833	0.000723	20.783658
1376.355547	-2.970500	3.434500	-10.201000	25.858832	0.000722	20.791542
1377.353774	-3.005500	3.433200	-10.318000	25.824474	0.000720	20.775519
1378.354897	-3.004400	3.432500	-10.311000	25.807264	0.000722	20.800431
1379.353697	-3.016900	3.432100	-10.353000	25.800607	0.000721	20.794218
1380.355057	-3.003200	3.432400	-10.307000	25.827261	0.000720	20.780690
1381.357241	-3.001400	3.431700	-10.298000	25.861447	0.000719	20.800333
1382.353651	-3.014600	3.430900	-10.342000	25.881124	0.000719	20.771261
1383.351841	-2.976600	3.432600	-10.216000	25.943302	0.000718	20.773508
1384.353478	-2.980400	3.430500	-10.223000	25.965739	0.000718	20.787041
1385.359159	-3.002600	3.430200	-10.298000	25.981535	0.000716	20.789634
1386.356685	-2.980900	3.430500	-10.224000	26.032234	0.000717	20.794104
1387.360087	-3.003400	3.429300	-10.298000	26.067505	0.000716	20.810101
1388.357439	-2.987500	3.429500	-10.244000	26.046170	0.000715	20.806209
1389.357585	-3.009700	3.428800	-10.317000	26.048456	0.000714	20.798074
1390.353862	-3.015200	3.428200	-10.335000	26.062245	0.000715	20.808135
1391.359074	-2.982000	3.427600	-10.219000	26.116891	0.000712	20.799980
1392.362049	-2.965400	3.427600	-10.164000	26.134798	0.000713	20.793317
1393.363322	-2.977100	3.427100	-10.202000	26.166488	0.000713	20.789124
1394.365441	-2.994400	3.425300	-10.256000	26.162315	0.000713	20.813854
1395.358472	-3.006100	3.425700	-10.296000	26.178215	0.000712	20.803753
1396.358664	-3.011100	3.424900	-10.311000	26.194755	0.000713	20.787657
1397.363018	-3.012600	3.425500	-10.319000	26.208537	0.000711	20.801506
1398.361475	-2.997400	3.425000	-10.265000	26.200569	0.000710	20.792551
1399.359490	-3.015100	3.423700	-10.321000	26.133613	0.000711	20.806351
1400.367162	-2.975600	3.424500	-10.189000	26.114492	0.000709	20.799940
1401.365965	-2.981600	3.423600	-10.206000	26.090302	0.000708	20.785592
1402.367960	-3.003900	3.423700	-10.284000	26.086153	0.000710	20.798967
1403.366087	-2.952600	3.426100	-10.114000	26.088419	0.000707	20.805511
1404.361643	-3.015400	3.421400	-10.315000	26.109458	0.000706	20.784450
1405.367809	-2.995200	3.422300	-10.249000	26.133278	0.000706	20.804118
1406.366499	-3.012700	3.422700	-10.311000	26.128805	0.000706	20.820960
1407.366251	-3.015800	3.420200	-10.313000	26.160549	0.000705	20.805441
1408.370187	-2.989400	3.421100	-10.226000	26.187199	0.000705	20.799979
1409.374857	-3.003100	3.419900	-10.269000	26.207961	0.000705	20.807091
1410.373209	-2.998100	3.419300	-10.250000	26.234487	0.000705	20.815729
1411.371786	-2.997400	3.420900	-10.253000	26.242508	0.000705	20.809091
1412.376426	-2.990700	3.419300	-10.225000	26.263966	0.000702	20.824016
1413.373701	-3.009900	3.418500	-10.288000	26.278622	0.000702	20.799864
1414.374831	-2.987000	3.418200	-10.209000	26.292403	0.000704	20.811343
1415.370174	-2.999700	3.417000	-10.249000	26.274695	0.000700	20.818677
1416.371707	-3.004200	3.416900	-10.264000	26.255208	0.000701	20.800990
1417.373779	-2.987500	3.418400	-10.210000	26.255208	0.000699	20.826120
1418.372180	-3.003000	3.416500	-10.258000	26.256697	0.000699	20.806754
1419.374493	-3.000700	3.415600	-10.248000	26.245968	0.000700	20.816835
1420.368783	-3.024100	3.414300	-10.324000	26.252450	0.000699	20.820504
1421.378057	-3.009400	3.415200	-10.277000	26.261440	0.000698	20.819581
1422.373298	-3.009500	3.414500	-10.275000	26.254790	0.000699	20.825226
1423.371088	-3.009000	3.413400	-10.270000	26.226057	0.000698	20.812473
1424.377798	-2.997700	3.413600	-10.232000	26.233483	0.000697	20.837005
1425.372167	-2.992200	3.414300	-10.215000	26.242694	0.000697	20.807855
1426.370392	-3.040000	3.411700	-10.370000	26.251560	0.000697	20.835731
1427.374371	-2.989200	3.413500	-10.203000	26.269416	0.000696	20.805312
1428.375317	-3.019200	3.411700	-10.299000	26.270384	0.000695	20.811500
1429.374302	-3.004700	3.413200	-10.254000	26.294127	0.000695	20.823981
1430.378480	-3.002600	3.411000	-10.241000	26.279772	0.000693	20.803390
1431.373701	-2.995800	3.410900	-10.217000	26.247216	0.000696	20.838477
1432.375371	-2.979800	3.411400	-10.164000	26.159771	0.000694	20.823152
1433.372157	-2.986600	3.411300	-10.187000	26.117163	0.000695	20.840082
1434.377368	-2.996000	3.410600	-10.217000	26.096995	0.000693	20.810808
1435.372733	-3.011200	3.409500	-10.266000	26.095751	0.000692	20.823309
1436.376597	-2.982800	3.411500	-10.175000	26.117664	0.000693	20.808343
1437.377019	-3.007300	3.410400	-10.255000	26.177490	0.000691	20.813930
1438.375237	-3.033200	3.407900	-10.336000	26.195268	0.000690	20.822786
1439.375898	-2.992000	3.409000	-10.198000	26.241809	0.000691	20.827354
1440.377297	-2.993000	3.408100	-10.200000	26.228774	0.000691	20.846023
1441.377608	-2.998800	3.409000	-10.222000	26.180522	0.000688	20.828356
1442.375398	-2.982700	3.408200	-10.164000	26.165005	0.000688	20.851169
1443.381098	-2.995900	3.407900	-10.208000	26.133089	0.000688	20.824790
1444.381535	-3.030900	3.405000	-10.318000	26.111879	0.000688	20.843781
1445.384799	-3.001900	3.406100	-10.224000	26.076220	0.000689	20.804634
1446.379601	-3.019400	3.405200	-10.281000	26.084764	0.000686	20.844511
1447.383667	-3.000700	3.404200	-10.214000	26.089803	0.000688	20.833453
1448.380721	-2.999500	3.404300	-10.211000	26.094571	0.000686	20.844408
1449.385802	-3.002300	3.404500	-10.221000	26.132848	0.000686	20.841617
1450.387100	-3.007000	3.403700	-10.234000	26.122692	0.000687	20.830465
1451.381868	-2.995300	3.404100	-10.195000	26.103090	0.000683	20.831631
1452.384768	-2.995800	3.404500	-10.198000	26.115860	0.000683	20.830238
1453.382121	-2.996700	3.403500	-10.198000	26.141219	0.000683	20.841019
1454.382257	-3.006000	3.402200	-10.225000	26.118613	0.000683	20.837271
1455.382375	-3.004800	3.401800	-10.220000	26.140668	0.000683	20.849949
1456.383795	-2.999900	3.400600	-10.200000	26.128001	0.000681	20.842437
1457.389525	-3.003300	3.402200	-10.217000	26.136672	0.000681	20.834554
1458.381831	-2.983600	3.402500	-10.151000	26.158998	0.000681	20.840392
1459.386239	-2.997300	3.400100	-10.190000	26.182911	0.000680	20.839765
1460.385170	-2.987100	3.400600	-10.156000	26.201166	0.000679	20.870909
1461.384367	-3.019000	3.398700	-10.260000	26.204350	0.000683	20.879799
1462.382735	-2.987800	3.400500	-10.159000	26.228361	0.000678	20.856513
1463.387237	-3.019300	3.397900	-10.258000	26.175189	0.000680	20.868040
1464.386626	-2.983400	3.398900	-10.139000	26.191183	0.000678	20.865620
1465.387712	-2.972300	3.398100	-10.099000	26.201067	0.000677	20.834777
1466.383846	-2.975000	3.398800	-10.111000	26.210229	0.000678	20.854888
1467.387274	-2.992100	3.397100	-10.163000	26.223864	0.000678	20.866692
1468.392368	-3.000700	3.396300	-10.190000	26.240000	0.000676	20.863941
1469.388614	-3.005500	3.397200	-10.210000	26.206754	0.000676	20.855663
1470.388164	-3.016500	3.394900	-10.240000	26.194329	0.000676	20.853135
1471.387888	-2.987800	3.396500	-10.146000	26.175927	0.000675	20.857876
1472.383754	-3.028200	3.394200	-10.277000	26.153248	0.000674	20.863062
1473.388679	-3.010300	3.395900	-10.222000	26.134102	0.000675	20.872747
1474.387918	-3.025800	3.395000	-10.271000	26.127766	0.000674	20.865907
1475.385919	-3.023800	3.393300	-10.260000	26.166037	0.000674	20.853629
1476.391313	-3.014100	3.392800	-10.225000	26.194590	0.000672	20.863828
1477.389721	-3.002200	3.394100	-10.189000	26.195858	0.000671	20.866051
1478.388441	-3.001500	3.394100	-10.185000	26.179339	0.000671	20.866046
1479.387882	-2.991900	3.393300	-10.152000	26.186589	0.000672	20.869538
1480.385806	-2.983000	3.393800	-10.123000	26.220886	0.000672	20.856588
1481.386431	-2.993200	3.392100	-10.153000	26.252200	0.000671	20.865295
1482.386460	-3.013800	3.391000	-10.219000	26.290835	0.000669	20.881836
1483.386543	-2.983300	3.392400	-10.119000	26.299225	0.000669	20.853759
1484.397354	-2.969500	3.392900	-10.075000	26.327784	0.000668	20.833149
1485.388775	-2.996500	3.390200	-10.157000	26.338134	0.000667	20.860145
1486.387945	-2.985500	3.391300	-10.123000	26.390900	0.000668	20.858648
1487.390765	-2.986900	3.390400	-10.126000	26.405574	0.000668	20.860594
1488.387477	-3.015000	3.388600	-10.215000	26.394025	0.000665	20.869850
1489.389074	-3.017500	3.388600	-10.223000	26.407780	0.000667	20.856648
1490.398477	-2.996800	3.388000	-10.151000	26.371548	0.000666	20.842519
1491.392827	-2.992700	3.390000	-10.145000	26.346293	0.000665	20.867396
1492.392429	-2.994900	3.387000	-10.143000	26.344238	0.000664	20.856797
1493.392376	-3.027200	3.386800	-10.251000	26.369214	0.000666	20.853448
1494.390858	-3.006600	3.386900	-10.182000	26.380409	0.000662	20.858536
1495.391493	-3.014100	3.386100	-10.205000	26.374551	0.000662	20.850752
1496.397541	-2.990000	3.386400	-10.125000	26.410282	0.000664	20.858215
1497.399776	-3.006100	3.386800	-10.178000	26.420435	0.000661	20.848505
1498.397919	-2.992800	3.385500	-10.132000	26.413560	0.000660	20.815043
1499.392419	-2.976400	3.385300	-10.076000	26.431531	0.000663	20.857286
1500.393117	-2.987900	3.386000	-10.116000	26.388306	0.000660	20.831861
1501.397421	-2.989800	3.385800	-10.122000	26.375445	0.000659	20.813246
1502.392936	-3.008300	3.384700	-10.181000	26.375814	0.000659	20.832582
1503.402957	-2.986100	3.383400	-10.102000	26.375666	0.000658	20.843813
1504.394165	-3.025400	3.381600	-10.230000	26.399948	0.000658	20.841191
1505.396141	-2.998500	3.382600	-10.142000	26.411275	0.000658	20.834083
1506.394714	-2.981100	3.383600	-10.086000	26.413481	0.000657	20.855740
1507.395007	-2.984700	3.382400	-10.095000	26.447944	0.000655	20.821627
1508.397774	-2.992300	3.383000	-10.122000	26.462047	0.000655	20.825371
1509.398593	-3.002500	3.381800	-10.153000	26.490375	0.000656	20.841042
1510.398993	-2.995900	3.381200	-10.128000	26.469919	0.000653	20.833757
1511.404330	-3.005500	3.380100	-10.158000	26.498149	0.000654	20.819459
1512.401195	-2.990200	3.381400	-10.110000	26.519971	0.000652	20.843289
1513.396118	-3.000400	3.378900	-10.137000	26.525356	0.000656	20.830211
1514.407370	-3.018700	3.377900	-10.195000	26.482061	0.000654	20.841694
1515.397886	-2.994000	3.377400	-10.110000	26.439674	0.000654	20.832755
1516.398525	-2.986200	3.378500	-10.087000	26.387707	0.000653	20.812767
1517.397207	-2.989300	3.378200	-10.098000	26.396621	0.000651	20.803709
1518.401640	-3.029900	3.377200	-10.232000	26.371995	0.000653	20.824003
1519.399355	-3.012800	3.377600	-10.175000	26.386743	0.000650	20.804686
1520.400842	-3.032700	3.375700	-10.235000	26.425875	0.000650	20.831214
1521.403237	-3.009400	3.376800	-10.161000	26.386094	0.000648	20.842440
1522.397153	-3.000300	3.377600	-10.133000	26.389746	0.000647	20.827144
1523.400371	-3.023200	3.375100	-10.202000	26.354928	0.000648	20.818704
1524.397546	-3.020200	3.375300	-10.193000	26.371765	0.000648	20.814762
1525.404546	-2.982800	3.375900	-10.069000	26.338391	0.000648	20.807774
1526.400743	-2.992300	3.376500	-10.102000	26.306706	0.000647	20.803432
1527.400765	-2.989200	3.375800	-10.091000	26.322891	0.000646	20.808791
1528.405213	-3.026300	3.373900	-10.209000	26.338239	0.000647	20.811414
1529.404438	-3.018200	3.374000	-10.182000	26.331408	0.000644	20.825411
1530.403947	-2.990100	3.375100	-10.091000	26.365475	0.000646	20.819346
1531.401529	-2.999100	3.373500	-10.116000	26.357680	0.000645	20.805823
1532.410848	-3.010700	3.372600	-10.152000	26.373072	0.000647	20.836465
1533.399397	-3.008300	3.373400	-10.148000	26.425262	0.000644	20.822537
1534.402336	-3.012200	3.372800	-10.159000	26.435640	0.000643	20.813054
1535.402942	-2.992800	3.372000	-10.091000	26.433925	0.000646	20.797106
1536.405087	-3.015900	3.371700	-10.167000	26.473482	0.000643	20.820270
1537.404512	-3.020100	3.370800	-10.179000	26.505231	0.000642	20.799551
1538.407042	-2.993700	3.371300	-10.092000	26.486337	0.000642	20.813277
1539.403070	-3.007400	3.370100	-10.135000	26.493114	0.000642	20.809656
1540.403549	-3.015500	3.368200	-10.156000	26.439734	0.000640	20.789668
1541.407528	-2.998300	3.368800	-10.099000	26.405468	0.000641	20.835833
1542.402491	-3.004300	3.368900	-10.120000	26.365613	0.000640	20.806683
1543.410151	-2.999900	3.368300	-10.104000	26.393448	0.000641	20.800045
1544.410106	-2.976600	3.370200	-10.030000	26.405488	0.000639	20.829689
1545.407224	-2.999400	3.368500	-10.102000	26.421385	0.000639	20.802994
1546.409991	-2.989000	3.368600	-10.068000	26.381010	0.000639	20.805088
1547.408148	-3.032400	3.366400	-10.207000	26.369613	0.000637	20.815919
1548.406402	-3.008500	3.367400	-10.129000	26.336436	0.000637	20.807232
1549.406802	-3.033600	3.364600	-10.206000	26.330509	0.000637	20.783731
1550.407249	-2.998900	3.367100	-10.096000	26.371122	0.000634	20.809849
1551.403336	-3.003300	3.365900	-10.107000	26.391959	0.000637	20.811825
1552.409748	-2.991200	3.366000	-10.068000	26.416466	0.000634	20.808955
1553.407087	-2.969300	3.366600	-9.994500	26.414230	0.000634	20.816191
1554.409797	-2.996400	3.364800	-10.082000	26.443331	0.000633	20.790439
1555.409205	-2.985600	3.365300	-10.046000	26.459198	0.000632	20.805438
1556.405747	-3.007000	3.364300	-10.116000	26.490136	0.000634	20.785326
1557.410056	-2.999500	3.365100	-10.093000	26.503290	0.000633	20.802816
1558.409235	-2.992300	3.364300	-10.066000	26.508229	0.000632	20.779805
1559.406160	-3.001800	3.363600	-10.096000	26.508381	0.000630	20.794657
1560.403196	-2.983500	3.363100	-10.032000	26.518410	0.000630	20.819436
1561.405598	-3.005200	3.363400	-10.107000	26.497404	0.000631	20.797847
1562.405129	-3.000000	3.361700	-10.084000	26.486308	0.000628	20.804238
1563.408575	-3.012200	3.361100	-10.124000	26.497482	0.000630	20.807409
1564.408652	-2.982500	3.361400	-10.024000	26.521933	0.000628	20.802115
1565.412725	-2.998500	3.360900	-10.077000	26.532586	0.000627	20.806659
1566.410581	-2.984100	3.360700	-10.028000	26.544378	0.000627	20.781054
1567.408610	-2.999900	3.360300	-10.079000	26.557758	0.000624	20.810625
1568.413065	-3.015000	3.359900	-10.129000	26.524989	0.000624	20.804713
1569.406036	-3.002500	3.360000	-10.087000	26.514784	0.000625	20.783074
1570.409234	-3.009000	3.359600	-10.107000	26.486858	0.000624	20.784877
1571.413431	-3.020700	3.358500	-10.144000	26.469999	0.000623	20.792113
1572.409786	-2.971500	3.357900	-9.977000	26.474766	0.000623	20.785998
1573.409640	-2.993800	3.358500	-10.054000	26.457360	0.000622	20.779409
1574.411120	-3.018200	3.357000	-10.131000	26.407006	0.000623	20.777636
1575.411534	-3.007800	3.358300	-10.100000	26.384710	0.000621	20.795057
1576.409385	-2.989200	3.356600	-10.032000	26.388091	0.000621	20.786126
1577.410407	-3.006500	3.355200	-10.086000	26.403979	0.000621	20.803517
1578.407854	-2.984400	3.358100	-10.020000	26.459350	0.000621	20.796108
1579.416970	-3.006600	3.355100	-10.086000	26.458903	0.000620	20.795185
1580.413083	-2.996800	3.356300	-10.058000	26.482097	0.000618	20.797634
1581.413373	-2.995900	3.354300	-10.049000	26.493963	0.000619	20.773526
1582.410709	-2.984700	3.355100	-10.012000	26.478794	0.000620	20.786729
1583.413397	-2.983800	3.353900	-10.005000	26.475369	0.000617	20.794666
1584.419038	-2.991000	3.353800	-10.031000	26.479344	0.000619	20.774953
1585.414359	-3.008600	3.352800	-10.086000	26.495379	0.000617	20.785380
1586.410256	-3.011000	3.353000	-10.095000	26.516832	0.000614	20.762373
1587.408413	-3.005100	3.353000	-10.075000	26.545733	0.000615	20.771511
1588.413686	-3.003200	3.352300	-10.066000	26.490337	0.000615	20.783158
1589.423520	-3.003300	3.352300	-10.067000	26.501643	0.000614	20.782668
1590.418088	-2.989000	3.352200	-10.018000	26.512016	0.000611	20.780767
1591.412747	-3.000800	3.352600	-10.059000	26.526114	0.000615	20.774549
1592.417186	-3.004100	3.350100	-10.062000	26.516709	0.000614	20.767466
1593.412854	-2.993400	3.350500	-10.028000	26.501196	0.000612	20.777477
1594.413206	-2.998700	3.351300	-10.049000	26.517308	0.000610	20.794147
1595.417238	-3.006800	3.349900	-10.071000	26.551296	0.000611	20.782792
1596.412340	-3.003400	3.350000	-10.060000	26.543650	0.000611	20.788383
1597.412105	-3.014800	3.348000	-10.092000	26.556185	0.000612	20.777749
1598.412755	-3.016200	3.347300	-10.095000	26.583051	0.000611	20.782945
1599.411040	-2.995500	3.348400	-10.029000	26.580668	0.000611	20.762531
1600.413141	-2.984700	3.349100	-9.993900	26.599039	0.000608	20.770567
1601.420619	-2.991700	3.347500	-10.013000	26.618255	0.000608	20.758115
1602.416478	-2.996300	3.347200	-10.029000	26.581439	0.000608	20.760461
1603.418879	-3.004900	3.346600	-10.055000	26.568704	0.000608	20.773738
1604.418005	-3.009900	3.346800	-10.073000	26.574811	0.000609	20.760436
1605.415733	-3.019300	3.345000	-10.099000	26.569151	0.000606	20.776084
1606.422230	-3.023600	3.345000	-10.113000	26.562350	0.000605	20.776360
1607.418602	-3.026700	3.344400	-10.121000	26.544401	0.000604	20.771120
1608.422110	-2.968300	3.345300	-9.928200	26.557978	0.000605	20.768646
1609.419055	-2.987700	3.346100	-9.996800	26.539286	0.000604	20.766452
1610.420821	-2.994000	3.346000	-10.016000	26.569180	0.000604	20.796976
1611.418907	-2.992000	3.345100	-10.007000	26.577822	0.000602	20.800922
1612.422258	-2.999000	3.344100	-10.028000	26.583409	0.000601	20.786149
1613.419957	-2.987300	3.344600	-9.989600	26.591928	0.000602	20.769583
1614.422252	-3.033400	3.342400	-10.137000	26.555358	0.000600	20.780237
1615.421227	-2.990600	3.342500	-9.995300	26.572712	0.000602	20.769232
1616.420842	-3.014400	3.341500	-10.071000	26.583487	0.000600	20.769632
1617.424306	-2.990700	3.342400	-9.995000	26.587708	0.000599	20.770556
1618.427675	-2.999100	3.342200	-10.021000	26.592852	0.000597	20.784262
1619.425279	-3.013700	3.341200	-10.068000	26.656556	0.000596	20.780024
1620.425032	-3.014000	3.340800	-10.067000	26.656556	0.000597	20.765325
1621.421366	-3.005800	3.339400	-10.037000	26.647496	0.000596	20.748156
1622.422847	-2.972500	3.340400	-9.928200	26.590380	0.000597	20.752853
1623.423868	-2.990200	3.340300	-9.987200	26.560069	0.000596	20.757471
1624.419740	-2.999100	3.338900	-10.013000	26.549175	0.000595	20.766910
1625.424458	-3.007700	3.337300	-10.036000	26.540213	0.000594	20.758375
1626.428992	-2.985300	3.338900	-9.966100	26.549077	0.000593	20.760172
1627.422710	-2.993700	3.338500	-9.992500	26.503871	0.000593	20.757880
1628.426147	-3.015300	3.336300	-10.059000	26.493346	0.000592	20.763422
1629.426009	-3.013400	3.337900	-10.058000	26.495262	0.000591	20.753968
1630.425706	-2.988400	3.337400	-9.972300	26.517605	0.000593	20.757934
1631.425430	-2.997700	3.337700	-10.004000	26.526970	0.000590	20.758339
1632.427118	-2.986200	3.336900	-9.963100	26.554751	0.000591	20.763505
1633.422386	-2.992000	3.336600	-9.981900	26.592663	0.000588	20.745665
1634.427739	-3.028100	3.334600	-10.095000	26.604607	0.000588	20.767629
1635.426911	-3.004700	3.334200	-10.017000	26.598381	0.000590	20.765639
1636.424210	-2.998100	3.335400	-9.998600	26.572267	0.000589	20.758353
1637.429353	-3.019100	3.334600	-10.066000	26.520257	0.000588	20.738314
1638.431437	-3.003700	3.333800	-10.013000	26.501835	0.000588	20.760101
1639.430674	-2.971700	3.334700	-9.908700	26.493467	0.000587	20.748371
1640.427920	-2.994600	3.333400	-9.980400	26.425365	0.000588	20.738240
1641.433650	-2.982400	3.333000	-9.939200	26.419507	0.000586	20.756061
1642.433048	-2.993300	3.332800	-9.975000	26.467969	0.000586	20.733647
1643.439944	-2.999600	3.331900	-9.993700	26.520704	0.000586	20.738290
1644.430749	-2.997600	3.332700	-9.988900	26.558342	0.000585	20.747200
1645.432599	-2.973000	3.333000	-9.908400	26.590716	0.000586	20.729957
1646.433455	-2.996600	3.332100	-9.984200	26.627281	0.000582	20.747748
1647.430995	-2.974600	3.330700	-9.906800	26.657241	0.000584	20.762221
1648.439091	-2.990300	3.330600	-9.958500	26.642571	0.000581	20.733247
1649.439265	-3.017900	3.328200	-10.043000	26.636734	0.000581	20.746820
1650.439874	-2.975700	3.329700	-9.906600	26.603069	0.000581	20.740478
1651.435293	-2.987900	3.329500	-9.947300	26.612802	0.000581	20.740779
1652.433218	-2.998100	3.328900	-9.979100	26.573776	0.000581	20.738058
1653.435344	-3.001100	3.327900	-9.985500	26.539342	0.000579	20.753231
1654.439298	-3.004600	3.328500	-9.999500	26.547106	0.000578	20.734482
1655.433794	-2.984300	3.327800	-9.928900	26.543464	0.000580	20.742202
1656.437422	-2.999300	3.328300	-9.982100	26.566897	0.000579	20.749636
1657.437665	-2.983400	3.328000	-9.928200	26.569083	0.000578	20.731444
1658.437338	-2.998100	3.326700	-9.972900	26.585489	0.000577	20.752204
1659.442764	-2.983900	3.326300	-9.923700	26.655685	0.000576	20.736947
1660.438651	-2.990400	3.325000	-9.942200	26.667103	0.000576	20.736572
1661.439743	-2.988800	3.325300	-9.937900	26.686966	0.000575	20.740894
1662.441957	-3.012900	3.324900	-10.016000	26.718359	0.000575	20.735945
1663.444686	-3.010500	3.325400	-10.010000	26.735411	0.000575	20.732700
1664.438748	-2.986400	3.323700	-9.924700	26.731363	0.000572	20.726259
1665.440729	-3.009100	3.324400	-10.002000	26.738261	0.000573	20.725607
1666.439229	-3.008900	3.324000	-10.000000	26.689556	0.000571	20.738756
1667.439148	-3.023200	3.321900	-10.042000	26.600285	0.000574	20.730567
1668.441388	-2.997700	3.322600	-9.959200	26.568284	0.000572	20.740598
1669.444717	-3.003800	3.322000	-9.977500	26.554453	0.000571	20.732384
1670.443295	-2.965400	3.324500	-9.857200	26.561774	0.000570	20.753495
1671.440746	-2.991200	3.321400	-9.933800	26.608668	0.000570	20.730458
1672.442050	-2.996700	3.320700	-9.950300	26.660870	0.000569	20.736470
1673.444882	-2.976800	3.321000	-9.885100	26.665931	0.000569	20.721168
1674.442581	-2.988900	3.320400	-9.922200	26.655476	0.000567	20.751436
1675.441438	-2.989100	3.320200	-9.923300	26.610791	0.000567	20.728325
1676.439726	-3.027900	3.319500	-10.050000	26.577990	0.000568	20.722379
1677.441496	-2.999600	3.319500	-9.956800	26.580073	0.000567	20.725896
1678.442109	-2.999400	3.318000	-9.951300	26.598842	0.000565	20.751877
1679.444118	-2.976400	3.318100	-9.875300	26.627084	0.000566	20.749447
1680.448183	-2.993600	3.319000	-9.933100	26.646516	0.000564	20.738161
1681.448648	-3.018400	3.317500	-10.013000	26.653193	0.000564	20.740606
1682.439125	-3.013300	3.317000	-9.994300	26.708424	0.000562	20.725956
1683.443192	-2.989600	3.318300	-9.918900	26.730041	0.000563	20.753854
1684.443700	-3.002000	3.314700	-9.949900	26.686744	0.000563	20.719807
1685.447933	-3.001200	3.317300	-9.955100	26.692621	0.000564	20.727612
1686.441503	-3.001100	3.314300	-9.945000	26.676207	0.000561	20.729603
1687.442129	-3.014000	3.315000	-9.989700	26.671687	0.000562	20.729327
1688.445584	-2.974500	3.315900	-9.861100	26.677195	0.000560	20.723009
1689.446151	-2.994300	3.313800	-9.921100	26.699534	0.000560	20.737882
1690.447533	-2.992900	3.315600	-9.920600	26.699053	0.000558	20.723173
1691.449905	-2.997800	3.313800	-9.932800	26.693816	0.000559	20.726443
1692.445710	-3.004800	3.312800	-9.952800	26.657721	0.000558	20.713388
1693.450328	-2.988000	3.313500	-9.900100	26.628371	0.000558	20.723713
1694.446616	-2.990600	3.312700	-9.906300	26.621144	0.000557	20.736363
1695.448319	-3.021700	3.312600	-10.008000	26.592790	0.000554	20.735360
1696.453039	-2.994700	3.312900	-9.919800	26.592810	0.000556	20.731113
1697.446725	-2.995100	3.312200	-9.919100	26.617411	0.000556	20.716961
1698.453575	-2.989600	3.311300	-9.897800	26.619096	0.000553	20.740942
1699.450902	-2.996500	3.311200	-9.920900	26.598785	0.000554	20.726214
1700.449084	-2.985600	3.310200	-9.881300	26.604391	0.000555	20.740385
1701.455356	-3.003000	3.310700	-9.940800	26.608440	0.000555	20.740187
1702.451661	-2.988700	3.309800	-9.890600	26.659896	0.000549	20.731223
1703.454160	-2.990400	3.311100	-9.900000	26.676079	0.000552	20.741329
1704.454535	-3.000700	3.308900	-9.927300	26.705719	0.000549	20.719442
1705.450974	-2.997300	3.310200	-9.920500	26.692435	0.000551	20.729322
1706.454327	-3.026700	3.308100	-10.011000	26.710627	0.000549	20.725800
1707.450583	-2.995200	3.306700	-9.903000	26.721175	0.000547	20.724550
1708.455003	-3.003500	3.307100	-9.931900	26.722339	0.000546	20.718609
1709.456461	-2.997600	3.308100	-9.915500	26.661896	0.000547	20.712844
1710.459377	-2.985800	3.306800	-9.872200	26.650203	0.000546	20.717685
1711.456382	-3.002000	3.308200	-9.929900	26.610481	0.000546	20.731333
1712.451743	-2.983900	3.306000	-9.864600	26.609410	0.000547	20.715557
1713.451623	-2.987900	3.306500	-9.878500	26.603455	0.000543	20.729011
1714.452135	-2.987800	3.307000	-9.880400	26.667370	0.000546	20.725935
1715.454213	-2.980200	3.306200	-9.852000	26.706718	0.000545	20.715705
1716.452209	-2.991900	3.304700	-9.886900	26.683829	0.000547	20.731576
1717.453261	-3.000800	3.304600	-9.914100	26.656724	0.000544	20.719973
1718.454834	-3.029000	3.302200	-10.000000	26.622140	0.000545	20.731674
1719.454395	-3.002000	3.303300	-9.916100	26.631820	0.000545	20.733344
1720.454840	-2.988400	3.303400	-9.871200	26.636212	0.000542	20.742502
1721.454399	-2.959600	3.304500	-9.779100	26.598400	0.000544	20.731043
1722.461314	-3.007200	3.303500	-9.933100	26.574664	0.000542	20.731838
1723.456814	-3.001200	3.302400	-9.910300	26.584344	0.000543	20.742992
1724.459125	-3.006000	3.302500	-9.925700	26.593601	0.000542	20.728115
1725.456099	-3.006700	3.301000	-9.924200	26.597050	0.000540	20.722099
1726.456833	-3.007800	3.301600	-9.930000	26.601718	0.000539	20.730584
1727.458762	-2.982700	3.302400	-9.848800	26.628377	0.000540	20.741738
1728.458650	-2.987100	3.300500	-9.857200	26.652776	0.000539	20.736394
1729.462991	-3.011600	3.299000	-9.934500	26.653351	0.000539	20.734126
1730.459103	-3.013200	3.299600	-9.941200	26.637059	0.000537	20.734344
1731.462264	-3.007600	3.299000	-9.921300	26.636534	0.000536	20.727652
1732.458223	-2.995500	3.299100	-9.881700	26.609325	0.000538	20.725903
1733.463002	-3.013500	3.298700	-9.938700	26.597857	0.000536	20.731445
1734.459342	-3.000900	3.297700	-9.895200	26.562555	0.000536	20.739106
1735.460742	-3.013000	3.297500	-9.934200	26.563695	0.000534	20.736459
1736.457278	-2.995300	3.299200	-9.879800	26.526479	0.000535	20.739828
1737.458215	-3.005700	3.297500	-9.910300	26.573694	0.000533	20.716164
1738.465051	-3.007400	3.297300	-9.914900	26.609768	0.000532	20.741522
1739.467614	-2.991000	3.295500	-9.855000	26.664279	0.000532	20.741320
1740.461707	-2.998400	3.296000	-9.881500	26.717697	0.000531	20.732434
1741.459587	-3.002200	3.296400	-9.895300	26.761631	0.000531	20.742466
1742.461890	-3.014200	3.295800	-9.933000	26.778358	0.000530	20.729886
1743.460281	-3.006400	3.294900	-9.904000	26.746265	0.000528	20.734129
1744.461840	-3.031300	3.294200	-9.982900	26.747601	0.000527	20.742585
1745.461795	-3.031100	3.294200	-9.983600	26.733551	0.000528	20.732252
1746.461727	-3.022900	3.293900	-9.956700	26.702223	0.000527	20.739637
1747.464186	-3.011300	3.293400	-9.915900	26.685141	0.000527	20.734317
1748.463156	-2.982500	3.293800	-9.822400	26.669356	0.000529	20.743104
1749.465599	-2.996100	3.292100	-9.861800	26.711253	0.000525	20.730223
1750.466888	-3.022700	3.292400	-9.950000	26.697998	0.000526	20.759572
1751.464155	-2.995700	3.291900	-9.860100	26.680691	0.000524	20.751181
1752.461461	-2.995600	3.291300	-9.858900	26.676918	0.000524	20.742646
1753.465554	-2.997400	3.290200	-9.860200	26.703969	0.000526	20.743289
1754.462178	-3.014200	3.291000	-9.917600	26.692129	0.000525	20.752249
1755.463398	-3.016000	3.290600	-9.922900	26.678672	0.000522	20.733978
1756.461985	-2.998900	3.289600	-9.863100	26.698256	0.000521	20.735648
1757.466361	-3.020300	3.289500	-9.933800	26.739032	0.000519	20.738711
1758.465899	-2.975600	3.290600	-9.789800	26.790540	0.000522	20.752091
1759.464297	-2.996800	3.288200	-9.852900	26.813918	0.000520	20.754260
1760.466644	-3.025600	3.286900	-9.941400	26.859037	0.000519	20.753633
1761.470615	-2.998000	3.287500	-9.854600	26.867496	0.000518	20.767829
1762.469643	-3.001300	3.287200	-9.863600	26.881098	0.000520	20.762539
1763.472862	-2.992700	3.287300	-9.837100	26.862305	0.000516	20.750280
1764.467888	-2.986800	3.288300	-9.821000	26.834929	0.000517	20.743143
1765.466922	-3.005500	3.285900	-9.873800	26.859417	0.000518	20.745480
1766.472025	-3.017700	3.284900	-9.911400	26.880633	0.000516	20.761124
1767.464994	-3.011900	3.284800	-9.892300	26.879813	0.000514	20.756506
1768.468144	-2.998600	3.286200	-9.853100	26.921977	0.000516	20.747220
1769.470582	-3.006900	3.283500	-9.872000	26.948133	0.000514	20.753607
1770.468182	-3.005700	3.285500	-9.873400	26.956546	0.000515	20.748791
1771.468091	-2.986700	3.284700	-9.808900	26.924302	0.000514	20.768050
1772.465050	-3.007900	3.283300	-9.873800	26.911295	0.000513	20.764454
1773.468422	-3.016800	3.284100	-9.906700	26.851757	0.000514	20.762908
1774.467199	-3.015300	3.283400	-9.899800	26.841525	0.000511	20.755940
1775.471358	-2.998000	3.283600	-9.843400	26.779625	0.000511	20.755816
1776.467200	-2.998100	3.283200	-9.841700	26.811069	0.000509	20.763724
1777.471271	-3.000700	3.281900	-9.846800	26.818340	0.000509	20.745429
1778.471138	-3.006000	3.281000	-9.861900	26.801388	0.000508	20.741661
1779.467949	-3.002400	3.279800	-9.845000	26.762073	0.000509	20.748600
1780.472641	-3.000800	3.279500	-9.840400	26.747178	0.000510	20.750695
1781.472431	-3.010000	3.280700	-9.873000	26.779296	0.000507	20.769711
1782.475759	-2.959100	3.281300	-9.709300	26.790660	0.000506	20.762169
1783.474824	-3.001700	3.278900	-9.841600	26.829973	0.000504	20.769929
1784.475972	-3.012700	3.279400	-9.878400	26.857344	0.000504	20.744819
1785.475615	-3.001800	3.278300	-9.840100	26.896115	0.000503	20.779062
1786.475982	-2.995500	3.279700	-9.822200	26.910900	0.000506	20.777808
1787.472369	-2.997500	3.278800	-9.825400	26.910031	0.000504	20.764132
1788.475328	-2.998500	3.277200	-9.825500	26.903901	0.000503	20.781676
1789.473691	-3.003200	3.277000	-9.839600	26.905910	0.000503	20.770419
1790.473812	-2.985500	3.277900	-9.784000	26.913504	0.000502	20.752450
1791.481365	-3.012900	3.276300	-9.869800	26.901166	0.000501	20.778451
1792.473516	-3.018700	3.274900	-9.885000	26.870540	0.000503	20.782269
1793.477891	-2.989100	3.275500	-9.790100	26.833856	0.000501	20.764350
1794.476353	-2.978600	3.275300	-9.754800	26.836091	0.000499	20.777977
1795.478563	-3.002200	3.274100	-9.827300	26.795211	0.000499	20.777651
1796.476634	-3.009000	3.274000	-9.850800	26.785327	0.000498	20.766766
1797.479010	-3.018200	3.274700	-9.882600	26.781354	0.000499	20.759451
1798.478566	-3.005100	3.272500	-9.833000	26.775252	0.000496	20.771334
1799.478343	-3.000800	3.273400	-9.821400	26.816054	0.000498	20.783436
1800.479138	-2.988000	3.275700	-9.786400	26.823924	0.000496	20.775701
1801.483026	-3.024500	3.272000	-9.895100	26.821094	0.000496	20.779494
1802.476586	-2.996900	3.273200	-9.808300	26.841946	0.000493	20.794296
1803.478912	-3.005900	3.272400	-9.834800	26.827651	0.000494	20.777552
1804.476650	-3.001000	3.270700	-9.814200	26.848971	0.000492	20.771013
1805.479626	-3.009800	3.269900	-9.840500	26.885806	0.000491	20.761583
1806.480307	-3.001600	3.270100	-9.814600	26.918190	0.000492	20.787984
1807.478447	-2.987100	3.270700	-9.769400	26.960853	0.000489	20.781572
1808.476437	-3.011300	3.269100	-9.843900	26.944498	0.000493	20.777453
1809.482652	-2.986500	3.270300	-9.764700	26.923706	0.000488	20.778356
1810.479317	-2.989400	3.270600	-9.775200	26.872848	0.000492	20.778426
1811.480042	-2.998100	3.269300	-9.800700	26.856594	0.000489	20.785316
1812.477506	-3.017900	3.268600	-9.863200	26.854261	0.000489	20.791979
1813.478181	-2.992300	3.269300	-9.781200	26.840438	0.000488	20.772864
1814.477538	-2.997500	3.268200	-9.796400	26.846617	0.000486	20.803260
1815.479133	-2.975600	3.268000	-9.723300	26.879803	0.000485	20.770246
1816.476146	-2.994300	3.267600	-9.783300	26.901814	0.000486	20.798069
1817.481431	-2.995500	3.268700	-9.790600	26.916608	0.000485	20.778332
1818.480013	-3.002700	3.266600	-9.807100	26.924526	0.000484	20.773965
1819.483307	-2.998900	3.266000	-9.794100	26.899588	0.000484	20.782554
1820.484271	-2.990600	3.265600	-9.765300	26.901847	0.000483	20.790516
1821.478574	-2.996400	3.264200	-9.779900	26.865017	0.000482	20.774345
1822.479413	-3.018500	3.265700	-9.855900	26.829850	0.000483	20.776918
1823.481707	-2.997100	3.265400	-9.785800	26.795105	0.000479	20.779916
1824.480463	-2.995400	3.264600	-9.776700	26.804812	0.000480	20.777347
1825.482098	-3.005700	3.264100	-9.809700	26.851822	0.000478	20.781466
1826.480544	-3.028700	3.263400	-9.883100	26.904636	0.000477	20.787630
1827.483764	-3.012500	3.262800	-9.827900	26.958842	0.000477	20.774333
1828.487398	-2.996200	3.262800	-9.774000	26.950280	0.000475	20.769518
1829.482025	-3.013300	3.262900	-9.831200	26.952441	0.000476	20.790657
1830.489209	-2.983000	3.263100	-9.731300	26.950683	0.000475	20.773715
1831.483258	-3.019200	3.259900	-9.840600	26.933831	0.000474	20.771468
1832.480146	-3.002700	3.261800	-9.793300	26.912841	0.000474	20.776441
1833.483817	-3.001400	3.261200	-9.786300	26.926049	0.000474	20.793515
1834.484838	-2.986100	3.259600	-9.731600	26.936447	0.000472	20.798755
1835.483986	-3.005700	3.259400	-9.795500	26.973083	0.000471	20.783913
1836.480520	-3.021700	3.260700	-9.851900	26.998441	0.000472	20.772430
1837.484383	-2.999700	3.258600	-9.772800	27.037133	0.000472	20.804701
1838.485139	-3.002600	3.258800	-9.783900	27.069571	0.000471	20.785641
1839.487750	-3.013500	3.259100	-9.820200	27.073170	0.000469	20.780252
1840.489073	-2.996300	3.258700	-9.762400	27.104935	0.000469	20.800818
1841.487669	-2.970900	3.257200	-9.675400	27.141555	0.000467	20.774587
1842.486045	-2.999000	3.257700	-9.767400	27.123822	0.000469	20.788519
1843.482526	-2.978800	3.256300	-9.699000	27.085741	0.000468	20.777721
1844.485370	-3.004300	3.256600	-9.782000	27.075840	0.000467	20.795265
1845.482726	-3.004300	3.255200	-9.778900	27.113061	0.000465	20.796189
1846.485822	-2.993400	3.257000	-9.747800	27.130111	0.000466	20.799112
1847.484816	-3.009500	3.253900	-9.791800	27.133563	0.000465	20.804006
1848.487573	-3.005700	3.255800	-9.785400	27.112274	0.000463	20.801561
1849.488592	-3.012900	3.253500	-9.801900	27.105231	0.000463	20.792582
1850.489316	-2.999000	3.254100	-9.758400	27.081958	0.000463	20.800469
1851.492633	-2.994100	3.253500	-9.740000	27.061267	0.000463	20.788195
1852.489490	-2.995600	3.253200	-9.744500	27.078514	0.000461	20.803644
1853.488709	-3.008500	3.252200	-9.782300	27.089608	0.000459	20.782559
1854.497651	-3.007700	3.252100	-9.780200	27.093110	0.000460	20.798883
1855.494657	-3.009400	3.251400	-9.783800	27.090256	0.000457	20.791271
1856.491648	-3.013500	3.250500	-9.794800	27.056114	0.000459	20.787755
1857.496264	-2.998800	3.251000	-9.748500	27.033561	0.000459	20.790204
1858.491765	-2.985400	3.251100	-9.705300	27.078597	0.000458	20.800883
1859.491859	-2.982900	3.251000	-9.696600	27.106889	0.000456	20.791878
1860.494890	-3.023500	3.249200	-9.822000	27.143592	0.000456	20.783748
1861.493467	-2.988100	3.249700	-9.708700	27.173612	0.000455	20.805406
1862.488386	-2.977700	3.250000	-9.676700	27.167439	0.000455	20.795404
1863.488898	-2.997200	3.248900	-9.737100	27.228428	0.000456	20.778986
1864.492571	-3.002100	3.250000	-9.755800	27.262716	0.000453	20.810156
1865.488264	-2.992200	3.248800	-9.719700	27.256564	0.000453	20.819141
1866.492702	-3.035100	3.247200	-9.853700	27.246767	0.000449	20.783208
1867.491324	-2.987400	3.248400	-9.703700	27.292889	0.000451	20.798781
1868.496225	-3.020900	3.246000	-9.804400	27.335340	0.000449	20.795017
1869.492824	-3.001200	3.247000	-9.743400	27.335443	0.000451	20.811716
1870.489785	-2.998900	3.245000	-9.730500	27.381512	0.000449	20.814437
1871.498775	-3.029400	3.244900	-9.829000	27.389848	0.000447	20.801487
1872.490686	-2.984400	3.245800	-9.683900	27.413734	0.000446	20.801334
1873.493555	-2.994800	3.245300	-9.717400	27.403021	0.000446	20.804307
1874.496332	-3.012900	3.244000	-9.772600	27.378472	0.000446	20.812801
1875.492893	-3.005000	3.244100	-9.747500	27.374824	0.000447	20.812925
1876.492157	-2.987100	3.244400	-9.689200	27.388845	0.000445	20.800004
1877.495369	-2.985700	3.243800	-9.683800	27.396833	0.000445	20.808514
1878.495898	-3.001000	3.243100	-9.730200	27.379866	0.000443	20.812781
1879.498953	-2.990100	3.243200	-9.696200	27.353229	0.000443	20.823444
1880.496793	-2.977300	3.242300	-9.652600	27.276697	0.000442	20.799563
1881.493332	-3.004900	3.240800	-9.736400	27.236834	0.000441	20.818262
1882.502387	-2.996700	3.241900	-9.713700	27.224279	0.000439	20.813219
1883.494365	-2.992900	3.241500	-9.699700	27.242295	0.000441	20.837504
1884.498214	-3.003200	3.240700	-9.731300	27.251349	0.000437	20.819111
1885.497546	-2.999300	3.240900	-9.719300	27.270160	0.000439	20.812428
1886.498843	-3.002000	3.240800	-9.728700	27.305837	0.000438	20.808961
1887.502035	-2.995400	3.238600	-9.700100	27.288175	0.000436	20.817273
1888.498822	-3.026200	3.236500	-9.793700	27.304005	0.000437	20.811386
1889.498230	-2.976200	3.239600	-9.640600	27.331148	0.000436	20.818300
1890.495307	-2.980100	3.238100	-9.648900	27.326311	0.000435	20.810590
1891.498740	-3.008000	3.237500	-9.736900	27.336902	0.000433	20.824563
1892.505052	-3.005400	3.237700	-9.728800	27.319717	0.000434	20.822448
1893.502260	-3.010800	3.237900	-9.747500	27.314011	0.000433	20.826192
1894.499131	-2.991200	3.237200	-9.682100	27.281766	0.000430	20.803240
1895.504588	-2.963800	3.236700	-9.592600	27.284865	0.000432	20.829590
1896.500439	-3.000500	3.236800	-9.710600	27.271543	0.000431	20.822354
1897.500621	-2.996400	3.236200	-9.695600	27.322402	0.000430	20.817089
1898.505245	-2.985900	3.236100	-9.661600	27.327665	0.000428	20.848461
1899.501590	-2.990000	3.237100	-9.677700	27.349450	0.000427	20.827702
1900.504522	-3.026000	3.235200	-9.788200	27.296260	0.000429	20.820190
1901.499681	-3.026600	3.233100	-9.784300	27.329678	0.000426	20.826305
1902.501891	-2.996900	3.233700	-9.689600	27.342105	0.000425	20.835486
1903.506082	-3.003700	3.232600	-9.709100	27.392989	0.000426	20.829776
1904.501746	-3.009600	3.233400	-9.730600	27.419707	0.000424	20.828206
1905.506555	-2.998400	3.231800	-9.690000	27.454059	0.000424	20.827678
1906.503104	-3.005400	3.231000	-9.709400	27.473067	0.000424	20.836369
1907.503121	-2.995700	3.230000	-9.675200	27.490107	0.000424	20.828857
1908.502121	-3.005200	3.231100	-9.709300	27.524432	0.000423	20.833994
1909.504793	-2.998000	3.230700	-9.685100	27.550999	0.000423	20.828956
1910.500224	-3.000600	3.229800	-9.689500	27.567547	0.000421	20.814786
1911.503068	-2.985700	3.230400	-9.643700	27.606381	0.000422	20.841057
1912.499722	-2.982600	3.231000	-9.636300	27.606209	0.000420	20.820496
1913.502439	-3.000200	3.228500	-9.684800	27.620071	0.000420	20.848668
1914.503110	-3.012000	3.226600	-9.718600	27.641104	0.000420	20.838064
1915.503819	-3.006100	3.227800	-9.701400	27.671261	0.000420	20.850391
1916.505282	-3.027000	3.226400	-9.765400	27.662706	0.000419	20.842257
1917.499464	-3.002800	3.227400	-9.690700	27.608909	0.000418	20.855454
1918.506637	-3.011300	3.226600	-9.715400	27.573193	0.000416	20.849863
1919.505736	-3.017300	3.226100	-9.732400	27.539434	0.000418	20.843872
1920.503470	-2.986700	3.227000	-9.637500	27.516416	0.000414	20.847265
1921.502893	-2.992500	3.226700	-9.655600	27.482705	0.000415	20.845591
1922.501742	-3.019300	3.223300	-9.731500	27.429547	0.000415	20.856121
1923.501093	-3.004200	3.224500	-9.684700	27.397866	0.000413	20.855544
1924.505451	-2.986800	3.225100	-9.631900	27.382984	0.000413	20.851005
1925.504529	-3.020200	3.224500	-9.736700	27.410312	0.000412	20.841513
1926.499403	-3.011300	3.222900	-9.703800	27.432788	0.000411	20.853218
1927.501841	-3.008100	3.224400	-9.698400	27.455660	0.000409	20.852047
1928.501431	-3.020800	3.221800	-9.731300	27.475922	0.000409	20.848250
1929.504385	-3.004200	3.221900	-9.677900	27.444693	0.000408	20.841962
1930.514490	-2.975900	3.222400	-9.587900	27.423332	0.000409	20.846077
1931.503794	-2.989100	3.221500	-9.628400	27.436357	0.000407	20.853964
1932.504442	-2.999700	3.222100	-9.664600	27.411152	0.000405	20.857056
1933.502112	-2.984800	3.220400	-9.611500	27.439386	0.000404	20.844683
1934.506465	-3.009500	3.220300	-9.690400	27.432808	0.000404	20.869832
1935.505821	-3.031400	3.217600	-9.752000	27.476114	0.000405	20.856977
1936.503276	-2.989500	3.221100	-9.628100	27.511415	0.000403	20.879690
1937.503715	-3.029800	3.216900	-9.744600	27.552341	0.000404	20.871556
1938.503797	-2.974100	3.219400	-9.573200	27.567917	0.000401	20.865417
1939.503601	-3.007700	3.218400	-9.678600	27.541753	0.000400	20.847153
1940.504321	-3.030100	3.215700	-9.743100	27.494818	0.000399	20.873897
1941.504735	-2.968000	3.217600	-9.548300	27.456496	0.000401	20.872327
1942.504347	-2.975300	3.216900	-9.569700	27.419935	0.000399	20.856883
1943.506987	-3.007100	3.216800	-9.671700	27.406836	0.000398	20.857456
1944.506674	-3.000600	3.216200	-9.648900	27.435767	0.000396	20.866172
1945.507378	-3.015400	3.213900	-9.690500	27.447825	0.000397	20.844164
1946.515582	-2.991400	3.214100	-9.613800	27.490462	0.000393	20.869516
1947.507504	-2.996000	3.214800	-9.630300	27.510202	0.000394	20.865669
1948.509814	-2.990000	3.215000	-9.611700	27.553932	0.000392	20.873630
1949.510340	-2.992900	3.214100	-9.618800	27.600884	0.000394	20.847380
1950.510692	-3.003500	3.213900	-9.652400	27.611894	0.000393	20.874104
1951.509946	-2.991900	3.214600	-9.616900	27.604511	0.000391	20.857667
1952.514487	-2.997500	3.212400	-9.628300	27.626634	0.000390	20.853375
1953.509462	-2.993400	3.215000	-9.622700	27.610642	0.000388	20.879007
1954.511629	-3.014800	3.211500	-9.680700	27.597172	0.000388	20.858818
1955.509005	-2.994900	3.211100	-9.615900	27.588518	0.000388	20.850584
1956.513610	-3.020800	3.209800	-9.695000	27.558113	0.000387	20.841803
1957.521737	-2.988600	3.210000	-9.592900	27.507962	0.000385	20.856777
1958.511743	-3.009600	3.210600	-9.661100	27.461879	0.000384	20.843131
1959.519413	-3.005000	3.209000	-9.641200	27.470362	0.000383	20.865415
1960.507673	-3.009000	3.207600	-9.650900	27.485080	0.000384	20.843713
1961.512994	-2.993400	3.208800	-9.604300	27.513553	0.000382	20.831583
1962.511664	-2.997700	3.208600	-9.617800	27.544612	0.000381	20.856193
1963.510005	-3.002800	3.209100	-9.635000	27.569490	0.000382	20.857043
1964.514486	-2.997700	3.209600	-9.620300	27.581423	0.000380	20.840127
1965.516153	-3.024400	3.205900	-9.694300	27.559058	0.000378	20.847495
1966.522695	-2.991200	3.206200	-9.588600	27.522103	0.000378	20.847772
1967.514600	-2.995100	3.206500	-9.603100	27.511543	0.000378	20.834777
1968.514206	-2.985200	3.206700	-9.571800	27.472824	0.000377	20.857461
1969.522352	-3.008000	3.206300	-9.641500	27.522583	0.000376	20.844462
1970.519053	-3.010200	3.204400	-9.644700	27.530227	0.000373	20.845513
1971.515918	-2.999500	3.204100	-9.609800	27.492726	0.000375	20.826750
1972.517165	-3.006000	3.204000	-9.630000	27.479907	0.000373	20.825708
1973.516589	-3.020600	3.203800	-9.676900	27.469642	0.000373	20.835294
1974.516229	-3.004900	3.203200	-9.623700	27.479563	0.000374	20.835319
1975.513419	-2.986600	3.203800	-9.567100	27.491350	0.000373	20.821573
1976.517100	-3.001200	3.201900	-9.608400	27.497359	0.000371	20.811023
1977.514152	-3.007000	3.201200	-9.625400	27.518472	0.000372	20.832265
1978.516830	-3.008000	3.200800	-9.625800	27.545011	0.000372	20.841896
1979.517492	-2.992400	3.200800	-9.577000	27.603401	0.000369	20.808662
1980.519158	-2.993300	3.200800	-9.579500	27.653679	0.000367	20.826535
1981.513932	-3.005700	3.199500	-9.615600	27.666249	0.000370	20.833969
1982.515522	-3.009900	3.199900	-9.630800	27.680189	0.000365	20.830926
1983.518437	-2.990800	3.202500	-9.577900	27.673970	0.000365	20.822298
1984.518246	-2.986600	3.199600	-9.555100	27.698776	0.000366	20.820707
1985.518489	-2.997300	3.197400	-9.582500	27.696101	0.000364	20.815644
1986.517014	-3.010700	3.200200	-9.633200	27.720852	0.000363	20.835810
1987.514986	-2.993000	3.197000	-9.566500	27.736127	0.000364	20.815619
1988.519151	-2.992700	3.198300	-9.570800	27.729367	0.000360	20.808343
1989.520866	-3.000300	3.196400	-9.588500	27.732838	0.000361	20.816577
1990.520158	-2.984600	3.196100	-9.538000	27.682523	0.000359	20.834698
1991.519027	-2.986200	3.198200	-9.549700	27.665643	0.000360	20.795901
1992.519954	-3.025100	3.194800	-9.663800	27.659267	0.000358	20.815564
1993.519033	-3.021800	3.194700	-9.653100	27.638367	0.000358	20.822982
1994.521776	-3.008900	3.193300	-9.606700	27.657166	0.000356	20.786423
1995.526117	-3.013600	3.193200	-9.621800	27.667385	0.000358	20.802396
1996.522123	-2.992900	3.193300	-9.556700	27.701468	0.000355	20.795915
1997.524085	-2.986100	3.195300	-9.540300	27.707765	0.000358	20.816477
1998.521966	-2.998700	3.192600	-9.572100	27.762701	0.000355	20.786886
1999.522447	-2.989200	3.195500	-9.551000	27.761980	0.000354	20.826937
2000.525198	-2.997200	3.191700	-9.565200	27.788889	0.000354	20.808026
2001.524091	-2.999700	3.189600	-9.566500	27.784006	0.000352	20.814491
2002.522296	-2.999700	3.189700	-9.567100	27.767270	0.000354	20.791959
2003.525634	-2.971400	3.190000	-9.477500	27.775358	0.000350	20.797727
2004.524532	-3.006900	3.188000	-9.584400	27.781758	0.000351	20.815547
2005.525358	-2.976500	3.190500	-9.494600	27.788084	0.000349	20.802948
2006.527071	-2.991000	3.189700	-9.540300	27.795249	0.000350	20.806365
2007.522521	-3.000500	3.189100	-9.568000	27.794852	0.000349	20.788896
2008.525815	-3.019300	3.186200	-9.619100	27.846039	0.000346	20.793469
2009.523097	-2.972500	3.186900	-9.472200	27.847427	0.000346	20.810040
2010.523310	-3.013600	3.185500	-9.598800	27.828381	0.000347	20.810786
2011.525436	-3.009100	3.186300	-9.587200	27.830933	0.000345	20.781112
2012.523756	-2.985300	3.186800	-9.512000	27.828533	0.000345	20.799085
2013.528695	-2.971900	3.186200	-9.467100	27.855456	0.000344	20.792042
2014.525725	-3.017100	3.184300	-9.606600	27.829745	0.000344	20.811685
2015.525954	-3.005900	3.184100	-9.569800	27.774945	0.000343	20.780716
2016.530067	-3.008500	3.183300	-9.576200	27.697771	0.000342	20.787453
2017.527006	-2.987800	3.185200	-9.516400	27.642939	0.000344	20.783961
2018.525675	-3.003200	3.182000	-9.555000	27.668085	0.000341	20.790298
2019.528896	-2.984200	3.182700	-9.496900	27.700721	0.000340	20.793741
2020.525623	-3.016900	3.180100	-9.592400	27.709723	0.000340	20.789997
2021.528934	-2.990500	3.181900	-9.514700	27.743525	0.000340	20.803150
2022.534997	-2.990600	3.181300	-9.513700	27.795446	0.000339	20.801822
2023.529643	-3.003600	3.180800	-9.553200	27.802243	0.000339	20.785429
2024.533115	-3.001400	3.181500	-9.548300	27.837127	0.000335	20.775491
2025.532589	-2.987800	3.179600	-9.499000	27.831572	0.000336	20.775116
2026.530818	-3.009900	3.179900	-9.570600	27.802852	0.000335	20.803111
2027.530534	-3.009700	3.178700	-9.566100	27.778357	0.000336	20.805012
2028.530692	-2.992000	3.180800	-9.516600	27.772134	0.000335	20.778361
2029.532200	-3.011200	3.176600	-9.564800	27.766971	0.000331	20.782174
2030.534293	-3.036300	3.176800	-9.645000	27.789086	0.000333	20.797792
2031.537621	-2.998700	3.175500	-9.520900	27.841039	0.000331	20.787963
2032.533150	-3.002600	3.175300	-9.533000	27.838855	0.000329	20.779127
2033.535876	-3.007300	3.174100	-9.545200	27.867613	0.000330	20.754490
2034.535677	-3.005700	3.174600	-9.540400	27.862279	0.000328	20.796064
2035.534998	-3.029900	3.173200	-9.613800	27.883086	0.000327	20.781918
2036.533501	-2.998600	3.174800	-9.518700	27.915465	0.000327	20.786531
2037.540111	-2.983600	3.173700	-9.468700	27.937577	0.000327	20.771803
2038.542039	-3.037100	3.171700	-9.630800	27.956813	0.000327	20.776466
2039.539229	-2.983200	3.173100	-9.464700	27.998365	0.000324	20.789367
2040.538668	-3.009500	3.172100	-9.545400	28.002428	0.000322	20.795827
2041.542950	-2.991200	3.171700	-9.486600	27.982693	0.000323	20.766479
2042.540314	-2.972200	3.172600	-9.428100	27.945183	0.000322	20.779933
2043.540462	-3.002100	3.172500	-9.522500	27.965312	0.000322	20.762735
2044.540352	-2.981300	3.171800	-9.454900	27.961838	0.000321	20.780575
2045.535744	-2.998700	3.169300	-9.501400	27.994514	0.000322	20.784542
2046.534938	-3.012100	3.168700	-9.543900	28.022895	0.000317	20.794144
2047.538221	-3.000100	3.167800	-9.502900	28.081951	0.000317	20.794321
2048.540264	-2.988600	3.170400	-9.474300	28.069581	0.000317	20.771438
2049.540334	-2.998000	3.166900	-9.493800	28.038640	0.000316	20.809993
2050.540461	-3.012800	3.166300	-9.538300	28.101680	0.000314	20.776723
2051.542544	-3.004100	3.165200	-9.507200	28.123346	0.000316	20.792845
2052.542690	-2.999500	3.164900	-9.492200	28.164396	0.000313	20.795290
2053.546897	-2.998500	3.164700	-9.488600	28.176789	0.000315	20.792593
2054.542265	-3.010100	3.164100	-9.523100	28.217993	0.000311	20.775281
2055.542435	-3.011600	3.165200	-9.531400	28.211792	0.000311	20.791323
2056.540263	-2.996900	3.163800	-9.480300	28.179668	0.000312	20.776052
2057.541968	-3.045500	3.163000	-9.631100	28.114323	0.000311	20.781391
2058.539998	-3.004600	3.162900	-9.502400	28.075901	0.000310	20.774481
2059.543946	-2.976100	3.163600	-9.413600	28.083937	0.000307	20.773088
2060.547523	-2.998200	3.162500	-9.481000	28.117875	0.000308	20.780699
2061.540875	-3.008900	3.162700	-9.514700	28.178637	0.000307	20.784971
2062.550357	-3.007200	3.161900	-9.506500	28.150997	0.000305	20.772317
2063.542375	-3.006700	3.160800	-9.503100	28.170184	0.000308	20.762710
2064.547614	-3.011900	3.158500	-9.512700	28.195524	0.000305	20.761193
2065.542009	-3.000800	3.160300	-9.481900	28.167535	0.000303	20.776164
2066.546030	-3.004900	3.157600	-9.486700	28.199713	0.000302	20.782007
2067.544858	-3.003600	3.157600	-9.483500	28.200238	0.000302	20.780165
2068.541140	-3.013200	3.157600	-9.513900	28.201724	0.000303	20.772178
2069.544176	-2.996900	3.156300	-9.458000	28.219896	0.000301	20.762971
2070.544547	-2.990400	3.156000	-9.436900	28.189283	0.000303	20.758230
2071.549494	-3.037900	3.154300	-9.580900	28.153895	0.000300	20.770493
2072.542871	-2.987600	3.156300	-9.428400	28.140158	0.000300	20.762828
2073.545262	-2.979200	3.153100	-9.393000	28.115646	0.000299	20.768023
2074.541011	-3.018700	3.152600	-9.516400	28.127671	0.000299	20.770172
2075.543138	-3.007500	3.152000	-9.479000	28.126606	0.000299	20.779532
2076.552450	-2.999100	3.151200	-9.450100	28.064781	0.000296	20.767554
2077.546846	-2.999100	3.152800	-9.454300	28.040223	0.000296	20.748997
2078.545741	-2.999800	3.150700	-9.450700	28.042127	0.000296	20.778415
2079.554851	-2.992900	3.149900	-9.425700	28.072027	0.000296	20.760150
2080.543378	-3.004300	3.150800	-9.463800	28.116553	0.000294	20.765617
2081.543774	-2.993700	3.150100	-9.429400	28.154802	0.000295	20.771880
2082.546862	-2.996700	3.149600	-9.437300	28.157681	0.000295	20.764822
2083.547230	-2.997600	3.148900	-9.436400	28.162485	0.000290	20.787676
2084.549174	-3.023600	3.147600	-9.516100	28.125359	0.000290	20.772112
2085.547826	-2.989400	3.146900	-9.405500	28.087752	0.000292	20.754168
2086.549814	-2.980900	3.145500	-9.375200	28.068838	0.000290	20.747929
2087.550775	-2.983000	3.145800	-9.382800	28.076325	0.000288	20.756415
2088.550502	-3.002700	3.145500	-9.443200	28.084882	0.000289	20.753175
2089.550005	-2.991600	3.145300	-9.407500	28.122366	0.000290	20.765780
2090.552588	-2.978600	3.146000	-9.369600	28.141722	0.000286	20.742116
2091.551482	-3.007600	3.144100	-9.454500	28.182275	0.000288	20.749752
2092.557374	-3.025700	3.143500	-9.509900	28.221861	0.000285	20.754518
2093.551891	-3.018300	3.142000	-9.482400	28.219359	0.000285	20.751525
2094.549539	-2.994300	3.142200	-9.407300	28.210205	0.000286	20.750844
2095.550161	-3.002700	3.141600	-9.431500	28.194541	0.000285	20.747401
2096.550616	-3.005000	3.140300	-9.435600	28.173253	0.000285	20.765325
2097.565696	-3.003900	3.140600	-9.433100	28.154012	0.000284	20.750696
2098.555459	-3.038000	3.137300	-9.530200	28.090456	0.000282	20.745983
2099.556776	-2.995300	3.139900	-9.404300	28.033157	0.000282	20.762273
2100.551435	-3.031200	3.138200	-9.511300	28.009732	0.000280	20.750073
2101.559750	-3.025900	3.138700	-9.495800	28.000679	0.000278	20.759453
2102.551568	-3.007900	3.138400	-9.439500	27.983598	0.000281	20.744156
2103.555324	-3.028900	3.135700	-9.496100	28.027102	0.000277	20.751437
2104.556314	-2.979600	3.136200	-9.343700	28.068529	0.000277	20.746196
2105.554022	-2.984400	3.136600	-9.359700	28.089303	0.000276	20.769954
2106.560172	-2.974900	3.134400	-9.323400	28.093513	0.000278	20.742423
2107.557323	-3.006300	3.134200	-9.420900	28.133004	0.000275	20.744720
2108.562974	-2.999600	3.134000	-9.398100	28.138578	0.000275	20.757444
2109.564293	-3.002400	3.132900	-9.404800	28.158089	0.000276	20.767129
2110.555933	-2.993200	3.133500	-9.378700	28.193163	0.000275	20.739850
2111.561873	-2.968500	3.132100	-9.296900	28.251856	0.000271	20.763381
2112.564991	-2.985000	3.131000	-9.344900	28.244468	0.000271	20.742191
2113.558855	-2.995300	3.130400	-9.375900	28.241020	0.000273	20.759583
2114.557867	-3.031100	3.128500	-9.482200	28.182424	0.000274	20.745634
2115.561147	-2.989800	3.129600	-9.356000	28.160332	0.000270	20.748998
2116.570125	-2.998700	3.130200	-9.384300	28.158846	0.000271	20.745605
2117.561009	-3.007400	3.128200	-9.406600	28.171160	0.000272	20.735242
2118.565390	-3.011000	3.126400	-9.412200	28.141763	0.000267	20.722716
2119.564898	-3.008900	3.126600	-9.407100	28.169993	0.000268	20.746395
2120.566070	-2.989800	3.127000	-9.347900	28.161240	0.000269	20.746593
2121.563413	-2.991100	3.126500	-9.350200	28.152336	0.000266	20.737628
2122.566406	-2.996900	3.124300	-9.362100	28.095345	0.000265	20.738577
2123.560917	-3.015400	3.123000	-9.415200	28.047055	0.000265	20.739278
2124.560351	-2.992000	3.123800	-9.344800	28.047423	0.000264	20.754348
2125.566332	-2.988600	3.122300	-9.330300	28.044773	0.000264	20.731765
2126.563724	-2.984000	3.121300	-9.313200	28.095394	0.000265	20.720607
2127.564227	-2.992400	3.122100	-9.342000	28.155535	0.000263	20.736107
2128.566619	-2.988000	3.121600	-9.326000	28.190235	0.000263	20.730264
2129.564010	-3.003000	3.119800	-9.368400	28.184387	0.000260	20.740024
2130.566893	-2.991100	3.118300	-9.325800	28.213931	0.000262	20.732783
2131.568494	-2.996700	3.118300	-9.343900	28.265760	0.000259	20.757465
2132.565731	-2.993800	3.117400	-9.332100	28.278574	0.000260	20.744287
2133.571730	-2.974500	3.117500	-9.271800	28.310891	0.000260	20.730358
2134.565562	-2.999500	3.116600	-9.346900	28.324646	0.000259	20.739941
2135.571529	-3.003800	3.116900	-9.361500	28.321222	0.000257	20.731277
2136.568915	-2.995800	3.115100	-9.330900	28.325661	0.000257	20.734325
2137.569238	-2.971000	3.116600	-9.258400	28.344895	0.000254	20.734250
2138.574234	-2.998900	3.112600	-9.333600	28.367243	0.000255	20.722614
2139.576011	-3.002900	3.113300	-9.348400	28.370540	0.000255	20.733520
2140.575179	-3.003600	3.111700	-9.345500	28.354529	0.000255	20.724036
2141.569012	-2.999600	3.112900	-9.336300	28.384142	0.000253	20.731569
2142.569670	-2.975300	3.111200	-9.255900	28.365679	0.000254	20.748540
2143.567255	-2.981500	3.110200	-9.271000	28.377275	0.000253	20.725602
2144.570030	-3.013600	3.110500	-9.372400	28.358930	0.000253	20.737003
2145.569788	-2.986500	3.109400	-9.284700	28.344582	0.000251	20.707381
2146.569837	-2.993800	3.108300	-9.304600	28.270172	0.000251	20.738672
2147.567786	-2.993300	3.107800	-9.300700	28.250240	0.000251	20.720975
2148.569870	-3.002800	3.106800	-9.328000	28.246718	0.000250	20.747776
2149.572843	-2.993600	3.105100	-9.294300	28.272424	0.000249	20.728137
2150.572474	-3.003200	3.106000	-9.326200	28.302485	0.000252	20.721420
2151.571805	-3.003300	3.104600	-9.323300	28.294872	0.000249	20.739834
2152.567589	-3.005000	3.104800	-9.329000	28.290982	0.000248	20.712208
2153.568491	-2.992200	3.103300	-9.284300	28.347639	0.000247	20.728952
2154.569718	-3.014800	3.101000	-9.348400	28.348728	0.000248	20.750913
2155.569391	-3.010700	3.101200	-9.334800	28.389720	0.000247	20.731022
2156.572273	-2.995100	3.100300	-9.284900	28.427955	0.000246	20.733013
2157.569865	-3.002500	3.099300	-9.304200	28.433953	0.000246	20.743321
2158.569003	-2.993300	3.097700	-9.270000	28.455711	0.000245	20.712124
2159.573558	-2.990200	3.099600	-9.267500	28.453651	0.000245	20.736604
2160.574300	-2.992600	3.098100	-9.270700	28.487675	0.000244	20.733409
2161.571235	-3.011900	3.097200	-9.326300	28.507425	0.000243	20.744290
2162.571698	-2.998000	3.097300	-9.285000	28.478111	0.000243	20.719509
2163.577448	-2.979900	3.096400	-9.226400	28.439717	0.000243	20.730159
2164.570860	-2.999100	3.093600	-9.276500	28.423291	0.000242	20.725945
2165.577849	-2.989500	3.093200	-9.246200	28.414438	0.000240	20.745007
2166.575486	-3.014500	3.090900	-9.314900	28.442071	0.000240	20.741539
2167.581394	-3.010100	3.092100	-9.306800	28.415899	0.000238	20.734150
2168.575042	-2.970200	3.093000	-9.185200	28.392998	0.000239	20.736694
2169.579000	-3.024100	3.089800	-9.342700	28.396466	0.000240	20.735919
2170.575371	-3.007200	3.088700	-9.286700	28.410637	0.000237	20.747818
2171.573670	-3.001700	3.088400	-9.269000	28.402161	0.000238	20.714625
2172.571445	-2.989700	3.088300	-9.231700	28.381295	0.000237	20.724435
2173.574224	-3.009100	3.086500	-9.286100	28.411378	0.000236	20.728648
2174.573347	-3.006500	3.085800	-9.276700	28.446595	0.000235	20.716695
2175.575787	-3.010600	3.084900	-9.285400	28.479902	0.000236	20.703768
2176.578808	-3.015100	3.083800	-9.297200	28.538502	0.000236	20.735756
2177.576654	-3.035600	3.082200	-9.354800	28.542018	0.000236	20.751152
2178.577993	-2.989400	3.085100	-9.221300	28.597553	0.000235	20.720785
2179.574451	-3.019400	3.082700	-9.306900	28.573881	0.000236	20.717807
2180.578904	-2.995200	3.082100	-9.230700	28.524250	0.000237	20.730412
2181.576628	-3.000500	3.080300	-9.241300	28.438630	0.000235	20.713416
2182.578190	-2.992900	3.079700	-9.216000	28.357884	0.000232	20.719353
2183.580063	-2.967900	3.080800	-9.142100	28.313393	0.000233	20.723868
2184.582914	-3.001000	3.078200	-9.236200	28.298382	0.000233	20.713495
2185.580180	-3.018500	3.076900	-9.286900	28.303160	0.000233	20.734902
2186.582087	-2.971100	3.077000	-9.139900	28.348397	0.000234	20.719758
2187.582795	-2.986500	3.075800	-9.185600	28.399445	0.000233	20.720425
2188.582212	-3.014700	3.074600	-9.268100	28.397836	0.000232	20.732082
2189.580894	-2.995400	3.074100	-9.207000	28.384680	0.000232	20.726421
2190.580983	-3.015200	3.071100	-9.258600	28.379500	0.000232	20.717412
2191.594558	-2.999500	3.072300	-9.214000	28.356672	0.000233	20.740419
2192.586021	-3.005000	3.071200	-9.227800	28.361307	0.000231	20.723275
2193.584057	-3.017900	3.068800	-9.259700	28.380712	0.000231	20.727641
2194.586141	-3.038300	3.067900	-9.319800	28.383837	0.000229	20.721778
2195.586535	-3.023800	3.066700	-9.272400	28.403859	0.000231	20.712542
2196.587121	-2.984000	3.067800	-9.153800	28.417445	0.000230	20.748036
2197.593113	-3.008600	3.066000	-9.223000	28.459073	0.000230	20.730684
2198.588196	-2.999100	3.066200	-9.194900	28.493847	0.000229	20.750056
2199.592411	-2.993700	3.065200	-9.174700	28.544372	0.000230	20.722228
2200.586621	-2.990600	3.064400	-9.163600	28.619847	0.000227	20.727118
2201.586809	-2.992500	3.062900	-9.165400	28.663232	0.000229	20.741417
2202.593643	-3.013100	3.062500	-9.226400	28.616081	0.000229	20.724273
2203.593111	-2.987900	3.062000	-9.148100	28.633024	0.000228	20.724268
2204.589663	-2.972400	3.061000	-9.097600	28.651880	0.000226	20.723819
2205.588979	-2.964400	3.059600	-9.068800	28.704457	0.000226	20.728886
2206.593005	-2.980900	3.058300	-9.115300	28.688677	0.000228	20.734804
2207.593793	-3.016900	3.055500	-9.216500	28.607303	0.000226	20.723967
2208.594401	-2.990400	3.055000	-9.134900	28.561636	0.000226	20.739141
2209.589742	-2.987400	3.054600	-9.124400	28.479688	0.000223	20.738642
2210.594445	-2.979000	3.053700	-9.096100	28.403732	0.000224	20.723320
2211.595702	-3.001500	3.052400	-9.160400	28.375999	0.000226	20.761303
2212.590643	-3.008800	3.051900	-9.181600	28.374959	0.000224	20.727538
2213.597096	-2.985900	3.052000	-9.112000	28.395305	0.000224	20.714360
2214.589533	-3.002100	3.049700	-9.154800	28.424769	0.000224	20.726960
2215.594544	-2.982100	3.049000	-9.090700	28.462963	0.000224	20.721324
2216.594162	-3.016100	3.047300	-9.190100	28.445566	0.000223	20.743635
2217.592976	-2.986400	3.047500	-9.100500	28.404997	0.000221	20.727439
2218.594517	-2.989200	3.045900	-9.104200	28.389335	0.000221	20.745334
2219.598753	-3.036200	3.043100	-9.238200	28.426314	0.000221	20.731361
2220.593066	-3.017500	3.042200	-9.179300	28.445291	0.000222	20.736720
2221.590774	-3.045500	3.040800	-9.259800	28.413698	0.000220	20.736676
2222.593505	-3.018300	3.042100	-9.180400	28.384377	0.000220	20.742712
2223.590484	-2.987700	3.040500	-9.082600	28.417166	0.000219	20.739219
2224.595280	-3.009800	3.039500	-9.147400	28.479320	0.000220	20.750600
2225.590161	-3.003900	3.039100	-9.128000	28.513298	0.000220	20.753998
2226.596069	-2.990200	3.037100	-9.080500	28.574676	0.000218	20.739471
2227.592210	-3.000500	3.035600	-9.107600	28.612810	0.000218	20.749429
2228.593004	-2.989600	3.035700	-9.074600	28.683425	0.000220	20.725720
2229.596881	-3.008800	3.034000	-9.127800	28.713676	0.000219	20.735327
2230.593036	-3.001200	3.032900	-9.100500	28.705600	0.000220	20.733830
2231.590082	-2.990700	3.033000	-9.069200	28.712661	0.000219	20.731460
2232.593057	-2.990100	3.030100	-9.059300	28.738629	0.000219	20.730590
2233.593648	-3.000900	3.029000	-9.088800	28.736673	0.000218	20.747586
2234.593916	-3.022100	3.027000	-9.147300	28.689005	0.000220	20.733711
2235.596675	-2.998100	3.027300	-9.075400	28.633132	0.000216	20.743817
2236.596222	-3.025600	3.024000	-9.146300	28.599412	0.000218	20.720760
2237.599804	-3.003200	3.024200	-9.081300	28.619606	0.000218	20.752007
2238.595294	-3.003300	3.023400	-9.080100	28.655140	0.000219	20.741802
2239.595826	-3.000200	3.022100	-9.065400	28.698969	0.000218	20.740429
2240.598665	-2.972000	3.021200	-8.977900	28.744160	0.000217	20.756076
2241.594350	-3.000300	3.019300	-9.057900	28.760287	0.000218	20.745768
2242.594486	-2.982600	3.019400	-9.003600	28.784985	0.000218	20.752629
2243.591884	-2.994300	3.019200	-9.039200	28.801484	0.000216	20.737954
2244.596063	-2.956200	3.017000	-8.917800	28.829304	0.000218	20.750332
2245.592527	-3.009400	3.015500	-9.073900	28.796037	0.000218	20.751908
2246.595993	-2.993600	3.012400	-9.016200	28.776463	0.000218	20.747364
2247.594603	-3.001600	3.014600	-9.047600	28.724365	0.000216	20.749413
2248.596184	-3.017200	3.012300	-9.087600	28.678232	0.000216	20.748939
2249.597681	-3.031500	3.009400	-9.121600	28.628498	0.000216	20.767126
2250.596408	-2.975000	3.010900	-8.956200	28.543013	0.000217	20.758319
2251.594903	-2.980000	3.008100	-8.963200	28.537933	0.000217	20.775488
2252.600508	-2.984200	3.007600	-8.974400	28.530669	0.000217	20.763431
2253.596875	-3.009100	3.006300	-9.044700	28.493949	0.000215	20.751582
2254.598182	-3.008200	3.004700	-9.037900	28.499845	0.000216	20.762261
2255.600714	-3.006900	3.003200	-9.029300	28.486235	0.000215	20.752822
2256.596849	-3.003600	3.001200	-9.013600	28.468142	0.000215	20.743136
2257.600869	-2.990900	3.001100	-8.975000	28.478329	0.000215	20.769517
2258.597051	-3.031800	2.998800	-9.091100	28.477657	0.000215	20.759357
2259.598393	-2.983400	3.000700	-8.951500	28.504662	0.000212	20.749568
2260.607813	-2.990000	2.998300	-8.963600	28.528650	0.000216	20.759975
2261.599452	-2.999700	2.995300	-8.983600	28.517056	0.000212	20.757782
2262.602074	-2.986600	2.994600	-8.942300	28.508998	0.000215	20.773849
2263.603106	-2.993000	2.993400	-8.957800	28.515806	0.000214	20.755101
2264.603397	-3.003500	2.992900	-8.988200	28.480370	0.000215	20.765409
2265.608815	-3.013400	2.989200	-9.006000	28.459820	0.000214	20.779802
2266.605882	-2.954900	2.990900	-8.836100	28.363193	0.000214	20.755521
2267.603666	-3.035300	2.988100	-9.069200	28.362271	0.000213	20.773085
2268.604606	-2.979700	2.987900	-8.901700	28.374711	0.000215	20.754790
2269.610241	-3.023500	2.984000	-9.020900	28.402792	0.000214	20.770265
2270.608483	-3.004900	2.983900	-8.965800	28.424497	0.000214	20.774577
2271.605843	-3.004100	2.982100	-8.958000	28.461146	0.000214	20.759799
2272.608873	-3.024700	2.979200	-9.009900	28.481044	0.000213	20.768458
2273.610368	-3.001900	2.978800	-8.939800	28.516337	0.000214	20.764644
2274.611050	-3.009500	2.979000	-8.964300	28.538956	0.000214	20.769406
2275.612721	-3.009600	2.977600	-8.960600	28.566607	0.000212	20.774968
2276.608432	-3.023300	2.975100	-8.993300	28.539202	0.000212	20.781982
2277.612621	-3.022900	2.974300	-8.989800	28.548859	0.000212	20.796449
2278.609664	-2.997300	2.973000	-8.910200	28.543135	0.000212	20.768399
2279.611031	-2.980700	2.973300	-8.861200	28.443519	0.000213	20.777137
2280.610398	-3.009500	2.968600	-8.933200	28.437491	0.000212	20.778179
2281.615464	-3.024800	2.967400	-8.974900	28.478779	0.000213	20.804584
2282.608490	-3.011800	2.967200	-8.935500	28.536892	0.000212	20.784871
2283.611475	-2.995500	2.965900	-8.883100	28.576558	0.000210	20.792103
2284.611838	-2.977500	2.964600	-8.825600	28.635755	0.000210	20.767797
2285.614590	-2.991400	2.962800	-8.861700	28.679556	0.000211	20.774930
2286.612521	-3.000100	2.960700	-8.881100	28.717196	0.000212	20.791031
2287.608515	-2.993000	2.959800	-8.857700	28.786416	0.000212	20.778728
2288.609107	-2.996000	2.958300	-8.862200	28.788750	0.000209	20.781078
2289.610464	-3.004700	2.956800	-8.882300	28.715489	0.000212	20.774613
2290.615568	-3.001400	2.955200	-8.868700	28.662662	0.000210	20.787786
2291.612112	-3.007500	2.954200	-8.883900	28.626266	0.000211	20.793328
2292.617122	-2.993300	2.952000	-8.835700	28.580383	0.000210	20.810179
2293.620142	-3.003700	2.949600	-8.859200	28.605355	0.000209	20.800716
2294.614912	-2.988000	2.949400	-8.811300	28.666065	0.000210	20.788842
2295.613511	-2.939600	2.949400	-8.668700	28.701023	0.000208	20.807932
2296.611810	-2.966600	2.947300	-8.741000	28.724266	0.000209	20.796256
2297.613677	-2.977100	2.944600	-8.765600	28.734622	0.000211	20.782505
2298.614017	-3.030700	2.940900	-8.911500	28.716788	0.000209	20.794413
2299.616595	-3.015100	2.939800	-8.861800	28.729277	0.000210	20.807941
2300.616747	-3.017800	2.938000	-8.865600	28.783704	0.000209	20.769357
2301.616733	-2.987800	2.937600	-8.776100	28.797084	0.000209	20.801802
2302.622351	-3.012000	2.935000	-8.839300	28.800359	0.000211	20.803678
2303.613763	-2.996100	2.934000	-8.789600	28.796295	0.000211	20.781566
2304.620984	-2.998900	2.931700	-8.791200	28.789509	0.000209	20.786584
2305.618280	-2.994300	2.931000	-8.775000	28.743055	0.000208	20.793370
2306.617635	-2.969800	2.929800	-8.698500	28.755593	0.000209	20.776602
2307.622919	-2.998900	2.927500	-8.778300	28.765605	0.000208	20.796171
2308.618843	-2.997600	2.926500	-8.770500	28.791842	0.000211	20.796521
2309.623452	-3.026400	2.922000	-8.841600	28.835249	0.000208	20.779081
2310.615429	-3.012800	2.922300	-8.803000	28.895470	0.000211	20.798022
2311.617168	-3.028200	2.921400	-8.845100	28.940108	0.000210	20.797474
2312.621601	-3.014900	2.919100	-8.800400	29.003295	0.000211	20.792382
2313.619654	-2.987500	2.918000	-8.717100	28.990617	0.000211	20.799049
2314.618823	-2.991300	2.916300	-8.723000	28.990666	0.000210	20.791512
2315.617424	-2.980700	2.914800	-8.687500	28.958737	0.000211	20.813397
2316.616639	-2.945700	2.915900	-8.587900	28.948633	0.000209	20.790416
2317.618086	-3.005100	2.910800	-8.745900	28.922376	0.000209	20.785773
2318.618157	-2.991300	2.909400	-8.700900	28.864926	0.000210	20.780528
2319.620009	-2.985200	2.908900	-8.682500	28.845084	0.000208	20.811748
2320.619775	-3.025400	2.904700	-8.787100	28.827501	0.000211	20.811105
2321.619473	-2.975400	2.904500	-8.641700	28.838053	0.000209	20.798975
2322.618855	-2.997200	2.903300	-8.701000	28.873898	0.000208	20.814696
2323.619863	-2.983300	2.901800	-8.655700	28.893220	0.000210	20.802867
2324.620233	-3.017600	2.898200	-8.745200	28.881948	0.000208	20.802892
2325.623761	-3.003000	2.897600	-8.700100	28.905555	0.000210	20.804863
2326.620887	-3.018100	2.894500	-8.734500	28.938549	0.000210	20.809179
2327.622765	-2.978800	2.894700	-8.620800	28.972852	0.000209	20.817660
2328.624561	-3.017300	2.890400	-8.718900	28.997324	0.000210	20.816238
2329.622986	-3.003900	2.889000	-8.677700	28.977779	0.000209	20.805081
2330.623420	-2.971100	2.889600	-8.583500	28.996211	0.000211	20.825548
2331.620518	-2.988300	2.885900	-8.623200	29.033683	0.000208	20.802137
2332.624751	-3.019100	2.882500	-8.701700	29.032987	0.000210	20.817557
2333.624601	-2.990900	2.881800	-8.618300	29.026350	0.000210	20.813714
2334.629090	-2.964900	2.881300	-8.541300	29.037374	0.000208	20.825770
2335.626405	-2.969800	2.878600	-8.547500	29.016389	0.000211	20.819799
2336.641797	-2.983500	2.877400	-8.583300	28.981142	0.000210	20.809417
2337.625468	-3.001400	2.874900	-8.627500	28.935810	0.000209	20.815429
2338.627289	-3.031500	2.872300	-8.707100	28.919141	0.000211	20.824714
2339.628579	-2.986400	2.870400	-8.570400	28.927784	0.000209	20.799283
2340.628768	-3.003600	2.869200	-8.617100	28.987702	0.000209	20.804647
2341.627491	-3.008100	2.866100	-8.620700	29.043998	0.000209	20.834340
2342.625304	-3.013300	2.864600	-8.630000	29.062547	0.000207	20.835960
2343.629849	-3.006300	2.861600	-8.601800	29.019581	0.000209	20.818273
2344.627460	-3.031500	2.859700	-8.667600	28.964641	0.000209	20.823138
2345.631959	-3.015400	2.858300	-8.618300	28.906449	0.000209	20.827574
2346.627582	-2.980300	2.856300	-8.512200	28.897433	0.000207	20.824181
2347.630117	-2.970200	2.855100	-8.478500	28.871850	0.000209	20.814530
2348.627926	-2.997800	2.851900	-8.549000	28.882798	0.000207	20.830300
2349.630179	-2.980000	2.850900	-8.494200	28.896771	0.000210	20.833471
2350.632588	-2.986600	2.849700	-8.509700	28.859171	0.000209	20.825464
2351.631672	-2.987600	2.846900	-8.503300	28.888602	0.000206	20.801534
2352.628343	-2.990500	2.844000	-8.504200	28.923328	0.000208	20.833199
2353.627617	-2.985600	2.841900	-8.484200	28.888749	0.000206	20.821597
2354.631334	-3.020700	2.840100	-8.577600	28.872972	0.000207	20.829410
2355.632972	-2.960300	2.838500	-8.402300	28.911075	0.000207	20.823700
2356.634253	-2.997300	2.835200	-8.496600	28.973891	0.000208	20.832457
2357.631012	-2.981500	2.833200	-8.445200	29.043639	0.000206	20.827341
2358.630130	-2.996800	2.830500	-8.481200	29.058531	0.000209	20.833810
2359.633228	-3.024500	2.828500	-8.554000	29.100015	0.000206	20.842419
2360.638106	-2.999200	2.827900	-8.480600	29.149845	0.000205	20.813921
2361.631426	-2.988900	2.825200	-8.443800	29.177132	0.000209	20.837623
2362.629498	-2.976900	2.823600	-8.404300	29.192967	0.000208	20.837934
2363.636389	-2.988400	2.820800	-8.428000	29.227266	0.000207	20.830772
2364.631104	-3.006000	2.819000	-8.473200	29.246263	0.000207	20.848967
2365.632597	-3.017600	2.814400	-8.491800	29.264882	0.000208	20.834541
2366.635669	-3.024700	2.812700	-8.506100	29.296585	0.000207	20.829033
2367.634155	-2.981900	2.811700	-8.383600	29.312807	0.000207	20.852019
2368.633621	-2.996500	2.808900	-8.415700	29.306740	0.000205	20.848749
2369.635417	-2.980100	2.805800	-8.360600	29.276781	0.000205	20.859333
2370.634941	-2.974900	2.804200	-8.340600	29.269228	0.000206	20.851248
2371.636343	-2.984400	2.800500	-8.357200	29.259941	0.000206	20.848053
2372.640150	-3.007400	2.799200	-8.417100	29.201009	0.000207	20.858364
2373.633092	-3.003900	2.795200	-8.395500	29.129806	0.000205	20.861056
2374.638853	-3.002000	2.792700	-8.382500	29.068960	0.000207	20.830094
2375.636457	-2.981900	2.792400	-8.325800	29.036465	0.000206	20.841449
2376.639136	-2.970100	2.789900	-8.285100	29.049200	0.000207	20.849538
2377.640151	-3.004400	2.785500	-8.366400	29.042705	0.000208	20.828770
2378.635678	-2.966900	2.784100	-8.258700	29.037460	0.000209	20.859045
2379.640385	-3.024700	2.779500	-8.406200	29.015194	0.000207	20.839458
2380.637845	-2.987800	2.776900	-8.296300	29.016410	0.000207	20.853958
2381.639843	-2.978400	2.774500	-8.262300	29.016464	0.000207	20.850219
2382.640490	-3.017000	2.772100	-8.362300	29.027464	0.000206	20.876948
2383.641787	-3.003000	2.767600	-8.310600	29.046341	0.000206	20.849028
2384.645514	-2.996000	2.765600	-8.283300	29.094983	0.000207	20.838770
2385.644327	-2.984700	2.764400	-8.249800	29.132412	0.000208	20.852777
2386.644693	-2.991100	2.761000	-8.257300	29.206237	0.000207	20.845141
2387.650611	-3.014200	2.756800	-8.308800	29.226616	0.000209	20.862832
2388.651283	-3.004000	2.754800	-8.273800	29.277312	0.000206	20.862239
2389.642646	-3.005800	2.750300	-8.266300	29.297768	0.000209	20.860096
2390.642965	-2.995000	2.748600	-8.231100	29.276675	0.000209	20.870131
2391.643713	-2.994800	2.744100	-8.217000	29.239206	0.000206	20.858925
2392.644477	-3.000600	2.741400	-8.225700	29.238569	0.000209	20.859705
2393.644389	-3.003500	2.739100	-8.225000	29.274998	0.000207	20.864174
2394.642189	-2.999200	2.736700	-8.206100	29.300899	0.000207	20.868466
2395.642601	-2.977300	2.733900	-8.138800	29.341487	0.000206	20.862905
2396.642938	-3.005300	2.729900	-8.203200	29.407207	0.000206	20.873192
2397.649070	-3.003500	2.725500	-8.184800	29.392750	0.000206	20.858622
2398.639602	-3.017600	2.720500	-8.208200	29.430679	0.000205	20.859393
2399.643145	-3.013500	2.717900	-8.190100	29.470815	0.000207	20.857175
2400.640857	-2.998300	2.717300	-8.144300	29.509123	0.000207	20.871132
2401.642493	-3.027900	2.710900	-8.207700	29.471418	0.000206	20.851618
2402.641994	-2.972700	2.709900	-8.054700	29.462603	0.000208	20.866440
2403.641035	-2.991200	2.704800	-8.090200	29.526433	0.000208	20.869141
2404.644950	-3.005000	2.703200	-8.120900	29.529726	0.000206	20.872460
2405.643126	-3.004300	2.697600	-8.103700	29.498862	0.000205	20.863634
2406.641715	-3.010500	2.693700	-8.108000	29.470339	0.000205	20.866177
2407.640714	-2.976500	2.691600	-8.010800	29.455741	0.000206	20.868533
2408.643245	-2.996300	2.687200	-8.049400	29.443584	0.000207	20.874770
2409.643131	-3.020900	2.682700	-8.103000	29.442672	0.000207	20.865792
2410.645572	-2.998000	2.680400	-8.034300	29.468648	0.000206	20.873955
2411.642830	-2.985900	2.675400	-7.987500	29.473778	0.000206	20.857316
2412.643447	-3.008400	2.670900	-8.034000	29.469147	0.000205	20.868295
2413.647446	-2.985600	2.668300	-7.965700	29.518048	0.000205	20.857844
2414.643447	-3.020900	2.663500	-8.045700	29.537681	0.000206	20.865307
2415.643631	-3.018500	2.659700	-8.027000	29.586976	0.000206	20.862368
2416.643213	-2.997700	2.655500	-7.959100	29.617499	0.000206	20.871801
2417.642070	-2.994700	2.651900	-7.941000	29.654640	0.000207	20.879846
2418.643375	-3.023400	2.646800	-8.001100	29.685088	0.000204	20.866447
2419.646955	-2.998900	2.641900	-7.921000	29.713732	0.000204	20.867350
2420.642810	-3.011200	2.638600	-7.944300	29.752300	0.000203	20.842700
2421.642813	-2.990500	2.633800	-7.875000	29.755592	0.000204	20.852183
2422.643818	-2.982000	2.630500	-7.843600	29.742086	0.000206	20.854212
2423.642809	-2.965800	2.626800	-7.789100	29.709538	0.000205	20.842734
2424.647171	-2.989800	2.620000	-7.832300	29.681300	0.000205	20.834654
2425.643658	-3.007100	2.613900	-7.859900	29.635292	0.000205	20.845643
2426.646673	-3.000800	2.608600	-7.826600	29.578307	0.000204	20.857896
2427.644672	-2.977500	2.604400	-7.754100	29.528820	0.000206	20.851634
2428.645667	-2.986700	2.600000	-7.764400	29.561903	0.000206	20.848473
2429.647690	-3.017200	2.593700	-7.823800	29.514493	0.000206	20.847149
2430.646488	-3.002200	2.589300	-7.772800	29.499896	0.000206	20.841444
2431.645634	-3.030300	2.581300	-7.821400	29.495295	0.000206	20.849608
2432.645634	-3.012200	2.578400	-7.765700	29.521563	0.000204	20.839577
2433.645633	-2.990200	2.573100	-7.693100	29.566699	0.000206	20.842876
2434.645632	-3.007300	2.565800	-7.714900	29.633865	0.000204	20.838989
2435.646634	-2.991600	2.561800	-7.662400	29.679912	0.000207	20.836100
2436.645966	-3.005900	2.556900	-7.684600	29.714641	0.000204	20.841715
2437.645969	-3.033700	2.548900	-7.730800	29.728480	0.000206	20.854245
2438.645967	-3.005800	2.543800	-7.645700	29.776776	0.000207	20.828498
2439.646966	-3.043400	2.536600	-7.718200	29.847240	0.000205	20.819890
2440.650971	-2.979200	2.533300	-7.545000	29.831056	0.000206	20.852407
2441.647965	-2.986500	2.525200	-7.540100	29.815935	0.000205	20.834790
2442.649968	-2.983600	2.519700	-7.516800	29.802919	0.000204	20.843004
2443.647967	-2.972100	2.514700	-7.472300	29.817747	0.000205	20.815755
2444.647966	-2.977200	2.506900	-7.462200	29.849209	0.000206	20.828038
2445.649965	-3.013800	2.500200	-7.533300	29.875689	0.000204	20.837669
2446.651967	-3.014300	2.494200	-7.516600	29.862821	0.000205	20.829910
