LabVIEW Measurement	
Writer_Version	2
Reader_Version	2
Separator	Tab
Decimal_Separator	.
Multi_Headings	No
X_Columns	One
Time_Pref	Absolute
Operator	admin
Description	Clolumns are: time, Current, Voltage, Power, Battery Temp, and Chamber Temp
Date	2024/08/16
Time	13:06:06.104549407958984375
***End_of_Header***	
	
Channels	6						
Samples	1	1	1	1	1	1	
Date	2024/08/16	2024/08/16	2024/08/16	2024/08/16	2024/08/16	2024/08/16	
Time	13:06:06.1205334663391113281	13:06:06.1265330314636230469	13:06:06.1325349807739257812	13:06:06.104549407958984375	13:06:06.104549407958984375	13:06:06.104549407958984375	
X_Dimension	Time	Time	Time	Time	Time	Time	
X0	0.0000000000000000E+0	0.0000000000000000E+0	0.0000000000000000E+0	0.0000000000000000E+0	0.0000000000000000E+0	0.0000000000000000E+0	
Delta_X	1.000000	1.000000	1.000000	1.000000	1.000000	1.000000	
***End_of_Header***							
X_Value	Untitled	Untitled 1	Untitled 2	Untitled 3	Untitled 4	Untitled 5	Comment
0.000000	0.024047	4.042900	0.097215	21.007323	0.001130	20.804404
1.001429	-3.021800	3.914000	-11.826000	21.011663	0.001133	20.810642
2.002424	-3.019300	3.910400	-11.805000	21.055572	0.001131	20.805247
3.002199	-3.000300	3.904400	-11.713000	21.027283	0.001130	20.817730
4.000002	-3.012000	3.900900	-11.749000	21.014058	0.001131	20.809718
4.997777	-3.003600	3.896700	-11.703000	21.013103	0.001133	20.806866
6.000871	-2.980000	3.893700	-11.602000	21.014729	0.001134	20.839312
7.001587	-2.996100	3.891300	-11.657000	21.029270	0.001135	20.828252
8.002628	-2.990500	3.888000	-11.625000	21.019575	0.001136	20.823296
9.002801	-3.001300	3.885300	-11.660000	21.032090	0.001135	20.808313
10.003195	-3.008600	3.883900	-11.684000	21.032680	0.001136	20.811274
11.003376	-3.019200	3.880900	-11.717000	21.019069	0.001137	20.777746
12.003500	-3.026700	3.878200	-11.737000	21.022707	0.001137	20.796558
13.000977	-3.002500	3.876000	-11.637000	21.025780	0.001138	20.815752
14.004107	-2.988800	3.874900	-11.580000	21.020165	0.001140	20.812507
15.002815	-3.015500	3.873900	-11.680000	21.023280	0.001138	20.801872
16.003961	-3.002300	3.869700	-11.617000	21.017419	0.001140	20.800752
17.004610	-3.004500	3.869200	-11.625000	21.048422	0.001143	20.822752
18.006667	-3.000200	3.867800	-11.603000	21.036676	0.001144	20.788719
19.007780	-3.031200	3.864900	-11.714000	21.059234	0.001144	20.778565
20.008096	-3.001700	3.864300	-11.598000	21.055115	0.001143	20.809058
21.013051	-3.018500	3.863000	-11.659000	21.049075	0.001146	20.780257
22.006716	-3.002400	3.862700	-11.596000	21.042439	0.001147	20.786422
23.008039	-3.015400	3.860800	-11.641000	21.051119	0.001147	20.802216
24.011241	-2.993500	3.859700	-11.553000	21.059659	0.001149	20.781835
25.010223	-3.009200	3.856500	-11.604000	21.088038	0.001148	20.789832
26.009489	-2.993400	3.856400	-11.542000	21.082381	0.001150	20.774690
27.011320	-2.974000	3.856100	-11.466000	21.088495	0.001151	20.768951
28.010220	-3.005300	3.853000	-11.578000	21.073097	0.001152	20.776784
29.011431	-2.993300	3.853700	-11.533000	21.092009	0.001151	20.799020
30.011931	-2.974000	3.852200	-11.456000	21.069902	0.001155	20.807253
31.008546	-3.016500	3.851300	-11.616000	21.083870	0.001156	20.790879
32.011127	-3.012500	3.849700	-11.596000	21.095198	0.001156	20.813589
33.010763	-2.982600	3.849000	-11.478000	21.080109	0.001159	20.789014
34.009724	-3.003100	3.846800	-11.551000	21.093351	0.001159	20.768593
35.012282	-3.007800	3.846100	-11.565000	21.087115	0.001159	20.803133
36.008986	-2.990600	3.846400	-11.501000	21.095370	0.001160	20.776303
37.011384	-3.009100	3.845800	-11.571000	21.113358	0.001160	20.790029
38.010556	-2.987100	3.844700	-11.484000	21.099864	0.001163	20.788385
39.013682	-3.005100	3.843800	-11.549000	21.097814	0.001164	20.766419
40.009159	-3.002500	3.840900	-11.530000	21.110858	0.001164	20.774251
41.012988	-2.986800	3.841100	-11.471000	21.117754	0.001165	20.783520
42.013524	-2.995500	3.840500	-11.501000	21.093874	0.001166	20.773384
43.011829	-3.008800	3.838300	-11.547000	21.119047	0.001168	20.777226
44.013227	-3.007100	3.838600	-11.542000	21.114707	0.001167	20.770989
45.015879	-2.975700	3.838900	-11.423000	21.122832	0.001170	20.778168
46.015742	-2.985200	3.838600	-11.459000	21.134387	0.001169	20.770760
47.013039	-3.026400	3.834900	-11.605000	21.139749	0.001170	20.783236
48.015997	-3.006900	3.835900	-11.533000	21.142365	0.001170	20.764515
49.015916	-2.991000	3.836400	-11.472000	21.125455	0.001174	20.778895
50.017021	-2.995300	3.835400	-11.487000	21.162845	0.001173	20.779787
51.019059	-2.983200	3.835500	-11.441000	21.158955	0.001175	20.766412
52.019889	-2.981000	3.833500	-11.427000	21.164243	0.001176	20.755106
53.021498	-3.000600	3.833800	-11.503000	21.146705	0.001176	20.781659
54.021526	-2.983400	3.832100	-11.432000	21.176462	0.001178	20.772545
55.022218	-2.993700	3.831600	-11.469000	21.178603	0.001178	20.764255
56.021434	-3.004800	3.831400	-11.512000	21.160026	0.001179	20.754207
57.024170	-3.003300	3.830500	-11.503000	21.171272	0.001180	20.756447
58.023790	-3.022800	3.829400	-11.575000	21.189881	0.001181	20.769847
59.022539	-3.001400	3.829300	-11.493000	21.183596	0.001181	20.761663
60.022857	-3.000600	3.827900	-11.485000	21.191377	0.001183	20.759015
61.024954	-2.996500	3.827700	-11.469000	21.187658	0.001186	20.775210
62.024407	-3.008400	3.828100	-11.515000	21.197686	0.001185	20.780026
63.027886	-3.001100	3.827700	-11.487000	21.185689	0.001186	20.750954
64.023850	-2.980800	3.826200	-11.405000	21.194540	0.001187	20.745584
65.023477	-2.994500	3.826300	-11.457000	21.206155	0.001187	20.763841
66.029470	-3.004000	3.825000	-11.490000	21.216435	0.001189	20.763693
67.024215	-2.977800	3.824500	-11.387000	21.206481	0.001191	20.777918
68.026243	-2.997100	3.824400	-11.461000	21.209848	0.001192	20.764691
69.029208	-3.002700	3.823300	-11.479000	21.220146	0.001191	20.742749
70.022860	-3.021400	3.821600	-11.545000	21.223446	0.001196	20.784458
71.026796	-2.958900	3.824200	-11.315000	21.228548	0.001197	20.752577
72.028635	-2.997300	3.823000	-11.457000	21.234235	0.001197	20.764431
73.027355	-2.991200	3.822700	-11.434000	21.231293	0.001196	20.753427
74.026739	-3.006500	3.821700	-11.489000	21.238606	0.001197	20.745570
75.027884	-3.014900	3.819100	-11.514000	21.235756	0.001200	20.754572
76.030869	-2.990400	3.820800	-11.425000	21.219240	0.001200	20.766500
77.027534	-3.006000	3.819600	-11.480000	21.215719	0.001200	20.750649
78.029842	-2.971700	3.820200	-11.351000	21.240822	0.001202	20.760114
79.029957	-3.016700	3.816500	-11.512000	21.248676	0.001203	20.736676
80.029119	-3.014500	3.818500	-11.510000	21.250393	0.001203	20.751671
81.029421	-3.020300	3.816100	-11.525000	21.245709	0.001205	20.760262
82.029112	-2.996300	3.817500	-11.437000	21.262919	0.001206	20.734330
83.029291	-3.006400	3.815700	-11.471000	21.262396	0.001206	20.762257
84.030002	-3.001100	3.816000	-11.451000	21.250270	0.001208	20.724520
85.028118	-3.020500	3.813500	-11.517000	21.277735	0.001207	20.748204
86.032531	-2.975600	3.814600	-11.350000	21.275464	0.001208	20.752096
87.031330	-2.988000	3.814700	-11.398000	21.257829	0.001212	20.753420
88.030801	-2.996800	3.814000	-11.428000	21.284869	0.001210	20.753919
89.031302	-2.998600	3.813000	-11.432000	21.256726	0.001211	20.729082
90.030716	-3.016700	3.813000	-11.502000	21.298231	0.001212	20.741682
91.030824	-2.984100	3.813500	-11.378000	21.282910	0.001212	20.748640
92.028127	-2.992500	3.812000	-11.407000	21.302700	0.001212	20.763223
93.032033	-3.004200	3.812900	-11.452000	21.300225	0.001213	20.738935
94.031312	-3.005400	3.810600	-11.451000	21.293158	0.001215	20.766005
95.032585	-3.020800	3.809400	-11.507000	21.320998	0.001215	20.750708
96.033967	-3.015500	3.808600	-11.484000	21.280614	0.001213	20.752981
97.031279	-2.996800	3.809900	-11.417000	21.282029	0.001218	20.727368
98.033180	-2.964700	3.809300	-11.291000	21.312428	0.001218	20.741661
99.033303	-2.999200	3.808900	-11.422000	21.324874	0.001220	20.724713
100.031322	-2.969300	3.808700	-11.308000	21.338267	0.001221	20.755658
101.029518	-2.999600	3.807200	-11.419000	21.335472	0.001220	20.749543
102.031344	-3.009200	3.806100	-11.452000	21.335946	0.001222	20.743378
103.035650	-2.974400	3.808000	-11.325000	21.345874	0.001221	20.750940
104.033651	-2.994600	3.806500	-11.397000	21.345418	0.001223	20.737681
105.037031	-2.987600	3.806900	-11.372000	21.337435	0.001224	20.742971
106.034134	-2.972600	3.807600	-11.317000	21.345632	0.001225	20.742637
107.035767	-2.992400	3.805900	-11.388000	21.353714	0.001225	20.742188
108.034930	-2.999500	3.805400	-11.413000	21.336227	0.001225	20.723744
109.036988	-2.977400	3.806000	-11.331000	21.342438	0.001228	20.747502
110.035009	-3.007200	3.804500	-11.440000	21.367155	0.001229	20.749947
111.037096	-2.992600	3.803300	-11.381000	21.353387	0.001229	20.748025
112.038843	-3.009900	3.803200	-11.447000	21.375033	0.001228	20.738387
113.040629	-2.993600	3.804100	-11.386000	21.368577	0.001230	20.739989
114.039906	-2.993000	3.802800	-11.381000	21.372091	0.001231	20.738289
115.044506	-2.998200	3.801900	-11.397000	21.369746	0.001232	20.720769
116.035607	-2.982900	3.801800	-11.339000	21.372842	0.001235	20.735247
117.036119	-2.997800	3.800000	-11.391000	21.385779	0.001234	20.730646
118.036660	-2.989700	3.800500	-11.361000	21.378923	0.001233	20.723786
119.038218	-2.996100	3.799900	-11.384000	21.378874	0.001236	20.743653
120.037773	-2.991300	3.799300	-11.363000	21.396686	0.001236	20.729705
121.037527	-3.000000	3.797500	-11.391000	21.409049	0.001237	20.739705
122.040063	-3.010500	3.797800	-11.432000	21.397602	0.001238	20.721612
123.037043	-2.983100	3.799500	-11.333000	21.410176	0.001236	20.711907
124.037491	-3.012300	3.798100	-11.439000	21.429157	0.001241	20.726631
125.038189	-3.011500	3.797900	-11.436000	21.417629	0.001241	20.732641
126.037522	-3.004600	3.798300	-11.411000	21.431126	0.001238	20.722437
127.037191	-3.009400	3.797000	-11.424000	21.418201	0.001240	20.727049
128.039264	-3.015100	3.796100	-11.444000	21.451774	0.001244	20.722708
129.038962	-3.023100	3.796600	-11.477000	21.436960	0.001242	20.741078
130.037702	-3.016600	3.795400	-11.448000	21.459812	0.001243	20.713681
131.039702	-3.006700	3.795800	-11.410000	21.462926	0.001243	20.714425
132.040708	-2.984700	3.795000	-11.327000	21.467517	0.001243	20.718071
133.039244	-3.013200	3.792900	-11.427000	21.473997	0.001243	20.707011
134.041579	-3.009700	3.793800	-11.418000	21.500183	0.001245	20.731791
135.040005	-2.984800	3.794000	-11.323000	21.460223	0.001247	20.726421
136.038597	-2.995900	3.792200	-11.360000	21.481203	0.001248	20.719912
137.042315	-3.022500	3.792300	-11.461000	21.491825	0.001248	20.713944
138.042940	-2.981500	3.793100	-11.307000	21.485370	0.001248	20.721236
139.042251	-3.023400	3.790900	-11.460000	21.496164	0.001251	20.731563
140.041534	-2.988600	3.792100	-11.332000	21.508835	0.001253	20.720060
141.043132	-3.007200	3.791600	-11.401000	21.514448	0.001252	20.727099
142.043170	-3.012200	3.790700	-11.416000	21.506490	0.001252	20.703488
143.043169	-3.008800	3.789800	-11.401000	21.508533	0.001252	20.713593
144.045170	-3.022000	3.789400	-11.450000	21.519432	0.001255	20.724974
145.045169	-2.999100	3.788600	-11.361000	21.514244	0.001252	20.718834
146.046171	-3.029000	3.788300	-11.473000	21.528811	0.001254	20.724875
147.048172	-3.014600	3.787900	-11.418000	21.526768	0.001254	20.711925
148.049171	-3.015600	3.787900	-11.420000	21.545683	0.001254	20.711886
149.046174	-3.002400	3.786700	-11.369000	21.533827	0.001255	20.710453
150.049173	-3.027300	3.786400	-11.462000	21.536620	0.001256	20.716568
151.049172	-3.010500	3.785900	-11.396000	21.533795	0.001256	20.702834
152.046171	-2.986400	3.788100	-11.312000	21.549211	0.001256	20.714942
153.046170	-3.003800	3.787000	-11.375000	21.540878	0.001257	20.714190
154.047171	-2.993500	3.787400	-11.337000	21.577746	0.001258	20.716470
155.046171	-2.996900	3.786000	-11.345000	21.563802	0.001258	20.713895
156.046171	-2.988600	3.784900	-11.311000	21.571530	0.001258	20.704559
157.047210	-2.990600	3.785000	-11.318000	21.557143	0.001259	20.702490
158.048211	-2.997100	3.785100	-11.343000	21.547568	0.001260	20.722307
159.048208	-3.001300	3.782300	-11.351000	21.580681	0.001260	20.707552
160.048208	-2.998700	3.784000	-11.345000	21.558818	0.001262	20.704640
161.048241	-3.004800	3.782400	-11.365000	21.592811	0.001261	20.694084
162.048238	-2.995300	3.782100	-11.327000	21.594176	0.001262	20.698770
163.049238	-2.995900	3.782500	-11.331000	21.587697	0.001261	20.710779
164.049243	-2.990000	3.781700	-11.306000	21.615080	0.001263	20.691239
165.049239	-2.996800	3.781400	-11.331000	21.608601	0.001263	20.697558
166.051238	-2.989400	3.781600	-11.304000	21.589680	0.001263	20.695693
167.049242	-3.010400	3.782100	-11.384000	21.624792	0.001263	20.697165
168.050240	-3.013700	3.781000	-11.394000	21.620755	0.001264	20.719206
169.052238	-2.986200	3.780200	-11.287000	21.628933	0.001266	20.700835
170.050239	-3.001900	3.779100	-11.343000	21.617555	0.001263	20.695138
171.050238	-3.010800	3.778900	-11.375000	21.636416	0.001266	20.670388
172.050242	-3.018900	3.778000	-11.404000	21.636065	0.001266	20.684737
173.051016	-3.003400	3.778600	-11.347000	21.637585	0.001265	20.708545
174.050823	-2.989300	3.778500	-11.293000	21.647117	0.001269	20.694376
175.050823	-3.004300	3.778100	-11.350000	21.633082	0.001269	20.681277
176.050823	-3.012000	3.775600	-11.371000	21.645271	0.001269	20.710073
177.051825	-3.007300	3.777300	-11.359000	21.626922	0.001269	20.669896
178.053558	-3.020700	3.775100	-11.402000	21.640712	0.001270	20.683223
179.055649	-2.993500	3.776200	-11.303000	21.628793	0.001268	20.661336
180.052650	-3.008900	3.776500	-11.362000	21.631137	0.001268	20.701619
181.052796	-3.015100	3.774500	-11.379000	21.632394	0.001272	20.682486
182.055395	-3.003100	3.774300	-11.333000	21.627132	0.001270	20.675323
183.055999	-3.000100	3.774900	-11.324000	21.643561	0.001272	20.704569
184.055438	-3.007800	3.774600	-11.351000	21.637458	0.001273	20.674277
185.056700	-3.003000	3.773900	-11.332000	21.655463	0.001271	20.713161
186.057739	-3.021000	3.770900	-11.391000	21.650847	0.001272	20.684832
187.060060	-2.991900	3.772800	-11.287000	21.654189	0.001273	20.693392
188.061107	-2.996200	3.772200	-11.301000	21.660545	0.001274	20.689321
189.062177	-2.982000	3.772000	-11.247000	21.677910	0.001274	20.675404
190.062528	-3.025300	3.770700	-11.407000	21.671768	0.001275	20.688225
191.062315	-2.978700	3.770900	-11.231000	21.690499	0.001274	20.680417
192.059466	-3.004900	3.769600	-11.325000	21.691846	0.001275	20.678920
193.061780	-2.980100	3.771100	-11.237000	21.699255	0.001274	20.672583
194.067377	-2.985200	3.769700	-11.253000	21.679047	0.001274	20.683181
195.060882	-2.975100	3.768800	-11.211000	21.699083	0.001274	20.669566
196.061427	-2.989500	3.769300	-11.267000	21.712121	0.001277	20.657008
197.061255	-3.000700	3.767900	-11.305000	21.696805	0.001276	20.654483
198.063643	-2.961300	3.769500	-11.161000	21.688856	0.001276	20.665495
199.064095	-2.998700	3.768500	-11.299000	21.694868	0.001276	20.673409
200.065465	-3.025800	3.765900	-11.393000	21.697458	0.001277	20.681692
201.066072	-2.980900	3.767100	-11.229000	21.709605	0.001278	20.671561
202.066438	-2.992700	3.766900	-11.272000	21.684118	0.001275	20.688257
203.063396	-2.998500	3.766800	-11.294000	21.701371	0.001278	20.683237
204.068046	-3.032700	3.764100	-11.414000	21.682753	0.001276	20.673613
205.069646	-2.993100	3.765400	-11.269000	21.691201	0.001277	20.673532
206.064803	-3.007900	3.765400	-11.324000	21.720772	0.001278	20.678471
207.073238	-2.995900	3.764600	-11.277000	21.708804	0.001280	20.673131
208.068772	-2.995500	3.763400	-11.272000	21.720322	0.001279	20.652888
209.069265	-3.006900	3.762300	-11.311000	21.733041	0.001279	20.686957
210.075058	-2.983700	3.765600	-11.234000	21.728580	0.001279	20.675379
211.071372	-2.999700	3.761800	-11.282000	21.721719	0.001281	20.658080
212.067958	-3.002700	3.761400	-11.293000	21.748527	0.001278	20.650296
213.071412	-3.000900	3.763400	-11.293000	21.729945	0.001281	20.684807
214.070061	-3.000200	3.761200	-11.283000	21.760943	0.001279	20.655610
215.069890	-3.017300	3.759000	-11.341000	21.766204	0.001280	20.666566
216.072127	-3.001900	3.760400	-11.288000	21.781013	0.001280	20.657205
217.070954	-2.995400	3.760700	-11.263000	21.801532	0.001281	20.659724
218.072320	-3.014400	3.759800	-11.332000	21.800240	0.001280	20.660328
219.072302	-3.006700	3.759200	-11.302000	21.806079	0.001281	20.661905
220.073598	-3.058300	3.757600	-11.490000	21.808294	0.001281	20.669338
221.072863	-2.998600	3.759700	-11.272000	21.821730	0.001282	20.656232
222.072354	-3.014400	3.757800	-11.327000	21.801251	0.001282	20.685050
223.070016	-3.005500	3.757600	-11.292000	21.792513	0.001282	20.653541
224.068779	-2.986900	3.756900	-11.221000	21.810662	0.001282	20.660802
225.073113	-3.036700	3.755800	-11.403000	21.812982	0.001281	20.654114
226.073062	-3.012300	3.755700	-11.313000	21.815824	0.001282	20.659804
227.074739	-3.015700	3.755000	-11.323000	21.828591	0.001283	20.664522
228.075011	-3.022600	3.754400	-11.346000	21.800394	0.001281	20.683244
229.074974	-2.992000	3.756500	-11.236000	21.807150	0.001283	20.651121
230.075428	-3.015600	3.756000	-11.324000	21.824057	0.001282	20.661406
231.072428	-3.000500	3.755700	-11.268000	21.816933	0.001281	20.653327
232.075609	-3.034900	3.752300	-11.387000	21.830412	0.001282	20.659706
233.072974	-2.992700	3.753500	-11.233000	21.823355	0.001283	20.664497
234.075891	-2.982300	3.754500	-11.196000	21.845227	0.001283	20.674536
235.082738	-3.018500	3.751800	-11.324000	21.862232	0.001281	20.660735
236.075771	-3.012200	3.752200	-11.300000	21.876689	0.001284	20.661455
237.075933	-2.996400	3.752000	-11.241000	21.882047	0.001281	20.661129
238.079642	-3.001100	3.752600	-11.260000	21.887160	0.001283	20.674782
239.075104	-3.008400	3.750800	-11.283000	21.902823	0.001284	20.664381
240.074199	-2.999600	3.750200	-11.248000	21.896886	0.001285	20.670767
241.077034	-2.989000	3.750100	-11.208000	21.906662	0.001282	20.659688
242.073903	-2.993300	3.750600	-11.225000	21.913016	0.001282	20.671740
243.074526	-3.006800	3.749800	-11.273000	21.929178	0.001284	20.677961
244.077153	-3.006700	3.749500	-11.271000	21.952764	0.001284	20.666482
245.076826	-3.004600	3.749200	-11.264000	21.949824	0.001284	20.646941
246.074423	-3.014800	3.746800	-11.294000	21.931122	0.001282	20.662362
247.076495	-3.001700	3.748500	-11.250000	21.932740	0.001283	20.682949
248.077112	-3.021900	3.747300	-11.323000	21.941575	0.001285	20.669506
249.076337	-3.002700	3.747900	-11.254000	21.951269	0.001285	20.671624
250.075002	-3.013400	3.746200	-11.288000	21.973286	0.001283	20.666162
251.076448	-3.001800	3.745800	-11.242000	21.974202	0.001282	20.672295
252.075579	-2.990500	3.745900	-11.201000	22.004074	0.001282	20.670430
253.076897	-2.997200	3.746900	-11.228000	21.985774	0.001281	20.663963
254.076760	-2.975200	3.747200	-11.148000	21.978023	0.001282	20.657626
255.077157	-2.986400	3.744400	-11.182000	21.976030	0.001280	20.663693
256.077646	-3.001700	3.743900	-11.237000	21.979044	0.001283	20.660071
257.076162	-2.999400	3.744900	-11.231000	21.986795	0.001282	20.673995
258.076628	-3.006500	3.745400	-11.259000	21.992738	0.001281	20.670936
259.075994	-2.995800	3.744500	-11.217000	22.004204	0.001282	20.671983
260.078727	-3.012800	3.742000	-11.273000	22.015196	0.001282	20.680142
261.082734	-2.987800	3.743300	-11.183000	22.024571	0.001283	20.680518
262.078852	-2.989000	3.743500	-11.187000	22.024024	0.001281	20.643456
263.077422	-3.004000	3.742400	-11.242000	22.029062	0.001282	20.680272
264.079589	-2.992600	3.741900	-11.197000	22.027543	0.001281	20.652670
265.079950	-2.999000	3.741200	-11.218000	22.050130	0.001282	20.664378
266.080460	-2.992200	3.741400	-11.194000	22.050130	0.001283	20.666275
267.079121	-3.001300	3.741000	-11.225000	22.071419	0.001284	20.686166
268.081250	-2.969000	3.742300	-11.109000	22.070391	0.001281	20.678498
269.082025	-3.025800	3.739200	-11.312000	22.066627	0.001282	20.679471
270.083625	-3.012000	3.738500	-11.258000	22.080369	0.001282	20.679004
271.084278	-2.988000	3.739900	-11.174000	22.078850	0.001280	20.681277
272.084790	-2.997500	3.739600	-11.208000	22.112754	0.001281	20.677761
273.081375	-3.003700	3.738900	-11.230000	22.093981	0.001281	20.686469
274.082650	-2.994300	3.738200	-11.192000	22.120830	0.001283	20.672095
275.083431	-2.991700	3.737600	-11.181000	22.106874	0.001279	20.687522
276.080645	-2.999500	3.737500	-11.209000	22.085838	0.001282	20.660296
277.083111	-2.998500	3.736300	-11.202000	22.089750	0.001283	20.688871
278.083362	-2.998700	3.736400	-11.203000	22.060287	0.001281	20.671227
279.083852	-2.991700	3.737200	-11.179000	22.069139	0.001282	20.684832
280.085138	-2.996900	3.736700	-11.198000	22.073703	0.001280	20.667588
281.083363	-3.011900	3.736100	-11.252000	22.079085	0.001281	20.686254
282.081989	-2.991000	3.735900	-11.172000	22.085747	0.001280	20.675379
283.082827	-3.008800	3.735300	-11.238000	22.062613	0.001281	20.680669
284.084177	-3.016100	3.735000	-11.264000	22.072282	0.001280	20.673753
285.082320	-3.000800	3.734600	-11.205000	22.089185	0.001280	20.678347
286.087840	-3.014200	3.734000	-11.254000	22.100103	0.001281	20.683114
287.089890	-2.995100	3.734700	-11.185000	22.141732	0.001280	20.676900
288.092471	-2.982300	3.733500	-11.133000	22.142703	0.001279	20.672183
289.087420	-3.016400	3.732400	-11.257000	22.137150	0.001280	20.685116
290.087794	-2.997300	3.732000	-11.184000	22.131632	0.001280	20.667736
291.089363	-3.014900	3.731700	-11.249000	22.153670	0.001280	20.672731
292.087831	-3.015700	3.731500	-11.252000	22.173666	0.001280	20.689433
293.089469	-3.037000	3.730500	-11.329000	22.158332	0.001279	20.691625
294.089206	-2.995400	3.730000	-11.173000	22.175904	0.001280	20.672232
295.089505	-2.998800	3.731100	-11.187000	22.196317	0.001278	20.704052
296.092148	-3.005500	3.729800	-11.208000	22.192079	0.001278	20.673728
297.086291	-3.004600	3.731400	-11.210000	22.181832	0.001278	20.672478
298.088151	-3.009000	3.730100	-11.223000	22.199232	0.001279	20.679942
299.090840	-3.000400	3.729600	-11.189000	22.203038	0.001276	20.675692
300.089702	-2.989600	3.729300	-11.149000	22.194335	0.001279	20.678832
301.090595	-2.989800	3.728600	-11.147000	22.200172	0.001275	20.695584
302.085711	-2.993900	3.728600	-11.162000	22.200898	0.001278	20.692043
303.092084	-3.013900	3.728500	-11.236000	22.183941	0.001277	20.689289
304.094219	-3.012800	3.726800	-11.226000	22.216372	0.001277	20.678611
305.088960	-3.003500	3.728000	-11.196000	22.214495	0.001278	20.694277
306.093786	-3.005000	3.727100	-11.199000	22.240068	0.001277	20.697122
307.089510	-3.023800	3.726100	-11.266000	22.257982	0.001278	20.686135
308.091642	-3.010000	3.726200	-11.215000	22.243930	0.001276	20.697196
309.091112	-2.989800	3.726700	-11.141000	22.254846	0.001277	20.699591
310.091475	-3.002400	3.726500	-11.186000	22.277071	0.001277	20.678695
311.096795	-2.985000	3.726100	-11.121000	22.262693	0.001276	20.690378
312.089124	-3.025300	3.724500	-11.267000	22.283055	0.001276	20.688955
313.095182	-3.008300	3.723200	-11.199000	22.249427	0.001275	20.701278
314.094892	-3.027400	3.723100	-11.270000	22.237840	0.001277	20.674975
315.092516	-3.002800	3.723900	-11.180000	22.272662	0.001277	20.701309
316.092490	-3.025000	3.723500	-11.263000	22.286640	0.001275	20.691123
317.093506	-2.986700	3.724300	-11.123000	22.271112	0.001275	20.710663
318.090986	-3.015200	3.723700	-11.225000	22.262132	0.001275	20.703568
319.100710	-3.015100	3.723500	-11.226000	22.272925	0.001274	20.723385
320.098707	-2.990300	3.722500	-11.131000	22.267667	0.001274	20.683978
321.091319	-3.002200	3.722400	-11.175000	22.257217	0.001274	20.720459
322.095612	-2.976600	3.721400	-11.075000	22.266597	0.001274	20.706142
323.094410	-3.015500	3.720900	-11.219000	22.273244	0.001273	20.724653
324.097615	-3.027400	3.720900	-11.264000	22.282666	0.001272	20.699946
325.100392	-3.000700	3.721000	-11.165000	22.299910	0.001273	20.717214
326.098380	-3.017300	3.719900	-11.222000	22.306367	0.001272	20.704713
327.095352	-3.003400	3.720600	-11.172000	22.328714	0.001273	20.692475
328.098786	-2.999600	3.720300	-11.158000	22.322615	0.001271	20.691583
329.097009	-2.992300	3.720100	-11.131000	22.338486	0.001274	20.688035
330.098007	-3.009000	3.718100	-11.188000	22.360342	0.001271	20.700438
331.099983	-3.025300	3.718600	-11.248000	22.370857	0.001272	20.710969
332.100152	-3.005200	3.717800	-11.171000	22.364165	0.001273	20.699051
333.097636	-3.005700	3.718100	-11.173000	22.390818	0.001272	20.702507
334.098941	-2.997300	3.718100	-11.144000	22.414590	0.001271	20.702605
335.103690	-3.005600	3.716900	-11.170000	22.388443	0.001272	20.707242
336.102830	-2.984000	3.718100	-11.093000	22.406559	0.001271	20.735342
337.101795	-2.961500	3.718500	-11.010000	22.400151	0.001270	20.697628
338.100864	-2.991200	3.718400	-11.122000	22.388307	0.001268	20.697147
339.102427	-2.989300	3.716900	-11.110000	22.403181	0.001269	20.712992
340.103418	-3.010800	3.715500	-11.185000	22.413745	0.001270	20.688956
341.103947	-2.990500	3.716600	-11.113000	22.401052	0.001270	20.710386
342.103093	-3.000300	3.716300	-11.149000	22.382691	0.001269	20.706224
343.102047	-2.976400	3.715800	-11.058000	22.401894	0.001269	20.711703
344.099529	-2.978200	3.715300	-11.063000	22.403185	0.001269	20.717264
345.102015	-2.987000	3.715100	-11.097000	22.427455	0.001269	20.700790
346.099546	-2.996600	3.714800	-11.130000	22.420402	0.001268	20.723600
347.100459	-2.960900	3.713800	-10.995000	22.437416	0.001269	20.711714
348.103416	-3.003200	3.713500	-11.152000	22.466943	0.001266	20.714731
349.103958	-2.986700	3.714100	-11.091000	22.449713	0.001267	20.711700
350.101755	-3.011300	3.712400	-11.179000	22.445329	0.001269	20.700671
351.109220	-2.997600	3.714100	-11.131000	22.483476	0.001266	20.696674
352.102268	-3.011600	3.712300	-11.179000	22.485468	0.001266	20.729491
353.103603	-2.981600	3.713400	-11.072000	22.486636	0.001266	20.724970
354.101847	-3.004800	3.711600	-11.152000	22.500236	0.001265	20.715357
355.101596	-3.013400	3.710600	-11.181000	22.507787	0.001265	20.736670
356.100398	-2.992500	3.712900	-11.110000	22.523404	0.001265	20.730025
357.103868	-3.012700	3.710100	-11.176000	22.526391	0.001265	20.710731
358.103859	-3.001200	3.710700	-11.135000	22.525217	0.001264	20.730893
359.102928	-2.999500	3.711500	-11.131000	22.514180	0.001264	20.741177
360.104441	-3.008400	3.709800	-11.160000	22.508541	0.001264	20.730313
361.105916	-3.007000	3.710100	-11.155000	22.521072	0.001263	20.746657
362.107035	-3.009000	3.707700	-11.154000	22.544596	0.001263	20.745087
363.106594	-3.011000	3.707900	-11.163000	22.535127	0.001263	20.721378
364.107384	-2.992900	3.709800	-11.103000	22.537119	0.001263	20.704405
365.106843	-3.008700	3.708100	-11.156000	22.533928	0.001262	20.720651
366.104349	-3.007400	3.707900	-11.150000	22.541570	0.001260	20.720243
367.107176	-3.027300	3.707400	-11.223000	22.556954	0.001263	20.736601
368.108455	-3.021600	3.705800	-11.197000	22.558385	0.001263	20.720963
369.104570	-3.003900	3.706400	-11.133000	22.568611	0.001262	20.720774
370.108168	-2.985000	3.706800	-11.064000	22.575036	0.001260	20.744279
371.109794	-3.008100	3.705700	-11.146000	22.582063	0.001261	20.731876
372.107382	-2.982900	3.705800	-11.053000	22.560864	0.001261	20.723921
373.108601	-2.984600	3.705100	-11.057000	22.552066	0.001260	20.729808
374.112798	-2.997400	3.706300	-11.108000	22.555250	0.001260	20.728255
375.110271	-3.004400	3.704300	-11.127000	22.541300	0.001260	20.729456
376.109459	-2.990400	3.704800	-11.078000	22.548394	0.001258	20.737036
377.110173	-2.995300	3.704500	-11.095000	22.535489	0.001260	20.750190
378.111459	-2.987900	3.704200	-11.066000	22.527889	0.001259	20.735940
379.109663	-2.973700	3.704500	-11.015000	22.561054	0.001258	20.740707
380.110163	-2.990500	3.704100	-11.076000	22.557267	0.001257	20.742129
381.111601	-3.013100	3.702900	-11.157000	22.546027	0.001258	20.743675
382.107240	-2.997500	3.702900	-11.099000	22.543414	0.001256	20.738687
383.108954	-3.005700	3.702800	-11.129000	22.545228	0.001258	20.747142
384.112129	-2.993900	3.702300	-11.083000	22.538052	0.001254	20.754655
385.108539	-3.015400	3.702200	-11.162000	22.561478	0.001258	20.755357
386.110760	-3.015500	3.701600	-11.161000	22.566353	0.001258	20.745540
387.109833	-3.006000	3.701400	-11.125000	22.579167	0.001255	20.763590
388.110836	-3.012300	3.700900	-11.147000	22.567423	0.001255	20.762733
389.112053	-2.996900	3.700700	-11.090000	22.607319	0.001253	20.739154
390.116137	-2.994300	3.701500	-11.082000	22.598324	0.001255	20.768553
391.111995	-3.007000	3.700400	-11.126000	22.590381	0.001254	20.758701
392.109876	-3.022600	3.698000	-11.176000	22.634155	0.001254	20.747542
393.117288	-2.993800	3.699900	-11.076000	22.632833	0.001252	20.731993
394.115591	-2.965400	3.701900	-10.976000	22.625929	0.001253	20.762062
395.112800	-3.012200	3.698800	-11.140000	22.659662	0.001253	20.746538
396.113866	-3.013700	3.698600	-11.145000	22.654511	0.001251	20.756077
397.113945	-3.019900	3.697500	-11.165000	22.692080	0.001252	20.750559
398.112324	-2.999000	3.698300	-11.090000	22.672321	0.001253	20.778184
399.116142	-2.996300	3.698200	-11.079000	22.679730	0.001253	20.762845
400.114291	-2.995900	3.698300	-11.078000	22.687967	0.001252	20.739801
401.113292	-2.996300	3.696500	-11.074000	22.695264	0.001252	20.768448
402.113467	-2.986800	3.697100	-11.042000	22.704910	0.001251	20.764359
403.116436	-3.002400	3.696200	-11.096000	22.705961	0.001249	20.766835
404.116253	-3.007900	3.696700	-11.118000	22.727834	0.001250	20.747493
405.115449	-2.997500	3.696200	-11.077000	22.743609	0.001250	20.755708
406.116190	-3.005000	3.696500	-11.107000	22.726936	0.001249	20.757974
407.115159	-2.976000	3.697300	-11.002000	22.730821	0.001251	20.758546
408.116763	-3.014900	3.694900	-11.140000	22.733280	0.001246	20.776182
409.113264	-3.004400	3.694200	-11.098000	22.722995	0.001247	20.770622
410.117195	-3.020900	3.694900	-11.160000	22.725313	0.001251	20.771995
411.113664	-3.006000	3.696100	-11.109000	22.736544	0.001250	20.766175
412.115395	-3.000300	3.694700	-11.083000	22.755632	0.001248	20.759217
413.114554	-3.016500	3.694100	-11.142000	22.759916	0.001249	20.755448
414.121283	-3.000000	3.693100	-11.079000	22.788316	0.001250	20.750233
415.116495	-3.017500	3.692500	-11.141000	22.791482	0.001246	20.761465
416.117503	-3.011800	3.692300	-11.119000	22.806450	0.001246	20.766976
417.119580	-2.964600	3.694300	-10.950000	22.789835	0.001247	20.769298
418.116004	-3.010100	3.692300	-11.112000	22.818837	0.001248	20.762315
419.114786	-2.991100	3.692200	-11.043000	22.811183	0.001245	20.772666
420.113355	-2.980000	3.692800	-11.003000	22.794992	0.001245	20.751704
421.116975	-3.007900	3.691500	-11.103000	22.781837	0.001244	20.771244
422.114397	-2.995600	3.691900	-11.057000	22.764243	0.001245	20.779698
423.117792	-2.987300	3.691300	-11.026000	22.783706	0.001246	20.775486
424.117038	-2.989900	3.691200	-11.036000	22.776901	0.001245	20.789058
425.116988	-2.981300	3.692200	-11.007000	22.781616	0.001244	20.764384
426.118076	-3.008400	3.690400	-11.102000	22.804630	0.001245	20.790284
427.117406	-3.011400	3.691200	-11.114000	22.810482	0.001244	20.782395
428.117039	-3.021100	3.688800	-11.144000	22.800616	0.001244	20.787211
429.117836	-2.996700	3.689900	-11.056000	22.816765	0.001246	20.788215
430.120867	-3.004500	3.688900	-11.082000	22.815271	0.001243	20.770597
431.119409	-2.991700	3.690300	-11.039000	22.791630	0.001241	20.790062
432.118953	-2.965100	3.689700	-10.939000	22.816944	0.001241	20.783652
433.121731	-2.995900	3.689400	-11.052000	22.831757	0.001243	20.784267
434.118950	-2.988000	3.688400	-11.019000	22.836164	0.001239	20.777302
435.120012	-2.978000	3.688500	-10.983000	22.851415	0.001241	20.790210
436.124570	-3.025700	3.686600	-11.153000	22.847572	0.001240	20.786835
437.123006	-3.014500	3.686600	-11.113000	22.857241	0.001239	20.806953
438.118451	-3.007000	3.687200	-11.085000	22.861698	0.001241	20.786287
439.123505	-2.993300	3.687200	-11.035000	22.845556	0.001241	20.785763
440.122683	-3.010500	3.684900	-11.093000	22.870241	0.001239	20.786311
441.121873	-3.001300	3.685300	-11.060000	22.883623	0.001240	20.774587
442.124622	-3.002600	3.686200	-11.067000	22.878613	0.001238	20.784741
443.122182	-3.014800	3.684600	-11.107000	22.885436	0.001238	20.784464
444.122325	-3.004700	3.685600	-11.073000	22.892437	0.001238	20.802383
445.125648	-3.006500	3.684300	-11.076000	22.900679	0.001238	20.783614
446.118294	-3.040700	3.683000	-11.196000	22.893051	0.001238	20.798257
447.119182	-3.009100	3.683800	-11.083000	22.907329	0.001235	20.809243
448.121542	-2.997500	3.682600	-11.038000	22.903186	0.001235	20.792290
449.119967	-2.988000	3.683000	-11.004000	22.931638	0.001237	20.789501
450.124652	-3.017200	3.682500	-11.110000	22.923831	0.001236	20.798749
451.122801	-3.006700	3.682200	-11.070000	22.920175	0.001236	20.804568
452.128008	-3.022500	3.681300	-11.126000	22.942793	0.001235	20.793090
453.132688	-2.994000	3.682900	-11.025000	22.927267	0.001236	20.813096
454.126304	-2.985200	3.682700	-10.993000	22.951133	0.001232	20.799075
455.126732	-2.996300	3.682200	-11.032000	22.940224	0.001234	20.807585
456.126454	-3.014000	3.680300	-11.092000	22.953174	0.001234	20.806335
457.124878	-3.003900	3.680600	-11.056000	22.957328	0.001234	20.788212
458.124961	-3.016200	3.680900	-11.101000	22.936234	0.001232	20.804063
459.129989	-2.979200	3.681000	-10.966000	22.940781	0.001233	20.816205
460.126889	-3.016700	3.678900	-11.097000	22.952301	0.001233	20.797400
461.126971	-2.998900	3.679300	-11.032000	22.927716	0.001232	20.811649
462.129456	-2.993100	3.681800	-11.018000	22.931169	0.001232	20.805626
463.125427	-3.001400	3.679700	-11.043000	22.912792	0.001231	20.816612
464.127846	-2.982900	3.679000	-10.973000	22.954464	0.001231	20.816637
465.127680	-2.979700	3.679500	-10.963000	22.964795	0.001228	20.824616
466.130194	-3.010900	3.678000	-11.073000	22.985471	0.001232	20.838693
467.126787	-3.016000	3.678600	-11.094000	23.000916	0.001228	20.808650
468.124911	-2.992400	3.679100	-11.008000	23.028535	0.001230	20.814512
469.129683	-2.978900	3.678900	-10.958000	23.018499	0.001230	20.812043
470.128456	-3.017500	3.677000	-11.095000	23.020140	0.001228	20.809419
471.126191	-2.968700	3.678200	-10.918000	23.030582	0.001228	20.812295
472.129382	-2.993300	3.678700	-11.010000	23.034613	0.001228	20.816335
473.129858	-3.014100	3.677100	-11.083000	23.031749	0.001228	20.834327
474.131589	-3.006100	3.677500	-11.054000	23.047390	0.001226	20.806377
475.131802	-2.991800	3.678400	-11.004000	23.025321	0.001227	20.819352
476.131412	-2.993700	3.677000	-11.007000	23.061113	0.001228	20.828662
477.129754	-3.018000	3.676200	-11.093000	23.062084	0.001228	20.833902
478.129062	-3.005900	3.675600	-11.047000	23.079071	0.001225	20.839543
479.137239	-2.976700	3.676200	-10.941000	23.084651	0.001225	20.827117
480.138000	-2.979500	3.676600	-10.952000	23.076827	0.001226	20.807424
481.136255	-2.998000	3.674200	-11.015000	23.084725	0.001224	20.830035
482.137899	-2.991400	3.675700	-10.993000	23.060794	0.001223	20.807480
483.135816	-2.993400	3.674700	-10.999000	23.072674	0.001224	20.820805
484.133029	-2.981300	3.674400	-10.954000	23.075716	0.001224	20.807733
485.136122	-2.991400	3.674700	-10.991000	23.086495	0.001222	20.832283
486.135924	-2.979600	3.673700	-10.946000	23.095990	0.001223	20.809082
487.133040	-2.999700	3.673600	-11.017000	23.089863	0.001223	20.815270
488.139908	-3.012900	3.672100	-11.062000	23.102689	0.001222	20.821483
489.134278	-3.000700	3.672000	-11.017000	23.077903	0.001221	20.827468
490.137113	-2.992800	3.671800	-10.988000	23.102387	0.001221	20.833983
491.136855	-2.993600	3.672500	-10.993000	23.092068	0.001220	20.819850
492.141403	-3.012500	3.672000	-11.061000	23.108164	0.001220	20.820805
493.136791	-2.992500	3.671700	-10.986000	23.091700	0.001221	20.790558
494.137319	-2.990800	3.670900	-10.977000	23.087473	0.001219	20.807185
495.137206	-2.986100	3.670900	-10.960000	23.088566	0.001218	20.800220
496.136083	-2.988100	3.671700	-10.970000	23.096611	0.001218	20.804014
497.135482	-3.008400	3.670100	-11.038000	23.083932	0.001220	20.818810
498.138961	-2.983900	3.670000	-10.950000	23.083834	0.001218	20.785047
499.138501	-3.003500	3.668500	-11.017000	23.096218	0.001218	20.789870
500.135882	-3.019700	3.668900	-11.078000	23.114168	0.001220	20.791735
501.138912	-3.008900	3.669800	-11.040000	23.106523	0.001218	20.783126
502.142273	-3.007000	3.668700	-11.030000	23.125573	0.001217	20.797948
503.140119	-3.024300	3.667200	-11.089000	23.100372	0.001218	20.789764
504.140679	-2.999600	3.667200	-10.999000	23.094564	0.001215	20.791057
505.142403	-3.009200	3.668800	-11.039000	23.085548	0.001218	20.817585
506.138385	-3.006900	3.666900	-11.025000	23.078703	0.001215	20.778009
507.137300	-3.031100	3.666000	-11.110000	23.063799	0.001216	20.782515
508.143666	-3.002000	3.666000	-11.005000	23.101662	0.001215	20.792005
509.137152	-3.012600	3.666000	-11.043000	23.120866	0.001216	20.786119
510.139442	-2.977700	3.668500	-10.922000	23.103579	0.001213	20.769270
511.141584	-3.023200	3.663900	-11.076000	23.088258	0.001215	20.760082
512.140904	-2.991900	3.666000	-10.966000	23.110375	0.001213	20.775606
513.144012	-3.024500	3.664100	-11.080000	23.123397	0.001212	20.770637
514.140766	-2.978100	3.665300	-10.915000	23.123618	0.001212	20.786031
515.141071	-3.002400	3.665200	-11.003000	23.109349	0.001209	20.797811
516.145072	-2.992500	3.663900	-10.964000	23.136941	0.001213	20.771880
517.141556	-2.996300	3.664700	-10.980000	23.134077	0.001213	20.769959
518.141217	-2.984900	3.665100	-10.939000	23.144487	0.001211	20.779916
519.146343	-3.002700	3.664800	-11.003000	23.127722	0.001211	20.764065
520.140657	-2.992000	3.663800	-10.962000	23.112605	0.001210	20.769780
521.146782	-2.994200	3.662400	-10.965000	23.102268	0.001209	20.783604
522.146827	-3.003800	3.663600	-11.003000	23.099005	0.001209	20.773222
523.140543	-3.017400	3.663100	-11.052000	23.098833	0.001209	20.779688
524.145205	-3.004300	3.663700	-11.006000	23.114074	0.001209	20.782631
525.143215	-3.004800	3.661600	-11.001000	23.120698	0.001208	20.769355
526.143732	-2.997600	3.662100	-10.976000	23.145255	0.001207	20.794910
527.142253	-2.999500	3.661800	-10.982000	23.136811	0.001207	20.794036
528.146155	-2.989400	3.661500	-10.945000	23.147424	0.001207	20.774799
529.144578	-2.978400	3.662600	-10.908000	23.133401	0.001206	20.763117
530.145728	-3.006300	3.661300	-11.005000	23.126131	0.001206	20.769583
531.142757	-3.006500	3.660400	-11.003000	23.107407	0.001206	20.775477
532.142163	-2.995700	3.661300	-10.967000	23.139724	0.001206	20.763763
533.145010	-3.033800	3.659800	-11.101000	23.141550	0.001206	20.755635
534.142984	-3.014400	3.659700	-11.031000	23.145728	0.001203	20.754132
535.143025	-2.992000	3.661100	-10.953000	23.188085	0.001204	20.776190
536.143990	-2.981600	3.660600	-10.913000	23.228562	0.001205	20.766492
537.143834	-2.998600	3.658900	-10.970000	23.213421	0.001204	20.755112
538.145186	-2.994500	3.660500	-10.960000	23.224107	0.001204	20.765347
539.146000	-3.008400	3.658500	-11.005000	23.249804	0.001205	20.749373
540.145833	-2.997600	3.659200	-10.968000	23.250628	0.001201	20.767742
541.146443	-3.002700	3.659300	-10.986000	23.238203	0.001201	20.748179
542.147133	-2.972900	3.658500	-10.874000	23.254689	0.001203	20.758062
543.148920	-3.004100	3.658000	-10.988000	23.248539	0.001203	20.746682
544.147829	-3.002500	3.655800	-10.976000	23.271827	0.001201	20.746313
545.148147	-2.997900	3.657900	-10.964000	23.303421	0.001200	20.743837
546.147996	-2.999600	3.657800	-10.971000	23.327549	0.001200	20.749527
547.148861	-2.992400	3.657400	-10.943000	23.285393	0.001200	20.753271
548.148516	-2.998800	3.657200	-10.966000	23.333349	0.001201	20.769565
549.148592	-2.993000	3.656400	-10.942000	23.325233	0.001200	20.762853
550.152041	-2.991500	3.656600	-10.938000	23.332760	0.001198	20.766130
551.149363	-3.003700	3.654900	-10.977000	23.329017	0.001197	20.745783
552.154160	-2.991700	3.656700	-10.936000	23.319285	0.001200	20.762109
553.151385	-3.004200	3.655500	-10.980000	23.305842	0.001197	20.751006
554.152632	-3.032100	3.653300	-11.076000	23.349115	0.001199	20.740795
555.151569	-3.007700	3.653200	-10.987000	23.341220	0.001195	20.745211
556.149622	-2.999500	3.654200	-10.960000	23.349262	0.001194	20.740943
557.151930	-2.983900	3.654200	-10.903000	23.353127	0.001194	20.738179
558.148152	-2.997000	3.653100	-10.946000	23.339334	0.001197	20.740001
559.150843	-3.029700	3.652500	-11.065000	23.367190	0.001196	20.748481
560.152617	-2.997200	3.653400	-10.949000	23.352346	0.001195	20.732180
561.153666	-3.010200	3.651700	-10.992000	23.354393	0.001194	20.757465
562.158001	-3.004100	3.651700	-10.969000	23.352076	0.001194	20.746134
563.151173	-3.001100	3.653400	-10.962000	23.374686	0.001195	20.736078
564.153878	-2.997500	3.651800	-10.945000	23.361710	0.001194	20.747255
565.157091	-3.016600	3.649800	-11.009000	23.349581	0.001192	20.738892
566.151495	-3.000400	3.651300	-10.954000	23.392337	0.001191	20.736226
567.150958	-3.020900	3.650600	-11.027000	23.386163	0.001192	20.742365
568.157083	-2.977800	3.651800	-10.873000	23.393455	0.001191	20.711266
569.152853	-2.994000	3.651300	-10.930000	23.385935	0.001191	20.736447
570.156642	-2.973400	3.650900	-10.854000	23.386783	0.001189	20.745358
571.154894	-2.997300	3.651100	-10.941000	23.372934	0.001191	20.724364
572.154546	-2.991800	3.650200	-10.919000	23.396448	0.001190	20.742717
573.156197	-3.013800	3.649600	-10.998000	23.393830	0.001189	20.745783
574.155661	-2.977800	3.648900	-10.865000	23.400404	0.001190	20.734828
575.157228	-2.976300	3.649200	-10.859000	23.406831	0.001189	20.735105
576.156052	-2.998800	3.649000	-10.942000	23.386261	0.001190	20.743886
577.157734	-2.985300	3.648300	-10.890000	23.383188	0.001188	20.760247
578.160110	-2.995700	3.648500	-10.929000	23.400846	0.001188	20.748073
579.158774	-3.007300	3.646600	-10.964000	23.402062	0.001187	20.724161
580.158915	-3.002500	3.647400	-10.950000	23.418626	0.001188	20.727487
581.158583	-2.997800	3.648100	-10.934000	23.415111	0.001185	20.721593
582.162811	-2.998300	3.647200	-10.934000	23.418496	0.001186	20.734470
583.161519	-3.019700	3.646700	-11.010000	23.437068	0.001187	20.733644
584.160393	-3.003500	3.646200	-10.951000	23.468240	0.001184	20.726482
585.162640	-3.021600	3.644600	-11.012000	23.427312	0.001184	20.723391
586.161013	-3.012700	3.645500	-10.981000	23.396360	0.001185	20.748319
587.160933	-3.000700	3.646500	-10.940000	23.400839	0.001183	20.732893
588.162023	-2.983400	3.647100	-10.879000	23.402829	0.001187	20.737259
589.159057	-3.011500	3.644100	-10.973000	23.428448	0.001184	20.734962
590.160728	-3.000100	3.644800	-10.932000	23.417746	0.001183	20.714277
591.161939	-2.997300	3.644200	-10.921000	23.379071	0.001183	20.738102
592.165748	-2.982700	3.643600	-10.867000	23.376908	0.001182	20.721709
593.160194	-2.999300	3.645300	-10.933000	23.372749	0.001182	20.719437
594.163468	-2.965800	3.645200	-10.810000	23.384705	0.001179	20.712454
595.165844	-3.001200	3.643800	-10.934000	23.376232	0.001181	20.741421
596.161882	-2.981500	3.643800	-10.863000	23.411295	0.001180	20.724881
597.163846	-3.002100	3.644000	-10.939000	23.429345	0.001181	20.718790
598.163429	-2.970900	3.643300	-10.822000	23.417144	0.001180	20.726001
599.164111	-2.971900	3.643000	-10.826000	23.406785	0.001178	20.726051
600.161334	-2.978000	3.642300	-10.846000	23.403818	0.001179	20.717860
601.165151	-2.981500	3.644000	-10.863000	23.413857	0.001179	20.710378
602.165514	-2.990300	3.641200	-10.888000	23.428147	0.001177	20.718063
603.165355	-2.975200	3.642900	-10.836000	23.422568	0.001177	20.711049
604.170108	-3.000200	3.641100	-10.923000	23.435698	0.001179	20.726107
605.171014	-2.998100	3.641800	-10.917000	23.407984	0.001176	20.725355
606.165308	-2.976900	3.641500	-10.839000	23.420602	0.001174	20.718088
607.171629	-2.978800	3.641500	-10.846000	23.425627	0.001174	20.722177
608.168063	-2.982400	3.641000	-10.857000	23.409298	0.001174	20.715292
609.166820	-2.990000	3.640600	-10.885000	23.410300	0.001175	20.688319
610.167649	-2.999300	3.639400	-10.914000	23.429216	0.001172	20.694003
611.167294	-2.975200	3.640200	-10.829000	23.429671	0.001172	20.710582
612.171332	-2.998400	3.639600	-10.912000	23.463313	0.001172	20.726760
613.169105	-2.992100	3.639200	-10.888000	23.495602	0.001171	20.740160
614.170796	-2.996900	3.638600	-10.904000	23.484593	0.001172	20.709682
615.173494	-2.996700	3.639200	-10.904000	23.499909	0.001173	20.706068
616.171474	-2.996800	3.637900	-10.901000	23.527393	0.001172	20.707540
617.169739	-2.993500	3.637600	-10.888000	23.513724	0.001171	20.707115
618.169690	-2.993000	3.637300	-10.885000	23.517950	0.001169	20.708032
619.172848	-2.997000	3.637700	-10.901000	23.528917	0.001170	20.705748
620.169624	-2.996500	3.636800	-10.896000	23.508276	0.001168	20.724888
621.175834	-2.989500	3.637900	-10.874000	23.514401	0.001170	20.712060
622.170434	-2.982400	3.637100	-10.847000	23.530900	0.001169	20.715323
623.169954	-3.000800	3.635600	-10.909000	23.520672	0.001167	20.717873
624.172876	-3.004600	3.636500	-10.924000	23.527824	0.001166	20.702281
625.169977	-2.991800	3.635900	-10.877000	23.538352	0.001167	20.709991
626.170811	-2.995800	3.635800	-10.891000	23.559963	0.001164	20.696566
627.172438	-2.974100	3.636000	-10.813000	23.560903	0.001164	20.691817
628.169052	-2.995500	3.634600	-10.886000	23.581297	0.001164	20.716057
629.172998	-3.007600	3.634300	-10.929000	23.585081	0.001164	20.717480
630.174480	-2.996700	3.633800	-10.887000	23.581248	0.001164	20.706050
631.172703	-3.012500	3.634100	-10.946000	23.579602	0.001161	20.711038
632.172382	-2.987600	3.633100	-10.853000	23.559294	0.001162	20.692576
633.173725	-2.991000	3.633300	-10.867000	23.562612	0.001162	20.704912
634.175290	-3.003600	3.633700	-10.913000	23.558029	0.001163	20.707905
635.174436	-2.995800	3.633100	-10.882000	23.593847	0.001163	20.707301
636.172484	-3.000700	3.632400	-10.899000	23.616501	0.001161	20.717209
637.176537	-3.013900	3.632300	-10.946000	23.590119	0.001161	20.711150
638.175852	-3.017500	3.631500	-10.956000	23.557500	0.001158	20.696942
639.173618	-3.016200	3.632500	-10.955000	23.566519	0.001158	20.696025
640.177903	-3.009500	3.632100	-10.929000	23.582331	0.001159	20.704764
641.176930	-3.018100	3.630400	-10.956000	23.584769	0.001157	20.694406
642.173702	-2.994700	3.631100	-10.874000	23.559227	0.001158	20.699622
643.178760	-3.007500	3.631600	-10.921000	23.561470	0.001159	20.688592
644.176770	-3.013900	3.630800	-10.942000	23.575512	0.001157	20.699826
645.176523	-3.000100	3.631300	-10.891000	23.576231	0.001158	20.696278
646.178285	-3.001500	3.630900	-10.897000	23.576311	0.001157	20.697781
647.178655	-2.995500	3.630900	-10.875000	23.591152	0.001156	20.680415
648.175389	-2.994000	3.630100	-10.867000	23.596797	0.001155	20.695084
649.175617	-3.007600	3.629300	-10.914000	23.609592	0.001155	20.714550
650.177944	-2.989700	3.630400	-10.852000	23.609175	0.001156	20.697061
651.176343	-2.997700	3.630400	-10.881000	23.613505	0.001155	20.679115
652.177873	-3.013000	3.628300	-10.931000	23.598345	0.001155	20.702326
653.176511	-2.993300	3.628700	-10.861000	23.602903	0.001153	20.681290
654.177074	-3.003600	3.627900	-10.896000	23.598377	0.001155	20.697616
655.178908	-3.006600	3.627300	-10.904000	23.622001	0.001155	20.684314
656.179385	-2.964000	3.629900	-10.758000	23.646301	0.001151	20.699667
657.176134	-2.999100	3.627900	-10.878000	23.618697	0.001151	20.678630
658.174878	-3.006200	3.626300	-10.900000	23.592308	0.001151	20.687739
659.180252	-3.015800	3.626000	-10.934000	23.598808	0.001151	20.678132
660.177471	-3.027200	3.625300	-10.974000	23.590823	0.001150	20.710433
661.178000	-2.998500	3.626800	-10.873000	23.554224	0.001148	20.673267
662.177399	-3.000400	3.627300	-10.882000	23.590896	0.001148	20.668303
663.177521	-2.994500	3.627000	-10.860000	23.575025	0.001149	20.696966
664.176431	-3.004100	3.625000	-10.889000	23.608379	0.001149	20.683934
665.181408	-3.009800	3.625400	-10.911000	23.655700	0.001148	20.691072
666.181029	-3.015900	3.625200	-10.932000	23.652789	0.001147	20.679143
667.180047	-3.001400	3.625700	-10.881000	23.683832	0.001147	20.672806
668.179148	-3.033300	3.622800	-10.988000	23.671185	0.001146	20.684784
669.183640	-2.999400	3.625300	-10.872000	23.672464	0.001145	20.672314
670.186649	-3.027500	3.624100	-10.971000	23.679902	0.001146	20.680720
671.180106	-2.990200	3.623500	-10.834000	23.682911	0.001144	20.704128
672.185023	-3.000500	3.624100	-10.872000	23.676598	0.001148	20.661759
673.184794	-2.974400	3.624300	-10.780000	23.690565	0.001144	20.664383
674.183707	-3.003100	3.622300	-10.877000	23.681180	0.001141	20.681528
675.185206	-3.021500	3.621500	-10.941000	23.684263	0.001142	20.690309
676.183586	-2.997100	3.622800	-10.856000	23.683324	0.001143	20.676090
677.182332	-3.009800	3.622700	-10.903000	23.687458	0.001142	20.681658
678.187140	-3.001400	3.621100	-10.867000	23.710902	0.001143	20.669125
679.184668	-3.004800	3.620900	-10.879000	23.743215	0.001140	20.656950
680.184918	-3.007800	3.620200	-10.888000	23.761732	0.001141	20.679311
681.188115	-3.001400	3.620500	-10.866000	23.775152	0.001139	20.695139
682.185441	-3.008700	3.619400	-10.888000	23.794160	0.001140	20.671994
683.187398	-2.992100	3.621900	-10.836000	23.807604	0.001139	20.686424
684.187159	-2.989900	3.620200	-10.823000	23.815993	0.001138	20.666385
685.187390	-2.999400	3.620300	-10.858000	23.788443	0.001139	20.678591
686.184801	-3.002000	3.620600	-10.868000	23.823990	0.001139	20.691949
687.184511	-3.016200	3.620200	-10.917000	23.835911	0.001137	20.658379
688.186527	-2.988400	3.620000	-10.817000	23.811517	0.001136	20.677544
689.186820	-3.017600	3.619500	-10.921000	23.819360	0.001136	20.660750
690.187628	-2.987000	3.618400	-10.808000	23.817990	0.001134	20.675974
691.189058	-3.007800	3.618100	-10.881000	23.825795	0.001135	20.666729
692.188283	-3.005600	3.618400	-10.874000	23.844440	0.001134	20.681159
693.186289	-3.011100	3.618600	-10.895000	23.854843	0.001133	20.664562
694.190931	-3.008400	3.618700	-10.886000	23.841701	0.001134	20.681731
695.185626	-2.984800	3.618500	-10.799000	23.855936	0.001132	20.668977
696.184677	-2.988500	3.618600	-10.812000	23.876098	0.001133	20.692041
697.191526	-2.995300	3.617100	-10.833000	23.872056	0.001134	20.676132
698.188480	-2.990300	3.617000	-10.815000	23.867432	0.001131	20.665805
699.188857	-2.991700	3.616700	-10.819000	23.847884	0.001132	20.672283
700.187249	-3.008500	3.615700	-10.876000	23.852864	0.001131	20.676803
701.190637	-2.988400	3.617500	-10.809000	23.866546	0.001129	20.695266
702.186649	-2.981700	3.618100	-10.787000	23.891289	0.001128	20.695894
703.190466	-2.973100	3.617600	-10.754000	23.861240	0.001129	20.671450
704.193907	-3.005800	3.614700	-10.864000	23.851807	0.001129	20.675743
705.190454	-3.002800	3.614500	-10.853000	23.861202	0.001129	20.677577
706.190116	-3.020000	3.612800	-10.909000	23.875885	0.001126	20.680446
707.195467	-3.009800	3.614400	-10.877000	23.871083	0.001126	20.679898
708.190951	-2.997300	3.615000	-10.834000	23.875006	0.001128	20.672926
709.190824	-2.970900	3.615700	-10.741000	23.864848	0.001125	20.658946
710.192631	-2.998900	3.612700	-10.833000	23.886502	0.001125	20.687774
711.189802	-3.009400	3.613900	-10.875000	23.831740	0.001124	20.689762
712.191707	-2.988100	3.613800	-10.797000	23.856631	0.001125	20.668251
713.194183	-3.001900	3.612700	-10.844000	23.860635	0.001123	20.702615
714.192559	-3.001700	3.613400	-10.845000	23.849506	0.001124	20.681497
715.191655	-2.984900	3.612000	-10.779000	23.845993	0.001124	20.686036
716.195411	-2.990100	3.613300	-10.804000	23.870453	0.001123	20.692545
717.194870	-2.975100	3.612200	-10.746000	23.891210	0.001123	20.691547
718.193657	-2.996300	3.611500	-10.819000	23.905616	0.001122	20.692717
719.194877	-2.984300	3.611500	-10.776000	23.933139	0.001118	20.684280
720.194095	-2.984300	3.611500	-10.777000	23.922810	0.001118	20.694311
721.194754	-2.979200	3.612000	-10.760000	23.941398	0.001120	20.693036
722.196272	-3.000200	3.609500	-10.829000	23.930449	0.001119	20.692488
723.196118	-3.004300	3.610600	-10.847000	23.916110	0.001118	20.686644
724.196345	-3.001700	3.610600	-10.837000	23.924737	0.001119	20.691976
725.196051	-2.977900	3.610500	-10.750000	23.893235	0.001117	20.690258
726.196550	-2.998700	3.608900	-10.820000	23.893652	0.001117	20.701583
727.198706	-2.995000	3.609700	-10.810000	23.881610	0.001115	20.702310
728.200793	-2.986300	3.609000	-10.776000	23.908107	0.001117	20.683834
729.200328	-2.999400	3.609400	-10.825000	23.905946	0.001115	20.668863
730.203915	-2.987800	3.610000	-10.783000	23.925823	0.001114	20.678839
731.196939	-3.005400	3.607600	-10.841000	23.936944	0.001114	20.708011
732.201763	-3.004700	3.608300	-10.840000	23.953892	0.001113	20.692289
733.203693	-3.007600	3.608300	-10.852000	23.932006	0.001113	20.687410
734.201639	-3.008500	3.606300	-10.848000	23.961377	0.001113	20.694105
735.203379	-3.003700	3.607500	-10.835000	23.968946	0.001113	20.704067
736.201597	-3.008600	3.606700	-10.850000	23.971268	0.001113	20.697860
737.200815	-2.990800	3.606100	-10.783000	23.944962	0.001111	20.687126
738.203887	-3.000600	3.606500	-10.820000	23.923985	0.001110	20.711138
739.204243	-2.992000	3.604900	-10.784000	23.923155	0.001109	20.699873
740.199742	-3.006800	3.605500	-10.840000	23.924868	0.001111	20.682623
741.198660	-3.001400	3.605800	-10.821000	23.917923	0.001109	20.700316
742.199159	-2.994000	3.606100	-10.796000	23.923197	0.001110	20.713193
743.204843	-3.020200	3.604000	-10.883000	23.948601	0.001108	20.708795
744.201977	-2.997500	3.605400	-10.805000	23.966937	0.001106	20.707268
745.203464	-3.016000	3.603900	-10.869000	23.963953	0.001106	20.709491
746.202115	-2.982200	3.605400	-10.751000	23.971879	0.001106	20.684247
747.202547	-2.999700	3.603900	-10.809000	24.020799	0.001104	20.689210
748.205278	-2.999400	3.604700	-10.812000	24.037396	0.001102	20.703959
749.203870	-2.998200	3.604000	-10.805000	24.042019	0.001105	20.709070
750.202992	-3.009200	3.602300	-10.839000	24.057646	0.001103	20.714785
751.203500	-3.023000	3.602000	-10.888000	24.074856	0.001103	20.702646
752.202933	-3.002000	3.603800	-10.817000	24.065099	0.001102	20.688118
753.200966	-2.994200	3.601700	-10.784000	24.062735	0.001101	20.707560
754.204758	-3.003600	3.603000	-10.821000	24.059180	0.001101	20.717746
755.204998	-2.971900	3.602800	-10.705000	24.061439	0.001101	20.700570
756.204917	-2.999400	3.601100	-10.800000	24.053696	0.001099	20.699917
757.204871	-2.985000	3.601200	-10.748000	24.051627	0.001098	20.710645
758.208135	-3.021600	3.600600	-10.879000	24.068745	0.001099	20.694146
759.202503	-2.993800	3.601400	-10.781000	24.049312	0.001097	20.710220
760.203959	-3.006800	3.600600	-10.824000	24.026586	0.001097	20.701653
761.206685	-2.985900	3.600100	-10.749000	24.017179	0.001096	20.677518
762.201818	-3.003900	3.598800	-10.809000	24.019071	0.001095	20.732998
763.205467	-2.995400	3.600200	-10.783000	24.036459	0.001095	20.718668
764.206426	-2.990900	3.599600	-10.765000	24.089656	0.001096	20.719388
765.207761	-2.994600	3.600100	-10.780000	24.108340	0.001095	20.720108
766.204593	-3.012000	3.598500	-10.838000	24.118618	0.001094	20.710976
767.212617	-3.014600	3.596800	-10.843000	24.126770	0.001093	20.704453
768.207994	-3.004500	3.598800	-10.811000	24.146503	0.001094	20.726143
769.206964	-3.027200	3.597500	-10.889000	24.145471	0.001095	20.711356
770.209811	-3.001300	3.597800	-10.797000	24.151420	0.001092	20.707365
771.206133	-2.991800	3.597400	-10.760000	24.162882	0.001093	20.715543
772.206236	-3.005500	3.596100	-10.807000	24.180496	0.001092	20.711872
773.208620	-2.997600	3.596700	-10.780000	24.174921	0.001092	20.720032
774.211340	-2.992100	3.597400	-10.762000	24.160358	0.001091	20.726762
775.210466	-3.006200	3.596000	-10.809000	24.173374	0.001091	20.724170
776.209488	-3.012700	3.594900	-10.829000	24.143406	0.001089	20.725407
777.211055	-3.016700	3.596000	-10.847000	24.163230	0.001087	20.721108
778.211437	-2.997100	3.596300	-10.777000	24.176491	0.001089	20.740099
779.207428	-2.985700	3.596400	-10.737000	24.185190	0.001087	20.730332
780.212879	-3.024200	3.594300	-10.869000	24.181432	0.001088	20.718028
781.209540	-2.985300	3.593800	-10.727000	24.155075	0.001086	20.720041
782.212091	-2.983900	3.594700	-10.725000	24.125243	0.001087	20.734691
783.216433	-2.988000	3.593800	-10.737000	24.095108	0.001086	20.747143
784.213018	-2.996700	3.593800	-10.768000	24.079003	0.001084	20.736205
785.213052	-2.989700	3.593800	-10.743000	24.064935	0.001087	20.720674
786.213503	-2.990300	3.593500	-10.745000	24.059962	0.001084	20.716160
787.213274	-3.020300	3.591200	-10.846000	24.089888	0.001085	20.730052
788.214031	-3.016800	3.592300	-10.837000	24.100657	0.001083	20.726154
789.215350	-3.009000	3.592000	-10.807000	24.095131	0.001082	20.730095
790.210963	-3.019600	3.590800	-10.842000	24.108214	0.001083	20.735630
791.214959	-3.003700	3.591700	-10.787000	24.091146	0.001081	20.731788
792.211843	-3.015600	3.591500	-10.830000	24.129874	0.001082	20.737440
793.212642	-3.040200	3.589300	-10.911000	24.179439	0.001081	20.734521
794.218091	-3.021100	3.591200	-10.849000	24.189667	0.001080	20.743832
795.217123	-3.004700	3.591100	-10.789000	24.186051	0.001079	20.748740
796.220471	-3.005700	3.589500	-10.787000	24.191699	0.001078	20.729274
797.217726	-3.007000	3.589500	-10.792000	24.223610	0.001077	20.738048
798.218526	-2.980800	3.589500	-10.699000	24.208108	0.001076	20.743837
799.221735	-3.004500	3.589200	-10.783000	24.230596	0.001075	20.742211
800.220136	-2.989700	3.589700	-10.732000	24.219079	0.001077	20.726865
801.218474	-3.018100	3.590100	-10.835000	24.234297	0.001075	20.741656
802.219161	-2.999000	3.588900	-10.761000	24.268129	0.001075	20.731969
803.224596	-2.995600	3.587500	-10.745000	24.296827	0.001075	20.745110
804.221911	-3.038100	3.587300	-10.897000	24.297951	0.001072	20.750030
805.221266	-3.002500	3.587500	-10.771000	24.302702	0.001072	20.747684
806.226734	-3.001100	3.587400	-10.765000	24.262738	0.001072	20.762598
807.221206	-3.016800	3.586500	-10.820000	24.252664	0.001074	20.746329
808.222262	-3.006200	3.587300	-10.783000	24.261208	0.001070	20.745416
809.223685	-3.019100	3.586600	-10.828000	24.233724	0.001071	20.739659
810.222580	-2.989200	3.585900	-10.718000	24.218069	0.001070	20.736758
811.222446	-2.980300	3.586200	-10.686000	24.186089	0.001069	20.748778
812.221382	-2.999000	3.586500	-10.754000	24.149166	0.001069	20.757738
813.221604	-3.015300	3.585200	-10.810000	24.169186	0.001069	20.737989
814.218860	-3.016100	3.585200	-10.810000	24.195211	0.001068	20.740384
815.222396	-3.021400	3.585200	-10.832000	24.210185	0.001066	20.759671
816.230604	-2.997500	3.583800	-10.740000	24.228473	0.001067	20.759523
817.223370	-2.985300	3.586600	-10.705000	24.246853	0.001066	20.751881
818.221902	-3.011100	3.584700	-10.793000	24.242617	0.001065	20.751424
819.228339	-3.011900	3.583800	-10.794000	24.213757	0.001064	20.745236
820.222993	-2.993100	3.583900	-10.724000	24.238111	0.001064	20.751172
821.221949	-2.995200	3.583900	-10.734000	24.251911	0.001063	20.746522
822.229464	-3.021400	3.583400	-10.826000	24.262905	0.001062	20.767508
823.223505	-3.012600	3.582700	-10.791000	24.277055	0.001061	20.758468
824.222682	-2.994400	3.584100	-10.731000	24.310665	0.001061	20.754250
825.225431	-2.993100	3.583600	-10.724000	24.322856	0.001062	20.749884
826.227414	-3.013400	3.582500	-10.795000	24.325704	0.001060	20.748947
827.227018	-2.983500	3.583500	-10.690000	24.314482	0.001059	20.771830
828.224315	-2.994300	3.581500	-10.722000	24.305102	0.001058	20.754834
829.224668	-2.991700	3.582800	-10.717000	24.282781	0.001057	20.748564
830.225921	-3.029300	3.579900	-10.843000	24.242000	0.001058	20.759815
831.225039	-3.017800	3.582300	-10.809000	24.236622	0.001055	20.776232
832.226244	-2.998400	3.580800	-10.735000	24.228488	0.001056	20.751002
833.224421	-2.991300	3.581400	-10.712000	24.284064	0.001054	20.759808
834.226150	-2.999100	3.579500	-10.734000	24.272541	0.001054	20.779544
835.231870	-2.970800	3.581200	-10.639000	24.317267	0.001053	20.769882
836.228044	-3.012500	3.581100	-10.787000	24.296960	0.001054	20.759943
837.228093	-3.005100	3.579200	-10.755000	24.335793	0.001051	20.763810
838.231082	-2.998400	3.579800	-10.733000	24.353030	0.001053	20.769721
839.228764	-3.011500	3.578200	-10.774000	24.365736	0.001051	20.768717
840.228493	-3.002500	3.579100	-10.745000	24.346448	0.001053	20.781137
841.228371	-2.979000	3.578300	-10.658000	24.324933	0.001047	20.774253
842.229890	-2.982900	3.578500	-10.674000	24.330420	0.001049	20.783551
843.225954	-2.985000	3.577300	-10.677000	24.330126	0.001049	20.757176
844.228942	-2.993400	3.578200	-10.710000	24.295939	0.001050	20.778834
845.232991	-2.985400	3.578200	-10.680000	24.287768	0.001048	20.776327
846.230028	-2.985600	3.577300	-10.679000	24.305233	0.001047	20.786260
847.229962	-2.994600	3.577100	-10.711000	24.332347	0.001047	20.785484
848.230196	-3.005000	3.574900	-10.742000	24.333083	0.001047	20.791438
849.230196	-3.010100	3.575200	-10.760000	24.386917	0.001046	20.783328
850.231928	-2.977700	3.576100	-10.647000	24.373952	0.001047	20.796875
851.231819	-2.990200	3.576100	-10.692000	24.362872	0.001045	20.775802
852.232371	-3.005500	3.575500	-10.745000	24.389089	0.001044	20.776498
853.230725	-2.988700	3.575600	-10.685000	24.361791	0.001043	20.782304
854.232350	-2.991400	3.575100	-10.693000	24.335469	0.001044	20.802366
855.233376	-3.010700	3.575000	-10.763000	24.318471	0.001041	20.796694
856.229314	-3.006000	3.574400	-10.744000	24.322400	0.001044	20.792101
857.232854	-2.999100	3.575400	-10.722000	24.341699	0.001041	20.783960
858.237554	-2.996600	3.574600	-10.709000	24.347193	0.001041	20.788522
859.232171	-2.970500	3.573100	-10.613000	24.324449	0.001037	20.790363
860.234294	-2.984700	3.573500	-10.664000	24.327752	0.001038	20.804581
861.235614	-3.006000	3.571800	-10.736000	24.339814	0.001038	20.783491
862.238434	-3.009100	3.571800	-10.745000	24.330084	0.001039	20.791274
863.232546	-2.991000	3.574300	-10.690000	24.347167	0.001036	20.802721
864.243008	-3.017600	3.572900	-10.779000	24.356694	0.001036	20.813226
865.238309	-2.979800	3.571600	-10.641000	24.339052	0.001035	20.801218
866.234336	-2.979500	3.571400	-10.640000	24.347731	0.001035	20.790485
867.238750	-2.984900	3.573200	-10.665000	24.342679	0.001033	20.804857
868.237298	-2.991100	3.570900	-10.680000	24.320058	0.001035	20.797812
869.236845	-2.993100	3.570900	-10.687000	24.330432	0.001033	20.812012
870.242464	-3.008300	3.570500	-10.740000	24.320752	0.001033	20.807517
871.235830	-2.980200	3.570300	-10.639000	24.353310	0.001031	20.804616
872.238386	-2.959500	3.571000	-10.568000	24.380969	0.001032	20.796802
873.239286	-2.990200	3.569100	-10.672000	24.360572	0.001030	20.804314
874.237072	-2.980200	3.569100	-10.635000	24.417688	0.001030	20.812301
875.238208	-3.011200	3.569400	-10.747000	24.421137	0.001030	20.831882
876.237780	-3.024800	3.567000	-10.787000	24.456136	0.001029	20.803458
877.240556	-3.016500	3.566900	-10.758000	24.447954	0.001026	20.793827
878.240522	-3.022100	3.566300	-10.776000	24.453122	0.001029	20.814185
879.239070	-3.046900	3.565000	-10.861000	24.462900	0.001028	20.792226
880.241284	-2.988300	3.567800	-10.661000	24.482350	0.001026	20.825965
881.240901	-2.993500	3.567700	-10.680000	24.464219	0.001027	20.811094
882.239733	-2.990000	3.567900	-10.666000	24.488469	0.001025	20.803655
883.238688	-2.990000	3.567300	-10.665000	24.496227	0.001025	20.828982
884.239445	-2.980300	3.567000	-10.629000	24.490476	0.001025	20.803297
885.240850	-3.029800	3.564900	-10.799000	24.523484	0.001022	20.819345
886.243467	-2.988400	3.564900	-10.652000	24.536489	0.001024	20.811056
887.246838	-2.984500	3.566700	-10.643000	24.532579	0.001021	20.809978
888.243640	-2.990600	3.565900	-10.663000	24.533801	0.001022	20.809307
889.243442	-2.991800	3.563500	-10.660000	24.547260	0.001021	20.821863
890.244107	-3.012700	3.566000	-10.742000	24.524625	0.001020	20.831869
891.245420	-3.004100	3.564600	-10.707000	24.527682	0.001021	20.810754
892.242388	-2.992500	3.563300	-10.662000	24.542724	0.001019	20.823002
893.252606	-2.991800	3.565200	-10.666000	24.539864	0.001017	20.840520
894.248195	-2.967100	3.565200	-10.575000	24.562726	0.001016	20.827897
895.246708	-3.008800	3.562700	-10.719000	24.562106	0.001017	20.837707
896.247474	-3.012300	3.563200	-10.732000	24.584359	0.001017	20.822103
897.247929	-2.997300	3.562900	-10.677000	24.594559	0.001015	20.831863
898.247004	-2.995300	3.560800	-10.663000	24.615677	0.001016	20.840250
899.247615	-2.987100	3.562100	-10.640000	24.601371	0.001014	20.820680
900.246930	-2.989600	3.562000	-10.648000	24.624729	0.001013	20.842220
901.244856	-2.991700	3.561000	-10.652000	24.633805	0.001014	20.834732
902.246920	-2.994200	3.561200	-10.662000	24.636787	0.001013	20.841044
903.249856	-3.000400	3.559800	-10.680000	24.622286	0.001010	20.824597
904.249555	-3.005700	3.561400	-10.703000	24.646189	0.001010	20.835779
905.249680	-2.991400	3.560400	-10.650000	24.616241	0.001011	20.849350
906.256008	-3.013000	3.560200	-10.725000	24.597038	0.001011	20.830083
907.252527	-2.999300	3.560300	-10.677000	24.560000	0.001011	20.826111
908.251340	-3.017000	3.558300	-10.734000	24.575699	0.001009	20.832854
909.252321	-3.016500	3.557000	-10.728000	24.579946	0.001008	20.827632
910.251690	-3.002400	3.559300	-10.685000	24.591410	0.001008	20.848617
911.253389	-3.030200	3.557500	-10.779000	24.610619	0.001009	20.826641
912.254024	-3.011300	3.558500	-10.714000	24.595670	0.001006	20.822072
913.254524	-2.998300	3.557600	-10.666000	24.602831	0.001007	20.854861
914.255169	-2.981200	3.557700	-10.605000	24.643666	0.001006	20.839886
915.253619	-2.995600	3.556800	-10.654000	24.640187	0.001006	20.844455
916.254312	-3.008900	3.557300	-10.702000	24.657744	0.001005	20.857330
917.255009	-2.990500	3.556100	-10.634000	24.663807	0.001003	20.842552
918.257347	-2.995700	3.556300	-10.653000	24.683407	0.001004	20.851314
919.254648	-2.978200	3.557700	-10.595000	24.699669	0.001003	20.843451
920.261386	-2.998800	3.555400	-10.661000	24.711531	0.001003	20.835914
921.256950	-2.973900	3.556200	-10.575000	24.701216	0.001002	20.836942
922.262610	-2.984000	3.554600	-10.606000	24.681149	0.001000	20.843833
923.261122	-3.018400	3.555600	-10.731000	24.672441	0.001001	20.852164
924.255593	-3.009200	3.554400	-10.695000	24.647097	0.000999	20.826733
925.258611	-2.973800	3.555000	-10.570000	24.605194	0.000999	20.841585
926.258211	-3.009100	3.553700	-10.693000	24.597805	0.000997	20.838913
927.254223	-2.994100	3.554900	-10.642000	24.584003	0.000997	20.835495
928.256714	-3.013900	3.552300	-10.705000	24.569298	0.000996	20.857250
929.255411	-2.990600	3.553800	-10.625000	24.584948	0.000997	20.810840
930.255880	-2.978600	3.552800	-10.581000	24.565548	0.000996	20.831678
931.258666	-2.993100	3.552000	-10.630000	24.554544	0.000996	20.822533
932.256044	-2.995600	3.550900	-10.636000	24.531369	0.000994	20.854282
933.256011	-3.005900	3.550600	-10.672000	24.529080	0.000993	20.818321
934.257769	-3.026800	3.550900	-10.747000	24.528779	0.000993	20.836985
935.257267	-3.004000	3.552700	-10.671000	24.553850	0.000994	20.818044
936.256761	-3.000400	3.551200	-10.654000	24.565965	0.000993	20.820243
937.257181	-3.025000	3.551200	-10.742000	24.571035	0.000991	20.831967
938.260653	-3.028900	3.549700	-10.750000	24.581774	0.000990	20.826621
939.261480	-2.987900	3.551200	-10.609000	24.591103	0.000991	20.823179
940.260733	-3.025000	3.548100	-10.732000	24.590624	0.000990	20.829337
941.265110	-2.983500	3.550400	-10.591000	24.609796	0.000989	20.837194
942.262473	-3.000600	3.549100	-10.648000	24.657498	0.000989	20.828635
943.262136	-3.016000	3.549800	-10.705000	24.656994	0.000989	20.850888
944.263437	-3.024100	3.548500	-10.729000	24.665629	0.000987	20.826837
945.259974	-3.022700	3.548000	-10.722000	24.666371	0.000986	20.813831
946.259044	-3.007600	3.547300	-10.667000	24.665352	0.000985	20.830353
947.259174	-3.000400	3.547900	-10.645000	24.666119	0.000983	20.814053
948.259243	-2.985600	3.549100	-10.594000	24.655276	0.000987	20.824983
949.258911	-2.966600	3.548600	-10.527000	24.653379	0.000984	20.804588
950.258530	-3.005200	3.548300	-10.662000	24.644248	0.000983	20.828141
951.259141	-2.978900	3.546800	-10.564000	24.666211	0.000981	20.798024
952.259755	-2.989000	3.546100	-10.598000	24.670783	0.000982	20.820629
953.261175	-3.011900	3.545900	-10.679000	24.651458	0.000980	20.821152
954.260406	-3.000400	3.546800	-10.641000	24.667745	0.000979	20.810943
955.260813	-3.016900	3.544500	-10.693000	24.658491	0.000981	20.820148
956.260031	-3.010300	3.544700	-10.669000	24.663020	0.000978	20.803356
957.263498	-3.028900	3.544100	-10.734000	24.663744	0.000981	20.808350
958.258928	-2.993600	3.544500	-10.610000	24.641431	0.000977	20.807297
959.259135	-3.000500	3.545600	-10.636000	24.633594	0.000978	20.825512
960.265785	-3.021100	3.543200	-10.703000	24.626530	0.000977	20.808467
961.261886	-2.999000	3.543700	-10.627000	24.614766	0.000977	20.811835
962.262135	-3.003200	3.542800	-10.639000	24.627696	0.000975	20.810585
963.265737	-3.000700	3.543300	-10.632000	24.636748	0.000976	20.804969
964.261141	-2.994100	3.543900	-10.611000	24.626555	0.000974	20.812285
965.264365	-2.993500	3.543600	-10.606000	24.651673	0.000973	20.797186
966.263131	-3.014300	3.542800	-10.677000	24.632250	0.000973	20.802352
967.264656	-2.997800	3.542400	-10.618000	24.611010	0.000972	20.812334
968.263875	-3.009400	3.541400	-10.657000	24.643388	0.000973	20.805468
969.263885	-3.006400	3.540600	-10.642000	24.646548	0.000973	20.788251
970.263717	-2.994200	3.541800	-10.604000	24.654274	0.000971	20.796951
971.265931	-2.995900	3.541900	-10.610000	24.638638	0.000970	20.795960
972.268729	-2.984000	3.541700	-10.567000	24.639104	0.000968	20.803540
973.267447	-2.996900	3.540100	-10.609000	24.621498	0.000968	20.804366
974.267335	-3.003400	3.539800	-10.631000	24.615551	0.000967	20.780381
975.267278	-2.989200	3.541600	-10.585000	24.604510	0.000969	20.785898
976.266812	-3.014600	3.539500	-10.669000	24.587793	0.000968	20.817962
977.265480	-2.977300	3.539100	-10.535000	24.563269	0.000966	20.801890
978.269028	-3.017100	3.538400	-10.675000	24.564459	0.000963	20.792179
979.266634	-3.011700	3.538400	-10.656000	24.571278	0.000964	20.792856
980.267988	-3.021500	3.536900	-10.685000	24.598085	0.000965	20.787037
981.266567	-2.980900	3.539000	-10.548000	24.629972	0.000963	20.785843
982.274275	-2.986300	3.538400	-10.565000	24.653967	0.000964	20.783367
983.270412	-3.007200	3.538700	-10.640000	24.687148	0.000962	20.792007
984.267232	-2.981300	3.539400	-10.550000	24.657520	0.000961	20.787406
985.268753	-3.002800	3.536000	-10.617000	24.659361	0.000961	20.787831
986.272445	-3.009300	3.535600	-10.638000	24.680956	0.000962	20.791483
987.269128	-3.016600	3.536900	-10.668000	24.694180	0.000960	20.786261
988.269705	-2.994400	3.536800	-10.589000	24.701863	0.000959	20.784488
989.271145	-2.994900	3.538000	-10.595000	24.706441	0.000959	20.798564
990.268970	-2.996000	3.536200	-10.593000	24.723003	0.000957	20.780097
991.274711	-2.992500	3.535800	-10.580000	24.744014	0.000957	20.775103
992.270938	-3.003400	3.533200	-10.611000	24.742817	0.000955	20.787653
993.270363	-2.970500	3.535700	-10.502000	24.756415	0.000957	20.773797
994.271865	-3.024900	3.533800	-10.687000	24.778683	0.000956	20.765798
995.270087	-3.008400	3.533400	-10.628000	24.780063	0.000955	20.763864
996.269264	-2.992400	3.535100	-10.578000	24.805356	0.000955	20.761272
997.272494	-2.996300	3.534300	-10.588000	24.789071	0.000955	20.789026
998.275211	-2.994600	3.533700	-10.582000	24.795741	0.000953	20.773908
999.272234	-2.995200	3.533900	-10.583000	24.811921	0.000952	20.766913
1000.274872	-2.985100	3.532800	-10.544000	24.806104	0.000953	20.777671
1001.271537	-2.974400	3.532900	-10.507000	24.819665	0.000951	20.801237
1002.269979	-2.990000	3.531600	-10.558000	24.843502	0.000950	20.765890
1003.275164	-2.976300	3.531600	-10.509000	24.816100	0.000949	20.784383
1004.273670	-2.991500	3.532200	-10.566000	24.829801	0.000950	20.780589
1005.273584	-3.006100	3.531200	-10.614000	24.803816	0.000948	20.780115
1006.272484	-3.007600	3.530600	-10.618000	24.807123	0.000949	20.773951
1007.270447	-2.976100	3.531600	-10.509000	24.788746	0.000945	20.784432
1008.269672	-2.987600	3.530600	-10.546000	24.780444	0.000946	20.787006
1009.268658	-2.986700	3.530900	-10.544000	24.796907	0.000946	20.785036
1010.272441	-2.991700	3.529600	-10.559000	24.802276	0.000948	20.766716
1011.273592	-2.993900	3.530200	-10.568000	24.821303	0.000944	20.776328
1012.276875	-3.001100	3.529200	-10.590000	24.816977	0.000944	20.765349
1013.273420	-3.001200	3.528300	-10.587000	24.855424	0.000944	20.790658
1014.271276	-2.981700	3.529700	-10.524000	24.865768	0.000944	20.771168
1015.275628	-2.992000	3.529400	-10.559000	24.887322	0.000943	20.789008
1016.276177	-3.024300	3.528100	-10.669000	24.881856	0.000944	20.786840
1017.273575	-3.008400	3.527100	-10.610000	24.895188	0.000941	20.766556
1018.277469	-2.989900	3.529700	-10.553000	24.861394	0.000939	20.768200
1019.274607	-3.001000	3.527300	-10.583000	24.828967	0.000942	20.785442
1020.274242	-3.001400	3.525600	-10.580000	24.807835	0.000940	20.768502
1021.276015	-2.982400	3.527400	-10.519000	24.797042	0.000940	20.782326
1022.275357	-2.999900	3.526400	-10.578000	24.800945	0.000938	20.769647
1023.274741	-3.011300	3.525500	-10.615000	24.804129	0.000939	20.763834
1024.277443	-2.997800	3.525900	-10.569000	24.798263	0.000938	20.764111
1025.275282	-3.011900	3.524300	-10.614000	24.748825	0.000938	20.749110
1026.273537	-3.005700	3.524700	-10.593000	24.712541	0.000935	20.765805
1027.274211	-2.978800	3.526000	-10.502000	24.731067	0.000936	20.774912
1028.281806	-2.982400	3.525900	-10.514000	24.705306	0.000936	20.744793
1029.281202	-3.011600	3.522400	-10.607000	24.739823	0.000934	20.787493
1030.279664	-3.000700	3.524000	-10.573000	24.752409	0.000936	20.759345
1031.280159	-3.023200	3.522400	-10.648000	24.755538	0.000932	20.779081
1032.280818	-3.008400	3.521700	-10.593000	24.756532	0.000934	20.741671
1033.276646	-2.979900	3.522500	-10.495000	24.769215	0.000932	20.758193
1034.278129	-2.992900	3.522500	-10.542000	24.733275	0.000933	20.761482
1035.280495	-2.985500	3.522400	-10.514000	24.733601	0.000932	20.754695
1036.281649	-2.996400	3.521000	-10.550000	24.723605	0.000931	20.765053
1037.279955	-2.979900	3.520700	-10.491000	24.731042	0.000930	20.774413
1038.278790	-3.002400	3.520400	-10.567000	24.735687	0.000929	20.750625
1039.277328	-2.986300	3.520500	-10.513000	24.724703	0.000930	20.768052
1040.278065	-2.998400	3.519300	-10.552000	24.731490	0.000929	20.755896
1041.278833	-3.016700	3.518500	-10.612000	24.760693	0.000927	20.770029
1042.276762	-2.986400	3.519900	-10.511000	24.779683	0.000928	20.762061
1043.277174	-2.989400	3.520800	-10.524000	24.804105	0.000926	20.751481
1044.280436	-2.998400	3.519100	-10.551000	24.788881	0.000924	20.759911
1045.279023	-3.002800	3.517800	-10.562000	24.773946	0.000924	20.749665
1046.279539	-3.003300	3.518000	-10.563000	24.774413	0.000924	20.753926
1047.282235	-2.992800	3.517300	-10.526000	24.808339	0.000924	20.755730
1048.279400	-3.000800	3.517500	-10.554000	24.812941	0.000922	20.743753
1049.281965	-3.000700	3.517200	-10.552000	24.853068	0.000923	20.768379
1050.284756	-2.986900	3.516400	-10.501000	24.856406	0.000922	20.762720
1051.281257	-2.991500	3.515900	-10.517000	24.894673	0.000922	20.747072
1052.281375	-3.011500	3.516200	-10.588000	24.861425	0.000920	20.751161
1053.281517	-3.021800	3.514100	-10.618000	24.872935	0.000919	20.737582
1054.283910	-3.006800	3.515900	-10.570000	24.867346	0.000919	20.742879
1055.282992	-3.003700	3.517600	-10.564000	24.876230	0.000918	20.748002
1056.282267	-3.016900	3.516400	-10.608000	24.822414	0.000917	20.727181
1057.282308	-2.999600	3.515400	-10.544000	24.769480	0.000917	20.749924
1058.282871	-2.966000	3.516000	-10.427000	24.752593	0.000917	20.745779
1059.282129	-3.015200	3.514400	-10.596000	24.751722	0.000916	20.750595
1060.282414	-2.991500	3.514400	-10.512000	24.778905	0.000913	20.737096
1061.286172	-2.973900	3.515100	-10.452000	24.772266	0.000915	20.755564
1062.283373	-2.996700	3.514700	-10.531000	24.775174	0.000914	20.754690
1063.283774	-2.975400	3.515800	-10.460000	24.817899	0.000914	20.735452
1064.287324	-2.983800	3.512300	-10.479000	24.814162	0.000913	20.750669
1065.284662	-2.994900	3.513000	-10.520000	24.828471	0.000912	20.730889
1066.285298	-2.995800	3.511500	-10.519000	24.819568	0.000911	20.744240
1067.289079	-2.990800	3.512700	-10.505000	24.844043	0.000910	20.741777
1068.285566	-2.994600	3.510800	-10.512000	24.858235	0.000912	20.735157
1069.284283	-3.004500	3.512600	-10.552000	24.910184	0.000910	20.740355
1070.289580	-3.021800	3.510200	-10.606000	24.899171	0.000913	20.741629
1071.289257	-2.987600	3.510400	-10.486000	24.892575	0.000908	20.736432
1072.283996	-2.997300	3.510800	-10.521000	24.850934	0.000910	20.742528
1073.287724	-3.016300	3.510100	-10.587000	24.828067	0.000909	20.747554
1074.286971	-2.988400	3.510400	-10.488000	24.802449	0.000908	20.734646
1075.288744	-3.005500	3.509200	-10.546000	24.815678	0.000908	20.756932
1076.289372	-2.998300	3.507700	-10.517000	24.798253	0.000906	20.719054
1077.289086	-3.010000	3.508300	-10.559000	24.794847	0.000907	20.727491
1078.289279	-3.014100	3.508000	-10.572000	24.794774	0.000906	20.752548
1079.288428	-2.993200	3.508300	-10.499000	24.768217	0.000906	20.733957
1080.295407	-3.006100	3.508500	-10.545000	24.736242	0.000905	20.724627
1081.291003	-3.003700	3.506500	-10.531000	24.764069	0.000905	20.738329
1082.291019	-3.019400	3.505400	-10.583000	24.793006	0.000904	20.739394
1083.295179	-3.004700	3.506800	-10.535000	24.808352	0.000903	20.712120
1084.290022	-2.986100	3.507400	-10.472000	24.837130	0.000902	20.749537
1085.291833	-3.010900	3.506300	-10.556000	24.873084	0.000901	20.700746
1086.296630	-3.016100	3.506200	-10.574000	24.860703	0.000899	20.732418
1087.289903	-2.987500	3.504300	-10.468000	24.898620	0.000900	20.734912
1088.288769	-3.004700	3.505100	-10.530000	24.927535	0.000902	20.721733
1089.291551	-3.000200	3.505100	-10.515000	24.955732	0.000899	20.728698
1090.289162	-3.013000	3.503100	-10.554000	24.971248	0.000898	20.724831
1091.296579	-3.002100	3.503300	-10.516000	24.987137	0.000898	20.715649
1092.290137	-3.023900	3.503100	-10.592000	24.972469	0.000896	20.719418
1093.294423	-2.993100	3.504800	-10.489000	24.951113	0.000897	20.723587
1094.294141	-3.009100	3.503600	-10.541000	24.920879	0.000895	20.725958
1095.292986	-3.023200	3.502400	-10.587000	24.907756	0.000896	20.699034
1096.296846	-3.014700	3.502100	-10.557000	24.936272	0.000895	20.723390
1097.291951	-3.015300	3.501500	-10.557000	24.937892	0.000894	20.713161
1098.293916	-3.015700	3.502200	-10.561000	24.954045	0.000894	20.718944
1099.298090	-3.009800	3.502100	-10.540000	24.964021	0.000890	20.708093
1100.295991	-3.030600	3.499200	-10.604000	24.979138	0.000891	20.708093
1101.294627	-3.004600	3.499900	-10.514000	24.970316	0.000892	20.695444
1102.294964	-2.979400	3.501000	-10.429000	24.915247	0.000893	20.709399
1103.298422	-2.994200	3.498700	-10.474000	24.895595	0.000891	20.712909
1104.298857	-2.981000	3.499900	-10.432000	24.905197	0.000890	20.725866
1105.293649	-2.996800	3.498900	-10.483000	24.930732	0.000891	20.697913
1106.300625	-3.005800	3.498800	-10.516000	24.927303	0.000890	20.715335
1107.297027	-3.029000	3.497600	-10.593000	24.935782	0.000889	20.706301
1108.293609	-3.013300	3.498100	-10.540000	24.923205	0.000888	20.708851
1109.298869	-2.986700	3.499000	-10.448000	24.902069	0.000888	20.702810
1110.294234	-2.983400	3.498100	-10.435000	24.907965	0.000889	20.714892
1111.298075	-2.991000	3.497500	-10.459000	24.880932	0.000885	20.700087
1112.297241	-2.985800	3.498400	-10.443000	24.898639	0.000886	20.715015
1113.298621	-3.006000	3.495700	-10.507000	24.882577	0.000886	20.699367
1114.299007	-3.034500	3.496000	-10.607000	24.905547	0.000885	20.711043
1115.297358	-3.006800	3.495800	-10.510000	24.938819	0.000883	20.697495
1116.301826	-2.994300	3.497000	-10.470000	24.929751	0.000882	20.704042
1117.299780	-2.992200	3.495000	-10.456000	24.911542	0.000883	20.713266
1118.296587	-3.004300	3.495400	-10.499000	24.911272	0.000883	20.695450
1119.299755	-3.009000	3.495200	-10.516000	24.919180	0.000883	20.678730
1120.296566	-3.010200	3.493800	-10.515000	24.960255	0.000882	20.676809
1121.299122	-2.993000	3.495800	-10.462000	24.961053	0.000881	20.692784
1122.301795	-3.030000	3.493800	-10.586000	24.976568	0.000879	20.692236
1123.299874	-2.995000	3.493200	-10.461000	25.007395	0.000881	20.686195
1124.301391	-2.998300	3.493800	-10.475000	25.016370	0.000879	20.713698
1125.304445	-2.991300	3.493300	-10.448000	25.036836	0.000879	20.673545
1126.301996	-2.993000	3.493300	-10.455000	25.022143	0.000878	20.685351
1127.301459	-3.010000	3.493600	-10.516000	25.011678	0.000876	20.693339
1128.301442	-2.986300	3.494200	-10.434000	24.982408	0.000877	20.677234
1129.305428	-3.004000	3.490700	-10.485000	24.974832	0.000876	20.673422
1130.302515	-2.993700	3.491100	-10.449000	24.962151	0.000876	20.693412
1131.303973	-2.998400	3.492000	-10.469000	24.943126	0.000874	20.675263
1132.303658	-2.992500	3.491700	-10.447000	24.949494	0.000873	20.693511
1133.298395	-3.000700	3.490400	-10.473000	24.961249	0.000874	20.679703
1134.302315	-2.987900	3.490400	-10.428000	24.956304	0.000873	20.691337
1135.302196	-3.021000	3.488500	-10.537000	24.937709	0.000872	20.686423
1136.302199	-3.010600	3.489100	-10.502000	24.927935	0.000871	20.699374
1137.302005	-3.000300	3.488800	-10.466000	24.915456	0.000869	20.700125
1138.301719	-2.997800	3.488100	-10.456000	24.864680	0.000873	20.700371
1139.300509	-2.977000	3.488400	-10.383000	24.891412	0.000870	20.693535
1140.302091	-3.014700	3.486500	-10.509000	24.902597	0.000869	20.710452
1141.304140	-2.983700	3.488000	-10.407000	24.958212	0.000869	20.678552
1142.301167	-2.994500	3.487900	-10.443000	24.961071	0.000870	20.687112
1143.300028	-3.009000	3.485500	-10.487000	24.947150	0.000867	20.696848
1144.303030	-2.990700	3.485400	-10.422000	24.964206	0.000867	20.725349
1145.300436	-3.005700	3.485800	-10.476000	24.961844	0.000866	20.673662
1146.298782	-3.000500	3.486100	-10.460000	24.947144	0.000867	20.674555
1147.302158	-3.016900	3.484800	-10.513000	24.971887	0.000867	20.698443
1148.300195	-3.008100	3.485200	-10.483000	24.986880	0.000865	20.694527
1149.305165	-2.982500	3.485300	-10.394000	25.005524	0.000866	20.685264
1150.301604	-3.004600	3.485100	-10.471000	24.968482	0.000865	20.690758
1151.305314	-3.014700	3.483900	-10.502000	24.989543	0.000863	20.702890
1152.305194	-3.006800	3.482700	-10.471000	25.000776	0.000863	20.668643
1153.303952	-2.979400	3.484700	-10.382000	25.014180	0.000861	20.692057
1154.302091	-3.027200	3.483100	-10.542000	25.013708	0.000863	20.659337
1155.304376	-2.994700	3.483400	-10.431000	25.023670	0.000860	20.690677
1156.303391	-3.009900	3.482100	-10.480000	25.015346	0.000860	20.683269
1157.305527	-3.035600	3.482100	-10.567000	25.019867	0.000860	20.670262
1158.302038	-2.993600	3.483100	-10.425000	25.039013	0.000861	20.677628
1159.301433	-3.001200	3.482700	-10.452000	25.074967	0.000858	20.686219
1160.307763	-3.013200	3.480500	-10.486000	25.096566	0.000857	20.686564
1161.304695	-3.002000	3.479600	-10.445000	25.098504	0.000857	20.690407
1162.302178	-2.982100	3.480200	-10.377000	25.107405	0.000856	20.673736
1163.302821	-2.987400	3.481000	-10.398000	25.082427	0.000856	20.690388
1164.303470	-3.010800	3.479400	-10.476000	25.047669	0.000857	20.682050
1165.303737	-2.993400	3.480000	-10.416000	25.062932	0.000856	20.664652
1166.304224	-2.987400	3.479700	-10.394000	25.052883	0.000855	20.700087
1167.309427	-2.992600	3.479600	-10.412000	25.065030	0.000855	20.685253
1168.305326	-2.977000	3.479000	-10.355000	25.056914	0.000856	20.682321
1169.305966	-2.963900	3.478700	-10.309000	25.084610	0.000853	20.668396
1170.308300	-2.985400	3.477500	-10.382000	25.092567	0.000852	20.680178
1171.308379	-3.018300	3.477200	-10.495000	25.132494	0.000851	20.680904
1172.307000	-3.007600	3.475600	-10.451000	25.115116	0.000853	20.683374
1173.313327	-2.985000	3.478000	-10.380000	25.100946	0.000852	20.695703
1174.307434	-3.001700	3.475600	-10.432000	25.073312	0.000851	20.693567
1175.306924	-3.020900	3.475600	-10.498000	25.076734	0.000850	20.693209
1176.308612	-2.980900	3.476000	-10.361000	25.112141	0.000851	20.687500
1177.306545	-3.013400	3.475200	-10.471000	25.107534	0.000849	20.692833
1178.310028	-2.999100	3.473900	-10.417000	25.131752	0.000850	20.688695
1179.310375	-3.002000	3.475400	-10.433000	25.094284	0.000848	20.689015
1180.312541	-3.008500	3.474000	-10.450000	25.089690	0.000849	20.671599
1181.307470	-2.993800	3.474500	-10.401000	25.065723	0.000847	20.690690
1182.308583	-2.985600	3.473900	-10.371000	25.034480	0.000847	20.696313
1183.313541	-2.984700	3.473600	-10.367000	25.028364	0.000848	20.706296
1184.309155	-3.000000	3.474400	-10.422000	25.040915	0.000845	20.680012
1185.312442	-3.013700	3.472300	-10.463000	25.075127	0.000849	20.703451
1186.309505	-3.022800	3.472500	-10.496000	25.069386	0.000846	20.693893
1187.315166	-3.027700	3.471700	-10.510000	25.083648	0.000845	20.683079
1188.316152	-3.016500	3.472900	-10.475000	25.101351	0.000846	20.681884
1189.313586	-3.006300	3.471100	-10.435000	25.124741	0.000843	20.706314
1190.313676	-2.976800	3.472200	-10.335000	25.175855	0.000844	20.690296
1191.313031	-3.010400	3.470100	-10.445000	25.194152	0.000843	20.668360
1192.314110	-2.964200	3.471000	-10.288000	25.224630	0.000844	20.688529
1193.315707	-2.985500	3.469800	-10.358000	25.209388	0.000839	20.677967
1194.312897	-2.998600	3.470000	-10.404000	25.222440	0.000842	20.685856
1195.315194	-3.008900	3.468700	-10.435000	25.211252	0.000841	20.698807
1196.317708	-2.978100	3.469800	-10.332000	25.212805	0.000839	20.694201
1197.310671	-2.988400	3.469800	-10.367000	25.235241	0.000840	20.692070
1198.316471	-2.998000	3.467700	-10.394000	25.229573	0.000837	20.672154
1199.314538	-3.008100	3.466500	-10.426000	25.223262	0.000838	20.703278
1200.322046	-2.998600	3.468400	-10.400000	25.206137	0.000836	20.690352
1201.316092	-2.986300	3.468400	-10.357000	25.187148	0.000836	20.692150
1202.317115	-2.990800	3.468100	-10.371000	25.201635	0.000837	20.699583
1203.321785	-3.019800	3.466400	-10.467000	25.188019	0.000837	20.700612
1204.319250	-2.987500	3.465900	-10.353000	25.173402	0.000836	20.703008
1205.317609	-3.012300	3.464500	-10.435000	25.171691	0.000835	20.693228
1206.320858	-2.987000	3.465100	-10.349000	25.179542	0.000834	20.719130
1207.319430	-2.977300	3.466100	-10.317000	25.141610	0.000835	20.698592
1208.320694	-2.990500	3.464100	-10.358000	25.140941	0.000831	20.694128
1209.325912	-2.972300	3.465400	-10.299000	25.108676	0.000831	20.677383
1210.319747	-3.011600	3.464300	-10.432000	25.125852	0.000831	20.686565
1211.319048	-3.001400	3.463500	-10.394000	25.148597	0.000832	20.710349
1212.322455	-2.988500	3.462800	-10.347000	25.159491	0.000831	20.692835
1213.320026	-2.980400	3.464400	-10.324000	25.182658	0.000830	20.691437
1214.319172	-3.015400	3.463100	-10.442000	25.188479	0.000831	20.704868
1215.323848	-3.018400	3.462100	-10.449000	25.169937	0.000828	20.699529
1216.320533	-2.989000	3.463000	-10.350000	25.155970	0.000827	20.703526
1217.323010	-3.001200	3.462100	-10.390000	25.123325	0.000828	20.720541
1218.324953	-3.021500	3.460300	-10.455000	25.119528	0.000826	20.707246
1219.321670	-3.016500	3.460400	-10.437000	25.128097	0.000826	20.700674
1220.325503	-2.961200	3.461700	-10.249000	25.145758	0.000826	20.695169
1221.324786	-3.019500	3.459600	-10.445000	25.175188	0.000825	20.720923
1222.325989	-2.979000	3.460900	-10.309000	25.212775	0.000824	20.691326
1223.323788	-2.981800	3.460800	-10.319000	25.226349	0.000825	20.694997
1224.324388	-3.001200	3.460900	-10.386000	25.195307	0.000822	20.703662
1225.325226	-2.977500	3.458900	-10.298000	25.170667	0.000825	20.703582
1226.330637	-3.020900	3.459600	-10.450000	25.189608	0.000822	20.719279
1227.328942	-2.996400	3.458100	-10.360000	25.200299	0.000823	20.705829
1228.327395	-2.984300	3.459800	-10.324000	25.235217	0.000823	20.707221
1229.329412	-3.002900	3.456300	-10.377000	25.241885	0.000822	20.688783
1230.326188	-2.996300	3.457000	-10.357000	25.239898	0.000821	20.715239
1231.328236	-3.014300	3.457900	-10.422000	25.261843	0.000821	20.718306
1232.331502	-2.993500	3.457800	-10.350000	25.243032	0.000821	20.710799
1233.327051	-2.983900	3.456700	-10.314000	25.225858	0.000818	20.697824
1234.329606	-2.998600	3.456600	-10.364000	25.193068	0.000819	20.707579
1235.333640	-3.006900	3.455000	-10.387000	25.161816	0.000818	20.710818
1236.330719	-3.006700	3.456000	-10.390000	25.153272	0.000817	20.717413
1237.328630	-2.992100	3.455800	-10.340000	25.124559	0.000815	20.717512
1238.334848	-3.017400	3.453600	-10.419000	25.127092	0.000816	20.699191
1239.330838	-2.991000	3.454300	-10.330000	25.158694	0.000815	20.707683
1240.328139	-2.994300	3.456200	-10.348000	25.172784	0.000814	20.709500
1241.328806	-2.994700	3.454500	-10.344000	25.174943	0.000815	20.723996
1242.333272	-3.003800	3.454500	-10.376000	25.156554	0.000813	20.721182
1243.331460	-3.005900	3.454700	-10.383000	25.145494	0.000812	20.719563
1244.330700	-3.006200	3.452600	-10.378000	25.117180	0.000813	20.706784
1245.330606	-3.020300	3.452500	-10.427000	25.111340	0.000812	20.728899
1246.331589	-2.997200	3.451700	-10.344000	25.114272	0.000813	20.716668
1247.332193	-3.005800	3.452000	-10.375000	25.159320	0.000809	20.709260
1248.330514	-2.993400	3.451600	-10.331000	25.158327	0.000811	20.709211
1249.333129	-3.008400	3.451600	-10.382000	25.182071	0.000811	20.709815
1250.331429	-3.013400	3.449800	-10.395000	25.208072	0.000811	20.696562
1251.334099	-3.000500	3.451000	-10.354000	25.245658	0.000811	20.719126
1252.335544	-2.985100	3.450600	-10.300000	25.250129	0.000810	20.725038
1253.331025	-2.999600	3.450700	-10.350000	25.248848	0.000809	20.730390
1254.333159	-3.012800	3.449200	-10.391000	25.249264	0.000808	20.737921
1255.341887	-2.999600	3.449900	-10.347000	25.249215	0.000808	20.728388
1256.335571	-2.998000	3.449500	-10.340000	25.263887	0.000808	20.730316
1257.336990	-3.008200	3.448300	-10.373000	25.252497	0.000807	20.709870
1258.336625	-3.007800	3.448800	-10.373000	25.246437	0.000805	20.705209
1259.337872	-3.005900	3.448000	-10.362000	25.272485	0.000805	20.725673
1260.336850	-3.017500	3.447500	-10.402000	25.270578	0.000807	20.743673
1261.333553	-3.014700	3.447100	-10.391000	25.286807	0.000806	20.720611
1262.336522	-2.993400	3.448200	-10.320000	25.285666	0.000804	20.728475
1263.333954	-2.979400	3.448100	-10.271000	25.285918	0.000804	20.728728
1264.334049	-3.009100	3.447900	-10.374000	25.313161	0.000804	20.706768
1265.334627	-2.991900	3.445700	-10.307000	25.322410	0.000803	20.726012
1266.334611	-2.978700	3.445700	-10.262000	25.351345	0.000803	20.760283
1267.335097	-3.002300	3.444400	-10.339000	25.370534	0.000801	20.738298
1268.335707	-3.015000	3.444300	-10.383000	25.396684	0.000802	20.728045
1269.342973	-2.987800	3.445000	-10.293000	25.406453	0.000801	20.733113
1270.341530	-2.992300	3.445000	-10.307000	25.408538	0.000802	20.737104
1271.338390	-2.993000	3.443700	-10.306000	25.430934	0.000800	20.735411
1272.338722	-2.998800	3.443400	-10.325000	25.413089	0.000798	20.734561
1273.340945	-2.984600	3.444100	-10.278000	25.433921	0.000798	20.731297
1274.341764	-3.027800	3.442600	-10.423000	25.451440	0.000797	20.731346
1275.342015	-3.018000	3.442300	-10.388000	25.470254	0.000799	20.733643
1276.339953	-3.005000	3.442500	-10.343000	25.468347	0.000796	20.742635
1277.340904	-2.984000	3.442200	-10.270000	25.462755	0.000796	20.710464
1278.343713	-3.005600	3.441900	-10.344000	25.446725	0.000797	20.724240
1279.346862	-2.998300	3.442400	-10.319000	25.450552	0.000796	20.750369
1280.344068	-3.007700	3.440600	-10.347000	25.456347	0.000796	20.732954
1281.339700	-3.013400	3.440600	-10.367000	25.425508	0.000792	20.732332
1282.342871	-3.022200	3.439300	-10.393000	25.449792	0.000794	20.737278
1283.345140	-2.995400	3.440700	-10.305000	25.445444	0.000792	20.741921
1284.344011	-2.959500	3.440400	-10.181000	25.397354	0.000792	20.736305
1285.345750	-2.993600	3.439300	-10.294000	25.372830	0.000793	20.748664
1286.345475	-2.975000	3.439000	-10.229000	25.378024	0.000792	20.742500
1287.344737	-2.992000	3.437700	-10.285000	25.394264	0.000792	20.724667
1288.351991	-2.987400	3.438700	-10.272000	25.435958	0.000789	20.736662
1289.347826	-3.002800	3.437400	-10.321000	25.429280	0.000790	20.728060
1290.344854	-2.999600	3.437700	-10.310000	25.456446	0.000788	20.745383
1291.348335	-2.999700	3.438500	-10.313000	25.423810	0.000789	20.715928
1292.347789	-2.984700	3.437000	-10.258000	25.439920	0.000789	20.738270
1293.344265	-2.995700	3.435900	-10.291000	25.425013	0.000788	20.749854
1294.347008	-3.000800	3.435400	-10.307000	25.415023	0.000788	20.741719
1295.347139	-2.986400	3.436100	-10.259000	25.409608	0.000788	20.741023
1296.353759	-2.993800	3.435800	-10.285000	25.433917	0.000786	20.745993
1297.349190	-2.996800	3.435400	-10.294000	25.428846	0.000786	20.745168
1298.350406	-2.984300	3.435400	-10.251000	25.409755	0.000786	20.739749
1299.346018	-3.015900	3.435500	-10.360000	25.442116	0.000784	20.747588
1300.345780	-3.011000	3.434200	-10.339000	25.427558	0.000785	20.740082
1301.351967	-3.001100	3.434200	-10.305000	25.439744	0.000783	20.750422
1302.349839	-3.008800	3.433600	-10.330000	25.459121	0.000784	20.756130
1303.349434	-3.000700	3.433200	-10.302000	25.470747	0.000782	20.731294
1304.347178	-2.995500	3.433500	-10.284000	25.471667	0.000783	20.734588
1305.350131	-3.009000	3.431200	-10.323000	25.480019	0.000782	20.736337
1306.348547	-3.001300	3.432500	-10.302000	25.449003	0.000780	20.748339
1307.348052	-2.979800	3.433200	-10.229000	25.441252	0.000783	20.747194
1308.346749	-3.005900	3.432400	-10.316000	25.440951	0.000780	20.762540
1309.348284	-2.985500	3.432100	-10.245000	25.459212	0.000779	20.751954
1310.347657	-2.996600	3.430900	-10.280000	25.469908	0.000782	20.753211
1311.351817	-3.008300	3.429400	-10.316000	25.468859	0.000781	20.764486
1312.350264	-2.978700	3.431500	-10.221000	25.463493	0.000778	20.746769
1313.349735	-3.000700	3.429600	-10.291000	25.493681	0.000779	20.759067
1314.350859	-3.019300	3.429000	-10.352000	25.479915	0.000779	20.765157
1315.352266	-2.997400	3.429100	-10.277000	25.457048	0.000777	20.764005
1316.348457	-2.979500	3.431500	-10.222000	25.463431	0.000777	20.768519
1317.349482	-2.974000	3.430300	-10.201000	25.472433	0.000777	20.755273
1318.351165	-3.012000	3.428300	-10.324000	25.466743	0.000776	20.786543
1319.348406	-2.988000	3.429400	-10.245000	25.457838	0.000775	20.760058
1320.353930	-3.000500	3.427800	-10.284000	25.428115	0.000775	20.754866
1321.351369	-2.968400	3.429800	-10.180000	25.403211	0.000773	20.762576
1322.348534	-2.988400	3.428900	-10.246000	25.411669	0.000774	20.763482
1323.351399	-2.999000	3.426700	-10.276000	25.396999	0.000773	20.771511
1324.356134	-2.974000	3.427700	-10.193000	25.399311	0.000773	20.776678
1325.352083	-2.994400	3.428100	-10.263000	25.438178	0.000773	20.766868
1326.352680	-2.993600	3.426400	-10.256000	25.447566	0.000771	20.765390
1327.355367	-3.005200	3.426200	-10.295000	25.432236	0.000770	20.777497
1328.353374	-2.986300	3.426000	-10.230000	25.383452	0.000772	20.753166
1329.348811	-3.033500	3.424400	-10.386000	25.383593	0.000769	20.767533
1330.354836	-2.978800	3.426000	-10.204000	25.355984	0.000769	20.754509
1331.347642	-2.999100	3.425000	-10.270000	25.331022	0.000767	20.787767
1332.352262	-3.007900	3.423700	-10.298000	25.332372	0.000768	20.799554
1333.356366	-3.011100	3.425100	-10.311000	25.334009	0.000767	20.788396
1334.351686	-2.995800	3.423400	-10.255000	25.347673	0.000767	20.758967
1335.352453	-3.034300	3.422700	-10.384000	25.337854	0.000766	20.777083
1336.352547	-2.984000	3.424200	-10.217000	25.358786	0.000767	20.787669
1337.352665	-2.987700	3.422600	-10.223000	25.388480	0.000767	20.782872
1338.351635	-3.003900	3.422100	-10.278000	25.391890	0.000766	20.793408
1339.354654	-3.004000	3.422400	-10.279000	25.416714	0.000766	20.775661
1340.353707	-2.989900	3.421200	-10.227000	25.416739	0.000766	20.772366
1341.354320	-2.987000	3.422700	-10.222000	25.417529	0.000765	20.774109
1342.355880	-2.968500	3.422400	-10.159000	25.440244	0.000765	20.802133
1343.355470	-3.001700	3.420300	-10.264000	25.443720	0.000763	20.793297
1344.358676	-2.988900	3.421300	-10.225000	25.455721	0.000763	20.763147
1345.353671	-3.013300	3.419700	-10.304000	25.448222	0.000764	20.801136
1346.357591	-3.011600	3.420900	-10.300000	25.472897	0.000762	20.792724
1347.359486	-2.980400	3.420100	-10.192000	25.475853	0.000761	20.788580
1348.354923	-2.997300	3.419400	-10.248000	25.491827	0.000761	20.770955
1349.354546	-2.988400	3.418800	-10.216000	25.508499	0.000760	20.792914
1350.357779	-3.009300	3.417600	-10.283000	25.520922	0.000759	20.796381
1351.356851	-2.989000	3.419100	-10.218000	25.556910	0.000759	20.784158
1352.354348	-3.031800	3.415900	-10.354000	25.587224	0.000759	20.793265
1353.358802	-3.029800	3.416400	-10.349000	25.591798	0.000761	20.777945
1354.359699	-3.006700	3.417200	-10.274000	25.634907	0.000758	20.780463
1355.356907	-3.026200	3.416200	-10.336000	25.647452	0.000757	20.795907
1356.357827	-2.991500	3.418400	-10.225000	25.662964	0.000758	20.798684
1357.357355	-3.013300	3.416900	-10.295000	25.662835	0.000758	20.797607
1358.355494	-2.981400	3.416700	-10.186000	25.675109	0.000754	20.790968
1359.356315	-2.987200	3.417100	-10.206000	25.619475	0.000753	20.800051
1360.358387	-2.988600	3.415800	-10.208000	25.579768	0.000755	20.793364
1361.356546	-2.998300	3.414900	-10.238000	25.584612	0.000755	20.802022
1362.356698	-3.012200	3.414200	-10.282000	25.559313	0.000754	20.810279
1363.357634	-3.009600	3.412700	-10.270000	25.580038	0.000755	20.805963
1364.358835	-3.017200	3.412500	-10.295000	25.622724	0.000754	20.788142
1365.356339	-2.994500	3.412800	-10.218000	25.624931	0.000752	20.802212
1366.361763	-2.977600	3.413800	-10.164000	25.639192	0.000753	20.791879
1367.358696	-2.992000	3.411900	-10.208000	25.632583	0.000750	20.836923
1368.358959	-3.012200	3.412100	-10.277000	25.621050	0.000751	20.811116
1369.362216	-3.008700	3.412400	-10.266000	25.584053	0.000751	20.819478
1370.360858	-2.966200	3.412900	-10.122000	25.554358	0.000748	20.800087
1371.359870	-2.979900	3.412100	-10.166000	25.571624	0.000749	20.793246
1372.360452	-3.002800	3.411900	-10.244000	25.566897	0.000749	20.822637
1373.362432	-2.990500	3.411100	-10.200000	25.578700	0.000747	20.806516
1374.361027	-3.027800	3.410200	-10.323000	25.576014	0.000749	20.816146
1375.363700	-3.004800	3.410000	-10.244000	25.604716	0.000748	20.807513
1376.363967	-3.010200	3.410600	-10.266000	25.613158	0.000747	20.830690
1377.370062	-3.028800	3.409800	-10.327000	25.620939	0.000747	20.826177
1378.365902	-2.978800	3.410400	-10.158000	25.592336	0.000745	20.820684
1379.365573	-3.026200	3.407700	-10.312000	25.568313	0.000743	20.825007
1380.368005	-3.005000	3.409900	-10.245000	25.556779	0.000744	20.823856
1381.363945	-3.015000	3.407400	-10.271000	25.542070	0.000744	20.833265
1382.370402	-2.995200	3.408600	-10.209000	25.557202	0.000745	20.829496
1383.371747	-2.989500	3.407900	-10.187000	25.554873	0.000743	20.841381
1384.362817	-3.020700	3.406800	-10.290000	25.534987	0.000743	20.830420
1385.367078	-3.009100	3.406400	-10.249000	25.490255	0.000743	20.804939
1386.368279	-2.990600	3.407900	-10.190000	25.508946	0.000745	20.827975
1387.368383	-2.995100	3.406800	-10.203000	25.534515	0.000742	20.813351
1388.366168	-2.993200	3.407000	-10.197000	25.555436	0.000740	20.822981
1389.371274	-3.015200	3.405900	-10.268000	25.559165	0.000742	20.813923
1390.370065	-2.985600	3.405500	-10.167000	25.543210	0.000742	20.824453
1391.370207	-3.020000	3.405000	-10.281000	25.523509	0.000739	20.833117
1392.370658	-3.018900	3.405100	-10.279000	25.546987	0.000738	20.828720
1393.369950	-2.999700	3.405100	-10.214000	25.550918	0.000739	20.847840
1394.365388	-2.985000	3.405200	-10.163000	25.562273	0.000740	20.834588
1395.375294	-2.994300	3.405500	-10.195000	25.600718	0.000738	20.833844
1396.372072	-3.000500	3.404600	-10.214000	25.621159	0.000737	20.847735
1397.367714	-3.002600	3.404700	-10.221000	25.607370	0.000738	20.850955
1398.368234	-2.993100	3.403900	-10.186000	25.594728	0.000736	20.843948
1399.373783	-2.995200	3.403900	-10.194000	25.599320	0.000734	20.843344
1400.372009	-3.007200	3.402300	-10.231000	25.592238	0.000734	20.834336
1401.371091	-3.010400	3.402000	-10.240000	25.569625	0.000734	20.832489
1402.372984	-3.023500	3.403100	-10.289000	25.563463	0.000735	20.844317
1403.370177	-2.985500	3.402000	-10.155000	25.608345	0.000734	20.837236
1404.370559	-2.973900	3.403700	-10.121000	25.602478	0.000735	20.833240
1405.369153	-2.995300	3.401900	-10.189000	25.613759	0.000732	20.848837
1406.371438	-2.981900	3.403000	-10.146000	25.579669	0.000733	20.844946
1407.370441	-3.011800	3.400700	-10.241000	25.589087	0.000731	20.852981
1408.368642	-2.992400	3.401400	-10.177000	25.586223	0.000730	20.827347
1409.369772	-3.006800	3.400500	-10.224000	25.594396	0.000730	20.847408
1410.369995	-3.029200	3.399500	-10.297000	25.603894	0.000733	20.842249
1411.371281	-3.000900	3.399400	-10.200000	25.614556	0.000729	20.848215
1412.374246	-3.013400	3.398800	-10.241000	25.638407	0.000729	20.818591
1413.379000	-2.986500	3.400700	-10.155000	25.635151	0.000727	20.826700
1414.374467	-2.981800	3.399700	-10.136000	25.692427	0.000728	20.830648
1415.376074	-3.001500	3.399000	-10.201000	25.688228	0.000728	20.814576
1416.371946	-3.015700	3.398200	-10.247000	25.666236	0.000727	20.824256
1417.375310	-3.027700	3.397800	-10.286000	25.634661	0.000727	20.841381
1418.375750	-2.985500	3.399300	-10.146000	25.641791	0.000726	20.840956
1419.376638	-2.987500	3.399300	-10.154000	25.645771	0.000727	20.827883
1420.374628	-3.013900	3.396600	-10.236000	25.666966	0.000728	20.829256
1421.372560	-2.979200	3.398300	-10.122000	25.686738	0.000726	20.825408
1422.378346	-3.000500	3.396000	-10.188000	25.676230	0.000725	20.811534
1423.375893	-3.004900	3.395400	-10.202000	25.711464	0.000725	20.826060
1424.375792	-3.008600	3.395500	-10.215000	25.738868	0.000723	20.835094
1425.376963	-2.992600	3.397100	-10.165000	25.720457	0.000724	20.827033
1426.379611	-3.006500	3.394400	-10.205000	25.725203	0.000721	20.844601
1427.373587	-2.973000	3.394900	-10.092000	25.725381	0.000721	20.828659
1428.380558	-3.031500	3.393100	-10.285000	25.720206	0.000721	20.820617
1429.377194	-3.006000	3.393100	-10.198000	25.721402	0.000721	20.814706
1430.375115	-3.025000	3.393000	-10.262000	25.754672	0.000720	20.828684
1431.382103	-2.982600	3.393000	-10.119000	25.772880	0.000720	20.820420
1432.381767	-3.017400	3.393500	-10.238000	25.803537	0.000718	20.805697
1433.378207	-2.996400	3.394300	-10.170000	25.808779	0.000719	20.818548
1434.377919	-3.001700	3.391900	-10.181000	25.793275	0.000719	20.816251
1435.375177	-2.996400	3.393600	-10.167000	25.774198	0.000717	20.803252
1436.376050	-2.975500	3.392600	-10.095000	25.794146	0.000717	20.815703
1437.379082	-2.999800	3.391900	-10.173000	25.807773	0.000717	20.808529
1438.378428	-3.004700	3.390500	-10.186000	25.817618	0.000716	20.816522
1439.380035	-3.009900	3.390300	-10.204000	25.779010	0.000716	20.806663
1440.376767	-2.993900	3.391800	-10.153000	25.734221	0.000713	20.803874
1441.376463	-2.995500	3.390700	-10.156000	25.737924	0.000715	20.809964
1442.378532	-3.000800	3.390500	-10.173000	25.753299	0.000715	20.801226
1443.380267	-2.993900	3.390000	-10.148000	25.740627	0.000712	20.806990
1444.378442	-3.010100	3.389200	-10.201000	25.766167	0.000713	20.806091
1445.375517	-2.999400	3.390100	-10.167000	25.783363	0.000713	20.802975
1446.376377	-2.989900	3.390000	-10.135000	25.781100	0.000710	20.815401
1447.380384	-3.009500	3.388100	-10.196000	25.757663	0.000711	20.802765
1448.379875	-3.002200	3.389000	-10.174000	25.765370	0.000710	20.819040
1449.380418	-2.984700	3.388000	-10.111000	25.758093	0.000711	20.804619
1450.383347	-3.019300	3.387400	-10.226000	25.750271	0.000712	20.796288
1451.387296	-3.012100	3.387000	-10.202000	25.732105	0.000711	20.776619
1452.382500	-3.015100	3.387900	-10.213000	25.684702	0.000709	20.779741
1453.388345	-2.979700	3.388300	-10.094000	25.646163	0.000709	20.802199
1454.382184	-2.984300	3.387600	-10.109000	25.641669	0.000709	20.796737
1455.382438	-3.027000	3.386400	-10.248000	25.655335	0.000707	20.818049
1456.380074	-2.990100	3.386800	-10.125000	25.659210	0.000707	20.806294
1457.382127	-3.006600	3.386300	-10.180000	25.646365	0.000706	20.809989
1458.381253	-3.002400	3.386600	-10.167000	25.680209	0.000707	20.821695
1459.380548	-2.995300	3.385100	-10.137000	25.675488	0.000705	20.794668
1460.382932	-2.986800	3.385800	-10.112000	25.693476	0.000706	20.815580
1461.382535	-3.004900	3.385300	-10.172000	25.722646	0.000706	20.796042
1462.382992	-3.002600	3.384500	-10.161000	25.759246	0.000705	20.806725
1463.386050	-2.977300	3.384800	-10.076000	25.730462	0.000703	20.801047
1464.384388	-2.975200	3.384800	-10.070000	25.760012	0.000704	20.789003
1465.380421	-3.008700	3.383800	-10.181000	25.792080	0.000703	20.780437
1466.382734	-3.014300	3.383400	-10.197000	25.790192	0.000700	20.799403
1467.383904	-2.993900	3.383100	-10.128000	25.816129	0.000700	20.785154
1468.384583	-3.019500	3.382300	-10.212000	25.826133	0.000700	20.786668
1469.382401	-3.022600	3.382300	-10.221000	25.820101	0.000699	20.795308
1470.387663	-3.002400	3.381100	-10.150000	25.847422	0.000700	20.786244
1471.385100	-3.012900	3.381500	-10.187000	25.859075	0.000700	20.775664
1472.382303	-2.992800	3.383500	-10.124000	25.877514	0.000700	20.795136
1473.386758	-2.995300	3.381700	-10.128000	25.883944	0.000700	20.795431
1474.385234	-3.000300	3.381000	-10.143000	25.870078	0.000698	20.807580
1475.385780	-3.021100	3.379800	-10.210000	25.842978	0.000696	20.766606
1476.386918	-3.024200	3.380300	-10.221000	25.826758	0.000695	20.781133
1477.387024	-3.042300	3.379500	-10.280000	25.797272	0.000697	20.770954
1478.388124	-3.019000	3.379400	-10.201000	25.773443	0.000695	20.784476
1479.388620	-2.999600	3.381100	-10.141000	25.744379	0.000697	20.791792
1480.385912	-2.996300	3.379400	-10.125000	25.739732	0.000695	20.784754
1481.385947	-2.992300	3.379200	-10.110000	25.712181	0.000694	20.779840
1482.387425	-3.013100	3.378700	-10.180000	25.720206	0.000692	20.778891
1483.389050	-3.005000	3.378000	-10.149000	25.713456	0.000694	20.770690
1484.388684	-3.023800	3.377600	-10.212000	25.733951	0.000693	20.781792
1485.388943	-3.004300	3.377800	-10.147000	25.747095	0.000692	20.761803
1486.391588	-2.994300	3.377900	-10.113000	25.747451	0.000692	20.769274
1487.391640	-2.993200	3.377300	-10.108000	25.740940	0.000692	20.780752
1488.391482	-3.004900	3.378100	-10.150000	25.729513	0.000693	20.773541
1489.396534	-2.991300	3.378200	-10.105000	25.717767	0.000691	20.782606
1490.391199	-3.006500	3.375100	-10.146000	25.702930	0.000689	20.780506
1491.390298	-2.991600	3.377900	-10.103000	25.690222	0.000688	20.764422
1492.393967	-3.003100	3.375600	-10.136000	25.678266	0.000689	20.773751
1493.392602	-2.993600	3.375900	-10.104000	25.674545	0.000688	20.769539
1494.392306	-2.976600	3.375900	-10.047000	25.681982	0.000687	20.779854
1495.399338	-3.010600	3.375300	-10.161000	25.686329	0.000688	20.774737
1496.393068	-2.989500	3.375400	-10.090000	25.722857	0.000686	20.784399
1497.392710	-2.972600	3.375300	-10.033000	25.756177	0.000686	20.763339
1498.395099	-2.980800	3.375400	-10.060000	25.774139	0.000684	20.772373
1499.389484	-3.018400	3.373300	-10.181000	25.783537	0.000685	20.772330
1500.391833	-3.015000	3.374500	-10.173000	25.803865	0.000686	20.764300
1501.390514	-3.011300	3.372500	-10.154000	25.797435	0.000685	20.762583
1502.391439	-3.004300	3.373900	-10.134000	25.765484	0.000683	20.772214
1503.393532	-3.019800	3.372800	-10.185000	25.752395	0.000683	20.763334
1504.392797	-2.999800	3.373600	-10.118000	25.765165	0.000682	20.761936
1505.393140	-2.994700	3.372400	-10.098000	25.748276	0.000682	20.760144
1506.397963	-3.013600	3.372600	-10.162000	25.751556	0.000681	20.765336
1507.392101	-2.990300	3.371400	-10.080000	25.748202	0.000682	20.750113
1508.390991	-3.008100	3.371400	-10.140000	25.784200	0.000682	20.763039
1509.390731	-3.009100	3.370300	-10.140000	25.810745	0.000681	20.759831
1510.387884	-2.984400	3.371900	-10.061000	25.811241	0.000682	20.747053
1511.392986	-2.997600	3.370000	-10.101000	25.790031	0.000681	20.754197
1512.388932	-2.992900	3.370800	-10.087000	25.786322	0.000678	20.756635
1513.393113	-3.006100	3.369200	-10.127000	25.760317	0.000678	20.748531
1514.394751	-2.995500	3.369400	-10.091000	25.742152	0.000676	20.773908
1515.393191	-3.003700	3.369600	-10.120000	25.735813	0.000676	20.769912
1516.392611	-2.995100	3.368300	-10.087000	25.720787	0.000677	20.735852
1517.389904	-3.014200	3.368500	-10.152000	25.704265	0.000675	20.758138
1518.392851	-3.000100	3.369100	-10.107000	25.709961	0.000675	20.767178
1519.390888	-3.006000	3.368800	-10.126000	25.704124	0.000675	20.759893
1520.394981	-2.999300	3.367800	-10.100000	25.722014	0.000675	20.754628
1521.395528	-2.993400	3.369000	-10.085000	25.752446	0.000675	20.744892
1522.393234	-2.977500	3.367900	-10.027000	25.754862	0.000675	20.768657
1523.394280	-2.983300	3.368500	-10.047000	25.734220	0.000674	20.759303
1524.396053	-2.997300	3.367100	-10.091000	25.682513	0.000672	20.752412
1525.395577	-2.988200	3.366400	-10.059000	25.678247	0.000672	20.748600
1526.391594	-2.997900	3.366300	-10.091000	25.685548	0.000673	20.745503
1527.400915	-3.003500	3.366000	-10.109000	25.704039	0.000672	20.756015
1528.397239	-3.002100	3.365700	-10.103000	25.740192	0.000671	20.740170
1529.395864	-3.020200	3.364800	-10.161000	25.724240	0.000672	20.732208
1530.397151	-3.000700	3.366100	-10.100000	25.731426	0.000671	20.734684
1531.395983	-2.994600	3.365600	-10.077000	25.775302	0.000670	20.737030
1532.394818	-2.989400	3.365900	-10.061000	25.815057	0.000668	20.754205
1533.397446	-3.004800	3.364100	-10.108000	25.846511	0.000668	20.730798
1534.396996	-2.993500	3.364500	-10.071000	25.854468	0.000669	20.741637
1535.394558	-3.012100	3.364500	-10.133000	25.842790	0.000665	20.727535
1536.397103	-2.987200	3.363900	-10.048000	25.822420	0.000667	20.746902
1537.397130	-2.992100	3.363500	-10.062000	25.798574	0.000666	20.759459
1538.396810	-2.994000	3.364000	-10.071000	25.792419	0.000665	20.735732
1539.397148	-3.018500	3.363500	-10.150000	25.807181	0.000665	20.738707
1540.404139	-2.987200	3.363500	-10.046000	25.828698	0.000665	20.738510
1541.396112	-2.991400	3.362500	-10.057000	25.815114	0.000665	20.742883
1542.399175	-3.009100	3.360900	-10.112000	25.798226	0.000664	20.735401
1543.401324	-3.015900	3.361400	-10.136000	25.807146	0.000664	20.732507
1544.395564	-3.011600	3.360600	-10.119000	25.817929	0.000661	20.730536
1545.396417	-2.997600	3.360900	-10.074000	25.843228	0.000663	20.726078
1546.401752	-2.983600	3.360700	-10.026000	25.817200	0.000663	20.721743
1547.400209	-3.005200	3.359300	-10.093000	25.810942	0.000660	20.739639
1548.398857	-2.994600	3.360600	-10.063000	25.799994	0.000660	20.734806
1549.403280	-2.997200	3.358900	-10.066000	25.801183	0.000659	20.724620
1550.401587	-2.989900	3.359800	-10.044000	25.793098	0.000661	20.711282
1551.401421	-2.990900	3.359400	-10.047000	25.804745	0.000659	20.734837
1552.405591	-3.004300	3.357900	-10.087000	25.800436	0.000659	20.734302
1553.400235	-3.029500	3.357800	-10.172000	25.751939	0.000658	20.737270
1554.401030	-3.014200	3.358800	-10.123000	25.752858	0.000656	20.716856
1555.400627	-2.998200	3.359700	-10.072000	25.721562	0.000656	20.723828
1556.401421	-2.990600	3.357400	-10.039000	25.740347	0.000654	20.719462
1557.398270	-2.997900	3.357600	-10.065000	25.766407	0.000655	20.728095
1558.401160	-2.993100	3.357800	-10.049000	25.806390	0.000654	20.743602
1559.400167	-3.011500	3.357100	-10.109000	25.829005	0.000655	20.723644
1560.401826	-2.980100	3.357500	-10.005000	25.824610	0.000655	20.732506
1561.401626	-2.986900	3.357600	-10.028000	25.824260	0.000652	20.712713
1562.402130	-2.991200	3.356800	-10.039000	25.810952	0.000652	20.714518
1563.402673	-2.997900	3.354800	-10.056000	25.810064	0.000653	20.716471
1564.399886	-3.027800	3.354700	-10.157000	25.804921	0.000654	20.732168
1565.402886	-3.022500	3.355000	-10.140000	25.780553	0.000650	20.738511
1566.399962	-3.026600	3.353700	-10.148000	25.769010	0.000651	20.730710
1567.402201	-3.002900	3.354100	-10.071000	25.795395	0.000651	20.712642
1568.402537	-3.016700	3.353100	-10.114000	25.846870	0.000650	20.712192
1569.402589	-2.998400	3.353500	-10.054000	25.887843	0.000648	20.714471
1570.401630	-3.007200	3.354100	-10.086000	25.910456	0.000649	20.693090
1571.402879	-2.997500	3.352400	-10.048000	25.919454	0.000648	20.722521
1572.402747	-3.014400	3.351500	-10.102000	25.870466	0.000648	20.709342
1573.404849	-2.999700	3.351900	-10.054000	25.880678	0.000648	20.725292
1574.404366	-2.981500	3.353400	-9.996200	25.916930	0.000648	20.701017
1575.405213	-2.998600	3.352400	-10.052000	25.892313	0.000646	20.729869
1576.408724	-3.009000	3.352400	-10.087000	25.911206	0.000645	20.723244
1577.403434	-2.985300	3.351900	-10.006000	25.910703	0.000646	20.709461
1578.407098	-2.988200	3.351800	-10.015000	25.897273	0.000647	20.708772
1579.404262	-2.998700	3.351000	-10.047000	25.852042	0.000645	20.715491
1580.406082	-2.973600	3.351500	-9.965200	25.900161	0.000644	20.709302
1581.403978	-3.012300	3.349400	-10.089000	25.927910	0.000642	20.711575
1582.408007	-2.995000	3.350000	-10.032000	25.940034	0.000643	20.710479
1583.408005	-3.021900	3.349200	-10.120000	25.935168	0.000644	20.704641
1584.409976	-2.991700	3.350800	-10.023000	25.981199	0.000644	20.693039
1585.408185	-2.995300	3.350300	-10.035000	25.983768	0.000644	20.693723
1586.407372	-2.990000	3.349500	-10.014000	25.958583	0.000641	20.702086
1587.410917	-3.004200	3.348700	-10.059000	25.937320	0.000640	20.699691
1588.406431	-2.988200	3.349400	-10.007000	25.930720	0.000641	20.676936
1589.408978	-2.994900	3.347900	-10.026000	25.946815	0.000641	20.704015
1590.410908	-2.988600	3.349600	-10.010000	25.984051	0.000637	20.697801
1591.410405	-2.979300	3.348600	-9.975300	26.005442	0.000637	20.712655
1592.410030	-2.975500	3.348700	-9.963300	26.009966	0.000639	20.702975
1593.409741	-3.014500	3.347000	-10.089000	26.006399	0.000637	20.697020
1594.412063	-2.998200	3.346500	-10.033000	25.974202	0.000637	20.703554
1595.411975	-3.000500	3.345600	-10.036000	25.930831	0.000637	20.698861
1596.408383	-2.999100	3.345900	-10.034000	25.934914	0.000636	20.706757
1597.413699	-3.008800	3.346400	-10.068000	25.934393	0.000637	20.701966
1598.410457	-2.986700	3.345600	-9.991100	25.949129	0.000637	20.689268
1599.409544	-2.992700	3.345900	-10.012000	25.960854	0.000635	20.708636
1600.413894	-2.984000	3.344000	-9.977600	25.981449	0.000635	20.717947
1601.409687	-3.001200	3.344900	-10.038000	26.029758	0.000634	20.701049
1602.410130	-3.021800	3.343300	-10.101000	26.015208	0.000635	20.685481
1603.413560	-3.019100	3.343500	-10.093000	26.008717	0.000633	20.690813
1604.412270	-3.008000	3.342600	-10.053000	26.007290	0.000634	20.696019
1605.412548	-2.993700	3.341700	-10.003000	26.027706	0.000633	20.690451
1606.414382	-2.999200	3.343100	-10.026000	26.051320	0.000632	20.701850
1607.415067	-3.003700	3.343500	-10.043000	26.057381	0.000630	20.713156
1608.412714	-2.961200	3.343400	-9.899500	26.078918	0.000631	20.685007
1609.421426	-3.004400	3.342700	-10.041000	26.079659	0.000632	20.679587
1610.413855	-2.982900	3.342800	-9.970300	26.064061	0.000631	20.671027
1611.418005	-3.007100	3.340400	-10.043000	26.044210	0.000630	20.684273
1612.417657	-3.000100	3.342100	-10.026000	26.011328	0.000630	20.714776
1613.418724	-3.001700	3.340100	-10.024000	26.019180	0.000631	20.710810
1614.416537	-3.004700	3.341500	-10.039000	26.027472	0.000628	20.685948
1615.417076	-2.981900	3.341500	-9.963300	26.077569	0.000628	20.723958
1616.416703	-2.978100	3.340100	-9.945900	26.076649	0.000626	20.696479
1617.417700	-3.012300	3.338400	-10.055000	26.028741	0.000626	20.682956
1618.419601	-3.022200	3.339700	-10.092000	25.947940	0.000627	20.701351
1619.417665	-2.995600	3.339800	-10.003000	25.898229	0.000625	20.704042
1620.417572	-2.991500	3.340000	-9.991000	25.881881	0.000626	20.686194
1621.418178	-2.984200	3.339700	-9.964900	25.874979	0.000625	20.692538
1622.418174	-3.018000	3.338400	-10.075000	25.883597	0.000622	20.679383
1623.423239	-3.016500	3.337000	-10.065000	25.919216	0.000622	20.708531
1624.421239	-3.004300	3.339400	-10.031000	25.946021	0.000623	20.692310
1625.420391	-3.002200	3.337500	-10.019000	25.972769	0.000621	20.683146
1626.423438	-3.002700	3.338000	-10.021000	26.005113	0.000621	20.691460
1627.422373	-3.026200	3.338000	-10.101000	26.038742	0.000621	20.697747
1628.419430	-3.022800	3.337400	-10.088000	26.021655	0.000620	20.691010
1629.424829	-3.026600	3.335400	-10.094000	26.072671	0.000620	20.696750
1630.422663	-2.994000	3.336200	-9.987900	26.087154	0.000618	20.680954
1631.419103	-3.004500	3.336300	-10.023000	26.114272	0.000620	20.693978
1632.421668	-3.000500	3.336400	-10.010000	26.113506	0.000618	20.690364
1633.424502	-3.006500	3.335300	-10.027000	26.130071	0.000617	20.687568
1634.420940	-3.004800	3.334400	-10.018000	26.115982	0.000617	20.688109
1635.418986	-3.012100	3.334400	-10.042000	26.084371	0.000617	20.692858
1636.422691	-3.036600	3.333400	-10.121000	26.070287	0.000618	20.697199
1637.422592	-2.999400	3.334800	-10.001000	26.065128	0.000615	20.693437
1638.423919	-2.993500	3.335600	-9.984500	26.111196	0.000614	20.701320
1639.427008	-2.987500	3.334400	-9.961000	26.139369	0.000614	20.706395
1640.426221	-3.001500	3.334100	-10.006000	26.164592	0.000614	20.682900
1641.421686	-2.966800	3.333800	-9.890000	26.193082	0.000615	20.684027
1642.429400	-3.000300	3.331200	-9.993200	26.183222	0.000612	20.682179
1643.426056	-3.008100	3.332100	-10.022000	26.170230	0.000613	20.680030
1644.426479	-3.016000	3.331100	-10.045000	26.196367	0.000614	20.677845
1645.425559	-2.983700	3.333000	-9.943700	26.150491	0.000612	20.694811
1646.427901	-3.009300	3.332500	-10.027000	26.169164	0.000612	20.669474
1647.428543	-3.013900	3.331000	-10.038000	26.168723	0.000612	20.690371
1648.425864	-2.989600	3.331600	-9.958700	26.191691	0.000611	20.678361
1649.431371	-2.989700	3.330500	-9.956000	26.209272	0.000609	20.688917
1650.425443	-2.985500	3.332000	-9.947200	26.221969	0.000611	20.669906
1651.426201	-3.002900	3.329400	-9.997100	26.217177	0.000608	20.703975
1652.431359	-3.001700	3.331100	-9.998100	26.234433	0.000608	20.673897
1653.429642	-3.005900	3.329000	-10.006000	26.237037	0.000610	20.688369
1654.430435	-3.002600	3.329600	-9.996300	26.207814	0.000608	20.691719
1655.431600	-3.003700	3.328000	-9.995700	26.163606	0.000608	20.691393
1656.429094	-3.009700	3.329100	-10.018000	26.168227	0.000607	20.692717
1657.429630	-3.011800	3.328100	-10.022000	26.180348	0.000606	20.692569
1658.435182	-2.994700	3.328200	-9.964900	26.164672	0.000604	20.696732
1659.435283	-3.020900	3.327400	-10.050000	26.165990	0.000603	20.689995
1660.433091	-2.995100	3.328400	-9.967700	26.132787	0.000602	20.686977
1661.432076	-3.013300	3.326100	-10.022000	26.173816	0.000604	20.708766
1662.437194	-3.003400	3.325400	-9.986500	26.154242	0.000603	20.670128
1663.431486	-2.994500	3.325700	-9.957900	26.123318	0.000603	20.705440
1664.431678	-2.976200	3.326600	-9.898500	26.128816	0.000604	20.690100
1665.431731	-3.003600	3.326700	-9.991600	26.157251	0.000601	20.684533
1666.434235	-2.993900	3.325800	-9.955700	26.181089	0.000600	20.692366
1667.435328	-3.011600	3.325300	-10.013000	26.166388	0.000600	20.683282
1668.433980	-3.028400	3.325100	-10.068000	26.164452	0.000599	20.693665
1669.433308	-2.994000	3.325200	-9.953700	26.170586	0.000599	20.705994
1670.432557	-3.004400	3.324500	-9.987200	26.224028	0.000599	20.685727
1671.436787	-3.015500	3.323900	-10.021000	26.217740	0.000599	20.698850
1672.440138	-2.977100	3.323800	-9.894400	26.244359	0.000598	20.675811
1673.435136	-2.984700	3.323300	-9.918200	26.232570	0.000597	20.705218
1674.439232	-2.994100	3.322500	-9.946700	26.229487	0.000596	20.686946
1675.437631	-2.979100	3.325200	-9.905000	26.226834	0.000595	20.703722
1676.439271	-3.000000	3.323800	-9.970400	26.223256	0.000594	20.721938
1677.442663	-3.023000	3.322100	-10.041000	26.230627	0.000595	20.685720
1678.437769	-3.008800	3.322200	-9.994800	26.229886	0.000595	20.690192
1679.437265	-2.997000	3.323400	-9.959200	26.246669	0.000594	20.706585
1680.439278	-3.018000	3.320900	-10.020000	26.258367	0.000596	20.709332
1681.445724	-2.995100	3.321400	-9.946700	26.265445	0.000596	20.682777
1682.443093	-2.960900	3.321400	-9.833200	26.281364	0.000593	20.696405
1683.439880	-2.997300	3.320900	-9.953700	26.263931	0.000592	20.708285
1684.447934	-2.984500	3.321000	-9.910600	26.298276	0.000593	20.698228
1685.441310	-2.995300	3.320700	-9.945200	26.303637	0.000591	20.705988
1686.442329	-3.007000	3.320300	-9.982000	26.271921	0.000589	20.698770
1687.442183	-2.989000	3.319800	-9.922000	26.254446	0.000591	20.714400
1688.442919	-2.981200	3.320700	-9.898400	26.202959	0.000590	20.684944
1689.439876	-2.989500	3.319800	-9.922000	26.225167	0.000589	20.716272
1690.441409	-2.961900	3.319500	-9.830900	26.202096	0.000590	20.684550
1691.442569	-3.006200	3.317400	-9.971500	26.187591	0.000589	20.714073
1692.442023	-2.993200	3.319000	-9.932900	26.195931	0.000590	20.713445
1693.440655	-2.978100	3.318200	-9.881300	26.203830	0.000587	20.707632
1694.443954	-2.989600	3.318200	-9.918600	26.209265	0.000589	20.705507
1695.443626	-2.997900	3.317800	-9.945700	26.247134	0.000588	20.695197
1696.444993	-3.006900	3.315900	-9.969500	26.242986	0.000587	20.698141
1697.443473	-2.991100	3.315600	-9.916600	26.275126	0.000584	20.704361
1698.444074	-3.015100	3.315600	-9.996400	26.287117	0.000583	20.714990
1699.446970	-3.002600	3.316200	-9.956300	26.290273	0.000583	20.717688
1700.447333	-3.009800	3.315000	-9.977000	26.287240	0.000582	20.719855
1701.446026	-2.997600	3.315000	-9.936200	26.277080	0.000582	20.720551
1702.445066	-2.987400	3.314300	-9.900100	26.236974	0.000583	20.697316
1703.450960	-3.018700	3.313200	-9.999200	26.245069	0.000583	20.712564
1704.448234	-2.989400	3.313700	-9.905400	26.244898	0.000583	20.703382
1705.447858	-3.014500	3.312800	-9.984800	26.232948	0.000584	20.724566
1706.446170	-3.010800	3.313400	-9.975100	26.235534	0.000580	20.710568
1707.448307	-2.993900	3.312400	-9.916200	26.270677	0.000579	20.725496
1708.447391	-2.979100	3.313700	-9.870400	26.315719	0.000579	20.710070
1709.448572	-3.027500	3.310400	-10.021000	26.313759	0.000580	20.722799
1710.445367	-2.981500	3.312100	-9.874000	26.319029	0.000579	20.709128
1711.444989	-3.025300	3.310800	-10.015000	26.340186	0.000578	20.714270
1712.450793	-3.001700	3.310900	-9.936600	26.361490	0.000578	20.704860
1713.447509	-3.010900	3.309800	-9.964200	26.371177	0.000577	20.702268
1714.449805	-3.011000	3.309400	-9.963600	26.404250	0.000575	20.731717
1715.451503	-3.007200	3.312100	-9.957200	26.398742	0.000577	20.717646
1716.452080	-2.986900	3.311200	-9.889700	26.415995	0.000576	20.725503
1717.450909	-3.017300	3.309600	-9.985200	26.420566	0.000576	20.722985
1718.454078	-3.006300	3.310800	-9.951400	26.398099	0.000573	20.719844
1719.452356	-2.989000	3.308100	-9.886900	26.355688	0.000575	20.719893
1720.450283	-3.010500	3.308700	-9.959300	26.347245	0.000574	20.697656
1721.452659	-3.000100	3.309200	-9.927600	26.337582	0.000573	20.709282
1722.454038	-2.982400	3.308800	-9.867500	26.348318	0.000572	20.732875
1723.454072	-2.988900	3.308300	-9.887200	26.350223	0.000572	20.718194
1724.452280	-2.985600	3.308500	-9.877100	26.341713	0.000570	20.734772
1725.455882	-3.003000	3.308200	-9.933700	26.323907	0.000569	20.727308
1726.456679	-3.020000	3.306800	-9.984700	26.302431	0.000569	20.714259
1727.455163	-3.018300	3.306600	-9.979200	26.323711	0.000570	20.722844
1728.458691	-2.991400	3.306800	-9.890900	26.325923	0.000570	20.711790
1729.455780	-2.979100	3.307700	-9.852800	26.360242	0.000568	20.738695
1730.455970	-2.992100	3.306200	-9.891200	26.353710	0.000567	20.731182
1731.457606	-3.000300	3.306600	-9.919100	26.406322	0.000565	20.738541
1732.456292	-2.990800	3.305600	-9.885500	26.376313	0.000566	20.725924
1733.454378	-2.986700	3.305100	-9.870200	26.354507	0.000567	20.725819
1734.460268	-2.994600	3.305100	-9.895800	26.370774	0.000566	20.699018
1735.459472	-3.015200	3.304500	-9.962800	26.395810	0.000565	20.743623
1736.459396	-3.001800	3.303500	-9.914700	26.406360	0.000567	20.741424
1737.456554	-2.995000	3.304400	-9.895400	26.415299	0.000562	20.723381
1738.459842	-2.990600	3.304100	-9.880100	26.397476	0.000564	20.730124
1739.460940	-3.015900	3.302700	-9.959600	26.389187	0.000562	20.741234
1740.460823	-3.012800	3.302500	-9.947600	26.386584	0.000562	20.719176
1741.459943	-2.982800	3.303700	-9.853100	26.354006	0.000564	20.727686
1742.457468	-2.998900	3.302600	-9.903200	26.365458	0.000560	20.743938
1743.460786	-3.000100	3.302200	-9.905600	26.370054	0.000560	20.741919
1744.466273	-2.990600	3.301800	-9.872700	26.422843	0.000560	20.722902
1745.460679	-3.008600	3.302000	-9.933400	26.453181	0.000560	20.753871
1746.463999	-3.002500	3.302200	-9.914000	26.450511	0.000559	20.747394
1747.464915	-3.012800	3.299900	-9.940800	26.492489	0.000560	20.735533
1748.464349	-3.019100	3.299900	-9.962000	26.509478	0.000557	20.744075
1749.463815	-2.985400	3.300900	-9.853400	26.492649	0.000557	20.754661
1750.464952	-2.991500	3.301700	-9.876500	26.516235	0.000558	20.719572
1751.465463	-3.001900	3.300100	-9.906200	26.552141	0.000558	20.746182
1752.465748	-3.012100	3.298100	-9.932700	26.541616	0.000556	20.739396
1753.462365	-3.000000	3.299400	-9.896900	26.568454	0.000556	20.741243
1754.464942	-2.994900	3.298900	-9.878200	26.566323	0.000553	20.749533
1755.469148	-3.013100	3.297900	-9.936300	26.576026	0.000557	20.734630
1756.464369	-3.005300	3.296200	-9.903900	26.590906	0.000555	20.744847
1757.469351	-2.999400	3.296900	-9.887500	26.590490	0.000554	20.724513
1758.463455	-3.005200	3.298000	-9.910300	26.605713	0.000552	20.734127
1759.463698	-2.981400	3.298200	-9.832000	26.603446	0.000551	20.748444
1760.463051	-3.001400	3.297900	-9.897000	26.566319	0.000555	20.745261
1761.467844	-3.013500	3.295900	-9.930800	26.538384	0.000552	20.759381
1762.468998	-2.987400	3.295500	-9.843100	26.510462	0.000551	20.749806
1763.468760	-2.989200	3.296300	-9.852500	26.479359	0.000551	20.751260
1764.474975	-3.007000	3.295400	-9.908000	26.471536	0.000551	20.740076
1765.470209	-3.002700	3.294200	-9.890300	26.469600	0.000550	20.742398
1766.469945	-2.995600	3.294300	-9.867000	26.465752	0.000549	20.750859
1767.469827	-2.991800	3.293800	-9.853200	26.450761	0.000548	20.746223
1768.469975	-2.986100	3.293900	-9.835200	26.420447	0.000549	20.761748
1769.467253	-3.006000	3.292700	-9.897100	26.385813	0.000548	20.748274
1770.468521	-3.016800	3.292100	-9.930100	26.381095	0.000546	20.730255
1771.467795	-2.980500	3.293600	-9.814700	26.424724	0.000546	20.753718
1772.469654	-2.995100	3.294300	-9.865600	26.400818	0.000545	20.749131
1773.470488	-2.995800	3.291400	-9.859200	26.454224	0.000546	20.753023
1774.473028	-2.982200	3.292400	-9.817400	26.455922	0.000545	20.754255
1775.470758	-3.003500	3.291000	-9.883400	26.428812	0.000543	20.749766
1776.469382	-2.989700	3.291400	-9.839400	26.468830	0.000544	20.760592
1777.470955	-2.985100	3.292200	-9.826900	26.434302	0.000543	20.762871
1778.469929	-3.004700	3.291200	-9.888300	26.394503	0.000542	20.749422
1779.470909	-3.012600	3.288800	-9.905300	26.379193	0.000542	20.753475
1780.472178	-2.989500	3.291000	-9.837100	26.420009	0.000542	20.750402
1781.472876	-2.992600	3.289600	-9.842700	26.464036	0.000540	20.752453
1782.473769	-2.999800	3.289300	-9.866100	26.490955	0.000541	20.761019
1783.472550	-2.971300	3.289000	-9.771200	26.455030	0.000539	20.776593
1784.475368	-2.983300	3.289600	-9.813200	26.444830	0.000539	20.753064
1785.474630	-2.988200	3.290100	-9.829900	26.427075	0.000540	20.753710
1786.472997	-2.970200	3.289300	-9.769100	26.408254	0.000537	20.779364
1787.474070	-3.013500	3.286700	-9.903200	26.431083	0.000538	20.764851
1788.475066	-3.007400	3.287300	-9.884400	26.459192	0.000537	20.757068
1789.473863	-2.998800	3.288200	-9.858400	26.486975	0.000537	20.766976
1790.474879	-3.025600	3.286300	-9.941700	26.484194	0.000536	20.765603
1791.473923	-2.989500	3.286600	-9.823000	26.514464	0.000537	20.766158
1792.475722	-2.987400	3.286600	-9.817600	26.558081	0.000535	20.784397
1793.475397	-3.004000	3.285700	-9.869900	26.607982	0.000535	20.777660
1794.472349	-3.025800	3.285300	-9.940200	26.631279	0.000533	20.756509
1795.475358	-2.991300	3.285800	-9.827400	26.651162	0.000535	20.799731
1796.472915	-3.008300	3.284300	-9.879700	26.636191	0.000534	20.763344
1797.475930	-2.995000	3.284700	-9.837200	26.666702	0.000532	20.775525
1798.477667	-3.021800	3.283700	-9.922000	26.663701	0.000531	20.776775
1799.474493	-2.991700	3.283600	-9.822800	26.630237	0.000533	20.775851
1800.476963	-3.003700	3.282400	-9.858600	26.606458	0.000532	20.794621
1801.475361	-3.008700	3.282100	-9.873500	26.568308	0.000533	20.761486
1802.474229	-3.001800	3.283300	-9.854700	26.566868	0.000530	20.781376
1803.477659	-3.019900	3.281500	-9.908600	26.566795	0.000528	20.759965
1804.475541	-2.974100	3.282600	-9.762000	26.513646	0.000531	20.769603
1805.474526	-2.989200	3.282100	-9.810200	26.521389	0.000530	20.778809
1806.477403	-3.011400	3.282100	-9.883200	26.514222	0.000529	20.784881
1807.478807	-2.999200	3.281600	-9.841500	26.531578	0.000528	20.781464
1808.479204	-3.019200	3.280900	-9.904100	26.530334	0.000528	20.790645
1809.477328	-2.996400	3.280000	-9.827100	26.565491	0.000527	20.772880
1810.479552	-3.011200	3.280700	-9.876700	26.566833	0.000524	20.773754
1811.480118	-2.984200	3.279100	-9.784800	26.544964	0.000524	20.779272
1812.479036	-3.005100	3.278900	-9.852100	26.568304	0.000523	20.778552
1813.483365	-2.981600	3.280100	-9.778900	26.555820	0.000524	20.776434
1814.480992	-2.968900	3.280300	-9.737900	26.555170	0.000526	20.788109
1815.482601	-2.985700	3.278000	-9.786100	26.538147	0.000524	20.788541
1816.487218	-2.997800	3.278800	-9.828200	26.524792	0.000523	20.798825
1817.491024	-2.997300	3.277900	-9.823500	26.522612	0.000522	20.789046
1818.483572	-3.014900	3.276900	-9.878100	26.577476	0.000522	20.802944
1819.488054	-2.998400	3.276800	-9.823300	26.578891	0.000521	20.774969
1820.490430	-2.995900	3.276000	-9.812900	26.550767	0.000520	20.781786
1821.484798	-2.985500	3.277500	-9.783800	26.550400	0.000521	20.784737
1822.487019	-2.986600	3.277600	-9.788200	26.541861	0.000519	20.779946
1823.487456	-2.981900	3.275500	-9.766700	26.528653	0.000519	20.796067
1824.487163	-3.002700	3.275000	-9.832700	26.559216	0.000518	20.796443
1825.486640	-2.992900	3.276000	-9.803700	26.582891	0.000517	20.803173
1826.488955	-3.015200	3.273000	-9.867400	26.615811	0.000519	20.808290
1827.485488	-2.996900	3.276200	-9.816800	26.623958	0.000518	20.787557
1828.486007	-2.999400	3.274500	-9.820900	26.646647	0.000517	20.792822
1829.489396	-2.995800	3.273600	-9.805800	26.633042	0.000516	20.784361
1830.487887	-3.002100	3.272000	-9.821900	26.642182	0.000516	20.795920
1831.486903	-2.983600	3.274300	-9.768100	26.630114	0.000518	20.802755
1832.486517	-3.010400	3.271700	-9.848300	26.637085	0.000516	20.817822
1833.488993	-2.994900	3.273500	-9.802200	26.659210	0.000514	20.822995
1834.489710	-3.017100	3.271100	-9.867700	26.689120	0.000514	20.802804
1835.492622	-2.980000	3.273000	-9.752600	26.706350	0.000514	20.816333
1836.507281	-3.007600	3.270700	-9.835500	26.711035	0.000513	20.790697
1837.517281	-3.019000	3.269900	-9.870900	26.672686	0.000514	20.827059
1838.503545	-2.973800	3.270300	-9.723500	26.636931	0.000512	20.806762
1839.504239	-3.028100	3.268600	-9.896900	26.619479	0.000513	20.807710
1840.504550	-3.026600	3.269700	-9.895000	26.669922	0.000511	20.813850
1841.504035	-3.008300	3.269100	-9.832300	26.670565	0.000510	20.823505
1842.505363	-3.010000	3.267700	-9.834500	26.708663	0.000510	20.801589
1843.504639	-3.000400	3.267900	-9.803100	26.711493	0.000509	20.831460
1844.506710	-3.024700	3.268300	-9.885000	26.705508	0.000507	20.803159
1845.507205	-3.009100	3.266700	-9.829000	26.648960	0.000509	20.833553
1846.505987	-3.015800	3.267300	-9.852200	26.637909	0.000507	20.834298
1847.505087	-2.983100	3.266300	-9.742600	26.652353	0.000507	20.799506
1848.508295	-2.986200	3.266500	-9.753900	26.645928	0.000507	20.822444
1849.509035	-2.989100	3.266700	-9.762500	26.624200	0.000506	20.809137
1850.508005	-2.996900	3.265500	-9.784800	26.630055	0.000505	20.817868
1851.509863	-3.012500	3.264800	-9.834200	26.633277	0.000504	20.841969
1852.510304	-3.007700	3.264900	-9.819100	26.665178	0.000504	20.820934
1853.508183	-3.016900	3.263200	-9.843200	26.662586	0.000502	20.834923
1854.513443	-3.002700	3.263600	-9.799100	26.632107	0.000504	20.823723
1855.510020	-3.019600	3.264000	-9.854600	26.618746	0.000502	20.808396
1856.511276	-3.005900	3.263000	-9.807500	26.624081	0.000503	20.831302
1857.510856	-3.027700	3.261900	-9.874500	26.645079	0.000501	20.823014
1858.510212	-2.997600	3.262800	-9.779200	26.655774	0.000500	20.813376
1859.511112	-2.987100	3.263100	-9.746700	26.707280	0.000501	20.826751
1860.510204	-3.012800	3.261100	-9.823500	26.705516	0.000499	20.821658
1861.511383	-2.995800	3.261600	-9.770300	26.681333	0.000501	20.831485
1862.511198	-3.006600	3.261000	-9.803700	26.661199	0.000500	20.845383
1863.514486	-2.985400	3.261500	-9.735800	26.610756	0.000500	20.812692
1864.514565	-3.001300	3.260800	-9.785000	26.650939	0.000498	20.837439
1865.513961	-2.988900	3.261000	-9.744200	26.661290	0.000500	20.844052
1866.512167	-3.025500	3.259700	-9.861200	26.645027	0.000497	20.835289
1867.511796	-2.991800	3.259000	-9.749400	26.651868	0.000497	20.854020
1868.519935	-3.016300	3.258600	-9.828600	26.614981	0.000495	20.869567
1869.513998	-2.999400	3.258900	-9.773000	26.645443	0.000495	20.842345
1870.521211	-3.004000	3.258900	-9.788400	26.694016	0.000495	20.851821
1871.517426	-3.022700	3.258100	-9.847700	26.726992	0.000495	20.838507
1872.515014	-2.998500	3.258200	-9.766800	26.724413	0.000493	20.856303
1873.516286	-2.980200	3.258200	-9.709900	26.711110	0.000494	20.846248
1874.520432	-3.014000	3.255800	-9.811600	26.709315	0.000491	20.834012
1875.515730	-3.001100	3.256800	-9.773500	26.734182	0.000492	20.847632
1876.518594	-3.000500	3.257700	-9.774000	26.767862	0.000491	20.845932
1877.518354	-3.007500	3.255600	-9.790300	26.795539	0.000492	20.835828
1878.519011	-3.010200	3.254400	-9.796100	26.768082	0.000489	20.852791
1879.516407	-3.000400	3.255500	-9.766800	26.761699	0.000490	20.828357
1880.517540	-3.006700	3.253500	-9.781500	26.770684	0.000489	20.855882
1881.518193	-3.016200	3.254700	-9.815000	26.805576	0.000491	20.851608
1882.518277	-2.999600	3.254500	-9.761500	26.815723	0.000487	20.839052
1883.523838	-3.010900	3.253100	-9.794000	26.823821	0.000487	20.848615
1884.519318	-3.000700	3.253100	-9.759600	26.822245	0.000488	20.862678
1885.516543	-2.990900	3.252900	-9.728400	26.834978	0.000486	20.832808
1886.519143	-2.986500	3.252800	-9.713500	26.847337	0.000488	20.847604
1887.522439	-2.999200	3.253100	-9.755200	26.875526	0.000486	20.853189
1888.521001	-2.982600	3.252400	-9.698900	26.877063	0.000485	20.826760
1889.520427	-3.013700	3.250200	-9.793800	26.908925	0.000483	20.829875
1890.522229	-3.018400	3.250500	-9.810500	26.921559	0.000484	20.835941
1891.522721	-3.005600	3.249900	-9.766400	26.936739	0.000484	20.849782
1892.521941	-3.022600	3.249500	-9.821400	26.938803	0.000482	20.851384
1893.519248	-2.996300	3.249600	-9.735300	26.897057	0.000481	20.833114
1894.523864	-3.034900	3.247700	-9.855200	26.892488	0.000482	20.841796
1895.522722	-3.025900	3.249400	-9.831500	26.906365	0.000481	20.825879
1896.524426	-3.003300	3.248500	-9.755300	26.928080	0.000479	20.815472
1897.522796	-2.973600	3.247700	-9.656600	26.904951	0.000479	20.832991
1898.520640	-2.995300	3.248100	-9.728100	26.899666	0.000478	20.813927
1899.523429	-3.003200	3.247000	-9.750400	26.890731	0.000479	20.827227
1900.521425	-3.007200	3.246200	-9.760900	26.918894	0.000477	20.838951
1901.522226	-3.006900	3.245100	-9.756900	26.904601	0.000476	20.817941
1902.526880	-3.027400	3.244600	-9.822000	26.870608	0.000477	20.818847
1903.525732	-2.999300	3.245900	-9.734800	26.883940	0.000476	20.823244
1904.524734	-2.989300	3.246200	-9.702100	26.859388	0.000476	20.827480
1905.527414	-2.978900	3.246100	-9.668000	26.895324	0.000475	20.821415
1906.523632	-3.019000	3.245500	-9.797100	26.915967	0.000475	20.813723
1907.525906	-3.003800	3.245900	-9.748800	26.902949	0.000473	20.819125
1908.524851	-2.995200	3.243100	-9.712500	26.857876	0.000473	20.817425
1909.523720	-3.014000	3.241700	-9.769700	26.856866	0.000472	20.810720
1910.523809	-2.990900	3.244300	-9.702000	26.852860	0.000471	20.819019
1911.526887	-2.997900	3.242900	-9.720700	26.899232	0.000470	20.828663
1912.525151	-2.991200	3.243200	-9.699500	26.899404	0.000469	20.794697
1913.525884	-2.993400	3.243400	-9.708000	26.903347	0.000470	20.819051
1914.525570	-3.017300	3.242700	-9.783000	26.882330	0.000468	20.818306
1915.527483	-2.992800	3.241200	-9.698500	26.901841	0.000469	20.817063
1916.530882	-3.001000	3.240200	-9.721900	26.930563	0.000468	20.810856
1917.528030	-2.994400	3.240600	-9.702800	26.934513	0.000466	20.819096
1918.529436	-3.013200	3.240700	-9.764300	26.935156	0.000466	20.801725
1919.533156	-2.986900	3.239800	-9.675700	26.978829	0.000464	20.811503
1920.531534	-2.986300	3.240100	-9.674700	26.990201	0.000465	20.796386
1921.531656	-2.990100	3.239800	-9.686500	26.975438	0.000465	20.815204
1922.531747	-2.979900	3.238200	-9.648100	26.947601	0.000463	20.812342
1923.529806	-2.985900	3.238000	-9.667400	26.958519	0.000463	20.810045
1924.532952	-2.999500	3.237300	-9.709100	26.950583	0.000465	20.803961
1925.530277	-2.992500	3.237400	-9.687000	26.975127	0.000462	20.810150
1926.530353	-3.005000	3.236200	-9.723700	26.995310	0.000464	20.795834
1927.536193	-2.981900	3.237100	-9.651200	26.999823	0.000461	20.809381
1928.534100	-3.004200	3.235900	-9.720600	26.957523	0.000459	20.794345
1929.530945	-2.999100	3.235500	-9.702400	26.938889	0.000460	20.803108
1930.530780	-3.008200	3.235500	-9.731700	26.903279	0.000461	20.776309
1931.533384	-3.005500	3.235300	-9.721600	26.959936	0.000461	20.788237
1932.532147	-3.001700	3.233300	-9.703500	26.965374	0.000458	20.779480
1933.531529	-2.996500	3.232800	-9.685800	26.959049	0.000459	20.802043
1934.534228	-3.010600	3.232500	-9.730300	26.946356	0.000461	20.785960
1935.540191	-3.000500	3.233600	-9.701200	26.913300	0.000458	20.791601
1936.533564	-2.991600	3.231900	-9.667000	26.869250	0.000458	20.776231
1937.532812	-3.025000	3.230300	-9.769100	26.879429	0.000458	20.798794
1938.532380	-3.001700	3.230500	-9.696300	26.902915	0.000457	20.804866
1939.535861	-3.003600	3.229900	-9.699800	26.938770	0.000456	20.804884
1940.534594	-3.006400	3.230300	-9.709500	26.961361	0.000456	20.774496
1941.539824	-2.988300	3.230900	-9.653300	26.961654	0.000456	20.785222
1942.535966	-3.034600	3.228500	-9.796400	26.975139	0.000457	20.786455
1943.534590	-3.010600	3.229700	-9.722000	26.901759	0.000453	20.791850
1944.534127	-2.992200	3.229300	-9.661700	26.877637	0.000453	20.795095
1945.538184	-3.020400	3.227400	-9.746300	26.810178	0.000453	20.792700
1946.537043	-3.020200	3.227000	-9.745200	26.808389	0.000452	20.794695
1947.539005	-2.994900	3.228300	-9.667600	26.802695	0.000453	20.771426
1948.535526	-3.005000	3.226900	-9.695500	26.826169	0.000450	20.778433
1949.536033	-2.978400	3.227900	-9.612000	26.825582	0.000452	20.767411
1950.534558	-2.975900	3.226800	-9.601200	26.834120	0.000450	20.762244
1951.536057	-2.996800	3.226500	-9.668100	26.880211	0.000449	20.809063
1952.535203	-2.997900	3.225800	-9.668700	26.868918	0.000450	20.774474
1953.536065	-2.991000	3.226500	-9.649700	26.901965	0.000450	20.764555
1954.538014	-2.990800	3.224800	-9.643400	26.921525	0.000448	20.784224
1955.538877	-2.985900	3.224700	-9.626800	26.964849	0.000447	20.793651
1956.537222	-3.014800	3.223600	-9.717300	26.966669	0.000449	20.786946
1957.537772	-3.000200	3.222800	-9.668300	27.023053	0.000446	20.773947
1958.539250	-3.010000	3.224400	-9.704000	27.018370	0.000446	20.775401
1959.539523	-3.004600	3.221500	-9.677900	27.011168	0.000446	20.772900
1960.537897	-3.003600	3.222900	-9.678500	26.977098	0.000446	20.775148
1961.539436	-3.009000	3.220800	-9.690400	26.985016	0.000444	20.789275
1962.537829	-3.008400	3.221400	-9.690000	26.982843	0.000443	20.785667
1963.537467	-2.990800	3.222200	-9.636400	26.986542	0.000445	20.800292
1964.539923	-2.999300	3.219400	-9.654000	26.997295	0.000443	20.771277
1965.538175	-3.005400	3.219700	-9.675100	27.010173	0.000443	20.787546
1966.539590	-2.989900	3.220200	-9.627100	27.024740	0.000441	20.790816
1967.540494	-2.979100	3.219900	-9.591800	27.077601	0.000443	20.790398
1968.539144	-3.027500	3.218200	-9.741600	27.034453	0.000442	20.774505
1969.540020	-3.001500	3.218000	-9.657600	27.062790	0.000440	20.774080
1970.540874	-3.004600	3.216800	-9.664100	27.074511	0.000441	20.760737
1971.541337	-2.964900	3.218300	-9.540900	27.061554	0.000441	20.750077
1972.539955	-2.977100	3.216900	-9.575900	27.089084	0.000440	20.773497
1973.539083	-2.982000	3.216900	-9.592000	27.115087	0.000441	20.776890
1974.538659	-3.017500	3.214500	-9.698900	27.091588	0.000440	20.775541
1975.539014	-3.025500	3.214500	-9.724000	27.120193	0.000439	20.742669
1976.540155	-3.015200	3.213800	-9.689800	27.081883	0.000440	20.764358
1977.541916	-3.015400	3.214100	-9.690400	27.119079	0.000437	20.771895
1978.540263	-2.998600	3.214500	-9.638500	27.111658	0.000436	20.760638
1979.539956	-2.991400	3.213500	-9.611600	27.141286	0.000437	20.764832
1980.542767	-3.005300	3.212200	-9.652200	27.155907	0.000436	20.767684
1981.543486	-3.002300	3.211600	-9.640700	27.145731	0.000437	20.790640
1982.539265	-2.990800	3.213100	-9.607200	27.108340	0.000435	20.759198
1983.544857	-3.004300	3.211300	-9.647300	27.118314	0.000434	20.771600
1984.542768	-2.993100	3.210900	-9.609800	27.115332	0.000434	20.777610
1985.544252	-3.003700	3.210600	-9.641200	27.143521	0.000434	20.775615
1986.541940	-3.005300	3.210800	-9.648900	27.123751	0.000432	20.753835
1987.543625	-3.009900	3.209300	-9.658800	27.144446	0.000431	20.748095
1988.544289	-2.976800	3.210600	-9.555500	27.147753	0.000431	20.765172
1989.543826	-2.978000	3.209000	-9.554700	27.156710	0.000430	20.754741
1990.543858	-2.990600	3.212100	-9.605100	27.127635	0.000430	20.760585
1991.542544	-3.003500	3.207500	-9.632300	27.127603	0.000430	20.762925
1992.542534	-2.980300	3.208000	-9.559600	27.108176	0.000428	20.758085
1993.545002	-2.999700	3.207200	-9.619300	27.120985	0.000429	20.750104
1994.542493	-2.974000	3.207900	-9.538400	27.150239	0.000428	20.753922
1995.543233	-3.006900	3.207400	-9.643400	27.129569	0.000428	20.743564
1996.546446	-3.009400	3.205100	-9.643900	27.106842	0.000428	20.745837
1997.543870	-3.006100	3.205000	-9.633700	27.151004	0.000425	20.751847
1998.543709	-3.017000	3.204800	-9.667200	27.151231	0.000426	20.750178
1999.545377	-3.008500	3.204600	-9.639400	27.173940	0.000428	20.760691
2000.546415	-3.018500	3.203900	-9.670000	27.185174	0.000426	20.752075
2001.545797	-2.998700	3.204300	-9.607600	27.163642	0.000426	20.756971
2002.548826	-3.002500	3.202800	-9.614800	27.157911	0.000424	20.764010
2003.549891	-3.016800	3.202100	-9.658900	27.188285	0.000423	20.758523
2004.547735	-2.996800	3.200300	-9.589300	27.176604	0.000422	20.745352
2005.549050	-3.021400	3.201300	-9.671400	27.209872	0.000423	20.730449
2006.551424	-2.995700	3.200700	-9.587700	27.214317	0.000425	20.742981
2007.550698	-3.014500	3.200200	-9.646500	27.235132	0.000422	20.748271
2008.548978	-2.998600	3.200700	-9.596200	27.230279	0.000422	20.749553
2009.553451	-3.022800	3.199900	-9.670800	27.175124	0.000420	20.735802
2010.549404	-3.013100	3.199100	-9.637600	27.183585	0.000419	20.760908
2011.548738	-2.983900	3.199100	-9.545200	27.194176	0.000420	20.738369
2012.548571	-2.994300	3.198400	-9.576400	27.237454	0.000420	20.723578
2013.552592	-2.998600	3.199200	-9.592400	27.215599	0.000419	20.740951
2014.550869	-2.985200	3.196800	-9.541700	27.195328	0.000418	20.736209
2015.550132	-2.982800	3.197700	-9.536600	27.174415	0.000419	20.739830
2016.554168	-2.982000	3.196700	-9.531000	27.193767	0.000419	20.753132
2017.552871	-2.975600	3.197200	-9.512000	27.180403	0.000420	20.731629
2018.552807	-2.995200	3.195700	-9.569300	27.202804	0.000418	20.719072
2019.556163	-2.983200	3.197400	-9.537500	27.210794	0.000420	20.726634
2020.553505	-2.978000	3.194700	-9.513400	27.218822	0.000417	20.760315
2021.553745	-3.011600	3.196000	-9.624200	27.190977	0.000419	20.723771
2022.553793	-2.999200	3.193800	-9.577900	27.206436	0.000418	20.715138
2023.555600	-2.992900	3.192600	-9.554200	27.244050	0.000416	20.719307
2024.554921	-3.019100	3.192600	-9.638700	27.282980	0.000418	20.736655
2025.559651	-2.984100	3.192700	-9.525900	27.285246	0.000417	20.726132
2026.557029	-3.011100	3.191300	-9.607500	27.298615	0.000416	20.732942
2027.559565	-3.001400	3.191400	-9.576400	27.315591	0.000415	20.721095
2028.559020	-3.027500	3.189500	-9.655500	27.333576	0.000417	20.728281
2029.562803	-2.990600	3.190000	-9.539000	27.323157	0.000415	20.736293
2030.556622	-2.992400	3.189600	-9.543100	27.324603	0.000416	20.743912
2031.561435	-3.007200	3.189000	-9.587800	27.318604	0.000413	20.724600
2032.560091	-3.015900	3.187600	-9.612200	27.303123	0.000413	20.739374
2033.560824	-3.015900	3.188600	-9.614400	27.247971	0.000415	20.726571
2034.562495	-3.008800	3.186200	-9.585000	27.212170	0.000413	20.737027
2035.561361	-2.994400	3.187100	-9.542600	27.178161	0.000413	20.726529
2036.562326	-2.998400	3.185900	-9.551600	27.176080	0.000414	20.714003
2037.561355	-3.006800	3.186200	-9.579200	27.200814	0.000413	20.739830
2038.567154	-3.007700	3.184000	-9.575300	27.209851	0.000413	20.730902
2039.562880	-2.984900	3.184700	-9.505400	27.173349	0.000411	20.725482
2040.566659	-2.994900	3.184400	-9.536500	27.134545	0.000411	20.724860
2041.565364	-3.003900	3.183700	-9.562800	27.147396	0.000411	20.739209
2042.568472	-3.028400	3.183700	-9.639700	27.156298	0.000411	20.722556
2043.566881	-3.021200	3.182600	-9.613900	27.172651	0.000410	20.714347
2044.567110	-2.997400	3.181800	-9.535100	27.222994	0.000410	20.718517
2045.568707	-3.016700	3.181500	-9.596400	27.266883	0.000411	20.717617
2046.567437	-3.030700	3.181700	-9.640700	27.278587	0.000411	20.723227
2047.566924	-2.988000	3.181800	-9.506400	27.330835	0.000410	20.712721
2048.568836	-2.989500	3.180900	-9.507900	27.334630	0.000409	20.707530
2049.567913	-3.006800	3.180000	-9.560200	27.348746	0.000409	20.701341
2050.569194	-3.005800	3.177500	-9.549800	27.343708	0.000409	20.706704
2051.570890	-2.983800	3.178400	-9.482800	27.321670	0.000408	20.732900
2052.567494	-3.001100	3.177400	-9.535000	27.306716	0.000407	20.700786
2053.568906	-3.005500	3.178500	-9.552100	27.310193	0.000406	20.727519
2054.568451	-2.997300	3.176500	-9.519500	27.337385	0.000405	20.699869
2055.567712	-3.003400	3.175500	-9.535000	27.351983	0.000406	20.712658
2056.568347	-2.993700	3.177200	-9.510600	27.369747	0.000405	20.697336
2057.569299	-2.985700	3.175000	-9.478800	27.377240	0.000405	20.714358
2058.569731	-2.994800	3.174700	-9.506900	27.379645	0.000405	20.710139
2059.570972	-2.992500	3.174200	-9.498400	27.385717	0.000405	20.700599
2060.569649	-2.992600	3.174800	-9.500100	27.392162	0.000405	20.719412
2061.572855	-2.982900	3.173200	-9.464200	27.362475	0.000404	20.693339
2062.573074	-2.984400	3.173900	-9.471200	27.393876	0.000402	20.727301
2063.568639	-3.024300	3.171300	-9.589100	27.401100	0.000402	20.727930
2064.575006	-2.981900	3.170400	-9.453200	27.427609	0.000403	20.704811
2065.572428	-2.979200	3.171600	-9.446900	27.421035	0.000402	20.698197
2066.573946	-2.991800	3.169700	-9.481900	27.396330	0.000401	20.716494
2067.574577	-3.008200	3.168200	-9.529200	27.341907	0.000402	20.711530
2068.573860	-3.001700	3.170800	-9.517000	27.329945	0.000400	20.677209
2069.574648	-3.008100	3.167600	-9.527600	27.344110	0.000400	20.699995
2070.571867	-2.981600	3.167300	-9.442300	27.332700	0.000399	20.696578
2071.571743	-3.011900	3.168700	-9.542900	27.308741	0.000398	20.709462
2072.573607	-3.003800	3.167200	-9.512500	27.352643	0.000400	20.698148
2073.573859	-2.983700	3.167900	-9.451700	27.400028	0.000399	20.723058
2074.576290	-2.988200	3.165700	-9.458500	27.386206	0.000400	20.706307
2075.571844	-3.000200	3.166000	-9.497300	27.346767	0.000398	20.667578
2076.575986	-3.004900	3.165000	-9.509900	27.372024	0.000398	20.675917
2077.573606	-3.021600	3.163100	-9.556700	27.376395	0.000399	20.693592
2078.574953	-3.020300	3.163100	-9.552300	27.361630	0.000398	20.684902
2079.572315	-3.013500	3.164200	-9.534500	27.343157	0.000398	20.699511
2080.572715	-2.999100	3.162000	-9.482500	27.332878	0.000400	20.689644
2081.573519	-2.992300	3.161200	-9.458400	27.295322	0.000397	20.691695
2082.573084	-2.986200	3.161000	-9.438400	27.270958	0.000397	20.672400
2083.576699	-2.997000	3.159700	-9.468400	27.272696	0.000399	20.714930
2084.575897	-2.994900	3.158700	-9.458800	27.300256	0.000397	20.692391
2085.574725	-2.995000	3.160900	-9.465700	27.325343	0.000395	20.680641
2086.577627	-2.991300	3.158200	-9.445500	27.316981	0.000394	20.685980
2087.574102	-3.007800	3.156500	-9.493300	27.278433	0.000396	20.687982
2088.574476	-3.012800	3.156000	-9.507400	27.289886	0.000396	20.680061
2089.576129	-3.007200	3.156400	-9.490200	27.284554	0.000396	20.692243
2090.576289	-2.997400	3.155800	-9.458300	27.299247	0.000395	20.693746
2091.576108	-3.019800	3.154400	-9.523900	27.313730	0.000395	20.684133
2092.576488	-3.002700	3.154500	-9.471000	27.333339	0.000395	20.692953
2093.580239	-3.015000	3.153000	-9.504700	27.357192	0.000394	20.672850
2094.579191	-2.986000	3.154000	-9.417000	27.322588	0.000394	20.676921
2095.580724	-3.007400	3.151900	-9.477900	27.299565	0.000395	20.698334
2096.581820	-2.963900	3.153100	-9.344600	27.236920	0.000393	20.682734
2097.580093	-2.986500	3.150300	-9.407000	27.196672	0.000394	20.696307
2098.581170	-3.004800	3.150600	-9.465200	27.142263	0.000392	20.670029
2099.582870	-2.978600	3.149400	-9.379800	27.124194	0.000393	20.677462
2100.582740	-2.993500	3.149200	-9.426500	27.135087	0.000393	20.669450
2101.581892	-2.994300	3.148300	-9.425900	27.159392	0.000391	20.695320
2102.584414	-2.992700	3.148600	-9.422000	27.193788	0.000393	20.682499
2103.584841	-2.991100	3.147400	-9.412000	27.231378	0.000391	20.689489
2104.582614	-3.003500	3.145600	-9.446500	27.271359	0.000393	20.683711
2105.583903	-3.000700	3.144900	-9.436000	27.263004	0.000391	20.671986
2106.589582	-3.013700	3.143800	-9.472700	27.279195	0.000391	20.694913
2107.582559	-2.975700	3.144400	-9.355700	27.284038	0.000392	20.691249
2108.584358	-2.997000	3.142300	-9.415800	27.306161	0.000391	20.673198
2109.584869	-2.987500	3.143800	-9.390400	27.341212	0.000389	20.696132
2110.583305	-3.018600	3.142600	-9.485500	27.352395	0.000391	20.699795
2111.585653	-2.990600	3.142500	-9.396100	27.362674	0.000387	20.679788
2112.585563	-2.993400	3.141400	-9.403000	27.358523	0.000387	20.696002
2113.586084	-3.008500	3.139600	-9.444300	27.379701	0.000388	20.691228
2114.586019	-3.016600	3.138300	-9.465600	27.428419	0.000388	20.698513
2115.586546	-2.991800	3.138200	-9.387200	27.443549	0.000387	20.703778
2116.586171	-3.042700	3.136800	-9.543100	27.441039	0.000386	20.704572
2117.586621	-3.019700	3.136900	-9.470700	27.456316	0.000387	20.692440
2118.590835	-3.007900	3.135900	-9.431900	27.457308	0.000388	20.680634
2119.587409	-3.003100	3.136200	-9.416900	27.487991	0.000386	20.688745
2120.586780	-3.001400	3.135400	-9.409700	27.515049	0.000384	20.669499
2121.592617	-3.024500	3.133100	-9.475400	27.475486	0.000386	20.673792
2122.590465	-3.005800	3.133600	-9.418400	27.465460	0.000384	20.686939
2123.588700	-3.007600	3.132000	-9.418000	27.453628	0.000383	20.688787
2124.595022	-3.045100	3.131300	-9.533600	27.443529	0.000386	20.698067
2125.589064	-2.995600	3.132000	-9.381200	27.479047	0.000386	20.700136
2126.589136	-2.987000	3.132200	-9.354500	27.465306	0.000384	20.678723
2127.588767	-3.015100	3.129300	-9.434300	27.475926	0.000385	20.681347
2128.588242	-3.005900	3.130100	-9.407500	27.487450	0.000385	20.677768
2129.588953	-3.020900	3.127000	-9.445900	27.518408	0.000384	20.676198
2130.588031	-2.992500	3.128800	-9.362400	27.515158	0.000384	20.683360
2131.589478	-2.999700	3.127200	-9.379000	27.504765	0.000383	20.700407
2132.590179	-2.982400	3.127000	-9.325100	27.538072	0.000383	20.692191
2133.591562	-2.978900	3.125100	-9.307800	27.526119	0.000383	20.699132
2134.587863	-2.998900	3.124700	-9.370000	27.551567	0.000383	20.679690
2135.590609	-2.982300	3.124500	-9.317500	27.570662	0.000383	20.696058
2136.590498	-3.001200	3.124000	-9.374500	27.581923	0.000382	20.687948
2137.591594	-3.004800	3.121700	-9.378500	27.601170	0.000382	20.691193
2138.621333	-2.988300	3.122700	-9.329500	27.586261	0.000380	20.690891
2139.592273	-2.975900	3.121200	-9.287300	27.547870	0.000381	20.698731
2140.593976	-2.991500	3.121500	-9.337200	27.514679	0.000381	20.684302
2141.593126	-3.001800	3.118700	-9.360700	27.491594	0.000381	20.683360
2142.593479	-2.981400	3.118900	-9.296600	27.443619	0.000379	20.690571
2143.594313	-2.995000	3.118400	-9.338100	27.447641	0.000381	20.681815
2144.593188	-2.979400	3.118200	-9.288900	27.461229	0.000379	20.688847
2145.593953	-3.006400	3.115700	-9.365800	27.465421	0.000381	20.689746
2146.593540	-3.004800	3.115400	-9.360700	27.468323	0.000379	20.686026
2147.593199	-3.015500	3.113500	-9.387300	27.478691	0.000380	20.683181
2148.596168	-2.987300	3.115000	-9.304400	27.505676	0.000381	20.710807
2149.593791	-3.016500	3.111800	-9.386200	27.469241	0.000379	20.679363
2150.596910	-2.998600	3.111900	-9.329500	27.430343	0.000380	20.681481
2151.594350	-3.001800	3.110900	-9.337400	27.406581	0.000380	20.702623
2152.595875	-3.010300	3.110300	-9.361900	27.423273	0.000380	20.694759
2153.595499	-3.007600	3.109000	-9.350100	27.440778	0.000378	20.675383
2154.599034	-2.996800	3.108700	-9.315500	27.438428	0.000378	20.694832
2155.596064	-3.002300	3.106800	-9.327100	27.456509	0.000376	20.688366
2156.595843	-3.016900	3.105600	-9.368500	27.425109	0.000379	20.689493
2157.599368	-2.987400	3.107400	-9.281400	27.404096	0.000379	20.676412
2158.597213	-2.978100	3.106500	-9.249900	27.353527	0.000377	20.689553
2159.597207	-3.009000	3.104300	-9.339900	27.311130	0.000377	20.709968
2160.605001	-2.954800	3.105000	-9.174000	27.342581	0.000378	20.704622
2161.597641	-3.006700	3.103200	-9.329600	27.350975	0.000378	20.697418
2162.600226	-2.998200	3.103000	-9.302800	27.337257	0.000378	20.694049
2163.598324	-2.999200	3.100800	-9.299000	27.406494	0.000376	20.707751
2164.602327	-3.013800	3.098300	-9.337300	27.391429	0.000375	20.684059
2165.597758	-3.007800	3.099400	-9.321200	27.416734	0.000379	20.682963
2166.598995	-2.980800	3.099800	-9.238300	27.417774	0.000378	20.692546
2167.600780	-2.976600	3.098600	-9.222200	27.423179	0.000375	20.708890
2168.597811	-3.016800	3.096500	-9.340900	27.476265	0.000375	20.711563
2169.597235	-3.015700	3.095700	-9.334000	27.495986	0.000377	20.693470
2170.600475	-2.999100	3.093500	-9.275800	27.474080	0.000374	20.709364
2171.598471	-3.008500	3.093400	-9.305600	27.432549	0.000377	20.705514
2172.600124	-2.985300	3.093900	-9.235200	27.442625	0.000376	20.716125
2173.603556	-2.978900	3.092200	-9.210000	27.453367	0.000375	20.724088
2174.598978	-2.979800	3.092200	-9.213200	27.474177	0.000375	20.713730
2175.598768	-3.000200	3.089500	-9.268100	27.534647	0.000375	20.686848
2176.599854	-2.992700	3.091600	-9.251200	27.548907	0.000373	20.694084
2177.604599	-3.005600	3.087800	-9.280000	27.565628	0.000372	20.710909
2178.605153	-2.967300	3.087900	-9.162200	27.608438	0.000373	20.723639
2179.602334	-2.986100	3.089100	-9.222800	27.627084	0.000374	20.705416
2180.604447	-2.979500	3.087400	-9.198100	27.641992	0.000373	20.698131
2181.604598	-3.016300	3.084700	-9.303300	27.675521	0.000376	20.717172
2182.603281	-2.992600	3.085100	-9.231500	27.651158	0.000372	20.717313
2183.602279	-2.984800	3.085000	-9.206400	27.576467	0.000375	20.709487
2184.606694	-3.003300	3.082200	-9.255000	27.525271	0.000374	20.697804
2185.602392	-3.018300	3.081600	-9.300200	27.491786	0.000373	20.710109
2186.601839	-3.002700	3.082000	-9.253200	27.512449	0.000375	20.716199
2187.606836	-2.996000	3.080700	-9.229000	27.489918	0.000376	20.711549
2188.603636	-2.994600	3.079500	-9.220500	27.473504	0.000372	20.710207
2189.605142	-2.993300	3.078000	-9.212000	27.464598	0.000374	20.705040
2190.607219	-2.988400	3.077500	-9.195300	27.494135	0.000373	20.706308
2191.607124	-3.016100	3.076100	-9.276400	27.506609	0.000372	20.724074
2192.603862	-3.007400	3.074900	-9.246600	27.538557	0.000373	20.714966
2193.603171	-2.985300	3.073800	-9.175700	27.547780	0.000373	20.700537
2194.606839	-3.003000	3.072500	-9.225200	27.520269	0.000371	20.713161
2195.603548	-3.004000	3.070700	-9.224000	27.481949	0.000372	20.734352
2196.606667	-3.013300	3.070400	-9.251100	27.457686	0.000371	20.725114
2197.603360	-2.980500	3.069800	-9.148300	27.427522	0.000372	20.722743
2198.605940	-2.992300	3.071500	-9.189600	27.427278	0.000372	20.696891
2199.606583	-3.008900	3.067800	-9.229000	27.432560	0.000373	20.728286
2200.605502	-2.964100	3.069300	-9.097300	27.390735	0.000372	20.723667
2201.605343	-2.987600	3.068200	-9.165500	27.374979	0.000371	20.717773
2202.607056	-3.031200	3.063800	-9.285400	27.344690	0.000371	20.718124
2203.607579	-3.015200	3.064300	-9.238400	27.345333	0.000370	20.730151
2204.608166	-2.997300	3.063600	-9.180200	27.340019	0.000372	20.719589
2205.607706	-3.003400	3.061800	-9.194600	27.384276	0.000371	20.734240
2206.611362	-2.974200	3.061600	-9.105000	27.408111	0.000370	20.726923
2207.610246	-3.008400	3.058700	-9.200400	27.429540	0.000372	20.727145
2208.608678	-2.988600	3.060000	-9.143900	27.413858	0.000373	20.715634
2209.614954	-3.013800	3.058400	-9.216000	27.403391	0.000372	20.722174
2210.608345	-3.014800	3.057000	-9.215200	27.380314	0.000371	20.720770
2211.611040	-3.016000	3.055800	-9.215400	27.415069	0.000370	20.718750
2212.616169	-3.002200	3.055000	-9.171800	27.455448	0.000371	20.735666
2213.613204	-2.993000	3.053200	-9.136900	27.522762	0.000369	20.716144
2214.611519	-2.995200	3.052600	-9.141600	27.552053	0.000369	20.718589
2215.617700	-2.980200	3.053400	-9.098500	27.582318	0.000369	20.720116
2216.612255	-3.006700	3.051400	-9.173700	27.655651	0.000369	20.722782
2217.610103	-3.004400	3.050400	-9.163500	27.661006	0.000370	20.726748
2218.611042	-3.014200	3.049700	-9.191000	27.637298	0.000372	20.704788
2219.611154	-2.994500	3.047600	-9.123800	27.626000	0.000371	20.739888
2220.612549	-2.986600	3.045800	-9.094500	27.618450	0.000370	20.742248
2221.612452	-2.993600	3.046200	-9.117700	27.631784	0.000370	20.722473
2222.612269	-3.014600	3.043200	-9.172400	27.665086	0.000368	20.721371
2223.612973	-3.010900	3.044100	-9.164100	27.712084	0.000372	20.747328
2224.612577	-3.011700	3.042400	-9.162100	27.724457	0.000369	20.744605
2225.613578	-3.018400	3.041500	-9.178500	27.719151	0.000370	20.720299
2226.613070	-2.998200	3.041400	-9.118300	27.761526	0.000368	20.743977
2227.612450	-2.998400	3.039300	-9.112400	27.808934	0.000370	20.752807
2228.616268	-3.021400	3.038300	-9.178900	27.829120	0.000369	20.729499
2229.616777	-3.001400	3.037200	-9.114500	27.865672	0.000370	20.736415
2230.613395	-3.033800	3.034400	-9.204800	27.882136	0.000369	20.730700
2231.616398	-3.012900	3.034000	-9.139200	27.896441	0.000370	20.746046
2232.615178	-2.992000	3.035000	-9.079400	27.875510	0.000368	20.750584
2233.614407	-3.009100	3.031900	-9.122500	27.853318	0.000370	20.725403
2234.616433	-3.019100	3.030800	-9.149400	27.809625	0.000369	20.758244
2235.613946	-2.986600	3.031800	-9.053600	27.783712	0.000369	20.750658
2236.616295	-2.993400	3.029500	-9.067600	27.810519	0.000369	20.761988
2237.618414	-2.999200	3.029100	-9.084200	27.794444	0.000372	20.744862
2238.617778	-2.989500	3.028200	-9.051900	27.818074	0.000368	20.734504
2239.617455	-3.001700	3.026400	-9.083700	27.810480	0.000372	20.754363
2240.619431	-2.989300	3.026100	-9.044900	27.768010	0.000369	20.733907
2241.622202	-3.009200	3.022700	-9.094800	27.742236	0.000370	20.745428
2242.623656	-3.008100	3.023000	-9.092000	27.777996	0.000368	20.751069
2243.624824	-3.021000	3.021100	-9.126300	27.822105	0.000367	20.749941
2244.621045	-3.015200	3.019300	-9.102900	27.849675	0.000369	20.758248
2245.624068	-2.981300	3.020600	-9.003500	27.864402	0.000369	20.758845
2246.620128	-2.992400	3.018100	-9.030100	27.874167	0.000368	20.738800
2247.620502	-3.000800	3.017500	-9.054300	27.888698	0.000370	20.748684
2248.622728	-3.019900	3.014500	-9.102000	27.896773	0.000367	20.752070
2249.620055	-3.002900	3.014200	-9.050600	27.882364	0.000368	20.744206
2250.620807	-2.989500	3.013700	-9.008500	27.901844	0.000369	20.759545
2251.624609	-2.956800	3.014100	-8.910800	27.841988	0.000369	20.757624
2252.622960	-2.997100	3.010400	-9.021600	27.812844	0.000368	20.750578
2253.623159	-3.002700	3.010300	-9.037100	27.796532	0.000369	20.746489
2254.623751	-2.954900	3.010000	-8.892700	27.769230	0.000368	20.762636
2255.624171	-3.024600	3.006900	-9.093400	27.777030	0.000368	20.742510
2256.624923	-2.990200	3.007500	-8.992100	27.811588	0.000368	20.781083
2257.623230	-3.012000	3.005000	-9.050400	27.855159	0.000369	20.765190
2258.625247	-2.983000	3.005500	-8.965100	27.882599	0.000369	20.759142
2259.624886	-2.990500	3.003600	-8.981700	27.900372	0.000367	20.758064
2260.624797	-3.003300	3.002200	-9.015100	27.914327	0.000367	20.765471
2261.626326	-2.975400	3.001500	-8.930100	27.952650	0.000369	20.774646
2262.627171	-3.006600	3.000100	-9.019300	27.974668	0.000366	20.781635
2263.626447	-2.997700	2.997400	-8.984300	27.982400	0.000368	20.754330
2264.626883	-3.001900	2.997000	-8.995700	27.964273	0.000367	20.765482
2265.628977	-2.993400	2.995800	-8.966600	27.944854	0.000370	20.771541
2266.631025	-3.018300	2.994500	-9.036400	27.914625	0.000367	20.777625
2267.631467	-3.018000	2.992400	-9.030400	27.890121	0.000369	20.770980
2268.628522	-3.006300	2.991000	-8.990400	27.872641	0.000367	20.787526
2269.632308	-2.996300	2.990200	-8.958500	27.917071	0.000367	20.774397
2270.630928	-2.987300	2.990600	-8.932400	27.916447	0.000369	20.774717
2271.630458	-2.977800	2.989000	-8.899800	27.943721	0.000368	20.788418
2272.632592	-3.007500	2.986900	-8.982300	27.956604	0.000365	20.782420
2273.631425	-2.986900	2.985600	-8.915700	27.961493	0.000366	20.774064
2274.632767	-2.987900	2.984500	-8.916400	27.976065	0.000366	20.775455
2275.632985	-2.988600	2.984500	-8.918600	27.990961	0.000366	20.773853
2276.632465	-3.014400	2.980800	-8.983100	27.969536	0.000366	20.776470
2277.631993	-3.009800	2.980600	-8.969300	27.941045	0.000366	20.780509
2278.634547	-3.014200	2.980200	-8.982200	27.855127	0.000366	20.778908
2279.634199	-3.015400	2.978100	-8.979100	27.879300	0.000364	20.792332
2280.637962	-2.996200	2.976900	-8.918900	27.865436	0.000365	20.782171
2281.634177	-3.009900	2.975500	-8.954600	27.885816	0.000365	20.787510
2282.634428	-2.994200	2.973000	-8.900200	27.895727	0.000365	20.775674
2283.639670	-3.019400	2.971800	-8.971800	27.881349	0.000364	20.802455
2284.635153	-2.980300	2.971300	-8.854300	27.867362	0.000364	20.774153
2285.636901	-2.994300	2.970200	-8.892600	27.909786	0.000364	20.784609
2286.638683	-2.978000	2.970000	-8.843600	27.889407	0.000366	20.785908
2287.638546	-2.985400	2.967300	-8.857200	27.898700	0.000365	20.804271
2288.636305	-2.987000	2.966500	-8.860000	27.913151	0.000363	20.805065
2289.637771	-3.016300	2.963800	-8.938900	27.887142	0.000364	20.791216
2290.637307	-2.979800	2.964200	-8.832000	27.858080	0.000363	20.790889
2291.639638	-2.994900	2.962600	-8.872300	27.854862	0.000363	20.785280
2292.638744	-2.998000	2.960600	-8.874800	27.839315	0.000363	20.788125
2293.637744	-2.995100	2.959000	-8.861100	27.850273	0.000364	20.811955
2294.638958	-3.026400	2.957100	-8.947900	27.908691	0.000363	20.794886
2295.639214	-2.979400	2.956400	-8.807400	27.949278	0.000364	20.800175
2296.639394	-3.004500	2.954700	-8.876300	27.935721	0.000364	20.798858
2297.640355	-2.981200	2.955300	-8.809000	27.969290	0.000364	20.815576
2298.641021	-2.969400	2.954000	-8.771000	28.006332	0.000363	20.788852
2299.640802	-3.018700	2.949400	-8.902300	27.977524	0.000363	20.812486
2300.642313	-3.031500	2.948200	-8.936000	27.937507	0.000363	20.795441
2301.639796	-2.976900	2.948300	-8.776300	27.898113	0.000363	20.803680
2302.640332	-2.997700	2.946600	-8.832200	27.912051	0.000362	20.794949
2303.642787	-3.006900	2.945000	-8.854300	27.936799	0.000362	20.781451
2304.642530	-3.035500	2.942000	-8.929000	27.984670	0.000362	20.798816
2305.641622	-2.977200	2.941800	-8.756700	28.002155	0.000362	20.788915
2306.642358	-3.014400	2.940000	-8.861100	28.003122	0.000363	20.806483
2307.643058	-2.986100	2.938700	-8.774100	27.996209	0.000362	20.808060
2308.642659	-3.001100	2.936200	-8.810500	28.014280	0.000364	20.803964
2309.644523	-3.029100	2.934900	-8.889500	28.075638	0.000364	20.807881
2310.647115	-3.021100	2.932900	-8.859300	28.081670	0.000362	20.810634
2311.644471	-2.984900	2.932400	-8.751800	28.089482	0.000363	20.813756
2312.644207	-3.012500	2.930700	-8.827700	28.095483	0.000361	20.810314
2313.645376	-2.995100	2.930000	-8.775200	28.117125	0.000361	20.807919
2314.643884	-2.970900	2.929500	-8.702300	28.077608	0.000363	20.802752
2315.645157	-2.984000	2.926900	-8.732800	28.045707	0.000362	20.802882
2316.647248	-2.995900	2.923800	-8.758500	28.014821	0.000363	20.789809
2317.645851	-2.976400	2.924000	-8.701600	28.064255	0.000363	20.811122
2318.645833	-2.990200	2.921400	-8.734500	28.053299	0.000362	20.825223
2319.648041	-2.993800	2.920300	-8.742500	28.056677	0.000362	20.807760
2320.646966	-3.005600	2.917600	-8.768500	28.091833	0.000362	20.801898
2321.647500	-2.959600	2.918300	-8.636200	28.127734	0.000363	20.837564
2322.646165	-2.992500	2.913400	-8.717700	28.109738	0.000362	20.823716
2323.651062	-3.013100	2.913300	-8.777000	28.094910	0.000362	20.804048
2324.650218	-3.001400	2.912400	-8.741100	28.070619	0.000363	20.821795
2325.649350	-2.994100	2.910900	-8.714700	28.041764	0.000363	20.820249
2326.650176	-2.950100	2.908700	-8.578900	28.068117	0.000361	20.814535
2327.658426	-3.016600	2.906100	-8.764800	28.067175	0.000362	20.822121
2328.650032	-2.982600	2.905500	-8.665100	28.038571	0.000362	20.827941
2329.652794	-3.025800	2.902200	-8.780600	28.013086	0.000362	20.824098
2330.650020	-2.969000	2.903000	-8.618400	28.027266	0.000362	20.809449
2331.649423	-2.966600	2.900400	-8.603100	28.044443	0.000364	20.817731
2332.650799	-2.976500	2.897700	-8.624000	28.067262	0.000363	20.797079
2333.653953	-3.006000	2.896700	-8.706800	28.046530	0.000361	20.818883
2334.656467	-3.001800	2.894500	-8.688400	28.071892	0.000364	20.823550
2335.651002	-2.975600	2.893000	-8.607900	28.081222	0.000363	20.811131
2336.652450	-3.017100	2.890000	-8.718300	28.096716	0.000362	20.809659
2337.652207	-3.004600	2.889200	-8.680300	28.116492	0.000364	20.819136
2338.653771	-2.976300	2.886900	-8.591000	28.128696	0.000364	20.818619
2339.653341	-3.010500	2.884700	-8.683700	28.134892	0.000362	20.819641
2340.653603	-3.013500	2.882100	-8.684100	28.088936	0.000363	20.823638
2341.652729	-2.991500	2.881500	-8.619100	28.076689	0.000363	20.829328
2342.659539	-2.982800	2.880900	-8.592400	28.064840	0.000364	20.808866
2343.654131	-3.001300	2.878100	-8.637000	28.073668	0.000364	20.831501
2344.654484	-2.985700	2.876900	-8.588400	28.067122	0.000363	20.822068
2345.654298	-2.982700	2.873500	-8.570100	28.055775	0.000362	20.825819
2346.654624	-3.004200	2.871200	-8.624300	28.078458	0.000362	20.836798
2347.653093	-2.997700	2.869300	-8.600800	28.048263	0.000362	20.832007
2348.654631	-3.024200	2.867100	-8.669900	28.027855	0.000362	20.818577
2349.655023	-2.975000	2.867600	-8.530500	28.013730	0.000361	20.825696
2350.653940	-3.009100	2.863700	-8.615400	27.996228	0.000361	20.845062
2351.654536	-2.995700	2.862600	-8.574300	28.004212	0.000361	20.827020
2352.660491	-2.995400	2.859100	-8.562500	28.021560	0.000362	20.842112
2353.654757	-3.026600	2.857400	-8.647100	28.029422	0.000360	20.853817
2354.654214	-3.018300	2.855000	-8.616100	28.031759	0.000360	20.843843
2355.655337	-3.001900	2.853600	-8.566000	28.036958	0.000360	20.837223
2356.655450	-2.981800	2.853200	-8.506500	28.003227	0.000363	20.832667
2357.656722	-3.014400	2.850200	-8.591100	28.011609	0.000363	20.847741
2358.657014	-3.045300	2.845400	-8.664100	28.054522	0.000361	20.848738
2359.656884	-3.031500	2.844500	-8.621400	28.099074	0.000363	20.828628
2360.659802	-3.019500	2.842400	-8.582500	28.156236	0.000361	20.832119
2361.656414	-3.013300	2.840800	-8.559100	28.191828	0.000362	20.854674
2362.658698	-2.994200	2.839100	-8.499700	28.167993	0.000360	20.842532
2363.656533	-3.023400	2.836700	-8.575000	28.157252	0.000362	20.857796
2364.657135	-2.987700	2.834900	-8.469200	28.144273	0.000363	20.844731
2365.668534	-3.002100	2.831400	-8.499700	28.139654	0.000361	20.842926
2366.659102	-2.999600	2.830000	-8.487600	28.089134	0.000361	20.838536
2367.655510	-2.993000	2.827300	-8.460100	28.099245	0.000365	20.843024
2368.661313	-2.994300	2.826900	-8.462900	28.113382	0.000361	20.842083
2369.657207	-3.000400	2.823300	-8.469500	28.099399	0.000361	20.852661
2370.657880	-2.997700	2.822500	-8.459400	28.092853	0.000360	20.834693
2371.661614	-3.035400	2.818100	-8.553200	28.147636	0.000361	20.846220
2372.660129	-3.000700	2.817200	-8.452000	28.134828	0.000360	20.832379
2373.660630	-2.947000	2.815900	-8.297700	28.128001	0.000361	20.819816
2374.658983	-3.004100	2.811900	-8.446700	28.158567	0.000359	20.829250
2375.659540	-2.982700	2.809500	-8.379000	28.140345	0.000360	20.820863
2376.658650	-2.983600	2.806900	-8.373300	28.173614	0.000360	20.833018
2377.657723	-2.981600	2.805600	-8.364300	28.199915	0.000362	20.843375
2378.659149	-2.988600	2.801600	-8.371200	28.244705	0.000360	20.832519
2379.658881	-3.001400	2.800800	-8.404100	28.265280	0.000359	20.823837
2380.657596	-3.007900	2.796700	-8.411000	28.321320	0.000361	20.833320
2381.658776	-2.999300	2.793800	-8.378200	28.330763	0.000360	20.822440
2382.658407	-3.005200	2.792800	-8.391100	28.345305	0.000362	20.833763
2383.658968	-2.995200	2.787800	-8.348800	28.387717	0.000361	20.837113
2384.658439	-3.028500	2.785200	-8.433500	28.392768	0.000361	20.820863
2385.659257	-3.014800	2.783800	-8.391800	28.404993	0.000359	20.826535
2386.657771	-2.975400	2.782100	-8.275100	28.404895	0.000362	20.822169
2387.657996	-3.011100	2.777400	-8.361700	28.386758	0.000360	20.825716
2388.659872	-2.994900	2.774100	-8.307000	28.342420	0.000360	20.797668
2389.658216	-2.997700	2.772100	-8.308500	28.330421	0.000360	20.826837
2390.658425	-3.005200	2.768200	-8.317600	28.330306	0.000358	20.799220
2391.660477	-3.008100	2.767300	-8.323600	28.352567	0.000362	20.802669
2392.660068	-3.010400	2.762900	-8.316500	28.328404	0.000360	20.816746
2393.660057	-3.015500	2.759600	-8.320500	28.303446	0.000358	20.807737
2394.664269	-3.022200	2.755000	-8.324600	28.268255	0.000359	20.790323
2395.659047	-3.011600	2.754500	-8.294700	28.284322	0.000361	20.798440
2396.660467	-2.991100	2.751200	-8.228100	28.335604	0.000361	20.811667
2397.660147	-2.965600	2.748300	-8.149800	28.383960	0.000360	20.802985
2398.660916	-3.010400	2.743900	-8.259200	28.392393	0.000360	20.809106
2399.661032	-3.004400	2.741900	-8.236400	28.441640	0.000360	20.804642
2400.659966	-3.029000	2.737400	-8.291300	28.431476	0.000361	20.819537
2401.659914	-3.014300	2.734300	-8.241400	28.359285	0.000360	20.814648
2402.659151	-2.985500	2.733100	-8.158600	28.308384	0.000363	20.786157
2403.659988	-3.006600	2.728000	-8.200800	28.322910	0.000361	20.814058
2404.663514	-3.027700	2.723100	-8.244100	28.318580	0.000359	20.808277
2405.663696	-3.015100	2.721700	-8.204500	28.368472	0.000361	20.799718
2406.662183	-2.981200	2.718200	-8.102400	28.389442	0.000360	20.814195
2407.668645	-3.034300	2.713100	-8.231200	28.407684	0.000361	20.799373
2408.663602	-2.977300	2.712000	-8.073700	28.405686	0.000361	20.794990
2409.663296	-3.031300	2.707900	-8.206700	28.393143	0.000360	20.807016
2410.666584	-3.007100	2.704400	-8.131700	28.432623	0.000362	20.783708
2411.664625	-3.004200	2.700500	-8.111900	28.437834	0.000361	20.797965
2412.663844	-2.996200	2.697200	-8.081000	28.434140	0.000361	20.793297
2413.666730	-2.998500	2.692000	-8.070800	28.473081	0.000360	20.788415
2414.666585	-3.008600	2.688300	-8.087600	28.494496	0.000360	20.786272
2415.666765	-2.991800	2.684100	-8.029300	28.470936	0.000362	20.772504
2416.664818	-2.997400	2.680700	-8.034000	28.497579	0.000361	20.786058
2417.666903	-2.983300	2.677300	-7.987000	28.504917	0.000362	20.801508
2418.665862	-2.999200	2.673100	-8.016000	28.510298	0.000361	20.788910
2419.665203	-2.991400	2.668600	-7.982400	28.510842	0.000360	20.778078
2420.666959	-3.002800	2.664300	-8.000000	28.537417	0.000359	20.783504
2421.667559	-2.995400	2.660700	-7.968400	28.531517	0.000363	20.763810
2422.665146	-3.001800	2.656100	-7.972600	28.519306	0.000361	20.790869
2423.667902	-3.006900	2.651200	-7.971200	28.536776	0.000361	20.788548
2424.667139	-3.000600	2.647600	-7.943900	28.557028	0.000360	20.759156
2425.667945	-2.999100	2.643700	-7.926400	28.553561	0.000361	20.797865
2426.667777	-3.022500	2.639100	-7.975900	28.562831	0.000360	20.781122
2427.671512	-3.064800	2.632300	-8.066200	28.528412	0.000360	20.788186
2428.669194	-2.982000	2.630900	-7.844300	28.558032	0.000361	20.769177
2429.669031	-2.984300	2.625700	-7.834500	28.579040	0.000362	20.786542
2430.674036	-3.001600	2.620800	-7.865400	28.569007	0.000361	20.776911
2431.671164	-2.977400	2.616600	-7.789500	28.584739	0.000362	20.787539
2432.669843	-3.035800	2.608400	-7.917100	28.609893	0.000363	20.782527
2433.671196	-2.981700	2.607100	-7.771800	28.638610	0.000362	20.776837
2434.670288	-3.011000	2.599200	-7.825500	28.655045	0.000360	20.770631
2435.669724	-3.026300	2.594700	-7.850200	28.673918	0.000361	20.763087
2436.669818	-2.999000	2.590900	-7.769000	28.674089	0.000361	20.774639
2437.678782	-2.992200	2.585400	-7.735100	28.698128	0.000361	20.771825
2438.670883	-2.978600	2.580200	-7.684400	28.739131	0.000361	20.772823
2439.670588	-2.977800	2.575300	-7.667400	28.753326	0.000360	20.784276
2440.671036	-2.983400	2.570100	-7.667000	28.780060	0.000360	20.770427
2441.671246	-2.965100	2.563800	-7.601100	28.768316	0.000362	20.772349
2442.670619	-2.998700	2.556700	-7.665500	28.753424	0.000360	20.776314
2443.672724	-3.012100	2.551900	-7.686200	28.749017	0.000361	20.748640
2444.671172	-3.027800	2.545500	-7.705800	28.793832	0.000361	20.752532
2445.670251	-3.005600	2.540000	-7.632800	28.807758	0.000360	20.766086
2446.671982	-2.991500	2.534700	-7.580300	28.823266	0.000362	20.762742
2447.671322	-2.987800	2.528900	-7.555000	28.829134	0.000362	20.772921
2448.669768	-3.017000	2.522700	-7.609000	28.812514	0.000360	20.751910
2449.671684	-2.992400	2.516600	-7.529500	28.830951	0.000363	20.754362
2450.673186	-2.991400	2.510700	-7.509900	28.848408	0.000361	20.758672
2451.670792	-2.985700	2.504400	-7.476600	28.828339	0.000359	20.759792
2452.670571	-2.968300	2.498100	-7.414700	28.809794	0.000363	20.762921
