LabVIEW Measurement	
Writer_Version	2
Reader_Version	2
Separator	Tab
Decimal_Separator	.
Multi_Headings	No
X_Columns	One
Time_Pref	Absolute
Operator	admin
Description	Clolumns are: time, Current, Voltage, Power, Battery Temp, and Chamber Temp
Date	2024/08/16
Time	13:06:06.104549407958984375
***End_of_Header***	
	
Channels	6						
Samples	1	1	1	1	1	1	
Date	2024/09/20	2024/09/20	2024/09/20	2024/09/20	2024/09/20	2024/09/20	
Time	03:16:01.98429107666015625	03:16:01.9920487403869628907	03:16:01.9990239143371582032	03:16:01.9674358367919921875	03:16:01.9674358367919921875	03:16:01.9674358367919921875	
X_Dimension	Time	Time	Time	Time	Time	Time	
X0	0.0000000000000000E+0	0.0000000000000000E+0	0.0000000000000000E+0	0.0000000000000000E+0	0.0000000000000000E+0	0.0000000000000000E+0	
Delta_X	1.000000	1.000000	1.000000	1.000000	1.000000	1.000000	
***End_of_Header***							
X_Value	Untitled	Untitled 1	Untitled 2	Untitled 3	Untitled 4	Untitled 5	Comment
0.000000	0.021552	4.089800	0.088071	21.033618	0.001043	20.771435
1.002954	-3.000700	3.901900	-11.706000	21.022015	0.001042	20.790176
2.004131	-2.987300	3.896100	-11.638000	21.008467	0.001042	20.759081
2.998821	-2.994700	3.889900	-11.648000	21.016501	0.001034	20.766643
4.002360	-3.022900	3.885900	-11.745000	21.030075	0.001039	20.763149
5.002338	-2.994600	3.883100	-11.627000	21.039656	0.001038	20.756611
6.001990	-3.011900	3.878500	-11.680000	21.018747	0.001037	20.764147
7.009079	-3.020500	3.874300	-11.701000	21.034965	0.001035	20.761402
8.001642	-3.007300	3.873700	-11.648000	21.038807	0.001034	20.759555
9.006964	-2.982000	3.874500	-11.553000	21.034765	0.001035	20.765470
10.003001	-3.001200	3.869100	-11.611000	21.036188	0.001032	20.747452
11.005170	-2.991800	3.867800	-11.570000	21.053453	0.001032	20.751445
12.004422	-2.993600	3.866100	-11.573000	21.041951	0.001033	20.759381
13.008741	-3.006300	3.863700	-11.614000	21.064157	0.001031	20.751719
14.009399	-2.968100	3.863400	-11.466000	21.059740	0.001032	20.762475
15.002637	-2.989300	3.861700	-11.543000	21.063957	0.001030	20.749149
16.004205	-3.003100	3.859000	-11.588000	21.084690	0.001030	20.732902
17.009994	-3.010500	3.859400	-11.618000	21.059790	0.001030	20.735498
18.004803	-2.993800	3.859500	-11.553000	21.073388	0.001026	20.761901
19.004168	-2.982700	3.858200	-11.506000	21.075783	0.001030	20.740115
20.005589	-2.998300	3.856800	-11.563000	21.097813	0.001028	20.746503
21.005200	-2.998700	3.855500	-11.560000	21.106495	0.001024	20.762301
22.005441	-2.982700	3.855800	-11.499000	21.083343	0.001027	20.757160
23.009481	-3.005000	3.853400	-11.577000	21.111485	0.001025	20.755438
24.007317	-2.997900	3.854100	-11.553000	21.101082	0.001024	20.728909
25.006711	-3.005300	3.852400	-11.577000	21.113431	0.001025	20.743159
26.012811	-3.017200	3.852300	-11.622000	21.108442	0.001026	20.734375
27.006863	-3.016100	3.850300	-11.610000	21.131843	0.001024	20.753516
28.009564	-2.988400	3.850900	-11.507000	21.134363	0.001027	20.744182
29.008890	-3.010000	3.849300	-11.586000	21.118421	0.001024	20.739142
30.012136	-3.008700	3.848600	-11.579000	21.162055	0.001021	20.729683
31.011992	-2.998700	3.848100	-11.536000	21.168068	0.001022	20.740439
32.013655	-3.007000	3.846400	-11.565000	21.171161	0.001022	20.739266
33.016751	-2.989400	3.847800	-11.501000	21.178521	0.001022	20.729558
34.013565	-3.003900	3.845500	-11.550000	21.193963	0.001023	20.725091
35.018239	-3.017400	3.845500	-11.602000	21.182113	0.001023	20.740739
36.012279	-2.983800	3.846900	-11.477000	21.205613	0.001023	20.733426
37.012619	-3.016900	3.842600	-11.591000	21.201048	0.001023	20.733127
38.010962	-2.993800	3.843000	-11.503000	21.207460	0.001021	20.731954
39.015984	-2.995400	3.843700	-11.512000	21.206836	0.001023	20.724692
40.013959	-3.004900	3.843900	-11.549000	21.229263	0.001020	20.721996
41.018096	-3.004300	3.842200	-11.541000	21.226494	0.001020	20.733452
42.012873	-2.983600	3.841900	-11.461000	21.225072	0.001021	20.734400
43.011169	-3.007800	3.841700	-11.554000	21.254957	0.001020	20.711190
44.020571	-2.973600	3.841600	-11.421000	21.244131	0.001021	20.743036
45.012723	-2.991200	3.841000	-11.487000	21.255456	0.001020	20.724967
46.012359	-2.988000	3.839900	-11.472000	21.269525	0.001022	20.745207
47.013506	-3.013400	3.839700	-11.569000	21.271421	0.001019	20.730033
48.012894	-2.991700	3.841200	-11.491000	21.279479	0.001022	20.730033
49.011160	-3.011200	3.839600	-11.561000	21.272619	0.001023	20.727912
50.018589	-3.010900	3.837800	-11.554000	21.305646	0.001019	20.730608
51.012255	-2.988000	3.837500	-11.465000	21.295868	0.001022	20.712289
52.013117	-3.014700	3.838100	-11.570000	21.299834	0.001024	20.734750
53.013278	-3.005400	3.837400	-11.532000	21.309463	0.001019	20.724942
54.012076	-2.988500	3.837100	-11.465000	21.322110	0.001021	20.706774
55.026820	-3.003800	3.836600	-11.523000	21.322584	0.001018	20.722896
56.014313	-2.981400	3.834800	-11.432000	21.332985	0.001021	20.732828
57.015973	-2.987600	3.835600	-11.458000	21.339196	0.001021	20.724344
58.014319	-2.993200	3.836200	-11.481000	21.355485	0.001020	20.712190
59.014265	-3.012200	3.835000	-11.550000	21.368305	0.001020	20.721224
60.013134	-2.997900	3.834200	-11.493000	21.359450	0.001021	20.711416
61.015600	-3.017700	3.833200	-11.566000	21.383196	0.001021	20.727114
62.015441	-2.995000	3.835300	-11.486000	21.393223	0.001022	20.724344
63.014382	-3.019000	3.833200	-11.571000	21.408737	0.001019	20.716158
64.030978	-2.992000	3.833500	-11.469000	21.404572	0.001023	20.731905
65.016415	-2.998300	3.832200	-11.489000	21.380727	0.001023	20.727488
66.016338	-2.988900	3.831300	-11.449000	21.408887	0.001022	20.721049
67.025654	-3.016200	3.832800	-11.560000	21.412579	0.001022	20.709569
68.025256	-2.998900	3.832100	-11.491000	21.403200	0.001023	20.706824
69.015226	-2.987700	3.831500	-11.446000	21.412579	0.001021	20.713362
70.023281	-3.007200	3.829900	-11.516000	21.418839	0.001019	20.733378
71.029738	-3.008600	3.830400	-11.523000	21.429614	0.001024	20.728511
72.020186	-2.996200	3.831200	-11.478000	21.433929	0.001024	20.720974
73.026264	-2.999600	3.830100	-11.488000	21.440663	0.001023	20.718703
74.020408	-3.009000	3.829600	-11.522000	21.447522	0.001022	20.723670
75.025734	-2.994100	3.830300	-11.467000	21.476104	0.001022	20.735200
76.029118	-2.998300	3.829300	-11.481000	21.491767	0.001022	20.735699
77.027583	-3.016000	3.827200	-11.541000	21.481841	0.001022	20.698737
78.026558	-3.020700	3.827300	-11.560000	21.493388	0.001020	20.715508
79.026670	-3.004800	3.827500	-11.498000	21.522443	0.001021	20.742212
80.022458	-2.994900	3.827400	-11.462000	21.529975	0.001024	20.719876
81.023619	-3.010200	3.826500	-11.516000	21.532220	0.001022	20.727812
82.029446	-2.990600	3.826700	-11.443000	21.551447	0.001021	20.726190
83.021152	-3.013500	3.825600	-11.528000	21.542195	0.001021	20.700808
84.031229	-2.984100	3.827400	-11.419000	21.540150	0.001024	20.716781
85.024835	-2.996100	3.825800	-11.462000	21.589105	0.001025	20.727363
86.023887	-2.998300	3.826100	-11.470000	21.580202	0.001022	20.710866
87.027207	-2.974200	3.825400	-11.376000	21.569154	0.001022	20.714984
88.025205	-2.985200	3.825600	-11.419000	21.590975	0.001025	20.731605
89.020715	-2.979900	3.824800	-11.397000	21.623195	0.001023	20.725915
90.030440	-2.991100	3.825300	-11.440000	21.614692	0.001024	20.723569
91.023376	-2.998000	3.824100	-11.463000	21.622572	0.001023	20.739042
92.029287	-2.973700	3.824400	-11.371000	21.633071	0.001027	20.730582
93.026516	-3.003400	3.822700	-11.481000	21.659479	0.001024	20.710542
94.023637	-2.990500	3.824400	-11.436000	21.676461	0.001023	20.716157
95.022643	-2.971300	3.824500	-11.362000	21.639081	0.001025	20.716681
96.024498	-3.020900	3.822100	-11.545000	21.670726	0.001025	20.714685
97.033499	-2.993700	3.823700	-11.446000	21.695637	0.001025	20.737246
98.029278	-3.003600	3.821800	-11.478000	21.670202	0.001026	20.721748
99.026163	-3.004300	3.820500	-11.477000	21.711970	0.001027	20.732729
100.027688	-3.026600	3.820600	-11.562000	21.701846	0.001027	20.716432
101.024725	-2.990200	3.821400	-11.425000	21.708479	0.001026	20.728287
102.030248	-3.002100	3.821000	-11.467000	21.718154	0.001029	20.728960
103.023253	-2.980100	3.822200	-11.389000	21.713716	0.001025	20.722147
104.023066	-2.987400	3.821100	-11.413000	21.723864	0.001026	20.720924
105.026054	-2.984100	3.820900	-11.401000	21.722219	0.001029	20.713113
106.033411	-2.996600	3.820700	-11.448000	21.720798	0.001027	20.714061
107.023824	-2.996500	3.820600	-11.447000	21.744087	0.001029	20.723620
108.025594	-2.996600	3.820700	-11.448000	21.769047	0.001027	20.728686
109.024859	-3.008700	3.818500	-11.488000	21.780018	0.001029	20.715484
110.028025	-3.021700	3.816700	-11.533000	21.779070	0.001029	20.719277
111.024800	-2.987000	3.819500	-11.408000	21.795627	0.001030	20.712614
112.024464	-2.994400	3.819700	-11.437000	21.776976	0.001029	20.736148
113.029825	-2.971600	3.818900	-11.348000	21.789318	0.001029	20.720525
114.025888	-3.017700	3.817700	-11.520000	21.797197	0.001030	20.704702
115.028382	-3.018500	3.817500	-11.522000	21.802782	0.001031	20.736847
116.027436	-3.019000	3.817000	-11.522000	21.816620	0.001026	20.726040
117.032972	-3.006500	3.815800	-11.470000	21.820535	0.001031	20.721897
118.035437	-3.004700	3.816500	-11.466000	21.837889	0.001028	20.721723
119.030472	-2.978400	3.815900	-11.365000	21.846290	0.001031	20.738668
120.028566	-2.999900	3.817600	-11.452000	21.873642	0.001032	20.715783
121.026240	-3.000300	3.814500	-11.442000	21.851875	0.001031	20.742362
122.030594	-3.004700	3.815600	-11.463000	21.862098	0.001032	20.738843
123.031890	-2.989800	3.816900	-11.411000	21.890122	0.001034	20.744608
124.033676	-2.987600	3.816000	-11.399000	21.874888	0.001031	20.730782
125.031702	-2.998400	3.815000	-11.437000	21.889274	0.001034	20.743759
126.035944	-3.013700	3.815200	-11.497000	21.902761	0.001032	20.720275
127.032001	-2.985200	3.815500	-11.389000	21.906003	0.001034	20.729209
128.030506	-2.986500	3.813800	-11.387000	21.920712	0.001036	20.743459
129.035293	-3.006100	3.813600	-11.463000	21.929288	0.001033	20.752045
130.031701	-2.994300	3.815100	-11.422000	21.914055	0.001034	20.742486
131.031016	-3.013500	3.812200	-11.486000	21.935172	0.001037	20.737070
132.035383	-3.004600	3.813600	-11.458000	21.923055	0.001035	20.739641
133.047206	-3.009400	3.812700	-11.472000	21.945543	0.001036	20.710466
134.029465	-2.997800	3.812400	-11.427000	21.941354	0.001036	20.754639
135.039897	-2.975400	3.813700	-11.346000	21.940033	0.001036	20.753791
136.034386	-3.001900	3.812800	-11.444000	21.945842	0.001036	20.744432
137.034304	-3.028500	3.812700	-11.545000	21.960850	0.001038	20.735273
138.034068	-3.009700	3.813100	-11.474000	21.965113	0.001038	20.749972
139.033543	-3.010500	3.811500	-11.473000	21.963542	0.001041	20.731804
140.030920	-2.987700	3.812300	-11.389000	21.966883	0.001038	20.741312
141.032141	-3.023400	3.809800	-11.517000	21.994405	0.001039	20.766019
142.035787	-3.011500	3.810100	-11.473000	21.957733	0.001038	20.735472
143.034931	-3.025000	3.810000	-11.523000	21.995053	0.001039	20.744856
144.041747	-3.000600	3.811200	-11.435000	21.991937	0.001039	20.748375
145.033364	-2.992300	3.811200	-11.403000	22.004825	0.001042	20.757010
146.034090	-2.979600	3.811500	-11.356000	22.018387	0.001040	20.737394
147.032738	-2.998400	3.810800	-11.425000	22.029854	0.001042	20.763573
148.036033	-3.002400	3.809700	-11.438000	22.044313	0.001040	20.739640
149.035403	-2.994400	3.809900	-11.408000	22.059918	0.001041	20.763798
150.037250	-2.982800	3.809800	-11.363000	22.079935	0.001044	20.742585
151.033659	-3.003600	3.808100	-11.437000	22.083724	0.001046	20.746853
152.032780	-2.991500	3.810300	-11.397000	22.087039	0.001044	20.759181
153.036004	-2.998400	3.808000	-11.417000	22.102220	0.001043	20.768689
154.036173	-3.013000	3.808600	-11.474000	22.111916	0.001045	20.753266
155.037148	-2.990200	3.809800	-11.392000	22.134251	0.001045	20.750022
156.038228	-2.976600	3.809100	-11.337000	22.125651	0.001045	20.771285
157.038422	-2.974700	3.808200	-11.327000	22.133279	0.001046	20.760903
158.035326	-3.013200	3.807200	-11.471000	22.131933	0.001046	20.746278
159.037014	-3.005300	3.807100	-11.440000	22.143174	0.001047	20.771759
160.035998	-2.980100	3.807400	-11.345000	22.138862	0.001048	20.791149
161.034296	-3.000700	3.806000	-11.420000	22.168325	0.001046	20.759480
162.036173	-2.994700	3.807200	-11.401000	22.178644	0.001049	20.780718
163.035666	-2.995400	3.806200	-11.400000	22.207757	0.001048	20.760079
164.035322	-3.000000	3.805500	-11.414000	22.201824	0.001049	20.767416
165.036491	-2.985800	3.805700	-11.361000	22.214436	0.001050	20.770087
166.038981	-2.994600	3.806200	-11.396000	22.201052	0.001051	20.768065
167.044659	-3.010100	3.805000	-11.452000	22.218275	0.001047	20.752118
168.039344	-2.996700	3.803600	-11.397000	22.236070	0.001049	20.776101
169.041571	-3.031200	3.803100	-11.526000	22.253567	0.001051	20.769438
170.041657	-2.995100	3.804400	-11.391000	22.252346	0.001051	20.785285
171.037659	-3.014700	3.803900	-11.467000	22.249006	0.001054	20.783363
172.044022	-2.992800	3.803800	-11.383000	22.250427	0.001052	20.791898
173.042187	-3.013400	3.802900	-11.458000	22.238314	0.001055	20.765070
174.041523	-3.006900	3.803100	-11.434000	22.239759	0.001053	20.774104
175.042434	-3.015200	3.802200	-11.463000	22.229216	0.001052	20.777299
176.041882	-2.996600	3.803200	-11.395000	22.243847	0.001053	20.749747
177.038789	-3.021100	3.802100	-11.486000	22.283375	0.001059	20.770835
178.043117	-3.023600	3.800900	-11.492000	22.287189	0.001056	20.778447
179.042451	-3.008200	3.803500	-11.439000	22.292049	0.001054	20.787106
180.038930	-3.014200	3.800000	-11.452000	22.301494	0.001056	20.782814
181.041690	-3.010800	3.800700	-11.442000	22.318192	0.001058	20.788154
182.042279	-3.007000	3.800400	-11.426000	22.329308	0.001058	20.771783
183.039148	-3.011500	3.801100	-11.446000	22.354279	0.001056	20.775452
184.039892	-3.009000	3.800300	-11.434000	22.387624	0.001058	20.762849
185.043024	-3.031000	3.800400	-11.518000	22.388272	0.001061	20.779145
186.046365	-3.000700	3.799900	-11.402000	22.373892	0.001062	20.772332
187.044627	-2.996500	3.800500	-11.386000	22.397891	0.001056	20.781665
188.046258	-2.990800	3.800000	-11.364000	22.403349	0.001061	20.787605
189.043534	-3.000800	3.799100	-11.399000	22.428917	0.001059	20.786182
190.044478	-3.007900	3.799200	-11.426000	22.415759	0.001062	20.781541
191.043833	-2.999000	3.799000	-11.392000	22.399885	0.001061	20.778920
192.041633	-3.003400	3.798200	-11.405000	22.429839	0.001062	20.786631
193.044063	-2.983200	3.799800	-11.334000	22.416681	0.001062	20.775826
194.045016	-3.025900	3.796800	-11.486000	22.433901	0.001064	20.784535
195.043190	-3.009500	3.798500	-11.430000	22.468065	0.001065	20.769911
196.046032	-2.995700	3.799000	-11.379000	22.458222	0.001063	20.790874
197.047010	-3.017700	3.797500	-11.458000	22.461362	0.001062	20.813933
198.045245	-2.989900	3.798000	-11.355000	22.466445	0.001064	20.794842
199.046744	-3.018800	3.795400	-11.457000	22.481372	0.001065	20.784660
200.042840	-3.002400	3.796000	-11.396000	22.483415	0.001066	20.788129
201.043472	-3.021700	3.796400	-11.470000	22.480126	0.001067	20.789102
202.048983	-3.016200	3.797000	-11.452000	22.481745	0.001066	20.791672
203.044066	-2.986000	3.797900	-11.340000	22.478157	0.001067	20.791398
204.044877	-2.991200	3.797000	-11.356000	22.497444	0.001064	20.794118
205.045328	-3.015500	3.794900	-11.443000	22.507686	0.001067	20.797262
206.045018	-2.980300	3.797500	-11.317000	22.525203	0.001069	20.792521
207.045094	-2.998700	3.795100	-11.380000	22.519621	0.001067	20.806845
208.044623	-3.025800	3.793600	-11.478000	22.558368	0.001071	20.808193
209.045211	-2.997100	3.794700	-11.372000	22.563675	0.001069	20.805448
210.044994	-3.009400	3.795200	-11.420000	22.564946	0.001071	20.801505
211.045322	-3.006900	3.794700	-11.409000	22.553185	0.001071	20.791148
212.049630	-3.007000	3.794100	-11.408000	22.575660	0.001074	20.806546
213.051751	-2.977900	3.793400	-11.296000	22.572297	0.001073	20.797487
214.051994	-2.998300	3.793400	-11.372000	22.578077	0.001071	20.797113
215.046650	-2.999500	3.793700	-11.377000	22.618093	0.001074	20.799259
216.045914	-3.003200	3.793400	-11.391000	22.629703	0.001074	20.812784
217.048389	-3.005400	3.791400	-11.393000	22.632768	0.001076	20.799733
218.048776	-2.973200	3.792700	-11.274000	22.622851	0.001075	20.808292
219.049845	-3.012700	3.791500	-11.422000	22.644353	0.001075	20.808492
220.048944	-2.997000	3.791100	-11.361000	22.613384	0.001073	20.803077
221.047420	-3.016000	3.791600	-11.434000	22.631048	0.001077	20.829304
222.049318	-2.987500	3.791900	-11.325000	22.627535	0.001077	20.795440
223.055475	-3.012800	3.790700	-11.420000	22.617918	0.001078	20.822791
224.050035	-3.001200	3.791600	-11.378000	22.630152	0.001077	20.805647
225.049579	-3.012000	3.791500	-11.418000	22.621855	0.001079	20.813458
226.050940	-3.016600	3.789800	-11.430000	22.650881	0.001081	20.833522
227.050567	-3.016200	3.789400	-11.427000	22.620659	0.001077	20.816527
228.050355	-2.998200	3.789700	-11.361000	22.660249	0.001080	20.815404
229.051641	-3.008400	3.791400	-11.404000	22.684889	0.001081	20.823016
230.053636	-2.992400	3.790500	-11.341000	22.668545	0.001078	20.819447
231.050433	-3.003400	3.789600	-11.381000	22.692962	0.001080	20.812609
232.059374	-3.038100	3.788300	-11.507000	22.710401	0.001082	20.818224
233.054032	-3.022400	3.788500	-11.448000	22.715309	0.001082	20.829778
234.051528	-3.004300	3.789100	-11.382000	22.737980	0.001085	20.824038
235.050040	-3.016100	3.788200	-11.424000	22.755021	0.001083	20.828306
236.055954	-2.996800	3.788800	-11.353000	22.766406	0.001086	20.806994
237.051416	-3.011800	3.787100	-11.405000	22.758957	0.001085	20.827981
238.051748	-3.006400	3.787800	-11.386000	22.785264	0.001086	20.834894
239.057497	-3.009900	3.787000	-11.397000	22.800137	0.001085	20.829878
240.052573	-3.002800	3.785800	-11.367000	22.783869	0.001086	20.826384
241.051879	-3.001100	3.786300	-11.362000	22.802478	0.001090	20.826060
242.055686	-3.025900	3.785100	-11.452000	22.795254	0.001089	20.831150
243.057495	-3.004900	3.785900	-11.375000	22.789524	0.001085	20.847221
244.054201	-3.001800	3.785500	-11.362000	22.769619	0.001088	20.856205
245.056530	-2.990400	3.785600	-11.320000	22.764687	0.001089	20.838462
246.055761	-2.992900	3.785900	-11.330000	22.758633	0.001089	20.819597
247.054606	-2.989800	3.786400	-11.319000	22.804023	0.001090	20.847521
248.058071	-3.009700	3.784000	-11.388000	22.809254	0.001089	20.856080
249.055938	-3.002600	3.784700	-11.363000	22.795404	0.001092	20.814705
250.054496	-3.007300	3.784100	-11.379000	22.836159	0.001092	20.841781
251.057483	-3.010000	3.782400	-11.384000	22.839048	0.001094	20.835193
252.057600	-3.008800	3.783600	-11.383000	22.837155	0.001093	20.838038
253.054914	-3.016900	3.783000	-11.412000	22.865902	0.001094	20.856879
254.058019	-2.993400	3.784400	-11.328000	22.878382	0.001093	20.849942
255.057356	-2.992400	3.783700	-11.320000	22.879976	0.001093	20.852961
256.056654	-3.000000	3.783200	-11.348000	22.901772	0.001094	20.835443
257.060297	-2.987400	3.781400	-11.296000	22.908249	0.001093	20.832449
258.058002	-3.029400	3.780600	-11.452000	22.938737	0.001095	20.848295
259.060066	-2.974900	3.781600	-11.249000	22.913978	0.001094	20.835817
260.059034	-2.987100	3.780900	-11.292000	22.954131	0.001095	20.843329
261.058327	-2.992100	3.780400	-11.309000	22.914426	0.001096	20.852387
262.059257	-2.996000	3.779400	-11.322000	22.911263	0.001095	20.848744
263.059822	-2.979500	3.782100	-11.268000	22.901548	0.001097	20.848969
264.061541	-3.035500	3.779400	-11.470000	22.924265	0.001099	20.847072
265.060203	-3.013200	3.780300	-11.389000	22.927554	0.001099	20.847996
266.061979	-2.989000	3.780000	-11.295000	22.932361	0.001100	20.852338
267.062090	-2.972900	3.781100	-11.240000	22.950395	0.001100	20.847172
268.062635	-2.976600	3.780900	-11.253000	22.947406	0.001100	20.849393
269.058861	-2.980900	3.778500	-11.264000	22.935848	0.001099	20.843978
270.062681	-3.012500	3.778200	-11.381000	22.961205	0.001100	20.846623
271.063732	-2.996000	3.778300	-11.318000	22.972016	0.001104	20.857928
272.065944	-3.000800	3.778900	-11.337000	22.976225	0.001102	20.857404
273.066641	-2.985500	3.778600	-11.279000	22.981032	0.001104	20.847522
274.063550	-3.006800	3.777400	-11.356000	22.973610	0.001103	20.871852
275.065203	-3.005100	3.779000	-11.354000	22.967707	0.001104	20.859775
276.067010	-2.997100	3.777600	-11.321000	22.987733	0.001106	20.880786
277.063277	-2.988400	3.777700	-11.289000	23.010398	0.001105	20.867935
278.069131	-3.017400	3.776900	-11.396000	23.004520	0.001106	20.862520
279.066759	-2.977900	3.777400	-11.248000	23.011170	0.001107	20.847847
280.064052	-2.998600	3.777100	-11.324000	23.053362	0.001104	20.865939
281.068161	-3.007100	3.774300	-11.349000	23.078965	0.001107	20.862670
282.070683	-2.974300	3.777300	-11.234000	23.091219	0.001107	20.858827
283.065446	-3.002800	3.774700	-11.334000	23.070772	0.001107	20.881959
284.069559	-2.993400	3.775400	-11.299000	23.065915	0.001110	20.858603
285.070504	-2.990000	3.775100	-11.286000	23.086562	0.001109	20.877393
286.066820	-2.987400	3.775700	-11.278000	23.119113	0.001110	20.858802
287.068165	-2.994800	3.775400	-11.305000	23.116448	0.001110	20.893588
288.068663	-3.007000	3.772600	-11.343000	23.129772	0.001108	20.876120
289.069913	-3.013100	3.773400	-11.367000	23.134205	0.001109	20.887674
290.071470	-3.016400	3.772100	-11.377000	23.140207	0.001112	20.878042
291.069650	-3.021600	3.772200	-11.396000	23.143320	0.001112	20.859352
292.070783	-2.989100	3.773700	-11.279000	23.193500	0.001112	20.885453
293.069275	-2.976100	3.772500	-11.226000	23.182244	0.001111	20.883182
294.071391	-3.016100	3.771700	-11.374000	23.176915	0.001114	20.868834
295.071595	-2.985200	3.772500	-11.260000	23.207123	0.001112	20.885828
296.070412	-2.983600	3.772600	-11.253000	23.187275	0.001113	20.883008
297.070659	-2.987800	3.772100	-11.270000	23.176617	0.001114	20.879914
298.072031	-2.981600	3.772600	-11.247000	23.196016	0.001114	20.885603
299.070299	-3.007100	3.771500	-11.340000	23.162123	0.001113	20.877718
300.074974	-2.985500	3.770600	-11.256000	23.162173	0.001116	20.875871
301.071559	-3.007100	3.770100	-11.335000	23.184088	0.001116	20.888822
302.070490	-3.007700	3.770300	-11.339000	23.187499	0.001117	20.883233
303.072065	-3.011000	3.769200	-11.349000	23.177762	0.001118	20.882958
304.072560	-3.012400	3.767800	-11.348000	23.164315	0.001114	20.894138
305.070511	-3.010900	3.768600	-11.346000	23.168001	0.001115	20.877444
306.070844	-3.005100	3.767600	-11.320000	23.189866	0.001119	20.879914
307.073256	-3.011600	3.768400	-11.348000	23.193327	0.001117	20.862996
308.070292	-3.006300	3.768100	-11.326000	23.244103	0.001116	20.896334
309.072646	-3.005400	3.766400	-11.318000	23.238923	0.001119	20.900626
310.074434	-3.026300	3.767800	-11.401000	23.243132	0.001122	20.894413
311.072350	-2.970000	3.769400	-11.193000	23.238426	0.001116	20.895386
312.077596	-3.008300	3.766900	-11.331000	23.234242	0.001121	20.900202
313.074368	-2.989700	3.767600	-11.263000	23.271296	0.001121	20.906515
314.075551	-3.004300	3.767300	-11.316000	23.273413	0.001123	20.910058
315.074417	-3.017000	3.765000	-11.358000	23.273712	0.001122	20.882859
316.074467	-2.989500	3.766400	-11.258000	23.266515	0.001123	20.892716
317.073853	-3.007700	3.766000	-11.326000	23.233072	0.001122	20.900452
318.073330	-2.998000	3.765000	-11.286000	23.260514	0.001120	20.903296
319.074249	-2.988300	3.764100	-11.247000	23.278941	0.001124	20.887626
320.073834	-3.008500	3.764200	-11.324000	23.277896	0.001121	20.897009
321.074826	-3.008800	3.763300	-11.322000	23.309320	0.001123	20.896260
322.075322	-2.989000	3.764500	-11.249000	23.329066	0.001124	20.899928
323.075725	-2.970400	3.765200	-11.183000	23.356555	0.001124	20.897608
324.075298	-2.991200	3.764200	-11.260000	23.354489	0.001125	20.899329
325.076418	-3.005400	3.763600	-11.310000	23.352547	0.001127	20.894539
326.074886	-2.981000	3.763500	-11.218000	23.334544	0.001127	20.880290
327.076792	-2.986900	3.762200	-11.235000	23.328344	0.001124	20.881663
328.075358	-2.987400	3.763200	-11.241000	23.323464	0.001128	20.886254
329.075427	-3.009700	3.762800	-11.324000	23.288603	0.001127	20.875973
330.074355	-2.989700	3.761500	-11.244000	23.300382	0.001127	20.889673
331.078205	-3.004200	3.762000	-11.300000	23.269281	0.001130	20.878893
332.076727	-2.999700	3.759700	-11.277000	23.288205	0.001129	20.896436
333.077287	-2.993500	3.761000	-11.257000	23.306034	0.001131	20.893441
334.077262	-3.004900	3.760600	-11.299000	23.331806	0.001130	20.880391
335.076738	-2.995000	3.760200	-11.261000	23.340720	0.001129	20.883635
336.076467	-3.002500	3.760700	-11.291000	23.350880	0.001132	20.871059
337.075559	-3.003600	3.759400	-11.291000	23.367064	0.001128	20.890123
338.076865	-3.018500	3.758400	-11.343000	23.350705	0.001130	20.873254
339.079939	-3.011900	3.760500	-11.324000	23.339177	0.001131	20.866916
340.077416	-3.007000	3.758300	-11.300000	23.307006	0.001133	20.865020
341.078023	-2.995000	3.759000	-11.257000	23.317066	0.001132	20.855188
342.082060	-3.002900	3.758000	-11.283000	23.342912	0.001133	20.850746
343.080196	-2.990800	3.758200	-11.239000	23.352947	0.001132	20.866019
344.079110	-2.986700	3.758200	-11.223000	23.369181	0.001133	20.864746
345.082850	-2.997400	3.757900	-11.263000	23.368285	0.001133	20.844882
346.078451	-2.994100	3.757600	-11.250000	23.361413	0.001134	20.878770
347.080505	-2.979900	3.757000	-11.194000	23.361388	0.001135	20.865470
348.084851	-3.000600	3.755900	-11.268000	23.383399	0.001133	20.846280
349.080674	-3.002800	3.756000	-11.277000	23.400903	0.001135	20.857185
350.080363	-3.015800	3.754700	-11.322000	23.383673	0.001134	20.877373
351.086963	-3.008000	3.756100	-11.298000	23.413427	0.001133	20.870686
352.084824	-2.971100	3.756300	-11.160000	23.412506	0.001135	20.837996
353.080519	-2.993600	3.755300	-11.241000	23.413950	0.001135	20.863624
354.085328	-3.009300	3.753900	-11.296000	23.415021	0.001136	20.842887
355.080595	-2.993500	3.755800	-11.241000	23.429162	0.001137	20.859906
356.080620	-2.978600	3.755300	-11.184000	23.430034	0.001137	20.833280
357.084901	-2.991300	3.753200	-11.226000	23.435138	0.001137	20.837921
358.085678	-3.000500	3.753500	-11.262000	23.435960	0.001139	20.829737
359.085058	-2.980000	3.754500	-11.187000	23.431628	0.001139	20.839144
360.084653	-3.011200	3.753500	-11.301000	23.459140	0.001140	20.852969
361.083573	-2.988000	3.753100	-11.212000	23.469073	0.001138	20.846332
362.082682	-3.003600	3.751900	-11.268000	23.471339	0.001139	20.848128
363.086992	-2.996500	3.752700	-11.244000	23.460584	0.001138	20.852521
364.084754	-3.011200	3.751100	-11.294000	23.449828	0.001137	20.845533
365.083163	-2.996200	3.751400	-11.239000	23.461480	0.001141	20.841091
366.087842	-3.002700	3.750700	-11.261000	23.441239	0.001142	20.829812
367.086263	-3.009200	3.749600	-11.282000	23.451248	0.001142	20.850275
368.085688	-2.997000	3.750400	-11.239000	23.431529	0.001140	20.834304
369.090329	-2.979100	3.751000	-11.173000	23.437256	0.001143	20.840992
370.091662	-2.987700	3.750500	-11.204000	23.454360	0.001141	20.845334
371.088415	-2.998900	3.748200	-11.239000	23.487248	0.001141	20.838946
372.093217	-3.020700	3.748300	-11.321000	23.487821	0.001142	20.839994
373.091501	-2.991700	3.749400	-11.216000	23.519638	0.001142	20.849127
374.090472	-2.985200	3.750000	-11.193000	23.551106	0.001140	20.824722
375.089049	-3.000000	3.747900	-11.243000	23.550434	0.001139	20.824996
376.090871	-2.988100	3.747800	-11.197000	23.570748	0.001140	20.818808
377.088776	-2.998400	3.746700	-11.233000	23.585709	0.001143	20.823848
378.089740	-2.995300	3.746200	-11.219000	23.572192	0.001144	20.834479
379.090299	-2.988800	3.747600	-11.199000	23.578366	0.001144	20.846358
380.091972	-2.980200	3.745000	-11.160000	23.591884	0.001145	20.830037
381.094029	-3.005000	3.746100	-11.256000	23.607392	0.001145	20.822826
382.092749	-2.990200	3.746100	-11.201000	23.617101	0.001145	20.827342
383.091423	-2.998800	3.746200	-11.233000	23.570923	0.001146	20.813767
384.089914	-2.990800	3.744800	-11.199000	23.572068	0.001146	20.810648
385.091586	-2.996200	3.744400	-11.217000	23.568159	0.001144	20.830911
386.090021	-2.983500	3.745400	-11.173000	23.580283	0.001146	20.826943
387.089784	-2.997400	3.744900	-11.224000	23.627158	0.001146	20.826519
388.092245	-2.976500	3.743600	-11.143000	23.615035	0.001146	20.807728
389.092186	-3.002900	3.743600	-11.240000	23.645007	0.001147	20.821179
390.089435	-2.979000	3.744000	-11.151000	23.650906	0.001147	20.833257
391.093525	-3.017800	3.743000	-11.293000	23.639630	0.001146	20.841392
392.092861	-2.987900	3.742800	-11.182000	23.682644	0.001145	20.827143
393.091969	-3.016400	3.742200	-11.287000	23.666464	0.001149	20.830363
394.094334	-3.006000	3.741900	-11.246000	23.639481	0.001148	20.825596
395.099563	-3.013700	3.741000	-11.274000	23.663129	0.001148	20.821329
396.092826	-3.020600	3.740500	-11.298000	23.675202	0.001148	20.839122
397.094532	-3.000600	3.742200	-11.228000	23.694045	0.001147	20.811073
398.098488	-2.983600	3.742100	-11.164000	23.689191	0.001151	20.829440
399.098043	-3.017400	3.740200	-11.283000	23.691033	0.001147	20.814691
400.097520	-3.000100	3.741000	-11.222000	23.679707	0.001149	20.830363
401.095675	-3.007300	3.740600	-11.248000	23.665195	0.001149	20.823401
402.093595	-3.000500	3.739500	-11.220000	23.681176	0.001150	20.820456
403.096922	-3.007000	3.739600	-11.244000	23.654542	0.001149	20.795651
404.099759	-3.001900	3.737800	-11.219000	23.654392	0.001151	20.811148
405.095838	-3.018500	3.737400	-11.281000	23.669676	0.001149	20.815565
406.097978	-3.024500	3.736300	-11.299000	23.657902	0.001152	20.795227
407.100518	-3.013700	3.737300	-11.262000	23.699198	0.001149	20.803911
408.098408	-2.998400	3.736800	-11.203000	23.689391	0.001149	20.836278
409.100136	-3.027000	3.735900	-11.306000	23.701165	0.001151	20.821530
410.104025	-2.987300	3.737600	-11.164000	23.723144	0.001150	20.817013
411.097272	-3.000600	3.736300	-11.211000	23.725907	0.001150	20.838749
412.101316	-2.988500	3.737800	-11.170000	23.743729	0.001149	20.804935
413.103199	-3.008400	3.735500	-11.237000	23.748558	0.001151	20.786543
414.097127	-3.040000	3.734400	-11.351000	23.816756	0.001150	20.823627
415.100348	-3.014700	3.734900	-11.259000	23.805158	0.001152	20.812472
416.103636	-3.012700	3.734200	-11.249000	23.844507	0.001153	20.825374
417.099433	-3.005600	3.733500	-11.220000	23.865339	0.001151	20.806907
418.101911	-3.006400	3.734700	-11.226000	23.855234	0.001151	20.808155
419.103827	-3.018500	3.733700	-11.269000	23.878106	0.001153	20.823503
420.105941	-3.017700	3.733600	-11.265000	23.873676	0.001153	20.786344
421.103603	-3.015000	3.733000	-11.254000	23.857052	0.001154	20.800495
422.107762	-3.013100	3.732500	-11.245000	23.858197	0.001152	20.827247
423.105175	-3.016800	3.732700	-11.260000	23.852846	0.001154	20.808606
424.104743	-3.014500	3.732600	-11.250000	23.846176	0.001149	20.801918
425.103994	-3.016700	3.731400	-11.255000	23.856804	0.001154	20.813997
426.100744	-3.027400	3.730000	-11.289000	23.864619	0.001152	20.805237
427.102029	-3.011400	3.731100	-11.235000	23.868974	0.001154	20.811027
428.108727	-2.977300	3.731400	-11.109000	23.893040	0.001154	20.799597
429.101750	-3.031800	3.729500	-11.306000	23.899935	0.001154	20.804140
430.102731	-3.009800	3.731400	-11.230000	23.913697	0.001155	20.794707
431.103270	-3.015300	3.729100	-11.243000	23.948339	0.001154	20.777762
432.101330	-3.011000	3.729400	-11.228000	23.937091	0.001153	20.797777
433.103847	-3.003400	3.730000	-11.201000	23.979148	0.001154	20.804864
434.104665	-3.012900	3.729500	-11.235000	23.935498	0.001157	20.802343
435.102314	-3.007400	3.728100	-11.210000	23.942043	0.001157	20.790889
436.103703	-3.010300	3.727800	-11.221000	23.906630	0.001156	20.814646
437.103637	-3.004300	3.728200	-11.198000	23.915415	0.001154	20.810654
438.105734	-3.003900	3.728000	-11.197000	23.912280	0.001155	20.793286
439.108078	-3.008600	3.728600	-11.217000	23.927585	0.001155	20.799150
440.106307	-2.991900	3.727600	-11.152000	23.957623	0.001155	20.791339
441.106676	-2.994200	3.727000	-11.158000	23.947146	0.001155	20.777514
442.105661	-2.997600	3.726700	-11.171000	23.937316	0.001157	20.804641
443.107069	-2.992500	3.726200	-11.148000	23.930298	0.001158	20.785749
444.109685	-3.002200	3.726100	-11.185000	23.910016	0.001160	20.811404
445.111788	-3.022600	3.725800	-11.261000	23.920891	0.001157	20.801921
446.111682	-2.996100	3.726100	-11.163000	23.908796	0.001155	20.792637
447.111108	-3.023300	3.723900	-11.258000	23.897796	0.001157	20.767856
448.109756	-2.987400	3.725000	-11.127000	23.916387	0.001155	20.800723
449.112660	-2.985300	3.724500	-11.118000	23.958544	0.001157	20.803643
450.109159	-2.960200	3.725100	-11.026000	23.940278	0.001160	20.800499
451.108925	-2.986900	3.725400	-11.126000	23.947022	0.001156	20.772174
452.112030	-2.987700	3.724000	-11.125000	23.943065	0.001156	20.802345
453.109864	-2.995500	3.723100	-11.151000	23.925595	0.001157	20.800474
454.112706	-2.994700	3.722500	-11.145000	23.955856	0.001159	20.772498
455.125486	-2.987300	3.722900	-11.120000	23.988033	0.001157	20.803818
456.114263	-2.993600	3.723200	-11.144000	23.995623	0.001158	20.771600
457.113067	-3.011900	3.722100	-11.210000	24.003139	0.001158	20.794310
458.119914	-3.015300	3.721300	-11.221000	24.006598	0.001156	20.791141
459.113739	-3.009200	3.721700	-11.198000	23.974571	0.001158	20.777040
460.114278	-2.991100	3.721000	-11.129000	24.001745	0.001157	20.803343
461.116592	-2.985100	3.721500	-11.108000	24.021628	0.001158	20.778239
462.114400	-2.981600	3.720500	-11.092000	24.010678	0.001159	20.794759
463.114338	-2.995700	3.720300	-11.143000	24.003537	0.001158	20.796131
464.119565	-2.984900	3.721800	-11.108000	23.996544	0.001158	20.784852
465.114343	-2.978900	3.720100	-11.082000	23.994031	0.001158	20.773796
466.116750	-3.009700	3.718600	-11.191000	23.966209	0.001158	20.787147
467.121358	-2.995900	3.718700	-11.140000	23.950581	0.001158	20.769105
468.118142	-3.001500	3.719000	-11.162000	23.979199	0.001158	20.792587
469.115359	-3.001500	3.718400	-11.160000	23.975665	0.001157	20.792837
470.115794	-3.001200	3.717800	-11.157000	24.009459	0.001158	20.771250
471.116834	-3.015100	3.716000	-11.204000	24.053579	0.001159	20.779461
472.114069	-3.019300	3.716300	-11.219000	24.060944	0.001160	20.799176
473.123542	-2.982600	3.716100	-11.083000	24.067936	0.001158	20.772523
474.115030	-3.002500	3.715400	-11.154000	24.092869	0.001159	20.789468
475.117837	-2.977000	3.715200	-11.058000	24.107873	0.001159	20.793137
476.122058	-2.984500	3.716000	-11.089000	24.116109	0.001158	20.799026
477.116942	-2.972400	3.715600	-11.043000	24.106579	0.001158	20.771924
478.122478	-3.004900	3.715200	-11.162000	24.105609	0.001159	20.780908
479.122717	-2.993800	3.715500	-11.123000	24.096079	0.001157	20.785101
480.121104	-3.011700	3.714100	-11.185000	24.066667	0.001158	20.783104
481.116244	-3.006500	3.714300	-11.166000	24.089634	0.001158	20.769628
482.120343	-3.027800	3.712600	-11.240000	24.101154	0.001159	20.769328
483.120220	-3.029600	3.712700	-11.247000	24.113620	0.001161	20.765235
484.120302	-2.997700	3.713500	-11.131000	24.108594	0.001157	20.761617
485.119874	-3.022600	3.711100	-11.214000	24.132605	0.001159	20.770526
486.119066	-3.013200	3.711200	-11.181000	24.146962	0.001160	20.774494
487.120039	-2.995000	3.710200	-11.111000	24.155646	0.001160	20.779410
488.123093	-2.994000	3.710400	-11.107000	24.162438	0.001157	20.778637
489.123254	-2.993600	3.712000	-11.111000	24.182243	0.001158	20.766258
490.118431	-3.006400	3.710100	-11.153000	24.192021	0.001160	20.762315
491.124028	-2.984600	3.711200	-11.075000	24.206750	0.001158	20.772821
492.122221	-2.978800	3.710900	-11.054000	24.217921	0.001159	20.771224
493.120226	-2.995800	3.712200	-11.119000	24.216105	0.001161	20.775566
494.119757	-2.993700	3.710000	-11.106000	24.210308	0.001160	20.765484
495.122311	-2.985000	3.710700	-11.075000	24.200505	0.001160	20.785050
496.120404	-2.991200	3.709500	-11.094000	24.172713	0.001159	20.762864
497.121847	-2.985200	3.708800	-11.070000	24.191374	0.001160	20.763088
498.121012	-3.010000	3.708500	-11.161000	24.174056	0.001159	20.775591
499.119936	-2.992800	3.708500	-11.097000	24.181347	0.001160	20.740702
500.121150	-3.002700	3.706500	-11.129000	24.187766	0.001159	20.753305
501.124240	-2.997600	3.706400	-11.109000	24.197344	0.001158	20.751058
502.123549	-2.989600	3.707300	-11.082000	24.221901	0.001158	20.762413
503.125323	-3.018600	3.706400	-11.188000	24.214064	0.001160	20.768778
504.122582	-2.987600	3.705800	-11.070000	24.241730	0.001161	20.757647
505.123535	-2.989400	3.706100	-11.078000	24.253398	0.001158	20.765084
506.140643	-3.015400	3.705200	-11.171000	24.276908	0.001159	20.769226
507.130254	-3.002500	3.704700	-11.122000	24.284521	0.001159	20.777812
508.127462	-3.002200	3.704200	-11.121000	24.275888	0.001159	20.764884
509.128088	-3.006900	3.703500	-11.134000	24.244689	0.001160	20.763935
510.130106	-3.025200	3.702800	-11.200000	24.262776	0.001160	20.770224
511.131265	-3.017000	3.701800	-11.167000	24.240186	0.001159	20.764634
512.128250	-3.013400	3.701500	-11.152000	24.243172	0.001159	20.769999
513.130031	-3.011400	3.702600	-11.149000	24.256307	0.001159	20.756622
514.126849	-3.005900	3.703000	-11.130000	24.261980	0.001158	20.771795
515.130443	-2.981800	3.702800	-11.040000	24.275066	0.001157	20.760266
516.133874	-2.982200	3.702500	-11.041000	24.288151	0.001160	20.762012
517.131454	-2.984500	3.702000	-11.047000	24.312830	0.001158	20.780130
518.131598	-2.995000	3.701200	-11.084000	24.299346	0.001158	20.765655
519.134298	-2.996300	3.700500	-11.087000	24.305118	0.001157	20.740624
520.133093	-3.008200	3.700500	-11.131000	24.310666	0.001156	20.772269
521.132582	-3.003000	3.701100	-11.114000	24.293997	0.001158	20.736580
522.137873	-3.009000	3.699100	-11.130000	24.303152	0.001160	20.775637
523.133697	-3.007400	3.700200	-11.127000	24.298201	0.001161	20.755023
524.136485	-2.981300	3.700400	-11.030000	24.279542	0.001158	20.762385
525.133955	-3.002400	3.699500	-11.106000	24.320665	0.001156	20.757169
526.134378	-2.985300	3.699200	-11.042000	24.334895	0.001157	20.763857
527.132771	-3.007800	3.698800	-11.125000	24.309569	0.001159	20.771169
528.137686	-3.014900	3.697300	-11.146000	24.329521	0.001159	20.747086
529.133866	-3.010900	3.696700	-11.129000	24.304718	0.001158	20.756819
530.135081	-3.001500	3.698400	-11.100000	24.266007	0.001155	20.761610
531.137527	-2.980400	3.696400	-11.016000	24.262996	0.001157	20.780876
532.132099	-2.973400	3.697600	-10.993000	24.248068	0.001159	20.775385
533.134676	-2.998400	3.696200	-11.081000	24.233539	0.001156	20.768398
534.134712	-3.031700	3.694400	-11.199000	24.246078	0.001157	20.751103
535.134569	-3.016800	3.695900	-11.149000	24.268668	0.001157	20.771392
536.133021	-3.016600	3.694500	-11.144000	24.276305	0.001159	20.744439
537.136162	-2.997800	3.694800	-11.075000	24.286307	0.001159	20.761584
538.130826	-2.993600	3.695200	-11.060000	24.307801	0.001157	20.757067
539.133760	-3.001000	3.694200	-11.085000	24.334942	0.001154	20.737351
540.132650	-2.987300	3.694100	-11.034000	24.346908	0.001159	20.734655
541.133806	-2.999600	3.692800	-11.076000	24.390989	0.001156	20.750428
542.140912	-3.008400	3.691700	-11.103000	24.375092	0.001154	20.748705
543.138597	-3.008600	3.693000	-11.110000	24.369919	0.001156	20.762008
544.136804	-3.019100	3.690500	-11.140000	24.349047	0.001158	20.742491
545.135247	-3.008000	3.692300	-11.105000	24.332578	0.001156	20.734031
546.138397	-2.997300	3.692600	-11.067000	24.310984	0.001157	20.755992
547.137058	-2.999200	3.692100	-11.072000	24.273741	0.001157	20.738073
548.138968	-3.004200	3.691300	-11.087000	24.259610	0.001157	20.748081
549.140910	-2.985800	3.692500	-11.023000	24.241572	0.001158	20.748954
550.138990	-2.990000	3.691700	-11.036000	24.244757	0.001155	20.755942
551.139036	-2.965100	3.691400	-10.944000	24.268790	0.001157	20.738797
552.145916	-2.983100	3.690500	-11.007000	24.292027	0.001155	20.764951
553.139019	-2.990600	3.689400	-11.033000	24.333124	0.001152	20.757813
554.138670	-2.985700	3.689600	-11.015000	24.371609	0.001156	20.758487
555.140296	-2.989500	3.689400	-11.028000	24.371932	0.001156	20.750276
556.137848	-3.006100	3.689700	-11.090000	24.394594	0.001154	20.735552
557.139273	-2.960400	3.689200	-10.920000	24.372230	0.001156	20.744886
558.139816	-3.009400	3.688500	-11.099000	24.357379	0.001156	20.736625
559.143421	-2.993700	3.687900	-11.039000	24.375290	0.001155	20.742739
560.139678	-2.985900	3.686900	-11.008000	24.378524	0.001155	20.735077
561.137879	-3.000900	3.686600	-11.062000	24.375116	0.001157	20.756316
562.140834	-2.995000	3.686800	-11.040000	24.404768	0.001155	20.757139
563.138838	-3.000600	3.686000	-11.059000	24.406633	0.001155	20.756166
564.139988	-3.005700	3.686300	-11.079000	24.431708	0.001155	20.737698
565.140105	-2.983600	3.686700	-10.998000	24.453249	0.001154	20.737972
566.140235	-3.000700	3.685400	-11.058000	24.465338	0.001152	20.735402
567.140377	-2.984900	3.686100	-11.001000	24.485237	0.001155	20.742564
568.142212	-2.985200	3.684500	-10.998000	24.475188	0.001155	20.747181
569.142058	-2.991300	3.684200	-11.020000	24.464542	0.001156	20.745035
570.141789	-3.008600	3.682500	-11.077000	24.469218	0.001154	20.758736
571.143478	-2.994600	3.683300	-11.029000	24.467452	0.001155	20.760758
572.141941	-2.984600	3.683900	-10.994000	24.473820	0.001153	20.740119
573.141250	-3.007200	3.683600	-11.075000	24.470512	0.001154	20.737273
574.143170	-3.021300	3.683000	-11.126000	24.493197	0.001153	20.735377
575.144384	-3.000000	3.683200	-11.048000	24.493644	0.001154	20.746258
576.143573	-2.972900	3.684400	-10.952000	24.499888	0.001154	20.753944
577.150475	-2.990500	3.681500	-11.009000	24.507051	0.001152	20.750226
578.144759	-3.004600	3.681700	-11.061000	24.482924	0.001155	20.749252
579.145531	-3.016800	3.679900	-11.100000	24.473919	0.001155	20.733106
580.153180	-3.002700	3.680600	-11.051000	24.471382	0.001152	20.733879
581.150145	-3.001500	3.679600	-11.043000	24.457776	0.001150	20.733030
582.145835	-2.985300	3.681200	-10.987000	24.453895	0.001153	20.757114
583.151478	-2.997700	3.678300	-11.026000	24.456408	0.001150	20.740193
584.152005	-2.997500	3.678600	-11.026000	24.455736	0.001150	20.730510
585.147589	-2.987600	3.679100	-10.991000	24.435240	0.001149	20.734603
586.151151	-2.999900	3.678400	-11.034000	24.445214	0.001152	20.735601
587.163248	-3.016900	3.676800	-11.091000	24.414991	0.001150	20.745584
588.154603	-3.015600	3.678300	-11.091000	24.427031	0.001153	20.740593
589.150386	-3.002400	3.677600	-11.041000	24.464169	0.001152	20.727590
590.151091	-2.996000	3.677300	-11.015000	24.466308	0.001154	20.737798
591.152128	-2.986600	3.676400	-10.979000	24.484715	0.001151	20.741092
592.151515	-2.985500	3.676300	-10.974000	24.503271	0.001151	20.746433
593.153571	-3.005200	3.677000	-11.049000	24.528666	0.001151	20.728289
594.149329	-2.959300	3.677500	-10.881000	24.548664	0.001151	20.743613
595.152891	-2.986100	3.676100	-10.976000	24.546450	0.001150	20.735227
596.151021	-3.014500	3.675800	-11.079000	24.518767	0.001149	20.745385
597.152022	-2.991600	3.676100	-10.997000	24.521354	0.001149	20.732332
598.153232	-2.990100	3.676300	-10.991000	24.523617	0.001150	20.742190
599.152644	-3.022300	3.674400	-11.105000	24.513593	0.001152	20.747780
600.151727	-3.005900	3.674200	-11.043000	24.487900	0.001148	20.743813
601.150825	-2.999800	3.674300	-11.021000	24.498670	0.001147	20.758887
602.155324	-3.015900	3.673200	-11.077000	24.479020	0.001150	20.738223
603.152266	-3.020200	3.671400	-11.086000	24.486482	0.001148	20.758512
604.155962	-3.013300	3.672500	-11.064000	24.472751	0.001151	20.740469
605.154574	-3.000900	3.672800	-11.021000	24.495859	0.001148	20.737100
606.152610	-2.996800	3.672900	-11.006000	24.504490	0.001148	20.744337
607.151733	-2.984900	3.673400	-10.964000	24.526578	0.001150	20.747058
608.157056	-3.012700	3.669600	-11.055000	24.557768	0.001148	20.737574
609.155927	-3.004000	3.670500	-11.025000	24.571199	0.001149	20.731136
610.153390	-3.010200	3.670700	-11.048000	24.567543	0.001149	20.725570
611.156716	-3.000000	3.670100	-11.008000	24.553565	0.001146	20.740944
612.153845	-2.995200	3.669900	-10.991000	24.577393	0.001149	20.738773
613.154167	-3.007600	3.670300	-11.036000	24.567593	0.001146	20.746484
614.152926	-3.006600	3.668600	-11.027000	24.605174	0.001149	20.751476
615.153295	-3.024000	3.667600	-11.089000	24.610671	0.001149	20.742766
616.156548	-2.994700	3.670000	-10.989000	24.626215	0.001148	20.730862
617.155159	-2.982000	3.669000	-10.940000	24.642779	0.001148	20.740845
618.151066	-3.007100	3.667700	-11.029000	24.631612	0.001148	20.736278
619.154611	-3.003200	3.668400	-11.015000	24.612885	0.001147	20.745462
620.155456	-3.009700	3.667300	-11.036000	24.644470	0.001146	20.737326
621.154018	-3.019300	3.665800	-11.067000	24.671703	0.001145	20.755170
622.154758	-3.002000	3.666900	-11.007000	24.704456	0.001145	20.736353
623.155239	-3.021000	3.666100	-11.074000	24.708509	0.001147	20.722876
624.156908	-2.997400	3.666200	-10.989000	24.732955	0.001147	20.749306
625.157893	-3.003800	3.664100	-11.005000	24.731364	0.001144	20.745812
626.155607	-2.976000	3.666100	-10.910000	24.718308	0.001148	20.737452
627.165906	-2.988800	3.666000	-10.954000	24.736885	0.001147	20.727170
628.155467	-3.007800	3.664400	-11.020000	24.721889	0.001147	20.741046
629.156570	-3.016700	3.663700	-11.050000	24.724028	0.001144	20.738925
630.155859	-3.000300	3.663900	-10.992000	24.736611	0.001143	20.743966
631.158658	-2.990600	3.664500	-10.958000	24.734970	0.001143	20.760337
632.156912	-3.005700	3.662900	-11.008000	24.742083	0.001146	20.756569
633.160522	-2.993600	3.664100	-10.967000	24.732036	0.001146	20.749806
634.158682	-3.000500	3.664200	-10.994000	24.702368	0.001143	20.732835
635.165873	-3.019700	3.662800	-11.059000	24.661557	0.001146	20.750205
636.159112	-3.016900	3.662200	-11.047000	24.648749	0.001142	20.772441
637.161750	-2.999200	3.662100	-10.982000	24.699782	0.001147	20.742094
638.157061	-2.986300	3.662000	-10.935000	24.680906	0.001144	20.759664
639.155748	-3.004100	3.662600	-10.999000	24.723879	0.001143	20.738775
640.159840	-3.005300	3.661800	-11.004000	24.747752	0.001143	20.756095
641.157549	-2.996600	3.662400	-10.974000	24.746434	0.001144	20.766626
642.160455	-2.964000	3.661300	-10.851000	24.807732	0.001143	20.738525
643.160557	-2.994300	3.659500	-10.956000	24.802709	0.001140	20.747709
644.159420	-3.002300	3.659400	-10.986000	24.809795	0.001141	20.747709
645.158422	-2.971900	3.661700	-10.881000	24.811636	0.001141	20.748608
646.164943	-3.003200	3.658200	-10.985000	24.790971	0.001142	20.730713
647.159234	-3.017600	3.657800	-11.036000	24.786396	0.001140	20.743192
648.162325	-2.997900	3.660400	-10.972000	24.792513	0.001141	20.770669
649.160686	-2.999600	3.658400	-10.973000	24.776150	0.001141	20.761834
650.161228	-3.034400	3.656500	-11.094000	24.792985	0.001140	20.772565
651.162478	-3.018600	3.656900	-11.037000	24.774733	0.001141	20.743341
652.163719	-3.009100	3.657600	-11.005000	24.752203	0.001140	20.773364
653.160514	-2.980700	3.656600	-10.898000	24.724649	0.001142	20.767524
654.160459	-2.985500	3.656400	-10.915000	24.733005	0.001143	20.792030
655.167613	-2.993000	3.655800	-10.941000	24.742330	0.001139	20.762508
656.161830	-3.002800	3.656200	-10.979000	24.751880	0.001140	20.763556
657.162591	-3.022200	3.654500	-11.042000	24.803429	0.001140	20.762183
658.159610	-2.999000	3.655300	-10.960000	24.803255	0.001140	20.760112
659.160797	-3.009700	3.655100	-11.000000	24.820761	0.001140	20.762982
660.159976	-3.007400	3.654700	-10.990000	24.853136	0.001139	20.771292
661.168297	-2.990600	3.654800	-10.928000	24.859527	0.001138	20.760636
662.172686	-3.003800	3.652900	-10.970000	24.858109	0.001138	20.778180
663.163900	-3.019700	3.653900	-11.032000	24.868105	0.001140	20.792954
664.168454	-3.017400	3.652400	-11.020000	24.888992	0.001132	20.761285
665.176394	-3.036300	3.650500	-11.082000	24.915074	0.001136	20.753798
666.167619	-2.994500	3.653600	-10.939000	24.933274	0.001137	20.760686
667.162456	-3.020200	3.652000	-11.028000	24.928824	0.001135	20.772340
668.174567	-3.004400	3.651500	-10.970000	24.956571	0.001136	20.762258
669.168447	-3.000000	3.653200	-10.957000	24.949386	0.001136	20.773064
670.167328	-2.987100	3.652900	-10.910000	24.958511	0.001136	20.773214
671.168077	-2.990500	3.651600	-10.919000	24.918307	0.001135	20.772216
672.161924	-3.010100	3.648900	-10.982000	24.882104	0.001134	20.762907
673.164024	-3.005000	3.650100	-10.967000	24.868677	0.001136	20.778355
674.164943	-3.004600	3.649500	-10.964000	24.865171	0.001135	20.762508
675.170108	-3.004300	3.649900	-10.964000	24.859751	0.001135	20.765603
676.163448	-2.976900	3.652000	-10.869000	24.906397	0.001135	20.787764
677.166254	-3.002900	3.649000	-10.956000	24.899684	0.001133	20.761585
678.166513	-2.984800	3.648700	-10.888000	24.898690	0.001135	20.763432
679.162368	-2.998600	3.648200	-10.938000	24.886108	0.001134	20.776410
680.163502	-2.982900	3.649700	-10.885000	24.880340	0.001133	20.770619
681.171497	-2.986100	3.648200	-10.892000	24.877257	0.001133	20.783647
682.182058	-3.007100	3.647000	-10.964000	24.881384	0.001134	20.796324
683.170389	-3.020300	3.646700	-11.013000	24.893991	0.001134	20.787166
684.176053	-3.019200	3.646200	-11.007000	24.873751	0.001134	20.779654
685.166946	-2.995600	3.648700	-10.929000	24.855799	0.001135	20.772068
686.175907	-3.004300	3.645100	-10.949000	24.846176	0.001133	20.771893
687.167960	-2.994200	3.646600	-10.918000	24.840829	0.001131	20.764156
688.164357	-3.009300	3.646100	-10.971000	24.794529	0.001130	20.778856
689.166283	-2.990800	3.646100	-10.904000	24.827551	0.001130	20.783547
690.171796	-2.990700	3.644600	-10.898000	24.852044	0.001131	20.795801
691.178238	-3.014900	3.644600	-10.987000	24.869997	0.001129	20.796275
692.171320	-2.998700	3.643200	-10.924000	24.869250	0.001133	20.773240
693.172367	-2.983800	3.644100	-10.872000	24.838791	0.001132	20.786767
694.175564	-2.990200	3.642700	-10.891000	24.839288	0.001131	20.754074
695.170335	-3.004700	3.643900	-10.948000	24.836205	0.001130	20.797448
696.178076	-3.002600	3.644500	-10.942000	24.832847	0.001132	20.777957
697.174938	-3.013600	3.642800	-10.976000	24.869276	0.001131	20.793180
698.167770	-3.012100	3.642100	-10.970000	24.861990	0.001130	20.780653
699.179665	-2.998000	3.643100	-10.921000	24.874995	0.001130	20.782799
700.168791	-2.997400	3.642300	-10.917000	24.923530	0.001128	20.797373
701.172664	-3.006900	3.641900	-10.950000	24.926737	0.001126	20.804860
702.169063	-3.001500	3.641400	-10.929000	24.944191	0.001128	20.778756
703.174959	-2.993500	3.641200	-10.899000	25.009580	0.001128	20.781326
704.169941	-3.004000	3.642000	-10.938000	25.021240	0.001127	20.782599
705.176033	-3.009100	3.641000	-10.954000	24.993469	0.001126	20.809252
706.175634	-3.011300	3.640100	-10.960000	25.015944	0.001126	20.801940
707.177081	-3.009200	3.638000	-10.946000	25.008535	0.001129	20.812520
708.169678	-3.005300	3.637800	-10.932000	24.989044	0.001127	20.764032
709.172655	-2.995700	3.638300	-10.898000	24.972833	0.001125	20.809875
710.178841	-2.991800	3.639000	-10.886000	24.990535	0.001126	20.796824
711.172453	-2.989500	3.638700	-10.877000	25.009206	0.001125	20.794228
712.179049	-2.963600	3.639600	-10.786000	24.987179	0.001126	20.801515
713.172097	-3.005100	3.638800	-10.934000	25.015372	0.001128	20.802788
714.177791	-3.012400	3.637300	-10.957000	24.993046	0.001124	20.796025
715.174970	-2.999500	3.637300	-10.909000	24.984245	0.001123	20.828442
716.185246	-2.978100	3.638100	-10.833000	24.948119	0.001127	20.795975
717.182254	-2.991400	3.637500	-10.879000	24.919700	0.001125	20.791633
718.181979	-2.998600	3.636600	-10.903000	24.909531	0.001123	20.790435
719.176306	-2.974100	3.636600	-10.813000	24.913335	0.001123	20.812270
720.182902	-3.007000	3.637100	-10.935000	24.920869	0.001124	20.809401
721.173477	-2.988800	3.636500	-10.867000	24.951724	0.001123	20.786791
722.175697	-3.008700	3.635400	-10.936000	24.970620	0.001123	20.806231
723.171939	-3.005200	3.634200	-10.920000	24.995085	0.001123	20.817037
724.173497	-3.016900	3.635200	-10.966000	25.026336	0.001122	20.828491
725.187455	-3.002500	3.634800	-10.911000	24.997770	0.001123	20.819258
726.176210	-3.013700	3.633800	-10.950000	25.013209	0.001121	20.813419
727.173561	-3.005400	3.634400	-10.922000	25.020617	0.001122	20.802363
728.174835	-3.003600	3.635400	-10.918000	25.038592	0.001120	20.812819
729.177786	-2.962600	3.634800	-10.767000	24.998689	0.001123	20.801215
730.177202	-2.996200	3.632900	-10.883000	25.032874	0.001122	20.812295
731.178727	-3.005900	3.633600	-10.921000	25.047865	0.001121	20.820705
732.177808	-3.004300	3.632300	-10.911000	25.053459	0.001121	20.839596
733.175766	-2.992200	3.631900	-10.866000	25.072502	0.001121	20.833107
734.180931	-2.989500	3.631600	-10.856000	25.074317	0.001119	20.823550
735.177958	-3.007800	3.631500	-10.922000	25.094802	0.001118	20.833207
736.179839	-2.990300	3.632200	-10.860000	25.112502	0.001120	20.811621
737.177128	-3.005000	3.631100	-10.910000	25.123216	0.001120	20.816687
738.179269	-2.993500	3.631100	-10.869000	25.126075	0.001118	20.811971
739.176138	-2.984200	3.630300	-10.832000	25.138181	0.001119	20.829340
740.174914	-3.004700	3.629500	-10.905000	25.105640	0.001118	20.806156
741.180010	-3.013700	3.629900	-10.938000	25.060370	0.001117	20.831835
742.181021	-2.999200	3.629000	-10.883000	25.039810	0.001118	20.837749
743.181764	-2.996400	3.629300	-10.873000	25.040233	0.001117	20.816363
744.178446	-3.013100	3.628400	-10.932000	25.028374	0.001118	20.824373
745.179842	-3.005300	3.628500	-10.903000	25.001424	0.001116	20.839995
746.182081	-3.003000	3.627600	-10.892000	24.973553	0.001115	20.838572
747.179185	-2.998100	3.628400	-10.877000	24.992200	0.001114	20.836900
748.181766	-2.965200	3.629400	-10.760000	24.950555	0.001115	20.842989
749.179839	-2.997600	3.627100	-10.872000	24.958486	0.001113	20.848579
750.179649	-2.976800	3.628300	-10.800000	25.001871	0.001114	20.833332
751.182212	-3.006700	3.626600	-10.903000	25.012487	0.001116	20.823599
752.196953	-2.992100	3.626900	-10.852000	25.031009	0.001113	20.829863
753.195081	-3.016500	3.625300	-10.935000	25.017509	0.001114	20.845709
754.185406	-3.005100	3.624800	-10.892000	25.016291	0.001114	20.836900
755.183578	-2.997100	3.625600	-10.865000	25.008460	0.001113	20.839471
756.183370	-3.001900	3.624100	-10.878000	25.012363	0.001114	20.829638
757.193140	-3.024500	3.623800	-10.959000	24.997769	0.001112	20.833007
758.200608	-2.996000	3.625100	-10.860000	24.996700	0.001111	20.838572
759.182750	-2.983300	3.624700	-10.812000	25.029642	0.001113	20.850775
760.183570	-3.001500	3.625100	-10.879000	25.073521	0.001112	20.838872
761.189933	-3.002100	3.623900	-10.878000	25.102632	0.001110	20.838222
762.202003	-2.996800	3.622200	-10.854000	25.116877	0.001110	20.845410
763.189619	-3.007800	3.622500	-10.895000	25.141412	0.001111	20.843488
764.186963	-3.011800	3.622700	-10.910000	25.154712	0.001111	20.837873
765.188568	-3.015200	3.621400	-10.918000	25.186008	0.001106	20.833257
766.199268	-3.038200	3.620900	-10.999000	25.183746	0.001109	20.820081
767.187080	-2.994300	3.622200	-10.845000	25.186108	0.001109	20.838572
768.186607	-2.985900	3.623100	-10.818000	25.205646	0.001109	20.858187
769.187003	-2.981300	3.621600	-10.796000	25.228092	0.001109	20.838522
770.186779	-2.993700	3.621900	-10.841000	25.245640	0.001108	20.857562
771.190625	-2.977400	3.621900	-10.782000	25.273106	0.001108	20.854318
772.188023	-3.003800	3.619700	-10.871000	25.261449	0.001107	20.845934
773.191653	-3.001300	3.621200	-10.867000	25.250885	0.001104	20.851923
774.189866	-2.998600	3.619200	-10.852000	25.242633	0.001108	20.830362
775.189936	-3.014100	3.619100	-10.907000	25.208628	0.001107	20.829413
776.192932	-3.021800	3.618700	-10.934000	25.211661	0.001108	20.856165
777.190061	-3.020900	3.617800	-10.928000	25.222722	0.001106	20.862054
778.193306	-3.005600	3.618000	-10.873000	25.209051	0.001105	20.847855
779.199107	-2.995600	3.618300	-10.839000	25.240371	0.001104	20.843737
780.196606	-2.991000	3.618300	-10.821000	25.257273	0.001105	20.855017
781.210111	-3.018700	3.617600	-10.919000	25.276213	0.001103	20.848903
782.197474	-3.005200	3.616700	-10.868000	25.243801	0.001106	20.862354
783.194534	-3.019600	3.615600	-10.916000	25.235623	0.001102	20.866471
784.192389	-2.973500	3.618800	-10.759000	25.264928	0.001105	20.849901
785.204948	-3.004800	3.616700	-10.866000	25.274473	0.001103	20.867070
786.193276	-3.000000	3.616600	-10.849000	25.240868	0.001106	20.861305
787.193875	-3.014500	3.614400	-10.895000	25.237288	0.001104	20.871935
788.192688	-3.013100	3.616200	-10.893000	25.249990	0.001102	20.860981
789.197164	-3.001100	3.615800	-10.850000	25.255384	0.001102	20.864974
790.203076	-2.988800	3.615400	-10.804000	25.268234	0.001104	20.860332
791.205012	-2.991500	3.614200	-10.810000	25.257024	0.001102	20.864724
792.197782	-2.984900	3.615100	-10.790000	25.284142	0.001101	20.868716
793.205958	-2.973700	3.614300	-10.747000	25.294283	0.001100	20.878424
794.206715	-3.005000	3.612800	-10.856000	25.321424	0.001101	20.850675
795.196845	-2.990200	3.613300	-10.802000	25.333802	0.001101	20.855990
796.197439	-2.992700	3.613200	-10.812000	25.372499	0.001100	20.851223
797.210529	-3.009500	3.612800	-10.871000	25.381297	0.001099	20.885660
798.198041	-2.996800	3.611800	-10.823000	25.373966	0.001099	20.864549
799.197931	-3.009500	3.610800	-10.866000	25.375357	0.001098	20.890126
800.204602	-3.017200	3.611100	-10.894000	25.399713	0.001100	20.869539
801.197363	-3.003500	3.611800	-10.847000	25.382440	0.001098	20.872583
802.204696	-2.982900	3.611600	-10.772000	25.387584	0.001097	20.870637
803.200873	-3.003300	3.610800	-10.843000	25.395687	0.001095	20.872134
804.196059	-3.027800	3.610000	-10.929000	25.401776	0.001098	20.879670
805.204832	-3.000300	3.609400	-10.828000	25.362457	0.001096	20.892820
806.200415	-3.000600	3.608900	-10.827000	25.328457	0.001096	20.886183
807.200461	-2.983600	3.610500	-10.772000	25.283817	0.001096	20.866968
808.198926	-2.981600	3.611000	-10.764000	25.231793	0.001095	20.879694
809.204062	-2.977300	3.609000	-10.743000	25.230699	0.001095	20.894242
810.204013	-2.995200	3.609100	-10.809000	25.227915	0.001096	20.902826
811.203339	-2.972500	3.608300	-10.725000	25.270892	0.001094	20.890499
812.210458	-3.008300	3.608300	-10.853000	25.292068	0.001094	20.878571
813.208775	-2.998600	3.607600	-10.817000	25.328755	0.001095	20.887430
814.201960	-2.977700	3.610000	-10.749000	25.313667	0.001095	20.877498
815.205788	-2.997700	3.607900	-10.814000	25.347991	0.001090	20.890623
816.203786	-3.009000	3.607100	-10.853000	25.363873	0.001093	20.898034
817.198883	-3.022800	3.606500	-10.899000	25.394144	0.001091	20.897610
818.205890	-2.995800	3.606700	-10.803000	25.413877	0.001092	20.924534
819.201227	-3.003900	3.607300	-10.835000	25.418624	0.001091	20.888053
820.201934	-3.017200	3.606000	-10.879000	25.417307	0.001090	20.904272
821.217498	-3.005700	3.605100	-10.834000	25.439077	0.001092	20.890573
822.213530	-2.999500	3.605500	-10.813000	25.440841	0.001090	20.898982
823.226284	-2.995100	3.604800	-10.795000	25.486717	0.001092	20.908539
824.202674	-2.996400	3.604700	-10.800000	25.488109	0.001089	20.926530
825.214211	-3.001700	3.604600	-10.818000	25.497577	0.001086	20.892419
826.205229	-2.987000	3.604800	-10.766000	25.511120	0.001088	20.901277
827.205392	-3.000500	3.604000	-10.812000	25.487114	0.001088	20.883336
828.205106	-3.000000	3.603000	-10.806000	25.446607	0.001086	20.918046
829.215875	-3.005900	3.601000	-10.823000	25.453018	0.001088	20.887029
830.205561	-3.015300	3.603000	-10.864000	25.420661	0.001088	20.917597
831.207265	-3.008100	3.601500	-10.833000	25.406172	0.001087	20.900205
832.214415	-3.011000	3.601400	-10.843000	25.354651	0.001086	20.886405
833.214643	-3.003000	3.601700	-10.815000	25.363773	0.001086	20.905520
834.208957	-3.011200	3.600900	-10.842000	25.341653	0.001086	20.894216
835.207186	-2.982300	3.601700	-10.740000	25.361983	0.001087	20.891870
836.210559	-3.011400	3.599200	-10.837000	25.355173	0.001085	20.892144
837.208852	-2.980400	3.599400	-10.725000	25.366159	0.001084	20.884209
838.208470	-2.997000	3.599100	-10.785000	25.341478	0.001084	20.896411
839.216966	-2.999500	3.600200	-10.797000	25.312598	0.001083	20.871683
840.213859	-2.993600	3.598900	-10.773000	25.309516	0.001082	20.872855
841.227938	-3.006200	3.599000	-10.818000	25.278894	0.001082	20.881465
842.215830	-2.998300	3.598300	-10.788000	25.260948	0.001085	20.869611
843.225199	-3.006100	3.598100	-10.814000	25.250757	0.001082	20.890198
844.213887	-3.020900	3.596400	-10.864000	25.275116	0.001081	20.885257
845.215418	-3.012400	3.596300	-10.832000	25.308720	0.001080	20.864471
846.212754	-3.003700	3.596700	-10.802000	25.305638	0.001081	20.883660
847.215624	-2.989000	3.598300	-10.754000	25.340435	0.001077	20.874503
848.223464	-2.990900	3.597200	-10.757000	25.293211	0.001078	20.874977
849.220798	-3.002200	3.596400	-10.796000	25.285158	0.001079	20.887279
850.215455	-3.036400	3.594300	-10.913000	25.318141	0.001079	20.866817
851.224730	-3.012100	3.596300	-10.830000	25.347444	0.001078	20.870161
852.224787	-3.005500	3.595600	-10.805000	25.379406	0.001078	20.877598
853.222340	-2.992100	3.596500	-10.760000	25.369192	0.001079	20.873505
854.218655	-2.984500	3.594200	-10.727000	25.395338	0.001077	20.871784
855.223668	-3.004200	3.595100	-10.800000	25.399985	0.001075	20.858433
856.222652	-3.021900	3.592600	-10.855000	25.431473	0.001078	20.859232
857.222867	-3.003100	3.594500	-10.794000	25.460351	0.001078	20.853617
858.221932	-3.026600	3.593900	-10.875000	25.447851	0.001078	20.868091
859.216842	-2.975400	3.596000	-10.698000	25.461619	0.001076	20.851097
860.222976	-3.009100	3.592500	-10.810000	25.471410	0.001077	20.854292
861.217172	-3.003300	3.592300	-10.787000	25.488980	0.001077	20.870986
862.216453	-2.996500	3.591200	-10.760000	25.494646	0.001075	20.843960
863.225442	-2.983000	3.592000	-10.714000	25.535872	0.001074	20.856438
864.216573	-3.012800	3.590600	-10.816000	25.541439	0.001073	20.859657
865.217551	-2.986300	3.591500	-10.723000	25.523174	0.001072	20.836574
866.217002	-2.994200	3.590900	-10.750000	25.478344	0.001072	20.850349
867.220070	-3.009500	3.590700	-10.804000	25.447976	0.001074	20.858734
868.218091	-2.980200	3.591900	-10.703000	25.454984	0.001071	20.846805
869.220462	-2.991500	3.589700	-10.737000	25.471510	0.001072	20.843012
870.217166	-2.983300	3.590800	-10.711000	25.440868	0.001072	20.861079
871.225794	-3.013700	3.590300	-10.819000	25.463409	0.001071	20.848627
872.222393	-3.005200	3.590100	-10.787000	25.441017	0.001070	20.830410
873.219621	-3.004300	3.589300	-10.782000	25.506326	0.001071	20.839095
874.223543	-3.002000	3.589500	-10.774000	25.533760	0.001071	20.834403
875.224500	-2.997400	3.587700	-10.751000	25.503915	0.001069	20.842364
876.220100	-2.992500	3.589200	-10.739000	25.511992	0.001067	20.860431
877.225271	-3.005500	3.587800	-10.781000	25.522727	0.001069	20.844185
878.216897	-3.012200	3.586700	-10.802000	25.538432	0.001065	20.842413
879.229217	-3.003100	3.586700	-10.770000	25.497678	0.001071	20.847479
880.224499	-2.995200	3.585900	-10.739000	25.470740	0.001067	20.856937
881.221437	-3.008100	3.585400	-10.784000	25.492186	0.001069	20.838645
882.231323	-3.000000	3.586500	-10.759000	25.506997	0.001066	20.842139
883.232860	-2.991600	3.585200	-10.725000	25.534705	0.001066	20.834403
884.223491	-2.993400	3.585300	-10.731000	25.548844	0.001065	20.806404
885.236707	-3.021600	3.584000	-10.828000	25.531251	0.001064	20.839469
886.221699	-3.010400	3.584300	-10.787000	25.516365	0.001066	20.830211
887.234466	-3.005000	3.584000	-10.769000	25.492981	0.001065	20.852246
888.224020	-2.996400	3.583600	-10.736000	25.463781	0.001066	20.828614
889.220662	-2.982000	3.585700	-10.692000	25.453890	0.001063	20.827690
890.223451	-2.994200	3.585100	-10.734000	25.451678	0.001062	20.831159
891.237820	-2.988000	3.584000	-10.708000	25.453393	0.001062	20.826243
892.224955	-2.993300	3.581900	-10.721000	25.440445	0.001061	20.841215
893.227342	-2.997000	3.581400	-10.732000	25.473547	0.001061	20.833205
894.229476	-3.005000	3.581700	-10.760000	25.485550	0.001061	20.841939
895.225011	-3.006400	3.581300	-10.765000	25.531524	0.001060	20.830735
896.230219	-3.012800	3.581900	-10.791000	25.500709	0.001060	20.838670
897.225547	-3.004500	3.581400	-10.759000	25.512513	0.001060	20.828239
898.241751	-3.000400	3.580400	-10.740000	25.523696	0.001059	20.836623
899.241908	-3.016500	3.579100	-10.794000	25.542905	0.001061	20.843586
900.229482	-2.987900	3.580800	-10.698000	25.541712	0.001057	20.822000
901.230738	-3.014800	3.579700	-10.791000	25.576078	0.001056	20.825219
902.230051	-3.022500	3.579100	-10.817000	25.601498	0.001057	20.831308
903.224871	-2.991700	3.580000	-10.710000	25.570238	0.001055	20.822673
904.224051	-2.991800	3.579900	-10.709000	25.556497	0.001054	20.830684
905.229256	-3.030700	3.577800	-10.842000	25.555950	0.001054	20.831557
906.225498	-3.022600	3.578500	-10.814000	25.542606	0.001055	20.832855
907.225499	-3.026400	3.577500	-10.825000	25.531498	0.001051	20.823122
908.233182	-3.029500	3.576400	-10.834000	25.518576	0.001055	20.835750
909.229039	-2.993700	3.576100	-10.704000	25.507915	0.001054	20.840690
910.226505	-2.991600	3.577900	-10.703000	25.498844	0.001052	20.817357
911.223555	-2.965700	3.579600	-10.615000	25.527770	0.001053	20.832181
912.227707	-2.988000	3.577500	-10.687000	25.563777	0.001052	20.841788
913.222868	-3.001000	3.575100	-10.727000	25.605970	0.001051	20.818730
914.229657	-3.020000	3.574300	-10.793000	25.601373	0.001050	20.830708
915.222608	-2.983000	3.575800	-10.665000	25.589818	0.001048	20.804880
916.231075	-2.998900	3.574500	-10.718000	25.546531	0.001048	20.824469
917.224056	-3.001900	3.574500	-10.730000	25.559851	0.001049	20.825517
918.227562	-3.012300	3.575300	-10.769000	25.568150	0.001051	20.826740
919.228473	-3.007400	3.574200	-10.747000	25.615884	0.001046	20.828687
920.233577	-3.004100	3.574600	-10.737000	25.575307	0.001048	20.828237
921.232404	-2.994900	3.574400	-10.704000	25.586464	0.001046	20.835649
922.234522	-2.994900	3.572800	-10.699000	25.602367	0.001048	20.824594
923.242971	-3.005600	3.572200	-10.735000	25.624556	0.001046	20.797094
924.231946	-3.010400	3.572200	-10.753000	25.628532	0.001046	20.830484
925.235454	-3.018900	3.571100	-10.780000	25.602193	0.001046	20.826790
926.245402	-2.991700	3.571500	-10.683000	25.618220	0.001043	20.824869
927.229202	-2.997500	3.572200	-10.706000	25.650770	0.001045	20.817732
928.240360	-3.000800	3.571200	-10.716000	25.664312	0.001045	20.807151
929.244173	-3.004000	3.571400	-10.727000	25.694773	0.001046	20.785589
930.238191	-2.984600	3.570400	-10.655000	25.714377	0.001044	20.825667
931.236951	-3.006600	3.569600	-10.732000	25.722477	0.001044	20.827165
932.242758	-3.009400	3.569900	-10.742000	25.678300	0.001042	20.820252
933.248894	-3.012300	3.569800	-10.752000	25.651019	0.001041	20.809447
934.241423	-2.993200	3.569400	-10.683000	25.668238	0.001041	20.814887
935.231552	-2.979000	3.569700	-10.632000	25.668288	0.001040	20.833429
936.233854	-2.997200	3.567900	-10.693000	25.696910	0.001041	20.816659
937.232650	-3.006300	3.567400	-10.723000	25.712613	0.001039	20.785490
938.244594	-2.993600	3.569100	-10.684000	25.750801	0.001036	20.816734
939.232203	-3.023400	3.567000	-10.783000	25.758279	0.001036	20.828513
940.237237	-2.995900	3.567000	-10.685000	25.745757	0.001038	20.813565
941.234203	-2.971000	3.568500	-10.601000	25.729955	0.001037	20.815711
942.237552	-2.985000	3.568100	-10.649000	25.699271	0.001037	20.830884
943.235515	-3.000200	3.566800	-10.699000	25.676015	0.001036	20.812267
944.236124	-3.001800	3.565800	-10.703000	25.607015	0.001035	20.800339
945.236206	-3.006000	3.564900	-10.714000	25.606070	0.001036	20.808399
946.233366	-3.002900	3.566300	-10.707000	25.626147	0.001034	20.799640
947.233170	-2.990200	3.565300	-10.660000	25.639565	0.001032	20.825443
948.237811	-2.981100	3.565800	-10.628000	25.648162	0.001032	20.794249
949.245340	-2.997500	3.563200	-10.680000	25.639540	0.001033	20.798866
950.239531	-2.994700	3.564100	-10.673000	25.634272	0.001033	20.796421
951.241963	-3.006200	3.563700	-10.712000	25.621153	0.001032	20.800314
952.239563	-3.016400	3.561700	-10.742000	25.575208	0.001030	20.788784
953.246716	-3.006100	3.562800	-10.709000	25.625451	0.001030	20.812217
954.240421	-3.006000	3.562500	-10.708000	25.650672	0.001030	20.805305
955.244210	-3.003700	3.562000	-10.698000	25.667046	0.001029	20.794724
956.252426	-2.973600	3.563100	-10.593000	25.709334	0.001031	20.806378
957.243679	-3.017400	3.561200	-10.744000	25.731944	0.001028	20.790681
958.252896	-2.991900	3.561700	-10.655000	25.769484	0.001027	20.798043
959.244565	-2.997500	3.560900	-10.673000	25.778055	0.001027	20.786264
960.240015	-3.002700	3.560600	-10.690000	25.763894	0.001026	20.818032
961.243223	-3.005300	3.559600	-10.697000	25.731645	0.001026	20.800339
962.238883	-3.012100	3.559800	-10.720000	25.726204	0.001027	20.797719
963.248149	-3.024800	3.558300	-10.762000	25.719844	0.001024	20.806029
964.255304	-3.003500	3.559500	-10.690000	25.700539	0.001024	20.812717
965.248794	-3.000900	3.559700	-10.681000	25.656262	0.001024	20.796695
966.248582	-2.993700	3.559400	-10.654000	25.650871	0.001025	20.821152
967.242928	-2.996700	3.558900	-10.664000	25.657082	0.001026	20.785191
968.244870	-3.005600	3.558600	-10.694000	25.654572	0.001023	20.794050
969.240435	-2.988000	3.557400	-10.629000	25.668835	0.001023	20.804107
970.248096	-2.987800	3.556800	-10.626000	25.674475	0.001022	20.798867
971.255546	-2.994900	3.556000	-10.648000	25.674525	0.001022	20.786588
972.243531	-3.007900	3.555600	-10.694000	25.672562	0.001022	20.800264
973.250222	-2.979600	3.555500	-10.593000	25.683246	0.001019	20.799141
974.246333	-3.021200	3.555900	-10.742000	25.682824	0.001019	20.791605
975.241314	-3.021200	3.555800	-10.742000	25.694650	0.001018	20.800638
976.244092	-2.991500	3.555100	-10.634000	25.702501	0.001019	20.786239
977.247154	-3.004900	3.555400	-10.683000	25.750403	0.001019	20.785515
978.246389	-2.988400	3.555300	-10.623000	25.774303	0.001018	20.777280
979.243762	-3.001200	3.553900	-10.664000	25.758254	0.001016	20.786289
980.251107	-2.984900	3.555400	-10.611000	25.742602	0.001018	20.765351
981.253510	-2.994600	3.554000	-10.642000	25.719843	0.001017	20.779002
982.249133	-3.003000	3.551900	-10.664000	25.756962	0.001013	20.787362
983.254519	-2.995800	3.554200	-10.647000	25.779247	0.001015	20.778926
984.257998	-3.011300	3.552000	-10.695000	25.726601	0.001013	20.791479
985.251774	-2.996700	3.552900	-10.645000	25.710004	0.001013	20.788085
986.255659	-3.002000	3.552300	-10.663000	25.728514	0.001011	20.788185
987.256703	-3.019300	3.551900	-10.723000	25.733309	0.001013	20.779725
988.250711	-3.004000	3.551500	-10.668000	25.771371	0.001010	20.803732
989.258964	-3.010000	3.550300	-10.685000	25.787669	0.001013	20.797343
990.257572	-2.982500	3.550500	-10.589000	25.810103	0.001011	20.774834
991.255915	-2.985400	3.551200	-10.600000	25.796612	0.001010	20.777404
992.253485	-3.016200	3.548700	-10.701000	25.798327	0.001012	20.787186
993.261858	-2.995200	3.549600	-10.630000	25.802351	0.001008	20.787436
994.273561	-3.014000	3.549200	-10.696000	25.850571	0.001008	20.791778
995.253632	-3.016900	3.549100	-10.706000	25.822300	0.001008	20.773336
996.254823	-3.016300	3.548600	-10.702000	25.841827	0.001007	20.784890
997.254746	-2.991100	3.548500	-10.613000	25.822300	0.001008	20.793250
998.250491	-3.004300	3.547400	-10.656000	25.836312	0.001004	20.776505
999.247988	-3.000400	3.547100	-10.642000	25.842423	0.001006	20.791653
1000.246962	-3.007500	3.547400	-10.669000	25.851863	0.001005	20.781221
1001.251184	-3.016900	3.547100	-10.700000	25.845627	0.001003	20.778276
1002.259216	-3.022800	3.546300	-10.719000	25.858719	0.001004	20.788108
1003.249742	-3.025200	3.544500	-10.721000	25.858868	0.001002	20.786836
1004.253401	-2.981400	3.547300	-10.575000	25.877599	0.001002	20.796169
1005.248131	-3.024100	3.544100	-10.716000	25.856483	0.001000	20.822846
1006.261121	-2.986200	3.545100	-10.586000	25.880430	0.001000	20.797117
1007.269454	-2.990400	3.545600	-10.602000	25.921145	0.001002	20.782543
1008.252966	-2.981200	3.545100	-10.567000	25.890889	0.001000	20.788183
1009.259944	-3.003200	3.545100	-10.645000	25.895906	0.001001	20.793698
1010.262640	-3.007100	3.543900	-10.656000	25.908824	0.000999	20.784864
1011.261074	-3.043600	3.541500	-10.776000	25.895732	0.000998	20.768392
1012.267614	-2.999400	3.542200	-10.623000	25.887286	0.000997	20.776977
1013.256440	-3.023300	3.540800	-10.701000	25.894639	0.000997	20.757337
1014.254162	-3.003800	3.542500	-10.639000	25.913294	0.000997	20.778449
1015.254378	-2.990100	3.541600	-10.589000	25.873200	0.000995	20.769465
1016.255809	-3.000000	3.541400	-10.622000	25.812609	0.000996	20.796791
1017.252669	-2.968600	3.542000	-10.513000	25.771393	0.000993	20.781943
1018.274639	-3.017500	3.540000	-10.681000	25.719045	0.000994	20.772984
1019.252450	-2.988500	3.542500	-10.585000	25.692310	0.000992	20.774106
1020.256518	-2.981100	3.540800	-10.554000	25.735343	0.000993	20.769914
1021.260488	-3.021700	3.539800	-10.695000	25.748883	0.000991	20.801532
1022.263325	-3.024600	3.537500	-10.699000	25.769951	0.000992	20.760580
1023.254510	-3.003600	3.539500	-10.630000	25.786746	0.000991	20.757535
1024.257512	-2.998800	3.539300	-10.613000	25.765777	0.000991	20.776776
1025.268498	-3.015700	3.538000	-10.669000	25.807117	0.000991	20.777525
1026.255394	-3.011900	3.538800	-10.657000	25.769852	0.000991	20.770437
1027.255639	-2.997100	3.537000	-10.599000	25.750796	0.000989	20.777849
1028.262963	-3.010300	3.536300	-10.644000	25.756187	0.000987	20.768565
1029.268546	-2.975600	3.538100	-10.527000	25.798546	0.000989	20.765596
1030.262750	-2.989600	3.537000	-10.573000	25.815415	0.000988	20.759306
1031.257107	-3.006300	3.536200	-10.630000	25.811962	0.000986	20.762950
1032.271293	-2.990800	3.535900	-10.574000	25.819142	0.000985	20.755938
1033.256928	-3.025200	3.533900	-10.690000	25.834842	0.000984	20.776926
1034.260933	-2.993000	3.533500	-10.573000	25.821849	0.000985	20.762451
1035.269295	-2.995400	3.534000	-10.584000	25.830967	0.000983	20.769239
1036.257374	-2.981500	3.534800	-10.538000	25.802198	0.000984	20.767841
1037.266040	-3.005700	3.532900	-10.619000	25.775839	0.000980	20.753217
1038.258207	-2.986900	3.534000	-10.555000	25.809925	0.000983	20.760904
1039.260664	-2.989700	3.535300	-10.568000	25.807291	0.000981	20.742137
1040.259060	-3.007400	3.533100	-10.624000	25.818371	0.000982	20.767966
1041.260250	-2.989700	3.533100	-10.562000	25.797354	0.000980	20.759656
1042.264943	-3.010300	3.533100	-10.634000	25.779566	0.000980	20.773557
1043.258127	-2.988200	3.532300	-10.555000	25.794547	0.000979	20.757784
1044.265665	-3.001600	3.531200	-10.599000	25.792335	0.000978	20.758882
1045.263304	-2.996600	3.530500	-10.579000	25.794522	0.000979	20.759656
1046.259397	-3.000600	3.530000	-10.591000	25.824036	0.000977	20.742835
1047.264083	-2.995900	3.529600	-10.573000	25.785951	0.000978	20.750098
1048.266129	-2.987200	3.530400	-10.545000	25.798696	0.000976	20.759581
1049.259527	-3.016300	3.529400	-10.644000	25.810670	0.000976	20.732728
1050.262426	-3.026700	3.528400	-10.678000	25.833302	0.000976	20.744083
1051.268066	-3.013800	3.527800	-10.630000	25.834470	0.000974	20.746205
1052.261800	-3.021800	3.527400	-10.656000	25.843538	0.000975	20.736821
1053.280536	-3.007700	3.528800	-10.613000	25.817129	0.000974	20.743484
1054.264099	-3.012300	3.527600	-10.625000	25.847463	0.000973	20.765421
1055.260082	-3.027700	3.526700	-10.677000	25.854592	0.000973	20.735598
1056.261901	-3.004300	3.527100	-10.595000	25.857375	0.000969	20.734126
1057.259773	-2.999000	3.527900	-10.580000	25.809204	0.000970	20.739791
1058.265379	-3.001900	3.525600	-10.583000	25.790994	0.000968	20.736671
1059.268030	-2.995900	3.525600	-10.561000	25.762349	0.000969	20.769539
1060.269081	-2.971600	3.526600	-10.479000	25.737504	0.000972	20.756911
1061.262739	-3.024400	3.523700	-10.656000	25.741504	0.000969	20.749075
1062.263628	-2.981500	3.526200	-10.512000	25.745156	0.000969	20.757010
1063.277561	-2.991900	3.525900	-10.548000	25.727566	0.000965	20.748351
1064.267283	-2.996500	3.526100	-10.565000	25.762572	0.000966	20.756013
1065.270037	-3.017400	3.522500	-10.628000	25.792634	0.000967	20.757285
1066.273127	-3.017300	3.522900	-10.628000	25.818992	0.000967	20.737769
1067.269516	-3.008500	3.524100	-10.601000	25.854567	0.000964	20.755488
1068.289158	-3.012400	3.521400	-10.607000	25.906213	0.000965	20.751420
1069.273009	-3.001000	3.523000	-10.571000	25.926310	0.000964	20.754540
1070.267617	-2.992300	3.523200	-10.542000	25.943897	0.000965	20.758932
1071.279703	-3.020900	3.520400	-10.634000	25.986994	0.000964	20.735848
1072.279640	-2.996200	3.521600	-10.549000	26.007958	0.000965	20.755014
1073.272665	-2.998600	3.520100	-10.555000	26.005151	0.000962	20.755513
1074.274784	-3.019400	3.520100	-10.626000	25.978151	0.000961	20.756361
1075.265039	-3.000200	3.520100	-10.559000	25.959298	0.000962	20.737894
1076.274192	-3.021500	3.517800	-10.627000	25.953858	0.000960	20.749024
1077.271336	-3.003700	3.519600	-10.571000	25.933215	0.000961	20.750571
1078.278246	-3.011700	3.518600	-10.596000	25.952292	0.000962	20.723743
1079.277907	-3.009400	3.517800	-10.585000	25.955919	0.000957	20.746354
1080.273266	-2.977000	3.518800	-10.473000	25.964464	0.000957	20.740713
1081.269118	-3.010800	3.517400	-10.589000	25.998394	0.000959	20.741138
1082.271178	-2.982100	3.518000	-10.490000	25.983789	0.000957	20.740214
1083.282390	-2.997500	3.517100	-10.542000	25.982721	0.000958	20.769962
1084.279132	-2.987000	3.517500	-10.505000	25.955944	0.000955	20.735472
1085.267155	-3.002200	3.517400	-10.558000	25.946678	0.000955	20.736595
1086.288630	-2.997500	3.516300	-10.539000	25.944691	0.000955	20.738392
1087.273282	-3.003500	3.514800	-10.556000	25.948616	0.000954	20.744232
1088.278443	-3.010600	3.513600	-10.577000	25.954453	0.000955	20.749148
1089.285495	-2.991100	3.514800	-10.511000	25.944616	0.000953	20.764871
1090.284618	-2.983000	3.514600	-10.482000	25.946231	0.000953	20.752268
1091.278258	-3.026300	3.512700	-10.629000	25.909243	0.000952	20.753990
1092.276597	-2.996400	3.515000	-10.530000	25.908473	0.000951	20.760803
1093.276518	-3.015600	3.511200	-10.587000	25.929364	0.000951	20.751918
1094.287535	-3.009800	3.513100	-10.572000	25.972834	0.000951	20.741536
1095.272300	-2.988500	3.513100	-10.498000	25.976237	0.000948	20.759180
1096.271040	-2.994100	3.512100	-10.514000	25.984434	0.000950	20.743233
1097.273211	-2.993800	3.511600	-10.511000	25.974548	0.000948	20.753215
1098.276481	-3.006200	3.511600	-10.555000	25.925736	0.000947	20.760128
1099.283903	-3.000100	3.509800	-10.529000	25.878638	0.000946	20.756435
1100.282822	-2.983500	3.510700	-10.472000	25.871483	0.000946	20.758257
1101.281721	-3.001100	3.510000	-10.533000	25.876799	0.000946	20.758381
1102.284384	-3.004100	3.509000	-10.539000	25.869918	0.000946	20.763797
1103.277516	-2.971400	3.509900	-10.428000	25.877147	0.000944	20.772481
1104.280746	-2.985100	3.509900	-10.475000	25.903330	0.000943	20.758955
1105.285379	-3.016600	3.508400	-10.582000	25.923352	0.000946	20.762474
1106.278948	-3.001300	3.508100	-10.527000	25.968734	0.000942	20.751643
1107.275970	-3.038400	3.506100	-10.651000	25.990221	0.000942	20.731503
1108.286444	-3.000600	3.508200	-10.526000	26.024150	0.000940	20.785508
1109.272892	-3.009000	3.505400	-10.546000	26.006614	0.000940	20.769312
1110.285692	-3.014700	3.505000	-10.566000	25.966747	0.000940	20.767190
1111.281530	-2.980700	3.506200	-10.450000	26.025740	0.000941	20.757233
1112.281198	-3.000700	3.505000	-10.516000	26.023430	0.000937	20.761550
1113.296467	-2.983200	3.505700	-10.458000	26.007210	0.000938	20.770384
1114.284462	-3.008900	3.502900	-10.537000	26.000205	0.000938	20.755760
1115.292141	-2.997400	3.505700	-10.507000	26.012029	0.000938	20.782338
1116.285025	-2.972200	3.504500	-10.415000	26.034333	0.000938	20.769186
1117.283362	-3.003200	3.504200	-10.523000	26.029192	0.000937	20.760701
1118.278160	-3.030600	3.503600	-10.616000	26.022361	0.000937	20.775175
1119.282146	-2.975800	3.503200	-10.424000	26.028099	0.000935	20.757706
1120.284528	-2.986800	3.503100	-10.462000	26.054502	0.000935	20.771906
1121.284550	-2.992800	3.502800	-10.482000	26.082791	0.000934	20.754337
1122.276784	-2.989400	3.502500	-10.469000	26.094887	0.000933	20.775974
1123.285084	-3.011300	3.499900	-10.538000	26.113937	0.000932	20.768088
1124.298095	-2.996800	3.502000	-10.494000	26.096849	0.000932	20.774152
1125.284943	-2.998500	3.500600	-10.495000	26.072111	0.000931	20.757831
1126.287842	-3.006700	3.501200	-10.527000	26.043548	0.000933	20.787453
1127.283500	-3.007000	3.500900	-10.526000	26.080606	0.000929	20.779168
1128.293057	-2.999000	3.499600	-10.494000	26.109590	0.000930	20.784583
1129.288735	-3.008700	3.499400	-10.527000	26.130701	0.000929	20.773079
1130.287642	-2.997900	3.498800	-10.487000	26.100425	0.000929	20.763520
1131.284388	-2.999400	3.497600	-10.489000	26.077004	0.000929	20.764169
1132.286807	-3.024100	3.498500	-10.578000	26.079388	0.000929	20.785057
1133.295903	-3.006600	3.496600	-10.512000	26.098662	0.000928	20.780715
1134.298298	-3.004300	3.497600	-10.506000	26.103083	0.000927	20.767613
1135.286487	-3.014100	3.496800	-10.539000	26.112347	0.000926	20.791146
1136.295523	-2.991800	3.498300	-10.465000	26.142994	0.000927	20.777845
1137.298400	-3.002500	3.495000	-10.492000	26.175529	0.000925	20.783036
1138.284729	-2.999400	3.494200	-10.480000	26.174883	0.000924	20.771007
1139.291216	-2.996200	3.496500	-10.474000	26.211638	0.000924	20.788975
1140.295659	-3.023100	3.495200	-10.566000	26.197855	0.000923	20.777495
1141.289534	-3.020500	3.494900	-10.555000	26.181538	0.000924	20.779592
1142.289386	-3.003400	3.493900	-10.493000	26.187623	0.000922	20.784758
1143.285635	-3.012500	3.494100	-10.524000	26.206696	0.000924	20.781638
1144.289330	-2.991200	3.492900	-10.447000	26.223409	0.000920	20.806968
1145.295482	-3.026000	3.491700	-10.564000	26.222341	0.000920	20.794515
1146.286506	-2.989500	3.492300	-10.440000	26.241711	0.000920	20.790747
1147.292370	-3.028800	3.490400	-10.568000	26.255618	0.000919	20.800454
1148.298158	-2.988700	3.492000	-10.436000	26.237390	0.000919	20.770757
1149.289543	-3.007700	3.492000	-10.502000	26.211662	0.000917	20.777620
1150.301595	-3.014000	3.490900	-10.520000	26.117537	0.000917	20.789723
1151.293486	-2.995000	3.491200	-10.455000	26.069900	0.000919	20.799231
1152.296411	-3.000100	3.489900	-10.468000	26.057630	0.000918	20.779317
1153.299202	-2.976700	3.490300	-10.387000	26.037387	0.000916	20.809238
1154.292902	-3.027800	3.488100	-10.560000	26.017218	0.000913	20.806044
1155.300083	-2.975600	3.490100	-10.384000	26.038530	0.000916	20.784308
1156.298491	-3.015800	3.488700	-10.520000	26.033040	0.000913	20.800130
1157.298417	-3.003800	3.486800	-10.473000	26.019503	0.000913	20.807392
1158.316144	-2.996200	3.488100	-10.449000	25.975538	0.000912	20.814903
1159.300319	-2.987800	3.487600	-10.418000	26.007581	0.000912	20.792094
1160.302160	-2.978400	3.487700	-10.387000	26.043944	0.000912	20.789274
1161.300685	-2.995700	3.486500	-10.443000	26.060114	0.000910	20.795563
1162.303374	-3.008500	3.487000	-10.489000	26.081325	0.000910	20.800279
1163.299333	-3.004500	3.485600	-10.472000	26.117487	0.000910	20.779242
1164.312429	-3.013000	3.484000	-10.497000	26.140336	0.000910	20.808365
1165.302051	-2.984700	3.484500	-10.400000	26.159956	0.000910	20.794415
1166.301565	-3.010100	3.483900	-10.486000	26.194824	0.000908	20.801477
1167.299318	-2.975300	3.485000	-10.368000	26.227854	0.000906	20.788675
1168.307541	-2.999500	3.484700	-10.451000	26.235602	0.000908	20.794090
1169.307092	-3.016100	3.482100	-10.501000	26.269400	0.000906	20.814778
1170.305552	-3.004300	3.483100	-10.464000	26.268208	0.000904	20.807891
1171.296949	-2.984900	3.483600	-10.397000	26.290656	0.000905	20.790147
1172.312331	-3.018900	3.481300	-10.508000	26.255096	0.000905	20.802301
1173.299797	-3.015500	3.481800	-10.498000	26.220230	0.000905	20.811359
1174.298028	-2.999600	3.482000	-10.444000	26.161297	0.000905	20.811409
1175.304521	-3.003700	3.479200	-10.449000	26.157299	0.000902	20.802650
1176.306240	-2.989500	3.481200	-10.406000	26.173591	0.000901	20.813331
1177.313972	-2.991300	3.479900	-10.409000	26.163135	0.000902	20.802351
1178.298408	-2.983600	3.480200	-10.383000	26.218789	0.000901	20.807541
1179.312337	-3.018100	3.479700	-10.501000	26.238284	0.000900	20.818596
1180.305782	-2.960200	3.479600	-10.300000	26.259839	0.000898	20.805645
1181.298694	-2.970900	3.480100	-10.338000	26.227804	0.000901	20.809962
1182.303358	-3.021500	3.477100	-10.505000	26.190056	0.000898	20.818496
1183.310647	-3.004200	3.477500	-10.447000	26.165296	0.000898	20.820168
1184.305912	-2.972300	3.478500	-10.338000	26.168375	0.000898	20.799555
1185.302324	-3.010200	3.476900	-10.465000	26.174212	0.000897	20.796411
1186.304392	-3.016100	3.476400	-10.483000	26.178111	0.000896	20.806967
1187.314273	-3.001800	3.475900	-10.432000	26.217523	0.000897	20.819071
1188.316026	-3.006100	3.476100	-10.448000	26.239302	0.000895	20.806818
1189.307443	-3.016500	3.473800	-10.477000	26.265203	0.000896	20.815302
1190.317091	-3.026800	3.475000	-10.516000	26.286286	0.000895	20.807566
1191.316198	-3.027700	3.473100	-10.514000	26.263490	0.000894	20.806942
1192.307536	-2.995400	3.474100	-10.405000	26.236496	0.000894	20.835765
1193.306118	-3.022700	3.472900	-10.496000	26.220528	0.000894	20.808340
1194.305757	-2.999700	3.473100	-10.418000	26.242853	0.000893	20.835990
1195.309170	-3.026000	3.470500	-10.500000	26.244567	0.000890	20.831074
1196.303290	-2.987200	3.473000	-10.373000	26.248143	0.000891	20.815227
1197.313051	-2.965700	3.473200	-10.299000	26.268084	0.000889	20.823413
1198.315520	-3.006500	3.470800	-10.434000	26.290334	0.000892	20.822065
1199.314602	-3.025900	3.470000	-10.499000	26.322640	0.000888	20.835092
1200.300105	-2.999900	3.471300	-10.412000	26.340692	0.000889	20.815776
1201.304175	-2.990200	3.469600	-10.372000	26.355939	0.000887	20.824461
1202.299788	-3.000000	3.470000	-10.409000	26.328823	0.000889	20.825185
1203.310727	-3.011500	3.467700	-10.441000	26.324204	0.000885	20.820543
1204.307058	-2.991400	3.468900	-10.376000	26.367684	0.000886	20.807342
1205.308743	-3.010500	3.467400	-10.437000	26.348340	0.000886	20.834368
1206.305538	-3.007700	3.468100	-10.429000	26.337589	0.000886	20.806019
1207.304708	-2.993000	3.467800	-10.379000	26.325098	0.000887	20.831398
1208.305749	-2.992000	3.467300	-10.373000	26.345510	0.000883	20.834368
1209.307355	-3.009800	3.465800	-10.430000	26.337936	0.000885	20.831498
1210.330019	-3.000500	3.467400	-10.401000	26.334708	0.000884	20.817823
1211.312786	-2.973900	3.465800	-10.306000	26.274193	0.000883	20.818172
1212.311742	-3.038200	3.463900	-10.523000	26.226364	0.000884	20.837912
1213.307245	-3.022700	3.463600	-10.467000	26.231604	0.000882	20.839858
1214.313402	-3.012200	3.465500	-10.438000	26.263366	0.000880	20.843327
1215.322265	-2.997400	3.464300	-10.383000	26.226960	0.000880	20.843726
1216.313652	-3.034700	3.462200	-10.506000	26.210445	0.000880	20.841829
1217.316402	-2.995200	3.462600	-10.370000	26.212060	0.000880	20.829227
1218.314303	-3.024200	3.462200	-10.469000	26.212805	0.000880	20.840407
1219.313839	-3.001000	3.462200	-10.388000	26.246529	0.000878	20.833045
1220.316260	-3.019600	3.459400	-10.444000	26.260833	0.000876	20.866384
1221.311368	-3.020900	3.461000	-10.454000	26.240867	0.000876	20.842054
1222.313490	-2.993900	3.461400	-10.361000	26.303222	0.000876	20.821267
1223.315249	-2.993200	3.460600	-10.357000	26.297709	0.000875	20.846546
1224.309922	-2.989600	3.463000	-10.350000	26.293488	0.000876	20.848467
1225.316750	-2.995100	3.460000	-10.362000	26.300192	0.000875	20.849516
1226.325078	-2.987700	3.461700	-10.341000	26.284945	0.000873	20.838461
1227.310525	-3.014700	3.459800	-10.429000	26.285715	0.000872	20.852510
1228.319743	-3.002100	3.460600	-10.387000	26.294357	0.000874	20.842703
1229.316984	-3.023200	3.457900	-10.453000	26.289117	0.000874	20.848817
1230.318298	-3.018500	3.459000	-10.439000	26.295499	0.000872	20.855230
1231.324069	-3.001000	3.457200	-10.374000	26.289838	0.000872	20.856653
1232.317816	-2.984700	3.458000	-10.320000	26.233914	0.000871	20.842653
1233.318147	-3.010500	3.456500	-10.405000	26.202723	0.000868	20.882904
1234.312358	-2.993800	3.455000	-10.342000	26.191572	0.000870	20.840408
1235.315563	-3.004800	3.455500	-10.381000	26.165048	0.000869	20.812808
1236.324418	-3.002500	3.456000	-10.376000	26.184593	0.000868	20.845723
1237.316461	-2.998800	3.456500	-10.364000	26.192217	0.000866	20.827780
1238.320360	-3.001100	3.454300	-10.365000	26.193136	0.000867	20.858100
1239.320199	-3.013800	3.454800	-10.410000	26.207863	0.000865	20.860097
1240.312542	-3.027800	3.453200	-10.454000	26.247423	0.000866	20.842479
1241.322975	-3.003200	3.454000	-10.371000	26.262671	0.000865	20.855904
1242.317941	-3.018500	3.453800	-10.424000	26.299200	0.000865	20.842354
1243.313168	-2.974300	3.453900	-10.272000	26.310324	0.000863	20.872973
1244.328104	-3.036700	3.451900	-10.480000	26.368653	0.000864	20.883703
1245.313333	-3.007000	3.452500	-10.380000	26.367685	0.000862	20.857127
1246.317461	-2.993800	3.450900	-10.330000	26.389262	0.000863	20.868382
1247.325737	-2.978500	3.450700	-10.277000	26.382955	0.000861	20.848294
1248.330702	-2.982700	3.451800	-10.295000	26.384420	0.000861	20.866835
1249.317984	-3.037900	3.448300	-10.473000	26.354301	0.000861	20.857901
1250.323670	-2.989600	3.449900	-10.311000	26.310797	0.000861	20.875818
1251.323310	-2.990900	3.448200	-10.312000	26.304862	0.000861	20.858475
1252.319726	-3.004600	3.448200	-10.359000	26.293638	0.000860	20.869954
1253.323155	-3.002600	3.449000	-10.355000	26.306103	0.000857	20.864938
1254.327110	-2.980100	3.447700	-10.273000	26.315838	0.000860	20.860497
1255.328755	-3.014000	3.447100	-10.389000	26.334213	0.000859	20.851463
1256.327627	-3.040600	3.445400	-10.474000	26.333443	0.000856	20.875818
1257.322379	-3.008400	3.447000	-10.369000	26.332971	0.000856	20.861121
1258.316034	-2.999400	3.447500	-10.339000	26.317626	0.000857	20.867509
1259.325847	-2.996600	3.445200	-10.324000	26.351073	0.000855	20.868407
1260.324805	-2.988500	3.445200	-10.295000	26.347821	0.000856	20.889793
1261.323774	-3.005800	3.445500	-10.355000	26.358001	0.000855	20.873947
1262.319320	-2.992600	3.444700	-10.308000	26.354972	0.000855	20.861420
1263.320470	-2.985100	3.444700	-10.281000	26.338434	0.000854	20.866136
1264.325253	-2.987800	3.444800	-10.289000	26.331010	0.000854	20.885226
1265.321654	-3.006800	3.443600	-10.353000	26.293886	0.000851	20.890117
1266.321995	-3.000400	3.442100	-10.327000	26.284773	0.000852	20.873373
1267.333812	-3.005100	3.441500	-10.341000	26.292520	0.000851	20.869305
1268.324718	-3.012500	3.440600	-10.364000	26.290906	0.000851	20.867209
1269.333120	-3.004400	3.441300	-10.338000	26.305061	0.000850	20.889019
1270.331702	-2.982800	3.441700	-10.264000	26.310251	0.000850	20.880959
1271.333334	-3.028300	3.440400	-10.417000	26.344071	0.000850	20.881757
1272.326524	-2.990000	3.440300	-10.285000	26.376699	0.000849	20.886573
1273.329988	-3.017300	3.439200	-10.376000	26.412404	0.000848	20.873148
1274.323102	-3.014500	3.439100	-10.366000	26.420995	0.000848	20.889368
1275.331478	-2.990800	3.439000	-10.284000	26.446594	0.000848	20.895656
1276.334772	-2.984000	3.440100	-10.264000	26.466754	0.000848	20.912600
1277.329999	-3.001800	3.436300	-10.314000	26.475394	0.000847	20.901371
1278.345430	-2.985400	3.439700	-10.267000	26.494387	0.000844	20.893435
1279.332363	-3.027600	3.436000	-10.402000	26.472415	0.000845	20.897902
1280.331236	-3.031100	3.436100	-10.414000	26.424421	0.000844	20.897553
1281.326344	-2.985100	3.437600	-10.261000	26.404880	0.000844	20.868432
1282.332981	-2.981200	3.436800	-10.244000	26.394502	0.000844	20.899250
1283.325972	-2.995300	3.436700	-10.293000	26.421144	0.000843	20.888570
1284.340314	-3.028900	3.435600	-10.405000	26.425042	0.000840	20.908133
1285.334111	-3.006300	3.435500	-10.327000	26.473408	0.000840	20.898426
1286.331031	-2.980600	3.435100	-10.238000	26.452726	0.000842	20.894708
1287.333919	-3.004200	3.434400	-10.317000	26.481626	0.000840	20.908582
1288.344237	-3.021100	3.433600	-10.372000	26.497168	0.000840	20.902868
1289.329405	-3.018000	3.433700	-10.361000	26.497417	0.000839	20.899324
1290.337739	-3.021900	3.432700	-10.372000	26.532944	0.000837	20.903741
1291.336264	-3.022100	3.432500	-10.373000	26.517253	0.000839	20.907409
1292.344290	-2.991600	3.431500	-10.265000	26.541733	0.000836	20.903092
1293.333197	-2.986200	3.432300	-10.249000	26.567502	0.000836	20.899599
1294.344939	-3.012100	3.430000	-10.331000	26.566931	0.000837	20.919886
1295.335690	-3.036600	3.429400	-10.413000	26.587561	0.000835	20.897004
1296.337273	-3.014700	3.430700	-10.341000	26.631973	0.000835	20.894708
1297.335815	-2.991900	3.431600	-10.266000	26.633314	0.000834	20.914072
1298.336563	-3.006300	3.429100	-10.307000	26.640612	0.000834	20.923778
1299.334114	-3.003000	3.427600	-10.292000	26.653818	0.000834	20.898177
1300.339184	-3.007100	3.427000	-10.304000	26.635126	0.000835	20.904515
1301.338838	-3.005100	3.427700	-10.300000	26.627455	0.000831	20.899649
1302.334887	-3.005500	3.427300	-10.300000	26.634654	0.000833	20.921108
1303.335516	-2.987900	3.428600	-10.243000	26.636119	0.000831	20.920210
1304.329330	-2.984600	3.428100	-10.229000	26.601786	0.000832	20.900397
1305.341002	-3.011900	3.425800	-10.317000	26.579841	0.000830	20.918164
1306.330038	-2.972100	3.427600	-10.185000	26.583068	0.000830	20.911926
1307.335761	-2.984900	3.426100	-10.225000	26.564151	0.000829	20.913373
1308.338914	-2.980900	3.426700	-10.213000	26.582671	0.000828	20.920060
1309.339103	-2.992300	3.424800	-10.247000	26.564051	0.000828	20.899923
1310.339538	-3.002000	3.425000	-10.281000	26.602928	0.000828	20.909131
1311.336518	-2.976200	3.425300	-10.193000	26.598683	0.000825	20.912924
1312.337961	-2.986800	3.424200	-10.226000	26.579890	0.000828	20.912999
1313.334163	-3.007000	3.423300	-10.292000	26.507223	0.000828	20.910603
1314.338261	-3.003400	3.421900	-10.276000	26.466754	0.000827	20.922082
1315.334498	-2.990300	3.423400	-10.236000	26.448307	0.000825	20.897378
1316.339198	-2.992300	3.422500	-10.240000	26.439343	0.000825	20.898326
1317.339294	-3.010900	3.421600	-10.301000	26.487262	0.000825	20.901445
1318.339707	-2.997700	3.421600	-10.255000	26.459281	0.000825	20.908882
1319.335244	-3.014100	3.421100	-10.310000	26.434104	0.000824	20.885001
1320.337781	-2.985700	3.420300	-10.211000	26.434427	0.000823	20.908083
1321.339979	-3.001400	3.420000	-10.263000	26.397978	0.000824	20.885201
1322.351521	-3.009900	3.420200	-10.294000	26.379827	0.000822	20.914845
1323.340856	-2.991100	3.419800	-10.229000	26.367834	0.000820	20.882880
1324.345933	-2.993500	3.419700	-10.235000	26.359888	0.000823	20.878688
1325.334687	-3.002500	3.418200	-10.262000	26.348963	0.000820	20.875294
1326.336209	-3.004600	3.418300	-10.269000	26.364084	0.000820	20.892861
1327.353271	-3.003500	3.416500	-10.260000	26.403961	0.000817	20.889318
1328.353965	-3.010200	3.418000	-10.287000	26.415805	0.000817	20.886049
1329.340858	-3.001100	3.416600	-10.252000	26.391894	0.000818	20.875768
1330.354846	-3.012200	3.416700	-10.291000	26.412552	0.000817	20.895581
1331.344131	-2.989600	3.416900	-10.213000	26.430231	0.000818	20.857402
1332.343202	-3.004400	3.415700	-10.261000	26.448604	0.000817	20.877290
1333.344427	-2.973000	3.414800	-10.151000	26.460149	0.000816	20.875144
1334.358701	-2.999700	3.414300	-10.241000	26.487336	0.000816	20.862168
1335.347649	-3.009900	3.414900	-10.277000	26.476610	0.000815	20.875094
1336.347372	-3.021700	3.412700	-10.311000	26.449101	0.000815	20.879212
1337.341787	-2.989800	3.414300	-10.205000	26.377120	0.000812	20.875144
1338.342551	-3.015700	3.411700	-10.287000	26.357802	0.000814	20.880384
1339.344462	-3.003100	3.411100	-10.242000	26.322790	0.000812	20.882655
1340.348424	-3.011300	3.413000	-10.276000	26.291303	0.000812	20.872349
1341.350832	-3.014500	3.412400	-10.285000	26.285045	0.000812	20.872698
1342.345520	-3.024200	3.411400	-10.316000	26.295375	0.000811	20.854632
1343.366640	-2.989500	3.411600	-10.198000	26.317277	0.000811	20.871426
1344.348143	-2.993800	3.410100	-10.208000	26.290632	0.000811	20.866934
1345.341527	-2.992900	3.410200	-10.205000	26.319115	0.000809	20.868531
1346.349349	-2.987100	3.409800	-10.184000	26.298653	0.000808	20.859822
1347.351610	-2.992800	3.410800	-10.207000	26.286659	0.000807	20.861993
1348.347469	-2.982000	3.409100	-10.165000	26.280253	0.000808	20.856029
1349.351295	-2.999400	3.409200	-10.225000	26.268457	0.000809	20.851288
1350.353817	-3.014200	3.408600	-10.273000	26.308611	0.000807	20.862717
1351.350402	-2.999500	3.407700	-10.219000	26.336770	0.000805	20.862093
1352.354329	-2.984700	3.407600	-10.169000	26.363314	0.000803	20.886872
1353.354103	-2.997600	3.407600	-10.213000	26.379752	0.000804	20.843178
1354.350533	-2.991300	3.406400	-10.188000	26.362743	0.000803	20.857851
1355.354009	-2.974400	3.407000	-10.132000	26.380919	0.000804	20.860471
1356.352057	-3.015600	3.405700	-10.269000	26.373643	0.000801	20.852211
1357.349920	-2.993000	3.406400	-10.195000	26.385438	0.000803	20.874495
1358.355771	-2.990100	3.404400	-10.179000	26.365623	0.000800	20.868805
1359.353259	-3.016200	3.403100	-10.263000	26.353605	0.000799	20.841556
1360.356472	-3.020200	3.404200	-10.280000	26.343350	0.000802	20.840732
1361.348526	-3.011800	3.404200	-10.252000	26.354052	0.000799	20.863815
1362.362390	-2.996400	3.403200	-10.197000	26.365847	0.000798	20.840108
1363.357762	-2.988000	3.403800	-10.169000	26.378560	0.000797	20.851937
1364.356315	-3.009400	3.402000	-10.237000	26.381565	0.000799	20.869180
1365.354056	-2.997800	3.401900	-10.197000	26.426779	0.000796	20.852037
1366.347438	-3.004900	3.400600	-10.217000	26.488180	0.000797	20.845947
1367.361930	-2.987200	3.400600	-10.157000	26.499104	0.000796	20.833695
1368.350295	-2.997200	3.400300	-10.190000	26.468516	0.000795	20.859373
1369.353519	-3.026000	3.400500	-10.289000	26.453694	0.000794	20.859173
1370.351758	-2.996500	3.399900	-10.187000	26.442620	0.000795	20.865112
1371.348064	-3.002200	3.399200	-10.204000	26.365574	0.000796	20.854532
1372.358775	-2.980700	3.400300	-10.133000	26.338756	0.000793	20.863615
1373.354127	-2.984300	3.400400	-10.147000	26.323982	0.000793	20.852086
1374.357037	-3.011700	3.398400	-10.235000	26.303073	0.000792	20.867583
1375.365747	-3.011400	3.398400	-10.233000	26.314620	0.000791	20.835566
1376.357746	-2.958900	3.398700	-10.056000	26.326266	0.000791	20.848692
1377.355943	-2.980500	3.397400	-10.125000	26.325720	0.000791	20.853833
1378.350653	-2.993700	3.395500	-10.164000	26.338682	0.000789	20.847420
1379.358718	-3.003200	3.395900	-10.198000	26.335081	0.000790	20.849491
1380.361611	-3.013800	3.394400	-10.228000	26.311888	0.000790	20.848942
1381.357382	-3.002200	3.395400	-10.193000	26.305978	0.000789	20.848218
1382.360745	-2.996200	3.394400	-10.169000	26.318295	0.000790	20.854432
1383.359080	-2.997300	3.395600	-10.177000	26.352910	0.000789	20.861244
1384.356306	-2.997700	3.394700	-10.175000	26.399044	0.000788	20.844550
1385.362906	-2.986000	3.394500	-10.134000	26.408926	0.000787	20.849740
1386.360779	-3.024700	3.392600	-10.260000	26.414091	0.000788	20.838336
1387.361904	-2.975400	3.392800	-10.093000	26.384991	0.000784	20.859822
1388.357840	-3.004300	3.392100	-10.190000	26.424196	0.000787	20.841854
1389.358305	-2.993900	3.392500	-10.156000	26.457715	0.000784	20.843776
1390.369204	-3.000300	3.391200	-10.174000	26.509382	0.000783	20.845922
1391.366199	-3.008900	3.389900	-10.198000	26.512560	0.000782	20.850064
1392.364684	-3.010500	3.391000	-10.208000	26.561443	0.000785	20.839933
1393.379133	-3.005100	3.389900	-10.186000	26.582868	0.000782	20.858624
1394.356542	-3.026300	3.389100	-10.256000	26.572814	0.000781	20.840457
1395.359165	-3.016500	3.388100	-10.219000	26.578970	0.000779	20.838111
1396.371481	-2.993000	3.389400	-10.144000	26.553747	0.000782	20.844051
1397.358209	-3.006400	3.388300	-10.186000	26.552034	0.000778	20.848492
1398.363446	-2.980500	3.389200	-10.100000	26.566905	0.000777	20.848742
1399.362034	-3.008600	3.386600	-10.188000	26.602679	0.000780	20.832072
1400.364970	-3.001800	3.387200	-10.167000	26.528995	0.000778	20.853308
1401.365567	-2.999700	3.386500	-10.156000	26.505459	0.000776	20.840557
1402.366756	-3.000700	3.387600	-10.164000	26.503001	0.000776	20.846621
1403.361093	-2.984900	3.386400	-10.107000	26.476510	0.000776	20.838485
1404.360498	-3.003100	3.385600	-10.166000	26.483512	0.000774	20.847419
1405.372061	-2.997100	3.385300	-10.145000	26.505757	0.000774	20.841330
1406.369722	-2.992300	3.384300	-10.126000	26.512088	0.000775	20.851961
1407.371322	-2.987900	3.385400	-10.114000	26.560252	0.000773	20.839209
1408.362147	-3.006600	3.384800	-10.176000	26.531900	0.000772	20.844849
1409.374941	-3.007200	3.383700	-10.175000	26.483785	0.000772	20.849116
1410.385684	-2.990700	3.384200	-10.120000	26.450689	0.000773	20.821067
1411.372360	-3.004900	3.382400	-10.161000	26.426480	0.000772	20.836090
1412.363535	-3.003000	3.381900	-10.155000	26.434128	0.000770	20.838560
1413.370625	-2.999200	3.381800	-10.142000	26.465337	0.000771	20.822988
1414.377971	-2.995200	3.382400	-10.130000	26.503597	0.000769	20.852435
1415.372396	-2.984100	3.381600	-10.089000	26.522540	0.000768	20.834018
1416.381617	-3.020600	3.379900	-10.208000	26.588851	0.000766	20.830500
1417.371110	-2.995000	3.380700	-10.124000	26.596596	0.000767	20.861518
1418.375439	-3.006200	3.378800	-10.156000	26.583240	0.000767	20.817748
1419.368216	-3.013000	3.379900	-10.182000	26.598483	0.000766	20.832596
1420.375522	-3.002300	3.379100	-10.145000	26.571448	0.000763	20.824860
1421.367034	-3.013200	3.378400	-10.180000	26.592599	0.000765	20.830001
1422.374142	-3.008700	3.378400	-10.164000	26.577754	0.000764	20.827405
1423.373763	-2.997400	3.378200	-10.124000	26.518543	0.000765	20.829527
1424.374193	-3.029400	3.377100	-10.229000	26.486069	0.000761	20.840032
1425.372311	-2.998500	3.377100	-10.125000	26.486565	0.000763	20.849540
1426.372792	-3.008300	3.377700	-10.161000	26.499128	0.000761	20.827081
1427.373549	-2.970400	3.378500	-10.034000	26.513900	0.000760	20.856627
1428.370926	-3.031200	3.375900	-10.231000	26.604491	0.000760	20.865660
1429.382528	-3.004300	3.374400	-10.136000	26.631425	0.000760	20.829202
1430.376547	-2.973700	3.375600	-10.036000	26.662257	0.000757	20.841230
1431.380527	-2.983500	3.375400	-10.069000	26.681172	0.000759	20.832746
1432.379027	-2.989400	3.374800	-10.087000	26.693510	0.000759	20.820019
1433.376078	-2.997200	3.374600	-10.113000	26.684549	0.000757	20.819071
1434.376543	-2.998500	3.373800	-10.115000	26.668016	0.000757	20.837537
1435.377589	-3.000800	3.374200	-10.125000	26.679013	0.000759	20.804971
1436.377131	-3.010500	3.372300	-10.152000	26.658931	0.000757	20.840257
1437.383508	-2.993800	3.372900	-10.096000	26.654537	0.000755	20.823513
1438.373947	-2.999600	3.372700	-10.115000	26.621645	0.000757	20.821267
1439.371603	-2.994200	3.370600	-10.091000	26.636688	0.000755	20.832122
1440.377480	-2.998400	3.372500	-10.112000	26.632121	0.000754	20.830850
1441.371466	-2.996300	3.373000	-10.105000	26.637359	0.000756	20.811460
1442.383502	-2.988400	3.370600	-10.072000	26.679063	0.000755	20.820194
1443.378725	-2.997400	3.370800	-10.102000	26.671020	0.000752	20.825859
1444.382834	-2.977000	3.370500	-10.033000	26.693709	0.000752	20.827331
1445.385803	-3.007600	3.369700	-10.133000	26.723471	0.000754	20.832597
1446.380706	-3.001100	3.369100	-10.111000	26.681421	0.000751	20.805970
1447.381769	-3.021800	3.367300	-10.174000	26.679981	0.000750	20.836764
1448.382198	-2.963700	3.370300	-9.987300	26.672063	0.000749	20.793242
1449.382850	-3.005600	3.367300	-10.120000	26.691946	0.000748	20.817499
1450.390275	-2.994000	3.368600	-10.085000	26.706095	0.000748	20.803749
1451.380159	-2.992500	3.367500	-10.077000	26.760728	0.000747	20.825010
1452.381818	-3.024700	3.366000	-10.180000	26.779146	0.000746	20.824561
1453.387347	-3.003100	3.366200	-10.107000	26.812604	0.000746	20.824062
1454.388025	-2.997400	3.366500	-10.090000	26.839483	0.000747	20.814579
1455.383062	-2.999800	3.364400	-10.089000	26.800442	0.000747	20.826059
1456.384206	-3.017100	3.364700	-10.150000	26.786939	0.000745	20.802052
1457.389203	-2.996300	3.366500	-10.086000	26.776316	0.000744	20.825035
1458.382538	-3.013200	3.363800	-10.135000	26.809154	0.000745	20.807317
1459.381269	-3.012400	3.362900	-10.129000	26.841718	0.000742	20.813981
1460.384161	-2.993400	3.363900	-10.068000	26.824046	0.000744	20.819920
1461.378716	-3.024800	3.361600	-10.167000	26.840774	0.000743	20.806394
1462.390747	-2.996500	3.363000	-10.076000	26.866239	0.000741	20.814455
1463.380100	-2.996400	3.363100	-10.076000	26.892845	0.000742	20.824137
1464.395290	-2.982200	3.363100	-10.028000	26.898851	0.000741	20.791770
1465.383552	-2.989100	3.361200	-10.045000	26.903715	0.000740	20.810412
1466.385031	-3.010100	3.361300	-10.116000	26.901283	0.000738	20.820294
1467.401010	-2.993600	3.361600	-10.062000	26.859389	0.000738	20.813257
1468.381936	-2.973200	3.361300	-9.992600	26.842462	0.000738	20.797660
1469.390185	-3.014100	3.361100	-10.130000	26.800492	0.000736	20.802401
1470.391651	-3.000200	3.358300	-10.075000	26.766860	0.000735	20.817425
1471.387324	-3.007200	3.359300	-10.101000	26.730422	0.000733	20.809714
1472.399886	-3.001300	3.357800	-10.075000	26.674571	0.000736	20.802402
1473.394286	-2.996700	3.358500	-10.064000	26.620504	0.000733	20.795939
1474.393004	-3.004100	3.357200	-10.083000	26.607769	0.000733	20.810637
1475.392001	-2.969000	3.357900	-9.968000	26.537239	0.000732	20.811336
1476.389687	-2.986400	3.358500	-10.029000	26.504716	0.000730	20.791447
1477.387363	-2.973000	3.357200	-9.980100	26.536147	0.000730	20.812609
1478.386414	-3.016500	3.355200	-10.119000	26.561048	0.000730	20.813932
1479.382681	-3.000700	3.356900	-10.072000	26.606876	0.000729	20.812584
1480.392053	-2.990000	3.356500	-10.034000	26.613032	0.000728	20.791272
1481.384923	-2.993900	3.355700	-10.045000	26.649748	0.000727	20.796887
1482.383695	-3.004700	3.355000	-10.080000	26.624601	0.000726	20.810963
1483.390730	-2.998600	3.355300	-10.060000	26.640811	0.000727	20.787430
1484.391057	-2.980100	3.355400	-9.998900	26.672362	0.000728	20.804449
1485.392871	-3.002600	3.355300	-10.073000	26.644709	0.000726	20.790400
1486.394104	-3.000500	3.353700	-10.061000	26.637485	0.000725	20.802104
1487.391045	-2.987700	3.353300	-10.018000	26.584434	0.000724	20.795241
1488.388374	-2.984200	3.351700	-10.001000	26.545160	0.000727	20.794168
1489.384638	-3.017900	3.351700	-10.114000	26.551168	0.000723	20.819173
1490.398139	-2.999700	3.350900	-10.049000	26.542032	0.000722	20.803352
1491.389709	-2.980200	3.351900	-9.988300	26.541759	0.000723	20.797387
1492.393999	-2.982400	3.351500	-9.993100	26.580637	0.000721	20.769612
1493.390401	-2.995700	3.351100	-10.038000	26.616608	0.000719	20.782065
1494.389194	-3.018500	3.350400	-10.112000	26.666207	0.000720	20.793520
1495.389638	-3.015200	3.349700	-10.099000	26.679090	0.000719	20.798885
1496.391637	-3.016700	3.349400	-10.104000	26.641532	0.000719	20.780568
1497.389571	-2.998700	3.348900	-10.041000	26.662955	0.000717	20.772707
1498.389999	-2.995400	3.347600	-10.027000	26.683782	0.000718	20.787006
1499.393014	-3.019100	3.348500	-10.108000	26.658314	0.000717	20.780369
1500.396628	-3.004600	3.347300	-10.057000	26.651437	0.000716	20.785310
1501.399146	-2.983300	3.348400	-9.988400	26.638157	0.000717	20.769114
1502.403272	-3.003400	3.346800	-10.051000	26.663974	0.000715	20.779420
1503.400183	-3.042400	3.345500	-10.177000	26.684652	0.000714	20.763224
1504.397627	-2.996200	3.346600	-10.026000	26.714762	0.000710	20.765994
1505.401982	-2.970300	3.347400	-9.941800	26.740180	0.000713	20.792023
1506.401132	-2.998200	3.344000	-10.024000	26.750109	0.000711	20.767866
1507.399619	-3.013900	3.344200	-10.077000	26.716202	0.000713	20.764123
1508.396880	-2.989900	3.344400	-9.998700	26.694755	0.000712	20.770537
1509.407003	-2.996100	3.345300	-10.022000	26.708259	0.000709	20.755189
1510.394632	-3.015100	3.343000	-10.078000	26.687160	0.000711	20.769065
1511.400274	-2.999400	3.343700	-10.027000	26.720373	0.000708	20.773532
1512.397555	-3.006900	3.342800	-10.050000	26.765102	0.000711	20.777725
1513.405382	-2.999900	3.344200	-10.031000	26.780863	0.000709	20.774131
1514.397939	-3.004100	3.341000	-10.036000	26.774509	0.000709	20.777700
1515.409094	-3.003300	3.342100	-10.036000	26.811690	0.000706	20.753917
1516.403183	-3.010700	3.340600	-10.057000	26.781782	0.000705	20.763201
1517.403469	-2.992000	3.341400	-9.995900	26.769967	0.000705	20.763650
1518.398860	-2.987000	3.342200	-9.981600	26.782328	0.000703	20.759957
1519.401546	-2.999600	3.339600	-10.015000	26.777587	0.000705	20.763725
1520.403501	-2.980100	3.339700	-9.951300	26.736036	0.000704	20.770313
1521.402575	-2.984400	3.340700	-9.968800	26.747827	0.000702	20.754192
1522.397030	-2.990100	3.339100	-9.983400	26.736632	0.000703	20.751472
1523.404932	-2.980800	3.338700	-9.951100	26.770017	0.000702	20.772709
1524.397243	-3.003200	3.339400	-10.027000	26.808291	0.000703	20.758560
1525.405741	-2.991500	3.338000	-9.983300	26.856714	0.000701	20.768368
1526.404906	-3.012600	3.336500	-10.049000	26.869124	0.000702	20.754766
1527.401937	-3.003500	3.335100	-10.016000	26.848028	0.000700	20.760107
1528.403440	-3.015500	3.336100	-10.059000	26.850137	0.000698	20.752745
1529.409079	-2.985100	3.335600	-9.956100	26.856566	0.000700	20.751622
1530.407324	-3.018700	3.336100	-10.070000	26.845571	0.000698	20.750998
1531.409953	-3.017800	3.335200	-10.064000	26.863962	0.000698	20.762853
1532.409809	-3.027800	3.333800	-10.093000	26.881112	0.000698	20.758760
1533.409262	-3.004600	3.334000	-10.017000	26.924196	0.000696	20.739019
1534.400147	-2.991700	3.334000	-9.973100	26.915038	0.000698	20.760157
1535.400658	-2.995000	3.334700	-9.986200	26.907915	0.000694	20.748727
1536.405206	-2.993900	3.333300	-9.977800	26.919902	0.000695	20.753669
1537.410368	-2.975900	3.334800	-9.922900	26.908263	0.000692	20.765198
1538.426696	-2.996500	3.332700	-9.985600	26.851999	0.000694	20.747030
1539.404305	-2.989000	3.332900	-9.960400	26.795161	0.000690	20.759583
1540.406009	-3.016000	3.331700	-10.047000	26.782354	0.000691	20.742912
1541.412654	-3.000300	3.331900	-9.996100	26.815141	0.000691	20.761180
1542.404695	-3.005300	3.331700	-10.012000	26.829090	0.000690	20.746281
1543.409673	-2.995300	3.330500	-9.974600	26.849542	0.000690	20.746456
1544.401634	-2.981600	3.330000	-9.927200	26.848127	0.000687	20.749301
1545.411562	-2.992500	3.329600	-9.962600	26.830480	0.000689	20.741515
1546.409904	-2.993900	3.329200	-9.966100	26.829611	0.000689	20.741115
1547.407285	-2.990800	3.329300	-9.956000	26.774982	0.000685	20.764424
1548.407804	-2.993800	3.329700	-9.968200	26.755869	0.000686	20.743311
1549.405173	-3.012600	3.327300	-10.021000	26.707342	0.000686	20.749525
1550.406270	-2.985200	3.328500	-9.935100	26.648635	0.000687	20.740765
1551.409043	-2.981000	3.328000	-9.918800	26.656405	0.000687	20.753319
1552.412618	-3.021300	3.327800	-10.053000	26.689569	0.000683	20.765323
1553.411150	-2.988100	3.327700	-9.942400	26.720622	0.000684	20.746281
1554.413574	-3.023900	3.326200	-10.057000	26.779027	0.000685	20.757586
1555.409408	-2.992500	3.324100	-9.946000	26.840805	0.000681	20.748103
1556.407739	-3.019200	3.324500	-10.036000	26.885107	0.000683	20.739068
1557.407687	-3.000100	3.323900	-9.969800	26.872573	0.000682	20.736423
1558.407045	-3.009800	3.325400	-10.008000	26.849417	0.000681	20.731157
1559.406112	-2.995200	3.324500	-9.956500	26.823307	0.000678	20.736198
1560.415861	-2.995100	3.325700	-9.959100	26.799454	0.000681	20.746356
1561.415542	-2.973800	3.324300	-9.883600	26.827203	0.000680	20.750074
1562.411174	-3.014200	3.323800	-10.018000	26.821098	0.000679	20.753892
1563.419156	-3.002300	3.323200	-9.976700	26.853934	0.000677	20.749450
1564.417800	-2.984700	3.323200	-9.918000	26.882203	0.000676	20.746580
1565.415130	-3.022100	3.320900	-10.035000	26.902156	0.000676	20.752894
1566.411922	-3.012900	3.320900	-10.004000	26.953479	0.000676	20.749500
1567.412839	-3.005000	3.321000	-9.979000	26.974722	0.000676	20.747154
1568.407915	-2.985800	3.322200	-9.917800	26.951171	0.000673	20.768042
1569.419476	-3.004900	3.319800	-9.973600	26.893644	0.000675	20.747179
1570.417284	-3.005600	3.319500	-9.976400	26.866467	0.000672	20.752569
1571.421943	-2.980800	3.321000	-9.898800	26.848349	0.000673	20.768492
1572.414372	-2.998300	3.320400	-9.953700	26.862670	0.000673	20.747803
1573.425352	-2.993800	3.318800	-9.934400	26.871754	0.000672	20.746505
1574.420384	-3.022300	3.318800	-10.028000	26.905606	0.000671	20.763950
1575.424475	-3.001600	3.316600	-9.953900	26.871134	0.000666	20.751571
1576.418555	-3.021000	3.317200	-10.020000	26.857309	0.000670	20.746206
1577.409506	-2.989600	3.319000	-9.921100	26.827253	0.000669	20.753917
1578.417716	-3.009600	3.316300	-9.979700	26.809631	0.000666	20.782193
1579.412232	-3.006900	3.316600	-9.971900	26.816456	0.000669	20.729310
1580.417275	-3.005200	3.316500	-9.966200	26.803178	0.000666	20.765747
1581.416728	-2.989100	3.316900	-9.913500	26.838769	0.000667	20.747478
1582.415536	-3.002900	3.313700	-9.949400	26.895505	0.000665	20.748576
1583.418775	-2.980300	3.315700	-9.880700	26.937373	0.000664	20.741838
1584.418724	-3.006800	3.315900	-9.969100	26.967724	0.000665	20.748177
1585.418960	-3.010100	3.313600	-9.973000	26.996114	0.000662	20.748751
1586.414481	-3.011100	3.313900	-9.977100	26.997329	0.000662	20.750448
1587.426630	-2.972600	3.313900	-9.848900	27.010606	0.000662	20.762851
1588.423412	-3.006500	3.311900	-9.955200	27.013459	0.000664	20.754815
1589.421332	-3.011400	3.311700	-9.971500	26.988048	0.000662	20.760081
1590.416101	-3.020200	3.311300	-9.999100	27.018149	0.000660	20.760480
1591.425863	-2.996200	3.311600	-9.921500	27.036860	0.000660	20.777875
1592.426394	-3.017800	3.310700	-9.988500	27.048349	0.000656	20.751970
1593.411012	-3.012200	3.310800	-9.971100	27.055868	0.000658	20.758583
1594.417832	-3.016800	3.309700	-9.983000	27.074280	0.000656	20.767143
1595.416355	-3.022800	3.309400	-10.002000	27.075397	0.000657	20.749774
1596.415159	-3.014700	3.308300	-9.972900	27.115893	0.000653	20.746405
1597.424240	-3.013300	3.308100	-9.967300	27.114702	0.000653	20.770812
1598.414939	-3.015200	3.307800	-9.973000	27.056836	0.000657	20.751022
1599.414671	-2.992300	3.308700	-9.900200	27.064231	0.000654	20.759407
1600.425352	-2.997600	3.307600	-9.913200	27.035197	0.000654	20.757710
1601.414513	-2.990600	3.308500	-9.893200	27.021400	0.000653	20.782716
1602.423906	-3.017000	3.306000	-9.973000	26.989686	0.000654	20.752244
1603.435286	-2.993900	3.307700	-9.902600	26.984127	0.000653	20.764673
1604.417810	-3.022600	3.304500	-9.986800	26.968741	0.000650	20.745406
1605.423291	-2.993200	3.305500	-9.893400	26.928016	0.000652	20.758509
1606.426406	-3.018500	3.303800	-9.970000	26.914143	0.000652	20.753093
1607.422022	-2.996200	3.305100	-9.901000	26.936330	0.000647	20.758334
1608.416650	-3.003400	3.304300	-9.922200	26.950600	0.000645	20.757510
1609.426383	-3.012800	3.303800	-9.953300	26.953181	0.000648	20.772434
1610.417815	-2.992200	3.303700	-9.884400	26.951766	0.000646	20.762002
1611.425319	-3.012000	3.304400	-9.950800	26.907367	0.000647	20.777101
1612.422193	-2.997100	3.302800	-9.896900	26.854306	0.000645	20.752195
1613.425150	-2.966600	3.303500	-9.799200	26.829833	0.000643	20.763150
1614.425270	-3.017200	3.300800	-9.957300	26.852940	0.000644	20.773582
1615.419689	-2.992500	3.302600	-9.882200	26.887587	0.000644	20.766220
1616.427536	-2.992200	3.300900	-9.874800	26.896770	0.000644	20.745581
1617.419979	-2.985900	3.302200	-9.859300	26.896696	0.000641	20.755464
1618.422270	-3.021600	3.300900	-9.973300	26.878529	0.000642	20.768017
1619.427690	-3.016700	3.299200	-9.951500	26.851824	0.000642	20.771511
1620.424266	-3.008100	3.300200	-9.926400	26.845296	0.000641	20.775853
1621.423720	-2.989000	3.300500	-9.863400	26.812335	0.000640	20.751246
1622.422166	-2.984100	3.300300	-9.847500	26.802407	0.000640	20.754541
1623.421314	-3.008200	3.298500	-9.921600	26.843459	0.000638	20.777799
1624.432349	-3.012600	3.298400	-9.935500	26.859989	0.000638	20.761228
1625.440403	-2.998200	3.298200	-9.888000	26.878504	0.000639	20.762776
1626.419863	-2.993700	3.298300	-9.873300	26.906474	0.000636	20.778099
1627.425195	-2.981700	3.298300	-9.833200	26.896174	0.000637	20.774380
1628.431972	-3.001800	3.295800	-9.891700	26.880241	0.000636	20.770687
1629.435248	-3.013800	3.297200	-9.935100	26.913944	0.000633	20.773282
1630.425450	-3.001700	3.295800	-9.892500	26.931093	0.000633	20.766818
1631.425231	-2.996300	3.296300	-9.875900	26.995045	0.000633	20.761428
1632.433431	-2.980900	3.296300	-9.824600	27.042344	0.000633	20.753991
1633.425345	-3.012600	3.294800	-9.924600	27.030333	0.000633	20.780319
1634.432034	-2.987300	3.296200	-9.844500	27.019117	0.000631	20.780419
1635.434221	-2.990800	3.293500	-9.848400	27.030730	0.000630	20.793995
1636.440550	-3.015600	3.293500	-9.931200	27.018322	0.000628	20.766818
1637.430870	-3.008200	3.293900	-9.908000	26.960898	0.000628	20.776401
1638.425979	-3.010200	3.290600	-9.904300	26.936974	0.000627	20.763724
1639.437212	-2.999300	3.291300	-9.870500	26.918510	0.000628	20.787831
1640.429146	-2.999800	3.292000	-9.874000	26.913869	0.000626	20.799760
1641.429159	-2.999100	3.292000	-9.872100	26.971519	0.000626	20.781867
1642.431978	-3.007400	3.291100	-9.897000	26.987749	0.000623	20.788705
1643.432197	-3.000100	3.291200	-9.872500	26.941714	0.000627	20.775603
1644.431231	-2.986000	3.290000	-9.822600	26.949334	0.000628	20.780894
1645.442054	-3.004300	3.290300	-9.883700	26.984374	0.000625	20.788155
1646.432664	-2.985100	3.289000	-9.816900	27.020059	0.000623	20.796540
1647.433324	-3.012400	3.289500	-9.907900	27.044874	0.000620	20.772658
1648.430644	-3.004400	3.289400	-9.880600	27.042442	0.000620	20.777799
1649.447769	-3.013800	3.287000	-9.904700	27.024725	0.000622	20.802655
1650.436677	-2.988300	3.287900	-9.823600	27.043658	0.000621	20.779021
1651.443092	-2.975700	3.288500	-9.784800	26.993506	0.000618	20.792123
1652.437941	-2.989000	3.287700	-9.826500	26.984945	0.000621	20.793471
1653.443344	-2.998600	3.286800	-9.854500	26.954569	0.000621	20.790426
1654.438726	-3.014400	3.284900	-9.901200	26.982091	0.000619	20.780644
1655.444284	-2.996000	3.286200	-9.843100	27.014724	0.000619	20.778847
1656.437918	-2.958500	3.286800	-9.722400	27.061277	0.000616	20.805275
1657.444919	-3.007000	3.284700	-9.875500	27.108497	0.000617	20.791599
1658.438536	-2.996900	3.284600	-9.842200	27.149835	0.000616	20.799984
1659.444515	-3.010000	3.285200	-9.887400	27.165616	0.000615	20.810640
1660.437406	-2.993200	3.283300	-9.826300	27.189410	0.000612	20.808968
1661.443931	-3.025700	3.282000	-9.929000	27.177352	0.000612	20.792098
1662.451666	-2.992900	3.282400	-9.823100	27.162589	0.000612	20.794319
1663.453942	-3.002900	3.283200	-9.857400	27.163581	0.000613	20.784412
1664.442147	-3.003900	3.282100	-9.857200	27.136734	0.000611	20.801032
1665.442708	-2.989500	3.282900	-9.813700	27.108448	0.000612	20.804825
1666.439617	-2.990000	3.281500	-9.809800	27.082592	0.000614	20.792572
1667.442459	-3.005400	3.280700	-9.858600	27.094949	0.000608	20.799310
1668.437731	-3.017300	3.279900	-9.894800	27.129712	0.000609	20.799660
1669.444979	-3.014800	3.280000	-9.887200	27.149910	0.000609	20.808594
1670.443338	-3.005300	3.279700	-9.855600	27.175169	0.000608	20.817403
1671.445524	-3.014600	3.279900	-9.886500	27.177153	0.000605	20.806597
1672.439053	-3.000500	3.278900	-9.836400	27.166583	0.000604	20.810665
1673.442333	-3.016000	3.277700	-9.884400	27.159636	0.000608	20.822169
1674.445534	-2.993000	3.279300	-9.813100	27.116115	0.000608	20.813959
1675.451540	-3.013100	3.279000	-9.878800	27.100160	0.000604	20.813086
1676.445934	-3.011100	3.276900	-9.866500	27.059812	0.000605	20.817078
1677.443302	-2.989900	3.276600	-9.796200	27.062046	0.000604	20.819324
1678.443931	-3.029600	3.275100	-9.920800	27.016907	0.000603	20.802854
1679.443534	-3.002900	3.276600	-9.836400	27.009537	0.000603	20.812512
1680.445751	-3.007300	3.276200	-9.851900	27.015419	0.000602	20.817478
1681.447694	-2.990100	3.277500	-9.796900	27.018843	0.000598	20.813809
1682.449412	-2.999700	3.274700	-9.822000	27.045271	0.000601	20.822843
1683.445706	-3.017100	3.275200	-9.880100	27.067232	0.000601	20.818850
1684.443771	-3.002700	3.273300	-9.827700	27.076885	0.000597	20.828083
1685.453065	-2.989800	3.274600	-9.788600	27.151746	0.000598	20.814708
1686.447072	-2.994500	3.274400	-9.804000	27.197251	0.000596	20.817802
1687.450344	-2.999200	3.272300	-9.813400	27.224369	0.000598	20.823267
1688.453618	-3.016500	3.272500	-9.870800	27.251214	0.000598	20.829406
1689.455971	-3.009200	3.272700	-9.846800	27.212361	0.000596	20.830155
1690.443946	-2.987700	3.273100	-9.778200	27.249527	0.000593	20.814907
1691.448299	-3.012200	3.271800	-9.854300	27.240793	0.000595	20.812287
1692.449320	-3.000000	3.271100	-9.812600	27.220548	0.000593	20.818476
1693.458055	-3.024000	3.269200	-9.884400	27.190527	0.000592	20.794444
1694.451279	-3.010300	3.269500	-9.840800	27.180255	0.000592	20.826785
1695.446066	-3.003400	3.270800	-9.822000	27.166062	0.000591	20.829106
1696.454877	-2.978900	3.269700	-9.739400	27.171000	0.000593	20.813684
1697.450378	-2.995400	3.269000	-9.791100	27.180552	0.000587	20.831352
1698.455107	-2.987700	3.269500	-9.767400	27.200253	0.000589	20.828408
1699.447413	-2.989100	3.268400	-9.767800	27.163978	0.000590	20.832700
1700.455727	-2.989000	3.269500	-9.771700	27.147230	0.000589	20.824864
1701.464283	-3.024500	3.265300	-9.874100	27.145245	0.000587	20.820497
1702.451582	-3.005100	3.267100	-9.816500	27.173183	0.000587	20.832949
1703.459950	-2.990200	3.267500	-9.769000	27.219680	0.000587	20.809542
1704.459733	-2.984500	3.265800	-9.745900	27.253471	0.000585	20.816504
1705.454677	-3.002700	3.265200	-9.803600	27.281903	0.000583	20.850792
1706.457503	-3.017200	3.266100	-9.853900	27.325517	0.000583	20.826386
1707.452034	-3.008500	3.265600	-9.824100	27.376844	0.000584	20.832974
1708.454298	-2.992700	3.264400	-9.767000	27.420726	0.000582	20.840136
1709.454493	-3.003000	3.263000	-9.797000	27.415716	0.000582	20.829406
1710.455330	-2.996600	3.263800	-9.779800	27.419461	0.000581	20.831752
1711.456965	-2.987100	3.262900	-9.745600	27.433080	0.000581	20.839762
1712.454528	-3.001600	3.264100	-9.796900	27.436900	0.000580	20.855458
1713.454451	-2.992600	3.262300	-9.762500	27.432484	0.000580	20.833947
1714.458855	-2.978500	3.261300	-9.713100	27.472967	0.000579	20.814932
1715.454514	-2.970100	3.263800	-9.693000	27.483459	0.000578	20.868634
1716.456839	-3.013100	3.260700	-9.824200	27.509107	0.000579	20.846075
1717.461588	-3.010300	3.260000	-9.812400	27.439653	0.000577	20.848271
1718.458856	-3.018400	3.260000	-9.837900	27.429111	0.000577	20.854734
1719.464467	-3.022800	3.259700	-9.851900	27.410606	0.000580	20.837067
1720.458827	-2.953400	3.262700	-9.635000	27.422140	0.000575	20.837765
1721.462194	-2.985200	3.259800	-9.730200	27.410630	0.000573	20.852738
1722.462922	-3.016900	3.259000	-9.831500	27.373321	0.000576	20.843180
1723.469618	-3.002500	3.258200	-9.780500	27.347720	0.000573	20.842082
1724.458266	-2.973800	3.259400	-9.691700	27.346752	0.000569	20.858178
1725.457129	-2.981000	3.257800	-9.710000	27.355683	0.000569	20.861472
1726.458202	-3.006700	3.256600	-9.790500	27.375082	0.000571	20.854435
1727.463479	-3.018700	3.255600	-9.826500	27.379994	0.000569	20.851790
1728.463605	-2.983300	3.258200	-9.718300	27.418345	0.000572	20.853861
1729.463956	-3.007800	3.255400	-9.790700	27.399170	0.000570	20.857330
1730.461109	-3.008000	3.255900	-9.793000	27.434245	0.000566	20.861322
1731.461493	-3.007000	3.255800	-9.789300	27.444714	0.000566	20.844353
1732.476560	-2.982000	3.255900	-9.707800	27.440918	0.000567	20.854285
1733.465803	-3.003500	3.255800	-9.777300	27.426481	0.000567	20.850667
1734.461679	-2.983900	3.254500	-9.710400	27.444689	0.000566	20.852863
1735.470462	-2.984700	3.255300	-9.714800	27.479193	0.000564	20.880936
1736.471358	-3.001200	3.254900	-9.767700	27.492041	0.000563	20.843605
1737.461168	-3.011000	3.252700	-9.792500	27.453668	0.000563	20.867586
1738.462878	-3.005700	3.251600	-9.772000	27.406860	0.000564	20.867910
1739.463019	-3.009700	3.251700	-9.784900	27.352557	0.000563	20.859750
1740.483428	-2.969800	3.253200	-9.660000	27.360099	0.000560	20.863069
1741.482021	-3.013400	3.250900	-9.795100	27.353600	0.000562	20.857954
1742.466462	-2.981400	3.251000	-9.691000	27.343056	0.000560	20.870107
1743.474394	-2.981300	3.251300	-9.692000	27.317405	0.000558	20.864217
1744.467119	-2.977700	3.251000	-9.679700	27.311947	0.000557	20.847348
1745.480428	-2.995000	3.249600	-9.731800	27.311426	0.000558	20.876220
1746.495220	-3.003900	3.250200	-9.761700	27.290165	0.000556	20.866688
1747.481014	-3.007900	3.249700	-9.773700	27.287014	0.000558	20.896707
1748.469461	-2.988900	3.250000	-9.713100	27.313584	0.000555	20.871754
1749.481871	-3.026500	3.246600	-9.825100	27.370394	0.000557	20.865840
1750.469331	-2.999700	3.247900	-9.741700	27.392076	0.000555	20.853512
1751.483513	-3.000000	3.247500	-9.741400	27.398724	0.000551	20.874898
1752.473997	-2.994300	3.249000	-9.727000	27.451883	0.000552	20.874798
1753.470275	-2.999200	3.248300	-9.739800	27.504246	0.000553	20.867736
1754.475121	-2.987700	3.247100	-9.700400	27.559284	0.000553	20.873326
1755.482382	-2.991200	3.247100	-9.711500	27.609658	0.000553	20.860949
1756.476309	-2.995700	3.245900	-9.723200	27.629549	0.000550	20.880014
1757.475375	-3.020000	3.243700	-9.793400	27.663997	0.000549	20.873900
1758.482402	-2.999900	3.245300	-9.735300	27.665014	0.000550	20.882983
1759.475806	-2.996100	3.244000	-9.716900	27.625754	0.000549	20.890893
1760.478006	-3.032200	3.243200	-9.833100	27.608244	0.000546	20.874699
1761.473840	-3.011500	3.243100	-9.765500	27.551819	0.000546	20.876246
1762.475141	-3.001800	3.244300	-9.736900	27.543981	0.000547	20.885429
1763.484463	-2.976000	3.243800	-9.651800	27.529273	0.000548	20.875373
1764.477692	-3.046800	3.241600	-9.874700	27.529546	0.000544	20.890345
1765.478354	-2.994600	3.242500	-9.709000	27.560575	0.000544	20.876995
1766.474708	-3.023300	3.240400	-9.795400	27.579003	0.000542	20.867088
1767.479483	-3.002100	3.240700	-9.727900	27.594207	0.000541	20.901824
1768.479198	-2.991400	3.241000	-9.694500	27.638948	0.000541	20.902272
1769.485923	-2.996100	3.241500	-9.710800	27.666080	0.000538	20.892117
1770.481590	-2.997100	3.239500	-9.707600	27.668362	0.000541	20.888249
1771.488908	-3.007900	3.239500	-9.742900	27.725153	0.000540	20.883283
1772.487658	-2.971600	3.239700	-9.625800	27.760987	0.000539	20.897532
1773.478872	-2.995600	3.239600	-9.703400	27.764707	0.000536	20.872828
1774.494950	-2.996700	3.238500	-9.703700	27.698122	0.000537	20.897332
1775.478948	-3.007700	3.236900	-9.734600	27.659782	0.000537	20.887201
1776.481583	-2.995200	3.236400	-9.691500	27.629599	0.000536	20.879116
1777.483273	-3.005100	3.236100	-9.723700	27.607551	0.000533	20.891069
1778.480748	-3.008400	3.237100	-9.737100	27.623647	0.000533	20.904419
1779.484532	-2.976200	3.237000	-9.632200	27.629574	0.000534	20.910383
1780.484302	-2.992500	3.235600	-9.681500	27.665114	0.000531	20.909634
1781.481735	-3.005700	3.233800	-9.718400	27.649068	0.000532	20.901075
1782.483281	-3.001600	3.234900	-9.708800	27.654152	0.000534	20.879166
1783.484998	-2.997100	3.233200	-9.688900	27.640958	0.000530	20.905243
1784.488471	-3.011100	3.233700	-9.735400	27.636866	0.000531	20.906815
1785.488377	-3.033500	3.232400	-9.804800	27.655888	0.000531	20.889921
1786.486323	-3.017000	3.232500	-9.751500	27.634460	0.000530	20.902498
1787.486402	-3.016100	3.232600	-9.748500	27.614446	0.000527	20.882835
1788.486026	-3.003300	3.232100	-9.705800	27.645944	0.000526	20.870433
1789.486765	-3.030700	3.231500	-9.792800	27.628359	0.000525	20.898256
1790.486426	-2.993200	3.232100	-9.673000	27.551299	0.000525	20.894214
1791.488622	-2.992500	3.230800	-9.667300	27.548671	0.000523	20.893939
1792.487378	-2.998900	3.230000	-9.684600	27.572456	0.000526	20.910758
1793.487678	-2.978300	3.230100	-9.618300	27.648101	0.000523	20.903896
1794.491725	-2.999500	3.229800	-9.686100	27.638206	0.000523	20.886353
1795.502454	-3.039700	3.228100	-9.810000	27.646935	0.000523	20.867638
1796.489474	-2.992500	3.230000	-9.665200	27.687583	0.000523	20.874401
1797.488281	-3.020000	3.228300	-9.747700	27.696784	0.000521	20.868486
1798.488394	-3.006800	3.227800	-9.704800	27.713127	0.000521	20.874975
1799.496125	-2.991200	3.229200	-9.658700	27.694527	0.000520	20.888025
1800.489533	-2.987300	3.228300	-9.642900	27.654425	0.000518	20.878493
1801.489189	-3.024300	3.226100	-9.755200	27.704323	0.000516	20.859004
1802.490499	-3.031300	3.225700	-9.777500	27.698669	0.000517	20.885081
1803.490491	-2.999100	3.225800	-9.673800	27.733139	0.000517	20.876147
1804.490761	-2.983100	3.226200	-9.622600	27.765030	0.000516	20.857507
1805.492664	-3.001900	3.224500	-9.678600	27.807459	0.000514	20.867962
1806.488787	-3.003300	3.226100	-9.687700	27.824221	0.000513	20.868237
1807.494531	-3.003100	3.224500	-9.682900	27.822758	0.000514	20.861075
1808.493672	-3.002900	3.224600	-9.681200	27.768898	0.000513	20.866615
1809.497326	-2.989900	3.224300	-9.638900	27.684681	0.000513	20.864369
1810.493616	-3.004100	3.222500	-9.680600	27.613503	0.000512	20.869559
1811.490453	-2.993700	3.223200	-9.648400	27.586370	0.000511	20.865966
1812.492350	-3.000700	3.223700	-9.671900	27.563899	0.000510	20.862796
1813.491344	-3.001800	3.223500	-9.675200	27.555342	0.000507	20.845653
1814.494762	-3.006600	3.221700	-9.685200	27.528580	0.000508	20.839589
1815.492697	-2.996200	3.222400	-9.654100	27.500303	0.000508	20.842434
1816.493832	-3.006200	3.221500	-9.684000	27.500030	0.000506	20.867288
1817.493719	-2.990600	3.220200	-9.629400	27.503800	0.000505	20.872503
1818.496127	-3.027100	3.219500	-9.742800	27.560402	0.000505	20.878243
1819.492627	-2.999500	3.218900	-9.654900	27.610923	0.000505	20.861748
1820.492484	-3.002100	3.218700	-9.661600	27.617099	0.000505	20.859902
1821.491949	-3.002600	3.217900	-9.661300	27.636667	0.000500	20.867737
1822.491389	-3.010600	3.222200	-9.699000	27.674339	0.000501	20.865341
1823.492427	-3.007700	3.218900	-9.679500	27.691550	0.000500	20.852315
1824.492287	-3.000600	3.219100	-9.657500	27.716945	0.000501	20.850369
1825.492383	-3.006900	3.217100	-9.672700	27.727087	0.000500	20.850618
1826.497645	-2.990100	3.218100	-9.621700	27.725748	0.000501	20.855909
1827.493266	-3.004900	3.216200	-9.662800	27.689715	0.000498	20.844305
1828.493073	-2.969800	3.216400	-9.550100	27.672380	0.000497	20.837767
1829.493420	-2.993300	3.215700	-9.624800	27.661815	0.000498	20.844679
1830.494532	-3.000900	3.215200	-9.647000	27.699808	0.000495	20.836444
1831.494158	-2.990000	3.216100	-9.614300	27.704495	0.000495	20.834523
1832.492568	-2.996700	3.213500	-9.629200	27.669924	0.000494	20.830081
1833.496285	-2.997900	3.214300	-9.634300	27.640065	0.000493	20.831803
1834.496374	-3.010200	3.214500	-9.675500	27.631930	0.000495	20.857281
1835.498076	-2.992100	3.214300	-9.616200	27.659335	0.000492	20.851667
1836.494191	-2.990800	3.212300	-9.606500	27.693212	0.000491	20.847824
1837.505310	-2.996900	3.212500	-9.626400	27.691029	0.000489	20.841834
1838.494115	-2.986400	3.212800	-9.593600	27.625754	0.000491	20.856283
1839.498219	-2.998700	3.211800	-9.629800	27.580987	0.000489	20.852490
1840.494094	-2.999900	3.212200	-9.635300	27.572009	0.000488	20.842982
1841.495906	-3.008000	3.210700	-9.657200	27.553307	0.000486	20.845028
1842.505802	-3.002900	3.209800	-9.637600	27.558963	0.000488	20.831753
1843.499669	-3.007100	3.212100	-9.658600	27.594529	0.000488	20.822969
1844.497326	-3.008200	3.207900	-9.649400	27.636692	0.000484	20.836943
1845.498228	-3.007100	3.207500	-9.644800	27.704520	0.000485	20.819849
1846.499800	-3.008700	3.208800	-9.652200	27.748985	0.000487	20.838041
1847.497482	-2.999200	3.207000	-9.617700	27.761061	0.000484	20.828384
1848.497476	-2.993000	3.207200	-9.597000	27.765823	0.000483	20.829382
1849.501056	-3.022500	3.204900	-9.685700	27.766740	0.000482	20.822719
1850.499674	-2.987100	3.207200	-9.579400	27.703255	0.000481	20.849870
1851.496374	-2.992400	3.207400	-9.596600	27.717837	0.000481	20.825664
1852.501024	-2.970000	3.207100	-9.523900	27.687607	0.000480	20.821321
1853.497396	-2.994900	3.206300	-9.601200	27.657723	0.000477	20.822070
1854.499445	-3.000200	3.205000	-9.614600	27.621861	0.000476	20.828658
1855.500151	-2.986700	3.205000	-9.571200	27.616677	0.000476	20.810167
1856.502156	-2.993800	3.202700	-9.585100	27.605715	0.000476	20.825214
1857.503919	-2.994200	3.203500	-9.590500	27.582872	0.000473	20.804127
1858.503321	-3.020000	3.203100	-9.672300	27.562509	0.000474	20.824416
1859.502335	-2.998900	3.205100	-9.609700	27.524164	0.000474	20.832301
1860.500679	-2.986300	3.202400	-9.561800	27.606360	0.000473	20.807846
1861.502928	-2.995500	3.203500	-9.594700	27.654846	0.000469	20.833874
1862.500428	-2.995100	3.202500	-9.590600	27.699089	0.000470	20.808220
1863.499917	-3.009400	3.201200	-9.631800	27.712084	0.000470	20.838839
1864.500799	-3.021600	3.198500	-9.663900	27.727335	0.000471	20.821945
1865.503049	-3.023900	3.201300	-9.679800	27.713844	0.000468	20.819749
1866.515013	-3.009100	3.200700	-9.630600	27.746529	0.000471	20.826088
1867.509788	-3.008800	3.199800	-9.626500	27.708835	0.000468	20.830829
1868.509422	-3.034400	3.199500	-9.707000	27.720441	0.000466	20.826861
1869.503871	-3.011100	3.198800	-9.631000	27.736139	0.000466	20.807571
1870.506580	-2.992500	3.198400	-9.571000	27.789330	0.000464	20.832651
1871.507353	-3.010400	3.197500	-9.624100	27.851049	0.000462	20.805624
1872.504179	-3.018500	3.197900	-9.652300	27.921319	0.000462	20.827036
1873.504780	-2.985900	3.197300	-9.545300	27.952857	0.000461	20.857356
1874.506402	-3.005400	3.196900	-9.606900	27.988237	0.000463	20.808095
1875.505164	-3.024100	3.197300	-9.667500	27.969072	0.000462	20.812512
1876.510959	-2.991500	3.197400	-9.563900	27.944923	0.000458	20.804801
1877.514892	-2.990200	3.196300	-9.556500	27.896276	0.000455	20.815582
1878.507322	-3.010900	3.193600	-9.614300	27.858166	0.000457	20.816106
1879.510752	-2.979000	3.196900	-9.522400	27.793620	0.000455	20.815158
1880.505155	-3.007300	3.193400	-9.602600	27.813929	0.000455	20.819475
1881.515039	-2.995200	3.193700	-9.564500	27.801382	0.000455	20.804951
1882.507066	-3.001000	3.193600	-9.583100	27.792852	0.000453	20.802530
1883.516541	-2.984400	3.193500	-9.529400	27.811846	0.000454	20.802206
1884.507267	-3.006000	3.192200	-9.593700	27.851868	0.000450	20.823518
1885.508870	-3.006200	3.190800	-9.590800	27.883259	0.000451	20.825239
1886.509802	-2.974100	3.191900	-9.491900	27.855686	0.000451	20.821197
1887.507373	-3.022100	3.192800	-9.647200	27.826005	0.000448	20.828309
1888.520304	-2.985300	3.191000	-9.524900	27.806044	0.000447	20.806323
1889.507140	-2.995300	3.190300	-9.554900	27.803763	0.000449	20.816830
1890.520488	-2.997000	3.192400	-9.565300	27.788562	0.000446	20.807696
1891.505175	-2.986000	3.189000	-9.521600	27.810111	0.000444	20.815632
1892.511741	-2.995100	3.190200	-9.554300	27.793595	0.000445	20.810865
1893.510716	-2.997500	3.188600	-9.557500	27.814599	0.000444	20.800234
1894.511139	-2.985800	3.189000	-9.520200	27.832303	0.000441	20.803353
1895.505631	-3.006400	3.187200	-9.580900	27.887424	0.000444	20.814259
1896.507250	-3.028200	3.185900	-9.646800	27.932501	0.000441	20.805575
1897.518550	-3.012100	3.185500	-9.593900	27.928930	0.000438	20.801507
1898.516678	-2.996600	3.186400	-9.546900	27.936096	0.000439	20.816779
1899.509639	-3.014600	3.184700	-9.599000	27.904905	0.000439	20.796291
1900.512381	-3.000200	3.183800	-9.551200	27.907805	0.000438	20.819125
1901.510725	-3.002000	3.184400	-9.557900	27.938055	0.000435	20.792198
1902.521746	-3.037100	3.183000	-9.666600	27.945195	0.000436	20.784687
1903.510922	-2.992700	3.184600	-9.529300	27.943286	0.000435	20.795567
1904.511734	-3.004400	3.184100	-9.565000	27.905772	0.000436	20.799535
1905.515019	-2.982100	3.184200	-9.494200	27.898433	0.000433	20.788829
1906.517540	-2.995400	3.183300	-9.534500	27.865034	0.000432	20.797414
1907.518667	-3.000700	3.183100	-9.550700	27.843933	0.000432	20.788979
1908.526013	-2.998900	3.182800	-9.543300	27.876266	0.000432	20.807296
1909.512735	-3.011800	3.183100	-9.585900	27.906119	0.000428	20.797040
1910.522515	-2.994300	3.180600	-9.521700	27.987195	0.000430	20.801831
1911.521738	-2.984800	3.181800	-9.496100	28.054332	0.000432	20.815831
1912.513587	-3.005700	3.179400	-9.555200	28.090700	0.000428	20.812138
1913.515332	-3.001400	3.178800	-9.539600	28.104756	0.000428	20.806847
1914.515254	-2.979400	3.178900	-9.469300	28.127315	0.000427	20.809168
1915.524310	-3.007500	3.179500	-9.560700	28.136214	0.000425	20.792049
1916.517763	-2.998100	3.177400	-9.524800	28.138693	0.000424	20.803079
1917.520382	-2.979200	3.178300	-9.467600	28.173125	0.000424	20.797439
1918.519399	-2.990000	3.176300	-9.496300	28.162813	0.000422	20.807920
1919.517691	-2.969500	3.178400	-9.437100	28.170993	0.000421	20.795293
1920.517652	-3.009700	3.173700	-9.551300	28.195360	0.000420	20.834522
1921.529730	-3.039600	3.172600	-9.641900	28.213678	0.000419	20.817877
1922.517362	-3.022600	3.174600	-9.594400	28.183709	0.000420	20.792922
1923.519407	-2.982700	3.175800	-9.471600	28.153740	0.000420	20.794045
1924.517887	-2.982300	3.175600	-9.468500	28.136090	0.000416	20.796665
1925.519864	-2.998200	3.174500	-9.517100	28.152377	0.000419	20.783190
1926.519027	-3.003200	3.172400	-9.526200	28.121564	0.000417	20.795792
1927.527143	-2.992400	3.174400	-9.497500	28.104260	0.000416	20.784063
1928.524064	-3.013200	3.172300	-9.557300	28.108847	0.000414	20.783464
1929.520322	-3.004700	3.171800	-9.529500	28.169878	0.000415	20.811714
1930.520498	-3.006900	3.174300	-9.544300	28.174711	0.000412	20.780070
1931.521471	-3.001400	3.171300	-9.517800	28.208745	0.000413	20.803903
1932.527138	-3.003000	3.171700	-9.523200	28.194765	0.000410	20.798363
1933.525081	-3.015300	3.170100	-9.557800	28.177686	0.000409	20.800134
1934.522992	-2.975700	3.171800	-9.437500	28.150493	0.000409	20.787931
1935.524503	-3.015500	3.167400	-9.550500	28.129298	0.000411	20.789354
1936.523564	-2.986200	3.169600	-9.463600	28.162565	0.000408	20.798188
1937.524081	-2.987700	3.170000	-9.469000	28.184329	0.000406	20.786434
1938.524198	-3.003300	3.167800	-9.512700	28.226691	0.000406	20.783090
1939.524714	-2.978800	3.167000	-9.433300	28.247513	0.000407	20.777974
1940.523318	-2.987100	3.166900	-9.459500	28.309973	0.000404	20.776851
1941.525465	-2.987200	3.168200	-9.462500	28.329826	0.000403	20.784512
1942.523063	-3.001100	3.164800	-9.496300	28.335948	0.000402	20.776452
1943.524218	-2.987700	3.167000	-9.460700	28.369952	0.000402	20.797414
1944.526010	-3.013200	3.164700	-9.534900	28.367151	0.000400	20.800758
1945.525602	-3.004200	3.163200	-9.501500	28.327893	0.000398	20.787782
1946.523547	-3.000600	3.164200	-9.493100	28.345242	0.000398	20.783440
1947.528207	-3.004400	3.164100	-9.505000	28.387127	0.000399	20.779622
1948.536778	-3.004300	3.161200	-9.496500	28.394636	0.000395	20.777226
1949.524364	-3.042400	3.159300	-9.610300	28.424748	0.000396	20.772933
1950.524161	-3.000800	3.161800	-9.486200	28.434512	0.000397	20.778498
1951.528723	-2.992800	3.162100	-9.462700	28.469008	0.000394	20.765821
1952.525642	-3.018500	3.160600	-9.539300	28.473048	0.000393	20.770363
1953.524576	-2.963000	3.162400	-9.369300	28.479887	0.000394	20.788156
1954.524123	-2.998200	3.158600	-9.469000	28.458451	0.000392	20.775104
1955.525212	-3.003700	3.158000	-9.485000	28.393794	0.000389	20.764049
1956.525997	-2.999800	3.159400	-9.476700	28.390274	0.000391	20.783739
1957.524769	-2.990800	3.158700	-9.445800	28.416520	0.000388	20.787881
1958.527040	-3.018500	3.157300	-9.529500	28.434958	0.000388	20.794594
1959.526816	-3.011400	3.157800	-9.508300	28.391216	0.000388	20.771885
1960.525131	-3.009600	3.157300	-9.501200	28.363706	0.000386	20.780694
1961.525875	-3.017200	3.155000	-9.518700	28.349406	0.000383	20.776726
1962.525169	-2.986100	3.157200	-9.425800	28.367572	0.000382	20.784113
1963.526393	-2.980300	3.155800	-9.403600	28.382195	0.000382	20.771810
1964.526835	-3.008200	3.154100	-9.485700	28.352801	0.000383	20.776826
1965.534983	-3.014900	3.153500	-9.506600	28.407523	0.000382	20.773133
1966.526630	-3.000600	3.153800	-9.462100	28.385888	0.000381	20.763200
1967.527540	-2.987600	3.153200	-9.418800	28.398800	0.000380	20.774780
1968.533864	-3.028800	3.153200	-9.549100	28.431513	0.000381	20.756038
1969.545739	-2.995800	3.152800	-9.444200	28.444623	0.000376	20.777774
1970.533457	-3.004800	3.150400	-9.465400	28.400510	0.000375	20.768915
1971.526014	-3.000500	3.150300	-9.451700	28.346159	0.000376	20.757810
1972.535534	-3.000600	3.150600	-9.452900	28.250834	0.000376	20.756662
1973.533452	-3.010700	3.150000	-9.481900	28.213182	0.000374	20.770437
1974.530582	-3.001900	3.148700	-9.450900	28.199227	0.000374	20.770138
1975.527039	-2.996900	3.149400	-9.437300	28.182792	0.000374	20.767343
1976.538766	-2.988400	3.148200	-9.407100	28.134132	0.000372	20.762925
1977.528951	-2.988500	3.148900	-9.409500	28.098063	0.000369	20.771660
1978.528244	-2.975000	3.148300	-9.364900	28.053167	0.000368	20.743534
1979.528121	-3.012800	3.145600	-9.476200	28.053638	0.000367	20.746380
1980.539554	-3.020900	3.144500	-9.498300	28.100294	0.000367	20.755888
1981.532487	-3.001800	3.145400	-9.440900	28.157980	0.000368	20.756587
1982.530749	-3.003700	3.146300	-9.450200	28.215686	0.000365	20.786709
1983.532439	-2.994200	3.145000	-9.416500	28.251280	0.000366	20.772284
1984.531711	-3.001200	3.143900	-9.434300	28.262385	0.000364	20.768765
1985.544095	-2.988600	3.144200	-9.395400	28.293144	0.000363	20.763699
1986.531523	-2.998600	3.142400	-9.421800	28.339492	0.000361	20.751571
1987.551255	-2.984600	3.142700	-9.378800	28.352331	0.000362	20.757386
1988.542057	-3.003300	3.141600	-9.432900	28.355280	0.000360	20.760355
1989.532341	-2.992400	3.142000	-9.401400	28.349208	0.000358	20.765147
1990.532367	-2.964600	3.141400	-9.312100	28.392778	0.000361	20.749275
1991.529383	-3.016600	3.138700	-9.466500	28.426433	0.000360	20.733852
1992.533897	-2.980900	3.140900	-9.361700	28.483530	0.000357	20.758159
1993.543120	-2.997800	3.137300	-9.403700	28.498250	0.000358	20.756861
1994.530371	-3.019600	3.137800	-9.473100	28.506899	0.000355	20.754665
1995.542488	-3.004700	3.137000	-9.424400	28.518273	0.000355	20.734825
1996.533802	-3.001800	3.136300	-9.413400	28.537378	0.000355	20.752644
1997.536054	-3.030200	3.133700	-9.493500	28.599327	0.000353	20.726839
1998.533657	-2.966100	3.137100	-9.302900	28.637584	0.000350	20.748302
1999.540152	-3.004100	3.134800	-9.416500	28.646280	0.000354	20.747578
2000.534688	-2.999200	3.133500	-9.395700	28.645463	0.000349	20.724468
2001.531568	-3.003300	3.134500	-9.412600	28.593528	0.000350	20.739966
2002.534266	-3.004600	3.133600	-9.414200	28.604703	0.000348	20.737945
2003.538122	-2.972200	3.134600	-9.315200	28.620958	0.000350	20.741513
2004.541638	-3.008800	3.132400	-9.424000	28.627202	0.000349	20.757286
2005.544985	-2.993300	3.131500	-9.372400	28.636716	0.000345	20.742212
2006.542344	-3.004800	3.130200	-9.405000	28.650741	0.000345	20.722197
2007.541211	-3.007200	3.129800	-9.410700	28.678887	0.000345	20.731580
2008.537547	-3.004600	3.130200	-9.404000	28.685601	0.000340	20.735972
2009.542989	-3.007700	3.130400	-9.414100	28.697965	0.000340	20.732304
2010.542150	-2.986300	3.128500	-9.341300	28.718727	0.000342	20.730932
2011.537902	-2.991100	3.128000	-9.354600	28.688228	0.000342	20.746205
2012.552642	-3.017400	3.126100	-9.431900	28.678268	0.000340	20.748975
2013.543867	-2.994600	3.126000	-9.359700	28.682677	0.000339	20.749150
2014.550259	-2.967900	3.127500	-9.279800	28.669794	0.000338	20.715308
2015.546774	-3.008100	3.125700	-9.400500	28.593156	0.000338	20.742911
2016.548219	-3.026300	3.124200	-9.453900	28.556136	0.000337	20.761578
2017.540364	-3.003200	3.123400	-9.379600	28.476071	0.000336	20.744009
2018.542929	-2.981700	3.124600	-9.315300	28.429258	0.000336	20.742860
2019.542916	-2.997500	3.123300	-9.361400	28.377238	0.000336	20.727462
2020.543199	-3.007600	3.122500	-9.390100	28.354337	0.000334	20.738068
2021.540439	-3.054300	3.120300	-9.530000	28.340037	0.000334	20.731255
2022.559424	-2.985900	3.121900	-9.319500	28.370720	0.000332	20.745556
2023.543322	-3.008300	3.119200	-9.381700	28.407350	0.000330	20.741188
2024.543008	-2.989800	3.121100	-9.328800	28.430620	0.000330	20.745181
2025.551082	-3.010400	3.118900	-9.388400	28.455179	0.000329	20.757110
2026.553433	-3.004300	3.118600	-9.368900	28.396296	0.000328	20.749972
2027.545667	-2.982700	3.119300	-9.302600	28.346505	0.000327	20.735398
2028.545622	-2.982400	3.118300	-9.298600	28.350272	0.000328	20.738717
2029.547122	-3.017600	3.116900	-9.403800	28.326083	0.000324	20.752768
2030.555377	-3.011400	3.116900	-9.385600	28.310642	0.000324	20.738642
2031.544855	-2.989300	3.116800	-9.315800	28.331287	0.000325	20.738567
2032.548855	-3.035600	3.114400	-9.452000	28.297654	0.000322	20.759705
2033.545194	-3.015100	3.114400	-9.389300	28.249346	0.000321	20.739515
2034.545871	-2.992000	3.113100	-9.313000	28.200986	0.000324	20.748201
2035.548085	-3.000100	3.112300	-9.335800	28.190724	0.000323	20.722695
2036.546952	-3.014600	3.110700	-9.376800	28.149153	0.000320	20.734424
2037.553716	-2.997500	3.111800	-9.326300	28.123546	0.000319	20.754165
2038.548625	-2.992300	3.110200	-9.305800	28.157557	0.000318	20.749049
2039.549370	-2.984300	3.109700	-9.279000	28.221064	0.000317	20.743758
2040.546936	-2.986000	3.110800	-9.288000	28.327570	0.000317	20.754739
2041.548426	-3.010800	3.108100	-9.355700	28.405217	0.000314	20.739041
2042.547839	-3.010600	3.109500	-9.360300	28.461424	0.000314	20.740164
2043.549078	-3.006500	3.108600	-9.344300	28.476863	0.000314	20.737219
2044.551685	-3.043800	3.105700	-9.451100	28.525160	0.000317	20.737494
2045.554942	-2.999200	3.107600	-9.319300	28.500974	0.000313	20.721671
2046.560327	-3.010200	3.104500	-9.343200	28.476912	0.000312	20.746753
2047.557550	-2.993100	3.104000	-9.289000	28.449603	0.000314	20.745330
2048.548770	-2.999400	3.103700	-9.307400	28.460903	0.000313	20.736321
2049.549455	-3.004000	3.105400	-9.327100	28.482091	0.000308	20.755288
2050.554013	-3.006500	3.102800	-9.327300	28.563420	0.000308	20.758008
2051.551873	-3.005900	3.102200	-9.323700	28.622938	0.000308	20.743508
2052.565740	-3.004600	3.099400	-9.311900	28.665060	0.000310	20.741362
2053.561360	-2.981200	3.102300	-9.247000	28.681239	0.000308	20.751494
2054.563415	-3.000500	3.098900	-9.296100	28.702175	0.000309	20.737494
2055.566687	-3.019100	3.097900	-9.351700	28.685996	0.000305	20.741112
2056.552395	-3.012200	3.098700	-9.332200	28.687111	0.000304	20.725165
2057.565349	-3.000500	3.098200	-9.295300	28.624574	0.000304	20.746104
2058.558676	-3.015500	3.096300	-9.335600	28.591668	0.000303	20.736196
2059.553439	-2.972300	3.098000	-9.207200	28.578089	0.000302	20.773256
2060.554237	-2.986000	3.097700	-9.248100	28.600712	0.000300	20.746253
2061.555182	-3.008100	3.095400	-9.310500	28.625862	0.000301	20.749298
2062.559667	-2.980900	3.094700	-9.223400	28.645882	0.000300	20.739116
2063.565215	-2.985100	3.093300	-9.233200	28.632230	0.000297	20.748599
2064.557011	-2.991300	3.094500	-9.256100	28.638598	0.000300	20.735572
2065.564608	-3.005800	3.092100	-9.293000	28.689638	0.000297	20.763273
2066.556540	-3.038600	3.091400	-9.392800	28.700738	0.000295	20.753116
2067.565784	-3.000900	3.090500	-9.273600	28.705768	0.000295	20.750596
2068.556410	-2.980700	3.090200	-9.209300	28.690183	0.000293	20.758132
2069.556007	-2.956500	3.091100	-9.137400	28.651953	0.000295	20.749972
2070.560645	-2.995300	3.088000	-9.249000	28.622269	0.000292	20.740938
2071.564431	-2.995400	3.089400	-9.253300	28.645287	0.000295	20.756061
2072.560944	-3.040600	3.087100	-9.384700	28.572514	0.000289	20.758632
2073.558930	-3.019800	3.085800	-9.317500	28.574868	0.000290	20.741561
2074.557490	-3.007800	3.086700	-9.283200	28.545480	0.000293	20.729982
2075.558588	-2.982400	3.085300	-9.199700	28.600761	0.000287	20.762425
2076.557845	-2.996300	3.083900	-9.239700	28.599523	0.000286	20.740788
2077.569810	-2.970200	3.083000	-9.155200	28.607848	0.000287	20.770985
2078.558424	-2.995000	3.083100	-9.233200	28.584234	0.000284	20.741511
2079.561100	-3.008900	3.081300	-9.270400	28.570358	0.000285	20.776849
2080.560896	-3.004900	3.080600	-9.256100	28.607303	0.000285	20.743408
2081.560879	-2.993300	3.080500	-9.219700	28.645560	0.000285	20.779096
2082.572990	-3.012400	3.079400	-9.274600	28.685600	0.000284	20.742609
2083.566662	-2.978300	3.079500	-9.171200	28.708889	0.000284	20.773181
2084.567077	-2.990900	3.078600	-9.206300	28.712704	0.000282	20.761377
2085.575260	-2.993000	3.078300	-9.212000	28.707923	0.000285	20.761776
2086.574621	-2.990700	3.076500	-9.199900	28.687012	0.000280	20.740713
2087.565554	-2.979400	3.077600	-9.168300	28.660104	0.000281	20.762450
2088.564270	-2.986300	3.075700	-9.183300	28.666075	0.000280	20.757084
2089.564359	-3.009800	3.072800	-9.247500	28.674722	0.000279	20.774803
2090.564247	-3.002300	3.073000	-9.225400	28.756730	0.000277	20.776325
2091.569239	-2.975400	3.072200	-9.139900	28.779944	0.000277	20.759879
2092.565837	-3.017200	3.071400	-9.265500	28.743996	0.000278	20.767291
2093.575482	-2.993900	3.071100	-9.194100	28.729701	0.000278	20.750995
2094.570783	-3.004100	3.069800	-9.221300	28.700391	0.000277	20.763198
2095.569816	-3.001400	3.069600	-9.211700	28.670882	0.000274	20.778522
2096.567372	-2.987800	3.068300	-9.166000	28.654034	0.000277	20.777199
2097.570560	-3.006900	3.067100	-9.220400	28.639886	0.000273	20.749198
2098.583090	-2.973200	3.068400	-9.121200	28.626729	0.000275	20.761077
2099.570173	-3.004300	3.067400	-9.213600	28.664094	0.000275	20.796814
2100.570083	-2.990100	3.064600	-9.162500	28.708419	0.000272	20.778397
2101.574319	-3.007700	3.063100	-9.212000	28.741196	0.000273	20.765894
2102.578787	-3.013900	3.062300	-9.227400	28.755343	0.000271	20.773031
2103.576032	-2.976000	3.061500	-9.110400	28.759406	0.000271	20.773805
2104.577754	-3.021700	3.061400	-9.248400	28.839673	0.000271	20.776900
2105.571410	-3.003600	3.059600	-9.189000	28.834396	0.000272	20.752143
2106.575228	-2.994800	3.059500	-9.160900	28.778259	0.000268	20.780468
2107.582757	-2.992200	3.060100	-9.155100	28.784701	0.000270	20.785060
2108.573226	-3.019800	3.057500	-9.232200	28.816857	0.000266	20.772407
2109.573275	-2.998600	3.058700	-9.170700	28.823868	0.000267	20.791324
2110.585003	-2.950400	3.058100	-9.020900	28.870391	0.000267	20.780818
2111.577828	-2.981300	3.057300	-9.113600	28.872769	0.000265	20.774204
2112.572759	-2.987800	3.056700	-9.131500	28.880250	0.000268	20.786482
2113.578243	-3.013000	3.052600	-9.195500	28.942822	0.000265	20.777448
2114.583913	-3.021100	3.051800	-9.218300	28.941410	0.000262	20.771284
2115.578738	-3.006200	3.051400	-9.172400	28.965090	0.000263	20.772857
2116.580378	-3.002400	3.052200	-9.162800	29.000535	0.000263	20.771109
2117.577874	-2.996700	3.050300	-9.140000	29.055868	0.000263	20.788454
2118.581957	-2.963600	3.049400	-9.035100	29.014035	0.000260	20.779021
2119.578923	-3.015900	3.047700	-9.190700	29.007223	0.000258	20.783063
2120.577581	-3.012100	3.046400	-9.174900	28.954018	0.000260	20.784935
2121.576362	-3.026300	3.046000	-9.216700	28.945547	0.000260	20.777823
2122.583818	-2.991700	3.046100	-9.112200	28.955281	0.000259	20.772457
2123.575549	-3.011900	3.044600	-9.169200	28.960979	0.000260	20.789577
2124.583398	-3.017100	3.042300	-9.177600	28.944903	0.000259	20.792347
2125.579558	-3.010500	3.043100	-9.160000	28.947256	0.000259	20.798985
2126.576412	-3.033200	3.040700	-9.222100	28.955356	0.000260	20.787705
2127.578047	-3.035400	3.038400	-9.221700	28.991941	0.000256	20.793271
2128.581960	-2.973200	3.040900	-9.039800	28.966849	0.000258	20.787905
2129.576879	-2.966500	3.038600	-9.012500	28.905096	0.000256	20.789702
2130.577950	-2.997100	3.038200	-9.103400	28.872596	0.000257	20.792047
2131.576208	-2.997900	3.035300	-9.097900	28.872645	0.000256	20.772183
2132.576766	-2.975800	3.035100	-9.030600	28.877500	0.000253	20.773755
2133.583222	-2.995000	3.034900	-9.088700	28.861399	0.000255	20.793570
2134.583358	-2.968600	3.034200	-9.005900	28.904452	0.000254	20.799010
2135.580333	-3.006700	3.032900	-9.118100	28.949857	0.000254	20.783587
2136.580338	-2.976800	3.033600	-9.028900	28.965536	0.000254	20.791324
2137.586361	-2.979700	3.030500	-9.028900	29.018963	0.000252	20.809117
2138.582566	-3.006000	3.028900	-9.102900	29.018567	0.000253	20.820571
2139.581426	-3.047300	3.025400	-9.216900	29.024313	0.000249	20.795541
2140.578773	-2.998600	3.026200	-9.072600	28.987655	0.000251	20.801755
2141.580397	-2.987600	3.027200	-9.043000	28.998157	0.000250	20.812336
2142.583722	-3.000400	3.025900	-9.076900	29.072065	0.000249	20.816628
2143.585483	-3.021500	3.023500	-9.133800	29.031347	0.000247	20.794567
2144.580642	-3.021600	3.022500	-9.131000	29.007866	0.000249	20.818799
2145.585821	-3.010600	3.020900	-9.093300	28.939279	0.000249	20.801854
2146.579961	-3.000600	3.019600	-9.059400	28.874799	0.000247	20.812285
2147.581903	-3.004200	3.019600	-9.070200	28.806476	0.000249	20.806521
2148.584682	-2.998700	3.018300	-9.049900	28.766144	0.000247	20.792920
2149.585116	-2.981600	3.017600	-8.996900	28.704973	0.000245	20.786307
2150.592918	-2.948900	3.018400	-8.900400	28.690256	0.000246	20.804200
2151.585505	-2.991600	3.015600	-9.020900	28.712059	0.000248	20.828531
2152.596874	-3.017100	3.013100	-9.090200	28.767456	0.000247	20.823165
2153.583800	-3.005800	3.012200	-9.052200	28.839498	0.000245	20.802802
2154.582389	-2.997100	3.010600	-9.022400	28.897093	0.000245	20.821468
2155.591230	-3.036600	3.009200	-9.137000	28.937396	0.000244	20.809914
2156.591339	-3.021400	3.009900	-9.093600	28.933507	0.000245	20.800780
2157.583602	-3.008400	3.007500	-9.046600	28.948642	0.000245	20.826459
2158.584900	-2.993300	3.008300	-9.004000	28.986465	0.000244	20.809090
2159.590200	-3.020000	3.005700	-9.075300	29.007865	0.000245	20.835393
2160.583218	-3.016200	3.004800	-9.062200	28.977399	0.000244	20.802328
2161.589613	-3.030600	3.004200	-9.103700	28.954041	0.000244	20.812459
2162.584095	-3.022800	3.002000	-9.073700	28.956989	0.000243	20.832972
2163.590586	-3.035300	3.002000	-9.110600	28.924218	0.000243	20.823190
2164.583783	-2.989100	3.000800	-8.968300	28.883791	0.000240	20.818498
2165.589716	-3.016400	2.998000	-9.042300	28.909330	0.000239	20.825261
2166.586318	-2.989000	2.998100	-8.961000	28.945867	0.000241	20.820819
2167.586446	-2.981000	2.997900	-8.935800	28.974055	0.000241	20.824562
2168.601016	-2.989500	2.995600	-8.954200	28.948047	0.000242	20.818274
2169.588288	-2.992500	2.993400	-8.956000	28.904029	0.000242	20.819921
2170.604612	-2.962500	2.994300	-8.869000	28.890925	0.000240	20.829952
2171.587499	-3.004700	2.991200	-8.986700	28.848911	0.000239	20.835043
2172.592782	-2.975500	2.991300	-8.899200	28.857037	0.000240	20.831849
2173.589017	-3.008800	2.988700	-8.991300	28.824188	0.000239	20.815828
2174.589421	-2.989200	2.988700	-8.932700	28.811355	0.000240	20.837513
2175.589040	-3.005900	2.986500	-8.975400	28.816582	0.000243	20.831874
2176.590367	-2.995300	2.986300	-8.943900	28.768769	0.000238	20.829703
2177.596694	-2.985200	2.985100	-8.909800	28.809819	0.000240	20.818423
2178.589303	-2.996400	2.982900	-8.937000	28.803576	0.000237	20.831574
2179.602108	-2.997300	2.979900	-8.930800	28.820323	0.000240	20.839909
2180.590497	-2.973000	2.982200	-8.864700	28.832437	0.000238	20.830776
2181.589564	-3.007400	2.978400	-8.956000	28.851537	0.000237	20.856653
2182.593595	-3.007700	2.977800	-8.955000	28.880347	0.000236	20.839684
2183.589876	-2.988800	2.975800	-8.892900	28.908463	0.000238	20.833396
2184.589323	-3.018200	2.974300	-8.975300	28.967788	0.000236	20.845748
2185.592986	-3.005500	2.972700	-8.933400	28.973708	0.000236	20.830850
2186.590610	-3.021800	2.970500	-8.974700	29.022726	0.000237	20.841831
2187.590517	-2.974900	2.970400	-8.835300	29.042888	0.000235	20.850764
2188.597617	-3.008000	2.967600	-8.925300	29.097797	0.000236	20.845399
2189.604319	-2.975200	2.968200	-8.829500	29.089451	0.000238	20.851688
2190.593492	-2.980000	2.967500	-8.842000	29.093091	0.000237	20.849666
2191.592856	-2.977500	2.965300	-8.828300	29.048089	0.000235	20.845574
2192.596438	-3.021500	2.963100	-8.952700	29.065649	0.000236	20.851887
2193.596671	-3.004400	2.960500	-8.892200	29.045266	0.000235	20.841307
2194.595670	-2.985500	2.961000	-8.838600	29.049575	0.000233	20.876941
2195.604854	-2.999200	2.958200	-8.871400	29.128161	0.000235	20.844227
2196.596502	-3.012700	2.956900	-8.907700	29.168009	0.000233	20.877740
2197.602556	-2.991300	2.955400	-8.839200	29.181184	0.000234	20.858775
2198.609259	-2.999300	2.954000	-8.859300	29.211273	0.000232	20.848319
2199.614298	-2.979700	2.953800	-8.800500	29.252975	0.000234	20.880859
2200.595366	-3.002300	2.952400	-8.862900	29.233065	0.000235	20.881184
2201.595387	-3.003900	2.949400	-8.859300	29.226181	0.000235	20.845799
2202.597454	-2.973700	2.947400	-8.763500	29.185221	0.000233	20.861421
2203.600505	-3.021700	2.945000	-8.897800	29.199337	0.000235	20.867110
2204.601688	-2.993400	2.945900	-8.817400	29.226850	0.000230	20.855956
2205.600521	-2.992700	2.943300	-8.807100	29.278654	0.000230	20.832299
2206.598391	-3.011300	2.940800	-8.853700	29.333948	0.000232	20.867160
2207.598158	-3.020400	2.939600	-8.877300	29.379928	0.000232	20.858027
2208.599833	-3.026600	2.938000	-8.891700	29.341673	0.000232	20.873049
2209.611518	-3.017100	2.937400	-8.861600	29.289228	0.000230	20.878040
2210.609017	-3.004400	2.934600	-8.815400	29.257160	0.000231	20.878914
2211.599023	-3.021300	2.933400	-8.861800	29.215855	0.000233	20.871428
2212.597754	-3.013500	2.933000	-8.838200	29.156320	0.000232	20.856954
2213.613518	-3.011000	2.929800	-8.820500	29.150674	0.000232	20.876867
2214.599866	-3.006900	2.928600	-8.804800	29.171254	0.000231	20.878639
2215.600154	-2.967900	2.930500	-8.695600	29.197802	0.000231	20.872676
2216.604890	-2.983000	2.927000	-8.729100	29.245249	0.000230	20.862170
2217.599946	-2.986800	2.924100	-8.732700	29.278481	0.000229	20.859625
2218.607591	-3.011100	2.923000	-8.800100	29.263995	0.000230	20.863991
2219.603934	-3.018600	2.921600	-8.818500	29.240792	0.000233	20.871428
2220.601676	-2.997200	2.918800	-8.747100	29.207312	0.000230	20.881309
2221.611473	-3.046500	2.917400	-8.885400	29.207114	0.000232	20.853137
2222.603098	-3.004300	2.916700	-8.761700	29.212388	0.000231	20.877891
2223.614797	-3.036400	2.914600	-8.849200	29.218134	0.000232	20.872776
2224.602361	-3.012000	2.913200	-8.773600	29.189481	0.000230	20.872351
2225.603835	-2.984500	2.911800	-8.689300	29.178312	0.000229	20.888596
2226.613451	-3.007600	2.911700	-8.755000	29.214766	0.000230	20.879338
2227.602987	-3.037100	2.906800	-8.826500	29.273925	0.000231	20.886800
2228.605086	-3.011100	2.905400	-8.747900	29.315551	0.000233	20.885602
2229.603475	-2.991800	2.904100	-8.688100	29.354822	0.000231	20.871603
2230.606647	-3.017800	2.902500	-8.758400	29.420040	0.000230	20.883755
2231.608592	-2.965900	2.903400	-8.610500	29.424992	0.000228	20.893487
2232.607430	-2.973400	2.901000	-8.624700	29.434772	0.000229	20.866363
2233.606767	-3.016200	2.897300	-8.737600	29.435737	0.000229	20.885827
2234.606160	-2.992700	2.895700	-8.665200	29.424348	0.000227	20.888097
2235.606172	-3.017400	2.893100	-8.727700	29.425932	0.000230	20.871204
2236.607096	-2.974200	2.893700	-8.605100	29.466611	0.000228	20.883281
2237.614309	-2.997200	2.888300	-8.654000	29.504762	0.000229	20.894236
2238.609202	-2.978300	2.888800	-8.602500	29.456089	0.000228	20.866987
2239.611198	-2.988700	2.887400	-8.628100	29.453687	0.000228	20.889694
2240.609488	-2.972200	2.884400	-8.571100	29.470795	0.000229	20.894610
2241.615820	-3.010400	2.882200	-8.675800	29.491072	0.000230	20.904142
2242.608947	-3.030100	2.879400	-8.723500	29.525806	0.000229	20.889370
2243.623675	-3.015000	2.877400	-8.672800	29.537045	0.000227	20.904966
2244.613240	-3.034500	2.875500	-8.724900	29.561207	0.000229	20.912252
2245.609396	-2.998200	2.875900	-8.622200	29.515482	0.000227	20.900299
2246.613091	-3.010600	2.873000	-8.648500	29.472181	0.000229	20.882732
2247.617576	-3.024600	2.871000	-8.682400	29.447968	0.000225	20.913325
2248.621519	-2.998300	2.868900	-8.600700	29.401371	0.000227	20.910929
2249.614729	-3.033500	2.865200	-8.690800	29.404590	0.000227	20.921285
2250.612295	-3.019700	2.863100	-8.643700	29.421055	0.000228	20.908010
2251.612199	-3.022200	2.862900	-8.651200	29.455222	0.000228	20.891241
2252.616799	-3.018700	2.860600	-8.634400	29.483818	0.000226	20.898727
2253.611812	-3.018500	2.858700	-8.628000	29.509045	0.000226	20.902819
2254.614540	-3.022000	2.857000	-8.630700	29.494339	0.000228	20.899850
2255.629726	-2.999300	2.855000	-8.560900	29.442595	0.000226	20.896531
2256.623600	-3.015500	2.852300	-8.599500	29.423852	0.000226	20.901347
2257.621758	-2.960800	2.851400	-8.441200	29.386564	0.000229	20.904067
2258.616547	-2.998400	2.848000	-8.538200	29.334220	0.000226	20.914372
2259.616112	-2.995600	2.845600	-8.522000	29.296954	0.000225	20.923281
2260.617189	-2.979900	2.845000	-8.476800	29.273108	0.000226	20.919638
2261.614855	-3.018500	2.841300	-8.575600	29.322285	0.000227	20.914198
2262.614179	-3.010400	2.839700	-8.547600	29.342516	0.000228	20.918939
2263.617050	-3.022800	2.838800	-8.580100	29.322558	0.000225	20.904516
2264.614646	-3.003200	2.836600	-8.517800	29.312480	0.000227	20.904791
2265.619486	-3.007900	2.833400	-8.519900	29.349845	0.000226	20.900723
2266.614336	-3.017800	2.830800	-8.541500	29.368811	0.000227	20.934534
2267.614179	-2.987500	2.829600	-8.452400	29.412315	0.000224	20.905365
2268.615541	-2.989500	2.827800	-8.452300	29.473543	0.000226	20.888845
2269.615531	-3.019000	2.824900	-8.527300	29.483149	0.000225	20.916069
2270.624838	-2.998300	2.822500	-8.462000	29.529890	0.000228	20.917192
2271.616302	-3.011500	2.821100	-8.494400	29.594998	0.000223	20.909806
2272.625704	-3.004300	2.818100	-8.465800	29.549918	0.000225	20.910829
2273.622510	-3.008700	2.815900	-8.471200	29.488620	0.000226	20.895034
2274.620543	-3.012000	2.813800	-8.473500	29.474533	0.000224	20.886051
2275.621945	-2.982700	2.812500	-8.387100	29.438856	0.000226	20.904142
2276.631415	-3.061700	2.807200	-8.593000	29.418158	0.000225	20.895608
2277.619690	-2.995100	2.806300	-8.403800	29.386565	0.000226	20.886051
2278.620110	-3.004000	2.803800	-8.421700	29.377824	0.000222	20.867760
2279.617795	-2.986600	2.802600	-8.369500	29.414717	0.000226	20.894510
2280.620384	-3.006700	2.798500	-8.414100	29.470250	0.000227	20.867510
2281.620934	-2.999400	2.796800	-8.387500	29.484957	0.000228	20.890393
2282.631566	-3.007500	2.794500	-8.404000	29.500257	0.000225	20.873574
2283.626058	-3.011400	2.791000	-8.403200	29.542467	0.000226	20.893363
2284.621109	-2.992000	2.789500	-8.345800	29.599455	0.000226	20.871628
2285.622790	-3.038600	2.786200	-8.464600	29.629383	0.000226	20.875246
2286.622060	-2.983800	2.785100	-8.308800	29.647553	0.000226	20.883132
2287.620059	-3.007900	2.780300	-8.360100	29.646167	0.000226	20.871778
2288.622579	-2.987100	2.778400	-8.297800	29.676960	0.000225	20.875796
2289.622166	-2.969200	2.777800	-8.246800	29.629062	0.000226	20.884879
2290.628179	-2.999000	2.772000	-8.312300	29.590444	0.000228	20.880562
2291.625211	-2.990100	2.770800	-8.284100	29.535808	0.000226	20.882383
2292.630640	-3.001000	2.768100	-8.306900	29.496073	0.000225	20.877892
2293.624806	-2.993100	2.765500	-8.276000	29.454950	0.000223	20.879114
2294.622261	-3.015100	2.760700	-8.321800	29.468245	0.000225	20.861223
2295.626653	-2.982700	2.759000	-8.228200	29.488373	0.000226	20.872028
2296.625309	-2.972000	2.758200	-8.196300	29.572967	0.000225	20.878116
2297.625474	-2.993400	2.753000	-8.240000	29.620323	0.000227	20.863743
2298.625976	-2.997300	2.749300	-8.239100	29.651217	0.000225	20.875446
2299.627363	-2.971300	2.747400	-8.162900	29.631488	0.000226	20.853662
2300.633429	-2.999800	2.743000	-8.227300	29.622551	0.000226	20.868359
2301.630451	-2.985700	2.740600	-8.180500	29.649063	0.000225	20.857629
2302.626225	-2.989500	2.736300	-8.179000	29.639830	0.000224	20.872976
2303.632806	-3.009500	2.731600	-8.219500	29.611090	0.000226	20.882409
2304.626566	-2.990000	2.732300	-8.168100	29.579726	0.000224	20.863119
2305.626400	-2.996300	2.727500	-8.171800	29.591880	0.000224	20.862570
2306.629875	-3.012500	2.723700	-8.203400	29.534694	0.000226	20.868459
2307.626045	-3.005500	2.720000	-8.173300	29.512314	0.000227	20.851117
2308.628438	-2.998500	2.717700	-8.147900	29.522069	0.000223	20.853837
2309.627577	-2.997100	2.713800	-8.132800	29.509195	0.000225	20.860774
2310.627235	-2.992800	2.712000	-8.114800	29.491766	0.000224	20.859326
2311.634531	-3.017000	2.707400	-8.167000	29.454381	0.000225	20.859102
2312.639410	-3.002600	2.705100	-8.121500	29.410657	0.000227	20.845377
2313.630824	-2.993600	2.700900	-8.083900	29.386715	0.000223	20.849220
2314.627626	-3.017600	2.695900	-8.134200	29.459308	0.000224	20.857430
2315.629211	-3.026300	2.691700	-8.144700	29.494143	0.000225	20.841809
2316.634946	-3.022200	2.688700	-8.123900	29.548113	0.000224	20.861598
2317.629574	-2.973200	2.685900	-7.984100	29.559847	0.000223	20.863469
2318.644982	-3.010200	2.681000	-8.069000	29.601065	0.000225	20.845752
2319.634569	-2.988200	2.679000	-8.004200	29.621760	0.000224	20.874674
2320.634104	-3.016200	2.673100	-8.062400	29.693744	0.000225	20.858104
2321.633151	-2.987600	2.670200	-7.976700	29.758124	0.000226	20.844305
2322.631826	-3.004400	2.665400	-8.007200	29.782850	0.000224	20.854536
2323.633348	-3.045400	2.661300	-8.103900	29.777950	0.000225	20.864767
2324.631968	-3.001800	2.658700	-7.980600	29.803567	0.000225	20.840337
2325.629703	-2.956500	2.655800	-7.851800	29.806710	0.000224	20.844929
2326.634812	-2.995200	2.650100	-7.936500	29.806982	0.000225	20.852315
2327.632382	-2.990900	2.646600	-7.914300	29.826535	0.000224	20.856383
2328.640922	-3.012800	2.641800	-7.958100	29.857942	0.000225	20.845379
2329.636046	-3.039500	2.634900	-8.007800	29.939660	0.000224	20.826787
2330.631448	-2.990900	2.632800	-7.873100	29.959062	0.000224	20.871481
2331.634737	-3.013000	2.627600	-7.915500	29.930132	0.000223	20.858430
2332.633514	-2.957300	2.624000	-7.758800	29.888655	0.000226	20.827037
2333.635709	-2.994800	2.619100	-7.843100	29.834084	0.000224	20.854512
2334.632841	-3.031500	2.612100	-7.918000	29.769659	0.000226	20.844556
2335.638824	-2.990300	2.608700	-7.799400	29.707904	0.000224	20.845828
2336.641828	-3.011300	2.602400	-7.835600	29.737359	0.000225	20.842809
2337.638232	-2.955600	2.598900	-7.679900	29.785698	0.000223	20.845080
2338.635959	-3.024500	2.591700	-7.836900	29.782554	0.000223	20.826264
2339.647501	-2.971100	2.587800	-7.687100	29.751616	0.000224	20.845803
2340.637256	-3.014400	2.581200	-7.779600	29.699315	0.000224	20.844755
2341.638101	-3.020700	2.574500	-7.775800	29.699166	0.000223	20.859778
2342.642233	-3.004700	2.569800	-7.720800	29.685528	0.000223	20.838442
2343.638506	-3.011400	2.564500	-7.721000	29.696048	0.000225	20.838143
2344.650493	-2.979900	2.559600	-7.625900	29.674364	0.000222	20.854213
2345.639657	-3.002700	2.554100	-7.668300	29.667359	0.000224	20.853315
2346.639686	-3.024500	2.546700	-7.701200	29.640278	0.000223	20.839291
2347.639022	-2.980400	2.541200	-7.571700	29.609014	0.000223	20.829109
2348.640626	-2.991500	2.535100	-7.583100	29.659760	0.000224	20.833327
2349.645782	-2.988300	2.528100	-7.553900	29.739315	0.000223	20.846204
2350.641390	-3.000300	2.522900	-7.568400	29.820151	0.000225	20.835723
2351.643714	-3.010400	2.515200	-7.570800	29.904000	0.000223	20.826389
2352.647029	-2.982900	2.509600	-7.485200	29.968541	0.000226	20.834575
2353.647396	-3.039100	2.501800	-7.602200	30.058836	0.000223	20.821798
2354.643973	-2.977100	2.498400	-7.437200	30.108892	0.000223	20.832927
