LabVIEW Measurement	
Writer_Version	2
Reader_Version	2
Separator	Tab
Decimal_Separator	.
Multi_Headings	No
X_Columns	One
Time_Pref	Absolute
Operator	admin
Description	Clolumns are: time, Current, Voltage, Power, Battery Temp, and Chamber Temp
Date	2024/08/15
Time	11:52:21.3415808677673339844
***End_of_Header***	
	
Channels	6						
Samples	1	1	1	1	1	1	
Date	2024/08/15	2024/08/15	2024/08/15	2024/08/15	2024/08/15	2024/08/15	
Time	11:52:21.3584895133972167969	11:52:21.363536834716796875	11:52:21.3705592155456542969	11:52:21.3415808677673339844	11:52:21.3415808677673339844	11:52:21.3415808677673339844	
X_Dimension	Time	Time	Time	Time	Time	Time	
X0	0.0000000000000000E+0	0.0000000000000000E+0	0.0000000000000000E+0	0.0000000000000000E+0	0.0000000000000000E+0	0.0000000000000000E+0	
Delta_X	1.000000	1.000000	1.000000	1.000000	1.000000	1.000000	
***End_of_Header***							
X_Value	Untitled	Untitled 1	Untitled 2	Untitled 3	Untitled 4	Untitled 5	Comment
0.000000	0.028730	4.074700	0.116990	20.991144	0.000893	20.815249
1.003204	-2.999300	3.930600	-11.787000	20.989371	0.000892	20.833390
2.002781	-2.983600	3.925600	-11.711000	20.983583	0.000891	20.828076
3.001437	-2.976100	3.923900	-11.677000	20.998483	0.000893	20.824485
4.002317	-3.003900	3.919400	-11.772000	20.970704	0.000890	20.817565
5.003210	-2.995900	3.916800	-11.733000	20.976368	0.000891	20.808531
6.003341	-3.005500	3.915600	-11.767000	20.977489	0.000888	20.830515
7.003073	-3.023900	3.913600	-11.833000	20.989291	0.000890	20.839000
8.002140	-3.017700	3.910700	-11.800000	20.996175	0.000888	20.836402
8.999994	-2.994300	3.910200	-11.707000	21.014910	0.000888	20.825743
10.002782	-3.006400	3.909300	-11.752000	20.987715	0.000887	20.809449
11.004359	-3.000800	3.907000	-11.723000	20.988011	0.000888	20.842461
12.004991	-2.996900	3.907400	-11.708000	20.985690	0.000888	20.842510
13.001079	-2.990800	3.905900	-11.681000	20.991884	0.000888	20.845860
14.004060	-2.983800	3.904500	-11.650000	21.011315	0.000888	20.825466
15.006579	-2.967800	3.905500	-11.590000	21.019171	0.000885	20.830004
16.000719	-2.975300	3.904100	-11.615000	21.024262	0.000885	20.841260
17.003481	-3.009800	3.902600	-11.745000	21.011161	0.000883	20.840011
18.005779	-3.000500	3.901400	-11.705000	21.006020	0.000887	20.825386
19.006020	-3.002300	3.901400	-11.712000	21.036133	0.000885	20.845547
20.005946	-3.012000	3.900000	-11.746000	21.053525	0.000885	20.837338
21.003199	-3.022400	3.899500	-11.785000	21.024183	0.000884	20.847345
22.012491	-3.012500	3.899100	-11.746000	21.049382	0.000885	20.859272
23.006219	-3.006300	3.897700	-11.716000	21.051407	0.000884	20.839487
24.007327	-2.999200	3.898100	-11.690000	21.074106	0.000884	20.851286
25.005230	-2.991200	3.898500	-11.660000	21.023912	0.000884	20.863194
26.004423	-2.999900	3.896100	-11.687000	21.071631	0.000882	20.864457
27.004025	-2.987000	3.897200	-11.640000	21.066713	0.000884	20.830615
28.006123	-3.019300	3.894300	-11.756000	21.072451	0.000883	20.852001
29.009251	-3.022400	3.894500	-11.770000	21.062723	0.000884	20.854125
30.008015	-3.004900	3.893500	-11.698000	21.055558	0.000883	20.844587
31.007448	-2.984600	3.894500	-11.622000	21.091105	0.000884	20.834624
32.012539	-3.005400	3.894600	-11.704000	21.081679	0.000883	20.837050
33.006452	-2.996000	3.892800	-11.661000	21.088784	0.000886	20.844631
34.012034	-2.997100	3.894100	-11.670000	21.098117	0.000884	20.841164
35.009357	-3.025600	3.892600	-11.777000	21.092182	0.000883	20.824322
36.006949	-2.999000	3.893300	-11.676000	21.095919	0.000882	20.844655
37.012948	-2.997400	3.891100	-11.662000	21.090748	0.000881	20.837113
38.011325	-2.992300	3.892600	-11.646000	21.093371	0.000883	20.840210
39.008795	-2.994300	3.892300	-11.654000	21.117891	0.000884	20.841977
40.013746	-2.994400	3.893100	-11.657000	21.099103	0.000883	20.825081
41.013883	-2.996400	3.891600	-11.659000	21.113422	0.000883	20.816645
42.014497	-3.007200	3.889700	-11.697000	21.113773	0.000883	20.837858
43.013739	-2.988600	3.891300	-11.629000	21.129317	0.000882	20.827803
44.018403	-3.010600	3.890000	-11.710000	21.115466	0.000882	20.821534
45.009736	-3.010400	3.889400	-11.708000	21.118286	0.000884	20.823406
46.014137	-3.013900	3.888400	-11.718000	21.118760	0.000883	20.822458
47.014248	-3.008800	3.888800	-11.698000	21.147447	0.000885	20.823653
48.018100	-2.991400	3.888300	-11.631000	21.140638	0.000882	20.813997
49.017200	-2.990600	3.888700	-11.629000	21.138693	0.000883	20.818215
50.024339	-3.030500	3.888900	-11.783000	21.157599	0.000883	20.828117
51.017821	-3.019600	3.887200	-11.737000	21.177107	0.000883	20.810174
52.012967	-3.023800	3.884700	-11.746000	21.191357	0.000884	20.816842
53.014613	-3.005600	3.884500	-11.674000	21.164142	0.000884	20.816645
54.014108	-3.008400	3.887100	-11.693000	21.155875	0.000883	20.801738
55.013736	-2.989100	3.886200	-11.614000	21.188962	0.000885	20.813499
56.018259	-3.018500	3.886600	-11.731000	21.183896	0.000884	20.814595
57.019685	-3.021400	3.885000	-11.737000	21.205171	0.000884	20.826868
58.023436	-2.993700	3.887200	-11.637000	21.204124	0.000884	20.814915
59.018759	-2.987600	3.885200	-11.606000	21.188488	0.000885	20.813973
60.018744	-2.989800	3.887100	-11.621000	21.196595	0.000886	20.803117
61.019186	-2.995000	3.885100	-11.636000	21.218694	0.000885	20.803887
62.018213	-3.003100	3.885400	-11.667000	21.195069	0.000885	20.812021
63.018967	-2.989600	3.884900	-11.613000	21.204500	0.000886	20.810549
64.018859	-3.010000	3.884200	-11.690000	21.211141	0.000886	20.796331
65.018247	-2.988700	3.884900	-11.610000	21.202899	0.000886	20.817957
66.019344	-2.999400	3.884600	-11.651000	21.226100	0.000885	20.787113
67.021773	-2.990600	3.884200	-11.616000	21.229226	0.000887	20.818215
68.018284	-3.002400	3.882600	-11.655000	21.234533	0.000887	20.787014
69.019943	-3.002800	3.884600	-11.664000	21.243218	0.000885	20.800918
70.020367	-2.985500	3.883200	-11.592000	21.240621	0.000887	20.797846
71.020601	-2.998200	3.882800	-11.641000	21.238325	0.000887	20.805981
72.019140	-3.015700	3.881700	-11.705000	21.249571	0.000887	20.816757
73.023430	-2.998500	3.882300	-11.640000	21.250273	0.000887	20.799441
74.021904	-2.995900	3.881200	-11.627000	21.244659	0.000887	20.798567
75.022689	-2.993100	3.883200	-11.622000	21.259450	0.000887	20.792027
76.020996	-2.995000	3.882000	-11.625000	21.277412	0.000889	20.787236
77.021121	-2.992200	3.881100	-11.612000	21.271201	0.000889	20.780549
78.022835	-2.989400	3.881400	-11.602000	21.278058	0.000889	20.803056
79.023194	-3.025800	3.880400	-11.741000	21.274242	0.000891	20.775056
80.023187	-3.006600	3.880500	-11.666000	21.289230	0.000890	20.776774
81.021006	-3.023300	3.879300	-11.727000	21.287987	0.000892	20.777427
82.020877	-3.001500	3.880400	-11.645000	21.282570	0.000891	20.781017
83.023395	-3.000600	3.879900	-11.640000	21.302175	0.000892	20.773603
84.022669	-2.977200	3.881100	-11.554000	21.316516	0.000891	20.795064
85.021708	-3.005200	3.879900	-11.658000	21.304021	0.000890	20.784934
86.021183	-3.010000	3.878900	-11.674000	21.338471	0.000893	20.781941
87.020733	-3.015700	3.878100	-11.694000	21.306643	0.000892	20.804626
88.023147	-3.014200	3.878700	-11.690000	21.324949	0.000894	20.785956
89.021845	-2.994800	3.880200	-11.620000	21.319612	0.000894	20.772082
90.021844	-3.030100	3.879000	-11.753000	21.321834	0.000895	20.776202
91.020222	-3.000300	3.878400	-11.634000	21.333178	0.000895	20.780913
92.023352	-3.018400	3.878500	-11.706000	21.339241	0.000894	20.781763
93.023388	-2.987300	3.878100	-11.584000	21.330661	0.000895	20.785507
94.025620	-3.016700	3.877700	-11.697000	21.344577	0.000896	20.792317
95.026631	-3.006200	3.878200	-11.658000	21.357699	0.000897	20.767513
96.025955	-3.000200	3.877400	-11.632000	21.377204	0.000896	20.764268
97.026564	-3.005200	3.876800	-11.649000	21.393268	0.000896	20.778444
98.026971	-2.970200	3.878600	-11.518000	21.386208	0.000896	20.780390
99.024632	-2.984700	3.876200	-11.568000	21.371585	0.000895	20.769552
100.024383	-2.982400	3.876900	-11.561000	21.373191	0.000899	20.764520
101.024699	-2.986800	3.877300	-11.579000	21.386805	0.000899	20.775297
102.029488	-3.024800	3.873600	-11.716000	21.398628	0.000897	20.779540
103.026233	-3.005400	3.876200	-11.648000	21.389975	0.000901	20.777046
104.032029	-3.018400	3.875300	-11.697000	21.416957	0.000899	20.786024
105.030674	-3.014000	3.875100	-11.679000	21.425739	0.000903	20.765888
106.025962	-2.996900	3.875100	-11.612000	21.413560	0.000901	20.753702
107.028871	-3.009100	3.874500	-11.658000	21.415862	0.000902	20.793463
108.026773	-2.990700	3.875500	-11.590000	21.420077	0.000902	20.774921
109.026315	-2.978500	3.875600	-11.543000	21.426509	0.000902	20.782305
110.031582	-3.017600	3.874300	-11.690000	21.421376	0.000901	20.771953
111.031074	-2.988600	3.875400	-11.580000	21.433963	0.000905	20.753252
112.024979	-2.993000	3.874400	-11.595000	21.438756	0.000902	20.749514
113.027589	-3.013800	3.873200	-11.672000	21.438258	0.000904	20.756127
114.024320	-2.996100	3.873700	-11.605000	21.444566	0.000904	20.776665
115.025483	-3.003800	3.873800	-11.635000	21.463861	0.000903	20.765624
116.032004	-2.995000	3.874700	-11.604000	21.482372	0.000904	20.764232
117.030169	-3.001600	3.873600	-11.626000	21.474015	0.000906	20.767724
118.024299	-2.979700	3.873500	-11.540000	21.479198	0.000905	20.761055
119.026431	-2.984500	3.873800	-11.561000	21.464360	0.000907	20.780822
120.025305	-2.997100	3.873000	-11.607000	21.497925	0.000907	20.752293
121.025975	-3.002100	3.872700	-11.625000	21.483013	0.000908	20.757761
122.026071	-2.997500	3.871400	-11.603000	21.460040	0.000909	20.753266
123.026793	-2.996000	3.870500	-11.595000	21.469013	0.000909	20.756554
124.027247	-2.989000	3.872200	-11.574000	21.493304	0.000910	20.760471
125.029517	-3.005100	3.872400	-11.635000	21.503882	0.000909	20.763944
126.029402	-3.002000	3.870900	-11.619000	21.498092	0.000911	20.757675
127.031819	-2.997400	3.870200	-11.599000	21.491359	0.000909	20.763267
128.028327	-3.000000	3.870100	-11.610000	21.525022	0.000910	20.732465
129.030598	-2.993400	3.871300	-11.587000	21.540709	0.000913	20.751481
130.032115	-3.002200	3.870000	-11.618000	21.534420	0.000912	20.752300
131.032328	-2.993400	3.870700	-11.585000	21.540876	0.000914	20.757812
132.029242	-2.993200	3.869400	-11.582000	21.544500	0.000914	20.754326
133.035106	-2.999700	3.868700	-11.604000	21.566956	0.000915	20.736019
134.032979	-3.012600	3.867700	-11.651000	21.572223	0.000915	20.772111
135.029422	-3.024900	3.868300	-11.700000	21.566444	0.000913	20.736455
136.035225	-2.999200	3.868700	-11.602000	21.580254	0.000917	20.779199
137.033374	-3.004300	3.868400	-11.620000	21.606640	0.000917	20.747282
138.030770	-3.003900	3.867900	-11.618000	21.591724	0.000918	20.746580
139.031399	-3.000000	3.870500	-11.610000	21.612887	0.000920	20.747843
140.034940	-3.007500	3.868200	-11.632000	21.595386	0.000920	20.751667
141.031724	-2.995300	3.868200	-11.586000	21.618203	0.000920	20.750793
142.035907	-3.013000	3.868700	-11.655000	21.623459	0.000920	20.746095
143.033642	-3.003200	3.868400	-11.617000	21.606574	0.000920	20.738680
144.036251	-3.018300	3.866100	-11.668000	21.616949	0.000921	20.761865
145.035688	-2.989500	3.867100	-11.560000	21.623355	0.000920	20.764009
146.036082	-2.989900	3.867000	-11.561000	21.636720	0.000922	20.760314
147.033179	-2.997700	3.865900	-11.587000	21.620753	0.000922	20.735325
148.039527	-3.001400	3.866100	-11.603000	21.605966	0.000922	20.757987
149.033935	-3.010300	3.865300	-11.635000	21.620624	0.000923	20.751318
150.032088	-3.003000	3.867700	-11.613000	21.624094	0.000925	20.751946
151.033090	-3.010600	3.865000	-11.633000	21.640198	0.000925	20.745302
152.036234	-3.027300	3.864500	-11.697000	21.637177	0.000924	20.750814
153.035522	-2.991800	3.866300	-11.567000	21.651717	0.000924	20.738337
154.036645	-2.977400	3.864800	-11.506000	21.668369	0.000924	20.756899
155.040464	-2.977300	3.866400	-11.511000	21.661607	0.000924	20.749657
156.038942	-2.988800	3.864700	-11.549000	21.702605	0.000927	20.755125
157.037368	-2.997000	3.864400	-11.581000	21.671581	0.000925	20.748259
158.036909	-3.006600	3.864200	-11.616000	21.698403	0.000928	20.740489
159.036797	-2.996600	3.864600	-11.580000	21.706033	0.000926	20.742909
160.039595	-3.003700	3.864200	-11.606000	21.705787	0.000926	20.753568
161.042493	-2.986900	3.863600	-11.540000	21.714986	0.000929	20.758507
162.041025	-2.988200	3.863100	-11.542000	21.699770	0.000929	20.742330
163.041241	-2.988700	3.863300	-11.545000	21.733457	0.000928	20.732422
164.039420	-2.986200	3.862400	-11.532000	21.738669	0.000929	20.737164
165.039447	-3.005700	3.862300	-11.607000	21.745118	0.000931	20.719435
166.040060	-3.006500	3.864200	-11.616000	21.751800	0.000930	20.743668
167.039041	-2.989200	3.862500	-11.545000	21.765361	0.000931	20.736851
168.041928	-2.996200	3.863300	-11.573000	21.733476	0.000934	20.741925
169.042058	-3.012000	3.863400	-11.635000	21.752717	0.000932	20.731309
170.043312	-3.002600	3.863100	-11.598000	21.777150	0.000932	20.743909
171.049399	-3.011600	3.862200	-11.631000	21.773858	0.000933	20.742511
172.040362	-3.007200	3.860500	-11.608000	21.797072	0.000934	20.736821
173.044426	-3.014100	3.861500	-11.638000	21.808066	0.000935	20.740239
174.045547	-3.012900	3.861000	-11.632000	21.822826	0.000935	20.726562
175.044019	-3.016300	3.861300	-11.645000	21.827361	0.000937	20.731101
176.041144	-2.990500	3.860900	-11.545000	21.824420	0.000938	20.746176
177.043250	-2.990700	3.860100	-11.543000	21.827040	0.000940	20.735996
178.045011	-2.999700	3.859400	-11.575000	21.860497	0.000939	20.741034
179.044793	-3.002500	3.859300	-11.587000	21.847879	0.000942	20.747371
180.046939	-2.996000	3.858500	-11.558000	21.836805	0.000940	20.752882
181.044672	-2.983200	3.859500	-11.511000	21.859347	0.000940	20.719967
182.042624	-2.990600	3.859600	-11.542000	21.854960	0.000943	20.721740
183.043791	-2.988100	3.859300	-11.531000	21.857422	0.000942	20.732265
184.044808	-3.005100	3.858200	-11.593000	21.859311	0.000941	20.729889
185.040810	-2.998700	3.856600	-11.564000	21.856271	0.000943	20.729217
186.043692	-3.006800	3.859000	-11.603000	21.834278	0.000945	20.729015
187.044624	-3.004700	3.857800	-11.590000	21.867906	0.000944	20.734225
188.046209	-3.028600	3.856600	-11.680000	21.863421	0.000945	20.723097
189.047206	-3.023500	3.856800	-11.660000	21.870176	0.000947	20.736023
190.044631	-3.001900	3.857700	-11.578000	21.859231	0.000946	20.740716
191.043241	-3.022900	3.855600	-11.653000	21.896022	0.000949	20.729650
192.044324	-2.998300	3.856100	-11.561000	21.855006	0.000949	20.736960
193.044170	-2.976100	3.857900	-11.479000	21.892479	0.000946	20.733690
194.045387	-2.998700	3.857000	-11.564000	21.896189	0.000950	20.718437
195.043462	-2.990600	3.856200	-11.530000	21.913469	0.000949	20.726726
196.044351	-3.001400	3.855700	-11.570000	21.906413	0.000949	20.722033
197.044963	-2.983700	3.856000	-11.504000	21.911391	0.000949	20.731758
198.045065	-2.987900	3.855900	-11.521000	21.903891	0.000950	20.738002
199.049498	-3.015500	3.854900	-11.623000	21.934251	0.000950	20.729036
200.047035	-3.004900	3.853800	-11.579000	21.906580	0.000950	20.744013
201.049156	-2.993600	3.855400	-11.541000	21.896651	0.000952	20.713210
202.049165	-2.990000	3.855400	-11.526000	21.903831	0.000953	20.731303
203.048967	-2.972900	3.855100	-11.460000	21.908248	0.000954	20.712963
204.045088	-3.023000	3.853000	-11.645000	21.909816	0.000953	20.715482
205.047845	-2.999000	3.855300	-11.562000	21.915980	0.000956	20.716910
206.051195	-3.002400	3.854100	-11.570000	21.941830	0.000954	20.714337
207.048771	-3.005800	3.853500	-11.581000	21.933427	0.000955	20.739117
208.049384	-3.010300	3.853800	-11.598000	21.969586	0.000956	20.695177
209.052539	-2.981300	3.854600	-11.490000	21.963773	0.000955	20.711171
210.050781	-3.023900	3.851700	-11.645000	21.962721	0.000956	20.703005
211.050122	-2.990000	3.851200	-11.513000	21.976187	0.000957	20.701786
212.052354	-3.005500	3.851200	-11.574000	21.963452	0.000958	20.716540
213.052857	-3.001100	3.852400	-11.561000	21.959184	0.000958	20.713216
214.052605	-3.014000	3.850800	-11.605000	21.975639	0.000959	20.725895
215.052637	-2.997400	3.851600	-11.544000	21.969462	0.000960	20.710228
216.053361	-2.986300	3.852200	-11.503000	21.968614	0.000961	20.715543
217.051758	-2.995800	3.851900	-11.539000	21.990186	0.000963	20.709162
218.054830	-3.014600	3.849900	-11.605000	21.998805	0.000963	20.739128
219.051870	-2.980700	3.850400	-11.476000	21.988439	0.000962	20.706939
220.054051	-2.988500	3.851500	-11.510000	21.990561	0.000964	20.697682
221.056691	-3.009800	3.851100	-11.589000	22.013770	0.000963	20.704321
222.052353	-3.014900	3.850500	-11.607000	22.027438	0.000963	20.685285
223.053739	-2.991300	3.851100	-11.519000	22.008492	0.000967	20.703779
224.052600	-3.017000	3.849200	-11.611000	22.019183	0.000963	20.718275
225.056289	-2.996200	3.850300	-11.536000	22.019939	0.000965	20.700539
226.056624	-3.005100	3.848500	-11.564000	22.024128	0.000967	20.696197
227.055632	-2.990600	3.848800	-11.510000	22.009143	0.000968	20.712966
228.057564	-3.005400	3.849500	-11.568000	22.027019	0.000969	20.710946
229.056211	-2.995700	3.847600	-11.526000	22.033053	0.000969	20.709875
230.058059	-2.998000	3.848000	-11.536000	22.066158	0.000968	20.681848
231.054299	-3.006600	3.848000	-11.568000	22.065690	0.000968	20.701769
232.057362	-2.984100	3.847900	-11.481000	22.062473	0.000970	20.697600
233.057755	-2.998200	3.847700	-11.535000	22.090497	0.000971	20.704319
234.059101	-2.979100	3.847600	-11.462000	22.076628	0.000972	20.710823
235.061152	-3.013300	3.845500	-11.586000	22.072598	0.000972	20.684027
236.057231	-2.991100	3.846600	-11.505000	22.103660	0.000973	20.689994
237.059791	-3.021300	3.845500	-11.617000	22.112579	0.000974	20.703666
238.062846	-2.999000	3.845800	-11.533000	22.103057	0.000976	20.700772
239.061225	-2.988200	3.846000	-11.491000	22.096002	0.000976	20.690863
240.059834	-2.995900	3.846700	-11.522000	22.125120	0.000975	20.699152
241.068770	-2.986600	3.847100	-11.488000	22.134064	0.000977	20.700520
242.063562	-2.989100	3.845100	-11.492000	22.160038	0.000978	20.680529
243.063422	-3.041500	3.843300	-11.688000	22.146328	0.000977	20.676760
244.062969	-3.018500	3.844800	-11.604000	22.146826	0.000980	20.698124
245.067062	-3.008400	3.844200	-11.563000	22.123319	0.000980	20.705409
246.064456	-3.005800	3.843500	-11.552000	22.148622	0.000981	20.703241
247.064256	-3.003200	3.842900	-11.540000	22.168907	0.000982	20.714542
248.069122	-3.010000	3.842500	-11.566000	22.155050	0.000980	20.654670
249.063676	-3.003600	3.843100	-11.541000	22.152534	0.000982	20.712374
250.063855	-3.012600	3.841900	-11.573000	22.155050	0.000982	20.711574
251.066978	-2.982400	3.843200	-11.460000	22.155553	0.000983	20.687420
252.065393	-2.994100	3.842500	-11.503000	22.179523	0.000984	20.687711
253.068641	-2.980900	3.842800	-11.453000	22.180993	0.000983	20.684441
254.069067	-3.011000	3.841200	-11.564000	22.165641	0.000985	20.692779
255.068890	-2.990400	3.842800	-11.489000	22.165838	0.000985	20.686812
256.066783	-3.012600	3.841200	-11.570000	22.193854	0.000985	20.696844
257.070104	-3.002900	3.842200	-11.536000	22.190287	0.000985	20.685685
258.069379	-3.025600	3.840500	-11.618000	22.177722	0.000985	20.692546
259.068685	-2.972600	3.842200	-11.419000	22.213308	0.000988	20.693563
260.071664	-3.004600	3.839300	-11.534000	22.198253	0.000987	20.682755
261.070703	-3.007700	3.840200	-11.548000	22.210467	0.000989	20.675069
262.072034	-2.979000	3.840500	-11.440000	22.231200	0.000991	20.694881
263.074358	-3.021500	3.838700	-11.596000	22.240745	0.000990	20.674090
264.073839	-3.010400	3.838200	-11.553000	22.226784	0.000990	20.697099
265.069656	-2.982000	3.840700	-11.452000	22.244405	0.000992	20.691507
266.074199	-2.993800	3.838300	-11.489000	22.234036	0.000992	20.666424
267.076818	-3.002500	3.838900	-11.525000	22.249011	0.000993	20.674781
268.074158	-2.998200	3.838800	-11.509000	22.234479	0.000995	20.704803
269.076931	-3.014600	3.838100	-11.570000	22.235371	0.000993	20.715655
270.073147	-3.005600	3.837000	-11.531000	22.241399	0.000993	20.663839
271.075317	-3.007700	3.837200	-11.541000	22.272555	0.000992	20.698357
272.078001	-2.984500	3.838600	-11.455000	22.253780	0.000995	20.683350
273.078568	-2.977900	3.836700	-11.424000	22.270255	0.000994	20.694157
274.073113	-3.000800	3.837000	-11.513000	22.315463	0.000994	20.687266
275.079851	-2.993100	3.836200	-11.481000	22.270102	0.000996	20.701117
276.076240	-2.995800	3.836900	-11.494000	22.294075	0.000998	20.673435
277.074166	-3.012600	3.836400	-11.557000	22.281615	0.000998	20.704110
278.081695	-2.975900	3.835700	-11.413000	22.309972	0.000997	20.696468
279.073586	-3.021900	3.834600	-11.587000	22.300871	0.000998	20.711064
280.076684	-3.016900	3.834300	-11.567000	22.311713	0.001001	20.707695
281.077995	-2.986400	3.835700	-11.454000	22.326184	0.001001	20.700374
282.077009	-3.004500	3.834400	-11.520000	22.328626	0.001002	20.698077
283.072967	-3.002300	3.834200	-11.509000	22.330673	0.001001	20.710085
284.075514	-2.993200	3.834300	-11.475000	22.317987	0.001002	20.704019
285.077529	-2.999300	3.833000	-11.495000	22.319624	0.001003	20.690484
286.076194	-3.013300	3.832300	-11.547000	22.327476	0.001001	20.693132
287.077041	-3.011200	3.833200	-11.541000	22.336074	0.001002	20.699371
288.079195	-3.002700	3.834400	-11.512000	22.338614	0.001003	20.706182
289.074369	-2.989500	3.833400	-11.459000	22.340330	0.001004	20.706952
290.076581	-3.012600	3.833100	-11.546000	22.345711	0.001003	20.696693
291.078132	-2.987500	3.833500	-11.452000	22.367498	0.001005	20.718511
292.074099	-2.982900	3.832700	-11.431000	22.360464	0.001005	20.686334
293.073639	-2.997500	3.832900	-11.486000	22.375265	0.001007	20.703055
294.078647	-3.008700	3.830500	-11.524000	22.408361	0.001008	20.716283
295.079915	-3.018900	3.831000	-11.564000	22.388997	0.001008	20.704003
296.077720	-3.004100	3.831100	-11.507000	22.389342	0.001009	20.703874
297.083398	-2.989300	3.831300	-11.453000	22.390817	0.001009	20.697765
298.082752	-3.002000	3.830800	-11.498000	22.396518	0.001010	20.706319
299.079671	-2.987400	3.830300	-11.442000	22.422831	0.001011	20.712281
300.080300	-2.996700	3.830100	-11.476000	22.406708	0.001008	20.681434
301.078255	-3.008200	3.830500	-11.521000	22.392429	0.001010	20.713131
302.081704	-3.026400	3.829300	-11.587000	22.425573	0.001010	20.703647
303.080220	-3.007300	3.829800	-11.517000	22.412513	0.001011	20.691041
304.083018	-3.002400	3.829100	-11.495000	22.410840	0.001012	20.697427
305.080039	-3.010400	3.827400	-11.521000	22.404187	0.001011	20.694558
306.081805	-2.992300	3.829100	-11.456000	22.431471	0.001012	20.694379
307.080569	-2.998200	3.827100	-11.473000	22.431679	0.001014	20.690794
308.077614	-2.985900	3.828600	-11.429000	22.432774	0.001012	20.693313
309.080467	-2.989600	3.828500	-11.445000	22.443916	0.001014	20.714430
310.080774	-3.002800	3.827500	-11.491000	22.448620	0.001014	20.705864
311.079042	-2.984100	3.826600	-11.418000	22.447145	0.001013	20.705335
312.078907	-3.003800	3.825300	-11.489000	22.463175	0.001013	20.691041
313.079688	-2.991000	3.827000	-11.446000	22.472570	0.001017	20.701399
314.083188	-2.991000	3.826200	-11.444000	22.495621	0.001015	20.707416
315.083313	-2.997800	3.825800	-11.468000	22.485673	0.001016	20.705988
316.083588	-2.992100	3.824800	-11.443000	22.487277	0.001016	20.711387
317.079058	-3.018400	3.824800	-11.543000	22.477507	0.001018	20.694015
318.079908	-2.989600	3.824900	-11.434000	22.454603	0.001018	20.713753
319.084454	-2.991400	3.824600	-11.439000	22.474488	0.001017	20.700950
320.084188	-2.999200	3.825000	-11.471000	22.470356	0.001017	20.717675
321.083528	-3.004600	3.822900	-11.485000	22.461459	0.001020	20.713980
322.085703	-2.993600	3.822700	-11.443000	22.449075	0.001020	20.725287
323.085419	-2.985100	3.823500	-11.412000	22.474795	0.001019	20.717853
324.084150	-2.999300	3.823300	-11.467000	22.454904	0.001020	20.722590
325.088998	-3.002400	3.822000	-11.474000	22.470608	0.001021	20.714134
326.084764	-3.020700	3.823000	-11.547000	22.478109	0.001021	20.704576
327.088037	-3.003100	3.821500	-11.475000	22.473000	0.001021	20.723168
328.087752	-2.999000	3.823200	-11.465000	22.486010	0.001024	20.710592
329.088010	-2.993700	3.821800	-11.440000	22.469513	0.001022	20.718253
330.083305	-3.024500	3.821300	-11.556000	22.492066	0.001022	20.728513
331.088655	-2.990600	3.822100	-11.429000	22.457849	0.001026	20.718426
332.090711	-2.988300	3.820300	-11.416000	22.480279	0.001023	20.725243
333.091659	-2.995300	3.820700	-11.443000	22.484141	0.001025	20.720101
334.089425	-3.009700	3.820000	-11.496000	22.469543	0.001025	20.717335
335.089884	-2.988200	3.820900	-11.417000	22.482868	0.001027	20.701755
336.092897	-3.018200	3.819400	-11.526000	22.497852	0.001028	20.713917
337.087587	-3.010000	3.819400	-11.494000	22.524039	0.001027	20.725446
338.094506	-2.988000	3.821600	-11.417000	22.519704	0.001026	20.732010
339.089943	-3.012200	3.819200	-11.502000	22.534307	0.001025	20.714866
340.091267	-2.992800	3.818000	-11.426000	22.556011	0.001029	20.725698
341.090675	-2.990100	3.819400	-11.419000	22.541217	0.001029	20.711354
342.087866	-2.989100	3.818300	-11.412000	22.538623	0.001028	20.726301
343.088280	-3.023800	3.816700	-11.539000	22.549413	0.001029	20.725254
344.090761	-2.997000	3.818300	-11.442000	22.545398	0.001029	20.745890
345.088765	-3.004600	3.818300	-11.470000	22.532295	0.001029	20.733715
346.088274	-3.001900	3.817600	-11.459000	22.588633	0.001031	20.734189
347.092293	-3.032300	3.816100	-11.570000	22.580412	0.001029	20.718843
348.089426	-3.012000	3.816500	-11.493000	22.557393	0.001032	20.725659
349.092491	-3.020900	3.815800	-11.525000	22.540995	0.001031	20.710184
350.095079	-2.966600	3.815700	-11.318000	22.588540	0.001031	20.726983
351.094434	-3.002100	3.814700	-11.451000	22.609020	0.001033	20.738487
352.094915	-2.990900	3.814700	-11.408000	22.579200	0.001031	20.723793
353.091498	-2.975900	3.817000	-11.359000	22.583387	0.001032	20.731306
354.094371	-3.002800	3.815700	-11.457000	22.610820	0.001032	20.717530
355.094085	-2.988300	3.815900	-11.402000	22.642261	0.001033	20.721995
356.092567	-2.998400	3.813900	-11.434000	22.630782	0.001034	20.743689
357.094855	-3.017700	3.812900	-11.505000	22.638652	0.001035	20.719328
358.094736	-2.992600	3.813900	-11.413000	22.663815	0.001033	20.746904
359.091544	-3.003200	3.813000	-11.449000	22.680955	0.001035	20.742735
360.094144	-3.016300	3.812700	-11.500000	22.659886	0.001037	20.735381
361.094415	-3.001100	3.811600	-11.438000	22.695438	0.001035	20.745863
362.093207	-3.016500	3.813800	-11.503000	22.681987	0.001035	20.743769
363.094601	-2.987300	3.813300	-11.391000	22.720655	0.001037	20.724653
364.096795	-2.995800	3.811600	-11.418000	22.706000	0.001037	20.729414
365.094635	-3.000000	3.812600	-11.436000	22.717870	0.001039	20.731347
366.093682	-2.975600	3.811900	-11.342000	22.697638	0.001036	20.722935
367.096931	-2.988600	3.812300	-11.393000	22.703565	0.001037	20.736459
368.092446	-3.002200	3.811500	-11.442000	22.718220	0.001038	20.744026
369.095692	-3.014800	3.809700	-11.484000	22.692210	0.001038	20.746422
370.102679	-2.993500	3.810200	-11.405000	22.715755	0.001040	20.736341
371.095651	-3.015300	3.809200	-11.484000	22.705710	0.001038	20.749988
372.099532	-3.008800	3.808900	-11.458000	22.717421	0.001040	20.720940
373.105158	-2.991500	3.810100	-11.397000	22.703442	0.001041	20.735387
374.105857	-2.993600	3.810000	-11.404000	22.743855	0.001041	20.743152
375.098200	-3.006700	3.809000	-11.451000	22.709429	0.001040	20.714830
376.103099	-3.002400	3.809000	-11.435000	22.712189	0.001042	20.728976
377.101498	-3.001600	3.808600	-11.430000	22.728935	0.001039	20.743854
378.103947	-3.009700	3.807300	-11.458000	22.750506	0.001041	20.728951
379.102727	-2.982200	3.808300	-11.356000	22.754071	0.001040	20.751016
380.099578	-2.987800	3.807900	-11.377000	22.753149	0.001042	20.757679
381.103487	-2.991000	3.808900	-11.391000	22.735832	0.001042	20.744125
382.101507	-2.995100	3.806600	-11.400000	22.751705	0.001043	20.748171
383.104683	-3.006500	3.804900	-11.439000	22.746522	0.001041	20.730176
384.102227	-2.995500	3.807100	-11.403000	22.763459	0.001042	20.757574
385.106747	-2.996500	3.805900	-11.403000	22.753193	0.001043	20.738281
386.104301	-3.007300	3.805400	-11.443000	22.796543	0.001043	20.745671
387.106214	-2.996100	3.806800	-11.404000	22.779484	0.001045	20.757506
388.103196	-3.003300	3.805000	-11.427000	22.783013	0.001046	20.752507
389.103878	-2.992100	3.805600	-11.385000	22.801424	0.001044	20.760044
390.107275	-3.011100	3.803800	-11.453000	22.816674	0.001045	20.773425
391.101573	-3.014600	3.804800	-11.469000	22.824050	0.001045	20.763744
392.105173	-2.989000	3.805100	-11.372000	22.824567	0.001047	20.754305
393.101903	-3.007200	3.803200	-11.435000	22.816698	0.001045	20.754009
394.104232	-2.984700	3.804300	-11.354000	22.839891	0.001049	20.746896
395.106795	-3.000600	3.803800	-11.413000	22.845663	0.001047	20.767853
396.105486	-3.010600	3.801900	-11.445000	22.840684	0.001048	20.759545
397.107671	-2.983100	3.803800	-11.346000	22.847838	0.001048	20.760548
398.107146	-3.012300	3.801700	-11.451000	22.860992	0.001050	20.744802
399.106781	-3.025800	3.800900	-11.499000	22.850446	0.001049	20.744193
400.104575	-3.007300	3.800700	-11.428000	22.890208	0.001049	20.760321
401.113046	-2.995100	3.801400	-11.384000	22.894861	0.001049	20.788217
402.111451	-2.981900	3.801800	-11.334000	22.885125	0.001047	20.757125
403.108579	-2.973100	3.801800	-11.302000	22.880047	0.001050	20.742554
404.106519	-2.989400	3.800500	-11.361000	22.856328	0.001049	20.788020
405.110683	-2.982600	3.802400	-11.340000	22.867785	0.001049	20.771523
406.108646	-2.980800	3.799700	-11.325000	22.885199	0.001050	20.760518
407.115165	-3.007900	3.799700	-11.428000	22.908389	0.001051	20.756725
408.107179	-2.974300	3.799100	-11.296000	22.918476	0.001050	20.766356
409.109227	-2.972700	3.800700	-11.297000	22.914917	0.001050	20.756152
410.113727	-2.975600	3.798400	-11.302000	22.939847	0.001050	20.772120
411.105439	-2.973600	3.800000	-11.298000	22.938383	0.001049	20.777292
412.108618	-2.994200	3.798700	-11.373000	22.917209	0.001051	20.767458
413.108663	-2.983900	3.797800	-11.331000	22.953700	0.001051	20.775568
414.109190	-2.990800	3.798200	-11.359000	22.946152	0.001054	20.786498
415.110104	-3.012800	3.796800	-11.438000	22.939576	0.001052	20.771849
416.109832	-2.976900	3.797500	-11.304000	22.944935	0.001051	20.773425
417.113471	-2.982000	3.797400	-11.323000	22.935016	0.001053	20.781505
418.109053	-3.015400	3.795300	-11.444000	22.944210	0.001054	20.780759
419.106915	-3.007400	3.796600	-11.417000	22.940774	0.001054	20.783481
420.113245	-2.995200	3.795700	-11.366000	22.923110	0.001053	20.779060
421.111171	-2.989500	3.795500	-11.345000	22.940000	0.001053	20.790766
422.112026	-2.987500	3.794300	-11.334000	22.950940	0.001054	20.762845
423.112761	-2.984500	3.795900	-11.328000	22.949213	0.001055	20.789565
424.109403	-2.990500	3.794500	-11.345000	22.933473	0.001054	20.776640
425.109920	-3.013200	3.794900	-11.434000	22.934050	0.001055	20.775321
426.114109	-2.990700	3.795000	-11.349000	22.963067	0.001052	20.786375
427.113192	-2.995700	3.794100	-11.365000	22.979680	0.001055	20.781209
428.112248	-2.993900	3.793400	-11.356000	22.966601	0.001056	20.801296
429.114985	-2.983900	3.794000	-11.320000	22.951801	0.001056	20.787417
430.113629	-2.998000	3.791700	-11.365000	22.937333	0.001055	20.788094
431.113891	-2.965000	3.793100	-11.246000	22.944002	0.001056	20.782922
432.116370	-2.984700	3.793400	-11.321000	22.935163	0.001056	20.773118
433.110126	-2.961600	3.793700	-11.234000	22.936189	0.001055	20.786948
434.112478	-2.980600	3.791400	-11.300000	22.979871	0.001056	20.793254
435.114578	-2.981900	3.791200	-11.304000	22.983258	0.001055	20.793803
436.115241	-3.011200	3.790800	-11.413000	22.970805	0.001056	20.789387
437.113613	-3.017800	3.790700	-11.438000	22.971432	0.001055	20.791911
438.116123	-3.002500	3.790300	-11.379000	22.996287	0.001056	20.798322
439.112256	-3.025800	3.790000	-11.467000	22.982040	0.001055	20.802540
440.111991	-3.015700	3.787900	-11.421000	22.965047	0.001056	20.793101
441.113078	-3.003900	3.789900	-11.383000	22.979589	0.001057	20.783015
442.112759	-3.005600	3.788000	-11.384000	22.982735	0.001055	20.783322
443.113847	-2.995700	3.789100	-11.350000	22.980590	0.001059	20.796820
444.112356	-2.982100	3.788500	-11.296000	23.000319	0.001056	20.776758
445.115934	-3.023200	3.789100	-11.454000	22.996508	0.001058	20.803286
446.110081	-2.993100	3.788200	-11.337000	22.990578	0.001061	20.825793
447.115517	-3.021900	3.787800	-11.446000	22.993116	0.001058	20.800835
448.120652	-3.010900	3.786000	-11.398000	23.021086	0.001059	20.807049
449.114324	-3.017000	3.785800	-11.420000	23.014861	0.001059	20.805552
450.114172	-3.008800	3.786900	-11.393000	23.038916	0.001059	20.807369
451.115485	-2.996700	3.786500	-11.345000	23.032696	0.001057	20.811094
452.114315	-2.998000	3.786300	-11.350000	23.071026	0.001059	20.808723
453.116386	-3.027100	3.785500	-11.458000	23.057150	0.001059	20.800983
454.117674	-3.007600	3.785500	-11.383000	23.056928	0.001058	20.802658
455.116133	-2.992500	3.785900	-11.328000	23.070651	0.001057	20.800287
456.115971	-3.011000	3.784600	-11.394000	23.087884	0.001060	20.811390
457.116827	-3.014100	3.783100	-11.401000	23.072243	0.001057	20.799986
458.119377	-2.995700	3.784300	-11.335000	23.087109	0.001060	20.804450
459.125131	-2.989800	3.786000	-11.318000	23.079587	0.001061	20.810664
460.116266	-2.991400	3.784000	-11.319000	23.090023	0.001058	20.826335
461.123127	-2.989400	3.784900	-11.314000	23.092167	0.001060	20.796716
462.128120	-2.990700	3.783300	-11.313000	23.089826	0.001060	20.806224
463.122223	-2.971500	3.783600	-11.242000	23.107279	0.001060	20.812333
464.124477	-3.012900	3.782600	-11.396000	23.094331	0.001061	20.816427
465.129666	-3.022500	3.781700	-11.429000	23.090643	0.001061	20.801828
466.124146	-2.979500	3.782200	-11.268000	23.096248	0.001061	20.805547
467.123995	-3.019600	3.781400	-11.417000	23.110764	0.001061	20.823885
468.127440	-2.998000	3.781900	-11.337000	23.121396	0.001061	20.832167
469.122550	-2.970500	3.781500	-11.232000	23.126502	0.001060	20.809310
470.127336	-2.996400	3.781000	-11.329000	23.142541	0.001061	20.855252
471.128080	-2.978400	3.781900	-11.263000	23.169285	0.001061	20.824680
472.123399	-2.982200	3.780600	-11.274000	23.156258	0.001062	20.819212
473.124792	-2.973500	3.781500	-11.243000	23.164055	0.001058	20.817543
474.126005	-2.970900	3.780400	-11.230000	23.187880	0.001063	20.813917
475.125309	-3.019900	3.779400	-11.412000	23.184475	0.001062	20.819514
476.125962	-2.976100	3.779100	-11.246000	23.187131	0.001062	20.823123
477.124503	-2.988700	3.779700	-11.295000	23.185766	0.001063	20.824126
478.122438	-2.977500	3.779700	-11.254000	23.190394	0.001061	20.832557
479.122757	-3.024800	3.777000	-11.423000	23.211084	0.001063	20.837169
480.123018	-3.006200	3.775900	-11.350000	23.219705	0.001062	20.850075
481.124464	-2.989500	3.778800	-11.296000	23.232203	0.001063	20.837471
482.125512	-2.986200	3.777900	-11.280000	23.216062	0.001061	20.845950
483.124878	-2.994400	3.777400	-11.309000	23.242754	0.001062	20.842354
484.125590	-2.988300	3.776700	-11.285000	23.253133	0.001063	20.832842
485.126938	-2.998700	3.775200	-11.319000	23.254528	0.001064	20.837084
486.128343	-3.010400	3.776100	-11.367000	23.235080	0.001062	20.817121
487.123280	-2.988800	3.776500	-11.285000	23.199140	0.001062	20.847959
488.129147	-2.983600	3.776300	-11.266000	23.205157	0.001062	20.832653
489.127216	-2.999300	3.776000	-11.323000	23.228347	0.001063	20.846882
490.130864	-2.993200	3.775600	-11.300000	23.227844	0.001063	20.835947
491.131413	-2.998100	3.775800	-11.319000	23.240889	0.001063	20.851391
492.130916	-2.992800	3.775300	-11.297000	23.232644	0.001063	20.854507
493.134498	-2.989500	3.773800	-11.281000	23.239918	0.001061	20.828607
494.132281	-2.997900	3.773800	-11.313000	23.235078	0.001065	20.849834
495.130442	-2.985700	3.774100	-11.268000	23.219065	0.001061	20.847063
496.129618	-3.012900	3.773100	-11.367000	23.222278	0.001064	20.839852
497.130431	-3.019600	3.772800	-11.391000	23.234452	0.001061	20.840672
498.129394	-3.002600	3.772600	-11.327000	23.245057	0.001062	20.841818
499.129043	-3.018300	3.772100	-11.385000	23.257403	0.001063	20.861775
500.130144	-3.011000	3.772400	-11.357000	23.268082	0.001062	20.851141
501.130129	-3.016900	3.771700	-11.376000	23.278171	0.001064	20.851769
502.131125	-3.011400	3.770700	-11.353000	23.309254	0.001064	20.863954
503.130478	-3.040200	3.769800	-11.458000	23.291984	0.001063	20.860871
504.133374	-2.967200	3.772000	-11.191000	23.295849	0.001063	20.861424
505.129144	-3.003000	3.771200	-11.324000	23.286632	0.001063	20.856455
506.132400	-2.988200	3.770200	-11.266000	23.303561	0.001064	20.868205
507.132560	-3.015900	3.768900	-11.366000	23.306197	0.001061	20.886018
508.133794	-2.989000	3.768600	-11.263000	23.313914	0.001063	20.845392
509.134682	-2.995000	3.770000	-11.290000	23.295261	0.001063	20.876007
510.130485	-2.989300	3.769100	-11.266000	23.329797	0.001066	20.861309
511.134657	-2.983100	3.769200	-11.243000	23.353851	0.001062	20.848434
512.135210	-2.992800	3.769200	-11.279000	23.356911	0.001065	20.867621
513.131155	-3.011200	3.766700	-11.342000	23.367585	0.001064	20.844655
514.130529	-2.999900	3.769500	-11.306000	23.365865	0.001063	20.864267
515.131361	-3.005900	3.767900	-11.324000	23.387675	0.001065	20.844877
516.133814	-3.007000	3.767600	-11.328000	23.394741	0.001065	20.858122
517.134110	-2.992300	3.767400	-11.272000	23.416079	0.001065	20.842999
518.135883	-3.019900	3.766400	-11.373000	23.424840	0.001064	20.842772
519.137815	-2.999200	3.767100	-11.297000	23.396929	0.001061	20.856048
520.134420	-3.000000	3.766800	-11.298000	23.404695	0.001064	20.840599
521.139955	-3.002600	3.764100	-11.300000	23.395278	0.001062	20.851548
522.138027	-3.004900	3.766400	-11.317000	23.400230	0.001064	20.851295
523.133191	-3.005700	3.765100	-11.316000	23.394129	0.001062	20.843759
524.135432	-3.011600	3.763600	-11.334000	23.406804	0.001062	20.834651
525.138588	-3.017800	3.763800	-11.358000	23.409735	0.001064	20.842805
526.139598	-3.010900	3.764400	-11.333000	23.394241	0.001065	20.827276
527.141020	-2.992500	3.764600	-11.264000	23.410848	0.001061	20.851033
528.137637	-2.990000	3.764400	-11.255000	23.445504	0.001065	20.825553
529.135868	-3.013400	3.763400	-11.341000	23.442562	0.001063	20.847259
530.137760	-2.998900	3.763600	-11.286000	23.437383	0.001063	20.848232
531.136614	-3.008900	3.762900	-11.321000	23.461208	0.001063	20.814741
532.136651	-3.005700	3.762100	-11.307000	23.451851	0.001063	20.847086
533.137776	-3.010700	3.761700	-11.324000	23.423512	0.001063	20.832432
534.134908	-3.000900	3.761100	-11.285000	23.416785	0.001063	20.840862
535.139799	-3.007900	3.762300	-11.315000	23.368261	0.001064	20.831108
536.139724	-2.998900	3.761800	-11.281000	23.395092	0.001063	20.845198
537.145377	-2.982200	3.761100	-11.215000	23.385434	0.001063	20.828406
538.146424	-3.002400	3.760900	-11.290000	23.379106	0.001060	20.823961
539.141078	-2.988100	3.759400	-11.232000	23.402735	0.001065	20.826781
540.144098	-3.002300	3.761200	-11.291000	23.377534	0.001063	20.818592
541.144964	-2.991300	3.761700	-11.252000	23.386197	0.001062	20.825852
542.140537	-3.005200	3.758700	-11.295000	23.390332	0.001063	20.830944
543.145971	-2.993800	3.758800	-11.251000	23.393786	0.001062	20.825871
544.142164	-3.001500	3.757600	-11.277000	23.367091	0.001062	20.844160
545.141444	-2.971700	3.759800	-11.172000	23.365303	0.001063	20.826721
546.142010	-3.006600	3.759200	-11.301000	23.380657	0.001063	20.833576
547.139258	-2.977100	3.758500	-11.188000	23.381874	0.001064	20.832899
548.139506	-3.000700	3.757500	-11.274000	23.374453	0.001062	20.833995
549.146075	-3.006000	3.757100	-11.292000	23.383988	0.001062	20.818422
550.139963	-2.990900	3.757200	-11.236000	23.376832	0.001062	20.837328
551.142090	-2.986900	3.757000	-11.221000	23.367100	0.001062	20.817143
552.147355	-3.016100	3.756400	-11.328000	23.343371	0.001063	20.811853
553.143177	-2.998700	3.757800	-11.268000	23.371002	0.001063	20.810148
554.144780	-2.993400	3.756900	-11.245000	23.402649	0.001063	20.809151
555.144358	-3.005100	3.756600	-11.287000	23.398342	0.001062	20.793929
556.146610	-3.026600	3.754600	-11.362000	23.414992	0.001062	20.800186
557.142988	-3.022000	3.756000	-11.350000	23.405457	0.001063	20.811492
558.143315	-2.995500	3.756800	-11.253000	23.427858	0.001064	20.802650
559.145158	-2.999500	3.755500	-11.263000	23.435432	0.001061	20.829682
560.144670	-3.009800	3.753600	-11.297000	23.447253	0.001062	20.810237
561.145138	-2.983100	3.755200	-11.202000	23.486688	0.001062	20.818944
562.149091	-3.005300	3.754200	-11.281000	23.464455	0.001063	20.811832
563.148119	-2.989100	3.753900	-11.220000	23.450461	0.001061	20.827202
564.145325	-2.999900	3.753700	-11.260000	23.471748	0.001061	20.819141
565.154034	-3.017800	3.751900	-11.321000	23.455561	0.001063	20.818563
566.152014	-2.986500	3.752900	-11.207000	23.450155	0.001061	20.807455
567.149928	-3.010100	3.753300	-11.297000	23.447489	0.001061	20.834654
568.152607	-3.013700	3.752600	-11.308000	23.467179	0.001061	20.804605
569.153092	-2.995800	3.751900	-11.239000	23.471461	0.001064	20.816957
570.154065	-3.009900	3.751200	-11.290000	23.459827	0.001061	20.811460
571.153501	-2.995400	3.751200	-11.236000	23.459255	0.001060	20.804723
572.154173	-3.025300	3.750700	-11.346000	23.443019	0.001061	20.799828
573.154685	-2.997500	3.751100	-11.243000	23.420164	0.001061	20.830974
574.150681	-2.996400	3.752100	-11.241000	23.403897	0.001063	20.793807
575.157798	-3.004600	3.750200	-11.267000	23.409328	0.001060	20.824380
576.158462	-2.998900	3.749700	-11.244000	23.442910	0.001062	20.813469
577.150977	-3.013800	3.748900	-11.297000	23.451651	0.001062	20.803265
578.154731	-3.019000	3.749900	-11.320000	23.444408	0.001061	20.808333
579.154951	-3.010100	3.747900	-11.280000	23.470912	0.001060	20.811666
580.152107	-3.002800	3.748700	-11.255000	23.455622	0.001060	20.810564
581.155716	-3.016700	3.748300	-11.306000	23.466778	0.001059	20.801832
582.155542	-3.014000	3.748600	-11.298000	23.467221	0.001061	20.803699
583.154447	-3.017000	3.747100	-11.304000	23.481161	0.001060	20.794438
584.152885	-2.998200	3.748000	-11.236000	23.472370	0.001059	20.790842
585.155658	-2.993400	3.747600	-11.217000	23.509863	0.001060	20.802345
586.156745	-3.013800	3.747800	-11.294000	23.523107	0.001059	20.816096
587.156232	-3.010700	3.746400	-11.277000	23.521254	0.001058	20.799065
588.157994	-2.990200	3.747800	-11.206000	23.545112	0.001059	20.801170
589.158781	-2.994100	3.745700	-11.214000	23.499820	0.001058	20.786589
590.152045	-2.999100	3.745900	-11.234000	23.523969	0.001059	20.797045
591.158218	-3.010700	3.744500	-11.272000	23.552787	0.001059	20.809812
592.156603	-2.976000	3.747100	-11.150000	23.564711	0.001059	20.787151
593.156462	-2.987700	3.745600	-11.190000	23.545342	0.001057	20.802823
594.157539	-3.014200	3.745200	-11.287000	23.528265	0.001058	20.785704
595.159382	-2.985600	3.746400	-11.184000	23.505308	0.001057	20.801099
596.157517	-3.002600	3.743600	-11.239000	23.471324	0.001057	20.798802
597.160425	-2.990600	3.745200	-11.200000	23.479035	0.001057	20.797049
598.159543	-2.984700	3.744900	-11.177000	23.480085	0.001058	20.814222
599.157733	-3.006800	3.742200	-11.251000	23.525214	0.001055	20.801612
600.157766	-3.013300	3.743700	-11.280000	23.549037	0.001057	20.812216
601.157310	-3.008500	3.742400	-11.258000	23.539749	0.001056	20.790578
602.154493	-3.001000	3.742800	-11.231000	23.542789	0.001057	20.804057
603.157424	-3.020800	3.742800	-11.305000	23.562221	0.001056	20.806467
604.154535	-3.015500	3.742000	-11.282000	23.567400	0.001056	20.792692
605.155562	-3.013600	3.741600	-11.274000	23.539990	0.001057	20.791294
606.158238	-3.002400	3.742000	-11.234000	23.517004	0.001057	20.801917
607.157805	-2.997700	3.741200	-11.214000	23.502444	0.001055	20.811978
608.156176	-3.032200	3.741000	-11.341000	23.495940	0.001055	20.801665
609.154945	-3.017400	3.740300	-11.283000	23.499601	0.001055	20.785895
610.155639	-2.986200	3.740900	-11.170000	23.514954	0.001055	20.812190
611.154429	-2.991900	3.741500	-11.193000	23.529538	0.001057	20.790774
612.155198	-2.995500	3.740000	-11.202000	23.510495	0.001055	20.784012
613.155166	-3.008100	3.738700	-11.245000	23.539945	0.001056	20.801205
614.155087	-2.990600	3.739400	-11.181000	23.533845	0.001055	20.798410
615.153715	-3.017000	3.739200	-11.279000	23.531647	0.001056	20.790991
616.159852	-2.994900	3.737600	-11.192000	23.534879	0.001054	20.793283
617.160736	-3.000200	3.738700	-11.216000	23.538644	0.001053	20.797056
618.159515	-3.027000	3.735800	-11.306000	23.532864	0.001054	20.795530
619.163535	-2.988500	3.739200	-11.173000	23.547276	0.001057	20.803339
620.157893	-3.016700	3.737900	-11.275000	23.556977	0.001054	20.803580
621.161405	-2.983100	3.738100	-11.149000	23.558494	0.001053	20.781394
622.160206	-2.998800	3.737000	-11.205000	23.558667	0.001055	20.779670
623.162155	-3.029000	3.735800	-11.314000	23.574773	0.001052	20.792497
624.160483	-2.998800	3.737400	-11.207000	23.558937	0.001053	20.799856
625.160605	-2.983000	3.737600	-11.149000	23.566032	0.001053	20.779941
626.162029	-3.014400	3.736300	-11.261000	23.573398	0.001054	20.804869
627.163456	-3.015000	3.736100	-11.263000	23.582139	0.001051	20.786604
628.160970	-3.006700	3.735100	-11.230000	23.547659	0.001053	20.787602
629.165403	-3.024900	3.735700	-11.299000	23.578951	0.001053	20.804271
630.163738	-3.003500	3.734600	-11.216000	23.544048	0.001052	20.790620
631.161473	-2.991300	3.735100	-11.172000	23.581838	0.001051	20.774449
632.170250	-3.004000	3.734200	-11.217000	23.557010	0.001053	20.792708
633.168472	-3.012400	3.733900	-11.247000	23.553108	0.001051	20.789745
634.163659	-3.006600	3.734100	-11.225000	23.580813	0.001050	20.783853
635.168023	-2.995700	3.733800	-11.184000	23.612602	0.001052	20.795805
636.167069	-3.008400	3.732400	-11.228000	23.617578	0.001050	20.780879
637.165781	-2.999400	3.733900	-11.198000	23.620115	0.001049	20.792432
638.165083	-2.999900	3.732700	-11.196000	23.637418	0.001050	20.772320
639.166104	-3.024800	3.731600	-11.286000	23.639206	0.001050	20.791656
640.162534	-3.015400	3.732100	-11.253000	23.662977	0.001048	20.785616
641.165723	-2.989800	3.732000	-11.157000	23.671017	0.001050	20.793676
642.162102	-2.992900	3.732800	-11.171000	23.686619	0.001050	20.787033
643.166025	-2.974800	3.732900	-11.102000	23.690231	0.001049	20.777851
644.166984	-2.989000	3.731900	-11.154000	23.695881	0.001049	20.784939
645.166971	-3.001600	3.731300	-11.198000	23.679919	0.001048	20.765616
646.166759	-2.990700	3.730900	-11.158000	23.670884	0.001048	20.776947
647.162296	-2.979800	3.730000	-11.113000	23.684747	0.001049	20.778518
648.171955	-2.988800	3.731300	-11.151000	23.674042	0.001047	20.775371
649.166007	-2.998200	3.729800	-11.182000	23.660301	0.001047	20.789097
650.168475	-3.003200	3.729800	-11.200000	23.665455	0.001047	20.752063
651.166350	-2.985700	3.730200	-11.136000	23.690792	0.001045	20.788845
652.168459	-2.987900	3.730700	-11.145000	23.686358	0.001049	20.764485
653.170131	-3.013500	3.729600	-11.238000	23.707044	0.001048	20.778586
654.171598	-2.995800	3.730200	-11.175000	23.702561	0.001047	20.785472
655.168664	-2.982900	3.729700	-11.124000	23.731232	0.001046	20.782449
656.166113	-3.007400	3.726900	-11.208000	23.752066	0.001047	20.789586
657.172069	-3.018500	3.727400	-11.251000	23.739646	0.001047	20.792781
658.169581	-2.995500	3.727900	-11.166000	23.749026	0.001045	20.755718
659.171504	-2.983100	3.728300	-11.121000	23.731769	0.001045	20.770184
660.167828	-3.002700	3.726900	-11.190000	23.746090	0.001047	20.753722
661.172204	-2.971300	3.727500	-11.074000	23.740636	0.001044	20.776704
662.173078	-2.987900	3.727300	-11.136000	23.684899	0.001045	20.751168
663.171203	-2.999200	3.726300	-11.175000	23.693811	0.001045	20.768164
664.174936	-2.991100	3.726000	-11.144000	23.669267	0.001044	20.761575
665.174976	-3.011900	3.724500	-11.217000	23.671976	0.001045	20.776620
666.173501	-3.007100	3.723700	-11.197000	23.667296	0.001044	20.761496
667.172891	-3.020400	3.725500	-11.252000	23.646609	0.001044	20.797656
668.173083	-3.013300	3.725800	-11.226000	23.639589	0.001041	20.766435
669.172735	-3.013100	3.723400	-11.218000	23.603317	0.001043	20.762316
670.176348	-2.994500	3.725000	-11.153000	23.624429	0.001042	20.764040
671.172094	-2.998700	3.723800	-11.166000	23.613624	0.001043	20.770278
672.173081	-3.004700	3.723600	-11.187000	23.608170	0.001043	20.751059
673.174515	-2.998700	3.723400	-11.165000	23.604529	0.001042	20.782497
674.175303	-2.996700	3.723400	-11.157000	23.641421	0.001042	20.759737
675.174271	-2.984200	3.725300	-11.116000	23.645505	0.001043	20.763832
676.171268	-3.004300	3.722100	-11.181000	23.652969	0.001041	20.740019
677.174028	-3.001200	3.723200	-11.173000	23.668705	0.001043	20.755322
678.175536	-3.001600	3.723000	-11.174000	23.680523	0.001041	20.774757
679.172723	-2.990500	3.721800	-11.129000	23.687169	0.001041	20.750599
680.176939	-2.999500	3.721900	-11.163000	23.694663	0.001041	20.752422
681.178041	-2.978300	3.722200	-11.085000	23.727123	0.001041	20.756991
682.175860	-3.010200	3.720700	-11.200000	23.725950	0.001040	20.771937
683.178486	-2.972400	3.721400	-11.061000	23.725231	0.001041	20.763155
684.176994	-2.985800	3.720600	-11.109000	23.766941	0.001038	20.760404
685.174286	-2.993500	3.719800	-11.135000	23.767616	0.001041	20.770090
686.181509	-2.983600	3.720900	-11.101000	23.735556	0.001037	20.770663
687.178567	-3.007100	3.720000	-11.185000	23.718255	0.001039	20.745255
688.176379	-2.982900	3.720700	-11.098000	23.701722	0.001038	20.765664
689.183969	-2.992600	3.719100	-11.129000	23.682760	0.001040	20.781267
690.182922	-2.992900	3.719300	-11.130000	23.687662	0.001036	20.761051
691.178917	-3.003800	3.718600	-11.168000	23.700505	0.001038	20.753538
692.183556	-2.994700	3.719100	-11.137000	23.731916	0.001037	20.765116
693.182961	-3.003300	3.718700	-11.168000	23.738039	0.001038	20.767936
694.180009	-3.000600	3.720000	-11.161000	23.742123	0.001036	20.774876
695.184399	-3.021800	3.716500	-11.230000	23.731817	0.001036	20.762172
696.185578	-3.010400	3.718100	-11.192000	23.768281	0.001038	20.761273
697.185948	-3.013300	3.718300	-11.203000	23.757399	0.001037	20.755578
698.185949	-2.996100	3.717500	-11.137000	23.775769	0.001036	20.745072
699.189668	-3.002800	3.717500	-11.162000	23.765020	0.001034	20.735717
700.185027	-3.009700	3.716800	-11.184000	23.775517	0.001038	20.726801
701.186638	-2.997800	3.717200	-11.143000	23.769892	0.001035	20.752456
702.187554	-3.005700	3.715200	-11.165000	23.768700	0.001035	20.748416
703.184859	-2.998500	3.715100	-11.138000	23.796798	0.001035	20.761890
704.185745	-3.029000	3.714700	-11.251000	23.791926	0.001035	20.748470
705.186519	-3.004100	3.715600	-11.160000	23.807527	0.001033	20.726653
706.189474	-2.982600	3.714900	-11.078000	23.815463	0.001034	20.751681
707.188882	-3.035700	3.714500	-11.275000	23.821413	0.001035	20.752906
708.190167	-3.000200	3.714600	-11.143000	23.808098	0.001035	20.749986
709.187928	-2.999800	3.715100	-11.143000	23.790478	0.001034	20.734689
710.189830	-2.973300	3.717200	-11.051000	23.796517	0.001034	20.735055
711.188320	-2.981700	3.713400	-11.071000	23.774867	0.001033	20.740849
712.189010	-2.997900	3.714300	-11.135000	23.785842	0.001033	20.740947
713.193584	-2.999100	3.714400	-11.137000	23.773749	0.001032	20.723605
714.190116	-3.001000	3.713400	-11.142000	23.768645	0.001032	20.722282
715.192586	-2.992700	3.713500	-11.112000	23.716102	0.001031	20.721758
716.192885	-2.978100	3.712900	-11.056000	23.720604	0.001032	20.723427
717.189651	-3.012300	3.713100	-11.184000	23.676646	0.001032	20.724875
718.195120	-3.006400	3.712900	-11.162000	23.692272	0.001033	20.747655
719.192698	-2.983800	3.712700	-11.077000	23.712762	0.001033	20.710822
720.190217	-3.011200	3.711100	-11.174000	23.701830	0.001031	20.727838
721.190197	-3.013700	3.710900	-11.182000	23.697923	0.001031	20.729611
722.198678	-2.994000	3.712900	-11.115000	23.661629	0.001030	20.733054
723.191499	-2.999100	3.709600	-11.125000	23.685326	0.001030	20.737845
724.190779	-3.016800	3.710000	-11.192000	23.702470	0.001031	20.741283
725.197399	-3.009600	3.710200	-11.166000	23.723634	0.001030	20.724568
726.193659	-3.006600	3.710300	-11.154000	23.722806	0.001028	20.730851
727.194380	-3.007600	3.709800	-11.157000	23.747374	0.001030	20.739361
728.195855	-2.997800	3.709900	-11.120000	23.759541	0.001028	20.729749
729.195183	-3.001300	3.709100	-11.131000	23.751275	0.001027	20.714822
730.193638	-2.991400	3.710300	-11.098000	23.744501	0.001028	20.724153
731.194932	-2.994600	3.709700	-11.109000	23.768128	0.001028	20.701846
732.195945	-3.009000	3.709100	-11.159000	23.726033	0.001026	20.733138
733.196076	-2.983600	3.709500	-11.066000	23.729797	0.001027	20.729799
734.195106	-2.997000	3.708000	-11.111000	23.741043	0.001026	20.727121
735.196599	-2.999900	3.709000	-11.125000	23.748886	0.001026	20.732817
736.196751	-3.006300	3.707500	-11.145000	23.784571	0.001028	20.723550
737.200662	-3.012000	3.707500	-11.165000	23.790595	0.001027	20.733859
738.201219	-2.989000	3.707900	-11.082000	23.822063	0.001025	20.700449
739.195554	-2.992600	3.708600	-11.098000	23.837111	0.001023	20.717435
740.201572	-2.989300	3.707400	-11.081000	23.851420	0.001027	20.709497
741.201979	-2.987600	3.707300	-11.074000	23.840520	0.001026	20.725595
742.198250	-3.027200	3.705100	-11.214000	23.852465	0.001026	20.712915
743.202377	-2.992200	3.706300	-11.089000	23.840801	0.001026	20.728722
744.198988	-3.011900	3.704100	-11.155000	23.846268	0.001025	20.724721
745.200106	-2.969400	3.706100	-11.004000	23.845948	0.001024	20.728667
746.200109	-2.986800	3.704800	-11.064000	23.833825	0.001025	20.721253
747.202038	-2.996500	3.703800	-11.097000	23.780413	0.001024	20.719855
748.197884	-2.981100	3.706200	-11.047000	23.747137	0.001025	20.693128
749.208355	-2.981500	3.705000	-11.045000	23.795497	0.001024	20.728816
750.203369	-3.010500	3.703500	-11.149000	23.756117	0.001024	20.725842
751.202002	-3.008700	3.703900	-11.143000	23.746019	0.001022	20.694378
752.204873	-3.012100	3.703600	-11.154000	23.747482	0.001023	20.713390
753.199139	-3.024000	3.702500	-11.194000	23.734811	0.001023	20.688356
754.200253	-3.007700	3.703700	-11.138000	23.749102	0.001024	20.705057
755.198210	-3.014600	3.703100	-11.161000	23.762290	0.001023	20.724918
756.200046	-2.993400	3.702800	-11.082000	23.737826	0.001023	20.707502
757.201529	-3.003600	3.703100	-11.121000	23.733269	0.001021	20.713839
758.201037	-3.022300	3.701100	-11.185000	23.726796	0.001023	20.722997
759.206130	-3.007300	3.701700	-11.130000	23.727170	0.001020	20.709147
760.203959	-3.009800	3.701000	-11.138000	23.728614	0.001021	20.701584
761.203893	-3.017300	3.701100	-11.167000	23.754201	0.001020	20.711117
762.208496	-3.008400	3.701800	-11.135000	23.771398	0.001019	20.714135
763.204734	-3.016300	3.701100	-11.163000	23.759728	0.001018	20.697692
764.201916	-2.975900	3.701100	-11.013000	23.784669	0.001019	20.729339
765.208535	-3.008200	3.701000	-11.132000	23.769378	0.001019	20.709265
766.204692	-2.985400	3.700600	-11.047000	23.783068	0.001019	20.722043
767.204690	-2.987400	3.699800	-11.052000	23.780807	0.001019	20.691799
768.208449	-3.009000	3.699300	-11.131000	23.773561	0.001017	20.722468
769.205657	-3.007000	3.699600	-11.124000	23.814585	0.001017	20.707176
770.205801	-3.004000	3.697900	-11.107000	23.833845	0.001018	20.720325
771.209002	-2.991300	3.697900	-11.059000	23.837456	0.001019	20.718729
772.204276	-3.009200	3.700600	-11.135000	23.852962	0.001017	20.702508
773.204167	-3.010400	3.699200	-11.135000	23.824264	0.001018	20.701708
774.207199	-3.012900	3.698600	-11.143000	23.812289	0.001016	20.719574
775.208478	-3.004100	3.698300	-11.109000	23.778319	0.001015	20.703056
776.208972	-2.997600	3.698900	-11.086000	23.765176	0.001015	20.716432
777.208168	-3.011400	3.697000	-11.132000	23.754122	0.001016	20.736170
778.207747	-3.015700	3.698000	-11.151000	23.753378	0.001016	20.722147
779.207570	-3.011100	3.697700	-11.134000	23.726816	0.001016	20.705946
780.204822	-3.000600	3.696800	-11.091000	23.741649	0.001017	20.720344
781.209168	-3.013100	3.696400	-11.137000	23.778492	0.001016	20.706074
782.206847	-3.015600	3.695800	-11.144000	23.798477	0.001015	20.710465
783.209978	-3.003600	3.695700	-11.099000	23.776969	0.001015	20.719722
784.209253	-2.983000	3.696200	-11.025000	23.797531	0.001015	20.713785
785.210885	-3.018400	3.695800	-11.155000	23.803925	0.001014	20.738689
786.208622	-2.991800	3.695000	-11.054000	23.808777	0.001013	20.726958
787.208947	-2.977800	3.695700	-11.004000	23.815733	0.001013	20.719707
788.209073	-2.997300	3.695700	-11.075000	23.812787	0.001015	20.716753
789.209605	-2.997900	3.694300	-11.074000	23.817343	0.001015	20.713261
790.210842	-2.999100	3.695500	-11.083000	23.834796	0.001013	20.725071
791.209495	-2.989300	3.694400	-11.043000	23.846810	0.001014	20.732377
792.209907	-2.992700	3.694000	-11.055000	23.854302	0.001012	20.711438
793.210754	-3.004300	3.693300	-11.095000	23.900864	0.001012	20.725886
794.210442	-3.017100	3.693100	-11.141000	23.909134	0.001013	20.712367
795.211187	-2.981300	3.693800	-11.012000	23.895594	0.001012	20.730085
796.212974	-2.991300	3.693300	-11.046000	23.919359	0.001012	20.730682
797.212349	-3.014200	3.692700	-11.129000	23.897032	0.001012	20.728208
798.212126	-3.004100	3.692200	-11.090000	23.910400	0.001011	20.723594
799.212635	-2.993900	3.692500	-11.054000	23.890319	0.001010	20.715785
800.212061	-2.993300	3.693000	-11.053000	23.910720	0.001011	20.737667
801.213235	-2.993400	3.691900	-11.049000	23.904273	0.001012	20.723140
802.214507	-2.979400	3.692900	-11.002000	23.878615	0.001011	20.724439
803.214689	-2.983600	3.692600	-11.016000	23.893747	0.001011	20.721120
804.212606	-2.983600	3.692600	-11.015000	23.888447	0.001010	20.739514
805.212233	-2.999600	3.689700	-11.066000	23.903179	0.001010	20.726311
806.211726	-3.000900	3.689500	-11.070000	23.919729	0.001009	20.734372
807.213029	-2.995300	3.690900	-11.054000	23.927614	0.001009	20.737538
808.211523	-2.977700	3.690400	-10.988000	23.934485	0.001010	20.736368
809.212630	-2.992300	3.688900	-11.037000	23.943592	0.001010	20.746449
810.214790	-2.999000	3.688300	-11.060000	23.928910	0.001009	20.711335
811.213976	-3.002600	3.689600	-11.077000	23.922438	0.001007	20.731873
812.216535	-2.999200	3.690000	-11.066000	23.925452	0.001008	20.734896
813.211513	-2.981600	3.690700	-11.003000	23.929678	0.001006	20.725382
814.215296	-3.011600	3.687900	-11.105000	23.932441	0.001007	20.727205
815.213089	-2.991900	3.688800	-11.036000	23.928087	0.001007	20.729003
816.211191	-2.993000	3.687700	-11.037000	23.927688	0.001007	20.724335
817.215587	-3.014600	3.687600	-11.116000	23.917010	0.001007	20.743026
818.210823	-2.992600	3.688000	-11.036000	23.907001	0.001006	20.742947
819.214137	-2.992900	3.688700	-11.039000	23.942193	0.001005	20.749313
820.212045	-2.973400	3.687900	-10.962000	23.949956	0.001005	20.730070
821.213133	-2.992200	3.687300	-11.033000	23.949335	0.001004	20.723757
822.216190	-2.996400	3.686900	-11.046000	23.950803	0.001006	20.738506
823.213764	-3.008800	3.686900	-11.093000	23.979369	0.001004	20.734436
824.213534	-3.004400	3.686100	-11.072000	24.011270	0.001004	20.744616
825.215833	-3.000500	3.685600	-11.057000	23.999001	0.001005	20.747012
826.213658	-3.007000	3.685700	-11.082000	23.987205	0.001004	20.734233
827.213650	-3.005700	3.685100	-11.075000	23.975882	0.001004	20.739000
828.217806	-2.997500	3.684900	-11.043000	24.003823	0.001004	20.731457
829.215459	-2.993800	3.684700	-11.030000	23.987378	0.001003	20.741993
830.216955	-2.974200	3.685700	-10.960000	23.998080	0.001002	20.766951
831.222721	-3.020800	3.683600	-11.125000	24.016564	0.001002	20.766522
832.218477	-2.967500	3.685800	-10.937000	24.015397	0.001002	20.742591
833.219114	-2.990400	3.684500	-11.017000	23.991751	0.001003	20.749224
834.219074	-3.010700	3.684400	-11.092000	23.994416	0.001002	20.750948
835.220207	-2.989400	3.682700	-11.008000	23.982448	0.001000	20.747955
836.219801	-2.998600	3.682900	-11.041000	23.983689	0.001000	20.751096
837.219405	-2.991500	3.683000	-11.017000	24.008792	0.001001	20.747821
838.224282	-3.001300	3.681900	-11.049000	23.998371	0.000999	20.763449
839.221110	-3.004900	3.680700	-11.058000	23.975197	0.001000	20.766763
840.218707	-3.009900	3.681800	-11.082000	23.967115	0.000999	20.749175
841.220469	-3.016200	3.680200	-11.099000	23.976375	0.000998	20.744710
842.220465	-2.994900	3.681200	-11.023000	23.974208	0.000998	20.762926
843.217784	-2.990700	3.681600	-11.009000	23.941154	0.000996	20.766289
844.226964	-3.007300	3.680200	-11.067000	23.923413	0.000997	20.734747
845.221567	-2.987400	3.681100	-10.996000	23.929062	0.000998	20.760328
846.221562	-2.982500	3.680800	-10.977000	23.906912	0.000998	20.747125
847.221023	-3.019600	3.679800	-11.110000	23.906587	0.000997	20.768136
848.220366	-3.007300	3.681000	-11.069000	23.905040	0.000995	20.752360
849.224042	-2.979900	3.680300	-10.966000	23.929338	0.000995	20.757759
850.225323	-3.006200	3.679900	-11.061000	23.931219	0.000996	20.764387
851.222694	-3.002500	3.680200	-11.049000	23.940075	0.000997	20.763785
852.222406	-3.001100	3.679100	-11.041000	23.956082	0.000996	20.757552
853.226549	-2.998300	3.678000	-11.027000	23.985319	0.000993	20.749886
854.221611	-2.975400	3.679400	-10.947000	23.990071	0.000996	20.758920
855.225360	-3.006200	3.676800	-11.052000	24.010801	0.000995	20.765010
856.224682	-3.025600	3.677200	-11.125000	24.044537	0.000994	20.762333
857.224333	-3.003500	3.678500	-11.048000	24.045261	0.000996	20.769223
858.228781	-3.015600	3.676400	-11.084000	24.057997	0.000993	20.772986
859.229184	-2.993700	3.677000	-11.008000	24.052550	0.000992	20.775110
860.229026	-3.026200	3.676800	-11.125000	24.041622	0.000996	20.763202
861.227564	-2.999800	3.675700	-11.026000	24.013603	0.000993	20.760233
862.233531	-3.008600	3.676300	-11.060000	23.974778	0.000995	20.771559
863.230992	-3.001600	3.676200	-11.033000	23.977069	0.000994	20.787132
864.232306	-3.012400	3.673900	-11.066000	23.971567	0.000994	20.753639
865.231564	-3.008100	3.676700	-11.058000	23.995110	0.000992	20.753066
866.232556	-3.025700	3.675900	-11.120000	24.010535	0.000993	20.764269
867.231485	-2.991900	3.675200	-10.994000	24.027605	0.000992	20.763844
868.228757	-3.006800	3.674600	-11.048000	24.052688	0.000991	20.783309
869.232276	-3.008900	3.676200	-11.060000	24.043774	0.000992	20.786697
870.230429	-3.005600	3.674500	-11.043000	24.062242	0.000990	20.768709
871.228718	-2.987000	3.674900	-10.976000	24.048802	0.000991	20.784628
872.231050	-3.027700	3.673400	-11.120000	24.050294	0.000991	20.779012
873.236895	-3.007400	3.674100	-11.047000	24.068876	0.000990	20.779629
874.233216	-3.019600	3.672200	-11.087000	24.052259	0.000991	20.783828
875.239284	-2.994300	3.673300	-10.998000	24.065793	0.000991	20.768951
876.236825	-2.986200	3.672600	-10.964000	24.077386	0.000990	20.796225
877.231131	-2.975600	3.672900	-10.927000	24.080897	0.000990	20.793582
878.236869	-2.991100	3.672000	-10.982000	24.069097	0.000990	20.775584
879.233228	-2.995600	3.672100	-10.999000	24.082783	0.000988	20.793103
880.235726	-3.014100	3.671300	-11.065000	24.113158	0.000988	20.762875
881.239009	-3.009300	3.671800	-11.049000	24.104176	0.000986	20.778997
882.236498	-3.001400	3.670800	-11.015000	24.086161	0.000986	20.786060
883.234921	-3.005900	3.671300	-11.035000	24.091140	0.000986	20.778251
884.238544	-3.001700	3.670500	-11.017000	24.126150	0.000987	20.800561
885.238729	-3.000300	3.671100	-11.013000	24.105195	0.000988	20.790451
886.232812	-3.030800	3.668800	-11.118000	24.137939	0.000986	20.780143
887.236936	-3.012400	3.669000	-11.051000	24.108854	0.000987	20.792698
888.235202	-2.991300	3.670900	-10.980000	24.103383	0.000986	20.800961
889.237869	-2.978300	3.669900	-10.929000	24.091736	0.000987	20.789755
890.236955	-3.004800	3.669600	-11.026000	24.089993	0.000985	20.794644
891.235996	-2.973200	3.670600	-10.913000	24.127912	0.000985	20.773406
892.237476	-2.978800	3.669300	-10.928000	24.103354	0.000985	20.803777
893.237291	-3.002900	3.667700	-11.013000	24.101659	0.000983	20.807767
894.236840	-2.993600	3.668800	-10.982000	24.139505	0.000984	20.794990
895.233770	-3.034400	3.666500	-11.124000	24.136747	0.000984	20.801707
896.236873	-2.998500	3.666300	-10.991000	24.128681	0.000984	20.805945
897.236167	-3.006400	3.667000	-11.023000	24.156051	0.000982	20.792619
898.233470	-2.993800	3.667300	-10.978000	24.174783	0.000980	20.783432
899.238088	-3.017600	3.667700	-11.066000	24.175758	0.000981	20.789152
900.236878	-2.991000	3.667300	-10.968000	24.175379	0.000981	20.798255
901.236812	-3.026000	3.667300	-11.095000	24.160901	0.000983	20.790372
902.236734	-3.015500	3.665800	-11.053000	24.155997	0.000982	20.805841
903.236563	-2.998500	3.666500	-10.993000	24.186872	0.000981	20.788446
904.233690	-3.011400	3.664000	-11.033000	24.184858	0.000981	20.798753
905.232441	-2.995200	3.665500	-10.978000	24.197844	0.000980	20.778587
906.236974	-3.012800	3.664700	-11.040000	24.191472	0.000981	20.792585
907.239007	-3.010000	3.665400	-11.031000	24.216078	0.000980	20.790238
908.237748	-2.975700	3.666300	-10.909000	24.238571	0.000979	20.801421
909.240443	-3.008900	3.663600	-11.022000	24.189379	0.000978	20.802813
910.238563	-3.000300	3.664600	-10.994000	24.165220	0.000982	20.818885
911.240003	-2.999300	3.663000	-10.985000	24.166382	0.000979	20.813412
912.245467	-3.019700	3.662300	-11.058000	24.192087	0.000979	20.818806
913.238566	-2.989600	3.664200	-10.953000	24.160832	0.000977	20.828234
914.239193	-2.997400	3.662500	-10.977000	24.156844	0.000977	20.800052
915.244515	-2.989700	3.662400	-10.949000	24.139554	0.000978	20.806893
916.238183	-2.987900	3.663000	-10.943000	24.122535	0.000975	20.812109
917.237958	-2.997200	3.663600	-10.980000	24.129995	0.000978	20.822910
918.241783	-3.001100	3.660500	-10.985000	24.141942	0.000976	20.796960
919.241424	-2.993500	3.662400	-10.963000	24.148309	0.000975	20.829899
920.241986	-2.973800	3.661900	-10.888000	24.207027	0.000976	20.804394
921.239787	-2.982600	3.661000	-10.919000	24.200379	0.000976	20.815744
922.238475	-2.995500	3.660600	-10.964000	24.200680	0.000975	20.823157
923.242705	-2.991500	3.661100	-10.951000	24.182864	0.000975	20.828521
924.241100	-2.958800	3.661300	-10.831000	24.166348	0.000976	20.818119
925.243433	-2.991800	3.660000	-10.949000	24.166742	0.000975	20.799548
926.241602	-2.999000	3.659300	-10.973000	24.177688	0.000976	20.815744
927.242334	-3.001700	3.660300	-10.987000	24.194534	0.000974	20.817941
928.245619	-2.993700	3.660300	-10.957000	24.208691	0.000974	20.844469
929.242154	-2.995800	3.658200	-10.959000	24.225586	0.000973	20.808785
930.242465	-2.974600	3.658600	-10.882000	24.224966	0.000972	20.815274
931.239650	-3.004500	3.658000	-10.989000	24.243170	0.000975	20.820258
932.244171	-3.002600	3.657700	-10.980000	24.223966	0.000971	20.822332
933.245129	-2.969000	3.658800	-10.861000	24.257228	0.000971	20.820609
934.243505	-3.005100	3.657500	-10.991000	24.258026	0.000972	20.840374
935.245853	-2.979300	3.656900	-10.893000	24.264766	0.000971	20.804937
936.244264	-2.983300	3.658000	-10.912000	24.233396	0.000971	20.840799
937.245299	-2.990800	3.657000	-10.936000	24.212966	0.000971	20.835480
938.242426	-3.008800	3.656700	-11.000000	24.205299	0.000972	20.807402
939.245587	-3.008700	3.655800	-10.998000	24.200473	0.000969	20.839544
940.242379	-2.997100	3.655900	-10.955000	24.190521	0.000967	20.826718
941.243336	-2.992400	3.656900	-10.942000	24.181313	0.000967	20.840715
942.245104	-2.981100	3.655800	-10.897000	24.195667	0.000969	20.832828
943.244117	-2.993900	3.654500	-10.939000	24.223607	0.000967	20.830032
944.247696	-2.985700	3.655800	-10.915000	24.228925	0.000968	20.848168
945.242071	-2.959600	3.656500	-10.821000	24.225172	0.000968	20.842508
946.242794	-3.017600	3.654900	-11.027000	24.230343	0.000968	20.848168
947.243058	-2.994600	3.653900	-10.941000	24.261965	0.000967	20.827256
948.244099	-2.985900	3.655700	-10.914000	24.260049	0.000967	20.854732
949.243131	-2.989500	3.654500	-10.924000	24.263432	0.000966	20.833470
950.245101	-3.001400	3.653400	-10.963000	24.252634	0.000966	20.842078
951.244309	-3.002000	3.652200	-10.963000	24.284674	0.000966	20.845293
952.244034	-3.004400	3.652900	-10.973000	24.286884	0.000966	20.849407
953.243075	-3.003700	3.653100	-10.972000	24.272384	0.000964	20.865681
954.242755	-3.002900	3.653200	-10.970000	24.284644	0.000963	20.853324
955.247385	-2.998800	3.653200	-10.954000	24.252102	0.000965	20.842967
956.242591	-3.034900	3.652100	-11.083000	24.283477	0.000964	20.832714
957.250606	-3.002500	3.651600	-10.962000	24.286432	0.000962	20.858436
958.246871	-2.984800	3.651300	-10.897000	24.300686	0.000961	20.841915
959.246866	-3.007700	3.649700	-10.976000	24.309598	0.000962	20.867449
960.250659	-3.000600	3.650100	-10.951000	24.289543	0.000963	20.839747
961.250067	-3.021200	3.649700	-11.026000	24.308352	0.000962	20.856243
962.246845	-2.997700	3.651100	-10.944000	24.315339	0.000963	20.856613
963.253434	-3.012900	3.649200	-10.993000	24.312852	0.000962	20.860283
964.251975	-3.010200	3.650500	-10.987000	24.312306	0.000959	20.857364
965.250039	-3.011900	3.648400	-10.987000	24.318771	0.000961	20.879021
966.254318	-2.992000	3.649300	-10.916000	24.321932	0.000961	20.858011
967.252467	-2.983100	3.650600	-10.889000	24.333473	0.000961	20.858683
968.246893	-3.009000	3.648600	-10.978000	24.347052	0.000959	20.859502
969.248733	-2.995200	3.648000	-10.925000	24.352276	0.000960	20.860950
970.249607	-2.991800	3.649000	-10.916000	24.334093	0.000960	20.866891
971.249937	-3.021500	3.647300	-11.019000	24.322852	0.000960	20.857986
972.254244	-2.998800	3.647300	-10.935000	24.287623	0.000959	20.850622
973.253509	-3.019100	3.646800	-11.008000	24.289814	0.000960	20.887905
974.249516	-2.994100	3.647400	-10.920000	24.258685	0.000958	20.867113
975.250672	-3.002400	3.646300	-10.947000	24.265579	0.000958	20.868812
976.258046	-3.016400	3.644900	-10.993000	24.242441	0.000959	20.880690
977.251655	-3.012400	3.645700	-10.981000	24.213586	0.000959	20.861231
978.252729	-2.988300	3.645700	-10.893000	24.224729	0.000957	20.866718
979.255000	-3.005200	3.644100	-10.950000	24.253712	0.000957	20.866392
980.248456	-3.000400	3.645800	-10.937000	24.241151	0.000956	20.868491
981.253152	-2.976500	3.645000	-10.847000	24.248266	0.000956	20.863300
982.255005	-3.008700	3.643900	-10.962000	24.266273	0.000954	20.876620
983.251025	-2.987500	3.644300	-10.887000	24.277322	0.000954	20.877272
984.251718	-2.996400	3.645400	-10.921000	24.260601	0.000956	20.851492
985.252682	-3.005500	3.643400	-10.949000	24.236621	0.000955	20.871533
986.254048	-2.987700	3.643800	-10.886000	24.207835	0.000954	20.863049
987.255179	-2.998800	3.643800	-10.926000	24.219076	0.000954	20.862945
988.256975	-2.994900	3.643700	-10.911000	24.228388	0.000955	20.868965
989.256526	-2.995600	3.643300	-10.913000	24.233189	0.000954	20.878048
990.256427	-2.993200	3.643500	-10.905000	24.273639	0.000952	20.872156
991.254859	-3.003000	3.641300	-10.934000	24.245775	0.000953	20.860327
992.256254	-2.997900	3.641200	-10.915000	24.249108	0.000949	20.890222
993.256327	-3.010700	3.641600	-10.962000	24.232367	0.000950	20.864896
994.259746	-3.005300	3.640400	-10.940000	24.228506	0.000950	20.882359
995.257260	-3.009300	3.640700	-10.955000	24.185247	0.000950	20.881643
996.257327	-2.961000	3.642900	-10.784000	24.178127	0.000949	20.865493
997.262338	-3.021400	3.639400	-10.995000	24.155159	0.000948	20.854786
998.259658	-2.999900	3.640300	-10.919000	24.179417	0.000948	20.874847
999.257168	-2.983400	3.640300	-10.859000	24.205303	0.000949	20.867148
1000.259643	-2.988600	3.638600	-10.874000	24.246075	0.000948	20.859206
1001.258281	-2.980500	3.638900	-10.845000	24.280813	0.000949	20.878877
1002.259327	-2.993800	3.639100	-10.893000	24.265786	0.000949	20.874235
1003.260753	-3.005500	3.639000	-10.936000	24.270764	0.000947	20.879228
1004.264007	-3.023000	3.638500	-10.998000	24.272482	0.000946	20.857720
1005.262201	-3.009400	3.639100	-10.951000	24.288504	0.000948	20.863834
1006.263862	-2.988800	3.638200	-10.873000	24.314206	0.000945	20.844098
1007.262085	-2.999300	3.637000	-10.907000	24.304453	0.000945	20.843797
1008.262067	-3.004800	3.638500	-10.932000	24.313438	0.000945	20.876991
1009.263178	-3.022200	3.636600	-10.990000	24.340356	0.000944	20.850415
1010.264946	-2.992300	3.637800	-10.884000	24.309563	0.000945	20.864570
1011.261114	-3.000800	3.636700	-10.911000	24.330139	0.000944	20.849649
1012.264275	-3.008000	3.636200	-10.937000	24.349243	0.000944	20.833252
1013.262778	-3.001500	3.636500	-10.913000	24.313719	0.000944	20.853566
1014.264464	-3.010000	3.634500	-10.939000	24.308244	0.000943	20.846177
1015.264621	-2.989600	3.635800	-10.868000	24.326959	0.000942	20.849778
1016.263388	-2.998600	3.634400	-10.898000	24.329770	0.000944	20.843589
1017.264259	-3.007400	3.634000	-10.928000	24.312784	0.000943	20.820386
1018.262550	-3.000900	3.634000	-10.904000	24.301636	0.000942	20.850929
1019.268214	-3.005200	3.633400	-10.919000	24.289278	0.000944	20.849911
1020.262725	-2.997100	3.633500	-10.889000	24.253156	0.000941	20.837860
1021.265829	-3.009500	3.632700	-10.931000	24.226212	0.000940	20.854455
1022.268267	-3.010100	3.633900	-10.937000	24.221509	0.000939	20.841678
1023.272343	-2.998200	3.632700	-10.891000	24.224473	0.000941	20.835643
1024.268654	-2.976200	3.634300	-10.816000	24.226862	0.000940	20.827607
1025.274543	-3.007800	3.631100	-10.921000	24.220248	0.000941	20.833776
1026.267285	-3.007000	3.631100	-10.916000	24.257789	0.000939	20.815956
1027.268056	-2.990800	3.633200	-10.864000	24.275383	0.000941	20.849250
1028.269399	-3.029300	3.631000	-10.999000	24.253791	0.000940	20.868368
1029.271310	-3.010400	3.630300	-10.928000	24.236675	0.000938	20.845985
1030.269829	-3.000900	3.630300	-10.893000	24.274939	0.000940	20.828417
1031.268648	-2.985300	3.631200	-10.839000	24.248892	0.000940	20.835480
1032.272960	-2.992200	3.631000	-10.864000	24.223695	0.000936	20.843871
1033.277098	-3.021600	3.630000	-10.967000	24.224360	0.000938	20.812296
1034.272663	-2.994400	3.630600	-10.871000	24.213640	0.000938	20.838527
1035.274738	-3.009600	3.628400	-10.919000	24.220258	0.000937	20.830467
1036.274455	-2.992900	3.629300	-10.862000	24.229048	0.000937	20.797558
1037.273118	-3.010200	3.628100	-10.920000	24.253949	0.000937	20.828699
1038.273897	-2.991200	3.627700	-10.850000	24.258779	0.000935	20.838285
1039.273207	-3.001800	3.627900	-10.888000	24.251516	0.000936	20.829104
1040.272420	-3.016300	3.628600	-10.943000	24.260897	0.000935	20.815280
1041.273180	-3.014700	3.626700	-10.932000	24.296245	0.000934	20.818969
1042.274029	-3.008400	3.627500	-10.911000	24.308313	0.000932	20.819221
1043.272427	-3.003800	3.627100	-10.895000	24.338165	0.000933	20.834468
1044.274155	-2.995400	3.626200	-10.860000	24.368819	0.000934	20.808795
1045.273413	-2.990800	3.627800	-10.849000	24.397552	0.000933	20.798739
1046.273302	-2.987800	3.625700	-10.832000	24.374747	0.000933	20.809526
1047.274596	-2.994600	3.625200	-10.854000	24.377105	0.000931	20.825642
1048.272836	-2.991900	3.625100	-10.845000	24.371015	0.000931	20.821903
1049.271846	-2.986900	3.626400	-10.831000	24.369174	0.000932	20.802512
1050.272023	-2.975000	3.626800	-10.788000	24.375889	0.000929	20.807353
1051.275321	-3.016800	3.625300	-10.935000	24.399147	0.000929	20.816460
1052.278948	-3.017600	3.623800	-10.934000	24.411662	0.000927	20.811946
1053.275686	-3.012600	3.625200	-10.921000	24.427013	0.000929	20.812647
1054.277311	-2.994000	3.623800	-10.849000	24.418580	0.000929	20.813196
1055.275606	-3.010500	3.623300	-10.907000	24.438809	0.000926	20.818317
1056.278021	-3.006000	3.622800	-10.889000	24.444707	0.000926	20.801949
1057.282179	-2.988400	3.624700	-10.831000	24.450221	0.000927	20.813645
1058.273346	-2.997000	3.622600	-10.856000	24.452313	0.000927	20.801994
1059.275210	-2.990900	3.624100	-10.838000	24.440296	0.000926	20.815542
1060.278358	-3.000700	3.622200	-10.868000	24.462460	0.000924	20.824501
1061.277482	-3.010300	3.621000	-10.898000	24.422961	0.000923	20.807634
1062.279369	-3.023400	3.620800	-10.945000	24.411397	0.000925	20.810731
1063.277171	-2.992600	3.622200	-10.839000	24.409605	0.000924	20.790441
1064.283975	-3.016400	3.621800	-10.923000	24.400201	0.000924	20.787172
1065.279550	-2.985500	3.621000	-10.810000	24.391019	0.000922	20.804513
1066.283237	-3.026300	3.620000	-10.954000	24.381866	0.000925	20.793434
1067.280918	-2.996800	3.620500	-10.848000	24.395549	0.000924	20.795780
1068.281579	-3.024700	3.619500	-10.947000	24.412490	0.000925	20.805664
1069.281477	-3.011300	3.618600	-10.896000	24.449600	0.000922	20.810178
1070.284501	-2.988200	3.620300	-10.818000	24.449581	0.000920	20.793089
1071.284306	-2.996800	3.618200	-10.842000	24.454105	0.000921	20.791464
1072.283359	-2.999100	3.618800	-10.852000	24.443136	0.000922	20.801322
1073.284907	-3.000800	3.618100	-10.855000	24.454730	0.000919	20.798729
1074.281378	-2.998300	3.617100	-10.843000	24.449059	0.000919	20.793513
1075.285422	-3.024900	3.617400	-10.942000	24.429135	0.000920	20.812880
1076.286334	-2.989600	3.619000	-10.818000	24.419707	0.000921	20.783033
1077.284957	-2.997600	3.619400	-10.849000	24.403613	0.000920	20.814302
1078.287551	-3.014600	3.616800	-10.902000	24.429435	0.000918	20.804646
1079.286110	-3.008200	3.616600	-10.878000	24.404859	0.000919	20.796111
1080.288524	-3.001700	3.615700	-10.852000	24.433468	0.000917	20.785932
1081.285831	-3.001100	3.617500	-10.856000	24.465586	0.000917	20.784490
1082.285080	-3.007700	3.616800	-10.876000	24.476874	0.000916	20.796763
1083.284682	-3.004900	3.615100	-10.861000	24.503616	0.000918	20.809842
1084.285634	-2.991700	3.616100	-10.818000	24.517572	0.000915	20.793025
1085.284938	-2.994600	3.613900	-10.821000	24.487921	0.000915	20.798364
1086.285935	-3.001300	3.614900	-10.848000	24.471902	0.000916	20.791301
1087.287180	-3.017400	3.613700	-10.903000	24.458024	0.000915	20.775955
1088.285383	-2.995500	3.614600	-10.827000	24.449325	0.000916	20.785720
1089.288953	-3.013700	3.612800	-10.886000	24.459220	0.000913	20.793277
1090.295141	-3.008900	3.612500	-10.868000	24.462480	0.000915	20.799391
1091.288542	-3.011500	3.612900	-10.879000	24.433551	0.000913	20.795025
1092.285776	-3.000300	3.612600	-10.838000	24.440020	0.000913	20.794403
1093.288093	-3.017000	3.611600	-10.895000	24.452358	0.000912	20.797297
1094.290136	-3.004300	3.611900	-10.850000	24.429677	0.000912	20.804888
1095.288730	-2.983300	3.612500	-10.776000	24.428806	0.000912	20.784100
1096.291006	-2.980300	3.611400	-10.761000	24.453559	0.000911	20.791864
1097.285951	-3.020700	3.611000	-10.907000	24.450723	0.000909	20.782381
1098.288182	-3.002700	3.609700	-10.838000	24.461072	0.000911	20.770478
1099.291960	-3.001900	3.611300	-10.838000	24.483954	0.000911	20.779684
1100.290202	-2.997000	3.610300	-10.819000	24.454337	0.000908	20.800231
1101.287706	-3.007700	3.609400	-10.854000	24.443738	0.000909	20.765889
1102.288871	-2.987500	3.610000	-10.783000	24.408064	0.000909	20.763765
1103.287701	-3.018300	3.608600	-10.891000	24.358865	0.000908	20.786481
1104.288618	-2.982700	3.610500	-10.767000	24.343272	0.000908	20.800710
1105.291556	-2.982100	3.610200	-10.765000	24.340234	0.000907	20.777274
1106.289364	-3.010300	3.608000	-10.859000	24.336054	0.000908	20.790625
1107.293196	-3.006300	3.608700	-10.848000	24.368869	0.000906	20.784189
1108.292893	-3.007100	3.608700	-10.851000	24.358643	0.000908	20.792422
1109.294034	-3.006100	3.607900	-10.844000	24.380887	0.000906	20.789607
1110.290440	-3.001700	3.607800	-10.827000	24.391684	0.000904	20.758713
1111.295764	-2.995100	3.606900	-10.801000	24.398031	0.000904	20.767924
1112.295969	-3.005200	3.606000	-10.836000	24.365664	0.000903	20.772913
1113.293743	-2.991300	3.607300	-10.789000	24.326157	0.000904	20.786861
1114.291938	-3.021000	3.605700	-10.891000	24.331701	0.000905	20.768240
1115.292832	-2.986500	3.605500	-10.766000	24.356383	0.000903	20.748903
1116.294974	-2.992500	3.606100	-10.791000	24.386136	0.000901	20.767371
1117.296363	-3.020000	3.605300	-10.887000	24.411486	0.000900	20.783794
1118.293022	-3.015900	3.603700	-10.866000	24.416385	0.000901	20.774484
1119.294885	-3.002000	3.606000	-10.824000	24.418034	0.000903	20.786096
1120.296426	-3.005400	3.604200	-10.831000	24.437436	0.000899	20.767628
1121.298275	-3.004100	3.604200	-10.826000	24.487479	0.000900	20.765677
1122.300019	-3.018200	3.603900	-10.876000	24.503104	0.000900	20.758120
1123.299551	-3.027100	3.603600	-10.907000	24.496764	0.000900	20.767880
1124.298847	-3.007100	3.604000	-10.837000	24.504301	0.000899	20.767855
1125.298186	-3.019800	3.602800	-10.879000	24.495129	0.000899	20.760550
1126.299428	-2.971600	3.604100	-10.709000	24.487548	0.000897	20.761953
1127.302511	-2.980600	3.603800	-10.740000	24.486204	0.000898	20.751121
1128.299651	-2.973300	3.602000	-10.708000	24.520103	0.000897	20.767115
1129.298879	-2.992100	3.601700	-10.776000	24.503119	0.000897	20.769989
1130.305199	-3.003300	3.600500	-10.813000	24.513467	0.000897	20.789855
1131.301484	-2.981000	3.601400	-10.735000	24.538795	0.000897	20.770696
1132.301907	-2.996100	3.601600	-10.790000	24.520793	0.000895	20.762117
1133.304267	-3.002900	3.599700	-10.808000	24.508899	0.000898	20.775314
1134.299445	-2.992500	3.600500	-10.773000	24.520419	0.000895	20.786872
1135.302098	-2.990000	3.599700	-10.761000	24.521487	0.000894	20.765658
1136.305642	-2.981000	3.600200	-10.730000	24.529230	0.000893	20.778643
1137.300858	-2.989100	3.599500	-10.759000	24.513665	0.000893	20.763974
1138.302969	-3.000200	3.599000	-10.797000	24.461649	0.000893	20.753987
1139.309824	-2.996500	3.599000	-10.782000	24.432573	0.000892	20.763697
1140.303083	-2.998600	3.598900	-10.791000	24.428098	0.000892	20.749724
1141.305432	-2.987000	3.598200	-10.746000	24.415711	0.000892	20.769541
1142.309550	-2.994800	3.598700	-10.777000	24.424421	0.000892	20.735129
1143.302744	-3.017000	3.596600	-10.851000	24.392631	0.000892	20.748756
1144.304459	-2.972000	3.596900	-10.689000	24.405939	0.000891	20.762581
1145.305084	-2.994900	3.596600	-10.770000	24.404698	0.000890	20.758966
1146.303263	-2.993400	3.597100	-10.767000	24.444473	0.000891	20.762359
1147.305941	-2.995000	3.595900	-10.768000	24.469546	0.000887	20.743417
1148.304229	-3.008900	3.594400	-10.815000	24.468059	0.000888	20.766108
1149.307115	-2.987900	3.595500	-10.742000	24.449357	0.000888	20.748767
1150.303946	-3.020100	3.594100	-10.854000	24.443735	0.000887	20.759722
1151.306175	-3.014200	3.594200	-10.833000	24.468414	0.000885	20.747971
1152.305940	-2.993700	3.595100	-10.762000	24.451750	0.000886	20.735519
1153.307475	-3.008200	3.594500	-10.811000	24.432003	0.000884	20.751271
1154.305278	-3.017700	3.594000	-10.845000	24.459090	0.000886	20.757109
1155.304414	-3.007200	3.593300	-10.805000	24.460483	0.000885	20.751395
1156.308238	-2.968900	3.594600	-10.671000	24.506803	0.000886	20.761357
1157.308809	-2.957500	3.593400	-10.626000	24.513414	0.000885	20.739066
1158.310210	-2.988500	3.593200	-10.738000	24.528744	0.000885	20.726471
1159.310773	-3.007100	3.592100	-10.801000	24.548637	0.000884	20.749276
1160.310174	-3.001000	3.591500	-10.778000	24.547751	0.000883	20.751706
1161.311430	-3.034000	3.590900	-10.893000	24.508650	0.000884	20.756097
1162.309829	-3.011400	3.591600	-10.815000	24.490789	0.000882	20.748609
1163.310552	-2.997200	3.590000	-10.758000	24.506341	0.000883	20.749513
1164.310086	-3.017500	3.589400	-10.830000	24.490499	0.000881	20.739783
1165.312116	-3.012600	3.590400	-10.815000	24.524851	0.000880	20.732996
1166.311317	-2.996700	3.590000	-10.758000	24.536267	0.000878	20.736390
1167.315170	-2.994900	3.589400	-10.749000	24.509157	0.000879	20.734320
1168.315074	-2.982800	3.590000	-10.707000	24.502620	0.000881	20.736296
1169.315582	-3.000600	3.589400	-10.769000	24.526347	0.000879	20.743982
1170.317270	-3.000900	3.588800	-10.768000	24.517895	0.000880	20.730759
1171.311417	-2.985900	3.589400	-10.717000	24.498874	0.000878	20.750082
1172.313457	-2.992600	3.588100	-10.737000	24.472280	0.000877	20.728615
1173.318277	-3.009100	3.588600	-10.797000	24.470665	0.000877	20.738376
1174.316133	-3.019800	3.587700	-10.833000	24.429228	0.000876	20.755125
1175.313438	-3.011800	3.587800	-10.805000	24.423980	0.000879	20.743221
1176.317356	-2.993700	3.587700	-10.740000	24.413286	0.000875	20.742451
1177.314223	-2.997200	3.586500	-10.748000	24.398659	0.000876	20.746269
1178.313541	-3.002800	3.586200	-10.767000	24.398039	0.000875	20.728102
1179.313540	-3.008900	3.585400	-10.788000	24.399959	0.000873	20.715803
1180.314837	-2.998300	3.585700	-10.750000	24.374658	0.000873	20.731199
1181.316269	-3.011900	3.586500	-10.802000	24.406404	0.000874	20.729856
1182.314528	-3.004500	3.584900	-10.770000	24.377297	0.000872	20.726734
1183.313205	-2.984200	3.585800	-10.700000	24.378720	0.000872	20.710143
1184.319031	-2.991200	3.585700	-10.724000	24.372207	0.000870	20.714040
1185.316786	-3.026600	3.582600	-10.841000	24.397006	0.000870	20.725643
1186.317519	-2.967800	3.583500	-10.634000	24.425492	0.000870	20.742842
1187.320991	-2.973100	3.584400	-10.655000	24.451983	0.000870	20.731486
1188.318708	-2.980800	3.583300	-10.680000	24.480364	0.000868	20.711595
1189.314501	-2.995500	3.582700	-10.731000	24.482432	0.000867	20.734534
1190.319802	-3.009000	3.583600	-10.783000	24.501415	0.000867	20.713275
1191.321974	-3.024000	3.582000	-10.831000	24.486789	0.000867	20.738431
1192.317443	-3.013900	3.580800	-10.790000	24.512856	0.000868	20.718590
1193.321532	-3.004600	3.583000	-10.763000	24.492963	0.000868	20.721391
1194.320941	-2.993100	3.580400	-10.716000	24.477268	0.000866	20.712757
1195.318168	-2.981900	3.583000	-10.682000	24.456474	0.000865	20.708489
1196.320212	-2.998900	3.581300	-10.739000	24.471977	0.000865	20.715982
1197.317650	-3.004200	3.581100	-10.757000	24.461609	0.000865	20.709374
1198.319814	-3.014300	3.579900	-10.790000	24.490935	0.000866	20.708924
1199.323180	-3.018000	3.578600	-10.799000	24.477082	0.000863	20.715415
1200.323140	-2.986000	3.581000	-10.691000	24.506088	0.000864	20.708954
1201.323731	-3.000600	3.579200	-10.739000	24.482586	0.000864	20.718566
1202.324353	-3.005800	3.578100	-10.754000	24.462688	0.000864	20.711878
1203.326671	-2.989000	3.578600	-10.696000	24.433838	0.000861	20.733197
1204.327545	-3.002300	3.577200	-10.739000	24.445403	0.000862	20.705917
1205.326419	-2.995600	3.577900	-10.717000	24.406229	0.000862	20.717826
1206.327507	-3.000600	3.577200	-10.732000	24.424765	0.000860	20.693746
1207.324854	-2.975000	3.577400	-10.642000	24.408647	0.000861	20.717880
1208.327250	-2.994600	3.576000	-10.708000	24.398234	0.000862	20.722134
1209.325732	-2.991700	3.577000	-10.700000	24.386418	0.000860	20.708857
1210.329845	-3.003900	3.577000	-10.744000	24.393912	0.000859	20.716849
1211.328585	-3.011000	3.575600	-10.764000	24.416973	0.000857	20.701576
1212.326472	-2.987200	3.575900	-10.681000	24.424092	0.000859	20.731480
1213.331736	-2.995400	3.575300	-10.708000	24.458072	0.000858	20.724792
1214.326610	-3.003100	3.576000	-10.738000	24.442609	0.000858	20.706907
1215.327166	-2.983800	3.575500	-10.666000	24.426835	0.000856	20.718109
1216.329632	-2.995400	3.574600	-10.706000	24.424329	0.000856	20.709905
1217.330162	-2.973700	3.574800	-10.628000	24.409732	0.000856	20.706640
1218.326824	-2.996400	3.573800	-10.708000	24.433984	0.000858	20.715798
1219.328090	-3.000100	3.574600	-10.723000	24.431252	0.000855	20.703573
1220.334338	-3.014500	3.573400	-10.770000	24.446031	0.000855	20.717927
1221.332603	-3.008200	3.572700	-10.746000	24.455858	0.000855	20.719725
1222.328551	-3.004900	3.573700	-10.738000	24.488271	0.000853	20.705302
1223.331827	-3.004700	3.574200	-10.738000	24.494169	0.000854	20.720230
1224.333225	-2.979800	3.571300	-10.640000	24.494395	0.000854	20.692006
1225.329836	-2.996300	3.571000	-10.699000	24.521082	0.000854	20.710247
1226.330647	-3.007200	3.570900	-10.737000	24.508223	0.000853	20.710148
1227.333984	-2.987500	3.572000	-10.670000	24.501686	0.000854	20.725402
1228.331178	-2.990000	3.571200	-10.677000	24.497856	0.000851	20.695478
1229.329151	-2.997200	3.571300	-10.702000	24.470746	0.000851	20.708583
1230.332611	-2.962300	3.572100	-10.580000	24.483476	0.000852	20.709976
1231.328835	-3.021300	3.568400	-10.780000	24.478504	0.000851	20.724428
1232.328835	-2.998300	3.568700	-10.699000	24.506816	0.000850	20.703046
1233.332861	-2.984500	3.569800	-10.653000	24.526616	0.000848	20.716274
1234.331799	-3.005000	3.569400	-10.725000	24.527339	0.000850	20.713681
1235.331172	-2.991100	3.569700	-10.677000	24.512788	0.000849	20.710934
1236.331442	-3.020900	3.567200	-10.775000	24.505177	0.000847	20.708988
1237.332078	-3.002400	3.567700	-10.711000	24.512763	0.000846	20.699055
1238.333924	-3.018100	3.566800	-10.764000	24.551993	0.000845	20.694792
1239.330283	-3.029200	3.567200	-10.804000	24.521053	0.000845	20.708322
1240.329364	-2.991800	3.566900	-10.670000	24.505906	0.000846	20.708771
1241.332240	-2.999600	3.567900	-10.700000	24.492550	0.000843	20.718132
1242.334105	-3.011400	3.565200	-10.735000	24.503917	0.000845	20.718156
1243.335203	-3.008300	3.565600	-10.725000	24.534384	0.000844	20.704627
1244.331966	-2.983500	3.566200	-10.638000	24.528595	0.000843	20.689809
1245.331349	-2.994800	3.565200	-10.677000	24.570133	0.000844	20.702089
1246.332235	-2.994900	3.565100	-10.676000	24.558146	0.000841	20.726099
1247.334368	-3.008100	3.564400	-10.721000	24.562528	0.000841	20.714374
1248.331697	-2.983300	3.565800	-10.636000	24.573441	0.000843	20.714892
1249.334031	-2.996000	3.563500	-10.675000	24.591403	0.000842	20.705888
1250.334135	-3.015800	3.563000	-10.745000	24.563104	0.000842	20.718271
1251.336499	-3.024800	3.563700	-10.777000	24.588076	0.000841	20.724361
1252.337520	-3.018100	3.563300	-10.753000	24.592427	0.000840	20.718770
1253.336699	-3.003500	3.563100	-10.701000	24.599614	0.000841	20.711756
1254.335496	-2.985000	3.564400	-10.639000	24.577803	0.000841	20.715001
1255.337919	-2.992800	3.563300	-10.664000	24.573954	0.000838	20.723468
1256.338006	-2.991100	3.563200	-10.658000	24.558911	0.000839	20.714537
1257.338554	-2.968300	3.563600	-10.577000	24.577833	0.000837	20.706021
1258.338547	-2.983700	3.562700	-10.627000	24.576996	0.000838	20.706605
1259.335500	-2.990100	3.561200	-10.648000	24.570922	0.000838	20.702880
1260.337603	-2.983000	3.562600	-10.627000	24.555750	0.000838	20.722747
1261.336444	-2.979000	3.562000	-10.610000	24.559462	0.000835	20.711772
1262.342165	-3.005500	3.560600	-10.701000	24.593812	0.000835	20.711149
1263.344557	-3.012600	3.559100	-10.722000	24.597346	0.000836	20.718490
1264.340546	-2.981300	3.561600	-10.617000	24.627111	0.000835	20.725123
1265.345582	-3.022200	3.559300	-10.756000	24.634087	0.000834	20.728804
1266.347266	-2.988400	3.558800	-10.634000	24.639078	0.000833	20.719586
1267.343246	-3.008800	3.558700	-10.707000	24.640629	0.000833	20.724462
1268.346418	-2.993700	3.557700	-10.649000	24.673307	0.000831	20.692291
1269.350754	-2.992900	3.557900	-10.647000	24.649834	0.000831	20.719473
1270.341367	-3.010200	3.557300	-10.707000	24.654062	0.000831	20.729881
1271.346025	-2.994700	3.556900	-10.651000	24.645482	0.000830	20.718900
1272.345345	-3.012200	3.557100	-10.712000	24.667101	0.000830	20.704557
1273.346251	-2.976000	3.558100	-10.588000	24.654687	0.000830	20.715809
1274.350032	-2.994100	3.557700	-10.651000	24.630096	0.000830	20.721479
1275.347310	-2.987400	3.557700	-10.627000	24.624376	0.000828	20.726172
1276.346626	-3.011500	3.557300	-10.712000	24.636116	0.000829	20.730840
1277.351645	-3.028400	3.554400	-10.764000	24.612696	0.000829	20.715874
1278.345091	-3.012500	3.556200	-10.711000	24.626597	0.000829	20.749264
1279.345590	-3.002200	3.555800	-10.673000	24.619238	0.000828	20.735241
1280.347450	-3.001200	3.556400	-10.672000	24.619091	0.000825	20.726558
1281.349969	-3.016300	3.553900	-10.717000	24.622428	0.000826	20.729907
1282.346690	-2.986500	3.553400	-10.611000	24.624865	0.000826	20.720972
1283.345245	-2.990300	3.555500	-10.630000	24.641109	0.000826	20.729211
1284.350180	-2.979900	3.555400	-10.594000	24.681082	0.000825	20.723329
1285.346697	-3.001600	3.553900	-10.667000	24.668796	0.000824	20.737554
1286.346107	-3.002000	3.553400	-10.667000	24.645894	0.000822	20.709355
1287.349202	-3.001100	3.552900	-10.661000	24.626244	0.000824	20.709079
1288.347186	-2.990300	3.553000	-10.624000	24.613294	0.000824	20.719793
1289.346642	-2.996500	3.553800	-10.647000	24.594919	0.000821	20.720322
1290.349075	-2.986300	3.552500	-10.608000	24.620934	0.000820	20.730304
1291.347197	-2.988100	3.552600	-10.614000	24.626683	0.000821	20.724693
1292.347557	-3.014100	3.550300	-10.700000	24.601417	0.000821	20.720678
1293.352239	-2.989900	3.551000	-10.616000	24.592916	0.000822	20.748186
1294.352308	-3.016200	3.550200	-10.707000	24.607669	0.000822	20.716045
1295.350945	-3.022100	3.550100	-10.727000	24.607473	0.000821	20.749515
1296.356702	-3.004400	3.550100	-10.665000	24.599120	0.000821	20.725959
1297.354704	-3.008500	3.549200	-10.676000	24.602324	0.000819	20.738658
1298.354601	-3.007800	3.548000	-10.670000	24.587207	0.000817	20.740086
1299.360346	-3.001600	3.549100	-10.652000	24.577412	0.000818	20.737370
1300.352803	-3.004900	3.547800	-10.660000	24.571943	0.000817	20.734727
1301.351799	-3.017800	3.547800	-10.706000	24.601346	0.000817	20.718235
1302.359615	-3.007700	3.548200	-10.671000	24.590133	0.000818	20.754876
1303.352018	-3.003900	3.547900	-10.657000	24.576827	0.000818	20.732515
1304.353557	-2.999000	3.547400	-10.637000	24.548252	0.000815	20.719964
1305.352379	-3.004700	3.547200	-10.657000	24.529772	0.000814	20.745521
1306.357231	-3.023200	3.545300	-10.717000	24.546889	0.000813	20.746099
1307.356841	-3.003800	3.546200	-10.651000	24.530717	0.000816	20.731770
1308.359019	-2.984100	3.546700	-10.583000	24.531569	0.000812	20.722667
1309.357020	-3.009400	3.546600	-10.672000	24.490031	0.000814	20.741209
1310.354296	-3.001300	3.545000	-10.638000	24.497893	0.000813	20.730605
1311.358530	-2.992100	3.545000	-10.606000	24.485635	0.000813	20.743912
1312.355923	-3.017700	3.544300	-10.695000	24.498223	0.000810	20.748007
1313.356270	-3.004500	3.544100	-10.648000	24.525314	0.000810	20.763808
1314.357422	-3.014800	3.542600	-10.680000	24.516507	0.000810	20.732211
1315.359828	-3.004500	3.543300	-10.645000	24.540963	0.000808	20.749163
1316.356561	-3.023500	3.544500	-10.716000	24.568771	0.000809	20.759521
1317.357643	-3.002600	3.543200	-10.638000	24.612301	0.000807	20.742031
1318.364574	-2.973500	3.544100	-10.537000	24.579946	0.000809	20.748448
1319.359337	-2.997500	3.544000	-10.622000	24.577706	0.000808	20.750468
1320.361845	-2.994600	3.542700	-10.608000	24.609225	0.000809	20.751748
1321.366632	-2.990400	3.542900	-10.594000	24.598662	0.000806	20.736407
1322.360396	-2.995700	3.542700	-10.612000	24.622861	0.000806	20.752153
1323.358015	-3.035100	3.540200	-10.743000	24.635398	0.000805	20.745767
1324.361428	-3.002900	3.540600	-10.631000	24.643510	0.000805	20.759597
1325.361150	-3.002400	3.541600	-10.632000	24.659705	0.000807	20.749769
1326.361218	-3.004400	3.541000	-10.637000	24.655777	0.000804	20.758630
1327.361144	-3.009500	3.541400	-10.656000	24.676071	0.000803	20.764295
1328.360651	-3.022800	3.539000	-10.697000	24.695400	0.000803	20.751449
1329.363730	-3.010900	3.538500	-10.653000	24.702818	0.000803	20.755574
1330.360492	-3.018900	3.537700	-10.678000	24.717313	0.000804	20.754946
1331.360773	-3.007500	3.539500	-10.644000	24.712918	0.000803	20.760493
1332.363130	-3.013200	3.536900	-10.657000	24.721221	0.000800	20.785895
1333.359456	-2.998500	3.538600	-10.611000	24.709321	0.000801	20.755935
1334.358291	-2.997200	3.538300	-10.604000	24.711359	0.000801	20.768886
1335.366378	-2.996000	3.536500	-10.595000	24.688058	0.000802	20.762574
1336.364089	-3.003200	3.536300	-10.619000	24.687365	0.000802	20.768516
1337.366016	-2.988600	3.536200	-10.567000	24.656779	0.000800	20.760584
1338.364294	-2.989100	3.536200	-10.568000	24.652379	0.000799	20.767548
1339.361348	-2.972700	3.537200	-10.514000	24.655195	0.000799	20.749985
1340.363595	-2.983100	3.536700	-10.549000	24.648733	0.000796	20.779537
1341.364673	-2.987600	3.535800	-10.562000	24.614163	0.000799	20.766660
1342.363263	-2.978700	3.535100	-10.529000	24.633273	0.000798	20.777300
1343.360355	-3.002200	3.534100	-10.609000	24.567017	0.000798	20.772460
1344.364270	-3.000000	3.534700	-10.604000	24.549212	0.000797	20.776407
1345.361274	-2.992100	3.534100	-10.572000	24.532353	0.000795	20.762809
1346.364888	-3.004500	3.534500	-10.617000	24.522876	0.000795	20.768475
1347.363593	-2.998900	3.534600	-10.599000	24.559486	0.000796	20.781973
1348.362408	-2.980400	3.533300	-10.530000	24.571060	0.000794	20.766559
1349.363853	-2.991100	3.533500	-10.568000	24.620162	0.000793	20.772679
1350.365646	-3.000800	3.533200	-10.602000	24.654682	0.000794	20.775075
1351.364042	-3.017100	3.531300	-10.654000	24.640959	0.000795	20.748028
1352.366974	-2.982400	3.533000	-10.535000	24.651005	0.000794	20.781343
1353.368588	-2.998500	3.531400	-10.588000	24.658694	0.000793	20.778153
1354.365106	-2.996200	3.531600	-10.581000	24.707904	0.000792	20.764470
1355.369720	-3.006800	3.532100	-10.620000	24.708958	0.000792	20.782124
1356.370107	-2.986200	3.531100	-10.544000	24.681479	0.000793	20.775412
1357.369094	-3.005200	3.531200	-10.611000	24.688567	0.000790	20.764506
1358.368836	-2.986700	3.531700	-10.547000	24.704209	0.000788	20.776410
1359.373296	-3.003400	3.529000	-10.598000	24.715800	0.000790	20.785671
1360.370633	-3.003500	3.530100	-10.601000	24.734006	0.000788	20.789242
1361.371621	-2.996600	3.528000	-10.571000	24.721120	0.000788	20.766828
1362.373201	-3.005100	3.527900	-10.600000	24.738362	0.000790	20.771328
1363.368431	-2.999200	3.529100	-10.583000	24.766761	0.000787	20.775171
1364.371283	-2.979600	3.530000	-10.517000	24.778794	0.000788	20.771600
1365.369496	-3.020300	3.527700	-10.654000	24.764699	0.000789	20.770257
1366.373025	-2.989700	3.528900	-10.550000	24.769355	0.000785	20.778249
1367.372063	-3.013300	3.526400	-10.626000	24.779223	0.000785	20.789574
1368.371667	-3.002200	3.526900	-10.587000	24.756544	0.000785	20.782461
1369.375799	-3.002800	3.526800	-10.589000	24.761274	0.000784	20.797166
1370.371154	-2.987700	3.527300	-10.537000	24.779154	0.000785	20.786186
1371.375101	-3.016300	3.524400	-10.630000	24.754438	0.000785	20.787935
1372.368940	-3.007600	3.526300	-10.605000	24.748222	0.000783	20.794025
1373.372582	-3.018200	3.525100	-10.638000	24.730622	0.000781	20.790114
1374.371058	-3.000400	3.525100	-10.576000	24.733280	0.000781	20.774288
1375.377929	-3.006100	3.524900	-10.595000	24.736268	0.000782	20.801943
1376.375919	-3.011000	3.524000	-10.610000	24.742956	0.000781	20.791112
1377.372310	-2.984000	3.524700	-10.517000	24.775066	0.000780	20.787773
1378.374194	-2.985600	3.524400	-10.522000	24.790909	0.000782	20.784706
1379.372809	-2.984000	3.523700	-10.514000	24.780889	0.000781	20.805470
1380.370153	-3.004100	3.523600	-10.584000	24.770617	0.000780	20.782834
1381.370368	-2.970800	3.524500	-10.470000	24.771483	0.000779	20.797454
1382.375426	-3.024900	3.520800	-10.647000	24.761173	0.000778	20.786159
1383.373981	-3.001200	3.523200	-10.573000	24.753865	0.000777	20.817231
1384.376007	-2.974000	3.523700	-10.479000	24.737279	0.000776	20.783517
1385.376228	-3.005300	3.521600	-10.582000	24.697558	0.000776	20.809565
1386.375391	-3.002900	3.521500	-10.574000	24.715052	0.000779	20.797248
1387.377193	-2.984100	3.520900	-10.506000	24.685014	0.000775	20.810727
1388.376159	-3.008600	3.521500	-10.594000	24.672482	0.000777	20.790092
1389.373180	-2.983400	3.520300	-10.501000	24.665916	0.000774	20.789667
1390.375019	-3.010800	3.520700	-10.598000	24.649531	0.000776	20.800727
1391.376057	-3.014200	3.520400	-10.609000	24.649083	0.000773	20.814976
1392.374367	-3.000900	3.521500	-10.567000	24.645855	0.000772	20.817900
1393.374607	-3.008700	3.519700	-10.589000	24.646401	0.000774	20.791896
1394.376899	-3.010000	3.519500	-10.593000	24.630990	0.000771	20.790183
1395.383159	-2.998200	3.518600	-10.548000	24.630474	0.000772	20.825700
1396.380494	-2.997600	3.518000	-10.545000	24.670191	0.000771	20.810078
1397.379330	-3.003900	3.517400	-10.565000	24.694511	0.000769	20.778532
1398.379706	-3.005600	3.518400	-10.574000	24.694885	0.000770	20.817314
1399.377934	-2.995600	3.517200	-10.535000	24.700591	0.000772	20.807867
1400.379228	-2.990400	3.517200	-10.517000	24.736274	0.000769	20.810958
1401.382509	-3.009000	3.515000	-10.575000	24.727676	0.000769	20.811339
1402.379609	-3.014700	3.516300	-10.600000	24.726062	0.000770	20.805926
1403.377335	-2.985100	3.516800	-10.497000	24.698141	0.000768	20.816788
1404.381614	-2.992100	3.516000	-10.519000	24.673294	0.000768	20.801813
1405.377592	-3.003200	3.514600	-10.553000	24.688224	0.000769	20.779336
1406.377773	-3.005100	3.514700	-10.561000	24.707750	0.000765	20.806042
1407.381946	-2.996500	3.514200	-10.529000	24.704117	0.000767	20.819940
1408.377740	-2.988700	3.514900	-10.504000	24.734915	0.000767	20.818603
1409.378637	-3.003600	3.514000	-10.553000	24.727502	0.000765	20.800259
1410.381878	-3.006800	3.512400	-10.560000	24.743750	0.000764	20.822728
1411.379942	-2.996000	3.513700	-10.526000	24.756065	0.000765	20.823232
1412.378531	-3.015400	3.512500	-10.591000	24.729753	0.000764	20.822906
1413.378246	-3.014500	3.511600	-10.584000	24.753604	0.000762	20.823134
1414.383677	-3.025000	3.511900	-10.622000	24.755101	0.000766	20.807566
1415.379775	-3.013700	3.511400	-10.582000	24.727481	0.000763	20.820626
1416.379673	-3.013300	3.512400	-10.583000	24.733673	0.000763	20.812615
1417.382367	-3.024900	3.510700	-10.618000	24.723051	0.000761	20.828508
1418.382844	-2.971800	3.511300	-10.434000	24.715748	0.000760	20.823077
1419.381803	-2.995100	3.509700	-10.510000	24.740564	0.000761	20.832332
1420.386967	-3.005800	3.510900	-10.551000	24.728456	0.000760	20.819708
1421.383330	-2.975400	3.511000	-10.446000	24.779657	0.000759	20.803760
1422.384296	-2.997600	3.510300	-10.522000	24.794659	0.000758	20.835410
1423.384336	-2.964100	3.512600	-10.409000	24.788099	0.000759	20.839258
1424.382974	-2.999400	3.509700	-10.526000	24.811520	0.000758	20.834314
1425.386039	-2.988300	3.509800	-10.486000	24.830522	0.000759	20.837737
1426.382202	-3.013300	3.508200	-10.570000	24.828540	0.000756	20.829109
1427.384643	-2.988400	3.509100	-10.486000	24.837817	0.000757	20.839368
1428.384461	-2.998700	3.510300	-10.525000	24.822182	0.000756	20.854022
1429.383945	-3.009200	3.507500	-10.554000	24.829649	0.000755	20.835438
1430.385663	-3.015500	3.507300	-10.575000	24.856627	0.000757	20.840229
1431.386315	-2.982600	3.506500	-10.458000	24.847454	0.000754	20.829126
1432.386853	-2.983900	3.507700	-10.466000	24.855762	0.000752	20.845524
1433.389290	-2.986400	3.507500	-10.473000	24.839085	0.000753	20.856287
1434.386275	-3.013900	3.505100	-10.562000	24.803675	0.000751	20.843984
1435.382288	-2.998800	3.506100	-10.513000	24.774958	0.000753	20.852148
1436.387672	-2.974200	3.507100	-10.431000	24.777528	0.000752	20.839081
1437.385480	-2.994200	3.505900	-10.496000	24.744411	0.000753	20.839038
1438.383206	-3.019500	3.504500	-10.580000	24.729911	0.000751	20.850091
1439.389807	-3.021200	3.502900	-10.582000	24.733200	0.000749	20.851020
1440.387682	-3.021300	3.503600	-10.584000	24.744895	0.000751	20.857066
1441.384514	-2.990700	3.503700	-10.478000	24.768151	0.000749	20.828248
1442.388523	-3.014300	3.501900	-10.555000	24.762112	0.000750	20.868654
1443.387841	-2.984400	3.503400	-10.455000	24.735230	0.000748	20.874393
1444.383675	-3.000400	3.502500	-10.507000	24.721233	0.000747	20.832847
1445.386036	-3.002900	3.501100	-10.512000	24.709377	0.000749	20.835649
1446.386187	-3.007200	3.502000	-10.529000	24.706591	0.000747	20.852293
1447.388056	-3.032600	3.499800	-10.612000	24.758601	0.000747	20.854699
1448.387239	-3.014400	3.501000	-10.552000	24.778120	0.000747	20.859589
1449.389067	-3.003900	3.502000	-10.518000	24.782255	0.000746	20.835290
1450.387918	-2.996900	3.501900	-10.494000	24.790361	0.000745	20.859545
1451.387140	-3.019200	3.499400	-10.564000	24.804841	0.000746	20.841835
1452.388791	-2.979200	3.499700	-10.426000	24.814020	0.000744	20.868115
1453.386280	-2.993900	3.499300	-10.475000	24.783138	0.000745	20.861779
1454.387148	-2.986300	3.498500	-10.446000	24.776007	0.000743	20.875959
1455.389924	-3.015900	3.499300	-10.552000	24.751641	0.000743	20.867154
1456.391542	-3.006700	3.498300	-10.517000	24.754083	0.000743	20.856803
1457.390440	-3.009600	3.498400	-10.528000	24.737300	0.000740	20.850867
1458.390082	-2.999000	3.497500	-10.488000	24.776590	0.000743	20.854260
1459.390472	-3.013700	3.497600	-10.539000	24.756500	0.000743	20.882935
1460.391051	-3.000000	3.496800	-10.490000	24.788732	0.000740	20.853169
1461.390057	-2.989900	3.498300	-10.459000	24.788763	0.000742	20.858415
1462.389380	-3.011600	3.496000	-10.528000	24.752805	0.000740	20.863107
1463.387564	-2.999900	3.496700	-10.488000	24.721571	0.000740	20.867799
1464.390539	-2.984200	3.495800	-10.430000	24.721460	0.000740	20.871480
1465.388666	-3.016300	3.495400	-10.541000	24.733739	0.000739	20.869578
1466.392087	-2.984600	3.496800	-10.436000	24.750681	0.000739	20.861924
1467.388321	-2.980500	3.495000	-10.416000	24.760008	0.000738	20.872706
1468.389888	-3.005900	3.495600	-10.506000	24.784478	0.000737	20.865969
1469.392154	-2.989600	3.493800	-10.444000	24.795548	0.000738	20.849578
1470.388642	-3.002900	3.493700	-10.491000	24.845426	0.000738	20.866443
1471.391314	-2.998600	3.493900	-10.476000	24.847100	0.000737	20.877132
1472.389146	-3.012900	3.491600	-10.519000	24.867292	0.000736	20.865156
1473.392091	-2.979600	3.492600	-10.406000	24.824827	0.000735	20.839134
1474.389256	-3.001700	3.494200	-10.487000	24.773574	0.000735	20.872095
1475.395947	-3.005600	3.492000	-10.495000	24.790356	0.000734	20.847213
1476.394190	-3.003200	3.490500	-10.482000	24.823956	0.000735	20.847742
1477.394255	-3.019200	3.491700	-10.541000	24.823011	0.000734	20.871923
1478.394466	-3.015800	3.490800	-10.527000	24.851959	0.000733	20.836966
1479.394706	-3.013000	3.490300	-10.516000	24.873077	0.000734	20.835876
1480.394216	-3.012000	3.490000	-10.511000	24.868543	0.000732	20.855032
1481.398998	-2.994400	3.490500	-10.451000	24.885980	0.000732	20.838394
1482.398715	-2.999800	3.489700	-10.468000	24.891226	0.000732	20.837969
1483.393330	-3.018300	3.489500	-10.530000	24.894331	0.000730	20.842034
1484.395178	-3.001100	3.488500	-10.469000	24.871340	0.000730	20.844090
1485.395567	-2.987700	3.489000	-10.422000	24.895208	0.000731	20.848129
1486.395046	-3.027100	3.488600	-10.559000	24.898072	0.000729	20.841996
1487.392485	-3.000600	3.487300	-10.463000	24.870175	0.000728	20.830118
1488.396362	-3.014600	3.486400	-10.509000	24.825636	0.000726	20.840420
1489.400235	-2.997300	3.488100	-10.454000	24.837680	0.000728	20.837334
1490.396256	-3.005100	3.486500	-10.476000	24.830397	0.000727	20.846146
1491.398073	-2.986200	3.485900	-10.408000	24.834133	0.000726	20.855585
1492.402050	-3.005500	3.486500	-10.478000	24.844374	0.000728	20.841207
1493.393526	-3.010200	3.486300	-10.493000	24.839005	0.000726	20.826810
1494.399567	-2.999200	3.486300	-10.455000	24.811835	0.000726	20.842690
1495.395787	-2.990700	3.486800	-10.426000	24.822653	0.000725	20.832210
1496.394831	-2.988000	3.486600	-10.417000	24.799699	0.000724	20.831459
1497.397643	-2.991900	3.485200	-10.427000	24.808031	0.000724	20.853097
1498.395750	-2.964000	3.484700	-10.327000	24.835218	0.000724	20.835338
1499.397019	-3.010800	3.484300	-10.489000	24.851257	0.000724	20.842899
1500.396472	-3.005900	3.482600	-10.466000	24.844943	0.000722	20.830873
1501.398795	-3.023000	3.483700	-10.528000	24.875658	0.000722	20.822819
1502.392749	-2.989400	3.483600	-10.412000	24.857533	0.000722	20.835922
1503.396340	-3.011400	3.481600	-10.484000	24.851544	0.000720	20.828016
1504.398769	-3.004300	3.481900	-10.459000	24.824192	0.000720	20.807202
1505.394856	-2.977400	3.482800	-10.369000	24.821111	0.000720	20.831612
1506.395205	-2.984500	3.482800	-10.394000	24.842476	0.000719	20.823181
1507.399504	-3.012700	3.480800	-10.486000	24.863018	0.000717	20.828150
1508.397683	-2.982700	3.481600	-10.384000	24.853998	0.000718	20.847547
1509.395445	-3.003800	3.481700	-10.457000	24.874264	0.000718	20.811463
1510.396542	-3.017600	3.479000	-10.497000	24.844923	0.000718	20.825164
1511.398232	-2.984100	3.480300	-10.384000	24.839732	0.000717	20.791979
1512.394869	-3.005800	3.479400	-10.458000	24.834541	0.000717	20.804313
1513.399206	-3.027900	3.477200	-10.528000	24.834688	0.000718	20.839073
1514.396511	-3.001000	3.479300	-10.440000	24.826417	0.000716	20.820341
1515.396650	-3.004900	3.478600	-10.450000	24.834626	0.000717	20.816252
1516.401305	-2.982300	3.478100	-10.371000	24.839032	0.000716	20.801233
1517.400059	-2.963800	3.479000	-10.309000	24.864721	0.000713	20.797618
1518.401083	-3.002100	3.477500	-10.439000	24.876336	0.000714	20.815913
1519.405953	-2.990600	3.477600	-10.399000	24.868881	0.000713	20.811276
1520.402598	-2.989400	3.477800	-10.394000	24.849468	0.000713	20.806491
1521.402577	-3.015800	3.477200	-10.486000	24.879182	0.000714	20.815451
1522.404817	-3.008700	3.475300	-10.455000	24.886569	0.000712	20.810063
1523.400157	-3.005000	3.476900	-10.445000	24.854302	0.000711	20.811343
1524.404778	-2.994900	3.475400	-10.407000	24.820071	0.000712	20.803067
1525.406763	-2.998900	3.475300	-10.422000	24.814303	0.000711	20.808658
1526.404962	-2.986100	3.474100	-10.372000	24.780892	0.000711	20.791723
1527.406460	-2.997300	3.474800	-10.412000	24.790489	0.000709	20.827907
1528.409795	-3.005400	3.475400	-10.444000	24.792906	0.000711	20.813263
1529.408647	-2.990300	3.473600	-10.386000	24.831507	0.000710	20.797949
1530.407673	-3.010100	3.473800	-10.455000	24.848441	0.000708	20.803090
1531.403176	-3.010300	3.473800	-10.456000	24.834151	0.000707	20.806766
1532.408052	-2.997900	3.471600	-10.407000	24.815977	0.000708	20.811286
1533.408172	-2.993300	3.472900	-10.394000	24.815081	0.000707	20.814654
1534.405957	-2.990100	3.472400	-10.381000	24.811037	0.000705	20.796371
1535.411075	-3.002700	3.472500	-10.426000	24.791248	0.000703	20.811599
1536.410980	-3.019000	3.470300	-10.476000	24.807564	0.000706	20.803317
1537.410378	-3.002100	3.469200	-10.413000	24.796083	0.000705	20.811236
1538.412505	-3.009600	3.469900	-10.442000	24.791929	0.000705	20.788101
1539.413888	-3.024400	3.469700	-10.493000	24.800489	0.000704	20.805226
1540.409102	-3.010200	3.468900	-10.442000	24.826780	0.000705	20.796050
1541.409307	-2.989500	3.470900	-10.375000	24.864429	0.000702	20.793057
1542.412038	-2.977200	3.469600	-10.329000	24.884179	0.000703	20.791542
1543.409254	-3.023600	3.467700	-10.484000	24.870852	0.000701	20.804246
1544.411849	-2.986900	3.467800	-10.357000	24.894750	0.000702	20.797411
1545.412112	-3.010000	3.467600	-10.437000	24.883467	0.000702	20.803156
1546.412438	-3.012200	3.466600	-10.440000	24.862833	0.000699	20.805206
1547.412982	-3.005900	3.468500	-10.424000	24.831381	0.000698	20.777908
1548.414320	-2.981700	3.467500	-10.338000	24.858440	0.000698	20.792736
1549.412475	-3.003100	3.467000	-10.411000	24.875177	0.000699	20.798629
1550.413909	-2.980800	3.466900	-10.332000	24.825276	0.000697	20.779842
1551.416254	-2.990300	3.466700	-10.366000	24.829657	0.000699	20.797040
1552.410150	-3.010900	3.465000	-10.432000	24.819962	0.000698	20.777828
1553.415371	-2.992900	3.467700	-10.378000	24.843364	0.000697	20.790408
1554.420153	-3.007800	3.465200	-10.421000	24.851923	0.000698	20.784300
1555.417040	-3.002200	3.465100	-10.401000	24.823380	0.000697	20.818241
1556.417663	-3.007100	3.464800	-10.417000	24.807936	0.000696	20.777612
1557.418716	-3.011200	3.463400	-10.428000	24.796357	0.000695	20.769785
1558.416228	-3.015800	3.464400	-10.447000	24.810752	0.000694	20.797508
1559.412916	-3.015100	3.462000	-10.437000	24.824293	0.000694	20.781226
1560.417179	-2.994000	3.463700	-10.370000	24.801088	0.000693	20.800137
1561.417973	-3.002800	3.463500	-10.399000	24.825815	0.000692	20.784650
1562.417983	-3.019400	3.462500	-10.454000	24.821716	0.000696	20.788123
1563.418472	-3.012400	3.460900	-10.425000	24.823784	0.000692	20.777396
1564.418911	-3.007400	3.461200	-10.408000	24.865635	0.000691	20.804225
1565.418913	-3.010200	3.460500	-10.416000	24.847590	0.000691	20.795598
1566.419219	-3.014600	3.460400	-10.430000	24.908460	0.000691	20.799318
1567.419855	-3.004000	3.460000	-10.393000	24.923038	0.000691	20.791663
1568.421952	-3.021500	3.459500	-10.450000	24.909914	0.000689	20.799354
1569.418521	-3.020800	3.459500	-10.449000	24.922203	0.000688	20.773756
1570.418595	-3.031800	3.458600	-10.484000	24.906963	0.000690	20.786435
1571.422760	-2.999600	3.458600	-10.374000	24.876592	0.000687	20.791515
1572.416422	-2.970100	3.460200	-10.275000	24.886470	0.000687	20.778195
1573.421877	-2.979200	3.459900	-10.305000	24.870555	0.000687	20.800154
1574.426235	-3.005100	3.459300	-10.394000	24.882998	0.000688	20.772339
1575.421007	-3.039600	3.456100	-10.504000	24.895980	0.000686	20.791533
1576.424818	-3.014000	3.457400	-10.420000	24.930473	0.000686	20.775418
1577.420823	-2.988800	3.456600	-10.330000	24.923840	0.000684	20.750268
1578.419387	-2.995000	3.456300	-10.351000	24.929896	0.000686	20.785270
1579.422652	-3.018200	3.456900	-10.433000	24.891507	0.000685	20.762862
1580.421752	-3.011400	3.456600	-10.407000	24.884451	0.000685	20.781385
1581.416864	-2.978700	3.455900	-10.293000	24.871303	0.000683	20.771507
1582.421025	-3.001900	3.456200	-10.374000	24.887390	0.000684	20.784808
1583.420056	-3.005100	3.455500	-10.383000	24.870886	0.000685	20.773933
1584.421163	-3.007000	3.453900	-10.383000	24.851154	0.000684	20.774993
1585.423437	-2.992800	3.454400	-10.338000	24.875500	0.000682	20.762443
1586.422698	-3.015200	3.453700	-10.413000	24.868266	0.000680	20.762295
1587.420777	-2.982100	3.454800	-10.302000	24.850718	0.000681	20.766020
1588.425282	-3.012000	3.453900	-10.402000	24.853111	0.000680	20.762258
1589.424690	-2.997300	3.452400	-10.347000	24.894857	0.000681	20.756266
1590.424750	-3.009300	3.452200	-10.387000	24.877242	0.000680	20.769407
1591.426160	-3.000800	3.453300	-10.362000	24.887924	0.000679	20.784870
1592.423404	-3.018000	3.451200	-10.415000	24.911508	0.000679	20.768711
1593.425873	-2.989500	3.453100	-10.322000	24.920987	0.000677	20.754991
1594.425482	-3.023900	3.452300	-10.438000	24.950460	0.000677	20.776039
1595.427593	-3.017700	3.450900	-10.413000	24.941932	0.000678	20.783601
1596.425973	-3.012800	3.450300	-10.394000	24.960884	0.000679	20.768958
1597.425588	-3.025000	3.450200	-10.436000	24.961559	0.000676	20.762522
1598.426669	-2.984900	3.449400	-10.294000	24.965736	0.000677	20.768613
1599.428227	-2.994200	3.450500	-10.331000	24.999705	0.000674	20.776630
1600.424307	-2.976400	3.450500	-10.270000	24.977908	0.000675	20.772295
1601.426436	-2.996000	3.449700	-10.333000	24.973835	0.000675	20.747817
1602.431404	-2.992800	3.450700	-10.326000	24.942755	0.000674	20.754080
1603.426532	-2.987000	3.449700	-10.303000	24.922950	0.000671	20.754117
1604.424705	-3.005400	3.448000	-10.361000	24.913852	0.000673	20.747355
1605.426723	-2.978500	3.448300	-10.270000	24.911269	0.000673	20.749979
1606.429684	-2.990700	3.447900	-10.310000	24.880144	0.000672	20.741499
1607.425527	-2.976200	3.447100	-10.259000	24.858743	0.000672	20.753686
1608.429551	-3.011300	3.446000	-10.375000	24.840539	0.000671	20.760072
1609.429790	-2.994600	3.446800	-10.321000	24.866554	0.000669	20.756783
1610.427227	-2.992800	3.446900	-10.315000	24.868579	0.000669	20.761186
1611.427146	-3.001700	3.444800	-10.338000	24.886605	0.000669	20.768847
1612.430417	-3.001100	3.446700	-10.342000	24.861695	0.000669	20.759019
1613.429770	-3.014100	3.444300	-10.380000	24.826906	0.000669	20.753027
1614.427126	-3.027300	3.444400	-10.426000	24.808492	0.000669	20.749720
1615.429959	-3.002400	3.444000	-10.340000	24.787305	0.000668	20.764493
1616.430810	-3.011300	3.442900	-10.366000	24.761006	0.000666	20.741419
1617.430099	-3.002400	3.443300	-10.337000	24.760533	0.000665	20.749480
1618.430770	-2.965000	3.445200	-10.214000	24.748697	0.000665	20.742343
1619.431292	-3.000400	3.443500	-10.331000	24.792791	0.000665	20.739652
1620.429985	-3.012600	3.442200	-10.370000	24.790416	0.000666	20.754813
1621.432895	-2.985000	3.444100	-10.279000	24.819960	0.000666	20.735625
1622.435658	-2.982700	3.442600	-10.265000	24.851866	0.000663	20.751051
1623.432463	-3.029000	3.442200	-10.425000	24.859775	0.000665	20.750454
1624.433668	-3.014900	3.439400	-10.368000	24.868058	0.000664	20.757344
1625.432648	-3.009500	3.439900	-10.350000	24.846265	0.000663	20.749696
1626.439430	-2.971600	3.442400	-10.228000	24.831619	0.000663	20.759180
1627.437075	-2.994300	3.440100	-10.299000	24.823317	0.000661	20.742313
1628.433453	-3.004800	3.439800	-10.335000	24.809843	0.000661	20.758663
1629.435986	-2.976700	3.439300	-10.236000	24.821114	0.000660	20.740102
1630.434074	-2.995700	3.439700	-10.302000	24.804339	0.000661	20.733698
1631.437179	-2.985100	3.439400	-10.265000	24.809463	0.000658	20.753539
1632.442681	-3.029900	3.437300	-10.414000	24.771843	0.000660	20.728113
1633.439766	-2.968400	3.438800	-10.206000	24.790994	0.000657	20.721727
1634.439876	-2.983900	3.438900	-10.259000	24.803014	0.000658	20.728101
1635.440996	-3.019100	3.437100	-10.376000	24.819925	0.000658	20.714251
1636.438021	-3.007300	3.436700	-10.335000	24.807825	0.000658	20.724394
1637.442111	-3.002400	3.436100	-10.316000	24.822079	0.000656	20.742018
1638.445182	-2.992500	3.437200	-10.284000	24.785128	0.000655	20.732910
1639.442554	-3.009900	3.436200	-10.342000	24.759799	0.000657	20.712231
1640.443090	-3.010500	3.436200	-10.344000	24.758381	0.000656	20.725509
1641.446406	-3.008500	3.434200	-10.329000	24.767260	0.000653	20.729678
1642.444798	-3.016100	3.434700	-10.357000	24.746827	0.000655	20.735251
1643.443769	-2.992600	3.435100	-10.279000	24.770335	0.000653	20.719960
1644.448224	-2.991600	3.435900	-10.278000	24.770538	0.000653	20.726802
1645.442567	-2.997100	3.434600	-10.292000	24.815085	0.000652	20.735473
1646.444256	-2.983900	3.434100	-10.245000	24.836321	0.000653	20.751571
1647.446280	-3.003200	3.433300	-10.310000	24.829590	0.000652	20.734858
1648.446181	-3.008800	3.432700	-10.327000	24.815914	0.000650	20.733934
1649.443174	-3.026200	3.432100	-10.385000	24.826909	0.000650	20.726951
1650.445103	-3.007900	3.433200	-10.325000	24.858269	0.000650	20.721913
1651.448060	-3.020100	3.430300	-10.358000	24.827321	0.000651	20.721674
1652.448097	-2.989300	3.431800	-10.258000	24.860594	0.000648	20.722351
1653.448747	-3.006900	3.431500	-10.317000	24.881584	0.000647	20.732986
1654.447858	-2.992100	3.431100	-10.265000	24.887904	0.000648	20.713249
1655.448833	-3.001100	3.431500	-10.297000	24.895819	0.000648	20.743955
1656.447875	-3.007900	3.431800	-10.321000	24.919323	0.000646	20.715387
1657.450886	-3.006600	3.430000	-10.310000	24.920520	0.000646	20.727494
1658.450471	-3.001800	3.429900	-10.295000	24.879352	0.000646	20.718891
1659.446130	-3.017800	3.428900	-10.346000	24.879254	0.000645	20.722586
1660.450612	-3.014800	3.429500	-10.338000	24.888009	0.000647	20.710036
1661.450582	-3.014000	3.428300	-10.332000	24.896102	0.000643	20.714840
1662.450233	-2.995000	3.428900	-10.269000	24.930294	0.000645	20.721657
1663.454522	-2.980200	3.429600	-10.220000	24.938399	0.000643	20.716515
1664.452441	-2.989100	3.428300	-10.246000	24.966927	0.000644	20.713381
1665.450939	-3.010300	3.428100	-10.319000	24.971804	0.000641	20.725390
1666.453639	-3.000300	3.428100	-10.285000	24.996792	0.000641	20.696415
1667.453983	-3.001900	3.427600	-10.289000	24.958535	0.000642	20.719182
1668.452037	-3.007800	3.428800	-10.312000	24.952228	0.000640	20.724232
1669.454582	-3.014300	3.424900	-10.322000	24.927632	0.000640	20.701440
1670.451960	-3.008000	3.426000	-10.304000	24.904190	0.000639	20.700197
1671.453043	-2.993800	3.426700	-10.258000	24.869887	0.000640	20.687104
1672.459610	-2.994600	3.426800	-10.261000	24.863574	0.000639	20.680767
1673.456857	-2.989900	3.425300	-10.240000	24.855205	0.000640	20.698923
1674.453751	-3.003300	3.424300	-10.283000	24.876219	0.000640	20.708160
1675.460183	-2.986800	3.426300	-10.232000	24.882907	0.000637	20.696379
1676.458940	-2.970900	3.423700	-10.170000	24.906007	0.000637	20.698227
1677.459621	-3.012500	3.424500	-10.316000	24.925278	0.000638	20.698603
1678.460108	-3.012500	3.423400	-10.312000	24.940205	0.000634	20.707422
1679.457614	-3.010700	3.422800	-10.303000	24.935407	0.000635	20.705925
1680.460393	-2.985800	3.423700	-10.221000	24.960500	0.000636	20.711197
1681.465855	-2.988300	3.423600	-10.230000	24.972758	0.000635	20.698369
1682.461360	-2.985200	3.422700	-10.217000	24.997752	0.000634	20.698327
1683.456971	-3.011000	3.423000	-10.305000	24.980126	0.000632	20.701498
1684.459996	-2.993000	3.421100	-10.239000	24.955912	0.000633	20.705643
1685.462271	-3.015100	3.421300	-10.314000	24.916131	0.000632	20.706967
1686.461270	-3.005800	3.420700	-10.281000	24.892793	0.000634	20.709148
1687.461292	-3.001300	3.420400	-10.264000	24.875884	0.000633	20.695969
1688.461789	-3.006600	3.421000	-10.285000	24.871565	0.000631	20.680727
1689.459300	-2.987800	3.420100	-10.218000	24.882154	0.000629	20.706056
1690.458601	-3.007000	3.420200	-10.284000	24.901561	0.000630	20.698033
1691.459178	-3.000600	3.418600	-10.256000	24.927636	0.000630	20.699547
1692.461112	-2.982200	3.420700	-10.199000	24.906254	0.000631	20.709382
1693.465121	-2.990200	3.419200	-10.222000	24.925704	0.000631	20.690969
1694.465196	-2.999800	3.418300	-10.253000	24.885824	0.000628	20.694091
1695.464885	-2.997600	3.418100	-10.244000	24.932582	0.000628	20.677957
1696.464907	-2.999000	3.416500	-10.244000	24.930042	0.000629	20.691530
1697.463496	-3.008500	3.416700	-10.278000	24.948073	0.000626	20.681652
1698.466399	-3.007600	3.415500	-10.271000	24.984975	0.000626	20.682656
1699.464586	-2.991000	3.417400	-10.220000	24.988313	0.000625	20.674626
1700.467898	-3.016400	3.414900	-10.300000	24.986896	0.000627	20.685532
1701.466379	-3.007700	3.417000	-10.277000	24.996049	0.000625	20.709421
1702.470355	-2.980000	3.415800	-10.178000	25.012680	0.000623	20.682490
1703.474259	-2.984900	3.417200	-10.198000	25.033471	0.000625	20.690084
1704.470522	-2.996800	3.415200	-10.234000	25.032655	0.000622	20.702068
1705.473291	-3.001500	3.414200	-10.247000	25.041588	0.000623	20.692068
1706.474429	-2.997900	3.413100	-10.231000	25.032221	0.000622	20.708745
1707.474466	-3.031000	3.413300	-10.343000	25.039429	0.000621	20.693219
1708.474020	-3.018500	3.413500	-10.303000	25.074911	0.000622	20.675730
1709.473331	-3.017800	3.413100	-10.299000	25.071212	0.000620	20.672017
1710.469917	-2.997600	3.414700	-10.234000	25.066544	0.000620	20.692937
1711.474921	-3.013200	3.413500	-10.285000	25.063919	0.000620	20.693621
1712.475719	-2.992900	3.411800	-10.210000	25.061484	0.000619	20.676950
1713.475816	-3.003400	3.411400	-10.244000	25.088193	0.000620	20.684323
1714.475543	-3.023500	3.410000	-10.309000	25.076710	0.000618	20.686072
1715.477908	-2.998100	3.412000	-10.228000	25.074821	0.000618	20.673268
1716.476218	-3.000900	3.411300	-10.235000	25.089795	0.000617	20.698734
1717.477526	-2.992200	3.410500	-10.204000	25.066184	0.000617	20.696370
1718.473948	-3.007600	3.409800	-10.253000	25.042021	0.000616	20.689183
1719.472567	-3.009200	3.409700	-10.260000	25.037027	0.000616	20.699819
1720.476767	-2.957100	3.410000	-10.083000	25.043794	0.000617	20.694757
1721.476467	-2.995300	3.409200	-10.210000	25.058118	0.000615	20.678788
1722.479717	-2.980100	3.409700	-10.160000	25.032716	0.000615	20.675100
1723.484057	-2.992800	3.410100	-10.205000	24.995380	0.000615	20.674607
1724.475991	-2.988600	3.408100	-10.184000	25.005552	0.000615	20.674386
1725.476053	-2.973500	3.407600	-10.131000	25.009730	0.000612	20.680951
1726.474891	-2.992500	3.407900	-10.197000	25.025748	0.000612	20.667156
1727.477549	-2.997300	3.406800	-10.210000	25.039342	0.000610	20.696926
1728.480000	-3.015200	3.408100	-10.275000	25.050066	0.000611	20.689672
1729.477732	-3.006100	3.407100	-10.241000	25.035055	0.000610	20.684086
1730.478593	-3.016700	3.405900	-10.274000	25.007780	0.000608	20.691322
1731.478876	-3.003400	3.405500	-10.227000	25.005148	0.000609	20.684887
1732.479173	-2.991100	3.407100	-10.190000	24.976689	0.000605	20.684297
1733.477736	-2.983500	3.406000	-10.161000	25.020645	0.000607	20.708031
1734.477361	-2.988600	3.404600	-10.174000	25.021449	0.000608	20.702199
1735.478589	-2.984200	3.404500	-10.159000	25.041092	0.000609	20.690148
1736.480196	-3.000300	3.405000	-10.215000	25.044840	0.000605	20.684426
1737.478467	-2.991000	3.405100	-10.183000	25.049423	0.000604	20.679069
1738.480478	-3.004900	3.404600	-10.229000	25.065980	0.000603	20.685258
1739.479659	-3.006400	3.404500	-10.234000	25.087684	0.000604	20.707521
1740.479644	-3.008000	3.402300	-10.233000	25.107608	0.000604	20.688640
1741.486217	-2.980900	3.403400	-10.144000	25.117478	0.000604	20.700920
1742.482692	-2.983500	3.403500	-10.153000	25.111957	0.000603	20.707232
1743.480001	-2.994200	3.403500	-10.190000	25.094788	0.000603	20.690470
1744.483490	-2.994500	3.401900	-10.186000	25.083127	0.000602	20.698204
1745.482579	-3.000800	3.401500	-10.205000	25.049124	0.000600	20.695366
1746.479229	-3.018800	3.401500	-10.267000	25.027672	0.000600	20.697540
1747.481533	-3.015500	3.400700	-10.254000	25.038585	0.000602	20.716082
1748.483857	-3.015700	3.399800	-10.252000	25.053431	0.000600	20.697318
1749.482425	-2.957500	3.400400	-10.055000	25.061787	0.000600	20.705232
1750.479496	-3.002700	3.401800	-10.213000	25.077503	0.000598	20.700146
1751.483686	-3.024300	3.399900	-10.280000	25.096495	0.000599	20.706883
1752.483752	-3.017400	3.398600	-10.253000	25.104059	0.000598	20.697880
1753.483070	-3.009300	3.399000	-10.227000	25.116290	0.000597	20.702098
1754.487441	-3.001500	3.398500	-10.199000	25.109702	0.000598	20.711132
1755.480672	-3.006600	3.397500	-10.214000	25.103341	0.000597	20.691469
1756.481603	-2.986600	3.398200	-10.148000	25.104758	0.000596	20.700005
1757.484410	-3.010100	3.398100	-10.228000	25.108642	0.000595	20.689677
1758.486921	-3.025700	3.397300	-10.278000	25.130890	0.000592	20.701581
1759.487163	-3.012600	3.395800	-10.230000	25.124228	0.000593	20.690152
1760.486210	-2.993300	3.396400	-10.166000	25.134399	0.000593	20.688982
1761.489913	-3.006700	3.396300	-10.210000	25.126866	0.000592	20.697068
1762.485147	-3.008500	3.395400	-10.214000	25.093190	0.000593	20.704039
1763.487136	-3.004000	3.395400	-10.199000	25.068874	0.000593	20.701915
1764.484847	-2.982500	3.397000	-10.131000	25.063261	0.000593	20.702919
1765.485942	-2.971200	3.396400	-10.090000	25.049262	0.000591	20.692659
1766.485054	-3.011600	3.396300	-10.228000	25.043006	0.000590	20.714355
1767.488739	-2.979400	3.395900	-10.116000	25.032558	0.000591	20.698651
1768.486751	-2.968100	3.394600	-10.074000	25.061151	0.000590	20.720716
1769.487090	-2.967600	3.394900	-10.074000	25.053845	0.000590	20.717176
1770.486742	-2.995400	3.393800	-10.164000	25.061109	0.000590	20.721148
1771.484371	-2.970300	3.394900	-10.083000	25.080923	0.000589	20.705950
1772.487124	-2.984600	3.393000	-10.125000	25.105135	0.000588	20.707021
1773.486904	-2.998700	3.392100	-10.171000	25.111974	0.000589	20.712465
1774.489202	-2.996900	3.393200	-10.167000	25.150061	0.000587	20.721302
1775.488108	-3.009500	3.392200	-10.208000	25.167089	0.000587	20.716585
1776.488007	-3.007600	3.391100	-10.199000	25.194709	0.000585	20.717762
1777.485449	-3.030900	3.390200	-10.273000	25.209172	0.000583	20.714738
1778.487837	-3.006300	3.391900	-10.196000	25.210792	0.000585	20.737228
1779.485935	-3.001500	3.390600	-10.176000	25.238061	0.000583	20.712447
1780.484286	-2.975900	3.392600	-10.095000	25.206216	0.000583	20.698018
1781.484648	-2.985700	3.391100	-10.123000	25.205670	0.000583	20.727344
1782.486051	-2.999700	3.389700	-10.167000	25.161280	0.000582	20.715496
1783.489204	-2.990700	3.389900	-10.137000	25.157495	0.000582	20.712644
1784.487665	-2.997500	3.390600	-10.162000	25.145344	0.000581	20.719887
1785.489608	-3.015100	3.389000	-10.218000	25.134162	0.000580	20.724783
1786.491926	-3.011300	3.389200	-10.204000	25.164457	0.000579	20.730066
1787.491581	-2.980800	3.389700	-10.103000	25.163838	0.000579	20.727547
1788.492320	-2.990400	3.388400	-10.132000	25.161655	0.000577	20.726304
1789.492695	-2.998900	3.386900	-10.155000	25.192882	0.000579	20.734421
1790.494964	-2.995000	3.388100	-10.147000	25.207419	0.000578	20.724832
1791.490963	-2.983300	3.387200	-10.104000	25.200512	0.000578	20.722166
1792.494507	-2.992300	3.387200	-10.134000	25.225691	0.000577	20.709036
1793.492187	-3.018200	3.385600	-10.218000	25.214730	0.000577	20.716525
1794.489670	-2.994500	3.385800	-10.138000	25.257340	0.000575	20.736545
1795.491177	-2.983200	3.386000	-10.101000	25.253058	0.000575	20.728453
1796.493679	-2.989100	3.385300	-10.117000	25.263325	0.000575	20.739236
1797.495128	-3.003000	3.385400	-10.166000	25.287159	0.000573	20.766011
1798.490849	-3.005000	3.385000	-10.171000	25.275678	0.000573	20.745000
1799.492721	-3.016000	3.384200	-10.205000	25.289300	0.000573	20.734969
1800.495688	-2.995300	3.384400	-10.136000	25.292507	0.000572	20.728232
1801.495087	-3.010800	3.384900	-10.190000	25.290545	0.000572	20.729106
1802.496861	-2.999500	3.383800	-10.148000	25.269391	0.000572	20.738214
1803.493351	-2.998700	3.384900	-10.149000	25.264798	0.000571	20.742137
1804.493555	-3.001200	3.383400	-10.154000	25.267533	0.000569	20.729710
1805.499695	-3.009300	3.381300	-10.175000	25.252617	0.000567	20.751245
1806.498502	-2.993200	3.381200	-10.120000	25.212652	0.000570	20.742889
1807.494677	-2.999100	3.381500	-10.141000	25.216657	0.000569	20.736478
1808.500571	-2.998200	3.382300	-10.139000	25.218564	0.000571	20.723693
1809.495082	-3.006500	3.381000	-10.164000	25.214240	0.000571	20.746380
1810.497495	-2.991100	3.380500	-10.110000	25.188743	0.000568	20.744490
1811.504003	-2.989800	3.381000	-10.108000	25.189656	0.000569	20.740191
1812.500204	-2.985900	3.381200	-10.094000	25.188669	0.000566	20.729243
1813.501359	-3.015400	3.379600	-10.189000	25.203807	0.000567	20.725000
1814.506124	-2.990900	3.380500	-10.110000	25.221184	0.000564	20.730591
1815.500189	-3.035800	3.378400	-10.255000	25.180990	0.000565	20.746664
1816.498423	-3.021600	3.380100	-10.212000	25.185689	0.000566	20.761339
1817.502930	-3.016500	3.379200	-10.192000	25.190951	0.000563	20.737223
1818.502322	-3.014100	3.378200	-10.181000	25.188694	0.000563	20.740647
1819.502799	-3.029900	3.378300	-10.234000	25.226232	0.000563	20.748462
1820.501534	-2.977400	3.379400	-10.060000	25.255961	0.000562	20.751757
1821.503812	-3.000800	3.377600	-10.134000	25.235695	0.000563	20.746584
1822.501573	-3.007500	3.376500	-10.154000	25.213529	0.000562	20.744244
1823.500820	-2.993000	3.376700	-10.105000	25.246491	0.000561	20.760742
1824.503141	-3.003500	3.376500	-10.141000	25.240222	0.000561	20.762509
1825.500605	-2.988100	3.376500	-10.088000	25.223146	0.000558	20.755322
1826.501108	-3.020200	3.374900	-10.191000	25.230997	0.000560	20.747082
1827.503495	-2.997000	3.375200	-10.115000	25.255635	0.000561	20.754275
1828.500876	-3.001200	3.375100	-10.128000	25.270821	0.000558	20.747237
1829.501448	-2.998000	3.375500	-10.118000	25.279886	0.000557	20.759657
1830.506798	-2.971100	3.375200	-10.026000	25.311103	0.000558	20.744058
1831.504563	-2.994900	3.375100	-10.107000	25.310655	0.000555	20.763524
1832.505069	-2.994300	3.374400	-10.103000	25.280057	0.000555	20.740862
1833.508668	-2.976300	3.374600	-10.043000	25.280180	0.000557	20.758055
1834.502676	-2.992800	3.373100	-10.094000	25.255426	0.000554	20.763074
1835.504493	-2.981900	3.374800	-10.062000	25.270434	0.000554	20.766763
1836.510086	-3.007500	3.374200	-10.146000	25.234646	0.000554	20.760229
1837.508005	-2.999300	3.372200	-10.114000	25.183258	0.000552	20.772175
1838.504204	-3.012300	3.372800	-10.159000	25.202972	0.000553	20.772052
1839.509615	-2.986800	3.372500	-10.071000	25.195758	0.000551	20.756749
1840.510242	-2.993500	3.372600	-10.096000	25.211473	0.000554	20.775846
1841.507759	-2.991000	3.372200	-10.085000	25.195311	0.000551	20.771473
1842.507174	-2.972500	3.372200	-10.023000	25.181933	0.000550	20.777483
1843.508951	-2.993300	3.371700	-10.091000	25.201174	0.000548	20.767877
1844.503182	-3.009900	3.371300	-10.146000	25.246513	0.000550	20.771196
1845.505311	-3.001900	3.370700	-10.117000	25.250187	0.000547	20.750227
1846.513590	-3.005700	3.370200	-10.128000	25.257302	0.000546	20.793407
1847.511786	-3.003800	3.370100	-10.122000	25.264232	0.000547	20.772864
1848.511747	-3.005400	3.368000	-10.122000	25.284570	0.000549	20.763886
1849.514706	-3.027700	3.367700	-10.195000	25.253174	0.000547	20.773616
1850.511728	-2.995100	3.369000	-10.089000	25.250911	0.000547	20.800267
1851.509159	-2.990900	3.369200	-10.076000	25.239024	0.000545	20.776479
1852.513594	-3.022500	3.368600	-10.181000	25.302926	0.000545	20.775204
1853.513510	-3.018600	3.367600	-10.164000	25.308642	0.000544	20.784736
1854.511054	-3.000200	3.367700	-10.102000	25.281374	0.000543	20.786756
1855.515654	-3.005800	3.366700	-10.118000	25.261343	0.000543	20.772808
1856.515787	-2.997900	3.366500	-10.091000	25.276669	0.000541	20.799102
1857.514099	-3.012600	3.366500	-10.141000	25.282294	0.000541	20.790525
1858.514497	-3.017800	3.366300	-10.157000	25.309807	0.000541	20.782587
1859.514714	-2.980700	3.367200	-10.036000	25.345617	0.000541	20.785351
1860.512741	-3.000300	3.365500	-10.097000	25.306305	0.000539	20.797089
1861.516639	-2.998100	3.365700	-10.090000	25.296259	0.000539	20.781786
1862.521079	-3.039600	3.364400	-10.225000	25.288776	0.000538	20.784705
1863.517322	-3.011900	3.365900	-10.137000	25.247487	0.000537	20.794933
1864.522152	-3.011800	3.364100	-10.131000	25.203767	0.000537	20.787076
1865.520238	-2.989200	3.363900	-10.054000	25.220389	0.000536	20.783374
1866.519423	-3.006600	3.362800	-10.109000	25.190512	0.000536	20.800321
1867.523268	-2.992200	3.364400	-10.066000	25.184421	0.000536	20.809853
1868.519809	-3.014100	3.362900	-10.135000	25.186016	0.000534	20.799127
1869.516922	-2.973500	3.364700	-10.004000	25.202627	0.000535	20.781663
1870.515269	-3.002000	3.363000	-10.095000	25.220990	0.000535	20.792513
1871.517110	-2.993100	3.363300	-10.066000	25.227823	0.000534	20.803640
1872.520082	-3.006400	3.360700	-10.102000	25.260441	0.000535	20.796559
1873.519613	-3.021600	3.362100	-10.158000	25.270929	0.000534	20.802821
1874.520499	-2.962200	3.361400	-9.956300	25.300110	0.000534	20.813628
1875.521331	-3.005300	3.360700	-10.098000	25.321379	0.000533	20.793732
1876.520177	-2.995400	3.361500	-10.067000	25.362022	0.000530	20.797556
1877.526158	-2.981200	3.360400	-10.016000	25.384094	0.000530	20.790321
1878.520834	-2.972800	3.360800	-9.989800	25.377948	0.000531	20.811651
1879.518076	-3.004100	3.360400	-10.094000	25.401884	0.000530	20.815771
1880.524898	-2.990000	3.360500	-10.047000	25.426088	0.000530	20.825851
1881.520942	-3.025900	3.357800	-10.160000	25.411604	0.000528	20.791867
1882.520614	-3.020700	3.359000	-10.145000	25.442996	0.000528	20.806793
1883.518581	-3.026900	3.358500	-10.165000	25.451348	0.000530	20.814232
1884.517987	-3.000700	3.357400	-10.074000	25.461925	0.000528	20.805414
1885.517639	-2.994000	3.358000	-10.052000	25.460736	0.000529	20.836461
1886.519978	-3.015200	3.357000	-10.120000	25.473583	0.000526	20.825180
1887.523751	-2.986000	3.358600	-10.028000	25.483198	0.000526	20.815869
1888.518799	-2.999400	3.357600	-10.070000	25.492592	0.000525	20.823406
1889.521603	-2.996300	3.357100	-10.057000	25.476912	0.000526	20.820937
1890.523972	-3.001200	3.357600	-10.075000	25.449005	0.000525	20.807138
1891.522330	-3.000400	3.356200	-10.069000	25.424598	0.000522	20.803966
1892.524271	-3.017000	3.355100	-10.122000	25.421814	0.000520	20.817766
1893.525702	-3.023100	3.355000	-10.141000	25.415945	0.000522	20.823726
1894.527676	-2.979500	3.355800	-9.997800	25.440125	0.000519	20.822402
1895.522452	-2.988400	3.355800	-10.027000	25.452979	0.000520	20.820611
1896.526760	-3.016600	3.355200	-10.121000	25.468162	0.000518	20.838228
1897.529613	-2.978100	3.354600	-9.989500	25.461355	0.000519	20.833764
1898.523607	-2.990500	3.354300	-10.029000	25.469400	0.000518	20.804385
1899.526968	-2.990300	3.353400	-10.026000	25.475741	0.000517	20.828770
1900.525154	-3.002300	3.353800	-10.069000	25.493904	0.000516	20.842741
1901.524123	-3.004700	3.352900	-10.074000	25.477133	0.000517	20.828745
1902.529154	-2.989700	3.354400	-10.028000	25.500073	0.000514	20.828548
1903.528787	-3.014400	3.351600	-10.102000	25.476710	0.000515	20.827846
1904.527823	-2.990300	3.352300	-10.023000	25.472736	0.000516	20.829072
1905.529671	-3.007000	3.352000	-10.079000	25.495124	0.000515	20.831165
1906.527354	-2.997500	3.352200	-10.047000	25.506138	0.000512	20.820888
1907.527382	-2.978100	3.350600	-9.978000	25.524325	0.000513	20.853850
1908.528168	-2.976100	3.351400	-9.973000	25.499877	0.000514	20.847317
1909.528347	-2.992900	3.352200	-10.032000	25.476741	0.000512	20.847791
1910.531528	-2.996100	3.350200	-10.036000	25.483051	0.000510	20.827101
1911.533912	-2.989200	3.350600	-10.015000	25.468340	0.000510	20.847889
1912.530048	-3.004500	3.349100	-10.062000	25.460386	0.000509	20.837058
1913.531225	-2.995100	3.349000	-10.029000	25.453199	0.000509	20.846436
1914.532274	-2.992800	3.348700	-10.021000	25.443370	0.000509	20.843678
1915.529559	-2.990300	3.348800	-10.013000	25.441205	0.000509	20.837711
1916.531659	-3.001300	3.348700	-10.050000	25.421839	0.000507	20.831067
1917.528356	-2.987700	3.348300	-10.002000	25.415578	0.000507	20.841849
1918.529410	-2.997900	3.348100	-10.035000	25.420331	0.000507	20.831923
1919.533124	-2.987800	3.347500	-10.000000	25.443216	0.000507	20.856325
1920.530873	-3.019900	3.346900	-10.106000	25.478850	0.000507	20.866029
1921.531063	-2.999400	3.346500	-10.037000	25.505193	0.000507	20.833690
1922.530803	-3.013600	3.345300	-10.080000	25.517648	0.000503	20.837662
1923.531499	-3.011700	3.344900	-10.073000	25.514766	0.000505	20.855630
1924.529934	-2.970900	3.345500	-9.937200	25.550765	0.000503	20.851005
1925.535704	-2.985900	3.346200	-9.991100	25.587842	0.000502	20.852206
1926.533278	-2.998100	3.344300	-10.025000	25.603625	0.000502	20.863314
1927.529916	-3.034100	3.343000	-10.142000	25.601460	0.000500	20.854029
1928.533383	-3.017100	3.343300	-10.086000	25.567614	0.000501	20.846116
1929.533916	-2.996100	3.343100	-10.015000	25.550243	0.000502	20.837206
1930.533812	-2.995000	3.342600	-10.010000	25.517396	0.000500	20.843099
1931.538171	-3.009300	3.344300	-10.063000	25.506610	0.000502	20.855026
1932.534063	-2.995600	3.343100	-10.014000	25.539936	0.000499	20.864312
1933.531560	-3.003600	3.342100	-10.038000	25.529200	0.000498	20.847366
1934.540751	-2.993000	3.342400	-10.002000	25.533173	0.000498	20.850408
1935.537321	-3.007500	3.340800	-10.046000	25.576462	0.000496	20.850260
1936.535276	-2.981500	3.342400	-9.964500	25.588689	0.000495	20.852582
1937.541631	-3.023200	3.340600	-10.099000	25.575696	0.000498	20.849491
1938.537704	-3.016200	3.340500	-10.074000	25.591288	0.000496	20.855192
1939.538146	-3.028900	3.341200	-10.119000	25.599897	0.000495	20.851984
1940.543384	-3.002800	3.339200	-10.027000	25.634581	0.000496	20.864059
1941.534347	-2.974200	3.339200	-9.929900	25.639456	0.000494	20.852360
1942.535205	-3.012100	3.340500	-10.062000	25.632472	0.000492	20.867631
1943.538474	-3.004800	3.338700	-10.031000	25.653343	0.000493	20.863936
1944.541531	-3.010400	3.339000	-10.051000	25.641572	0.000493	20.862071
1945.537692	-3.009400	3.340400	-10.051000	25.621681	0.000492	20.865327
1946.538478	-3.008600	3.339600	-10.046000	25.615207	0.000492	20.860722
1947.537738	-3.000500	3.337500	-10.013000	25.618309	0.000492	20.864786
1948.538730	-3.009800	3.338400	-10.047000	25.658738	0.000491	20.876467
1949.537128	-3.020400	3.337300	-10.079000	25.675335	0.000489	20.864213
1950.538917	-3.032800	3.336500	-10.118000	25.666739	0.000490	20.887821
1951.540290	-2.988700	3.337900	-9.975200	25.634889	0.000488	20.897082
1952.538975	-3.011200	3.335900	-10.044000	25.614263	0.000489	20.875894
1953.542478	-3.035000	3.334200	-10.119000	25.563623	0.000488	20.871030
1954.542858	-3.014000	3.334600	-10.050000	25.538159	0.000487	20.892871
1955.539322	-3.010100	3.334900	-10.037000	25.534246	0.000485	20.886571
1956.545126	-2.988700	3.335600	-9.968500	25.537012	0.000485	20.896460
1957.541736	-2.978900	3.335200	-9.935200	25.517035	0.000485	20.874029
1958.538111	-3.019800	3.334500	-10.069000	25.522026	0.000485	20.894213
1959.544159	-2.982500	3.334300	-9.944000	25.570135	0.000484	20.893689
1960.545609	-2.974000	3.334400	-9.915400	25.593595	0.000483	20.859405
1961.542755	-2.968200	3.334900	-9.897600	25.620774	0.000481	20.893338
1962.547596	-2.983500	3.334900	-9.948400	25.630199	0.000482	20.870088
1963.543753	-2.989700	3.332700	-9.962600	25.651989	0.000481	20.877274
1964.544393	-2.965900	3.334900	-9.889700	25.653412	0.000479	20.871591
1965.549015	-3.001000	3.332100	-9.998600	25.686752	0.000477	20.878524
1966.545575	-3.009100	3.332400	-10.026000	25.690455	0.000478	20.897415
1967.541693	-3.006200	3.331500	-10.014000	25.686556	0.000477	20.884965
1968.548567	-2.998800	3.330900	-9.987900	25.709215	0.000477	20.884017
1969.542148	-2.988600	3.332100	-9.955800	25.699627	0.000479	20.876283
1970.542994	-2.984200	3.329900	-9.936000	25.676397	0.000476	20.879978
1971.544846	-3.003200	3.329700	-9.998500	25.678757	0.000475	20.886615
1972.547295	-3.020600	3.328300	-10.052000	25.707603	0.000475	20.881923
1973.554522	-2.997100	3.330400	-9.980700	25.743455	0.000476	20.873839
1974.545971	-2.986200	3.330700	-9.944800	25.734664	0.000476	20.873069
1975.550578	-2.997300	3.329800	-9.978900	25.709995	0.000473	20.865835
1976.547958	-3.006000	3.328100	-10.002000	25.712883	0.000472	20.874899
1977.550529	-2.989800	3.328900	-9.951800	25.726909	0.000469	20.870021
1978.546851	-3.002500	3.328200	-9.992000	25.696059	0.000469	20.851365
1979.550718	-3.010000	3.328000	-10.016000	25.692902	0.000469	20.858624
1980.551222	-3.007300	3.326900	-10.003000	25.698622	0.000469	20.856309
1981.551270	-3.004500	3.326700	-9.994000	25.712638	0.000468	20.844309
1982.555243	-3.013400	3.326700	-10.024000	25.726989	0.000469	20.859671
1983.551501	-2.988800	3.326500	-9.940900	25.721055	0.000468	20.869357
1984.551105	-3.028300	3.326100	-10.071000	25.696563	0.000466	20.848077
1985.555643	-3.006500	3.325700	-9.998000	25.733807	0.000466	20.857510
1986.552026	-2.991300	3.326100	-9.948300	25.734874	0.000465	20.864745
1987.549456	-3.002200	3.324600	-9.979700	25.754210	0.000466	20.864727
1988.558112	-3.013400	3.323600	-10.015000	25.756668	0.000465	20.847283
1989.550954	-3.003100	3.323200	-9.979100	25.761990	0.000463	20.862111
1990.550423	-3.007800	3.322800	-9.993500	25.776948	0.000463	20.839205
1991.553309	-3.006100	3.323300	-9.988600	25.795308	0.000462	20.840578
1992.553431	-3.008300	3.322900	-9.995300	25.808550	0.000462	20.852456
1993.554227	-3.000500	3.322400	-9.968400	25.816826	0.000461	20.848441
1994.558266	-3.001600	3.322900	-9.973400	25.836276	0.000460	20.861816
1995.552190	-2.998700	3.322100	-9.961400	25.834364	0.000461	20.849464
1996.551500	-2.999400	3.322000	-9.963400	25.857247	0.000461	20.853485
1997.559728	-2.998800	3.321300	-9.959200	25.873295	0.000460	20.869131
1998.558949	-3.002100	3.321000	-9.968100	25.822374	0.000461	20.848325
1999.556195	-2.996700	3.320800	-9.950800	25.828528	0.000458	20.850714
2000.555048	-2.980400	3.321300	-9.898200	25.848059	0.000458	20.836669
2001.555295	-2.980200	3.320100	-9.893400	25.860681	0.000456	20.845080
2002.554580	-2.984800	3.320400	-9.910400	25.860925	0.000456	20.848171
2003.552166	-3.024600	3.319900	-10.040000	25.855342	0.000456	20.839717
2004.550910	-3.041800	3.317800	-10.090000	25.879414	0.000456	20.838769
2005.550997	-3.014200	3.318500	-10.002000	25.902118	0.000455	20.830283
2006.552023	-3.002100	3.317800	-9.958800	25.901394	0.000455	20.839513
2007.551827	-3.004900	3.318100	-9.969600	25.931748	0.000453	20.848670
2008.551110	-2.995800	3.318300	-9.939600	25.935922	0.000453	20.832949
2009.551672	-2.997800	3.317400	-9.944700	25.949903	0.000452	20.848417
2010.556413	-3.000300	3.316600	-9.950200	25.928426	0.000452	20.828264
2011.554060	-3.007900	3.315700	-9.971800	25.953612	0.000451	20.839815
2012.555531	-3.011200	3.315700	-9.983400	25.929971	0.000449	20.836454
2013.554495	-3.009800	3.316500	-9.980100	25.952846	0.000449	20.826718
2014.553693	-3.012200	3.315800	-9.986000	25.943463	0.000450	20.832938
2015.552165	-2.990800	3.315900	-9.916000	25.976021	0.000448	20.814914
2016.554852	-3.002000	3.313200	-9.944900	25.984369	0.000449	20.827094
2017.554294	-3.002400	3.315100	-9.951700	25.928776	0.000449	20.834779
2018.555411	-2.990900	3.314100	-9.911600	25.921053	0.000447	20.824650
2019.554191	-2.970100	3.314200	-9.842900	25.917773	0.000445	20.818036
2020.555927	-2.981100	3.313500	-9.877700	25.937376	0.000446	20.834410
2021.554845	-3.006400	3.313000	-9.958800	25.945221	0.000446	20.826645
2022.556720	-2.972000	3.312700	-9.843700	25.947134	0.000444	20.836152
2023.557326	-2.993200	3.313200	-9.915900	25.952325	0.000445	20.820031
2024.563445	-2.991200	3.311800	-9.904900	25.953993	0.000444	20.809379
2025.557827	-2.991700	3.311000	-9.904400	25.950192	0.000442	20.815992
2026.562998	-3.007500	3.310600	-9.956000	25.944179	0.000441	20.814218
2027.562618	-2.983800	3.311000	-9.878200	25.946693	0.000440	20.812950
2028.558447	-2.996200	3.311200	-9.920300	25.950885	0.000441	20.812420
2029.562565	-3.020800	3.309600	-9.997300	25.934366	0.000439	20.808627
2030.556887	-3.024700	3.310100	-10.010000	25.952570	0.000438	20.811268
2031.560024	-2.993800	3.311500	-9.912000	25.930817	0.000439	20.821183
2032.555774	-3.010400	3.308400	-9.957900	25.909774	0.000439	20.816638
2033.564714	-3.017800	3.308500	-9.981700	25.931338	0.000439	20.801792
2034.560693	-3.016300	3.308700	-9.979100	25.927709	0.000438	20.812371
2035.560450	-3.002300	3.309200	-9.934000	25.962317	0.000437	20.820586
2036.565947	-3.037900	3.306900	-10.045000	25.977216	0.000437	20.820382
2037.563779	-3.002900	3.308000	-9.932400	25.930174	0.000435	20.822433
2038.562885	-3.013900	3.308600	-9.970300	25.948483	0.000434	20.833714
2039.558748	-3.006700	3.306800	-9.941100	25.974759	0.000434	20.825974
2040.563919	-2.993200	3.306800	-9.897500	25.947091	0.000433	20.819989
2041.562152	-3.028400	3.306400	-10.012000	25.987973	0.000434	20.820284
2042.563195	-3.005200	3.305200	-9.930900	26.004534	0.000433	20.810369
2043.566032	-3.000200	3.305000	-9.915100	26.044661	0.000429	20.807538
2044.561787	-3.022400	3.305800	-9.990600	26.040040	0.000430	20.825654
2045.562456	-3.004900	3.304200	-9.928200	26.034034	0.000429	20.801128
2046.568607	-2.991000	3.304900	-9.884500	26.038005	0.000429	20.808911
2047.566871	-2.976600	3.304600	-9.835800	26.025165	0.000428	20.804545
2048.566297	-2.966200	3.304700	-9.800800	25.983806	0.000428	20.794760
2049.567032	-2.998500	3.304900	-9.908200	25.926233	0.000427	20.811836
2050.562846	-3.007900	3.302200	-9.931800	25.866983	0.000427	20.796411
2051.564189	-2.977000	3.302600	-9.831100	25.861749	0.000426	20.800636
2052.565651	-3.001000	3.301900	-9.907600	25.876136	0.000426	20.790907
2053.565746	-3.014800	3.302500	-9.955100	25.886625	0.000426	20.801443
2054.566918	-3.022400	3.301700	-9.978200	25.925296	0.000421	20.797145
2055.568747	-3.009500	3.300900	-9.932500	25.934368	0.000425	20.817164
2056.568639	-2.972600	3.301700	-9.813800	25.961644	0.000421	20.814695
2057.569266	-2.997400	3.300500	-9.892200	25.971653	0.000422	20.813845
2058.569582	-3.008300	3.299900	-9.926100	25.947982	0.000421	20.804288
2059.571394	-2.994200	3.300600	-9.880900	25.940277	0.000422	20.820729
2060.571209	-3.016300	3.299400	-9.951000	25.962889	0.000418	20.787693
2061.571277	-3.001400	3.299300	-9.902000	25.959983	0.000419	20.805914
2062.571162	-3.009700	3.298100	-9.925400	26.002833	0.000418	20.816623
2063.568287	-3.019600	3.297900	-9.957300	26.001001	0.000420	20.793070
2064.571430	-3.011800	3.297600	-9.930800	25.976753	0.000417	20.808063
2065.570240	-3.005300	3.298900	-9.912600	25.985151	0.000417	20.793266
2066.568110	-3.033000	3.296400	-9.997000	25.941884	0.000415	20.819973
2067.570468	-2.991800	3.298100	-9.865600	25.931329	0.000415	20.819801
2068.570544	-3.019800	3.295300	-9.949600	25.930385	0.000415	20.793248
2069.573819	-2.996500	3.296200	-9.876300	25.928270	0.000415	20.778321
2070.570961	-2.994900	3.296800	-9.872200	25.957368	0.000413	20.785268
2071.569949	-3.039900	3.293700	-10.011000	25.989964	0.000413	20.791938
2072.573995	-2.994700	3.294200	-9.864100	26.032438	0.000411	20.788619
2073.574553	-3.002400	3.295400	-9.893200	26.047165	0.000413	20.787295
2074.570651	-3.019800	3.293800	-9.945400	26.072698	0.000412	20.778809
2075.575198	-2.975900	3.295000	-9.804800	26.090060	0.000410	20.796729
2076.573942	-2.988000	3.292400	-9.836700	26.080702	0.000411	20.784481
2077.573431	-2.999600	3.293600	-9.878500	26.039321	0.000410	20.795060
2078.570817	-3.032500	3.291700	-9.981200	26.002584	0.000412	20.799401
2079.572158	-3.007300	3.291500	-9.897400	25.980850	0.000409	20.784204
2080.570879	-3.009600	3.291400	-9.904700	25.964534	0.000409	20.791994
2081.576554	-3.014800	3.290400	-9.918800	25.977087	0.000407	20.799390
2082.575840	-3.007600	3.290400	-9.893400	25.969358	0.000406	20.795418
2083.573886	-2.997700	3.292300	-9.868400	25.941481	0.000406	20.801551
2084.576665	-2.996300	3.291800	-9.861700	25.955378	0.000407	20.770467
2085.578030	-3.008100	3.288900	-9.892300	25.957860	0.000404	20.784814
2086.576166	-3.003400	3.288400	-9.874700	25.978546	0.000403	20.776199
2087.573261	-2.989600	3.289700	-9.834200	25.968194	0.000402	20.767221
2088.576902	-3.005500	3.288600	-9.883100	25.969585	0.000403	20.776206
2089.578519	-3.008100	3.287400	-9.887300	25.978730	0.000404	20.774962
2090.578495	-2.994800	3.288400	-9.845800	25.989855	0.000400	20.777604
2091.579769	-2.994700	3.287000	-9.843100	25.986624	0.000402	20.787161
2092.581416	-3.003600	3.288100	-9.875400	26.001440	0.000400	20.775492
2093.577844	-2.999200	3.287700	-9.858600	25.973410	0.000399	20.774358
2094.578734	-2.976900	3.288200	-9.787500	25.985320	0.000398	20.784428
2095.580462	-3.015000	3.285400	-9.904900	25.988372	0.000399	20.769002
2096.580335	-2.972400	3.287700	-9.770800	25.955335	0.000397	20.767105
2097.586406	-3.011100	3.284700	-9.889600	25.955765	0.000396	20.785081
2098.581931	-3.000700	3.284800	-9.854800	25.974741	0.000394	20.772377
2099.582803	-3.035300	3.282300	-9.961600	25.955618	0.000395	20.774027
2100.581799	-3.026600	3.283200	-9.935100	25.936047	0.000394	20.770487
2101.577760	-3.031200	3.282200	-9.948000	25.958327	0.000395	20.745928
2102.583724	-2.996200	3.283000	-9.835200	25.992364	0.000393	20.780599
2103.580178	-2.993800	3.283200	-9.828300	25.970280	0.000393	20.790654
2104.584568	-2.995700	3.281500	-9.829300	25.961662	0.000393	20.784841
2105.588361	-2.999700	3.282000	-9.844500	25.961393	0.000391	20.785045
2106.581473	-2.977600	3.282500	-9.773100	25.977170	0.000391	20.763911
2107.586522	-3.021100	3.280700	-9.910200	25.986389	0.000393	20.778389
2108.589279	-3.016300	3.281300	-9.896200	26.026528	0.000390	20.761344
2109.584441	-2.996600	3.280500	-9.829600	26.056566	0.000390	20.774455
2110.586131	-3.005500	3.280700	-9.858900	26.081228	0.000389	20.770784
2111.591492	-3.005300	3.280700	-9.858600	26.106864	0.000388	20.764775
2112.583211	-2.991500	3.280600	-9.812800	26.104138	0.000387	20.749232
2113.589309	-2.991600	3.279300	-9.807900	26.124006	0.000387	20.786266
2114.588608	-2.995800	3.279400	-9.823400	26.148145	0.000385	20.759787
2115.588156	-2.996700	3.278700	-9.823900	26.114194	0.000385	20.780675
2116.587998	-2.997400	3.278100	-9.824300	26.092095	0.000386	20.750409
2117.590334	-3.014400	3.276600	-9.876200	26.072576	0.000383	20.760194
2118.587883	-3.008700	3.278000	-9.862000	26.013194	0.000384	20.777345
2119.585302	-3.004300	3.277200	-9.844700	25.990688	0.000382	20.764216
2120.588492	-3.020900	3.275300	-9.893000	25.997620	0.000384	20.760749
2121.587360	-2.997500	3.276500	-9.820200	26.026684	0.000381	20.778096
2122.591731	-3.014300	3.274300	-9.868800	26.045610	0.000382	20.762972
2123.587782	-2.983900	3.276000	-9.774700	26.106217	0.000379	20.766969
2124.590831	-3.000800	3.275600	-9.827600	26.128126	0.000377	20.756267
2125.589693	-2.995800	3.276000	-9.813200	26.132503	0.000377	20.772518
2126.591092	-3.012400	3.274900	-9.864600	26.152549	0.000379	20.776066
2127.591262	-2.999400	3.273900	-9.819200	26.118849	0.000375	20.752160
2128.594227	-3.007000	3.274000	-9.844100	26.115472	0.000376	20.744974
2129.596010	-3.004700	3.272100	-9.830800	26.125333	0.000376	20.773375
2130.594440	-2.978600	3.273200	-9.748500	26.113941	0.000373	20.750548
2131.595584	-3.003300	3.272500	-9.826400	26.102941	0.000374	20.757987
2132.595366	-3.008700	3.272300	-9.844700	26.119677	0.000372	20.753941
2133.599081	-3.008400	3.271100	-9.839400	26.083372	0.000374	20.758240
2134.592767	-2.997300	3.270700	-9.801500	26.077416	0.000372	20.747513
2135.597647	-3.011200	3.270400	-9.846800	26.082883	0.000373	20.759645
2136.596711	-3.029300	3.268900	-9.901500	26.051461	0.000371	20.750358
2137.593293	-3.014800	3.268600	-9.853700	26.000817	0.000370	20.735511
2138.594931	-3.022400	3.268600	-9.877400	26.019279	0.000369	20.740783
2139.597262	-3.030500	3.268400	-9.903700	26.037635	0.000368	20.748321
2140.593155	-2.988900	3.269900	-9.771700	26.019058	0.000370	20.751942
2141.596243	-2.989400	3.269600	-9.773600	26.033118	0.000368	20.747102
2142.599204	-2.994600	3.268700	-9.787400	26.063622	0.000368	20.749774
2143.596338	-2.952000	3.269300	-9.650200	26.107809	0.000367	20.723997
2144.598489	-3.027800	3.267300	-9.891800	26.065841	0.000365	20.741573
2145.597497	-3.001400	3.266200	-9.801700	26.065516	0.000366	20.745040
2146.597363	-2.989300	3.266600	-9.764200	26.099818	0.000365	20.731141
2147.596097	-3.024100	3.265500	-9.873700	26.131589	0.000366	20.747417
2148.595301	-2.992000	3.265300	-9.768600	26.155948	0.000364	20.714994
2149.594292	-2.993000	3.265700	-9.773600	26.193778	0.000363	20.744948
2150.594295	-2.989300	3.264600	-9.757800	26.200237	0.000364	20.740533
2151.596682	-2.963200	3.265100	-9.674000	26.217671	0.000361	20.749043
2152.592802	-2.995400	3.262900	-9.772700	26.167979	0.000364	20.737041
2153.592525	-2.983000	3.263000	-9.732300	26.121490	0.000362	20.731580
2154.596410	-3.000100	3.261900	-9.785000	26.123280	0.000360	20.745232
2155.595809	-3.003700	3.261900	-9.796000	26.121043	0.000361	20.735398
2156.596270	-3.003200	3.262900	-9.798000	26.148737	0.000360	20.738095
2157.594594	-2.980100	3.261800	-9.719900	26.185077	0.000359	20.730515
2158.597206	-3.001400	3.261900	-9.788900	26.164725	0.000358	20.747048
2159.594350	-2.982100	3.262100	-9.727100	26.162372	0.000359	20.716708
2160.601489	-3.003500	3.260300	-9.789700	26.183312	0.000356	20.732535
2161.597517	-3.001900	3.260300	-9.785100	26.177056	0.000357	20.727196
2162.597522	-2.993100	3.260700	-9.758400	26.115638	0.000356	20.726648
2163.601245	-2.980000	3.260400	-9.715500	26.071776	0.000356	20.734733
2164.597106	-2.991200	3.259700	-9.749700	26.013649	0.000354	20.725643
2165.598575	-2.982700	3.259400	-9.721000	25.984249	0.000356	20.725977
2166.601745	-3.009600	3.257100	-9.800800	25.941301	0.000352	20.723132
2167.598620	-3.007100	3.259400	-9.800200	26.001718	0.000353	20.725510
2168.594279	-2.989500	3.257200	-9.736600	26.041752	0.000354	20.726377
2169.594853	-2.993300	3.256700	-9.746800	26.078886	0.000351	20.722436
2170.597659	-2.985400	3.257800	-9.724100	26.108420	0.000350	20.722714
2171.595078	-2.998900	3.256200	-9.763500	26.099852	0.000350	20.705569
2172.599328	-3.010000	3.255700	-9.799000	26.111552	0.000350	20.711635
2173.600271	-3.001200	3.255100	-9.768600	26.080333	0.000349	20.721993
2174.599761	-3.000700	3.254300	-9.764200	26.089502	0.000348	20.717929
2175.598416	-3.010000	3.254700	-9.795300	26.114691	0.000348	20.725221
2176.597952	-3.021600	3.252900	-9.827700	26.170446	0.000347	20.710121
2177.597550	-2.997100	3.254200	-9.752200	26.207111	0.000346	20.712826
2178.600977	-3.015500	3.252400	-9.806300	26.229134	0.000346	20.702239
2179.598342	-2.979500	3.252900	-9.690000	26.199634	0.000345	20.721909
2180.600051	-2.998700	3.252300	-9.751500	26.197275	0.000345	20.710054
2181.598147	-2.987000	3.251500	-9.711300	26.196681	0.000344	20.716096
2182.599760	-2.987400	3.250800	-9.710200	26.195045	0.000344	20.723461
2183.602537	-2.985300	3.251500	-9.705300	26.189114	0.000342	20.714655
2184.603806	-3.001800	3.250200	-9.755600	26.208613	0.000344	20.704378
2185.599569	-2.998400	3.249500	-9.742500	26.214870	0.000343	20.730581
2186.600699	-3.003100	3.249400	-9.757300	26.245742	0.000342	20.711343
2187.601971	-2.996900	3.248600	-9.734500	26.252575	0.000342	20.715365
2188.609195	-3.018800	3.248200	-9.804100	26.280087	0.000339	20.708399
2189.604332	-3.016200	3.248500	-9.797400	26.283243	0.000340	20.722003
2190.605067	-2.964100	3.248800	-9.629500	26.271699	0.000341	20.697598
2191.607569	-3.020900	3.246100	-9.804500	26.289855	0.000339	20.713001
2192.606030	-2.996400	3.245400	-9.723100	26.285892	0.000337	20.714233
2193.601857	-3.000200	3.246300	-9.738200	26.311890	0.000339	20.706221
2194.607058	-3.011400	3.245400	-9.772100	26.267620	0.000336	20.710570
2195.605702	-2.989300	3.245400	-9.700000	26.228979	0.000338	20.722473
2196.603733	-3.005300	3.244600	-9.749300	26.178840	0.000339	20.705754
2197.607804	-2.993700	3.244200	-9.711000	26.140472	0.000336	20.699442
2198.606528	-2.991700	3.244500	-9.705500	26.102819	0.000337	20.697644
2199.608003	-2.993100	3.244100	-9.709300	26.109733	0.000336	20.694633
2200.610527	-3.003500	3.242300	-9.737000	26.128535	0.000336	20.715898
2201.609674	-3.002300	3.241900	-9.731500	26.138340	0.000335	20.704886
2202.606656	-2.989400	3.242200	-9.691000	26.205173	0.000334	20.727949
2203.616407	-3.023400	3.240700	-9.796800	26.212048	0.000333	20.698820
2204.610689	-2.993100	3.242000	-9.703400	26.240121	0.000333	20.694788
2205.610722	-3.002000	3.240600	-9.726600	26.261948	0.000332	20.702023
2206.615458	-3.007100	3.238500	-9.737600	26.253626	0.000330	20.721637
2207.611751	-3.001400	3.239700	-9.723100	26.267438	0.000331	20.689522
2208.609708	-2.995000	3.238200	-9.697700	26.269000	0.000332	20.689670
2209.615998	-2.985600	3.239400	-9.671000	26.253797	0.000330	20.691935
2210.609737	-2.984100	3.238000	-9.661700	26.249956	0.000330	20.696136
2211.607787	-2.993700	3.238300	-9.692400	26.223110	0.000331	20.715153
2212.609281	-3.004400	3.237800	-9.726600	26.211940	0.000329	20.701556
2213.609427	-2.987000	3.237500	-9.669600	26.224735	0.000327	20.710148
2214.609542	-3.011700	3.237400	-9.748800	26.241120	0.000329	20.723295
2215.609553	-3.019300	3.234400	-9.764200	26.269210	0.000329	20.708374
2216.614569	-2.989100	3.235900	-9.671500	26.274418	0.000326	20.706495
2217.613499	-2.997700	3.234600	-9.694500	26.305613	0.000325	20.720777
2218.614375	-2.960500	3.235900	-9.579200	26.284976	0.000325	20.717580
2219.614582	-3.000300	3.234800	-9.704800	26.273701	0.000325	20.712413
2220.610731	-3.004800	3.232700	-9.712800	26.284155	0.000325	20.701107
2221.614207	-2.993200	3.232000	-9.672700	26.315724	0.000324	20.707703
2222.616443	-3.002400	3.233200	-9.706500	26.299626	0.000324	20.702905
2223.615623	-2.982700	3.231000	-9.635900	26.340306	0.000323	20.708701
2224.614420	-2.978900	3.233600	-9.631600	26.358349	0.000324	20.695065
2225.619484	-3.003000	3.232900	-9.707500	26.385964	0.000323	20.697689
2226.615594	-3.002000	3.231100	-9.698700	26.412034	0.000321	20.709667
2227.616213	-3.005600	3.230600	-9.707600	26.424104	0.000322	20.699038
2228.615499	-3.001900	3.230600	-9.697800	26.427007	0.000320	20.729459
2229.614926	-2.987900	3.231800	-9.654000	26.449106	0.000322	20.704254
2230.615411	-3.012900	3.227600	-9.724300	26.480136	0.000321	20.696561
2231.616565	-3.002800	3.227700	-9.691000	26.492481	0.000321	20.716084
2232.616301	-3.012600	3.229000	-9.726500	26.500329	0.000320	20.714015
2233.615551	-3.026500	3.226900	-9.765200	26.485308	0.000320	20.708873
2234.612797	-2.995400	3.228500	-9.669900	26.502933	0.000320	20.710467
2235.618700	-3.000800	3.226700	-9.681900	26.509764	0.000319	20.716386
2236.616740	-3.028200	3.226700	-9.770000	26.503705	0.000319	20.711718
2237.615716	-2.991600	3.228500	-9.656200	26.530145	0.000318	20.728339
2238.615205	-2.990900	3.225800	-9.646900	26.528877	0.000319	20.728961
2239.614358	-2.994800	3.225300	-9.658500	26.488480	0.000317	20.710165
2240.614462	-3.015900	3.224200	-9.722900	26.464558	0.000315	20.693705
2241.622252	-3.014800	3.224100	-9.719000	26.435751	0.000316	20.706951
2242.615428	-2.968200	3.224600	-9.569500	26.449400	0.000315	20.702652
2243.615479	-2.990500	3.223100	-9.637700	26.460037	0.000313	20.725199
2244.620984	-2.998300	3.223100	-9.662200	26.468846	0.000314	20.725518
2245.619004	-2.991600	3.222700	-9.640100	26.442526	0.000315	20.722297
2246.616974	-2.973400	3.221300	-9.576700	26.431805	0.000315	20.732385
2247.617943	-2.995700	3.221400	-9.649000	26.469618	0.000313	20.716811
2248.620959	-2.977400	3.221300	-9.590000	26.530973	0.000314	20.706410
2249.618581	-3.025100	3.219500	-9.737600	26.527738	0.000312	20.730661
2250.618969	-3.009000	3.218200	-9.682300	26.490846	0.000312	20.722501
2251.619665	-3.009500	3.217500	-9.682000	26.485975	0.000310	20.745581
2252.615788	-3.010900	3.218500	-9.690200	26.471994	0.000313	20.708293
2253.618643	-3.004000	3.217900	-9.664800	26.465243	0.000311	20.718104
2254.620414	-3.002300	3.216800	-9.656300	26.494075	0.000309	20.729540
2255.618392	-2.988000	3.216300	-9.608800	26.506137	0.000307	20.716059
2256.617599	-2.984900	3.215300	-9.596000	26.508282	0.000312	20.727699
2257.623261	-2.986800	3.216100	-9.604700	26.529813	0.000309	20.731799
2258.623762	-3.003400	3.215200	-9.655200	26.543280	0.000310	20.725894
2259.623446	-3.013700	3.215500	-9.689600	26.502828	0.000309	20.705620
2260.627424	-3.004700	3.216100	-9.662000	26.530512	0.000308	20.746727
2261.627849	-3.015400	3.214500	-9.692000	26.534960	0.000308	20.708047
2262.625033	-3.017700	3.212400	-9.693000	26.549185	0.000306	20.722347
2263.628048	-2.998800	3.213200	-9.635300	26.561742	0.000305	20.733074
2264.626727	-3.000300	3.212900	-9.638800	26.544908	0.000306	20.713306
2265.622878	-2.987400	3.213400	-9.599000	26.517126	0.000306	20.728055
2266.630045	-3.000900	3.210600	-9.633900	26.502056	0.000304	20.715750
2267.626842	-2.998400	3.211000	-9.627000	26.516801	0.000304	20.717296
2268.625400	-2.993100	3.211300	-9.610700	26.535345	0.000304	20.737833
2269.625834	-2.998700	3.210000	-9.624400	26.544583	0.000304	20.712505
2270.624130	-3.024100	3.208000	-9.699900	26.550764	0.000304	20.730099
2271.622795	-3.002700	3.210700	-9.638700	26.584247	0.000304	20.727721
2272.626313	-2.989200	3.208800	-9.591800	26.607220	0.000305	20.720942
2273.626378	-2.975700	3.210100	-9.551400	26.605847	0.000302	20.733313
2274.622678	-2.989900	3.207600	-9.589400	26.624486	0.000301	20.734507
2275.626422	-2.994900	3.209400	-9.610700	26.591047	0.000301	20.732660
2276.626496	-2.991700	3.207500	-9.595400	26.589485	0.000302	20.718287
2277.628515	-2.972800	3.209000	-9.538500	26.584174	0.000301	20.743769
2278.628904	-2.983200	3.206800	-9.565400	26.550628	0.000302	20.744662
2279.629249	-3.001000	3.206300	-9.619900	26.538793	0.000299	20.730868
2280.628887	-3.001300	3.204100	-9.615900	26.563811	0.000299	20.728989
2281.627484	-2.986300	3.206000	-9.572600	26.555761	0.000300	20.733699
2282.626518	-3.000800	3.202300	-9.608900	26.577937	0.000300	20.746509
2283.628078	-2.983800	3.203300	-9.557300	26.606815	0.000301	20.754675
2284.631341	-3.008000	3.203100	-9.633600	26.620070	0.000298	20.740499
2285.632295	-3.010800	3.200500	-9.635400	26.613638	0.000297	20.722653
2286.634377	-3.005700	3.201300	-9.621100	26.593625	0.000299	20.738097
2287.632833	-3.009500	3.200300	-9.628600	26.603426	0.000297	20.728508
2288.632782	-3.016600	3.199400	-9.650100	26.620878	0.000297	20.714282
2289.634761	-3.005500	3.199300	-9.614400	26.600903	0.000295	20.759638
2290.634850	-3.021300	3.199400	-9.665100	26.601846	0.000295	20.749207
2291.634125	-2.985600	3.199200	-9.550700	26.600064	0.000296	20.741725
2292.632624	-2.995300	3.198100	-9.578600	26.623390	0.000295	20.748104
2293.632522	-3.007400	3.200100	-9.622200	26.647849	0.000297	20.750882
2294.634559	-3.004000	3.198300	-9.607300	26.681005	0.000296	20.749126
2295.634707	-2.978300	3.197200	-9.520500	26.680865	0.000293	20.737605
2296.632104	-3.009200	3.195900	-9.616500	26.703430	0.000293	20.746541
2297.634404	-2.991000	3.196400	-9.559500	26.729020	0.000294	20.757095
2298.634087	-2.993100	3.196800	-9.566900	26.755364	0.000293	20.752761
2299.631806	-3.013200	3.193500	-9.621300	26.779465	0.000292	20.741430
2300.635608	-2.996200	3.195100	-9.572600	26.756779	0.000293	20.758925
2301.632102	-3.005400	3.193800	-9.597300	26.758592	0.000293	20.745100
2302.636642	-3.001000	3.193300	-9.582000	26.782808	0.000292	20.746688
2303.635884	-3.010600	3.191800	-9.608400	26.774700	0.000293	20.750390
2304.635351	-2.977600	3.191500	-9.501100	26.788848	0.000292	20.760822
2305.634030	-3.011000	3.191800	-9.609700	26.798304	0.000289	20.754208
2306.636175	-2.952000	3.191500	-9.420500	26.799823	0.000290	20.777073
2307.637187	-2.997100	3.190800	-9.561600	26.784995	0.000292	20.749361
2308.637304	-3.002700	3.189100	-9.574500	26.805703	0.000289	20.747896
2309.637626	-2.981300	3.189600	-9.508300	26.782668	0.000290	20.752238
2310.633581	-3.005800	3.188600	-9.583600	26.836802	0.000290	20.743604
2311.637002	-3.036900	3.186500	-9.675800	26.849853	0.000289	20.746769
2312.633082	-3.000300	3.188300	-9.565000	26.861918	0.000288	20.738037
2313.635933	-2.984100	3.187100	-9.509500	26.820989	0.000287	20.750464
2314.639715	-2.986800	3.187500	-9.519100	26.780555	0.000288	20.743948
2315.634807	-2.984900	3.186500	-9.510600	26.706186	0.000286	20.755950
2316.637791	-3.011000	3.186600	-9.594700	26.673521	0.000287	20.763888
2317.636177	-3.006900	3.185400	-9.577000	26.632788	0.000287	20.749965
2318.637832	-3.027000	3.182700	-9.633300	26.657234	0.000286	20.761264
2319.636098	-3.005800	3.183800	-9.569100	26.641002	0.000286	20.756800
2320.637086	-3.009300	3.182300	-9.575600	26.642092	0.000286	20.751732
2321.636745	-3.006800	3.182700	-9.569200	26.645467	0.000287	20.764134
2322.636959	-2.969800	3.184700	-9.455500	26.654355	0.000286	20.760741
2323.637259	-2.989200	3.181400	-9.508700	26.692925	0.000284	20.757317
2324.638164	-2.983300	3.180000	-9.486100	26.701764	0.000284	20.744865
2325.642873	-3.013800	3.181700	-9.588100	26.754976	0.000284	20.766122
2326.641552	-2.989600	3.180300	-9.507300	26.797494	0.000284	20.763825
2327.644640	-3.001900	3.179600	-9.543900	26.819910	0.000284	20.765975
2328.647194	-3.009000	3.178200	-9.562000	26.861408	0.000282	20.761707
2329.643511	-2.997000	3.178200	-9.523400	26.863238	0.000283	20.767341
2330.642069	-3.023200	3.176800	-9.602900	26.843751	0.000283	20.776196
2331.643916	-2.989400	3.177700	-9.498200	26.828115	0.000282	20.767113
2332.643487	-2.984400	3.177900	-9.483400	26.814887	0.000280	20.772304
2333.645296	-3.007100	3.177600	-9.554700	26.822561	0.000281	20.752519
2334.644578	-3.010900	3.175300	-9.559700	26.856312	0.000281	20.768437
2335.645067	-2.988600	3.176500	-9.491800	26.842158	0.000284	20.780758
2336.645178	-2.992300	3.173800	-9.495800	26.838605	0.000281	20.797101
2337.647355	-2.988000	3.173100	-9.480000	26.809270	0.000282	20.755276
2338.646176	-2.981300	3.173100	-9.458500	26.808327	0.000283	20.777088
2339.647761	-2.997000	3.171700	-9.504300	26.769062	0.000279	20.774120
2340.645488	-2.986500	3.173400	-9.476500	26.768339	0.000280	20.796627
2341.642479	-2.958300	3.173400	-9.386700	26.744078	0.000279	20.804003
2342.642229	-2.972000	3.170900	-9.423000	26.753339	0.000279	20.777752
2343.648515	-3.017900	3.169900	-9.565400	26.747777	0.000280	20.774531
2344.647838	-3.001600	3.169200	-9.511300	26.770138	0.000279	20.790849
2345.644211	-2.995700	3.168700	-9.491000	26.783270	0.000279	20.776551
2346.649357	-3.015100	3.167200	-9.548200	26.779294	0.000279	20.786779
2347.649763	-3.034500	3.167600	-9.611400	26.812557	0.000279	20.783712
2348.648896	-3.017800	3.166300	-9.553300	26.813127	0.000277	20.780966
2349.651402	-2.997000	3.164900	-9.482600	26.831560	0.000279	20.769628
2350.651173	-3.002200	3.164600	-9.499800	26.858115	0.000280	20.782578
2351.652493	-2.987400	3.165800	-9.456700	26.845082	0.000278	20.770422
2352.650513	-3.000800	3.164700	-9.495300	26.857563	0.000278	20.795774
2353.652912	-3.003700	3.163900	-9.502700	26.903751	0.000280	20.791482
2354.651992	-2.990400	3.162600	-9.456700	26.951816	0.000278	20.773907
2355.654449	-2.991700	3.162600	-9.460200	26.937199	0.000276	20.780545
2356.654476	-3.005000	3.160900	-9.497800	26.966653	0.000277	20.785982
2357.653418	-3.016100	3.159600	-9.529000	26.960052	0.000274	20.780292
2358.653706	-2.989200	3.160500	-9.446700	26.960223	0.000276	20.788999
2359.652270	-3.006900	3.159600	-9.499600	26.951313	0.000277	20.809911
2360.653126	-2.997700	3.158300	-9.466500	26.986094	0.000274	20.806480
2361.655731	-2.989600	3.158000	-9.439800	26.980956	0.000277	20.804632
2362.656173	-2.980100	3.157400	-9.408000	26.974502	0.000274	20.796245
2363.654341	-2.990700	3.157300	-9.441000	26.975494	0.000276	20.794398
2364.654519	-2.990100	3.156000	-9.434500	26.942302	0.000275	20.814600
2365.653791	-2.993400	3.154600	-9.441600	26.940067	0.000275	20.806189
2366.656152	-2.983000	3.155600	-9.412200	26.930710	0.000272	20.810530
2367.656477	-3.002900	3.154800	-9.472200	26.884873	0.000273	20.799052
2368.656836	-3.007000	3.153500	-9.482100	26.825204	0.000273	20.807808
2369.661445	-2.994800	3.152400	-9.439700	26.791568	0.000273	20.798171
2370.656011	-3.002100	3.151900	-9.461300	26.733609	0.000275	20.811022
2371.659243	-2.993100	3.151400	-9.431900	26.694936	0.000275	20.804858
2372.663286	-2.986300	3.151500	-9.409500	26.730804	0.000273	20.811521
2373.659539	-3.012400	3.149600	-9.486000	26.737351	0.000274	20.806723
2374.657772	-2.969100	3.150400	-9.352900	26.759443	0.000274	20.813761
2375.661636	-2.991200	3.148600	-9.416800	26.782325	0.000271	20.805947
2376.661109	-3.005900	3.147900	-9.461500	26.820628	0.000272	20.797992
2377.657685	-3.003000	3.145900	-9.446500	26.825141	0.000273	20.821021
2378.662110	-3.007200	3.145000	-9.455900	26.848022	0.000272	20.820319
2379.657466	-3.010100	3.145300	-9.466800	26.890137	0.000272	20.812880
2380.657154	-2.983200	3.144600	-9.379400	26.911105	0.000272	20.796032
2381.663490	-3.003000	3.144400	-9.440500	26.918870	0.000272	20.813797
2382.661240	-2.976900	3.144200	-9.358300	26.897528	0.000271	20.826476
2383.660340	-2.980200	3.142500	-9.364100	26.905545	0.000271	20.832640
2384.662159	-2.995000	3.140200	-9.404000	26.949041	0.000271	20.836075
2385.662232	-2.967700	3.141600	-9.321700	26.955765	0.000274	20.812965
2386.662078	-3.003900	3.139700	-9.431000	27.006003	0.000271	20.836932
2387.662699	-3.008000	3.138300	-9.439200	26.979592	0.000271	20.825545
2388.661234	-3.002100	3.137700	-9.418100	27.012775	0.000271	20.837578
2389.665179	-3.019100	3.136500	-9.468500	26.999646	0.000270	20.824850
2390.662493	-2.977800	3.137300	-9.341500	27.011207	0.000274	20.822251
2391.667463	-3.018800	3.135100	-9.462500	26.968593	0.000271	20.830132
2392.667290	-3.001800	3.135400	-9.409700	26.995274	0.000271	20.818082
2393.664441	-3.002800	3.134700	-9.412200	26.993063	0.000270	20.845256
2394.664661	-2.989500	3.132500	-9.363700	27.053641	0.000270	20.818458
2395.663004	-2.992100	3.132200	-9.371200	27.072493	0.000269	20.822244
2396.663255	-2.994200	3.132300	-9.376600	27.107356	0.000271	20.797090
2397.664327	-3.018300	3.130400	-9.447500	27.086263	0.000268	20.828981
2398.665372	-3.001300	3.130800	-9.395900	27.119216	0.000266	20.812810
2399.666057	-3.003200	3.129100	-9.395700	27.142139	0.000268	20.828278
2400.665511	-2.992600	3.129400	-9.363900	27.137106	0.000266	20.823217
2401.665786	-2.987800	3.127600	-9.343600	27.095343	0.000266	20.827681
2402.666362	-3.009700	3.126200	-9.407200	27.037670	0.000267	20.814725
2403.669743	-3.004800	3.125900	-9.392000	27.027224	0.000268	20.839781
2404.671921	-3.018800	3.124900	-9.432100	27.026648	0.000269	20.852951
2405.667895	-3.010400	3.123700	-9.402700	27.011738	0.000268	20.833216
2406.666606	-2.998500	3.123300	-9.364600	27.012430	0.000267	20.852403
2407.667387	-2.988500	3.122100	-9.328900	27.012032	0.000266	20.833512
2408.675576	-3.019300	3.120800	-9.422400	27.002700	0.000267	20.856843
2409.669806	-3.021000	3.121000	-9.427800	27.018357	0.000267	20.823751
2410.673176	-2.995000	3.121200	-9.347300	27.055279	0.000266	20.847132
2411.669510	-2.991900	3.119100	-9.331200	27.081975	0.000265	20.855961
2412.670386	-2.972900	3.118500	-9.269800	27.116392	0.000267	20.852168
2413.673174	-3.016500	3.115700	-9.397200	27.109215	0.000265	20.837365
2414.671719	-2.978200	3.116100	-9.279200	27.073580	0.000263	20.847518
2415.674142	-2.998200	3.114100	-9.336000	27.102566	0.000265	20.843954
2416.675282	-2.989900	3.114200	-9.309900	27.107954	0.000266	20.838468
2417.674363	-2.992100	3.113900	-9.315900	27.096933	0.000264	20.861995
2418.672219	-2.999900	3.113300	-9.338800	27.137900	0.000267	20.853886
2419.674267	-3.007500	3.111800	-9.357900	27.163026	0.000265	20.849285
2420.672741	-2.990100	3.111800	-9.303500	27.196553	0.000265	20.838436
2421.671556	-2.992400	3.110100	-9.305800	27.248473	0.000265	20.870270
2422.671293	-2.978500	3.110800	-9.265300	27.183793	0.000267	20.871120
2423.675635	-3.003400	3.108300	-9.335000	27.184638	0.000265	20.848263
2424.674211	-2.994700	3.108200	-9.307200	27.147567	0.000265	20.856970
2425.671338	-3.001300	3.105900	-9.321200	27.175203	0.000266	20.869118
2426.675889	-2.993700	3.106500	-9.298600	27.224083	0.000264	20.853324
2427.674004	-3.003600	3.103100	-9.320200	27.221003	0.000265	20.868244
2428.673356	-3.012700	3.103300	-9.348300	27.248693	0.000264	20.873810
2429.673551	-3.011800	3.102900	-9.344800	27.268412	0.000265	20.848127
2430.672536	-3.013700	3.101000	-9.344600	27.257221	0.000265	20.871956
2431.674162	-2.977600	3.101900	-9.235800	27.221835	0.000265	20.872399
2432.674506	-3.001200	3.100000	-9.302900	27.198289	0.000266	20.867208
2433.675179	-2.996900	3.098400	-9.284500	27.187397	0.000265	20.870004
2434.676954	-2.998100	3.098200	-9.288100	27.214048	0.000263	20.870730
2435.677347	-2.996900	3.098200	-9.284300	27.240537	0.000262	20.863236
2436.678118	-3.000000	3.096800	-9.289200	27.255769	0.000264	20.874763
2437.678986	-2.987500	3.095100	-9.246100	27.264149	0.000265	20.855218
2438.675797	-3.007000	3.094600	-9.304700	27.253454	0.000263	20.869116
2439.683592	-3.025600	3.092000	-9.353600	27.235663	0.000263	20.872083
2440.677711	-2.998000	3.092300	-9.270000	27.243775	0.000265	20.884035
2441.675603	-2.999600	3.091000	-9.270800	27.271391	0.000263	20.878148
2442.679284	-3.026100	3.089500	-9.347700	27.305966	0.000263	20.867409
2443.679753	-2.975000	3.091300	-9.195200	27.317945	0.000265	20.850063
2444.677045	-2.996300	3.088600	-9.253000	27.318068	0.000264	20.868677
2445.678826	-2.995700	3.088400	-9.249600	27.299513	0.000263	20.870401
2446.681004	-2.991200	3.086800	-9.231900	27.278197	0.000264	20.878830
2447.678153	-3.004500	3.085000	-9.266700	27.245836	0.000262	20.868091
2448.680285	-3.011100	3.083300	-9.283300	27.219713	0.000263	20.866946
2449.677806	-2.967700	3.083200	-9.149400	27.193259	0.000264	20.873054
2450.676843	-3.003300	3.082200	-9.255900	27.186292	0.000262	20.861780
2451.679278	-2.990300	3.081400	-9.212500	27.200826	0.000263	20.877820
2452.676064	-2.998900	3.079200	-9.233800	27.167924	0.000262	20.868435
2453.679554	-3.011700	3.078600	-9.270500	27.143459	0.000263	20.884131
2454.678295	-3.005200	3.078200	-9.249800	27.107922	0.000262	20.874469
2455.682090	-3.004900	3.077700	-9.246800	27.128342	0.000263	20.844273
2456.679344	-2.989300	3.076900	-9.196700	27.147695	0.000263	20.878434
2457.679358	-3.016400	3.074600	-9.273700	27.155807	0.000264	20.852930
2458.679955	-2.997400	3.073900	-9.212200	27.201406	0.000262	20.844740
2459.677928	-3.029700	3.071700	-9.305100	27.207394	0.000263	20.849341
2460.678442	-3.016100	3.071500	-9.262700	27.214783	0.000263	20.854402
2461.680208	-2.997300	3.070500	-9.202600	27.204535	0.000262	20.856421
2462.679448	-2.960600	3.070700	-9.089900	27.173844	0.000261	20.845941
2463.678710	-3.012600	3.068500	-9.243100	27.215995	0.000261	20.863207
2464.681910	-3.000600	3.067100	-9.202300	27.239363	0.000263	20.843090
2465.680364	-3.012300	3.066300	-9.235800	27.262688	0.000263	20.844740
2466.683391	-3.012400	3.065500	-9.233300	27.281683	0.000261	20.850096
2467.685979	-2.983400	3.065200	-9.144200	27.242069	0.000261	20.850079
2468.681207	-3.013500	3.062600	-9.228400	27.234129	0.000261	20.846359
2469.680271	-2.999500	3.061500	-9.183200	27.221450	0.000261	20.853521
2470.680559	-2.988700	3.061300	-9.147500	27.234747	0.000263	20.853619
2471.689093	-3.014000	3.059600	-9.220200	27.255561	0.000262	20.850848
2472.681849	-2.999800	3.058400	-9.173800	27.235023	0.000262	20.848207
2473.681493	-3.001000	3.058000	-9.176200	27.184973	0.000262	20.855712
2474.688423	-3.000100	3.056600	-9.169100	27.158525	0.000262	20.856137
2475.686949	-3.001000	3.056700	-9.172000	27.125126	0.000262	20.821599
2476.683253	-2.996200	3.054300	-9.150100	27.151526	0.000260	20.844358
2477.686097	-3.016600	3.052300	-9.207000	27.190575	0.000260	20.844277
2478.687817	-3.029200	3.050200	-9.238100	27.188242	0.000262	20.839086
2479.686232	-3.019300	3.049900	-9.207300	27.177871	0.000261	20.831500
2480.688016	-3.000600	3.049300	-9.148300	27.195295	0.000260	20.833853
2481.685278	-3.016500	3.048600	-9.194900	27.208586	0.000259	20.820669
2482.685774	-3.017900	3.048000	-9.197300	27.207650	0.000260	20.826839
2483.685753	-2.996300	3.046000	-9.125500	27.251710	0.000258	20.830854
2484.686618	-3.004500	3.044500	-9.146600	27.263746	0.000260	20.826839
2485.689038	-2.989800	3.045100	-9.103800	27.279944	0.000259	20.829856
2486.686231	-3.025200	3.041400	-9.198900	27.325042	0.000259	20.843926
2487.690526	-2.986200	3.044000	-9.088900	27.326879	0.000259	20.806894
2488.689264	-3.016800	3.039100	-9.167300	27.359328	0.000260	20.846648
2489.690359	-3.005100	3.038700	-9.130400	27.381823	0.000259	20.852682
2490.689842	-2.985300	3.037900	-9.068500	27.405268	0.000258	20.826007
2491.686282	-3.009200	3.035900	-9.134800	27.419652	0.000260	20.814400
2492.686437	-3.019900	3.035600	-9.166200	27.453181	0.000260	20.835329
2493.688734	-3.024800	3.033200	-9.174100	27.413622	0.000258	20.796006
2494.692310	-2.968200	3.034700	-9.006200	27.418207	0.000258	20.815317
2495.689353	-2.994600	3.032300	-9.079900	27.438277	0.000260	20.818913
2496.691403	-3.005500	3.030500	-9.106700	27.473680	0.000259	20.819443
2497.691382	-3.011000	3.030400	-9.123500	27.482799	0.000257	20.816289
2498.688902	-2.989200	3.028100	-9.050200	27.494410	0.000259	20.820385
2499.693982	-2.996000	3.027400	-9.069100	27.527099	0.000257	20.813919
2500.694234	-3.023100	3.023100	-9.138300	27.491307	0.000258	20.809676
2501.692902	-2.987600	3.025700	-9.038300	27.440487	0.000258	20.824929
2502.690194	-2.984800	3.025200	-9.028500	27.442341	0.000259	20.807354
2503.695022	-3.015100	3.020600	-9.106400	27.474567	0.000259	20.824603
2504.692770	-2.995800	3.021300	-9.049800	27.477371	0.000257	20.815569
2505.691111	-2.966600	3.020800	-8.960300	27.530025	0.000259	20.812121
2506.693151	-2.993000	3.018900	-9.034600	27.529927	0.000260	20.809177
2507.694222	-2.997400	3.017700	-9.044300	27.534290	0.000257	20.833007
2508.694773	-2.958800	3.016700	-8.924500	27.559910	0.000256	20.822274
2509.695050	-3.007100	3.014100	-9.062500	27.546763	0.000258	20.816634
2510.691504	-2.987800	3.014000	-9.004200	27.526977	0.000257	20.795304
2511.695024	-3.022700	3.012400	-9.105100	27.487041	0.000257	20.824824
2512.691183	-3.001100	3.011200	-9.035600	27.489299	0.000258	20.819036
2513.692284	-2.995800	3.011000	-9.019700	27.439709	0.000259	20.805181
2514.695937	-3.010700	3.009000	-9.058300	27.427755	0.000260	20.795051
2515.696197	-2.975700	3.008400	-8.951000	27.401263	0.000257	20.800168
2516.696197	-3.000500	3.005800	-9.018300	27.369415	0.000257	20.812700
2517.695058	-2.996000	3.004500	-9.001000	27.331114	0.000257	20.787921
2518.693320	-2.972700	3.004900	-8.931400	27.333709	0.000257	20.800962
2519.693209	-2.982600	3.003000	-8.955100	27.328922	0.000258	20.794250
2520.693839	-3.001300	3.002200	-9.009900	27.361078	0.000259	20.795304
2521.694734	-3.011200	2.999200	-9.030500	27.360729	0.000258	20.816764
2522.697177	-3.018600	2.999300	-9.052000	27.388538	0.000256	20.820557
2523.697411	-3.012600	2.997900	-9.030900	27.417246	0.000255	20.777841
2524.695419	-2.982600	2.996800	-8.937500	27.413193	0.000257	20.796049
2525.699849	-3.017500	2.995200	-9.036900	27.420661	0.000257	20.797871
2526.697162	-2.985400	2.994100	-8.937600	27.432419	0.000258	20.820606
2527.697674	-2.986500	2.993100	-8.936700	27.475308	0.000258	20.790735
2528.700783	-2.991100	2.992300	-8.949800	27.505323	0.000259	20.807656
2529.698117	-2.991900	2.989900	-8.945200	27.526310	0.000255	20.787046
2530.698196	-3.024500	2.988100	-9.036200	27.526261	0.000257	20.790790
2531.701493	-3.015100	2.987000	-9.005200	27.478086	0.000257	20.784047
2532.698106	-2.981300	2.987500	-8.906500	27.474243	0.000257	20.803414
2533.698250	-2.988800	2.985000	-8.920200	27.472235	0.000254	20.817041
2534.705878	-3.007100	2.982400	-8.967500	27.487341	0.000256	20.806634
2535.706007	-3.011800	2.982400	-8.981400	27.508946	0.000256	20.806560
2536.703499	-2.992000	2.981600	-8.920200	27.526781	0.000258	20.797952
2537.708365	-2.987900	2.979300	-8.901600	27.547272	0.000256	20.808137
2538.703141	-2.999300	2.977400	-8.928700	27.525612	0.000259	20.782077
2539.704032	-2.984800	2.976200	-8.883000	27.547192	0.000257	20.787668
2540.703119	-3.015700	2.975000	-8.969800	27.565669	0.000258	20.787292
2541.705856	-2.998300	2.974400	-8.917800	27.580773	0.000256	20.803438
2542.703837	-3.016300	2.972400	-8.964600	27.588607	0.000257	20.802311
2543.705322	-2.991800	2.970900	-8.887400	27.606716	0.000256	20.791135
2544.706090	-2.985300	2.969200	-8.862600	27.594935	0.000254	20.803937
2545.707212	-3.015600	2.967800	-8.949200	27.602273	0.000256	20.798044
2546.706102	-3.011600	2.966700	-8.933400	27.594415	0.000257	20.796301
2547.706562	-3.015000	2.966400	-8.942700	27.557162	0.000258	20.800070
2548.705824	-2.997200	2.964100	-8.883400	27.569855	0.000256	20.779650
2549.704387	-2.998800	2.962400	-8.882700	27.572284	0.000257	20.776405
2550.706611	-3.014800	2.960500	-8.923600	27.558220	0.000257	20.769366
2551.705547	-2.979600	2.961100	-8.821300	27.566036	0.000255	20.788610
2552.705396	-2.979300	2.959600	-8.816100	27.581691	0.000256	20.773542
2553.707443	-2.989200	2.956400	-8.836700	27.601568	0.000256	20.794490
2554.708179	-3.005100	2.955200	-8.880300	27.624114	0.000256	20.776872
2555.710039	-3.017900	2.953200	-8.911900	27.568190	0.000258	20.778449
2556.707960	-3.004400	2.951800	-8.867400	27.520390	0.000257	20.782987
2557.708452	-3.015000	2.949800	-8.892700	27.494537	0.000256	20.777838
2558.704316	-3.001700	2.948500	-8.849800	27.485662	0.000255	20.764642
2559.706535	-3.046600	2.947000	-8.976800	27.531621	0.000254	20.781484
2560.709071	-2.992400	2.946300	-8.815900	27.534424	0.000256	20.796158
2561.709547	-2.982800	2.944700	-8.782400	27.530783	0.000255	20.771158
2562.706886	-3.006400	2.943200	-8.847100	27.492658	0.000256	20.799656
2563.712706	-3.016200	2.941000	-8.869700	27.493594	0.000257	20.768829
2564.707907	-2.995600	2.940600	-8.807300	27.484567	0.000256	20.785825
2565.707888	-3.013400	2.937300	-8.850700	27.489604	0.000256	20.769082
2566.715076	-2.988700	2.937500	-8.778400	27.523065	0.000256	20.774298
2567.712168	-3.015900	2.934400	-8.849300	27.541866	0.000255	20.795586
2568.710314	-2.993500	2.933800	-8.781300	27.594444	0.000258	20.784002
2569.710170	-2.996400	2.933200	-8.788300	27.589211	0.000257	20.764038
2570.710766	-3.001600	2.930300	-8.794700	27.619548	0.000256	20.742880
2571.708755	-2.986200	2.928500	-8.743900	27.618379	0.000257	20.774421
2572.711875	-3.014100	2.926900	-8.821000	27.609597	0.000258	20.764161
2573.711823	-2.983600	2.925700	-8.727800	27.598961	0.000256	20.776219
2574.710601	-2.998700	2.924500	-8.768500	27.611457	0.000255	20.771723
2575.718860	-2.995300	2.922600	-8.753000	27.629321	0.000255	20.776423
2576.712541	-3.004300	2.920500	-8.772900	27.642858	0.000256	20.782931
2577.713264	-3.007300	2.918500	-8.775200	27.559652	0.000256	20.763220
2578.712333	-2.983000	2.918100	-8.703700	27.565545	0.000255	20.778158
2579.718704	-3.001000	2.915200	-8.747600	27.586653	0.000258	20.751506
2580.712975	-2.984000	2.914900	-8.696600	27.619119	0.000254	20.768053
2581.715644	-2.998600	2.912800	-8.732200	27.572327	0.000256	20.774076
2582.715237	-3.008200	2.909900	-8.752700	27.571053	0.000256	20.792235
2583.713969	-3.022500	2.909000	-8.790500	27.549798	0.000256	20.771323
2584.713250	-2.987900	2.908600	-8.689100	27.576983	0.000256	20.767856
2585.719198	-2.996000	2.905600	-8.704300	27.591163	0.000256	20.779753
2586.712279	-2.994600	2.903900	-8.695900	27.602797	0.000258	20.766329
2587.716399	-3.013300	2.901100	-8.741000	27.643500	0.000254	20.764611
2588.714505	-3.003200	2.899600	-8.706500	27.660960	0.000256	20.768429
2589.712871	-2.992800	2.897400	-8.670900	27.698478	0.000255	20.738851
2590.715973	-2.994300	2.898000	-8.676100	27.670775	0.000256	20.768348
2591.714019	-2.981900	2.895000	-8.632200	27.696440	0.000258	20.751974
2592.713883	-2.985600	2.894800	-8.641300	27.684262	0.000258	20.771014
2593.712197	-2.987500	2.892400	-8.640400	27.715514	0.000256	20.766901
2594.711711	-2.999100	2.888600	-8.662500	27.735726	0.000257	20.776335
2595.711784	-3.013100	2.886300	-8.695800	27.740235	0.000258	20.748630
2596.717235	-3.008600	2.887000	-8.684300	27.757546	0.000257	20.748507
2597.712442	-3.001600	2.884300	-8.656200	27.714638	0.000257	20.756062
2598.714138	-2.997300	2.882300	-8.637800	27.702883	0.000258	20.758932
2599.714311	-3.003600	2.879300	-8.647100	27.745760	0.000258	20.761303
2600.719058	-3.003300	2.877500	-8.640100	27.772892	0.000257	20.776279
2601.717086	-2.999700	2.875200	-8.624100	27.771552	0.000257	20.762602
2602.721772	-3.002000	2.873800	-8.626300	27.743160	0.000257	20.752996
2603.722457	-2.975300	2.873500	-8.548100	27.735883	0.000257	20.758002
2604.714777	-3.020900	2.870600	-8.669900	27.736826	0.000257	20.755631
2605.720485	-3.033000	2.865400	-8.689300	27.718303	0.000256	20.760699
2606.716332	-2.999500	2.866100	-8.595800	27.698482	0.000258	20.763987
2607.716656	-3.010500	2.863500	-8.619500	27.684224	0.000256	20.743949
2608.722207	-3.004300	2.862600	-8.599400	27.700049	0.000255	20.742804
2609.717012	-3.007100	2.858500	-8.595400	27.728460	0.000256	20.766179
2610.716158	-2.955500	2.859600	-8.449900	27.762629	0.000258	20.727543
2611.717364	-3.007100	2.855700	-8.586100	27.791921	0.000257	20.765557
2612.718723	-2.968700	2.854600	-8.473400	27.849528	0.000254	20.752410
2613.719062	-2.982300	2.852700	-8.505500	27.883889	0.000256	20.752853
2614.717316	-2.988200	2.849800	-8.515000	27.901693	0.000256	20.748487
2615.722122	-2.977300	2.848900	-8.480800	27.937723	0.000255	20.742551
2616.720402	-2.978500	2.845700	-8.474300	27.949151	0.000255	20.752632
2617.722439	-2.984000	2.843100	-8.482900	27.962310	0.000254	20.746436
2618.720192	-2.988800	2.840500	-8.489000	27.987876	0.000256	20.745617
2619.722227	-2.991300	2.838900	-8.490100	27.998380	0.000253	20.762828
2620.722359	-2.989500	2.837000	-8.481000	27.971285	0.000255	20.773488
2621.723226	-3.009600	2.833800	-8.527600	27.948453	0.000255	20.754774
2622.721278	-3.002100	2.832300	-8.501400	27.949420	0.000254	20.761437
2623.720905	-3.005000	2.829400	-8.501800	27.943400	0.000255	20.761542
2624.728973	-3.015900	2.826900	-8.524300	27.922843	0.000252	20.759344
2625.723667	-3.015900	2.824400	-8.517400	27.889622	0.000253	20.738708
2626.723509	-3.009700	2.821500	-8.490400	27.898671	0.000254	20.723633
2627.724471	-3.015800	2.820800	-8.504900	27.921503	0.000255	20.726699
2628.726092	-2.984100	2.819400	-8.412400	27.913679	0.000254	20.733524
2629.724466	-2.992900	2.815700	-8.426100	27.909586	0.000256	20.730826
2630.729503	-2.992100	2.813100	-8.415000	27.863815	0.000254	20.738339
2631.727278	-3.015100	2.811800	-8.476900	27.861288	0.000254	20.742909
2632.730523	-3.042200	2.807000	-8.538100	27.870906	0.000256	20.742631
2633.729531	-3.029500	2.806000	-8.499900	27.896762	0.000256	20.729773
2634.733352	-2.977800	2.803400	-8.347400	27.929574	0.000256	20.735297
2635.730679	-2.961900	2.801100	-8.295300	27.963143	0.000256	20.720721
2636.731766	-2.995900	2.798000	-8.380900	27.954541	0.000255	20.741462
2637.732657	-3.066300	2.794300	-8.566500	27.972864	0.000254	20.734774
2638.728318	-2.990300	2.793000	-8.350800	27.983112	0.000256	20.734183
2639.729039	-3.005000	2.790400	-8.383700	27.972938	0.000254	20.730580
2640.729186	-3.014200	2.787000	-8.398900	27.995775	0.000256	20.736024
2641.728927	-2.989500	2.786700	-8.330000	28.009265	0.000254	20.735378
2642.728999	-3.002000	2.782700	-8.352800	28.021586	0.000254	20.727865
2643.729307	-2.996500	2.779700	-8.328800	28.025305	0.000254	20.729712
2644.731833	-3.014100	2.777200	-8.370100	28.011865	0.000254	20.724243
2645.732756	-3.018000	2.772800	-8.368000	28.012562	0.000253	20.716885
2646.731639	-2.997100	2.769300	-8.299000	28.030218	0.000252	20.703361
2647.729988	-2.990800	2.768000	-8.277200	28.051903	0.000253	20.711440
2648.732778	-2.984900	2.766100	-8.255700	28.068689	0.000253	20.720752
2649.733634	-2.993900	2.762100	-8.268300	28.052381	0.000254	20.706705
2650.737615	-3.006000	2.758500	-8.290600	28.060957	0.000254	20.721029
2651.738893	-2.985200	2.755900	-8.226200	28.045009	0.000252	20.714458
2652.735746	-3.012000	2.750800	-8.284300	28.028162	0.000254	20.711725
2653.739389	-2.999200	2.750300	-8.247600	28.007687	0.000255	20.717667
2654.736942	-3.008200	2.745700	-8.258900	27.984972	0.000255	20.724201
2655.736131	-2.998600	2.741300	-8.218900	27.994442	0.000253	20.719983
2656.734903	-2.986600	2.738100	-8.176700	28.015982	0.000253	20.720801
2657.736798	-2.984600	2.736000	-8.165400	28.027294	0.000255	20.721282
2658.733857	-3.010000	2.731200	-8.219100	28.063124	0.000253	20.715149
2659.737334	-2.991800	2.727800	-8.160400	28.102812	0.000253	20.704366
2660.738569	-2.997200	2.725000	-8.166200	28.119621	0.000256	20.711331
2661.737631	-3.002500	2.721300	-8.169800	28.084815	0.000253	20.700948
2662.738561	-3.024100	2.716200	-8.212100	28.078667	0.000253	20.717046
2663.738937	-3.008600	2.713900	-8.164700	28.032109	0.000254	20.700997
2664.739094	-3.004000	2.711600	-8.144500	27.987041	0.000255	20.708264
2665.736603	-2.992700	2.706700	-8.099500	27.946553	0.000254	20.711134
2666.738666	-3.049400	2.700700	-8.232900	27.928352	0.000253	20.713203
2667.738166	-3.005900	2.699500	-8.111500	27.910101	0.000255	20.710955
2668.738585	-3.015900	2.696000	-8.130200	27.902117	0.000256	20.710980
2669.738991	-3.014400	2.692400	-8.114300	27.871397	0.000254	20.689543
2670.738454	-3.029100	2.687600	-8.139200	27.922521	0.000255	20.700695
2671.737595	-2.995800	2.684500	-8.041900	27.999104	0.000253	20.710450
2672.739649	-3.010400	2.680600	-8.068100	28.038630	0.000255	20.713726
2673.741574	-2.986500	2.677000	-7.994000	28.024743	0.000255	20.707334
2674.736616	-3.027500	2.671100	-8.086100	28.037541	0.000256	20.715001
2675.739665	-2.973900	2.668900	-7.935600	28.069387	0.000255	20.701064
2676.741448	-3.000600	2.663800	-7.992600	28.111527	0.000254	20.692750
2677.738091	-3.019400	2.658800	-8.027100	28.143336	0.000256	20.713867
2678.735551	-3.032000	2.652800	-8.042800	28.158212	0.000253	20.725051
2679.742143	-2.990800	2.650800	-7.926700	28.188672	0.000255	20.699765
2680.738868	-2.998700	2.646300	-7.934200	28.219756	0.000254	20.707826
2681.739167	-2.983300	2.642200	-7.880600	28.272704	0.000253	20.697123
2682.741386	-3.005800	2.635900	-7.921400	28.274062	0.000252	20.713664
2683.738297	-3.037200	2.631100	-7.990100	28.265260	0.000254	20.701957
2684.739526	-2.995100	2.628700	-7.872100	28.294629	0.000255	20.694542
2685.742999	-2.989900	2.622300	-7.838000	28.263279	0.000254	20.699487
2686.742052	-3.001500	2.618300	-7.857700	28.242104	0.000254	20.692866
2687.740129	-2.996800	2.612900	-7.830100	28.182016	0.000255	20.715824
2688.741418	-3.014300	2.607800	-7.860000	28.125271	0.000256	20.702319
2689.745304	-3.013500	2.603200	-7.843800	28.088655	0.000255	20.694855
2690.740663	-2.994600	2.598000	-7.777700	28.050379	0.000254	20.699474
2691.747357	-3.020400	2.591200	-7.825400	28.038272	0.000256	20.701037
2692.739879	-3.017400	2.585600	-7.800900	28.077001	0.000254	20.698772
2693.743920	-2.984300	2.580600	-7.700300	28.035770	0.000256	20.697570
2694.742695	-3.007400	2.575000	-7.743300	28.011538	0.000257	20.694041
2695.744114	-3.025600	2.569000	-7.772200	27.984241	0.000255	20.702601
2696.743293	-3.016300	2.562700	-7.728900	27.961801	0.000254	20.697557
2697.744831	-3.005400	2.557500	-7.685700	27.960094	0.000254	20.707220
2698.744295	-3.012300	2.552600	-7.689100	27.954208	0.000256	20.694182
2699.743938	-3.000600	2.546600	-7.640700	28.022164	0.000256	20.720860
2700.746494	-3.007600	2.540200	-7.638000	28.046064	0.000255	20.688491
2701.744734	-2.987500	2.535000	-7.572100	28.082927	0.000254	20.709005
2702.746245	-2.973600	2.529100	-7.519000	28.134933	0.000256	20.699244
2703.748396	-2.993600	2.521900	-7.548800	28.203250	0.000254	20.703062
2704.742854	-2.989700	2.515900	-7.521200	28.285660	0.000257	20.701633
2705.747518	-3.019600	2.508100	-7.573300	28.291060	0.000254	20.698061
2706.749245	-2.994600	2.502600	-7.493400	28.345515	0.000256	20.704053
2707.742926	-2.987400	2.496500	-7.457400	28.339215	0.000257	20.696761
