LabVIEW Measurement	
Writer_Version	2
Reader_Version	2
Separator	Tab
Decimal_Separator	.
Multi_Headings	No
X_Columns	One
Time_Pref	Absolute
Operator	admin
Description	Clolumns are: time, Current, Voltage, Power, Battery Temp, and Chamber Temp
Date	2024/08/16
Time	13:06:06.104549407958984375
***End_of_Header***	
	
Channels	6						
Samples	1	1	1	1	1	1	
Date	2024/09/09	2024/09/09	2024/09/09	2024/09/09	2024/09/09	2024/09/09	
Time	00:10:04.1654520034790039062	00:10:04.1744031906127929687	00:10:04.1809945106506347656	00:10:04.1464009284973144531	00:10:04.1464009284973144531	00:10:04.1464009284973144531	
X_Dimension	Time	Time	Time	Time	Time	Time	
X0	0.0000000000000000E+0	0.0000000000000000E+0	0.0000000000000000E+0	0.0000000000000000E+0	0.0000000000000000E+0	0.0000000000000000E+0	
Delta_X	1.000000	1.000000	1.000000	1.000000	1.000000	1.000000	
***End_of_Header***							
X_Value	Untitled	Untitled 1	Untitled 2	Untitled 3	Untitled 4	Untitled 5	Comment
0.000000	0.020990	4.096900	0.086009	21.013194	0.000902	20.707856
0.997258	-2.988000	3.923900	-11.724000	20.994845	0.000903	20.700882
2.003004	-3.014900	3.915900	-11.805000	21.019897	0.000902	20.688480
2.997705	-3.006400	3.911700	-11.759000	21.013611	0.000898	20.705902
4.000609	-2.991800	3.907100	-11.688000	21.009451	0.000900	20.698895
4.999691	-2.981600	3.904400	-11.640000	21.004277	0.000897	20.711740
6.002063	-2.992500	3.900800	-11.671000	20.986042	0.000897	20.711045
7.003207	-3.019700	3.897800	-11.769000	21.019447	0.000893	20.706524
8.002942	-3.017400	3.895700	-11.754000	21.023689	0.000894	20.721199
9.002538	-2.983300	3.896400	-11.623000	21.022365	0.000895	20.713236
10.002435	-2.988300	3.892300	-11.629000	21.016750	0.000894	20.706671
11.002047	-2.992200	3.891300	-11.642000	21.017207	0.000892	20.690532
12.003343	-2.992100	3.889200	-11.636000	21.012066	0.000891	20.709099
13.005493	-2.990700	3.889600	-11.631000	21.026092	0.000891	20.685193
14.011190	-2.983000	3.886900	-11.594000	21.019104	0.000890	20.706654
15.002958	-3.003600	3.885400	-11.669000	21.042864	0.000890	20.721411
16.005630	-3.006500	3.884100	-11.677000	21.046305	0.000890	20.703515
17.012167	-3.013900	3.881800	-11.699000	21.042218	0.000889	20.690891
18.003251	-2.992300	3.883000	-11.618000	21.070211	0.000890	20.708461
19.003503	-2.988500	3.882500	-11.602000	21.055450	0.000887	20.689902
20.005011	-3.010900	3.879800	-11.680000	21.057494	0.000888	20.698584
21.004596	-2.984200	3.881100	-11.581000	21.074984	0.000887	20.709916
22.004775	-3.001300	3.880000	-11.645000	21.083468	0.000889	20.722196
23.008042	-2.998700	3.878300	-11.629000	21.088110	0.000885	20.705501
24.005542	-2.998200	3.877900	-11.626000	21.072605	0.000887	20.701372
25.005319	-2.995400	3.876200	-11.610000	21.064514	0.000886	20.707978
26.008121	-2.996600	3.877400	-11.618000	21.101889	0.000885	20.694627
27.006255	-3.002300	3.875600	-11.635000	21.081661	0.000884	20.696679
28.008333	-2.996400	3.874400	-11.608000	21.126048	0.000885	20.723536
29.011733	-3.025900	3.872000	-11.716000	21.118921	0.000884	20.710242
30.010293	-2.997600	3.872900	-11.608000	21.135463	0.000882	20.718254
31.008145	-3.009300	3.872000	-11.651000	21.139802	0.000881	20.700309
32.008629	-3.008700	3.872300	-11.650000	21.137776	0.000884	20.725784
33.013969	-3.008900	3.871500	-11.648000	21.146643	0.000882	20.698142
34.014699	-2.997100	3.870100	-11.599000	21.129930	0.000881	20.715090
35.012070	-3.010000	3.870600	-11.650000	21.155404	0.000881	20.718761
36.015360	-3.025800	3.868600	-11.704000	21.163764	0.000882	20.698673
37.014918	-3.010300	3.869200	-11.646000	21.161868	0.000881	20.695828
38.011955	-3.002200	3.869800	-11.617000	21.183329	0.000882	20.696433
39.016837	-3.015700	3.867400	-11.662000	21.174601	0.000880	20.693866
40.012001	-2.998200	3.867900	-11.595000	21.206031	0.000879	20.706342
41.015240	-3.001800	3.867800	-11.609000	21.209602	0.000882	20.717502
42.014187	-2.990200	3.866000	-11.559000	21.215192	0.000878	20.694642
43.011477	-2.981900	3.866500	-11.529000	21.228088	0.000879	20.698534
44.017301	-3.000500	3.866700	-11.600000	21.219205	0.000880	20.713357
45.016757	-2.999600	3.866400	-11.597000	21.222923	0.000880	20.697161
46.018359	-3.008600	3.865500	-11.629000	21.223822	0.000880	20.687628
47.016452	-2.990100	3.865500	-11.557000	21.238449	0.000879	20.702262
48.014661	-3.008000	3.863800	-11.621000	21.250561	0.000880	20.696359
49.022978	-2.990600	3.862700	-11.551000	21.278410	0.000882	20.690554
50.021870	-2.990100	3.864400	-11.553000	21.253567	0.000880	20.695100
51.016171	-3.011500	3.863000	-11.632000	21.258250	0.000880	20.712588
52.018926	-2.978500	3.864700	-11.510000	21.289131	0.000881	20.716929
53.023606	-3.009400	3.862300	-11.622000	21.294222	0.000880	20.714436
54.016628	-3.030700	3.861100	-11.700000	21.298487	0.000879	20.689778
55.025304	-2.987600	3.864300	-11.544000	21.296592	0.000881	20.713487
56.020318	-2.980400	3.862000	-11.508000	21.300759	0.000879	20.726192
57.022590	-3.002200	3.862000	-11.594000	21.302630	0.000879	20.696768
58.022895	-3.005500	3.859000	-11.597000	21.329351	0.000880	20.732986
59.019975	-3.000400	3.859700	-11.581000	21.318025	0.000878	20.719284
60.024147	-3.000600	3.859500	-11.579000	21.344312	0.000878	20.701011
61.022525	-3.001300	3.860000	-11.584000	21.346233	0.000880	20.721426
62.020638	-3.019900	3.859000	-11.651000	21.351102	0.000878	20.701641
63.020291	-3.025000	3.858700	-11.671000	21.364078	0.000878	20.732642
64.020269	-3.014800	3.858300	-11.631000	21.371089	0.000878	20.700774
65.024620	-2.990600	3.859500	-11.541000	21.386802	0.000878	20.712228
66.027978	-3.024000	3.857400	-11.662000	21.392840	0.000879	20.714002
67.028203	-3.004800	3.858800	-11.593000	21.385363	0.000878	20.710789
68.025357	-3.007500	3.859200	-11.606000	21.387782	0.000878	20.706096
69.028029	-3.001900	3.858800	-11.581000	21.407081	0.000878	20.723984
70.025663	-3.007900	3.856800	-11.600000	21.414713	0.000879	20.716921
71.026968	-2.992500	3.857000	-11.542000	21.416061	0.000878	20.728228
72.025025	-2.987300	3.856200	-11.518000	21.424068	0.000878	20.720592
73.024527	-2.989300	3.857400	-11.530000	21.433186	0.000878	20.732086
74.024991	-2.999100	3.856800	-11.565000	21.450720	0.000879	20.699367
75.023708	-3.003300	3.853800	-11.572000	21.456031	0.000880	20.717010
76.026636	-2.984500	3.855800	-11.506000	21.466457	0.000878	20.720330
77.028387	-2.994200	3.855700	-11.544000	21.471228	0.000878	20.718940
78.025153	-3.008900	3.855500	-11.599000	21.482176	0.000878	20.722308
79.024145	-2.984600	3.855100	-11.505000	21.468981	0.000877	20.722382
80.027667	-2.987300	3.854800	-11.515000	21.498533	0.000878	20.721605
81.027330	-3.000700	3.853700	-11.563000	21.496147	0.000878	20.731546
82.030217	-3.013400	3.854300	-11.614000	21.522667	0.000879	20.717778
83.031275	-2.990300	3.853500	-11.522000	21.513835	0.000878	20.745927
84.031959	-3.005200	3.852500	-11.577000	21.529448	0.000877	20.733099
85.030669	-3.019200	3.851500	-11.626000	21.525330	0.000879	20.719495
86.035205	-2.986300	3.852900	-11.505000	21.542029	0.000878	20.738577
87.032116	-2.981600	3.853800	-11.489000	21.527756	0.000879	20.723346
88.034799	-3.006800	3.851600	-11.579000	21.561743	0.000877	20.728905
89.033356	-3.009700	3.853300	-11.596000	21.548663	0.000877	20.727196
90.030660	-3.021300	3.852800	-11.639000	21.575966	0.000882	20.730810
91.034135	-2.988000	3.852800	-11.510000	21.561506	0.000880	20.738152
92.034435	-2.989900	3.850900	-11.513000	21.588710	0.000880	20.721277
93.041967	-3.008500	3.851500	-11.586000	21.581750	0.000880	20.741814
94.034434	-2.991200	3.851400	-11.519000	21.602223	0.000880	20.732903
95.034583	-3.015400	3.851300	-11.612000	21.593130	0.000881	20.735658
96.030644	-2.986000	3.851500	-11.499000	21.596569	0.000881	20.722504
97.033200	-3.009200	3.851000	-11.588000	21.595442	0.000880	20.729437
98.037332	-2.991500	3.850600	-11.518000	21.622948	0.000881	20.729461
99.034379	-3.013900	3.849500	-11.601000	21.630603	0.000879	20.707722
100.035436	-3.004200	3.850500	-11.566000	21.630978	0.000879	20.737498
101.032305	-2.995900	3.850400	-11.534000	21.628748	0.000880	20.734792
102.035087	-2.993300	3.849400	-11.522000	21.664365	0.000883	20.727761
103.038353	-3.002200	3.848300	-11.552000	21.650397	0.000881	20.731800
104.035330	-2.980600	3.848100	-11.469000	21.658500	0.000883	20.734694
105.039879	-3.006200	3.848100	-11.568000	21.673212	0.000884	20.754159
106.037151	-3.014400	3.846600	-11.594000	21.677288	0.000882	20.748755
107.042810	-2.992800	3.847400	-11.514000	21.654056	0.000884	20.733091
108.035631	-3.017300	3.846000	-11.604000	21.679911	0.000882	20.740474
109.040790	-2.990300	3.847500	-11.504000	21.665771	0.000883	20.720632
110.036357	-2.983500	3.847000	-11.476000	21.692720	0.000883	20.746181
111.039089	-3.003200	3.846700	-11.552000	21.712578	0.000883	20.730966
112.039756	-2.992400	3.846700	-11.510000	21.711352	0.000883	20.744439
113.036839	-2.999900	3.845400	-11.534000	21.714563	0.000883	20.743859
114.040087	-3.002700	3.845900	-11.547000	21.726603	0.000882	20.734572
115.042822	-3.014600	3.845000	-11.590000	21.746600	0.000885	20.749369
116.034670	-3.006500	3.844800	-11.558000	21.738717	0.000886	20.748593
117.037426	-3.001700	3.844800	-11.540000	21.755103	0.000886	20.735119
118.038430	-3.009200	3.845200	-11.570000	21.765019	0.000884	20.743622
119.041632	-2.998200	3.845000	-11.528000	21.780980	0.000884	20.753907
120.036973	-2.990000	3.845600	-11.496000	21.783773	0.000885	20.756228
121.040799	-3.010500	3.845000	-11.573000	21.794620	0.000887	20.750015
122.039942	-3.001700	3.844400	-11.538000	21.790104	0.000887	20.753555
123.039100	-2.982300	3.843800	-11.461000	21.820398	0.000886	20.768704
124.044512	-2.981400	3.846800	-11.467000	21.836726	0.000887	20.756596
125.042213	-2.990000	3.845000	-11.494000	21.815980	0.000887	20.765230
126.040746	-3.016900	3.842300	-11.590000	21.832511	0.000887	20.756646
127.046345	-3.013400	3.841600	-11.576000	21.850880	0.000888	20.763652
128.043498	-2.998900	3.843100	-11.524000	21.864349	0.000888	20.738251
129.041105	-3.001400	3.842600	-11.531000	21.862650	0.000888	20.751724
130.043881	-2.983800	3.841600	-11.462000	21.856802	0.000888	20.742077
131.042052	-2.999400	3.842400	-11.522000	21.861801	0.000890	20.774582
132.042932	-3.005900	3.842400	-11.549000	21.896634	0.000889	20.754921
133.042163	-2.997500	3.843200	-11.519000	21.919070	0.000888	20.752247
134.049682	-3.000100	3.842800	-11.528000	21.910421	0.000890	20.749280
135.045751	-3.021500	3.840200	-11.602000	21.934889	0.000890	20.748168
136.044230	-2.987400	3.841600	-11.476000	21.928249	0.000890	20.753850
137.046339	-3.010300	3.840500	-11.560000	21.919478	0.000889	20.778735
138.045805	-2.991600	3.843000	-11.496000	21.920907	0.000892	20.750293
139.044766	-3.019800	3.840900	-11.598000	21.936686	0.000891	20.758501
140.046072	-3.001000	3.840800	-11.524000	21.946184	0.000890	20.764216
141.047786	-2.986600	3.841000	-11.471000	21.949753	0.000892	20.756882
142.051081	-3.018700	3.839200	-11.588000	21.958883	0.000892	20.777876
143.044058	-3.012000	3.838600	-11.560000	21.949377	0.000892	20.765041
144.044790	-2.989200	3.841200	-11.481000	21.981268	0.000893	20.776102
145.050427	-2.973800	3.839300	-11.416000	21.971297	0.000893	20.772759
146.048114	-2.991500	3.839700	-11.486000	21.968087	0.000892	20.781874
147.046138	-3.007900	3.839900	-11.549000	21.969851	0.000894	20.768941
148.049749	-3.016400	3.837800	-11.575000	21.990888	0.000895	20.750170
149.050612	-3.001000	3.839200	-11.520000	22.000819	0.000895	20.781923
150.045834	-3.003500	3.837500	-11.525000	22.010439	0.000895	20.765000
151.056375	-2.999500	3.837100	-11.509000	21.996597	0.000896	20.774852
152.061841	-3.011200	3.836700	-11.552000	22.041594	0.000896	20.762523
153.054133	-3.020300	3.837500	-11.588000	22.033378	0.000897	20.790335
154.049813	-3.013400	3.836400	-11.560000	22.036065	0.000897	20.765523
155.049435	-2.987900	3.836200	-11.461000	22.053867	0.000896	20.768172
156.055777	-3.021400	3.836800	-11.592000	22.060400	0.000897	20.766652
157.058681	-3.013500	3.836200	-11.559000	22.064638	0.000897	20.780378
158.056846	-3.004200	3.838200	-11.530000	22.039111	0.000900	20.764779
159.050327	-2.996600	3.837100	-11.497000	22.036522	0.000900	20.788267
160.052124	-2.985000	3.836700	-11.451000	22.031288	0.000899	20.781130
161.055441	-2.993000	3.835300	-11.478000	22.059526	0.000899	20.763880
162.055351	-2.995900	3.834800	-11.487000	22.055247	0.000901	20.786623
163.054802	-2.985600	3.836300	-11.453000	22.071245	0.000901	20.787940
164.055198	-3.000000	3.835800	-11.506000	22.060408	0.000900	20.782307
165.055409	-2.998400	3.834900	-11.497000	22.063748	0.000901	20.763365
166.051917	-2.994700	3.835100	-11.484000	22.088475	0.000902	20.785749
167.054685	-2.997200	3.834900	-11.492000	22.091790	0.000901	20.780533
168.054398	-3.022000	3.834300	-11.585000	22.112376	0.000904	20.793082
169.060327	-3.014000	3.832800	-11.551000	22.121815	0.000904	20.775505
170.054559	-2.978200	3.833100	-11.415000	22.143242	0.000902	20.774671
171.051865	-2.992900	3.833600	-11.472000	22.141192	0.000903	20.784948
172.055726	-3.003800	3.832800	-11.512000	22.157344	0.000903	20.808230
173.055307	-2.995600	3.832300	-11.480000	22.163174	0.000903	20.803636
174.052038	-2.993000	3.833400	-11.472000	22.167795	0.000904	20.781236
175.054245	-3.003800	3.832000	-11.509000	22.192046	0.000907	20.797455
176.050354	-3.010000	3.833100	-11.537000	22.193165	0.000904	20.779609
177.058221	-2.999400	3.832200	-11.494000	22.212238	0.000905	20.787326
178.057333	-3.010000	3.831300	-11.531000	22.232626	0.000905	20.786403
179.053173	-2.995300	3.831800	-11.476000	22.214451	0.000907	20.804241
180.058379	-3.000700	3.832100	-11.497000	22.232577	0.000907	20.803423
181.063072	-3.000500	3.832100	-11.496000	22.231777	0.000905	20.805467
182.057756	-2.980400	3.832700	-11.422000	22.239852	0.000907	20.789370
183.055626	-3.024800	3.829400	-11.581000	22.246131	0.000908	20.797079
184.062926	-2.969500	3.832000	-11.378000	22.271327	0.000908	20.802393
185.056116	-2.987700	3.831500	-11.446000	22.288905	0.000908	20.801028
186.056734	-3.013100	3.829300	-11.536000	22.286439	0.000907	20.798085
187.060312	-2.996400	3.829300	-11.473000	22.305478	0.000909	20.797709
188.060039	-3.004900	3.830700	-11.509000	22.299372	0.000910	20.809137
189.061566	-2.987400	3.831000	-11.443000	22.278013	0.000909	20.801976
190.061371	-3.000000	3.828500	-11.485000	22.287860	0.000911	20.804723
191.060534	-3.025100	3.827700	-11.578000	22.301788	0.000913	20.817247
192.058383	-3.001200	3.829700	-11.493000	22.306924	0.000912	20.798682
193.062116	-3.016100	3.827400	-11.543000	22.305005	0.000913	20.794390
194.059517	-2.993200	3.827800	-11.456000	22.323832	0.000912	20.807078
195.063291	-2.991400	3.827800	-11.449000	22.314925	0.000914	20.791994
196.064759	-2.998500	3.828900	-11.480000	22.329228	0.000914	20.813429
197.060189	-2.987400	3.828000	-11.434000	22.318558	0.000915	20.810805
198.064657	-3.008600	3.827300	-11.514000	22.316060	0.000914	20.818261
199.067230	-2.993800	3.827900	-11.459000	22.311969	0.000915	20.808001
200.063569	-2.992000	3.829300	-11.456000	22.318419	0.000917	20.810192
201.059814	-3.015600	3.827000	-11.539000	22.326200	0.000917	20.812767
202.063584	-2.986600	3.826100	-11.426000	22.332788	0.000917	20.821261
203.066283	-3.016500	3.826700	-11.541000	22.367477	0.000916	20.803366
204.068100	-2.984300	3.827500	-11.422000	22.363289	0.000918	20.816716
205.068276	-3.014000	3.826400	-11.532000	22.383127	0.000918	20.830891
206.061145	-3.029600	3.825100	-11.587000	22.377967	0.000921	20.820509
207.063406	-2.999600	3.825100	-11.473000	22.366203	0.000920	20.813944
208.063221	-3.002400	3.824700	-11.482000	22.394801	0.000919	20.823141
209.066778	-2.993500	3.825200	-11.450000	22.412385	0.000921	20.811353
210.063321	-2.980100	3.825000	-11.396000	22.390099	0.000921	20.830760
211.070275	-3.042200	3.823000	-11.629000	22.420516	0.000922	20.825659
212.063017	-3.023900	3.822600	-11.558000	22.418116	0.000922	20.810454
213.066352	-3.016900	3.823900	-11.535000	22.432304	0.000922	20.829877
214.071776	-3.018300	3.823600	-11.538000	22.467888	0.000923	20.820468
215.068378	-2.997600	3.824000	-11.462000	22.472255	0.000925	20.817729
216.064904	-2.974000	3.824700	-11.373000	22.472704	0.000923	20.827187
217.068366	-3.007900	3.822300	-11.496000	22.470206	0.000926	20.824686
218.066643	-2.993200	3.823600	-11.444000	22.498115	0.000926	20.840308
219.065331	-3.010100	3.823700	-11.508000	22.504605	0.000927	20.830686
220.069765	-3.004800	3.823600	-11.488000	22.494475	0.000926	20.835714
221.070914	-3.019200	3.821900	-11.538000	22.515494	0.000926	20.826893
222.073911	-3.009700	3.822400	-11.504000	22.518939	0.000926	20.838877
223.068913	-3.002900	3.822000	-11.476000	22.523689	0.000927	20.820876
224.068118	-2.982100	3.822100	-11.397000	22.510058	0.000928	20.842785
225.072961	-2.983400	3.821300	-11.400000	22.509666	0.000929	20.834806
226.068758	-2.991200	3.822200	-11.431000	22.518604	0.000928	20.834749
227.070215	-2.962200	3.822300	-11.321000	22.529101	0.000929	20.823451
228.069086	-2.983000	3.821200	-11.398000	22.543402	0.000930	20.828291
229.067992	-2.993000	3.821200	-11.436000	22.562788	0.000929	20.831111
230.069432	-3.022300	3.820100	-11.544000	22.553214	0.000930	20.827212
231.072575	-2.987600	3.821300	-11.415000	22.559148	0.000930	20.839793
232.075880	-2.987500	3.820100	-11.411000	22.543900	0.000932	20.843014
233.081121	-2.987800	3.818900	-11.409000	22.590712	0.000932	20.834422
234.070257	-2.975800	3.819800	-11.366000	22.563025	0.000932	20.852211
235.072112	-2.995800	3.818900	-11.439000	22.571057	0.000933	20.846030
236.071878	-2.992300	3.819800	-11.428000	22.566290	0.000933	20.847894
237.074563	-3.015600	3.818100	-11.513000	22.569931	0.000936	20.855333
238.080539	-3.010000	3.817400	-11.490000	22.579611	0.000934	20.840847
239.074195	-3.037600	3.817000	-11.594000	22.582288	0.000934	20.847322
240.071455	-3.003500	3.817700	-11.465000	22.591381	0.000936	20.833670
241.079478	-2.986100	3.818500	-11.401000	22.636975	0.000936	20.850412
242.076023	-3.001700	3.816700	-11.456000	22.630086	0.000938	20.843512
243.071582	-2.974400	3.819000	-11.358000	22.630853	0.000937	20.850919
244.076332	-2.998100	3.817100	-11.442000	22.642019	0.000939	20.870636
245.073951	-2.989600	3.817700	-11.412000	22.636558	0.000938	20.870383
246.074133	-3.014100	3.816900	-11.503000	22.654376	0.000937	20.867840
247.077097	-3.012100	3.817000	-11.496000	22.676159	0.000940	20.855047
248.074304	-3.003900	3.816600	-11.463000	22.680762	0.000938	20.835477
249.079366	-3.005800	3.815500	-11.468000	22.677751	0.000940	20.859960
250.078038	-2.985000	3.817500	-11.393000	22.677228	0.000942	20.862756
251.076061	-3.001500	3.814600	-11.448000	22.701395	0.000942	20.858987
252.079133	-3.012800	3.815600	-11.495000	22.729102	0.000942	20.849758
253.074925	-2.995200	3.814600	-11.425000	22.693772	0.000940	20.850878
254.081449	-3.009600	3.814300	-11.479000	22.691331	0.000943	20.871666
255.080285	-3.007500	3.813600	-11.469000	22.688695	0.000943	20.840577
256.078416	-2.995100	3.814000	-11.422000	22.681644	0.000945	20.827351
257.082087	-2.993100	3.814300	-11.416000	22.670332	0.000942	20.849684
258.084716	-3.017800	3.813400	-11.507000	22.690532	0.000943	20.822503
259.079969	-2.999400	3.813300	-11.437000	22.699379	0.000942	20.836106
260.078503	-3.018500	3.813400	-11.510000	22.712184	0.000944	20.837553
261.083639	-2.999800	3.814200	-11.440000	22.725315	0.000944	20.850706
262.081456	-3.016700	3.813400	-11.503000	22.722026	0.000948	20.842670
263.083674	-2.993700	3.812700	-11.414000	22.755357	0.000946	20.832910
264.086717	-3.014200	3.811400	-11.487000	22.756059	0.000947	20.846888
265.082253	-2.992800	3.813300	-11.410000	22.745922	0.000946	20.837684
266.079932	-3.004000	3.812800	-11.452000	22.768218	0.000947	20.841052
267.081126	-2.983600	3.812400	-11.372000	22.800274	0.000948	20.835231
268.083892	-3.007800	3.811200	-11.462000	22.810067	0.000947	20.829869
269.084397	-2.998200	3.811700	-11.427000	22.785724	0.000949	20.844363
270.085231	-3.016800	3.810500	-11.494000	22.799801	0.000950	20.827171
271.082031	-3.008900	3.809900	-11.461000	22.804257	0.000947	20.831160
272.081821	-3.009200	3.809900	-11.463000	22.819207	0.000948	20.834283
273.087171	-2.982600	3.811400	-11.367000	22.813478	0.000950	20.834234
274.088719	-3.001200	3.810400	-11.434000	22.819533	0.000952	20.834610
275.084267	-3.009500	3.809700	-11.464000	22.829269	0.000951	20.848630
276.087384	-2.998800	3.810200	-11.425000	22.830012	0.000953	20.838943
277.082134	-2.976300	3.810100	-11.338000	22.818187	0.000953	20.821408
278.089390	-2.998400	3.808900	-11.420000	22.837887	0.000952	20.822176
279.088522	-2.973100	3.810700	-11.328000	22.829441	0.000953	20.847379
280.087348	-2.996000	3.809600	-11.412000	22.848430	0.000955	20.826574
281.087059	-3.005700	3.809800	-11.449000	22.857039	0.000955	20.837569
282.083806	-3.001100	3.807800	-11.426000	22.856647	0.000955	20.811573
283.091475	-3.017200	3.808000	-11.489000	22.859879	0.000956	20.820975
284.088940	-3.008700	3.807200	-11.453000	22.871491	0.000956	20.812693
285.091601	-3.006600	3.807600	-11.447000	22.851808	0.000958	20.826166
286.091553	-2.996500	3.807600	-11.408000	22.855889	0.000957	20.807020
287.086508	-3.009200	3.807600	-11.457000	22.866187	0.000958	20.835354
288.085332	-3.022300	3.806100	-11.502000	22.866154	0.000958	20.833425
289.088407	-3.004700	3.806400	-11.436000	22.869720	0.000959	20.822299
290.087513	-3.009300	3.805200	-11.449000	22.925910	0.000960	20.835444
291.092837	-2.983600	3.806800	-11.356000	22.897718	0.000960	20.821898
292.090768	-3.002900	3.804300	-11.423000	22.919097	0.000960	20.830989
293.088820	-3.006900	3.804600	-11.440000	22.926367	0.000959	20.797022
294.092350	-3.006900	3.805700	-11.442000	22.944571	0.000963	20.813364
295.091665	-3.013600	3.804900	-11.465000	22.923005	0.000963	20.791757
296.092261	-2.991700	3.804400	-11.380000	22.936583	0.000961	20.823852
297.093885	-2.997400	3.805600	-11.406000	22.970429	0.000963	20.826468
298.093746	-3.021500	3.804700	-11.495000	22.969009	0.000959	20.821727
299.095841	-2.992900	3.804600	-11.385000	22.926016	0.000962	20.806153
300.091189	-3.012100	3.803700	-11.456000	22.932470	0.000963	20.823525
301.091714	-2.980400	3.804200	-11.338000	22.931018	0.000962	20.806423
302.096620	-2.989800	3.804600	-11.373000	22.952641	0.000964	20.808647
303.093334	-2.995200	3.802800	-11.390000	22.971278	0.000965	20.806930
304.091176	-3.013100	3.803400	-11.459000	22.960067	0.000966	20.824146
305.096221	-2.972000	3.803900	-11.303000	22.975610	0.000965	20.802736
306.093007	-2.999900	3.801800	-11.404000	22.967018	0.000967	20.779429
307.098066	-2.990300	3.800900	-11.365000	22.982905	0.000966	20.799139
308.096703	-2.986400	3.802000	-11.352000	22.985989	0.000968	20.789901
309.093288	-2.995000	3.800100	-11.380000	22.997975	0.000969	20.803807
310.096529	-2.981200	3.801800	-11.332000	23.010271	0.000969	20.786255
311.093050	-3.001800	3.800400	-11.407000	23.025055	0.000970	20.793482
312.097834	-2.998200	3.799900	-11.392000	23.040541	0.000969	20.808050
313.098095	-3.001500	3.800400	-11.407000	23.075616	0.000970	20.794831
314.097319	-3.005000	3.800800	-11.421000	23.060743	0.000968	20.794152
315.100807	-3.031500	3.798400	-11.514000	23.055089	0.000971	20.796548
316.103503	-3.005200	3.798500	-11.414000	23.054248	0.000971	20.806611
317.101761	-2.990300	3.799100	-11.360000	23.023415	0.000971	20.777614
318.102787	-2.993400	3.800500	-11.375000	23.010728	0.000972	20.790980
319.102000	-3.008900	3.798900	-11.430000	23.017312	0.000971	20.796629
320.102448	-3.000200	3.798500	-11.395000	23.020299	0.000973	20.797251
321.104050	-2.993200	3.798600	-11.369000	23.035915	0.000971	20.818113
322.104410	-3.004100	3.797400	-11.406000	23.062913	0.000974	20.817664
323.104639	-3.012200	3.797400	-11.437000	23.066356	0.000973	20.793613
324.105328	-2.971300	3.798800	-11.287000	23.053383	0.000976	20.805744
325.103291	-3.015800	3.796300	-11.447000	23.049459	0.000974	20.806553
326.110561	-2.998500	3.796700	-11.382000	23.066111	0.000974	20.784832
327.108337	-2.987800	3.797400	-11.344000	23.090522	0.000977	20.783688
328.105044	-3.020200	3.796100	-11.464000	23.094952	0.000976	20.788601
329.104135	-2.996900	3.796300	-11.376000	23.106668	0.000975	20.797021
330.104007	-3.011300	3.795500	-11.428000	23.111171	0.000977	20.796318
331.110475	-2.990100	3.795200	-11.345000	23.110372	0.000977	20.807845
332.114129	-3.007600	3.794500	-11.411000	23.127863	0.000977	20.793604
333.108641	-2.996300	3.795600	-11.371000	23.116808	0.000979	20.794855
334.113339	-3.015700	3.794800	-11.442000	23.127316	0.000978	20.799694
335.104904	-2.993900	3.794400	-11.358000	23.130433	0.000979	20.780058
336.105415	-2.999300	3.795300	-11.383000	23.120471	0.000977	20.807060
337.110182	-3.023300	3.793600	-11.468000	23.152044	0.000978	20.790808
338.110804	-2.999800	3.794200	-11.381000	23.150412	0.000980	20.782061
339.107616	-3.009500	3.791600	-11.409000	23.172292	0.000981	20.788339
340.110298	-3.002300	3.793400	-11.388000	23.196880	0.000979	20.795435
341.106513	-2.990200	3.793500	-11.341000	23.160104	0.000980	20.796514
342.111748	-3.012100	3.793400	-11.425000	23.199491	0.000981	20.780982
343.111881	-2.997900	3.793400	-11.371000	23.173826	0.000984	20.769487
344.114645	-2.987000	3.792400	-11.327000	23.186691	0.000981	20.781905
345.107554	-3.015000	3.791900	-11.432000	23.170979	0.000985	20.765686
346.108222	-3.010100	3.791200	-11.410000	23.178174	0.000982	20.800872
347.112353	-2.995700	3.791700	-11.357000	23.207396	0.000981	20.784162
348.112498	-3.005400	3.790900	-11.392000	23.196684	0.000986	20.777221
349.108769	-3.019400	3.791700	-11.448000	23.183942	0.000985	20.803332
350.106652	-3.001500	3.790100	-11.375000	23.179830	0.000986	20.759857
351.108638	-3.006900	3.791300	-11.399000	23.193691	0.000985	20.793187
352.108332	-2.994100	3.790900	-11.348000	23.203235	0.000985	20.784734
353.112405	-3.015500	3.789700	-11.427000	23.211858	0.000986	20.782943
354.109597	-3.001400	3.789800	-11.372000	23.228320	0.000986	20.810346
355.112785	-3.004700	3.789000	-11.383000	23.240719	0.000985	20.776305
356.110311	-2.992600	3.788800	-11.337000	23.214501	0.000987	20.764729
357.112108	-2.996000	3.788300	-11.347000	23.229511	0.000989	20.773607
358.114708	-3.010600	3.788100	-11.404000	23.230808	0.000989	20.760208
359.111889	-3.008200	3.787500	-11.393000	23.242392	0.000991	20.778929
360.113757	-3.003100	3.787000	-11.372000	23.259449	0.000990	20.782273
361.114465	-2.999100	3.788300	-11.361000	23.252450	0.000990	20.775733
362.112439	-2.997000	3.787500	-11.349000	23.277680	0.000990	20.761663
363.116473	-2.987600	3.787500	-11.315000	23.266122	0.000989	20.765726
364.115980	-3.015500	3.786500	-11.417000	23.283407	0.000991	20.758393
365.112429	-3.014800	3.785100	-11.409000	23.278928	0.000990	20.763862
366.116695	-3.004900	3.785800	-11.375000	23.290504	0.000991	20.759341
367.116842	-3.007800	3.786100	-11.387000	23.289688	0.000992	20.776542
368.118182	-3.020200	3.785000	-11.431000	23.305994	0.000994	20.772969
369.118742	-2.979900	3.787400	-11.284000	23.287942	0.000992	20.772422
370.115995	-3.005100	3.783600	-11.369000	23.294647	0.000994	20.780090
371.116884	-3.004400	3.785200	-11.371000	23.312030	0.000994	20.763846
372.114558	-3.008200	3.785300	-11.385000	23.315562	0.000993	20.768808
373.120049	-3.003900	3.783600	-11.364000	23.342455	0.000996	20.775373
374.117671	-3.003100	3.784400	-11.364000	23.340236	0.000996	20.751812
375.116332	-3.022800	3.783200	-11.434000	23.371109	0.000996	20.760944
376.120006	-3.021900	3.781900	-11.427000	23.387373	0.000995	20.769658
377.122899	-2.988100	3.783600	-11.302000	23.377520	0.000995	20.764050
378.116974	-2.991300	3.782300	-11.313000	23.395815	0.000994	20.768636
379.116079	-2.968800	3.784200	-11.234000	23.393230	0.000996	20.779321
380.120955	-3.003500	3.783500	-11.364000	23.408792	0.000996	20.762677
381.118209	-3.021900	3.780600	-11.423000	23.397340	0.000997	20.763053
382.122213	-2.990800	3.781400	-11.308000	23.395595	0.000996	20.741862
383.120495	-2.993400	3.781100	-11.317000	23.382479	0.000999	20.752425
384.123441	-2.978200	3.781400	-11.261000	23.382243	0.000999	20.754559
385.124823	-3.006300	3.780700	-11.365000	23.384323	0.000998	20.758540
386.122579	-3.011300	3.780300	-11.382000	23.399967	0.000996	20.756676
387.123028	-2.991700	3.780300	-11.309000	23.397128	0.001000	20.744347
388.117274	-2.999700	3.779700	-11.336000	23.399893	0.000997	20.767982
389.118371	-2.973600	3.779000	-11.237000	23.382088	0.001000	20.752980
390.126335	-3.008900	3.778100	-11.366000	23.372438	0.000999	20.752792
391.121366	-3.001000	3.777900	-11.336000	23.380530	0.000999	20.732926
392.118427	-3.000300	3.777400	-11.332000	23.417331	0.001000	20.754166
393.124280	-2.990600	3.778100	-11.297000	23.392560	0.001001	20.774857
394.122335	-3.012800	3.777900	-11.381000	23.415398	0.001000	20.753176
395.119042	-2.970000	3.778500	-11.221000	23.373564	0.001000	20.761033
396.122973	-2.992300	3.778000	-11.304000	23.417013	0.001003	20.751950
397.121456	-2.980500	3.777400	-11.257000	23.409615	0.001001	20.755441
398.123313	-2.992600	3.777700	-11.305000	23.440870	0.001002	20.764957
399.118226	-3.006000	3.776000	-11.350000	23.441073	0.001002	20.757100
400.119523	-2.979700	3.775600	-11.249000	23.471520	0.001003	20.751108
401.124874	-3.000800	3.776600	-11.333000	23.457606	0.001003	20.721987
402.119974	-3.006900	3.775100	-11.351000	23.429639	0.001003	20.760812
403.124036	-2.976800	3.775600	-11.238000	23.456733	0.001003	20.761891
404.125616	-2.968700	3.777400	-11.212000	23.405692	0.001004	20.753879
405.119467	-3.006200	3.774800	-11.346000	23.401459	0.001002	20.735411
406.123470	-3.004800	3.775200	-11.343000	23.399868	0.001005	20.732869
407.120359	-2.965900	3.774800	-11.195000	23.371557	0.001004	20.749538
408.122895	-2.986500	3.774900	-11.273000	23.413065	0.001003	20.737561
409.124145	-2.983800	3.774900	-11.262000	23.399297	0.001005	20.752212
410.120040	-3.006900	3.773500	-11.346000	23.387177	0.001005	20.759504
411.121829	-3.010800	3.773000	-11.358000	23.400260	0.001006	20.729942
412.121071	-2.992500	3.773900	-11.293000	23.408971	0.001005	20.734406
413.123239	-3.009000	3.772900	-11.351000	23.404265	0.001005	20.742965
414.122930	-2.999000	3.772400	-11.312000	23.411605	0.001005	20.738943
415.122127	-2.992500	3.773200	-11.290000	23.424631	0.001006	20.737300
416.121547	-2.999900	3.770000	-11.309000	23.402095	0.001006	20.750748
417.125559	-3.003900	3.770600	-11.326000	23.404705	0.001007	20.740562
418.123165	-3.026200	3.770400	-11.409000	23.402454	0.001006	20.727874
419.129690	-3.011300	3.770300	-11.352000	23.396786	0.001006	20.733098
420.122855	-2.982900	3.770600	-11.245000	23.402405	0.001009	20.726402
421.124031	-3.017200	3.770000	-11.373000	23.378654	0.001007	20.739107
422.129470	-2.999600	3.769300	-11.305000	23.415553	0.001008	20.759022
423.125637	-3.007900	3.769400	-11.337000	23.436466	0.001007	20.732092
424.135447	-2.999100	3.769000	-11.301000	23.470590	0.001008	20.735003
425.124548	-3.028500	3.768000	-11.409000	23.474725	0.001007	20.726819
426.124854	-3.002900	3.769200	-11.317000	23.495979	0.001007	20.723941
427.129216	-2.983400	3.768400	-11.242000	23.506818	0.001007	20.733858
428.128801	-3.004000	3.768000	-11.319000	23.536333	0.001009	20.739737
429.126233	-3.005000	3.769100	-11.326000	23.519802	0.001007	20.728855
430.130305	-3.011900	3.768600	-11.350000	23.510986	0.001008	20.734243
431.130999	-3.003700	3.768100	-11.317000	23.516091	0.001008	20.736990
432.131618	-3.031000	3.766200	-11.413000	23.525543	0.001008	20.723705
433.131596	-2.991400	3.767000	-11.267000	23.517600	0.001008	20.724277
434.141291	-2.982800	3.767300	-11.235000	23.540003	0.001010	20.744838
435.137450	-2.993600	3.766000	-11.272000	23.536692	0.001010	20.729665
436.131938	-3.000600	3.765500	-11.298000	23.547791	0.001009	20.736050
437.129906	-2.994100	3.765100	-11.271000	23.505138	0.001011	20.729804
438.131178	-3.007000	3.764700	-11.320000	23.515251	0.001009	20.714335
439.133210	-2.987200	3.765400	-11.247000	23.501305	0.001008	20.720745
440.129561	-2.995200	3.763600	-11.271000	23.494332	0.001010	20.729877
441.134207	-2.973900	3.765600	-11.198000	23.506329	0.001011	20.745697
442.135467	-2.992600	3.764000	-11.262000	23.532892	0.001011	20.739132
443.139009	-2.990100	3.765100	-11.256000	23.550711	0.001010	20.711948
444.138313	-3.004000	3.762200	-11.300000	23.560717	0.001009	20.731938
445.141161	-3.013900	3.762600	-11.339000	23.604983	0.001009	20.731267
446.136043	-2.998000	3.762500	-11.278000	23.603311	0.001010	20.720108
447.135848	-2.995000	3.762600	-11.268000	23.626063	0.001012	20.724425
448.133865	-3.002800	3.762200	-11.295000	23.617125	0.001011	20.727793
449.136378	-2.978300	3.762400	-11.204000	23.613912	0.001012	20.736900
450.135012	-2.986100	3.761400	-11.231000	23.631070	0.001013	20.738454
451.136558	-2.988900	3.761400	-11.240000	23.632758	0.001011	20.707902
452.136082	-2.989000	3.761400	-11.241000	23.650209	0.001011	20.718759
453.133577	-2.986300	3.761300	-11.232000	23.669999	0.001012	20.707305
454.137280	-2.992600	3.760500	-11.252000	23.692986	0.001012	20.722290
455.138023	-3.010500	3.760300	-11.319000	23.673065	0.001013	20.705637
456.135526	-3.005800	3.759500	-11.299000	23.693084	0.001013	20.735666
457.138740	-2.984000	3.760000	-11.218000	23.694372	0.001013	20.712300
458.139545	-2.994600	3.760300	-11.259000	23.666232	0.001011	20.729133
459.136597	-3.005300	3.758100	-11.292000	23.670113	0.001012	20.727335
460.140707	-3.007900	3.758500	-11.304000	23.678300	0.001012	20.723688
461.137634	-2.976700	3.758700	-11.188000	23.667129	0.001014	20.727662
462.141181	-3.001000	3.757700	-11.276000	23.662929	0.001013	20.722029
463.135598	-3.010800	3.757500	-11.312000	23.674255	0.001013	20.715840
464.136716	-2.999000	3.757500	-11.268000	23.696011	0.001015	20.723427
465.140836	-2.998000	3.757500	-11.264000	23.688224	0.001013	20.699496
466.138566	-3.012600	3.756300	-11.315000	23.713143	0.001014	20.706462
467.139271	-3.003500	3.756400	-11.281000	23.716054	0.001014	20.713174
468.148492	-2.981600	3.757100	-11.201000	23.725170	0.001014	20.710934
469.143486	-2.998800	3.756000	-11.263000	23.736773	0.001014	20.716404
470.141862	-2.991200	3.756600	-11.235000	23.730698	0.001014	20.736393
471.144164	-2.988800	3.756200	-11.225000	23.745359	0.001013	20.708890
472.140841	-3.006900	3.754300	-11.287000	23.749917	0.001015	20.690699
473.144247	-3.009900	3.753800	-11.297000	23.748922	0.001013	20.704402
474.139830	-3.010200	3.753100	-11.296000	23.752306	0.001015	20.721072
475.142929	-3.010400	3.752300	-11.295000	23.766142	0.001013	20.713608
476.142884	-3.000400	3.753400	-11.261000	23.751091	0.001014	20.694247
477.142375	-3.021400	3.753200	-11.339000	23.771989	0.001016	20.714728
478.140433	-3.015700	3.753100	-11.317000	23.773734	0.001015	20.720271
479.144102	-3.006000	3.753300	-11.282000	23.758299	0.001016	20.716649
480.142735	-2.987500	3.753500	-11.212000	23.778283	0.001015	20.710607
481.143595	-3.000100	3.751500	-11.254000	23.786102	0.001016	20.701851
482.143641	-3.004400	3.751500	-11.269000	23.792177	0.001017	20.710313
483.145406	-2.991100	3.752000	-11.221000	23.799564	0.001016	20.702072
484.145947	-3.000200	3.750700	-11.252000	23.821317	0.001015	20.697804
485.141253	-2.987400	3.751200	-11.204000	23.811134	0.001016	20.712725
486.148378	-2.977700	3.750600	-11.168000	23.808475	0.001014	20.711482
487.146550	-2.995600	3.749800	-11.232000	23.781373	0.001016	20.712757
488.145967	-2.999900	3.751800	-11.253000	23.761805	0.001017	20.723010
489.145476	-2.988400	3.749800	-11.204000	23.752371	0.001017	20.710705
490.142453	-3.000900	3.749400	-11.251000	23.788108	0.001017	20.712398
491.147561	-2.974400	3.750400	-11.154000	23.790359	0.001015	20.720344
492.148850	-3.013400	3.749900	-11.298000	23.783428	0.001017	20.725724
493.146531	-3.014100	3.748400	-11.297000	23.829136	0.001017	20.722241
494.147806	-2.988500	3.749300	-11.203000	23.817852	0.001018	20.702391
495.144250	-3.018000	3.747300	-11.308000	23.839213	0.001016	20.703895
496.148362	-3.001500	3.748400	-11.249000	23.862563	0.001017	20.706446
497.147087	-2.990500	3.748300	-11.208000	23.813506	0.001017	20.732648
498.144987	-2.999800	3.746900	-11.239000	23.832373	0.001017	20.711261
499.150520	-3.020600	3.746500	-11.316000	23.839221	0.001018	20.713387
500.147376	-3.000900	3.745200	-11.238000	23.831924	0.001017	20.711760
501.146816	-3.001500	3.746000	-11.243000	23.835895	0.001017	20.709577
502.149578	-2.998600	3.747000	-11.234000	23.823689	0.001019	20.696389
503.148804	-3.005300	3.744900	-11.254000	23.814607	0.001017	20.718104
504.149527	-2.981000	3.746100	-11.166000	23.803029	0.001019	20.713133
505.147252	-2.982200	3.744400	-11.165000	23.778471	0.001018	20.729288
506.146072	-2.992000	3.744400	-11.203000	23.774810	0.001020	20.709495
507.152035	-2.982800	3.744500	-11.166000	23.797004	0.001018	20.717524
508.149858	-2.982400	3.744300	-11.167000	23.838569	0.001019	20.723165
509.146182	-2.983300	3.744900	-11.171000	23.841781	0.001019	20.709789
510.151348	-2.989200	3.744300	-11.192000	23.875551	0.001017	20.702873
511.148383	-2.994500	3.742400	-11.205000	23.866248	0.001019	20.704451
512.152009	-2.999100	3.742700	-11.222000	23.878364	0.001018	20.723238
513.152302	-2.990000	3.743400	-11.191000	23.844888	0.001017	20.716224
514.153536	-3.004300	3.741500	-11.240000	23.852682	0.001018	20.706495
515.151927	-3.008400	3.742300	-11.257000	23.855193	0.001018	20.723713
516.151700	-2.994800	3.742400	-11.206000	23.851687	0.001017	20.718774
517.157129	-3.008400	3.742100	-11.257000	23.869444	0.001019	20.712397
518.150908	-3.023800	3.739900	-11.308000	23.880255	0.001020	20.734619
519.156048	-2.994500	3.741000	-11.202000	23.885400	0.001020	20.719388
520.153245	-2.997500	3.740400	-11.211000	23.903303	0.001019	20.704622
521.152374	-3.012800	3.738500	-11.262000	23.920798	0.001019	20.711261
522.150158	-2.992300	3.740200	-11.191000	23.922258	0.001018	20.718889
523.157894	-3.000400	3.738500	-11.216000	23.907933	0.001018	20.705473
524.155388	-2.987500	3.739400	-11.170000	23.913338	0.001019	20.723696
525.152030	-3.001500	3.739300	-11.222000	23.914879	0.001019	20.725241
526.160933	-3.001400	3.738000	-11.219000	23.889443	0.001019	20.714907
527.156494	-2.986900	3.737300	-11.162000	23.897580	0.001019	20.711686
528.154867	-3.010600	3.737700	-11.252000	23.906694	0.001019	20.725568
529.159267	-3.006900	3.736500	-11.233000	23.920276	0.001018	20.728283
530.157127	-3.003300	3.736300	-11.221000	23.920431	0.001020	20.715161
531.156615	-3.001100	3.736100	-11.210000	23.941538	0.001018	20.710721
532.153012	-3.001800	3.735100	-11.211000	23.929643	0.001019	20.719183
533.155241	-2.988100	3.736300	-11.163000	23.940103	0.001018	20.709282
534.154624	-3.002700	3.735700	-11.215000	23.919469	0.001019	20.708031
535.155323	-2.982900	3.736300	-11.144000	23.916094	0.001017	20.720769
536.156336	-2.991100	3.735100	-11.171000	23.915621	0.001018	20.736417
537.158758	-2.987700	3.734000	-11.155000	23.889337	0.001018	20.716698
538.154727	-2.984600	3.735900	-11.149000	23.888872	0.001021	20.720025
539.163490	-2.999900	3.733600	-11.199000	23.903906	0.001020	20.718504
540.158425	-2.998700	3.734200	-11.197000	23.910371	0.001020	20.724988
541.157710	-3.000800	3.734200	-11.204000	23.941668	0.001017	20.692358
542.158867	-2.980300	3.734400	-11.127000	23.952893	0.001019	20.732542
543.154663	-3.004600	3.732800	-11.214000	23.954410	0.001018	20.728372
544.159973	-3.002300	3.733200	-11.207000	23.959317	0.001018	20.724758
545.160042	-3.000600	3.732300	-11.199000	24.013243	0.001017	20.727154
546.159178	-2.976600	3.731700	-11.107000	24.015118	0.001018	20.733302
547.160885	-2.991900	3.732200	-11.165000	24.035269	0.001019	20.732174
548.155405	-2.980300	3.732700	-11.123000	24.024745	0.001018	20.711187
549.157602	-3.000400	3.730700	-11.193000	24.060213	0.001020	20.712143
550.173520	-2.984800	3.731200	-11.136000	24.082979	0.001018	20.740668
551.163313	-3.020500	3.729900	-11.264000	24.105925	0.001018	20.732386
552.165078	-3.000200	3.730100	-11.190000	24.110457	0.001018	20.717964
553.162239	-3.007400	3.729300	-11.214000	24.121029	0.001020	20.742319
554.159596	-3.013100	3.728700	-11.234000	24.107368	0.001020	20.732410
555.169877	-2.996300	3.729300	-11.174000	24.110286	0.001018	20.719689
556.159828	-2.992600	3.729100	-11.159000	24.129123	0.001019	20.743325
557.164186	-3.003300	3.727600	-11.194000	24.126979	0.001019	20.743545
558.164290	-3.003100	3.728700	-11.197000	24.139531	0.001019	20.732427
559.159843	-3.012000	3.727000	-11.225000	24.148962	0.001017	20.726238
560.160293	-3.010100	3.726900	-11.218000	24.157789	0.001017	20.739360
561.164256	-3.001800	3.726600	-11.185000	24.140673	0.001018	20.732623
562.165437	-2.998200	3.727300	-11.174000	24.147495	0.001015	20.720024
563.165844	-3.003700	3.725600	-11.190000	24.143093	0.001018	20.725567
564.166774	-3.003100	3.725900	-11.188000	24.158971	0.001015	20.710197
565.163557	-2.999700	3.726500	-11.176000	24.165589	0.001017	20.735803
566.165784	-3.014300	3.724900	-11.227000	24.148375	0.001017	20.721381
567.163756	-2.983900	3.725300	-11.115000	24.121713	0.001018	20.743480
568.165762	-2.961400	3.726600	-11.035000	24.113448	0.001018	20.724758
569.164198	-3.001900	3.724800	-11.181000	24.100814	0.001019	20.724414
570.165176	-2.985500	3.724000	-11.116000	24.097032	0.001016	20.732475
571.170110	-3.012200	3.723500	-11.215000	24.077974	0.001019	20.711464
572.168754	-2.992100	3.722700	-11.138000	24.103985	0.001016	20.739449
573.165534	-3.003300	3.724500	-11.185000	24.117841	0.001018	20.723474
574.168313	-2.990500	3.723800	-11.135000	24.137029	0.001018	20.715691
575.165726	-3.001800	3.723600	-11.176000	24.131356	0.001017	20.737978
576.166696	-3.001100	3.722100	-11.169000	24.114361	0.001018	20.722828
577.168806	-2.989500	3.721800	-11.125000	24.108419	0.001017	20.728249
578.167955	-3.017200	3.721400	-11.226000	24.079506	0.001017	20.738607
579.169011	-3.000600	3.721700	-11.166000	24.114516	0.001016	20.741951
580.169992	-3.001300	3.720000	-11.164000	24.132260	0.001017	20.739833
581.169918	-3.011600	3.719400	-11.200000	24.145946	0.001016	20.735067
582.170741	-3.003300	3.719500	-11.168000	24.157944	0.001016	20.740463
583.173833	-3.012000	3.719500	-11.202000	24.139433	0.001016	20.727586
584.172349	-3.001300	3.720100	-11.164000	24.119651	0.001014	20.734773
585.171380	-2.991800	3.719600	-11.128000	24.110399	0.001017	20.742090
586.171456	-2.996500	3.718800	-11.143000	24.104310	0.001015	20.754001
587.175671	-3.020400	3.719500	-11.232000	24.123791	0.001017	20.745564
588.171591	-2.986700	3.720900	-11.111000	24.148097	0.001015	20.741019
589.168433	-3.018600	3.718100	-11.222000	24.181344	0.001016	20.751132
590.168950	-3.012700	3.718900	-11.203000	24.178084	0.001017	20.758767
591.168994	-3.015900	3.717000	-11.209000	24.181320	0.001016	20.741624
592.168842	-3.004300	3.718500	-11.171000	24.211224	0.001016	20.741746
593.175027	-2.983500	3.718400	-11.092000	24.225038	0.001015	20.741852
594.173721	-2.999200	3.716600	-11.145000	24.241257	0.001015	20.750535
595.177140	-2.986600	3.717900	-11.102000	24.262928	0.001014	20.755677
596.172070	-3.001000	3.716400	-11.151000	24.269619	0.001016	20.756699
597.172029	-2.983000	3.718300	-11.090000	24.309496	0.001016	20.749284
598.175037	-2.998100	3.715500	-11.138000	24.279489	0.001015	20.743839
599.175658	-2.995400	3.716100	-11.131000	24.256058	0.001015	20.735982
600.173812	-2.989800	3.716400	-11.109000	24.275161	0.001015	20.750404
601.171923	-3.000100	3.715900	-11.147000	24.234044	0.001015	20.738084
602.172908	-3.012800	3.715300	-11.192000	24.214313	0.001014	20.751009
603.180768	-2.988600	3.715700	-11.103000	24.209284	0.001014	20.749758
604.172270	-3.006800	3.714400	-11.167000	24.197955	0.001015	20.770164
605.177520	-3.034400	3.713800	-11.268000	24.204581	0.001015	20.745989
606.173759	-3.005900	3.712900	-11.160000	24.250361	0.001015	20.752554
607.172430	-3.031200	3.714000	-11.257000	24.248992	0.001013	20.773467
608.176413	-3.006500	3.714100	-11.165000	24.272105	0.001016	20.744019
609.180926	-3.018300	3.713000	-11.205000	24.286832	0.001013	20.740299
610.172358	-3.001900	3.714000	-11.148000	24.312878	0.001012	20.768798
611.175392	-2.999500	3.712800	-11.135000	24.321240	0.001013	20.750633
612.176986	-2.992800	3.712000	-11.108000	24.295039	0.001016	20.731936
613.174944	-3.004000	3.712600	-11.151000	24.319993	0.001013	20.760762
614.177517	-3.001000	3.712100	-11.139000	24.317083	0.001012	20.758792
615.173666	-3.006600	3.710300	-11.155000	24.310539	0.001013	20.752227
616.179418	-3.002900	3.710100	-11.140000	24.283213	0.001013	20.752791
617.178734	-3.014300	3.709200	-11.180000	24.315144	0.001011	20.777235
618.175815	-3.002000	3.709600	-11.135000	24.314834	0.001013	20.755587
619.185149	-3.008500	3.710400	-11.162000	24.302944	0.001015	20.745556
620.174993	-2.993200	3.710600	-11.105000	24.278095	0.001012	20.775633
621.186726	-3.002400	3.709900	-11.137000	24.272040	0.001012	20.765291
622.179992	-3.006200	3.707600	-11.145000	24.266971	0.001013	20.769215
623.179302	-2.979300	3.709200	-11.049000	24.282024	0.001011	20.762504
624.176905	-2.992700	3.709200	-11.099000	24.298934	0.001012	20.767139
625.181203	-2.996500	3.708900	-11.113000	24.305853	0.001013	20.761751
626.177745	-3.006100	3.708100	-11.146000	24.274257	0.001012	20.765144
627.180195	-2.996700	3.707800	-11.109000	24.269106	0.001011	20.765667
628.182706	-2.985700	3.708300	-11.071000	24.227606	0.001011	20.759601
629.179667	-3.006300	3.706300	-11.142000	24.248821	0.001009	20.769976
630.185206	-3.012900	3.705900	-11.164000	24.257109	0.001012	20.772600
631.190023	-3.002500	3.705800	-11.125000	24.249391	0.001010	20.763910
632.181018	-3.004400	3.705700	-11.132000	24.267932	0.001012	20.764016
633.179870	-3.013500	3.706400	-11.168000	24.274151	0.001011	20.768357
634.178940	-3.019200	3.704700	-11.185000	24.296913	0.001011	20.772698
635.182034	-3.008500	3.705300	-11.147000	24.277582	0.001010	20.763264
636.185185	-3.030900	3.702900	-11.222000	24.269522	0.001009	20.792163
637.181243	-3.014100	3.703600	-11.162000	24.280394	0.001009	20.774619
638.179863	-3.022300	3.703100	-11.191000	24.226603	0.001010	20.778037
639.181183	-3.017700	3.702700	-11.173000	24.215185	0.001009	20.786498
640.183090	-2.996000	3.703200	-11.094000	24.237378	0.001010	20.776990
641.182937	-3.018600	3.702600	-11.176000	24.243050	0.001010	20.768455
642.180162	-3.034700	3.700900	-11.231000	24.284306	0.001008	20.782811
643.183443	-2.991800	3.702500	-11.077000	24.317092	0.001010	20.817596
644.182570	-3.029600	3.702500	-11.216000	24.354025	0.001009	20.758866
645.182619	-3.017700	3.701500	-11.169000	24.361946	0.001011	20.780563
646.184734	-2.995100	3.700900	-11.084000	24.361098	0.001009	20.771652
647.181653	-2.988400	3.702700	-11.064000	24.369435	0.001007	20.764368
648.184062	-2.991800	3.700900	-11.071000	24.347742	0.001009	20.775322
649.186055	-2.984100	3.701100	-11.043000	24.369378	0.001009	20.787544
650.183428	-2.988900	3.701500	-11.061000	24.382889	0.001009	20.782132
651.186523	-2.971700	3.701100	-10.996000	24.400320	0.001008	20.797248
652.185668	-3.002300	3.699700	-11.106000	24.409854	0.001007	20.769829
653.188963	-3.022400	3.698000	-11.177000	24.430951	0.001009	20.783408
654.183489	-2.999300	3.699700	-11.096000	24.448365	0.001009	20.782386
655.186639	-2.998700	3.699700	-11.092000	24.455870	0.001009	20.776639
656.189614	-3.019600	3.698700	-11.167000	24.468288	0.001005	20.772028
657.185783	-3.023700	3.697100	-11.178000	24.472395	0.001007	20.803649
658.187608	-3.016400	3.697400	-11.152000	24.436623	0.001006	20.787675
659.184864	-2.999000	3.697900	-11.089000	24.388863	0.001006	20.788599
660.191347	-2.981700	3.699000	-11.029000	24.414735	0.001007	20.798433
661.191969	-2.981700	3.697200	-11.023000	24.411631	0.001006	20.803379
662.189332	-2.987700	3.696300	-11.042000	24.425606	0.001007	20.795589
663.186135	-2.991000	3.697000	-11.057000	24.437919	0.001005	20.790397
664.189208	-3.000000	3.695900	-11.086000	24.419234	0.001006	20.796782
665.185963	-2.992400	3.697100	-11.061000	24.438831	0.001007	20.784675
666.193367	-2.980000	3.696000	-11.012000	24.470749	0.001006	20.806265
667.191586	-2.992800	3.695600	-11.059000	24.475051	0.001005	20.799676
668.189161	-3.011400	3.694300	-11.123000	24.485718	0.001005	20.784299
669.193314	-2.990400	3.695500	-11.051000	24.482214	0.001003	20.797379
670.186760	-3.004500	3.693800	-11.097000	24.498559	0.001005	20.779165
671.190279	-2.999300	3.694800	-11.080000	24.485775	0.001003	20.799055
672.190983	-3.012600	3.694100	-11.128000	24.484129	0.001004	20.768480
673.190967	-2.982800	3.693900	-11.018000	24.459952	0.001005	20.819141
674.192937	-2.990400	3.693000	-11.042000	24.455348	0.001006	20.796030
675.192838	-3.024900	3.692400	-11.168000	24.458657	0.001003	20.817367
676.192380	-3.001400	3.691100	-11.075000	24.450117	0.001004	20.792678
677.200634	-3.015700	3.691100	-11.131000	24.442889	0.001004	20.787324
678.194852	-2.989800	3.692900	-11.040000	24.441374	0.001001	20.797657
679.194736	-2.996700	3.691900	-11.062000	24.450891	0.001003	20.838973
680.194077	-2.998600	3.690800	-11.066000	24.454395	0.001005	20.827316
681.191545	-3.002800	3.692500	-11.086000	24.498478	0.001002	20.817015
682.195043	-2.973600	3.691600	-10.976000	24.485938	0.001001	20.781675
683.194305	-2.996600	3.690800	-11.058000	24.509942	0.001001	20.817612
684.196070	-3.004900	3.690300	-11.087000	24.528748	0.001002	20.809928
685.194543	-3.002600	3.689700	-11.078000	24.524438	0.001003	20.830259
686.194519	-2.988300	3.689200	-11.023000	24.563971	0.001003	20.815397
687.191575	-2.987700	3.689600	-11.023000	24.586988	0.001001	20.816206
688.197242	-3.004300	3.689100	-11.082000	24.609475	0.001002	20.802260
689.192271	-3.001100	3.689300	-11.072000	24.603503	0.001003	20.829458
690.198061	-2.996100	3.688500	-11.051000	24.600986	0.001002	20.799431
691.202714	-2.979800	3.688800	-10.990000	24.604049	0.001001	20.809617
692.194705	-3.022900	3.685800	-11.141000	24.565536	0.001001	20.809854
693.203331	-2.995400	3.688000	-11.046000	24.573431	0.001001	20.802603
694.198914	-2.979200	3.687500	-10.984000	24.592651	0.001000	20.803396
695.194952	-2.993800	3.687700	-11.040000	24.609068	0.001001	20.809437
696.200045	-2.982100	3.687700	-10.996000	24.579224	0.001000	20.816002
697.199026	-2.998200	3.687600	-11.055000	24.604285	0.000999	20.824553
698.199413	-2.974900	3.687700	-10.970000	24.589595	0.000999	20.827831
699.196527	-2.986300	3.687200	-11.010000	24.560345	0.001001	20.824561
700.195724	-2.997400	3.685400	-11.046000	24.586190	0.001000	20.825362
701.196796	-2.993500	3.686100	-11.033000	24.615235	0.001000	20.825109
702.200248	-2.996500	3.685100	-11.040000	24.617843	0.000999	20.820138
703.204145	-3.015300	3.683600	-11.106000	24.607544	0.001000	20.840624
704.206335	-3.022000	3.684400	-11.133000	24.597922	0.000998	20.819591
705.201061	-3.012500	3.683800	-11.097000	24.610706	0.000999	20.837158
706.208362	-3.005400	3.682200	-11.065000	24.627709	0.000996	20.828142
707.210260	-2.998200	3.684600	-11.047000	24.622169	0.000999	20.825902
708.200533	-2.976600	3.684000	-10.965000	24.623171	0.000997	20.825010
709.205049	-3.001200	3.683800	-11.055000	24.665006	0.000996	20.836643
710.204079	-3.028200	3.682300	-11.149000	24.624784	0.000997	20.827577
711.220730	-2.999800	3.681000	-11.041000	24.631954	0.000997	20.824814
712.200861	-3.007500	3.682100	-11.073000	24.641250	0.000997	20.827978
713.201639	-2.998600	3.683000	-11.042000	24.631204	0.000996	20.842079
714.210390	-2.984800	3.681900	-10.989000	24.649902	0.000998	20.851358
715.206421	-2.986400	3.681900	-10.995000	24.652770	0.000995	20.843330
716.210503	-2.996300	3.681300	-11.030000	24.617606	0.000995	20.830806
717.216858	-3.003600	3.681700	-11.057000	24.610819	0.000997	20.842014
718.204654	-2.997500	3.680800	-11.031000	24.594101	0.000994	20.831877
719.211429	-2.991400	3.679300	-11.005000	24.642920	0.000995	20.840559
720.213010	-3.005000	3.679600	-11.056000	24.648419	0.000995	20.848447
721.209557	-3.007900	3.679200	-11.065000	24.636402	0.000994	20.844450
722.207872	-2.988100	3.678100	-10.989000	24.621387	0.000993	20.839341
723.205221	-2.977800	3.679200	-10.954000	24.613769	0.000994	20.841180
724.209509	-3.020100	3.678100	-11.107000	24.598101	0.000992	20.836839
725.209615	-2.998900	3.679300	-11.033000	24.598330	0.000995	20.844654
726.213084	-2.984600	3.678300	-10.977000	24.612148	0.000993	20.849510
727.210308	-3.000800	3.678000	-11.036000	24.636695	0.000995	20.837158
728.207680	-3.003900	3.677800	-11.047000	24.652794	0.000995	20.850941
729.208134	-3.018900	3.677900	-11.103000	24.661267	0.000994	20.851382
730.211809	-3.000100	3.677600	-11.032000	24.667116	0.000993	20.856778
731.207337	-3.022600	3.675900	-11.110000	24.688649	0.000994	20.847091
732.210078	-2.973400	3.677200	-10.932000	24.705960	0.000993	20.831747
733.213016	-2.997500	3.676600	-11.019000	24.719215	0.000993	20.864012
734.211968	-2.979700	3.676900	-10.954000	24.725634	0.000993	20.847695
735.208346	-2.976700	3.677500	-10.946000	24.728119	0.000993	20.857301
736.211665	-2.987900	3.677200	-10.985000	24.733137	0.000989	20.852380
737.212113	-3.016600	3.674200	-11.082000	24.723500	0.000990	20.863096
738.214878	-2.998500	3.675200	-11.019000	24.744379	0.000991	20.870298
739.210577	-2.995000	3.674900	-11.005000	24.748037	0.000991	20.844099
740.213239	-3.013800	3.674900	-11.074000	24.721724	0.000991	20.860366
741.218622	-3.010400	3.673600	-11.058000	24.727695	0.000994	20.858298
742.220015	-3.000600	3.673900	-11.023000	24.737512	0.000991	20.833537
743.215005	-2.988900	3.675100	-10.983000	24.752110	0.000990	20.852927
744.216787	-3.027400	3.673700	-11.120000	24.758106	0.000989	20.863685
745.211317	-2.993900	3.673600	-10.997000	24.770065	0.000991	20.839652
746.214330	-3.012200	3.671500	-11.058000	24.775237	0.000990	20.860963
747.217562	-3.002100	3.671500	-11.021000	24.750888	0.000991	20.860235
748.215933	-3.006000	3.672600	-11.039000	24.742408	0.000991	20.845562
749.216858	-3.001000	3.671000	-11.015000	24.716364	0.000990	20.833177
750.217185	-3.003500	3.671200	-11.025000	24.742701	0.000991	20.857710
751.213668	-3.023100	3.669800	-11.093000	24.757120	0.000991	20.840886
752.218054	-3.022000	3.670000	-11.090000	24.773266	0.000990	20.852347
753.215629	-2.994800	3.672100	-10.996000	24.788556	0.000988	20.850622
754.217451	-3.009700	3.670400	-11.046000	24.788410	0.000989	20.825820
755.218978	-2.966100	3.671800	-10.890000	24.765438	0.000988	20.829793
756.215497	-3.004100	3.668800	-11.021000	24.761699	0.000989	20.843584
757.217508	-2.989900	3.669700	-10.970000	24.789257	0.000987	20.821454
758.218397	-3.007600	3.668800	-11.033000	24.799228	0.000988	20.841892
759.215621	-3.017100	3.667800	-11.065000	24.787416	0.000988	20.826719
760.218237	-2.977700	3.667300	-10.918000	24.823649	0.000988	20.833684
761.215520	-3.035700	3.667900	-11.132000	24.826932	0.000988	20.838401
762.215457	-2.985500	3.668700	-10.952000	24.826532	0.000987	20.829940
763.220146	-3.011600	3.666600	-11.041000	24.826337	0.000984	20.838278
764.220379	-2.972700	3.668200	-10.904000	24.840462	0.000985	20.835858
765.222413	-3.015000	3.666300	-11.052000	24.816130	0.000985	20.819501
766.221670	-3.009500	3.667800	-11.036000	24.815446	0.000986	20.834935
767.219833	-3.012500	3.665800	-11.043000	24.762432	0.000984	20.823931
768.223434	-3.012100	3.666300	-11.042000	24.730922	0.000984	20.834984
769.225610	-3.004600	3.665600	-11.012000	24.692209	0.000986	20.838810
770.232757	-3.013200	3.667000	-11.047000	24.673161	0.000983	20.838662
771.228281	-2.996300	3.666500	-10.984000	24.680795	0.000983	20.840632
772.225389	-3.001100	3.664900	-10.998000	24.696217	0.000983	20.820547
773.224291	-2.999800	3.665100	-10.994000	24.729488	0.000984	20.808415
774.221087	-2.980700	3.666000	-10.927000	24.724469	0.000982	20.807647
775.220738	-2.995600	3.664700	-10.977000	24.716787	0.000982	20.835973
776.224302	-3.013700	3.662900	-11.039000	24.707907	0.000982	20.824217
777.220670	-3.009400	3.662900	-11.022000	24.693911	0.000984	20.812544
778.226487	-2.990600	3.663900	-10.956000	24.681170	0.000981	20.816827
779.222963	-2.997700	3.662700	-10.977000	24.691948	0.000981	20.808677
780.230170	-2.988900	3.665000	-10.953000	24.705846	0.000981	20.814563
781.227146	-3.003500	3.662600	-10.998000	24.735712	0.000981	20.807549
782.222592	-2.996100	3.662700	-10.973000	24.769282	0.000981	20.817530
783.226217	-3.017000	3.662900	-11.051000	24.786813	0.000982	20.809993
784.226630	-3.017600	3.662200	-11.050000	24.798209	0.000981	20.817162
785.229650	-2.999500	3.662500	-10.985000	24.841154	0.000982	20.810475
786.232202	-3.010000	3.660600	-11.017000	24.841830	0.000980	20.813999
787.235441	-2.978700	3.662200	-10.908000	24.887005	0.000979	20.815715
788.227588	-3.002500	3.661700	-10.993000	24.881963	0.000980	20.817767
789.231590	-3.002400	3.660500	-10.988000	24.881832	0.000979	20.795826
790.228106	-2.985300	3.661900	-10.931000	24.884895	0.000978	20.807434
791.229712	-2.990100	3.660800	-10.946000	24.897325	0.000977	20.807581
792.230937	-3.004500	3.660500	-10.996000	24.852329	0.000979	20.809838
793.229733	-3.012700	3.659100	-11.023000	24.857070	0.000980	20.810328
794.232687	-2.996200	3.659800	-10.964000	24.844990	0.000979	20.817645
795.233352	-2.977600	3.659000	-10.894000	24.824300	0.000978	20.812053
796.231262	-2.999200	3.659300	-10.974000	24.861925	0.000978	20.808562
797.231641	-3.001000	3.659000	-10.980000	24.835745	0.000977	20.777072
798.236162	-3.007500	3.656900	-10.997000	24.871952	0.000977	20.814832
799.230674	-2.968800	3.658900	-10.861000	24.856581	0.000975	20.804148
800.232912	-2.999100	3.657700	-10.969000	24.870828	0.000976	20.802799
801.229002	-2.999800	3.656100	-10.967000	24.882248	0.000976	20.778699
802.228828	-3.005300	3.657100	-10.989000	24.870763	0.000978	20.807949
803.233134	-3.014700	3.655000	-11.017000	24.818671	0.000974	20.793128
804.233220	-3.008300	3.657100	-11.000000	24.794649	0.000974	20.797943
805.237058	-3.013500	3.655600	-11.016000	24.840559	0.000974	20.804663
806.234369	-3.004100	3.655300	-10.979000	24.828031	0.000975	20.804417
807.235506	-2.984500	3.656700	-10.913000	24.829815	0.000974	20.791035
808.233887	-3.012800	3.654800	-11.010000	24.837130	0.000975	20.793160
809.230224	-3.004300	3.654300	-10.977000	24.837830	0.000974	20.801924
810.238936	-2.990500	3.653900	-10.925000	24.852924	0.000975	20.782459
811.234723	-3.004600	3.655200	-10.981000	24.854146	0.000973	20.774202
812.231708	-2.992000	3.655200	-10.936000	24.884724	0.000970	20.815797
813.231565	-2.998800	3.653300	-10.955000	24.881596	0.000973	20.793692
814.231226	-3.000200	3.655100	-10.964000	24.900664	0.000973	20.802872
815.233086	-2.992200	3.652900	-10.929000	24.907530	0.000971	20.787479
816.237246	-3.009900	3.652900	-10.993000	24.918575	0.000972	20.799038
817.233541	-3.013000	3.653000	-11.006000	24.935362	0.000972	20.787912
818.237319	-2.997800	3.652800	-10.949000	24.878721	0.000969	20.778478
819.237319	-2.991300	3.653500	-10.928000	24.886752	0.000971	20.799815
820.234174	-3.010200	3.652000	-10.992000	24.894816	0.000971	20.787994
821.238796	-3.003000	3.651700	-10.965000	24.862242	0.000972	20.784225
822.235995	-2.983900	3.650300	-10.891000	24.856475	0.000970	20.773221
823.240700	-2.992500	3.652900	-10.929000	24.907367	0.000969	20.792057
824.242030	-3.002700	3.650600	-10.961000	24.911521	0.000968	20.788165
825.237222	-2.994300	3.650100	-10.928000	24.915456	0.000970	20.791640
826.243956	-3.014300	3.649500	-10.999000	24.927119	0.000968	20.762095
827.239763	-3.014700	3.649700	-11.001000	24.939182	0.000967	20.792220
828.237292	-2.996000	3.650100	-10.935000	24.914836	0.000969	20.802398
829.238366	-2.980600	3.652500	-10.886000	24.886255	0.000968	20.779876
830.245809	-3.005500	3.649400	-10.967000	24.890694	0.000966	20.770580
831.237165	-3.020300	3.649800	-11.022000	24.885082	0.000968	20.788182
832.240461	-3.008100	3.649600	-10.977000	24.876880	0.000968	20.765250
833.238081	-2.983400	3.649200	-10.886000	24.906414	0.000968	20.755538
834.241184	-2.994400	3.650000	-10.927000	24.931045	0.000966	20.766035
835.242467	-2.999400	3.648200	-10.942000	24.927681	0.000968	20.783522
836.242351	-2.994100	3.648700	-10.923000	24.940395	0.000965	20.775894
837.245485	-3.007300	3.647300	-10.966000	24.938530	0.000967	20.769755
838.246474	-3.007700	3.647600	-10.970000	24.961059	0.000967	20.774823
839.244310	-3.023300	3.646700	-11.024000	24.950389	0.000965	20.777865
840.241727	-2.980400	3.648100	-10.871000	24.939760	0.000964	20.778576
841.242109	-2.986500	3.645900	-10.887000	24.903034	0.000967	20.766370
842.245634	-2.997400	3.646200	-10.928000	24.920758	0.000964	20.776099
843.245619	-3.021000	3.645300	-11.011000	24.922778	0.000964	20.769117
844.248117	-3.005100	3.645100	-10.953000	24.939964	0.000966	20.790160
845.247488	-2.997200	3.644700	-10.923000	24.928919	0.000966	20.788083
846.244599	-3.005800	3.644900	-10.954000	24.918322	0.000962	20.756110
847.245972	-2.995200	3.644300	-10.915000	24.893170	0.000964	20.759789
848.248757	-3.006900	3.643800	-10.956000	24.898245	0.000961	20.762037
849.243511	-2.983200	3.644500	-10.870000	24.898725	0.000963	20.770580
850.247900	-3.005400	3.643500	-10.949000	24.915977	0.000961	20.765610
851.246926	-2.997200	3.643600	-10.918000	24.902977	0.000962	20.746398
852.244044	-2.996800	3.643000	-10.916000	24.893178	0.000963	20.787299
853.247102	-3.006400	3.643100	-10.951000	24.936543	0.000960	20.778192
854.250870	-3.008900	3.642200	-10.959000	24.920261	0.000959	20.762323
855.250760	-3.012400	3.641700	-10.970000	24.913631	0.000958	20.765626
856.246151	-3.012500	3.640900	-10.967000	24.941666	0.000961	20.752039
857.251595	-2.982400	3.642700	-10.862000	24.946325	0.000960	20.772363
858.250672	-2.992000	3.641800	-10.894000	24.910943	0.000961	20.749652
859.248022	-2.985700	3.641600	-10.872000	24.915219	0.000961	20.769117
860.250234	-2.988100	3.641000	-10.878000	24.918632	0.000958	20.758792
861.248421	-2.995500	3.639900	-10.902000	24.939768	0.000959	20.768626
862.251842	-2.981400	3.641500	-10.856000	24.964879	0.000958	20.765855
863.251751	-2.980100	3.640100	-10.847000	24.961751	0.000959	20.777889
864.254097	-2.998500	3.641100	-10.917000	24.983286	0.000957	20.762045
865.253461	-2.990100	3.640600	-10.884000	24.976232	0.000956	20.748801
866.249889	-3.018500	3.638300	-10.981000	25.000202	0.000958	20.755791
867.254498	-2.998200	3.638400	-10.908000	25.037543	0.000956	20.774782
868.249823	-3.025600	3.637100	-11.003000	24.995258	0.000958	20.756519
869.257340	-3.005000	3.638100	-10.930000	25.014821	0.000954	20.746758
870.251281	-3.005700	3.638100	-10.934000	25.003859	0.000954	20.743814
871.252695	-3.023900	3.636400	-10.995000	25.002971	0.000954	20.742449
872.250940	-2.995100	3.638200	-10.896000	25.038822	0.000953	20.740029
873.252719	-3.006200	3.636500	-10.932000	25.074827	0.000953	20.730652
874.253992	-2.993200	3.638100	-10.887000	25.085707	0.000954	20.735884
875.256033	-3.012400	3.636800	-10.954000	25.088207	0.000952	20.765422
876.251336	-2.995600	3.636400	-10.893000	25.092751	0.000951	20.741533
877.250906	-3.006100	3.634700	-10.925000	25.058547	0.000954	20.747976
878.254324	-2.970900	3.637100	-10.804000	25.022208	0.000951	20.742318
879.252404	-3.001300	3.635800	-10.911000	25.002393	0.000952	20.745188
880.254303	-3.000700	3.635800	-10.909000	25.026036	0.000950	20.753748
881.252821	-2.992300	3.635100	-10.876000	25.011368	0.000949	20.750878
882.258346	-3.003500	3.634600	-10.914000	24.978350	0.000950	20.728641
883.255630	-2.990200	3.634000	-10.866000	25.019642	0.000952	20.752072
884.252975	-3.015000	3.634600	-10.957000	25.017435	0.000950	20.746063
885.258741	-2.995900	3.633900	-10.885000	25.015945	0.000949	20.736031
886.256279	-2.998400	3.635000	-10.898000	25.037649	0.000949	20.758767
887.258339	-3.003500	3.632400	-10.908000	25.057415	0.000950	20.743046
888.255132	-3.014600	3.633100	-10.951000	25.065168	0.000949	20.756993
889.254261	-2.997700	3.634400	-10.894000	25.066040	0.000947	20.733685
890.261095	-3.021200	3.631900	-10.971000	25.086228	0.000947	20.754426
891.258015	-3.004500	3.632600	-10.913000	25.082824	0.000948	20.752906
892.255588	-3.004300	3.631300	-10.909000	25.080739	0.000947	20.749390
893.259743	-3.008500	3.630600	-10.921000	25.081489	0.000947	20.739710
894.255913	-2.997900	3.631600	-10.886000	25.097564	0.000946	20.765332
895.255929	-2.979500	3.631300	-10.818000	25.102043	0.000946	20.745172
896.258222	-3.003200	3.629700	-10.899000	25.113778	0.000943	20.752685
897.259636	-3.021000	3.629400	-10.964000	25.061870	0.000942	20.727602
898.266058	-2.993000	3.630500	-10.865000	25.039254	0.000945	20.736669
899.260149	-2.989900	3.631100	-10.856000	25.059044	0.000943	20.741362
900.256852	-2.985300	3.631200	-10.840000	25.081961	0.000942	20.723114
901.260290	-2.989100	3.630200	-10.851000	25.090317	0.000943	20.731502
902.260675	-2.980900	3.630000	-10.819000	25.113143	0.000944	20.734977
903.262674	-3.006100	3.629200	-10.909000	25.107223	0.000940	20.737568
904.260369	-2.983500	3.629300	-10.827000	25.080568	0.000941	20.730251
905.256410	-3.007900	3.628000	-10.911000	25.051584	0.000940	20.745253
906.261462	-3.015200	3.628800	-10.941000	25.041363	0.000939	20.737838
907.262499	-3.005500	3.626700	-10.898000	25.018282	0.000941	20.737904
908.256094	-2.984600	3.628900	-10.830000	24.981820	0.000939	20.747771
909.255500	-2.996800	3.628000	-10.871000	24.979254	0.000940	20.734290
910.259932	-2.986300	3.627500	-10.832000	24.990616	0.000941	20.736685
911.257622	-3.010300	3.625300	-10.911000	24.975866	0.000937	20.746537
912.261144	-3.029700	3.625700	-10.984000	25.006155	0.000937	20.730472
913.255091	-2.986500	3.627300	-10.832000	25.017387	0.000939	20.740798
914.260462	-2.999700	3.625900	-10.876000	25.007467	0.000937	20.737004
915.257819	-2.999800	3.626100	-10.876000	25.028227	0.000938	20.734135
916.257143	-2.983700	3.626700	-10.820000	25.019178	0.000936	20.723155
917.260402	-3.011600	3.624700	-10.916000	25.043407	0.000937	20.733252
918.260533	-2.983500	3.626100	-10.816000	25.075430	0.000936	20.735999
919.258465	-2.983200	3.625300	-10.814000	25.113616	0.000935	20.719803
920.258849	-3.007100	3.624400	-10.898000	25.080300	0.000935	20.726188
921.268410	-3.004900	3.623600	-10.887000	25.093224	0.000935	20.728256
922.263740	-3.013000	3.622800	-10.914000	25.136206	0.000933	20.722092
923.261357	-3.016200	3.621900	-10.923000	25.137826	0.000933	20.726090
924.261641	-2.996100	3.622200	-10.851000	25.148470	0.000934	20.702160
925.267325	-2.998300	3.623600	-10.863000	25.160790	0.000932	20.712633
926.263614	-3.007900	3.622000	-10.894000	25.101628	0.000932	20.732426
927.261574	-3.004700	3.622000	-10.882000	25.114202	0.000932	20.709485
928.261931	-3.011600	3.621700	-10.906000	25.122435	0.000932	20.715380
929.263689	-3.022500	3.619900	-10.940000	25.113379	0.000932	20.715772
930.259799	-2.992300	3.622000	-10.836000	25.074827	0.000930	20.723539
931.260142	-2.989900	3.620300	-10.823000	25.056356	0.000929	20.715429
932.261271	-2.985700	3.620700	-10.807000	25.062798	0.000930	20.710515
933.262925	-2.983200	3.621400	-10.802000	25.080992	0.000929	20.717873
934.265918	-3.000800	3.620900	-10.864000	25.087629	0.000928	20.714104
935.266588	-2.999000	3.619200	-10.853000	25.102670	0.000928	20.723989
936.263319	-2.999900	3.619500	-10.857000	25.124072	0.000928	20.701375
937.268750	-3.027200	3.618000	-10.951000	25.157338	0.000928	20.710589
938.266566	-2.999700	3.617800	-10.850000	25.166882	0.000928	20.712584
939.269313	-2.985200	3.618000	-10.799000	25.188241	0.000925	20.722174
940.265238	-3.006000	3.618000	-10.874000	25.200936	0.000926	20.738713
941.271729	-2.997400	3.616900	-10.840000	25.221000	0.000925	20.711439
942.272110	-3.000100	3.616100	-10.847000	25.215015	0.000927	20.698791
943.266591	-3.000400	3.616500	-10.849000	25.213370	0.000926	20.716582
944.268234	-2.986500	3.616600	-10.799000	25.207581	0.000924	20.704130
945.265284	-2.993900	3.617000	-10.827000	25.211685	0.000924	20.726270
946.271696	-2.991700	3.617000	-10.820000	25.190008	0.000924	20.696919
947.266940	-2.994400	3.615700	-10.826000	25.207304	0.000924	20.725191
948.270438	-3.005400	3.615000	-10.862000	25.214127	0.000924	20.726826
949.275333	-3.008100	3.614900	-10.873000	25.211562	0.000924	20.709077
950.270195	-3.005300	3.615100	-10.864000	25.200903	0.000925	20.709281
951.274773	-2.981600	3.615700	-10.780000	25.205577	0.000923	20.717767
952.273216	-3.001300	3.615000	-10.847000	25.188070	0.000921	20.714889
953.274928	-2.979400	3.614600	-10.768000	25.213004	0.000922	20.708627
954.270587	-2.968700	3.615500	-10.731000	25.243050	0.000922	20.735001
955.275716	-2.986900	3.614400	-10.795000	25.232392	0.000921	20.731886
956.270538	-2.992400	3.613400	-10.812000	25.264009	0.000920	20.716214
957.272100	-2.986000	3.612600	-10.786000	25.285627	0.000921	20.721798
958.273412	-2.983800	3.613900	-10.781000	25.252618	0.000920	20.728960
959.273950	-2.995300	3.613400	-10.822000	25.276085	0.000921	20.711742
960.272915	-2.992400	3.612700	-10.809000	25.251991	0.000920	20.721691
961.272870	-2.994400	3.611900	-10.815000	25.228410	0.000920	20.724095
962.273138	-2.990000	3.613000	-10.801000	25.228605	0.000918	20.725714
963.281702	-2.981400	3.612600	-10.771000	25.221961	0.000917	20.721888
964.272831	-3.001800	3.611100	-10.838000	25.224672	0.000918	20.728878
965.283507	-3.005900	3.611200	-10.854000	25.223166	0.000919	20.725943
966.279088	-2.989400	3.610400	-10.792000	25.233548	0.000917	20.716925
967.273583	-2.987600	3.610200	-10.785000	25.247822	0.000917	20.708022
968.275919	-3.012600	3.609100	-10.871000	25.244630	0.000916	20.732794
969.282438	-2.988600	3.609100	-10.785000	25.244834	0.000916	20.722566
970.272975	-3.003300	3.609300	-10.839000	25.261615	0.000915	20.724242
971.283788	-3.001100	3.608300	-10.827000	25.266981	0.000916	20.727733
972.276097	-2.994500	3.608700	-10.805000	25.240257	0.000913	20.724136
973.275247	-2.985600	3.608400	-10.773000	25.240632	0.000913	20.717399
974.275354	-2.992900	3.607600	-10.796000	25.253839	0.000914	20.719280
975.280633	-2.983500	3.609000	-10.766000	25.261461	0.000913	20.731674
976.277637	-3.008700	3.607600	-10.852000	25.280628	0.000913	20.722942
977.280032	-2.999600	3.606200	-10.815000	25.322235	0.000911	20.713982
978.277019	-3.006800	3.606000	-10.840000	25.319751	0.000911	20.710066
979.278051	-2.984400	3.606600	-10.763000	25.309785	0.000912	20.712862
980.278347	-2.990000	3.605000	-10.778000	25.301611	0.000911	20.721724
981.275670	-3.007000	3.606000	-10.842000	25.277550	0.000910	20.724594
982.279910	-3.011700	3.605200	-10.856000	25.252219	0.000909	20.725714
983.278633	-3.006100	3.606200	-10.840000	25.203574	0.000912	20.724765
984.278389	-3.023000	3.604800	-10.896000	25.194348	0.000910	20.736841
985.282367	-2.982300	3.605100	-10.750000	25.174504	0.000910	20.701743
986.279081	-2.994800	3.604300	-10.793000	25.166344	0.000909	20.742392
987.281954	-3.000000	3.604100	-10.811000	25.209624	0.000907	20.735108
988.278821	-3.010200	3.603300	-10.845000	25.167346	0.000909	20.713050
989.282693	-2.986100	3.602700	-10.757000	25.183428	0.000907	20.716394
990.283811	-3.006800	3.602600	-10.831000	25.171580	0.000907	20.727733
991.279936	-2.979300	3.604200	-10.736000	25.231325	0.000906	20.724651
992.282748	-2.990600	3.603000	-10.774000	25.233019	0.000906	20.727774
993.280165	-2.991700	3.602600	-10.777000	25.241137	0.000907	20.740193
994.279909	-2.969200	3.603500	-10.698000	25.273585	0.000906	20.726303
995.283662	-2.979500	3.602300	-10.731000	25.279000	0.000903	20.732213
996.281869	-2.998700	3.601600	-10.799000	25.316332	0.000906	20.717064
997.280650	-2.999600	3.600300	-10.797000	25.342207	0.000904	20.737830
998.284862	-3.016200	3.598600	-10.853000	25.327299	0.000904	20.738034
999.281231	-2.973000	3.600400	-10.703000	25.321526	0.000902	20.742196
1000.285159	-2.999400	3.598800	-10.793000	25.300772	0.000901	20.735582
1001.282476	-2.992000	3.599100	-10.768000	25.304526	0.000902	20.740773
1002.287668	-3.032700	3.597300	-10.908000	25.336068	0.000901	20.753952
1003.285059	-2.972600	3.599100	-10.697000	25.329758	0.000901	20.740978
1004.282054	-3.022600	3.598300	-10.875000	25.322894	0.000902	20.739302
1005.284786	-2.993100	3.598800	-10.771000	25.333878	0.000901	20.739424
1006.283647	-3.009100	3.597100	-10.823000	25.317529	0.000900	20.727275
1007.283046	-3.006200	3.597500	-10.814000	25.321306	0.000900	20.750984
1008.286953	-3.020300	3.596000	-10.860000	25.300430	0.000901	20.752309
1009.285571	-3.032000	3.596300	-10.902000	25.323317	0.000900	20.743046
1010.282493	-2.987700	3.597700	-10.747000	25.289194	0.000899	20.715421
1011.283746	-3.005500	3.595800	-10.806000	25.288551	0.000898	20.747019
1012.286171	-2.999400	3.595300	-10.783000	25.301570	0.000899	20.722632
1013.282567	-3.001800	3.595900	-10.793000	25.277257	0.000898	20.749905
1014.286815	-2.981700	3.596400	-10.723000	25.272437	0.000898	20.725150
1015.282096	-2.989600	3.595000	-10.747000	25.272583	0.000896	20.739522
1016.289629	-3.013500	3.594000	-10.829000	25.281833	0.000897	20.730317
1017.284322	-3.013500	3.593400	-10.828000	25.306292	0.000898	20.725951
1018.283978	-3.013200	3.594500	-10.830000	25.315485	0.000894	20.752726
1019.290399	-3.016000	3.592900	-10.835000	25.315265	0.000894	20.751082
1020.286294	-2.991800	3.594600	-10.753000	25.307237	0.000894	20.741125
1021.290193	-3.006500	3.593300	-10.803000	25.323269	0.000894	20.750110
1022.291945	-2.984700	3.593500	-10.724000	25.328015	0.000893	20.758669
1023.288402	-2.987500	3.593500	-10.735000	25.346156	0.000893	20.743218
1024.291116	-2.986100	3.593100	-10.728000	25.364247	0.000893	20.742416
1025.288946	-2.993100	3.592500	-10.752000	25.371981	0.000892	20.739277
1026.295614	-3.000700	3.592500	-10.779000	25.372274	0.000893	20.754271
1027.290493	-2.980000	3.592600	-10.703000	25.349160	0.000893	20.740070
1028.292377	-3.006800	3.589500	-10.791000	25.334505	0.000891	20.761866
1029.289198	-2.979000	3.591300	-10.698000	25.294511	0.000889	20.747788
1030.289081	-2.976000	3.590400	-10.683000	25.277461	0.000890	20.742049
1031.287018	-2.985100	3.591800	-10.720000	25.256453	0.000890	20.743716
1032.288924	-2.995800	3.590000	-10.753000	25.278926	0.000889	20.728821
1033.289422	-2.997900	3.590200	-10.762000	25.279097	0.000889	20.737053
1034.289434	-2.982300	3.589400	-10.704000	25.288192	0.000886	20.748556
1035.286030	-3.008500	3.586900	-10.789000	25.272876	0.000887	20.746929
1036.289616	-3.010700	3.588600	-10.803000	25.291995	0.000887	20.770392
1037.292752	-2.996400	3.588500	-10.752000	25.291132	0.000889	20.743447
1038.288641	-3.018900	3.588300	-10.831000	25.331191	0.000886	20.761383
1039.291224	-2.995200	3.587800	-10.745000	25.365053	0.000886	20.765512
1040.295386	-3.004100	3.587800	-10.776000	25.391147	0.000884	20.738607
1041.293146	-2.984700	3.588000	-10.707000	25.407446	0.000886	20.734584
1042.292322	-2.999600	3.587300	-10.759000	25.391171	0.000883	20.766133
1043.289640	-3.007200	3.586700	-10.786000	25.410564	0.000882	20.766640
1044.293161	-3.022200	3.586500	-10.837000	25.402838	0.000884	20.770262
1045.290566	-2.996900	3.587300	-10.750000	25.378755	0.000883	20.752243
1046.295393	-3.016900	3.585400	-10.815000	25.359972	0.000883	20.752824
1047.290696	-2.987900	3.585900	-10.712000	25.366030	0.000883	20.756061
1048.299618	-2.996100	3.587100	-10.746000	25.341784	0.000881	20.758743
1049.293587	-3.025600	3.583700	-10.841000	25.312521	0.000881	20.748802
1050.290385	-3.002400	3.584500	-10.761000	25.299437	0.000878	20.749415
1051.293852	-2.998900	3.584100	-10.746000	25.303809	0.000880	20.750486
1052.293774	-3.000100	3.583500	-10.749000	25.320932	0.000880	20.780007
1053.290198	-2.992000	3.583300	-10.720000	25.336117	0.000877	20.757320
1054.289940	-2.987300	3.584900	-10.708000	25.365305	0.000879	20.756756
1055.293772	-2.969800	3.584400	-10.644000	25.376468	0.000879	20.761800
1056.292505	-3.015800	3.582100	-10.802000	25.391179	0.000877	20.758555
1057.293127	-2.998100	3.582400	-10.739000	25.429949	0.000878	20.752440
1058.290989	-3.006700	3.583100	-10.771000	25.431170	0.000876	20.777848
1059.291951	-3.000100	3.582000	-10.746000	25.462782	0.000876	20.747951
1060.294119	-2.982700	3.581700	-10.681000	25.458540	0.000875	20.775936
1061.297987	-3.012400	3.579400	-10.782000	25.470735	0.000876	20.762577
1062.300321	-3.000100	3.581400	-10.742000	25.474269	0.000875	20.762332
1063.298364	-2.984700	3.579900	-10.683000	25.484331	0.000876	20.772911
1064.299584	-2.986800	3.579600	-10.690000	25.495190	0.000873	20.781920
1065.299505	-2.989100	3.580600	-10.701000	25.503119	0.000874	20.760958
1066.309461	-2.994800	3.578500	-10.716000	25.510031	0.000872	20.781650
1067.299422	-2.991000	3.580100	-10.707000	25.506074	0.000872	20.769142
1068.300937	-3.011900	3.577600	-10.774000	25.512058	0.000872	20.765667
1069.297378	-3.015500	3.577300	-10.786000	25.508590	0.000871	20.761711
1070.299935	-3.010000	3.578400	-10.771000	25.488214	0.000871	20.755947
1071.301700	-2.980400	3.579300	-10.667000	25.492781	0.000872	20.754369
1072.301609	-2.997700	3.578300	-10.725000	25.496884	0.000870	20.752325
1073.298572	-2.981200	3.578000	-10.666000	25.493473	0.000870	20.798213
1074.299119	-3.000500	3.576500	-10.730000	25.482588	0.000870	20.770213
1075.302573	-2.999500	3.576200	-10.725000	25.466885	0.000868	20.771987
1076.299402	-3.002800	3.575400	-10.734000	25.480447	0.000869	20.781813
1077.302398	-2.968900	3.576300	-10.616000	25.503860	0.000869	20.788730
1078.301591	-2.982200	3.575900	-10.663000	25.511081	0.000869	20.783179
1079.302750	-3.010200	3.575200	-10.761000	25.506986	0.000866	20.784282
1080.299599	-3.011800	3.574600	-10.765000	25.517642	0.000866	20.757051
1081.301045	-3.023700	3.572600	-10.801000	25.531359	0.000865	20.777464
1082.305929	-3.002800	3.574400	-10.733000	25.562414	0.000864	20.793479
1083.302222	-2.982100	3.574000	-10.657000	25.571890	0.000865	20.777391
1084.306036	-2.992400	3.573200	-10.691000	25.578393	0.000863	20.783923
1085.305166	-3.000500	3.572300	-10.717000	25.596114	0.000863	20.781331
1086.302678	-2.989600	3.573700	-10.681000	25.576985	0.000865	20.785827
1087.302981	-3.014900	3.572600	-10.770000	25.569423	0.000862	20.774913
1088.307700	-3.022800	3.571800	-10.795000	25.581666	0.000862	20.765872
1089.304589	-3.007900	3.570800	-10.739000	25.561885	0.000863	20.791051
1090.314210	-3.015100	3.572600	-10.771000	25.568471	0.000863	20.781069
1091.307040	-3.010600	3.571000	-10.749000	25.560623	0.000862	20.785991
1092.303292	-3.001900	3.571200	-10.719000	25.580070	0.000861	20.802202
1093.315656	-3.002100	3.571000	-10.720000	25.563367	0.000858	20.797755
1094.308131	-2.976500	3.571600	-10.629000	25.587600	0.000861	20.791746
1095.318303	-2.996400	3.569700	-10.695000	25.581405	0.000858	20.795482
1096.306313	-2.984700	3.569900	-10.655000	25.565605	0.000859	20.784356
1097.315765	-3.003100	3.570600	-10.720000	25.585410	0.000857	20.785754
1098.309766	-3.004400	3.570500	-10.726000	25.607022	0.000856	20.816467
1099.308817	-2.988100	3.569100	-10.664000	25.579240	0.000856	20.786669
1100.309553	-2.968400	3.569800	-10.596000	25.565792	0.000853	20.812045
1101.309228	-2.989300	3.568200	-10.665000	25.566834	0.000857	20.794125
1102.307248	-2.990600	3.567100	-10.667000	25.570164	0.000856	20.786563
1103.312329	-3.014500	3.566800	-10.751000	25.569919	0.000855	20.799120
1104.311523	-3.015800	3.567000	-10.756000	25.587925	0.000854	20.806772
1105.310615	-3.002200	3.566400	-10.706000	25.582594	0.000853	20.795727
1106.312471	-3.019900	3.566600	-10.770000	25.599655	0.000853	20.810017
1107.311594	-3.001000	3.565700	-10.700000	25.588446	0.000852	20.794493
1108.312566	-3.011700	3.565500	-10.737000	25.575577	0.000852	20.810017
1109.315316	-2.995800	3.566500	-10.682000	25.588699	0.000853	20.796643
1110.312600	-2.989000	3.565500	-10.656000	25.586379	0.000851	20.799054
1111.310565	-2.985300	3.565800	-10.644000	25.581185	0.000851	20.800951
1112.312729	-3.005700	3.564500	-10.712000	25.546891	0.000850	20.788321
1113.309221	-2.972600	3.564200	-10.595000	25.557449	0.000848	20.803191
1114.312503	-2.987100	3.564700	-10.647000	25.580705	0.000850	20.793356
1115.314755	-3.016100	3.564500	-10.749000	25.597351	0.000849	20.790634
1116.312249	-3.004100	3.563500	-10.702000	25.593973	0.000849	20.809052
1117.314855	-2.987600	3.565000	-10.649000	25.605296	0.000848	20.816631
1118.316196	-2.982500	3.563500	-10.627000	25.597742	0.000850	20.805725
1119.312308	-3.002900	3.563000	-10.698000	25.597042	0.000847	20.803600
1120.317383	-2.991300	3.563900	-10.659000	25.550839	0.000847	20.824053
1121.312433	-3.002200	3.561600	-10.692000	25.579110	0.000846	20.822100
1122.318374	-2.996000	3.562300	-10.671000	25.571458	0.000846	20.800191
1123.317334	-3.010000	3.561600	-10.720000	25.536219	0.000844	20.803207
1124.316783	-2.991100	3.562900	-10.654000	25.527769	0.000845	20.820326
1125.316226	-3.003700	3.560800	-10.695000	25.518375	0.000845	20.824168
1126.319057	-3.002900	3.559500	-10.688000	25.554380	0.000843	20.787307
1127.315778	-3.006700	3.559500	-10.702000	25.558320	0.000843	20.817816
1128.317078	-2.997700	3.560800	-10.673000	25.586338	0.000843	20.833152
1129.319585	-3.015700	3.559000	-10.731000	25.593998	0.000842	20.805758
1130.316951	-3.015200	3.558300	-10.728000	25.612378	0.000840	20.830381
1131.320476	-3.019600	3.557400	-10.740000	25.625865	0.000840	20.824961
1132.318608	-3.029200	3.557100	-10.774000	25.616423	0.000838	20.829228
1133.320035	-2.988400	3.559900	-10.638000	25.619174	0.000839	20.808758
1134.319830	-3.016200	3.556900	-10.727000	25.618930	0.000840	20.828427
1135.317595	-2.986200	3.557100	-10.621000	25.633574	0.000839	20.822271
1136.324347	-2.984300	3.556700	-10.611000	25.609252	0.000838	20.839569
1137.318461	-3.013100	3.556800	-10.716000	25.642120	0.000839	20.828958
1138.322619	-2.997200	3.555900	-10.657000	25.646190	0.000837	20.826882
1139.319624	-3.032100	3.554300	-10.776000	25.666791	0.000836	20.839986
1140.318347	-3.033200	3.554800	-10.782000	25.681760	0.000835	20.844115
1141.321013	-2.995800	3.554600	-10.648000	25.722854	0.000836	20.842717
1142.323235	-3.008100	3.554200	-10.691000	25.726012	0.000834	20.834509
1143.320921	-2.983300	3.555900	-10.607000	25.730830	0.000833	20.825599
1144.323493	-2.989900	3.553300	-10.623000	25.743120	0.000833	20.818029
1145.323239	-2.996000	3.554000	-10.645000	25.754799	0.000833	20.835449
1146.319568	-2.999800	3.553300	-10.658000	25.798699	0.000833	20.843984
1147.325892	-3.007000	3.552000	-10.679000	25.771940	0.000833	20.837967
1148.322042	-3.016300	3.553100	-10.716000	25.790097	0.000835	20.839136
1149.326005	-2.994500	3.554100	-10.642000	25.794223	0.000830	20.851341
1150.323111	-2.991500	3.554100	-10.631000	25.787639	0.000830	20.828133
1151.322059	-3.012900	3.552600	-10.703000	25.807236	0.000830	20.840706
1152.324362	-3.019900	3.551600	-10.723000	25.812534	0.000829	20.830381
1153.333503	-2.963900	3.553200	-10.531000	25.804030	0.000830	20.861666
1154.324081	-3.011400	3.551200	-10.692000	25.778939	0.000831	20.826506
1155.328373	-3.004800	3.551800	-10.671000	25.760204	0.000830	20.845619
1156.326171	-3.019000	3.549400	-10.713000	25.755385	0.000829	20.836986
1157.325849	-2.995100	3.550300	-10.633000	25.719289	0.000828	20.834869
1158.331203	-3.008600	3.550300	-10.680000	25.675810	0.000826	20.865638
1159.327037	-3.006100	3.551100	-10.673000	25.678911	0.000828	20.829874
1160.330414	-2.996600	3.549200	-10.634000	25.659507	0.000828	20.843575
1161.332414	-3.032800	3.547800	-10.759000	25.671455	0.000826	20.849886
1162.327337	-2.997500	3.550000	-10.640000	25.681621	0.000824	20.846820
1163.329196	-3.007000	3.548700	-10.669000	25.694294	0.000824	20.851962
1164.326912	-3.001200	3.547800	-10.646000	25.708684	0.000825	20.880639
1165.331267	-2.989500	3.548500	-10.607000	25.716555	0.000825	20.839708
1166.332458	-2.982000	3.548200	-10.580000	25.715863	0.000823	20.874573
1167.327734	-2.990400	3.546900	-10.605000	25.733948	0.000822	20.867134
1168.331438	-3.002900	3.547000	-10.650000	25.733769	0.000824	20.853679
1169.333185	-3.005400	3.546700	-10.658000	25.741330	0.000821	20.857954
1170.333175	-3.025800	3.544800	-10.725000	25.753945	0.000821	20.848341
1171.333957	-3.014100	3.545300	-10.685000	25.763418	0.000821	20.831779
1172.333654	-3.018700	3.545400	-10.702000	25.754922	0.000821	20.848848
1173.333086	-3.041500	3.543000	-10.773000	25.758926	0.000822	20.845284
1174.339467	-2.989100	3.545600	-10.597000	25.741631	0.000818	20.849722
1175.338290	-2.990600	3.546000	-10.603000	25.747401	0.000822	20.843191
1176.333293	-2.979100	3.544300	-10.558000	25.718109	0.000819	20.839373
1177.337338	-2.994900	3.545700	-10.617000	25.677039	0.000818	20.844115
1178.338536	-3.000700	3.544700	-10.635000	25.686977	0.000818	20.851251
1179.343890	-3.005200	3.543500	-10.649000	25.693138	0.000817	20.845112
1180.338866	-3.005300	3.543100	-10.646000	25.671471	0.000816	20.840894
1181.339385	-3.004800	3.541900	-10.640000	25.644245	0.000816	20.829196
1182.340402	-3.020800	3.540300	-10.692000	25.649910	0.000815	20.837256
1183.337430	-2.985500	3.542100	-10.573000	25.627770	0.000814	20.845839
1184.343655	-2.979200	3.541700	-10.551000	25.617628	0.000815	20.837550
1185.338126	-3.009200	3.541000	-10.654000	25.613859	0.000814	20.822860
1186.342639	-3.010000	3.540500	-10.656000	25.590774	0.000813	20.832392
1187.340622	-3.002500	3.540700	-10.629000	25.583790	0.000812	20.827749
1188.341433	-2.994900	3.540100	-10.601000	25.599175	0.000812	20.831820
1189.345701	-2.970900	3.540800	-10.519000	25.642487	0.000811	20.831223
1190.342360	-3.009500	3.538900	-10.649000	25.631970	0.000811	20.824928
1191.344171	-2.986200	3.539300	-10.568000	25.652344	0.000811	20.811726
1192.342458	-3.006100	3.537400	-10.631000	25.664651	0.000811	20.834991
1193.344186	-3.002500	3.538600	-10.623000	25.667581	0.000809	20.838883
1194.345444	-2.999700	3.539400	-10.616000	25.662192	0.000809	20.833471
1195.353869	-3.003600	3.537700	-10.625000	25.689817	0.000809	20.813802
1196.345179	-3.007500	3.537100	-10.637000	25.675500	0.000809	20.837828
1197.350074	-3.006100	3.535200	-10.626000	25.646361	0.000806	20.829424
1198.347570	-2.981900	3.539200	-10.553000	25.660092	0.000808	20.815715
1199.343625	-3.001600	3.535500	-10.611000	25.644619	0.000808	20.812977
1200.347332	-2.987300	3.535600	-10.560000	25.656837	0.000807	20.818135
1201.349157	-2.984500	3.537100	-10.555000	25.661012	0.000807	20.829915
1202.343622	-2.985300	3.536500	-10.556000	25.683103	0.000807	20.807058
1203.345280	-2.995100	3.535100	-10.586000	25.699047	0.000805	20.845831
1204.349211	-2.989200	3.534900	-10.565000	25.703247	0.000803	20.817808
1205.352036	-2.988500	3.534800	-10.563000	25.720917	0.000803	20.803788
1206.349779	-2.979700	3.534400	-10.530000	25.732735	0.000803	20.818503
1207.348288	-3.001300	3.533100	-10.603000	25.711191	0.000802	20.818675
1208.350101	-2.985900	3.533200	-10.548000	25.696435	0.000801	20.814759
1209.347220	-3.002400	3.533600	-10.607000	25.667784	0.000801	20.829130
1210.347324	-2.974500	3.533600	-10.510000	25.615210	0.000802	20.820424
1211.352951	-3.034900	3.532000	-10.718000	25.591369	0.000799	20.797428
1212.347760	-2.986900	3.530700	-10.545000	25.584661	0.000799	20.810606
1213.358351	-3.007200	3.532700	-10.622000	25.615324	0.000797	20.829073
1214.349135	-2.986700	3.531300	-10.545000	25.623131	0.000801	20.797084
1215.349726	-3.016400	3.529600	-10.645000	25.659604	0.000800	20.816173
1216.356420	-2.952700	3.532100	-10.429000	25.678504	0.000798	20.826146
1217.354061	-2.985000	3.531900	-10.541000	25.700024	0.000799	20.818364
1218.349708	-2.988100	3.530600	-10.548000	25.688743	0.000795	20.792335
1219.354774	-2.978300	3.530400	-10.512000	25.714829	0.000797	20.784397
1220.350550	-3.000800	3.528900	-10.588000	25.749615	0.000797	20.814121
1221.353755	-2.988700	3.528600	-10.545000	25.744512	0.000796	20.794297
1222.354839	-2.992700	3.529300	-10.561000	25.741484	0.000794	20.788885
1223.356973	-3.002400	3.527200	-10.589000	25.719167	0.000794	20.817677
1224.355832	-2.978100	3.528100	-10.506000	25.678569	0.000792	20.807246
1225.354425	-2.985000	3.529400	-10.534000	25.618719	0.000794	20.793128
1226.354790	-3.005100	3.527400	-10.599000	25.605370	0.000795	20.814334
1227.354721	-2.985900	3.527200	-10.531000	25.634689	0.000794	20.798736
1228.351939	-2.976400	3.527500	-10.498000	25.641901	0.000793	20.800763
1229.357297	-3.002900	3.525200	-10.585000	25.664626	0.000790	20.807467
1230.357675	-3.009400	3.527400	-10.614000	25.684348	0.000791	20.798826
1231.358892	-3.019400	3.524400	-10.641000	25.700089	0.000789	20.780971
1232.358017	-3.017900	3.524100	-10.635000	25.698527	0.000792	20.814963
1233.360159	-3.014500	3.524700	-10.623000	25.703842	0.000790	20.786637
1234.358075	-2.991500	3.526200	-10.547000	25.715570	0.000789	20.776606
1235.356669	-2.984500	3.525400	-10.521000	25.701864	0.000788	20.773270
1236.361062	-2.993400	3.525000	-10.550000	25.700838	0.000788	20.777456
1237.360796	-2.996300	3.524600	-10.559000	25.659865	0.000788	20.788934
1238.359700	-3.003100	3.523400	-10.581000	25.663503	0.000787	20.786898
1239.356561	-2.992300	3.523700	-10.543000	25.660190	0.000788	20.794002
1240.360542	-3.013600	3.522100	-10.612000	25.620591	0.000786	20.800698
1241.360261	-2.989400	3.523200	-10.532000	25.655990	0.000786	20.788362
1242.356239	-2.995000	3.521900	-10.546000	25.677511	0.000786	20.787217
1243.361650	-2.997300	3.523500	-10.561000	25.653858	0.000786	20.784797
1244.358239	-2.999000	3.521800	-10.560000	25.664398	0.000783	20.791117
1245.368955	-2.987300	3.521700	-10.519000	25.717784	0.000784	20.790209
1246.363347	-2.996400	3.519600	-10.545000	25.727404	0.000785	20.786122
1247.359178	-3.001800	3.520700	-10.568000	25.738709	0.000783	20.795580
1248.364061	-3.000000	3.521100	-10.563000	25.746132	0.000782	20.796398
1249.360284	-2.993600	3.519400	-10.534000	25.754384	0.000782	20.775290
1250.363945	-2.997700	3.519100	-10.548000	25.782935	0.000783	20.788321
1251.360565	-2.998600	3.518800	-10.551000	25.771622	0.000781	20.783596
1252.362200	-3.007100	3.517600	-10.576000	25.793629	0.000780	20.808546
1253.364295	-2.994300	3.517900	-10.533000	25.796860	0.000780	20.776230
1254.361876	-2.991300	3.518600	-10.524000	25.801531	0.000780	20.784241
1255.363351	-3.004600	3.517300	-10.566000	25.783985	0.000781	20.779892
1256.363829	-3.041000	3.516500	-10.693000	25.790919	0.000779	20.770736
1257.366282	-3.010400	3.516600	-10.585000	25.751593	0.000777	20.793823
1258.360620	-3.012200	3.516700	-10.592000	25.705128	0.000779	20.771333
1259.367353	-3.005600	3.516200	-10.568000	25.685422	0.000777	20.775723
1260.363386	-2.997100	3.516100	-10.537000	25.685716	0.000775	20.763215
1261.364485	-3.001200	3.516400	-10.553000	25.715074	0.000776	20.777056
1262.363380	-2.997700	3.515800	-10.537000	25.737383	0.000776	20.777178
1263.362972	-3.015000	3.515600	-10.597000	25.738310	0.000774	20.773843
1264.367497	-3.009300	3.513800	-10.574000	25.797812	0.000774	20.772919
1265.365420	-2.997200	3.514500	-10.533000	25.813731	0.000774	20.778952
1266.366102	-3.014700	3.513600	-10.590000	25.808238	0.000773	20.789081
1267.368083	-2.987200	3.513000	-10.493000	25.792237	0.000774	20.789605
1268.372601	-2.999300	3.513000	-10.534000	25.749387	0.000772	20.769322
1269.369157	-3.018200	3.511400	-10.595000	25.721707	0.000771	20.781348
1270.366318	-2.986200	3.512500	-10.488000	25.713755	0.000772	20.778576
1271.375187	-3.004500	3.512300	-10.552000	25.739483	0.000771	20.772175
1272.369307	-2.999300	3.511700	-10.531000	25.726590	0.000772	20.768709
1273.365647	-2.987800	3.512300	-10.493000	25.741721	0.000768	20.784381
1274.367344	-3.005300	3.509900	-10.547000	25.742836	0.000769	20.768905
1275.369237	-3.000300	3.510300	-10.530000	25.771281	0.000769	20.774718
1276.364520	-3.007300	3.510300	-10.556000	25.739304	0.000767	20.771047
1277.366169	-3.002500	3.509600	-10.537000	25.744366	0.000770	20.776606
1278.369605	-2.998900	3.508100	-10.519000	25.727120	0.000767	20.769240
1279.367343	-3.000100	3.509000	-10.526000	25.766487	0.000767	20.783653
1280.374391	-2.981300	3.509200	-10.461000	25.778125	0.000768	20.753617
1281.368932	-2.959600	3.510500	-10.388000	25.782553	0.000767	20.787463
1282.370630	-3.014700	3.507600	-10.573000	25.798073	0.000766	20.761801
1283.367939	-3.015100	3.508900	-10.578000	25.822993	0.000765	20.766919
1284.369942	-2.994200	3.507900	-10.501000	25.808148	0.000763	20.794682
1285.374440	-2.990400	3.506400	-10.485000	25.787558	0.000765	20.767834
1286.373160	-2.999000	3.505900	-10.512000	25.765022	0.000763	20.779811
1287.369555	-2.989100	3.507300	-10.483000	25.748875	0.000762	20.771178
1288.370722	-2.982100	3.505800	-10.454000	25.717996	0.000764	20.761498
1289.370316	-2.991200	3.505300	-10.483000	25.727747	0.000762	20.755171
1290.368801	-3.036700	3.502900	-10.636000	25.722733	0.000760	20.763886
1291.370633	-3.008300	3.505100	-10.543000	25.725419	0.000761	20.754255
1292.373737	-2.994500	3.504800	-10.494000	25.727226	0.000762	20.748009
1293.373394	-3.004000	3.505600	-10.530000	25.751675	0.000759	20.768300
1294.374778	-3.007500	3.503400	-10.536000	25.748696	0.000758	20.769576
1295.376548	-2.989900	3.504900	-10.476000	25.800816	0.000759	20.755547
1296.387179	-2.991600	3.502300	-10.476000	25.824515	0.000756	20.772715
1297.377492	-2.990100	3.504400	-10.478000	25.856359	0.000755	20.763927
1298.372724	-2.995300	3.501300	-10.486000	25.876859	0.000756	20.757019
1299.374400	-3.010700	3.501600	-10.541000	25.906814	0.000756	20.750601
1300.370152	-2.990900	3.501300	-10.471000	25.900434	0.000755	20.775486
1301.372361	-3.016300	3.500000	-10.556000	25.902745	0.000752	20.763583
1302.374652	-2.971600	3.501000	-10.401000	25.899335	0.000753	20.754942
1303.371189	-2.962500	3.501700	-10.373000	25.871789	0.000752	20.772314
1304.375105	-2.991100	3.500400	-10.469000	25.896487	0.000753	20.745442
1305.371350	-3.009400	3.498800	-10.527000	25.923040	0.000752	20.758367
1306.371697	-2.997000	3.499500	-10.487000	25.937720	0.000752	20.762210
1307.378500	-3.003700	3.498100	-10.506000	25.930193	0.000750	20.742319
1308.376143	-2.996400	3.497900	-10.480000	25.939827	0.000751	20.751525
1309.371457	-3.015500	3.496500	-10.542000	25.952416	0.000752	20.749947
1310.376703	-2.998600	3.496600	-10.482000	25.960423	0.000749	20.758940
1311.379973	-2.986100	3.497000	-10.441000	25.953742	0.000751	20.743693
1312.376664	-2.971700	3.497600	-10.393000	25.950731	0.000748	20.749677
1313.380716	-2.981700	3.497600	-10.427000	25.996161	0.000747	20.751222
1314.376497	-2.984800	3.496700	-10.436000	25.999042	0.000749	20.749375
1315.378715	-3.005800	3.495800	-10.506000	25.979098	0.000748	20.733604
1316.381777	-3.006800	3.495300	-10.509000	25.953433	0.000748	20.751443
1317.389556	-3.031700	3.494000	-10.590000	25.902810	0.000745	20.757959
1318.381077	-3.004200	3.494300	-10.497000	25.836535	0.000745	20.748753
1319.382667	-2.992700	3.494000	-10.455000	25.822423	0.000743	20.742164
1320.381058	-2.969900	3.494400	-10.377000	25.766447	0.000742	20.736670
1321.382383	-2.985800	3.494800	-10.434000	25.748859	0.000742	20.762627
1322.386215	-2.990900	3.494000	-10.449000	25.754621	0.000744	20.745181
1323.385444	-2.963200	3.495000	-10.353000	25.738197	0.000742	20.739589
1324.383329	-2.993500	3.493500	-10.457000	25.709409	0.000741	20.736278
1325.386127	-3.017300	3.491000	-10.533000	25.744041	0.000741	20.728388
1326.379530	-3.005100	3.492500	-10.495000	25.750006	0.000741	20.728691
1327.385142	-3.021000	3.489300	-10.540000	25.780616	0.000741	20.746636
1328.380015	-3.010600	3.490700	-10.507000	25.759073	0.000738	20.745859
1329.386524	-3.019500	3.489200	-10.534000	25.776441	0.000741	20.734381
1330.379140	-3.012600	3.489200	-10.510000	25.787273	0.000741	20.750478
1331.382788	-3.019100	3.487800	-10.528000	25.787802	0.000740	20.749113
1332.385568	-3.011400	3.488000	-10.502000	25.822683	0.000737	20.742900
1333.382487	-2.999000	3.489900	-10.464000	25.805373	0.000740	20.752064
1334.386271	-3.032100	3.486000	-10.568000	25.819160	0.000737	20.743153
1335.387140	-2.992900	3.488700	-10.440000	25.825125	0.000736	20.735394
1336.389759	-2.990300	3.488400	-10.430000	25.811290	0.000737	20.752318
1337.382288	-2.992100	3.486300	-10.431000	25.798521	0.000737	20.749922
1338.383747	-2.996100	3.487900	-10.449000	25.809784	0.000733	20.733735
1339.385473	-3.006300	3.486300	-10.480000	25.797560	0.000736	20.730464
1340.385732	-2.985800	3.488100	-10.414000	25.833035	0.000735	20.744289
1341.382858	-2.997300	3.485200	-10.445000	25.868086	0.000734	20.725919
1342.386180	-3.013800	3.484800	-10.502000	25.855789	0.000734	20.739171
1343.387287	-3.016800	3.485500	-10.514000	25.878128	0.000733	20.725101
1344.383836	-2.995100	3.485400	-10.438000	25.884728	0.000735	20.739319
1345.389911	-2.997900	3.484000	-10.443000	25.842752	0.000735	20.728445
1346.385335	-3.001200	3.485400	-10.460000	25.844787	0.000734	20.729066
1347.385299	-3.009900	3.483200	-10.483000	25.841368	0.000732	20.739858
1348.389811	-3.008200	3.482300	-10.475000	25.856912	0.000732	20.743619
1349.386600	-3.016900	3.482300	-10.505000	25.848872	0.000730	20.737438
1350.390958	-2.994700	3.482400	-10.427000	25.814138	0.000729	20.724357
1351.388038	-2.987200	3.483500	-10.405000	25.800303	0.000731	20.723736
1352.390577	-3.024400	3.480500	-10.525000	25.760326	0.000730	20.735263
1353.388449	-3.006600	3.481600	-10.468000	25.734314	0.000728	20.722411
1354.390642	-2.983500	3.481800	-10.386000	25.745001	0.000729	20.729827
1355.393424	-2.985000	3.481800	-10.392000	25.765421	0.000727	20.727578
1356.394547	-2.989000	3.479700	-10.400000	25.783757	0.000726	20.727505
1357.389391	-3.000900	3.478500	-10.437000	25.799367	0.000725	20.728486
1358.388946	-3.006300	3.478700	-10.457000	25.788518	0.000725	20.729442
1359.389614	-3.029600	3.478300	-10.536000	25.773828	0.000725	20.724169
1360.388942	-3.005600	3.477800	-10.452000	25.807977	0.000725	20.737136
1361.393070	-2.972500	3.479100	-10.340000	25.833694	0.000724	20.744003
1362.394032	-3.010000	3.476900	-10.464000	25.855960	0.000723	20.723695
1363.395068	-2.968500	3.479600	-10.328000	25.875833	0.000724	20.736547
1364.394495	-2.991100	3.477000	-10.399000	25.889122	0.000721	20.715756
1365.397375	-2.984800	3.477200	-10.377000	25.905169	0.000723	20.729508
1366.395443	-2.994000	3.476900	-10.408000	25.951773	0.000723	20.718005
1367.391174	-3.012200	3.475100	-10.466000	25.954474	0.000721	20.731625
1368.394626	-3.002300	3.475400	-10.433000	25.966550	0.000723	20.739964
1369.396901	-2.998100	3.475000	-10.417000	25.984907	0.000721	20.716680
1370.392272	-2.988600	3.474300	-10.382000	25.971391	0.000721	20.724913
1371.396636	-3.005700	3.473000	-10.437000	25.990351	0.000721	20.742539
1372.396326	-2.956800	3.475800	-10.276000	25.979691	0.000719	20.728036
1373.391799	-3.004400	3.473000	-10.433000	25.993223	0.000719	20.722191
1374.397333	-2.971000	3.474700	-10.322000	25.962945	0.000720	20.733972
1375.396079	-2.991000	3.472500	-10.385000	25.989521	0.000721	20.727954
1376.393640	-3.003300	3.471200	-10.423000	26.003085	0.000720	20.722142
1377.395072	-2.980700	3.471600	-10.346000	26.021190	0.000718	20.708562
1378.393555	-2.964600	3.473000	-10.295000	26.010042	0.000718	20.718225
1379.395987	-2.981300	3.471100	-10.348000	26.037137	0.000719	20.727905
1380.391834	-2.984400	3.472700	-10.363000	26.041385	0.000715	20.713680
1381.393209	-3.008900	3.470800	-10.443000	26.058821	0.000718	20.728829
1382.395854	-3.003000	3.470600	-10.421000	26.042801	0.000715	20.733121
1383.405157	-2.997500	3.469700	-10.399000	26.004704	0.000715	20.719027
1384.395617	-2.961700	3.471300	-10.280000	25.949307	0.000713	20.714105
1385.399352	-3.020100	3.468300	-10.473000	25.923951	0.000714	20.743161
1386.397839	-3.008200	3.468200	-10.432000	25.891726	0.000714	20.723589
1387.395632	-3.017700	3.467500	-10.463000	25.901695	0.000713	20.730284
1388.399395	-3.010500	3.466600	-10.434000	25.925212	0.000712	20.727358
1389.396437	-3.011600	3.467300	-10.441000	25.936556	0.000713	20.717890
1390.403367	-2.989200	3.467300	-10.363000	25.931950	0.000711	20.718953
1391.399557	-3.014900	3.467000	-10.451000	25.886192	0.000710	20.729884
1392.397675	-2.981200	3.468100	-10.337000	25.864383	0.000709	20.707025
1393.400889	-2.981800	3.466300	-10.335000	25.845966	0.000710	20.743529
1394.403689	-2.986300	3.465700	-10.349000	25.832506	0.000709	20.743758
1395.397201	-2.976900	3.466100	-10.317000	25.817605	0.000710	20.730685
1396.401808	-2.982400	3.465300	-10.334000	25.826638	0.000708	20.715102
1397.397898	-2.975800	3.466900	-10.316000	25.841206	0.000707	20.750126
1398.401071	-3.002700	3.465700	-10.405000	25.848904	0.000707	20.742212
1399.405998	-3.001700	3.464500	-10.398000	25.863634	0.000708	20.746104
1400.399837	-3.013000	3.463400	-10.434000	25.881594	0.000708	20.745654
1401.400610	-2.993200	3.464100	-10.367000	25.888699	0.000707	20.743782
1402.400252	-3.017400	3.461400	-10.442000	25.915773	0.000706	20.734470
1403.405633	-3.023200	3.462300	-10.466000	25.909002	0.000706	20.723401
1404.401326	-2.998200	3.462700	-10.381000	25.920859	0.000705	20.746693
1405.402602	-3.006600	3.461600	-10.406000	25.916595	0.000705	20.719174
1406.415514	-3.036000	3.458700	-10.500000	25.930062	0.000704	20.734127
1407.404592	-2.991800	3.460900	-10.353000	25.867158	0.000703	20.721667
1408.403963	-2.977600	3.462100	-10.307000	25.855659	0.000701	20.755162
1409.405901	-2.999900	3.460800	-10.381000	25.866539	0.000700	20.741910
1410.404730	-3.014100	3.460800	-10.431000	25.823936	0.000703	20.729933
1411.405436	-2.993000	3.460400	-10.356000	25.846959	0.000701	20.728878
1412.401176	-3.003000	3.459200	-10.387000	25.843143	0.000702	20.726941
1413.402646	-3.007000	3.458600	-10.399000	25.890090	0.000701	20.722894
1414.408185	-2.990900	3.458300	-10.342000	25.885126	0.000700	20.747780
1415.411955	-3.023900	3.457700	-10.455000	25.901247	0.000698	20.739318
1416.407231	-3.020500	3.456400	-10.438000	25.898147	0.000699	20.737626
1417.406110	-2.985800	3.457500	-10.323000	25.891832	0.000698	20.730808
1418.402309	-3.000300	3.455100	-10.365000	25.891815	0.000698	20.727472
1419.405318	-3.004100	3.455700	-10.380000	25.879446	0.000699	20.747289
1420.417139	-2.991400	3.456300	-10.338000	25.865628	0.000699	20.729614
1421.403502	-3.006800	3.455900	-10.389000	25.902818	0.000697	20.737577
1422.404312	-3.014200	3.454500	-10.412000	25.930542	0.000698	20.753576
1423.407440	-3.015600	3.455300	-10.419000	25.932723	0.000696	20.754345
1424.405379	-2.976000	3.454400	-10.279000	25.907708	0.000695	20.732058
1425.409753	-3.013900	3.453400	-10.407000	25.919174	0.000694	20.742629
1426.405742	-2.990100	3.454000	-10.327000	25.891840	0.000696	20.746938
1427.413427	-3.005500	3.452300	-10.375000	25.874400	0.000695	20.745540
1428.412066	-3.001900	3.452000	-10.362000	25.893671	0.000694	20.743087
1429.407491	-2.989300	3.453000	-10.320000	25.906073	0.000695	20.740373
1430.414569	-2.994400	3.451100	-10.333000	25.923137	0.000693	20.732860
1431.413169	-3.028700	3.449800	-10.447000	25.905373	0.000693	20.729712
1432.409056	-3.032200	3.450500	-10.460000	25.920973	0.000692	20.738746
1433.425570	-2.991200	3.450500	-10.318000	25.872928	0.000691	20.749276
1434.413236	-3.014700	3.451300	-10.403000	25.857701	0.000692	20.742515
1435.421919	-2.982800	3.450500	-10.292000	25.875157	0.000691	20.753887
1436.413455	-2.990600	3.449400	-10.314000	25.901914	0.000689	20.747576
1437.414696	-2.989200	3.450500	-10.313000	25.908823	0.000687	20.765896
1438.415618	-3.007300	3.449600	-10.373000	25.954922	0.000688	20.742981
1439.414110	-2.968200	3.449900	-10.239000	25.939323	0.000687	20.754337
1440.412529	-2.973400	3.449300	-10.255000	25.982588	0.000688	20.752759
1441.421426	-3.001600	3.447800	-10.348000	25.968112	0.000687	20.760975
1442.414666	-3.001300	3.446800	-10.345000	25.958274	0.000687	20.754410
1443.421454	-2.997000	3.447500	-10.332000	25.939249	0.000686	20.748099
1444.414754	-2.987400	3.447900	-10.299000	25.959015	0.000686	20.757051
1445.418802	-2.999600	3.445500	-10.334000	25.937288	0.000686	20.757509
1446.423002	-3.000300	3.445400	-10.337000	25.925684	0.000687	20.761498
1447.424657	-2.994300	3.445100	-10.315000	25.926555	0.000685	20.748148
1448.418880	-2.993000	3.445000	-10.310000	25.917384	0.000685	20.758849
1449.419378	-3.007700	3.442700	-10.354000	25.901662	0.000685	20.740684
1450.417013	-2.999200	3.443900	-10.327000	25.917034	0.000684	20.768455
1451.418790	-2.972800	3.444500	-10.238000	25.953774	0.000683	20.774072
1452.420122	-3.002300	3.444500	-10.341000	25.953921	0.000681	20.732018
1453.416749	-3.003800	3.443900	-10.344000	25.958152	0.000682	20.750968
1454.419910	-3.006900	3.442300	-10.350000	25.951618	0.000679	20.738239
1455.424754	-2.996700	3.443000	-10.316000	25.957436	0.000679	20.756887
1456.418338	-2.983100	3.443200	-10.270000	25.940641	0.000681	20.755187
1457.429106	-2.999900	3.440800	-10.320000	25.913535	0.000677	20.764940
1458.420046	-3.004600	3.440100	-10.335000	25.869298	0.000679	20.750846
1459.420351	-3.001900	3.440000	-10.325000	25.878738	0.000678	20.761752
1460.418992	-2.986500	3.440400	-10.274000	25.877965	0.000676	20.762397
1461.419597	-3.023400	3.437900	-10.393000	25.896975	0.000677	20.758261
1462.424537	-2.990200	3.439500	-10.284000	25.878836	0.000677	20.768014
1463.422165	-2.986300	3.439600	-10.270000	25.908262	0.000678	20.757746
1464.419849	-3.004600	3.439700	-10.334000	25.927190	0.000676	20.765381
1465.422595	-2.966100	3.439200	-10.200000	25.960300	0.000674	20.773516
1466.422804	-2.983900	3.438700	-10.259000	26.022426	0.000674	20.775241
1467.418766	-3.003600	3.436800	-10.321000	26.025901	0.000675	20.763084
1468.421142	-2.995100	3.436900	-10.294000	26.026283	0.000674	20.758727
1469.424468	-3.002400	3.436600	-10.317000	26.030604	0.000673	20.739359
1470.428404	-3.019900	3.436500	-10.376000	26.055794	0.000673	20.761351
1471.422732	-3.008800	3.435700	-10.336000	26.059643	0.000672	20.760476
1472.424825	-2.994700	3.436000	-10.289000	26.063744	0.000672	20.771709
1473.429547	-2.998900	3.436300	-10.304000	26.041116	0.000672	20.786432
1474.425128	-2.995600	3.435700	-10.291000	26.013948	0.000672	20.758661
1475.421321	-2.998900	3.434800	-10.299000	25.967176	0.000671	20.771415
1476.421703	-2.971100	3.435500	-10.205000	25.958014	0.000670	20.766951
1477.425307	-2.976500	3.435700	-10.225000	25.949274	0.000670	20.775715
1478.421589	-2.981400	3.433700	-10.234000	25.950714	0.000669	20.758195
1479.432375	-2.999100	3.433600	-10.296000	25.980228	0.000669	20.788795
1480.424335	-2.982100	3.433500	-10.238000	25.970073	0.000668	20.778118
1481.428113	-2.986600	3.433200	-10.253000	25.980334	0.000669	20.774676
1482.424845	-2.999900	3.432600	-10.297000	25.948778	0.000666	20.772845
1483.422275	-2.987600	3.431600	-10.251000	25.941234	0.000667	20.779492
1484.428721	-3.019100	3.430800	-10.356000	25.949884	0.000665	20.762577
1485.428470	-3.008600	3.429900	-10.318000	25.975492	0.000665	20.779295
1486.426635	-3.032700	3.429100	-10.398000	25.986241	0.000666	20.771603
1487.429769	-3.006400	3.430000	-10.310000	26.005770	0.000666	20.783636
1488.426579	-2.995200	3.429700	-10.271000	26.024509	0.000665	20.769747
1489.430164	-2.987700	3.430900	-10.249000	26.040001	0.000664	20.792425
1490.430360	-2.984300	3.428900	-10.232000	26.032198	0.000662	20.767041
1491.423755	-3.011400	3.427000	-10.319000	26.054362	0.000663	20.767973
1492.430861	-2.987800	3.428100	-10.241000	26.044029	0.000663	20.777979
1493.427602	-3.001800	3.427200	-10.287000	26.066217	0.000663	20.792686
1494.427742	-3.009700	3.424800	-10.307000	26.078706	0.000662	20.800967
1495.431021	-2.982200	3.426600	-10.218000	26.059553	0.000663	20.783146
1496.430481	-2.986000	3.426800	-10.232000	26.020538	0.000660	20.779034
1497.431646	-2.990900	3.426900	-10.249000	26.042125	0.000661	20.786972
1498.429826	-2.977600	3.426900	-10.202000	26.055241	0.000660	20.801572
1499.436110	-3.000200	3.424300	-10.271000	26.082864	0.000662	20.780489
1500.431389	-3.009000	3.425600	-10.306000	26.075761	0.000659	20.773352
1501.432889	-2.992800	3.423600	-10.245000	26.071213	0.000661	20.782058
1502.429168	-3.019400	3.423500	-10.336000	26.058382	0.000658	20.768692
1503.432032	-2.989500	3.424000	-10.235000	26.027153	0.000658	20.780464
1504.430935	-2.990100	3.423600	-10.235000	26.009944	0.000659	20.784985
1505.428905	-3.016800	3.422000	-10.322000	26.001970	0.000658	20.787879
1506.433293	-3.040700	3.422200	-10.404000	25.966728	0.000657	20.788983
1507.432887	-3.000300	3.422900	-10.268000	25.945987	0.000655	20.781895
1508.437054	-2.989500	3.422800	-10.232000	25.920801	0.000657	20.772240
1509.435841	-2.984300	3.421500	-10.210000	25.924992	0.000658	20.790675
1510.432477	-3.005700	3.420900	-10.280000	25.942406	0.000654	20.779720
1511.441634	-3.003100	3.419700	-10.269000	25.969780	0.000656	20.781143
1512.433889	-2.987200	3.420100	-10.215000	25.970878	0.000654	20.799790
1513.433606	-3.009500	3.419800	-10.291000	25.976558	0.000653	20.784159
1514.438020	-2.978600	3.420400	-10.186000	26.011531	0.000651	20.788002
1515.433182	-3.015900	3.419300	-10.311000	26.035656	0.000652	20.788059
1516.433766	-3.022400	3.418100	-10.328000	26.022117	0.000652	20.805750
1517.434890	-2.987000	3.418500	-10.210000	26.051221	0.000651	20.775723
1518.438364	-2.984300	3.419000	-10.202000	26.034159	0.000650	20.792245
1519.436914	-3.011500	3.419300	-10.295000	26.039700	0.000652	20.808717
1520.434776	-3.006600	3.416400	-10.271000	26.027609	0.000652	20.797992
1521.438226	-3.003900	3.415500	-10.257000	26.018838	0.000651	20.813835
1522.435668	-2.976800	3.417700	-10.173000	26.008528	0.000649	20.795891
1523.434518	-3.008400	3.416200	-10.276000	25.991123	0.000648	20.817759
1524.439745	-2.989600	3.415700	-10.210000	26.004704	0.000650	20.820023
1525.440231	-2.979700	3.417000	-10.180000	25.996388	0.000647	20.819729
1526.439690	-3.008900	3.414400	-10.273000	25.958054	0.000647	20.808717
1527.444003	-3.002800	3.413700	-10.250000	25.969861	0.000647	20.804932
1528.437564	-3.014100	3.413900	-10.288000	26.023012	0.000648	20.809494
1529.439710	-2.996200	3.413600	-10.227000	26.029049	0.000646	20.817456
1530.439007	-2.992200	3.413300	-10.212000	26.013158	0.000648	20.810974
1531.439363	-2.991600	3.414000	-10.212000	25.997161	0.000646	20.801540
1532.437362	-2.992100	3.411500	-10.206000	25.995647	0.000646	20.801916
1533.438026	-2.988000	3.412400	-10.195000	26.026738	0.000645	20.811816
1534.440011	-3.028600	3.410600	-10.328000	26.057112	0.000645	20.801082
1535.438521	-2.978000	3.413200	-10.164000	26.091415	0.000646	20.805676
1536.445680	-3.012800	3.410100	-10.273000	26.105019	0.000643	20.814603
1537.442779	-2.998700	3.412100	-10.231000	26.101292	0.000644	20.808014
1538.444251	-3.026600	3.409400	-10.317000	26.119550	0.000640	20.801703
1539.440868	-3.003600	3.410200	-10.242000	26.105369	0.000642	20.804998
1540.444742	-3.020100	3.409200	-10.295000	26.099860	0.000641	20.802782
1541.444753	-3.000300	3.409400	-10.228000	26.106109	0.000642	20.816173
1542.442168	-3.019800	3.408200	-10.291000	26.086127	0.000640	20.812216
1543.441286	-3.012000	3.408300	-10.264000	26.078324	0.000640	20.818127
1544.440227	-2.998900	3.408000	-10.218000	26.069821	0.000641	20.823334
1545.443526	-2.999500	3.408300	-10.223000	26.069626	0.000638	20.813655
1546.441413	-2.999300	3.407500	-10.217000	26.037959	0.000638	20.837787
1547.440591	-2.999700	3.407900	-10.221000	25.990961	0.000636	20.807164
1548.441740	-3.013900	3.406400	-10.264000	25.952236	0.000637	20.809036
1549.448726	-3.022200	3.404700	-10.289000	25.953302	0.000637	20.837133
1550.444185	-3.018700	3.405600	-10.279000	25.977128	0.000635	20.811758
1551.443580	-3.026800	3.403900	-10.301000	26.006828	0.000636	20.820735
1552.443506	-3.016600	3.403400	-10.266000	26.037829	0.000637	20.836234
1553.445249	-2.998100	3.406000	-10.210000	26.077372	0.000636	20.833765
1554.443209	-2.998500	3.405000	-10.209000	26.112008	0.000636	20.822574
1555.441605	-3.021300	3.403500	-10.283000	26.151768	0.000634	20.832654
1556.442420	-3.031400	3.403300	-10.316000	26.170423	0.000633	20.839545
1557.442449	-3.012200	3.403100	-10.250000	26.197913	0.000632	20.833030
1558.441367	-2.975600	3.404300	-10.128000	26.232635	0.000633	20.813868
1559.443055	-3.000800	3.402000	-10.208000	26.213834	0.000631	20.810622
1560.442122	-3.023300	3.402200	-10.284000	26.222075	0.000630	20.822222
1561.443755	-3.000100	3.401800	-10.205000	26.225825	0.000631	20.828836
1562.444445	-2.982200	3.402500	-10.145000	26.266004	0.000630	20.830806
1563.442799	-3.015400	3.400900	-10.253000	26.273879	0.000633	20.842038
1564.446968	-3.014400	3.400400	-10.250000	26.246180	0.000629	20.850237
1565.444971	-2.990500	3.402000	-10.172000	26.213427	0.000628	20.818748
1566.445460	-3.014500	3.400000	-10.248000	26.210393	0.000627	20.847940
1567.445404	-2.994400	3.399100	-10.177000	26.172555	0.000628	20.835997
1568.444572	-2.975700	3.400500	-10.117000	26.169862	0.000625	20.825705
1569.448608	-3.011500	3.399800	-10.237000	26.138694	0.000627	20.837534
1570.451572	-2.997300	3.399900	-10.190000	26.103408	0.000627	20.830528
1571.448002	-2.999400	3.397900	-10.191000	26.109412	0.000625	20.838932
1572.447947	-3.012600	3.397600	-10.234000	26.109063	0.000624	20.850434
1573.446762	-2.981500	3.397400	-10.129000	26.175484	0.000625	20.842259
1574.447531	-3.012200	3.396300	-10.229000	26.167332	0.000625	20.840706
1575.448167	-2.997300	3.398800	-10.185000	26.155706	0.000625	20.849412
1576.460974	-2.996200	3.397200	-10.178000	26.178949	0.000623	20.844319
1577.447706	-3.009400	3.397100	-10.222000	26.175077	0.000625	20.854178
1578.447038	-3.020200	3.395100	-10.252000	26.175451	0.000622	20.860717
1579.446294	-3.003900	3.396100	-10.201000	26.156349	0.000622	20.840575
1580.449335	-3.003100	3.395000	-10.194000	26.122471	0.000620	20.851578
1581.451986	-3.019400	3.394300	-10.248000	26.141029	0.000621	20.833242
1582.450141	-2.988400	3.393800	-10.140000	26.163679	0.000620	20.851733
1583.450859	-3.015800	3.394400	-10.234000	26.122528	0.000621	20.852109
1584.448629	-3.013400	3.393100	-10.224000	26.131770	0.000620	20.842905
1585.454421	-2.991400	3.393000	-10.149000	26.151695	0.000620	20.866243
1586.455138	-2.978500	3.394700	-10.110000	26.127239	0.000620	20.847360
1587.449775	-2.963200	3.394100	-10.056000	26.139857	0.000619	20.850556
1588.449914	-2.994100	3.392100	-10.155000	26.124334	0.000617	20.851079
1589.451046	-3.001500	3.391400	-10.178000	26.122625	0.000617	20.862164
1590.451105	-2.983000	3.391700	-10.116000	26.112317	0.000618	20.847540
1591.451613	-2.998100	3.391000	-10.166000	26.095378	0.000616	20.870347
1592.455296	-3.002400	3.390100	-10.177000	26.071392	0.000616	20.861420
1593.452214	-2.994200	3.390200	-10.150000	26.128215	0.000617	20.862565
1594.456814	-3.001000	3.391200	-10.176000	26.142339	0.000614	20.855894
1595.452012	-3.004900	3.390300	-10.187000	26.161197	0.000616	20.853981
1596.456209	-2.979000	3.390000	-10.097000	26.181008	0.000616	20.864404
1597.457882	-2.995100	3.388400	-10.147000	26.181683	0.000615	20.864134
1598.453689	-2.992200	3.387800	-10.136000	26.198117	0.000614	20.841768
1599.457237	-2.997700	3.388300	-10.156000	26.198735	0.000614	20.857562
1600.453966	-2.996500	3.387400	-10.148000	26.201493	0.000614	20.846583
1601.459118	-2.981600	3.387500	-10.099000	26.170700	0.000613	20.868745
1602.456639	-3.008700	3.385800	-10.185000	26.198759	0.000614	20.856638
1603.455411	-3.003500	3.386600	-10.171000	26.226452	0.000612	20.854120
1604.458343	-2.990700	3.386000	-10.126000	26.233774	0.000613	20.831133
1605.464293	-2.964200	3.387700	-10.041000	26.261270	0.000613	20.822729
1606.457941	-3.009900	3.386300	-10.191000	26.292874	0.000611	20.844532
1607.461910	-3.004200	3.385400	-10.170000	26.295038	0.000610	20.842439
1608.459383	-2.993000	3.385200	-10.131000	26.268673	0.000609	20.846289
1609.458599	-2.998000	3.384900	-10.147000	26.291979	0.000608	20.838891
1610.455393	-2.996100	3.383800	-10.138000	26.276165	0.000612	20.856663
1611.455444	-3.008500	3.383400	-10.178000	26.321654	0.000608	20.838368
1612.458079	-2.991600	3.383400	-10.120000	26.290466	0.000608	20.843534
1613.457169	-2.985300	3.383800	-10.101000	26.283608	0.000608	20.842807
1614.458735	-2.966100	3.384700	-10.039000	26.280037	0.000606	20.826416
1615.457033	-3.003200	3.381700	-10.154000	26.299129	0.000605	20.840861
1616.456779	-2.985900	3.382500	-10.098000	26.289465	0.000603	20.827831
1617.458070	-2.996400	3.382100	-10.133000	26.242958	0.000607	20.850793
1618.460137	-3.009400	3.381200	-10.174000	26.249360	0.000606	20.840158
1619.466165	-3.001700	3.382200	-10.152000	26.233318	0.000602	20.834469
1620.459268	-2.972300	3.381000	-10.048000	26.253436	0.000603	20.836193
1621.459774	-3.002700	3.382100	-10.154000	26.265232	0.000604	20.841409
1622.460623	-3.029300	3.378500	-10.233000	26.286586	0.000602	20.827782
1623.460684	-3.003100	3.378900	-10.145000	26.304246	0.000603	20.820400
1624.460575	-2.998600	3.380000	-10.135000	26.346627	0.000602	20.833120
1625.469797	-2.976000	3.381200	-10.062000	26.308744	0.000598	20.824446
1626.461970	-2.990400	3.380100	-10.105000	26.353972	0.000601	20.844769
1627.464881	-2.972100	3.379200	-10.042000	26.356144	0.000600	20.825615
1628.461264	-3.008400	3.379100	-10.164000	26.348367	0.000601	20.833447
1629.464253	-2.959000	3.380000	-10.001000	26.329300	0.000600	20.809543
1630.462617	-2.979800	3.377900	-10.064000	26.303132	0.000598	20.832081
1631.462903	-3.018700	3.376400	-10.191000	26.261555	0.000597	20.823016
1632.466234	-3.007000	3.376400	-10.153000	26.219366	0.000597	20.830880
1633.465175	-2.999800	3.376100	-10.127000	26.228982	0.000598	20.828215
1634.464625	-3.000200	3.375700	-10.127000	26.254510	0.000596	20.812617
1635.464220	-2.982500	3.374900	-10.064000	26.279671	0.000596	20.834109
1636.470773	-2.996500	3.376700	-10.118000	26.300081	0.000597	20.819533
1637.463071	-3.008700	3.376200	-10.156000	26.322882	0.000595	20.811154
1638.465271	-3.015500	3.373300	-10.171000	26.337036	0.000594	20.805938
1639.464374	-2.984000	3.375100	-10.070000	26.307736	0.000595	20.826277
1640.464036	-2.979200	3.374400	-10.052000	26.294875	0.000595	20.826155
1641.467492	-3.005300	3.373700	-10.138000	26.279752	0.000595	20.804319
1642.470137	-3.005500	3.374200	-10.140000	26.242852	0.000593	20.810859
1643.468455	-3.031700	3.372300	-10.222000	26.254672	0.000593	20.810410
1644.464671	-2.998900	3.372200	-10.112000	26.245155	0.000592	20.814121
1645.463656	-2.998800	3.372300	-10.112000	26.270047	0.000592	20.820645
1646.463789	-2.978200	3.371600	-10.041000	26.296022	0.000591	20.830626
1647.465926	-2.978300	3.372800	-10.044000	26.302554	0.000590	20.817751
1648.468412	-2.985500	3.372700	-10.068000	26.312885	0.000590	20.812486
1649.468473	-3.007400	3.371100	-10.137000	26.297266	0.000591	20.814808
1650.468102	-3.016700	3.369600	-10.164000	26.277149	0.000588	20.808816
1651.469538	-2.997800	3.368800	-10.098000	26.293264	0.000588	20.818372
1652.468908	-3.022300	3.368800	-10.180000	26.307671	0.000587	20.818151
1653.469966	-2.990700	3.370300	-10.078000	26.290962	0.000587	20.791403
1654.469551	-2.982900	3.369600	-10.050000	26.294981	0.000588	20.817252
1655.470510	-2.961700	3.369900	-9.979800	26.272903	0.000587	20.820669
1656.469137	-2.973400	3.368600	-10.016000	26.273375	0.000587	20.804074
1657.476834	-3.004200	3.368200	-10.117000	26.306003	0.000586	20.818846
1658.471191	-3.024100	3.367200	-10.182000	26.347993	0.000585	20.811734
1659.471489	-3.029000	3.366400	-10.195000	26.330244	0.000585	20.821397
1660.476598	-2.991300	3.368500	-10.075000	26.324135	0.000585	20.802455
1661.472254	-2.989800	3.367100	-10.065000	26.280981	0.000584	20.787536
1662.474982	-2.988300	3.368100	-10.064000	26.250808	0.000582	20.800837
1663.478385	-2.991500	3.366300	-10.070000	26.233497	0.000583	20.809993
1664.474445	-3.013300	3.364600	-10.137000	26.221156	0.000584	20.809919
1665.477982	-3.014100	3.365000	-10.142000	26.250328	0.000581	20.778069
1666.480202	-2.993600	3.365700	-10.074000	26.272878	0.000582	20.793618
1667.475236	-3.009300	3.364900	-10.125000	26.301781	0.000580	20.798957
1668.478524	-2.978200	3.365900	-10.023000	26.344894	0.000579	20.803404
1669.481398	-2.966300	3.365400	-9.981000	26.347920	0.000581	20.775151
1670.476666	-3.000500	3.363800	-10.092000	26.339037	0.000578	20.788035
1671.482297	-2.999000	3.362000	-10.082000	26.315244	0.000578	20.792572
1672.477277	-3.011900	3.363000	-10.128000	26.361821	0.000579	20.765888
1673.480446	-2.996900	3.362400	-10.076000	26.390079	0.000579	20.783383
1674.479585	-2.992600	3.362100	-10.060000	26.375454	0.000578	20.802823
1675.485623	-3.005800	3.362300	-10.105000	26.399343	0.000578	20.777047
1676.480839	-3.004500	3.360500	-10.096000	26.370590	0.000576	20.788452
1677.481559	-2.993500	3.361300	-10.061000	26.335726	0.000577	20.806044
1678.478383	-3.012100	3.360200	-10.121000	26.294761	0.000576	20.788108
1679.478501	-3.002800	3.360100	-10.088000	26.253778	0.000575	20.763517
1680.484437	-2.973100	3.362200	-9.995200	26.228990	0.000574	20.781756
1681.481770	-2.999800	3.359200	-10.076000	26.239379	0.000574	20.794566
1682.483695	-3.001200	3.359000	-10.079000	26.258382	0.000573	20.792801
1683.480629	-2.998500	3.359200	-10.071000	26.272146	0.000574	20.791934
1684.479849	-3.020500	3.357500	-10.140000	26.306605	0.000573	20.790054
1685.480031	-3.020400	3.357300	-10.139000	26.315447	0.000571	20.788035
1686.483243	-2.983100	3.359100	-10.020000	26.355476	0.000574	20.802660
1687.482564	-2.987500	3.358100	-10.030000	26.347619	0.000571	20.784331
1688.483932	-2.969100	3.357100	-9.966600	26.363602	0.000570	20.776213
1689.483095	-2.998700	3.356200	-10.064000	26.365449	0.000568	20.770482
1690.484355	-2.969600	3.357600	-9.970000	26.372030	0.000568	20.799856
1691.481801	-2.987700	3.357000	-10.029000	26.397554	0.000569	20.787103
1692.483198	-2.986600	3.356000	-10.022000	26.412805	0.000566	20.782042
1693.482073	-2.977000	3.356000	-9.989900	26.448016	0.000567	20.786138
1694.484016	-3.006100	3.355500	-10.086000	26.473831	0.000566	20.776050
1695.485215	-3.015600	3.354300	-10.115000	26.500890	0.000564	20.790446
1696.480943	-2.986700	3.354900	-10.019000	26.485079	0.000564	20.789727
1697.484854	-2.996400	3.355100	-10.051000	26.437808	0.000565	20.772559
1698.490372	-2.984000	3.354500	-10.009000	26.430431	0.000564	20.792645
1699.483926	-2.984100	3.353700	-10.005000	26.377520	0.000566	20.775976
1700.486605	-2.981300	3.353300	-9.996300	26.336499	0.000565	20.769362
1701.493483	-2.998600	3.352700	-10.052000	26.338931	0.000562	20.775600
1702.486304	-2.997700	3.352600	-10.048000	26.334409	0.000563	20.787176
1703.486519	-2.987500	3.352800	-10.016000	26.393259	0.000560	20.779467
1704.488370	-2.983700	3.352400	-10.002000	26.408559	0.000560	20.789629
1705.484694	-3.001600	3.352800	-10.063000	26.410145	0.000562	20.781740
1706.488749	-2.973700	3.352400	-9.966600	26.371907	0.000561	20.760852
1707.491683	-2.995400	3.350100	-10.034000	26.356957	0.000559	20.778543
1708.487599	-3.029500	3.350300	-10.148000	26.366173	0.000557	20.779745
1709.490313	-3.004000	3.350100	-10.061000	26.361471	0.000558	20.758424
1710.497134	-2.998000	3.349500	-10.041000	26.316253	0.000558	20.749488
1711.489723	-3.018200	3.349900	-10.109000	26.277963	0.000556	20.780236
1712.492241	-2.987600	3.349300	-10.006000	26.283275	0.000557	20.776565
1713.491660	-3.005500	3.349600	-10.066000	26.287993	0.000556	20.760443
1714.494366	-3.011600	3.348800	-10.084000	26.295387	0.000555	20.770245
1715.490312	-2.994600	3.348500	-10.026000	26.231268	0.000555	20.771243
1716.496042	-3.006400	3.347800	-10.063000	26.204739	0.000557	20.765921
1717.489743	-3.014700	3.347300	-10.090000	26.218919	0.000556	20.779222
1718.497212	-3.016600	3.347700	-10.097000	26.203990	0.000554	20.775126
1719.496983	-3.007100	3.346300	-10.061000	26.265996	0.000552	20.777219
1720.493306	-3.006400	3.345900	-10.058000	26.261449	0.000551	20.768856
1721.492792	-2.999100	3.346100	-10.035000	26.234083	0.000553	20.773597
1722.492443	-2.987100	3.345500	-9.992300	26.232830	0.000552	20.794150
1723.490956	-3.015100	3.346500	-10.089000	26.206716	0.000550	20.792564
1724.491750	-3.006200	3.345500	-10.057000	26.184059	0.000550	20.763632
1725.493368	-3.006900	3.344700	-10.056000	26.157585	0.000550	20.772592
1726.490005	-3.031300	3.344300	-10.136000	26.127784	0.000550	20.770148
1727.490449	-2.968400	3.343900	-9.924600	26.145195	0.000548	20.752554
1728.493093	-2.983200	3.345500	-9.978800	26.177355	0.000547	20.759740
1729.493206	-3.024600	3.344000	-10.114000	26.217552	0.000547	20.762675
1730.494510	-3.005200	3.343600	-10.047000	26.271170	0.000548	20.783367
1731.495436	-3.001600	3.343100	-10.033000	26.280452	0.000548	20.794117
1732.493990	-3.007300	3.343300	-10.053000	26.303921	0.000545	20.779296
1733.493762	-2.998400	3.341300	-10.016000	26.306971	0.000546	20.774301
1734.492646	-2.999600	3.341500	-10.022000	26.312210	0.000547	20.766289
1735.496551	-2.997600	3.341800	-10.016000	26.290141	0.000545	20.754067
1736.492853	-3.035500	3.340500	-10.139000	26.283381	0.000545	20.777146
1737.490767	-3.010800	3.340500	-10.056000	26.328259	0.000542	20.761081
1738.493195	-3.002100	3.340600	-10.027000	26.338460	0.000543	20.769436
1739.493650	-3.015100	3.339700	-10.068000	26.349132	0.000543	20.737487
1740.496913	-2.988200	3.339400	-9.977800	26.360479	0.000541	20.769755
1741.497778	-3.008800	3.339300	-10.047000	26.394179	0.000541	20.757631
1742.496099	-3.015200	3.337800	-10.064000	26.377219	0.000539	20.744379
1743.494917	-3.016200	3.339400	-10.070000	26.399246	0.000539	20.764147
1744.496690	-2.994100	3.337900	-9.992200	26.430805	0.000537	20.763150
1745.496126	-2.998400	3.338000	-10.006000	26.431228	0.000539	20.760730
1746.498870	-3.024600	3.335600	-10.088000	26.432912	0.000539	20.747249
1747.497324	-2.997700	3.336100	-9.999300	26.394821	0.000539	20.754010
1748.498134	-2.999700	3.337100	-10.009000	26.331814	0.000538	20.770344
1749.499646	-2.976300	3.338900	-9.936600	26.320239	0.000536	20.776254
1750.504782	-3.022900	3.335100	-10.080000	26.319889	0.000536	20.753143
1751.497334	-3.007600	3.334600	-10.028000	26.339208	0.000539	20.765921
1752.496906	-3.035000	3.333700	-10.116000	26.360268	0.000536	20.757688
1753.501229	-2.996100	3.334800	-9.989600	26.393520	0.000536	20.749856
1754.498094	-2.990100	3.335300	-9.971000	26.396497	0.000535	20.769919
1755.500235	-2.994200	3.334300	-9.982900	26.386094	0.000533	20.745711
1756.499678	-2.995300	3.332800	-9.981900	26.360129	0.000534	20.775094
1757.500004	-3.007800	3.333100	-10.024000	26.349547	0.000535	20.765406
1758.499056	-3.006000	3.333000	-10.018000	26.331220	0.000533	20.747461
1759.504458	-3.000900	3.333700	-10.003000	26.377536	0.000531	20.747069
1760.498571	-2.986000	3.332400	-9.949700	26.382547	0.000531	20.760640
1761.501052	-2.992000	3.332900	-9.971000	26.403264	0.000531	20.739735
1762.502628	-2.983900	3.332300	-9.941700	26.386850	0.000530	20.761171
1763.502273	-2.978900	3.331700	-9.922900	26.405997	0.000529	20.749121
1764.501933	-2.963000	3.332300	-9.870500	26.424737	0.000528	20.739980
1765.504612	-2.989800	3.330700	-9.957100	26.427495	0.000529	20.748916
1766.499671	-2.996300	3.331200	-9.980300	26.412472	0.000528	20.747093
1767.501706	-3.003700	3.330200	-10.002000	26.442151	0.000526	20.747526
1768.505289	-3.018700	3.328600	-10.047000	26.396074	0.000526	20.758588
1769.502198	-3.014500	3.329100	-10.034000	26.378350	0.000529	20.759740
1770.503466	-3.022200	3.328900	-10.060000	26.385402	0.000526	20.740275
1771.507734	-2.986100	3.328600	-9.938600	26.380212	0.000525	20.731265
1772.505520	-3.020500	3.327600	-10.050000	26.409909	0.000526	20.746414
1773.503677	-2.964500	3.329200	-9.868600	26.367230	0.000524	20.738133
1774.506880	-2.997500	3.327800	-9.974400	26.414562	0.000522	20.742556
1775.506209	-2.999700	3.328200	-9.982800	26.439638	0.000523	20.756854
1776.507354	-2.997800	3.328600	-9.976400	26.481550	0.000522	20.733072
1777.507483	-3.007300	3.325900	-10.001000	26.513537	0.000522	20.732508
1778.504489	-3.009500	3.324800	-10.005000	26.502688	0.000521	20.729189
1779.506583	-3.027600	3.324900	-10.065000	26.490577	0.000519	20.744992
1780.507962	-3.013500	3.326000	-10.021000	26.516302	0.000520	20.727701
1781.507426	-2.996200	3.324800	-9.959800	26.540677	0.000519	20.728968
1782.506897	-2.982900	3.325300	-9.917200	26.576208	0.000518	20.740029
1783.511857	-3.015700	3.324000	-10.022000	26.586813	0.000516	20.730300
1784.506970	-3.004400	3.324800	-9.988500	26.544987	0.000519	20.729981
1785.511063	-3.015300	3.323600	-10.021000	26.531535	0.000520	20.719778
1786.509091	-3.042900	3.321700	-10.106000	26.501272	0.000516	20.747681
1787.507170	-3.016000	3.322400	-10.019000	26.469821	0.000516	20.737879
1788.508259	-2.996900	3.322800	-9.957100	26.481069	0.000514	20.725951
1789.508842	-2.998200	3.320700	-9.954700	26.475214	0.000515	20.732393
1790.508729	-2.996600	3.322600	-9.955300	26.506795	0.000516	20.755603
1791.510491	-3.004800	3.320300	-9.976100	26.542181	0.000515	20.737119
1792.509977	-3.002700	3.320300	-9.968700	26.548809	0.000514	20.737143
1793.510568	-3.015500	3.320500	-10.011000	26.603598	0.000514	20.737691
1794.510194	-3.008100	3.320100	-9.985500	26.608315	0.000513	20.725362
1795.514489	-2.999700	3.318900	-9.954700	26.634639	0.000512	20.737127
1796.511404	-3.031000	3.318700	-10.058000	26.653009	0.000512	20.723825
1797.510417	-2.992700	3.318800	-9.931000	26.664727	0.000513	20.743193
1798.511713	-3.008900	3.319600	-9.987600	26.697222	0.000512	20.723228
1799.513757	-2.979700	3.320600	-9.893300	26.681983	0.000510	20.705062
1800.511475	-2.993500	3.318400	-9.932900	26.711558	0.000510	20.707768
1801.513222	-2.972100	3.319500	-9.863900	26.719771	0.000511	20.721242
1802.511727	-2.962500	3.319800	-9.833600	26.719429	0.000509	20.727063
1803.510283	-2.990000	3.317200	-9.916400	26.675469	0.000511	20.730758
1804.514927	-2.996400	3.317700	-9.939600	26.649057	0.000509	20.738345
1805.512955	-3.005600	3.317200	-9.969000	26.612023	0.000506	20.739048
1806.511679	-3.004900	3.317400	-9.966600	26.589367	0.000511	20.712003
1807.519202	-3.003300	3.315300	-9.956100	26.604054	0.000508	20.727243
1808.517089	-2.998300	3.316500	-9.943200	26.590188	0.000505	20.713303
1809.513247	-2.987300	3.316200	-9.904900	26.583495	0.000505	20.723645
1810.518431	-3.002200	3.314700	-9.950200	26.580087	0.000505	20.723539
1811.515659	-2.984000	3.314100	-9.887800	26.581551	0.000504	20.735917
1812.512930	-3.023200	3.313200	-10.015000	26.585528	0.000504	20.717154
1813.519411	-3.015800	3.312300	-9.987400	26.576794	0.000503	20.721651
1814.517169	-3.000500	3.313100	-9.939700	26.567506	0.000505	20.699511
1815.515106	-2.984100	3.312100	-9.882300	26.597898	0.000503	20.717260
1816.517068	-2.967900	3.313600	-9.833300	26.593848	0.000501	20.725518
1817.518384	-3.001200	3.311600	-9.937800	26.598345	0.000500	20.721978
1818.517893	-2.996700	3.312900	-9.926700	26.605078	0.000501	20.723531
1819.525215	-3.031500	3.311300	-10.036000	26.589879	0.000501	20.741918
1820.521567	-3.009500	3.310700	-9.962300	26.611210	0.000499	20.713099
1821.515063	-3.018100	3.309400	-9.987000	26.589480	0.000500	20.741517
1822.519338	-3.003500	3.309200	-9.938600	26.572532	0.000499	20.703615
1823.522135	-3.004100	3.309300	-9.939000	26.561635	0.000496	20.711627
1824.517874	-3.005300	3.309200	-9.944500	26.606843	0.000498	20.715821
1825.522463	-3.003300	3.309000	-9.937100	26.653985	0.000498	20.710581
1826.519726	-2.982700	3.310100	-9.870600	26.664443	0.000496	20.717301
1827.517758	-2.986200	3.310100	-9.882700	26.654237	0.000495	20.727431
1828.521901	-3.014600	3.309100	-9.974300	26.661865	0.000496	20.726564
1829.518685	-2.995700	3.308900	-9.911200	26.682073	0.000495	20.726016
1830.518854	-2.992900	3.308300	-9.899100	26.703296	0.000495	20.716533
1831.523953	-2.998500	3.306300	-9.912400	26.681007	0.000494	20.711668
1832.519111	-3.026400	3.306800	-10.006000	26.630671	0.000495	20.741672
1833.522985	-2.993400	3.305900	-9.894600	26.658352	0.000493	20.716394
1834.521546	-3.002100	3.306300	-9.925100	26.678332	0.000491	20.732213
1835.522886	-2.990600	3.306800	-9.889000	26.682869	0.000492	20.716860
1836.523521	-2.975400	3.307300	-9.839800	26.678608	0.000491	20.730595
1837.521841	-3.027600	3.304100	-10.003000	26.678950	0.000492	20.718135
1838.523661	-3.017300	3.304300	-9.968700	26.692042	0.000490	20.709485
1839.522161	-3.007200	3.303300	-9.932200	26.725235	0.000490	20.719149
1840.523545	-3.001600	3.303900	-9.916500	26.693782	0.000490	20.713132
1841.522958	-3.006500	3.304100	-9.933000	26.710338	0.000490	20.693739
1842.522358	-2.970300	3.304100	-9.811300	26.668517	0.000489	20.719975
1843.527821	-3.044500	3.301300	-10.050000	26.668582	0.000488	20.731895
1844.526960	-3.015900	3.301600	-9.956800	26.625995	0.000486	20.711366
1845.526171	-3.018200	3.301700	-9.963900	26.611934	0.000486	20.715723
1846.523834	-3.001200	3.302500	-9.910600	26.605412	0.000485	20.709167
1847.526567	-3.010400	3.302100	-9.939600	26.644886	0.000486	20.737470
1848.525617	-3.028900	3.300200	-9.994300	26.676511	0.000485	20.722795
1849.525614	-3.020400	3.301000	-9.969700	26.704882	0.000486	20.717653
1850.525023	-3.008900	3.300000	-9.928000	26.745344	0.000485	20.730358
1851.526160	-3.008300	3.300200	-9.926600	26.766412	0.000485	20.718348
1852.524394	-3.022500	3.299400	-9.970700	26.761720	0.000483	20.719321
1853.526011	-2.987900	3.300400	-9.860400	26.738489	0.000485	20.722991
1854.525640	-2.979400	3.299800	-9.830300	26.750605	0.000483	20.736121
1855.528980	-3.008600	3.298200	-9.922200	26.768867	0.000481	20.738836
1856.528186	-3.018000	3.297200	-9.947000	26.766786	0.000480	20.751442
1857.526266	-2.985500	3.296800	-9.841600	26.780535	0.000479	20.735394
1858.527764	-3.003700	3.297700	-9.903400	26.746872	0.000481	20.743275
1859.527295	-3.015900	3.296500	-9.940600	26.779267	0.000479	20.742179
1860.527731	-3.011400	3.297500	-9.929900	26.740839	0.000480	20.723457
1861.529401	-3.006300	3.297300	-9.911300	26.741555	0.000479	20.727496
1862.529416	-2.993900	3.296500	-9.868000	26.728138	0.000478	20.724439
1863.528779	-3.009400	3.296400	-9.919800	26.746645	0.000477	20.741149
1864.529407	-3.003200	3.295700	-9.896400	26.750393	0.000479	20.751557
1865.531839	-2.995900	3.295000	-9.870600	26.783942	0.000474	20.727439
1866.531677	-2.982800	3.294900	-9.826600	26.771120	0.000476	20.728297
1867.531087	-3.007000	3.294300	-9.905200	26.775136	0.000474	20.746561
1868.532980	-3.017200	3.294000	-9.937900	26.789658	0.000473	20.745989
1869.534442	-2.994100	3.293500	-9.860600	26.815742	0.000472	20.735230
1870.533920	-3.007000	3.291700	-9.897600	26.811725	0.000472	20.747788
1871.533758	-3.024400	3.292400	-9.956400	26.773900	0.000473	20.744370
1872.533230	-3.004500	3.291900	-9.890000	26.776502	0.000473	20.732761
1873.533177	-3.012800	3.291900	-9.916200	26.781600	0.000470	20.745474
1874.536270	-3.000400	3.290900	-9.873100	26.790154	0.000471	20.732263
1875.532209	-3.016200	3.291900	-9.928300	26.801277	0.000469	20.732066
1876.534115	-3.021000	3.289900	-9.937900	26.825824	0.000469	20.737781
1877.535911	-3.006800	3.289500	-9.889800	26.793659	0.000470	20.744321
1878.532693	-2.984300	3.291200	-9.820900	26.799041	0.000468	20.726025
1879.537785	-2.993800	3.291100	-9.850900	26.791227	0.000467	20.731919
1880.535899	-2.997900	3.290400	-9.863500	26.795236	0.000466	20.751123
1881.531985	-3.000200	3.289600	-9.867900	26.814408	0.000468	20.737209
1882.533896	-2.995100	3.290300	-9.853500	26.765981	0.000463	20.741149
1883.533395	-3.003600	3.287600	-9.873500	26.739050	0.000463	20.743471
1884.537334	-2.991800	3.289100	-9.839200	26.748669	0.000466	20.742237
1885.532841	-3.010400	3.287800	-9.896400	26.760118	0.000464	20.749006
1886.535778	-3.011000	3.285800	-9.892900	26.758581	0.000463	20.766902
1887.534094	-2.986900	3.288100	-9.820300	26.788739	0.000461	20.764032
1888.533299	-2.998900	3.288000	-9.858500	26.786406	0.000462	20.761686
1889.533479	-3.027500	3.286900	-9.950000	26.756638	0.000460	20.749300
1890.538467	-3.025900	3.284700	-9.938300	26.758329	0.000460	20.732034
1891.535934	-3.020400	3.285200	-9.921900	26.761037	0.000459	20.747085
1892.538457	-3.006700	3.285300	-9.877300	26.796976	0.000458	20.737699
1893.536967	-3.021200	3.284100	-9.920100	26.802928	0.000458	20.751270
1894.537038	-3.018600	3.284500	-9.913700	26.768997	0.000457	20.763623
1895.539098	-3.011300	3.284000	-9.887800	26.735342	0.000456	20.733105
1896.541106	-2.987300	3.284200	-9.809700	26.671623	0.000454	20.752971
1897.547231	-2.988300	3.283800	-9.812000	26.642828	0.000455	20.764801
1898.540720	-3.002800	3.282900	-9.856700	26.608673	0.000455	20.755595
1899.539725	-2.965000	3.283500	-9.734500	26.604875	0.000454	20.753200
1900.537333	-2.979600	3.283900	-9.782600	26.635436	0.000455	20.740773
1901.541476	-2.986400	3.282700	-9.801900	26.644454	0.000454	20.747943
1902.541353	-2.985800	3.283900	-9.803300	26.660954	0.000452	20.764057
1903.541346	-2.986500	3.282100	-9.800700	26.701141	0.000453	20.760836
1904.538912	-3.005700	3.282500	-9.864000	26.706996	0.000452	20.748703
1905.542204	-2.997400	3.281400	-9.834300	26.722413	0.000450	20.763730
1906.542460	-3.000100	3.281400	-9.844200	26.696401	0.000452	20.770294
1907.541873	-2.985200	3.281200	-9.794400	26.727626	0.000450	20.752848
1908.547009	-2.971100	3.282000	-9.750300	26.746116	0.000450	20.761481
1909.541936	-2.996900	3.280600	-9.830700	26.734253	0.000449	20.768520
1910.544909	-3.009100	3.279800	-9.868400	26.752418	0.000448	20.782042
1911.544203	-2.969900	3.280400	-9.741600	26.756118	0.000448	20.766795
1912.542113	-2.999500	3.279200	-9.834800	26.779625	0.000448	20.743962
1913.547331	-2.992000	3.278000	-9.807200	26.796545	0.000448	20.761923
1914.546194	-3.013500	3.277400	-9.874900	26.808514	0.000447	20.763051
1915.541599	-3.010700	3.278000	-9.868500	26.835272	0.000446	20.767196
1916.546546	-2.977700	3.278100	-9.760500	26.827970	0.000444	20.785933
1917.548290	-3.023500	3.276900	-9.907200	26.867883	0.000444	20.771063
1918.543673	-3.015600	3.274800	-9.874400	26.882152	0.000442	20.771660
1919.545543	-3.024100	3.274200	-9.899400	26.903192	0.000443	20.774799
1920.546918	-2.994100	3.276200	-9.809200	26.913566	0.000441	20.767686
1921.544827	-3.011300	3.274100	-9.858300	26.926663	0.000441	20.751458
1922.546623	-3.011600	3.274500	-9.860600	26.952549	0.000441	20.777014
1923.552868	-2.993200	3.274500	-9.800100	26.956825	0.000441	20.763296
1924.547101	-2.987800	3.274000	-9.780900	26.951825	0.000440	20.776761
1925.547687	-2.987600	3.273300	-9.777900	26.925029	0.000439	20.779688
1926.551731	-3.021600	3.272400	-9.886600	26.920729	0.000440	20.781527
1927.544291	-2.997000	3.272100	-9.805500	26.912680	0.000439	20.768218
1928.548574	-2.983300	3.272800	-9.762400	26.930631	0.000437	20.771570
1929.550691	-3.008600	3.271900	-9.842300	26.948020	0.000437	20.770564
1930.547258	-3.006200	3.271400	-9.833600	27.002667	0.000437	20.780472
1931.549866	-3.003500	3.270500	-9.822000	26.997204	0.000436	20.786359
1932.549484	-3.016200	3.270200	-9.862600	26.992538	0.000438	20.755587
1933.547131	-2.994500	3.271200	-9.794700	27.028843	0.000435	20.771234
1934.550160	-3.016700	3.270400	-9.864000	27.031493	0.000433	20.797607
1935.552038	-3.024800	3.269400	-9.888500	27.032973	0.000433	20.790561
1936.547228	-2.982700	3.270200	-9.753100	26.969239	0.000432	20.769142
1937.552688	-2.983900	3.269500	-9.754500	26.927980	0.000432	20.776017
1938.550779	-2.993900	3.269000	-9.785000	26.905623	0.000432	20.773924
1939.550194	-2.981900	3.268300	-9.744800	26.838540	0.000431	20.778543
1940.552756	-3.004000	3.268500	-9.818000	26.851248	0.000429	20.810761
1941.550743	-2.982900	3.266600	-9.742800	26.855614	0.000428	20.782434
1942.550700	-3.019500	3.267000	-9.864000	26.873631	0.000430	20.783955
1943.551787	-2.998100	3.265400	-9.788500	26.876883	0.000427	20.790544
1944.552022	-2.991700	3.265900	-9.770100	26.924070	0.000428	20.773033
1945.548846	-2.993400	3.266100	-9.775900	26.947939	0.000427	20.784707
1946.550161	-2.982800	3.267400	-9.744400	26.974320	0.000424	20.784208
1947.553122	-3.013200	3.264200	-9.832700	26.998562	0.000424	20.788672
1948.552782	-3.006600	3.265300	-9.816900	26.996237	0.000424	20.792498
1949.551317	-2.983900	3.264800	-9.741100	26.993692	0.000423	20.792310
1950.556075	-3.007900	3.263100	-9.814100	27.010821	0.000424	20.796733
1951.554739	-2.973700	3.264200	-9.705700	27.020503	0.000422	20.782761
1952.552938	-2.998000	3.264400	-9.785600	26.994497	0.000422	20.792171
1953.557590	-2.990400	3.265000	-9.762900	26.966824	0.000423	20.789947
1954.553786	-2.999400	3.263600	-9.788300	26.909347	0.000421	20.790945
1955.554093	-3.008700	3.262700	-9.815400	26.896444	0.000420	20.788402
1956.553893	-2.980300	3.263700	-9.725200	26.861679	0.000420	20.799439
1957.557015	-2.995100	3.261900	-9.768300	26.826653	0.000419	20.782238
1958.555122	-2.972700	3.261700	-9.693000	26.834255	0.000419	20.781821
1959.555882	-2.998100	3.260800	-9.775800	26.848280	0.000418	20.788811
1960.560014	-3.018500	3.259900	-9.839200	26.842492	0.000417	20.795318
1961.555474	-3.011000	3.259100	-9.811500	26.856639	0.000417	20.795793
1962.555058	-2.987000	3.260500	-9.738400	26.910306	0.000417	20.802341
1963.555783	-2.995100	3.258400	-9.757500	26.958248	0.000413	20.802660
1964.564777	-3.002200	3.258800	-9.783300	26.979100	0.000415	20.803714
1965.557647	-3.000600	3.258200	-9.775600	26.966930	0.000413	20.799063
1966.556838	-2.966000	3.259800	-9.666800	26.992668	0.000413	20.800289
1967.556639	-3.009500	3.258000	-9.803300	27.039565	0.000412	20.811889
1968.557177	-3.030500	3.257700	-9.869600	27.040711	0.000409	20.825370
1969.557245	-3.004700	3.256600	-9.783800	27.042175	0.000412	20.797918
1970.559669	-2.990400	3.257900	-9.742100	27.019641	0.000411	20.807025
1971.558164	-2.995600	3.256000	-9.752200	26.993928	0.000409	20.797763
1972.558926	-2.991800	3.255400	-9.738400	26.906956	0.000409	20.810826
1973.558966	-2.999700	3.255700	-9.765000	26.897298	0.000411	20.804434
1974.556697	-2.990200	3.254900	-9.731100	26.934623	0.000409	20.803559
1975.558398	-2.987000	3.254400	-9.720100	26.966515	0.000409	20.794852
1976.558068	-3.011800	3.254200	-9.799300	27.002456	0.000407	20.823408
1977.561957	-2.997700	3.254600	-9.756000	27.032176	0.000407	20.808251
1978.558580	-3.020500	3.254200	-9.826500	27.081185	0.000406	20.806804
1979.559151	-2.989300	3.253200	-9.723200	27.115138	0.000405	20.788321
1980.566539	-3.021900	3.252200	-9.826900	27.149911	0.000403	20.824716
1981.561162	-2.990900	3.253500	-9.730000	27.140035	0.000404	20.814309
1982.561430	-2.981000	3.253300	-9.696700	27.149521	0.000403	20.814840
1983.564476	-2.996700	3.252300	-9.745100	27.141458	0.000402	20.826645
1984.561182	-3.010400	3.250500	-9.783300	27.117715	0.000402	20.811301
1985.562934	-2.993200	3.250500	-9.727600	27.090590	0.000399	20.792555
1986.564188	-3.000100	3.252300	-9.756900	27.076202	0.000400	20.818862
1987.561538	-2.997300	3.250000	-9.740400	27.068854	0.000399	20.812895
1988.563424	-2.984000	3.250500	-9.697800	27.114244	0.000397	20.815396
1989.566253	-2.983300	3.249400	-9.693000	27.135451	0.000398	20.835776
1990.566910	-2.987600	3.248800	-9.705100	27.151854	0.000400	20.808178
1991.567079	-2.987100	3.248200	-9.701800	27.198825	0.000396	20.818437
1992.566432	-3.005000	3.248700	-9.761100	27.205571	0.000397	20.812421
1993.564169	-3.008400	3.247200	-9.767900	27.194079	0.000394	20.816034
1994.563843	-3.002500	3.247000	-9.747500	27.198045	0.000395	20.805325
1995.566086	-2.995000	3.247700	-9.727100	27.252939	0.000396	20.820236
1996.562372	-3.015700	3.247300	-9.791900	27.241650	0.000394	20.818838
1997.563853	-3.010700	3.246900	-9.773800	27.233636	0.000393	20.819312
1998.565434	-2.999300	3.247400	-9.738900	27.253508	0.000392	20.830291
1999.565459	-3.006900	3.245600	-9.758400	27.253158	0.000392	20.821879
2000.564710	-2.992700	3.244600	-9.708800	27.254085	0.000390	20.834664
2001.570280	-3.004800	3.244000	-9.745800	27.269039	0.000391	20.825999
2002.567436	-2.982500	3.245100	-9.677400	27.212520	0.000390	20.830790
2003.567235	-2.995200	3.244000	-9.714900	27.215381	0.000388	20.829874
2004.572745	-3.005000	3.242900	-9.744000	27.230418	0.000386	20.830299
2005.567491	-2.996700	3.244100	-9.721200	27.220794	0.000388	20.838163
2006.570570	-3.007300	3.243100	-9.750600	27.208318	0.000386	20.814710
2007.570102	-2.997400	3.242500	-9.717400	27.179465	0.000387	20.825517
2008.568297	-2.995800	3.243500	-9.715600	27.180212	0.000385	20.844286
2009.576905	-3.021100	3.240700	-9.789800	27.158226	0.000383	20.827863
2010.569386	-2.974900	3.241600	-9.642100	27.200979	0.000384	20.834354
2011.570884	-2.969100	3.242600	-9.626800	27.155324	0.000384	20.839169
2012.567947	-2.986100	3.242500	-9.680800	27.146318	0.000382	20.836749
2013.571581	-2.965600	3.240600	-9.609800	27.111066	0.000380	20.829743
2014.568487	-3.000200	3.239700	-9.718800	27.097451	0.000380	20.827430
2015.567493	-3.004300	3.239500	-9.731400	27.111326	0.000380	20.806772
2016.572550	-3.003500	3.239000	-9.727200	27.144579	0.000379	20.830732
2017.570667	-3.017900	3.239200	-9.773900	27.145546	0.000378	20.855412
2018.570010	-2.984900	3.239800	-9.669500	27.136565	0.000377	20.850172
2019.575292	-3.001400	3.238000	-9.716900	27.174507	0.000377	20.827168
2020.569017	-2.970900	3.237700	-9.617600	27.182651	0.000375	20.829196
2021.572372	-3.021000	3.235500	-9.772600	27.183301	0.000375	20.843126
2022.575447	-2.997100	3.236400	-9.697900	27.195038	0.000375	20.830275
2023.575201	-2.993700	3.235900	-9.686300	27.229629	0.000374	20.850843
2024.571285	-2.994500	3.235300	-9.686900	27.244072	0.000373	20.828861
2025.575398	-3.005500	3.233500	-9.718000	27.237277	0.000372	20.849526
2026.575770	-3.011200	3.233900	-9.737400	27.217032	0.000373	20.852870
2027.574312	-3.060200	3.231500	-9.886600	27.205759	0.000371	20.837739
2028.576781	-2.984700	3.234000	-9.651200	27.245527	0.000372	20.840281
2029.574441	-3.006800	3.233600	-9.721400	27.280531	0.000371	20.853205
2030.577137	-2.992000	3.232200	-9.670000	27.245779	0.000369	20.840060
2031.578699	-2.982200	3.233000	-9.640600	27.300882	0.000368	20.834322
2032.580041	-2.987100	3.231700	-9.651300	27.331756	0.000367	20.856369
2033.574118	-3.006800	3.231200	-9.714700	27.334852	0.000368	20.834354
2034.578181	-2.989300	3.232000	-9.660000	27.346368	0.000368	20.844516
2035.576427	-2.982000	3.232300	-9.637700	27.369935	0.000365	20.833610
2036.580588	-3.018000	3.230700	-9.748200	27.391445	0.000366	20.830120
2037.579356	-3.012700	3.231400	-9.734000	27.367212	0.000364	20.849837
2038.582965	-3.004600	3.229400	-9.702400	27.332707	0.000366	20.853532
2039.578712	-3.005700	3.230800	-9.710100	27.350748	0.000364	20.841336
2040.578055	-3.011400	3.228500	-9.720900	27.367074	0.000362	20.845431
2041.584191	-3.003400	3.229000	-9.697500	27.324263	0.000361	20.844091
2042.579316	-2.983300	3.228600	-9.629600	27.327286	0.000361	20.838597
2043.582665	-2.979800	3.228300	-9.619200	27.315429	0.000361	20.816713
2044.581260	-3.002900	3.228100	-9.692900	27.260010	0.000360	20.832564
2045.580492	-2.994100	3.226700	-9.660300	27.227809	0.000360	20.824357
2046.588798	-3.013700	3.226000	-9.720400	27.161137	0.000359	20.821308
2047.585594	-2.998800	3.225600	-9.671000	27.198265	0.000358	20.837788
2048.582793	-2.979300	3.226600	-9.611900	27.227883	0.000358	20.835336
2049.583102	-2.999900	3.226700	-9.679000	27.280711	0.000357	20.826834
2050.583351	-2.991000	3.225100	-9.644200	27.319663	0.000357	20.810541
2051.581201	-3.009400	3.224100	-9.701100	27.351317	0.000356	20.816779
2052.582717	-3.018100	3.223000	-9.725800	27.369131	0.000355	20.842758
2053.582434	-3.003900	3.222900	-9.680100	27.342191	0.000354	20.843633
2054.581650	-2.992100	3.222600	-9.641700	27.312431	0.000354	20.811326
2055.581861	-3.002100	3.222600	-9.673200	27.328327	0.000353	20.802187
2056.584277	-2.996400	3.222200	-9.654400	27.328205	0.000351	20.811073
2057.580629	-3.014600	3.220300	-9.707600	27.324930	0.000351	20.846658
2058.583154	-3.000200	3.221600	-9.663700	27.330017	0.000351	20.823801
2059.582306	-3.003300	3.221900	-9.675100	27.328538	0.000352	20.834641
2060.582017	-2.992000	3.222700	-9.641200	27.370236	0.000350	20.816844
2061.587169	-2.995000	3.219800	-9.642500	27.417791	0.000350	20.823908
2062.583999	-2.991800	3.218700	-9.628400	27.474673	0.000351	20.826131
2063.585371	-2.997900	3.219600	-9.651100	27.493548	0.000347	20.817621
2064.587409	-2.983000	3.219100	-9.601800	27.511116	0.000346	20.804476
2065.586898	-2.990400	3.218700	-9.624500	27.580805	0.000346	20.821488
2066.586642	-3.004500	3.219700	-9.673200	27.546079	0.000344	20.824480
2067.592965	-3.004600	3.217100	-9.664900	27.505948	0.000346	20.822984
2068.588852	-3.003300	3.217300	-9.661300	27.524190	0.000342	20.785861
2069.586257	-3.027600	3.216100	-9.736300	27.483895	0.000344	20.804116
2070.591631	-2.999400	3.216800	-9.648100	27.455447	0.000342	20.801574
2071.587994	-2.976400	3.218100	-9.578100	27.460647	0.000341	20.823401
2072.588087	-2.987000	3.216600	-9.607200	27.454626	0.000340	20.814024
2073.588717	-3.003100	3.215200	-9.653800	27.471439	0.000339	20.795377
2074.591336	-3.016700	3.215000	-9.697400	27.488202	0.000339	20.799914
2075.592587	-2.986400	3.215100	-9.599900	27.511108	0.000339	20.788346
2076.593878	-3.011600	3.213200	-9.676000	27.478589	0.000336	20.789295
2077.589092	-3.019900	3.212400	-9.700200	27.433905	0.000338	20.808351
2078.589211	-2.993600	3.214500	-9.622300	27.376258	0.000336	20.821479
2079.594241	-2.972600	3.211600	-9.546100	27.314064	0.000335	20.802064
2080.590489	-3.009600	3.211600	-9.664300	27.342662	0.000335	20.786261
2081.591625	-3.017100	3.210000	-9.682700	27.396565	0.000334	20.792597
2082.595326	-3.026100	3.209000	-9.709200	27.387683	0.000333	20.791248
2083.594573	-3.009000	3.211900	-9.663400	27.368131	0.000333	20.824210
2084.591463	-2.994900	3.210900	-9.614800	27.350821	0.000331	20.785460
2085.595565	-2.996600	3.209200	-9.615100	27.341842	0.000331	20.815307
2086.595196	-3.014900	3.209100	-9.673900	27.332163	0.000332	20.790398
2087.593148	-3.020500	3.208300	-9.689400	27.317713	0.000330	20.782501
2088.593208	-2.987900	3.209300	-9.587900	27.283124	0.000331	20.791804
2089.596076	-3.009200	3.207600	-9.651000	27.255231	0.000329	20.796464
2090.595539	-3.011600	3.207500	-9.658300	27.276598	0.000329	20.787610
2091.598792	-2.991600	3.206600	-9.592200	27.299760	0.000328	20.793839
2092.594858	-2.988800	3.207400	-9.585700	27.309699	0.000328	20.786768
2093.594291	-3.017900	3.205300	-9.671700	27.295274	0.000325	20.778895
2094.597664	-3.010500	3.204600	-9.646400	27.276508	0.000326	20.789891
2095.594610	-3.024400	3.205300	-9.692600	27.282929	0.000324	20.789711
2096.594184	-3.005200	3.204400	-9.628800	27.305782	0.000323	20.797526
2097.596554	-2.989700	3.203600	-9.576600	27.325791	0.000323	20.792049
2098.595647	-2.993500	3.206100	-9.597000	27.342589	0.000322	20.782394
2099.597482	-2.979600	3.204100	-9.545800	27.394403	0.000323	20.792319
2100.596903	-3.008600	3.201900	-9.632200	27.387935	0.000321	20.788182
2101.597448	-2.983600	3.202600	-9.553900	27.361036	0.000318	20.788623
2102.595449	-2.985500	3.202000	-9.559400	27.320175	0.000319	20.775020
2103.594886	-3.002800	3.201100	-9.610800	27.265723	0.000318	20.792319
2104.596899	-3.000400	3.200600	-9.602000	27.253443	0.000317	20.781863
2105.595942	-2.997600	3.202500	-9.598500	27.251346	0.000313	20.772641
2106.597348	-2.984600	3.201800	-9.555500	27.268413	0.000315	20.784119
2107.595941	-2.976900	3.201100	-9.528000	27.269438	0.000316	20.785623
2108.596292	-3.001400	3.202900	-9.612500	27.259156	0.000313	20.796144
2109.595057	-3.014900	3.199100	-9.642900	27.295136	0.000312	20.796300
2110.595829	-2.985100	3.197600	-9.544300	27.309463	0.000313	20.790324
2111.596709	-3.005300	3.198100	-9.610300	27.311772	0.000312	20.798335
2112.596671	-2.999200	3.198100	-9.590400	27.358809	0.000313	20.786858
2113.596149	-2.998400	3.196900	-9.584500	27.400189	0.000310	20.776328
2114.600590	-3.029400	3.194700	-9.677000	27.447913	0.000311	20.781666
2115.599535	-3.009100	3.195900	-9.615600	27.473510	0.000308	20.783236
2116.596849	-3.010600	3.195400	-9.619100	27.526740	0.000310	20.794591
2117.595755	-3.029400	3.194400	-9.676000	27.556251	0.000308	20.796308
2118.597291	-2.972400	3.197200	-9.502100	27.538985	0.000306	20.780832
2119.599937	-3.010600	3.193500	-9.613700	27.589628	0.000307	20.776786
2120.598242	-2.995000	3.193200	-9.562300	27.607169	0.000305	20.765512
2121.599660	-2.976500	3.194700	-9.508400	27.624678	0.000304	20.769853
2122.602521	-2.986800	3.192300	-9.534100	27.630007	0.000305	20.764784
2123.599125	-2.986700	3.192900	-9.533900	27.664560	0.000303	20.771104
2124.598556	-2.991500	3.192100	-9.548100	27.672441	0.000303	20.779508
2125.601321	-3.005000	3.193200	-9.593800	27.687544	0.000302	20.775265
2126.600595	-2.992000	3.191800	-9.549100	27.687275	0.000304	20.768831
2127.604582	-2.990600	3.191600	-9.543700	27.691833	0.000300	20.794280
2128.601716	-2.991700	3.191500	-9.547300	27.685838	0.000301	20.783031
2129.600766	-3.015800	3.188200	-9.613500	27.683579	0.000300	20.758473
2130.601824	-3.001400	3.190100	-9.573700	27.701111	0.000297	20.778012
2131.603643	-3.010200	3.188900	-9.597300	27.709844	0.000299	20.779688
2132.602123	-2.993700	3.188700	-9.544600	27.730129	0.000300	20.773548
2133.602113	-2.986600	3.189500	-9.524900	27.733070	0.000295	20.779353
2134.603763	-3.010000	3.185500	-9.587700	27.728464	0.000297	20.757647
2135.602674	-2.988500	3.187200	-9.524600	27.760008	0.000294	20.771374
2136.603757	-2.937100	3.189100	-9.365500	27.769829	0.000294	20.759920
2137.607707	-2.991600	3.185900	-9.529400	27.797278	0.000295	20.769052
2138.602757	-2.973700	3.185400	-9.470500	27.825847	0.000296	20.785002
2139.602890	-3.027800	3.184100	-9.639400	27.854236	0.000294	20.757623
2140.603890	-3.010300	3.184400	-9.583900	27.824255	0.000292	20.788141
2141.603672	-2.977300	3.185300	-9.481600	27.786019	0.000293	20.770523
2142.603620	-2.994200	3.182100	-9.526800	27.745450	0.000290	20.780432
2143.606364	-2.980100	3.182900	-9.483400	27.736620	0.000291	20.754949
2144.604565	-3.001400	3.181500	-9.547600	27.756011	0.000290	20.759765
2145.606210	-2.967800	3.183000	-9.444800	27.743241	0.000291	20.763509
2146.606524	-2.994600	3.182400	-9.528900	27.754597	0.000288	20.774938
2147.605862	-2.984500	3.179800	-9.489300	27.719926	0.000287	20.754745
2148.604398	-2.989600	3.178600	-9.501800	27.702272	0.000286	20.753102
2149.606607	-3.006900	3.179100	-9.558500	27.690306	0.000285	20.753862
2150.606585	-3.018200	3.179300	-9.594100	27.655615	0.000286	20.752619
2151.607264	-3.013200	3.179500	-9.579200	27.593909	0.000286	20.737470
2152.609111	-2.983000	3.179700	-9.483600	27.542397	0.000284	20.764351
2153.609133	-2.987300	3.177300	-9.490300	27.502616	0.000286	20.737127
2154.608419	-2.989100	3.178200	-9.498900	27.563977	0.000285	20.768520
2155.609050	-2.999300	3.178100	-9.530500	27.599418	0.000280	20.750126
2156.607334	-3.001600	3.177500	-9.536200	27.628902	0.000280	20.780268
2157.610245	-2.980900	3.174800	-9.462500	27.665137	0.000281	20.761253
2158.609559	-2.981800	3.177500	-9.473600	27.633907	0.000281	20.754009
2159.607453	-2.976000	3.175900	-9.448700	27.634037	0.000279	20.770736
2160.608684	-3.011700	3.172600	-9.554000	27.656972	0.000279	20.743079
2161.609087	-3.026600	3.172300	-9.600300	27.713565	0.000277	20.763043
2162.607574	-2.987600	3.174700	-9.483700	27.748683	0.000277	20.737217
2163.609395	-3.019000	3.171900	-9.574000	27.776661	0.000276	20.744035
2164.612622	-2.996000	3.170700	-9.498400	27.771592	0.000275	20.745572
2165.610478	-3.033700	3.170300	-9.617000	27.766515	0.000274	20.775077
2166.613482	-3.013100	3.171800	-9.555900	27.758895	0.000272	20.743700
2167.611609	-2.971900	3.171400	-9.424300	27.790617	0.000272	20.760451
2168.610338	-2.991700	3.169500	-9.480700	27.789552	0.000272	20.751320
2169.611511	-3.004400	3.170800	-9.525400	27.784321	0.000271	20.765496
2170.613494	-2.968700	3.169300	-9.407100	27.782875	0.000272	20.743651
2171.612382	-3.008800	3.167700	-9.528700	27.807505	0.000269	20.731453
2172.614861	-2.987500	3.170700	-9.471500	27.827244	0.000268	20.735672
2173.613231	-3.007000	3.167700	-9.524200	27.836545	0.000268	20.731282
2174.612773	-2.985900	3.167500	-9.456500	27.835830	0.000269	20.743365
2175.610347	-2.992300	3.166400	-9.473700	27.860824	0.000266	20.755718
2176.614230	-2.998000	3.166300	-9.491900	27.875355	0.000267	20.748532
2177.619803	-3.025300	3.163100	-9.568400	27.864073	0.000266	20.746185
2178.611993	-3.012100	3.164100	-9.530100	27.795117	0.000266	20.766403
2179.611851	-3.013500	3.163500	-9.530800	27.754890	0.000265	20.748205
2180.612927	-2.992000	3.162800	-9.461400	27.715628	0.000263	20.744730
2181.610744	-2.993500	3.163700	-9.469500	27.721664	0.000264	20.751753
2182.611146	-3.008900	3.162800	-9.514900	27.745101	0.000262	20.744043
2183.612012	-3.007300	3.161500	-9.505500	27.750081	0.000263	20.753797
2184.611222	-2.998200	3.160000	-9.473000	27.770398	0.000264	20.733464
2185.612665	-2.993300	3.160600	-9.458000	27.779195	0.000259	20.756069
2186.612887	-3.014500	3.160100	-9.524800	27.822037	0.000260	20.732328
2187.613750	-3.002700	3.159000	-9.484400	27.749025	0.000260	20.734241
2188.614747	-3.002400	3.158300	-9.480800	27.738253	0.000258	20.738574
2189.614886	-3.017300	3.158000	-9.528400	27.742818	0.000258	20.749807
2190.613659	-3.027000	3.155500	-9.550700	27.767790	0.000258	20.738901
2191.614289	-2.988300	3.158200	-9.435700	27.796847	0.000259	20.750600
2192.614238	-2.983800	3.158000	-9.421400	27.809698	0.000256	20.742670
2193.614238	-2.982700	3.155900	-9.412200	27.848006	0.000255	20.737127
2194.613780	-2.987800	3.156000	-9.428400	27.897554	0.000256	20.745270
2195.616055	-2.989600	3.154800	-9.431200	27.949919	0.000255	20.751508
2196.616015	-3.019300	3.153600	-9.520700	27.914165	0.000254	20.717416
2197.617342	-2.984400	3.153600	-9.410600	27.908609	0.000253	20.736007
2198.617803	-2.986100	3.152600	-9.412800	27.874494	0.000253	20.726327
2199.619411	-2.978300	3.152700	-9.388700	27.856121	0.000253	20.741975
2200.617105	-2.995600	3.151400	-9.439700	27.877264	0.000252	20.737650
2201.617162	-2.985700	3.152600	-9.411100	27.900080	0.000252	20.727897
2202.617939	-3.015800	3.149500	-9.497400	27.929337	0.000251	20.727946
2203.618095	-3.011500	3.150600	-9.486400	27.939181	0.000251	20.734061
2204.617007	-3.009800	3.149600	-9.478200	27.935762	0.000249	20.737258
2205.617985	-3.005700	3.148300	-9.461300	27.914416	0.000250	20.721937
2206.620170	-3.002800	3.148700	-9.454100	27.846479	0.000248	20.709984
2207.620558	-3.029500	3.145800	-9.529500	27.811867	0.000248	20.722092
2208.619672	-2.988000	3.147200	-9.402500	27.801941	0.000247	20.726327
2209.619363	-3.022500	3.144600	-9.501900	27.798504	0.000248	20.722395
2210.620902	-2.980100	3.146700	-9.376600	27.807976	0.000244	20.727186
2211.621670	-2.993000	3.144700	-9.410100	27.793070	0.000246	20.705545
2212.620636	-2.988300	3.144400	-9.395900	27.753249	0.000246	20.718103
2213.620439	-3.005900	3.143000	-9.446300	27.740674	0.000244	20.726785
2214.622325	-2.992900	3.143900	-9.408600	27.740852	0.000243	20.726965
2215.620712	-2.993900	3.142300	-9.407100	27.745613	0.000244	20.732704
2216.620007	-3.009600	3.141600	-9.453400	27.749488	0.000244	20.712421
2217.622162	-2.986300	3.140800	-9.379000	27.732201	0.000243	20.718732
2218.619593	-2.987300	3.143000	-9.387500	27.731778	0.000240	20.718307
2219.621157	-3.035700	3.139200	-9.528800	27.743436	0.000241	20.724349
2220.621619	-3.003900	3.141200	-9.434400	27.768863	0.000241	20.728600
2221.620774	-3.004500	3.139000	-9.429900	27.814255	0.000241	20.712167
2222.622585	-3.037300	3.136600	-9.524700	27.870596	0.000240	20.724300
2223.619798	-3.014500	3.136900	-9.455000	27.870596	0.000239	20.704384
2224.619808	-2.968300	3.137300	-9.311500	27.902980	0.000238	20.726548
2225.624053	-3.009900	3.136000	-9.437700	27.891893	0.000237	20.720130
2226.624230	-3.000800	3.136600	-9.411400	27.840541	0.000237	20.713492
2227.621948	-3.002100	3.133900	-9.406800	27.798163	0.000237	20.707352
2228.623780	-3.023900	3.135000	-9.478600	27.755434	0.000234	20.717931
2229.626513	-3.001100	3.133800	-9.404100	27.697252	0.000236	20.715805
2230.626957	-2.988600	3.132500	-9.360200	27.669183	0.000235	20.722648
2231.624076	-3.008600	3.132600	-9.423000	27.700209	0.000234	20.700762
2232.627306	-2.991100	3.131700	-9.365700	27.747498	0.000233	20.723221
2233.625299	-2.988900	3.132000	-9.359600	27.814353	0.000234	20.723646
2234.627049	-3.002600	3.129600	-9.396400	27.852125	0.000232	20.705708
2235.626213	-3.019000	3.128200	-9.442600	27.919834	0.000232	20.711742
2236.628979	-3.025400	3.127400	-9.459700	27.933821	0.000231	20.721079
2237.628285	-3.019600	3.127500	-9.441700	27.926161	0.000231	20.708627
2238.625371	-2.975800	3.127200	-9.304200	27.931433	0.000232	20.709191
2239.627880	-2.996500	3.127200	-9.370500	27.922141	0.000231	20.740618
2240.628496	-3.006000	3.125600	-9.394200	27.979491	0.000231	20.722002
2241.626492	-3.006000	3.125900	-9.395300	27.984469	0.000228	20.706624
2242.627892	-3.005500	3.123100	-9.384600	28.016850	0.000229	20.702708
2243.626938	-2.997500	3.124300	-9.364600	28.055248	0.000231	20.715756
2244.628227	-3.000600	3.123200	-9.370300	28.052154	0.000229	20.722125
2245.628690	-2.996000	3.121500	-9.350900	28.081212	0.000227	20.711546
2246.628819	-2.987500	3.122900	-9.327700	28.064620	0.000230	20.717130
2247.634075	-3.011500	3.120200	-9.394600	28.026198	0.000228	20.723499
2248.629857	-3.000300	3.119600	-9.358300	27.994061	0.000225	20.741885
2249.633853	-3.032900	3.117600	-9.454200	28.012327	0.000226	20.724708
2250.630126	-3.005700	3.118200	-9.371500	27.946117	0.000227	20.714963
2251.631626	-3.020900	3.116000	-9.413000	27.951421	0.000226	20.728837
2252.631726	-3.014100	3.116300	-9.391400	27.956530	0.000224	20.724022
2253.630143	-3.013600	3.115700	-9.386900	27.961233	0.000224	20.725436
2254.639989	-2.997300	3.115700	-9.337900	27.924967	0.000225	20.709796
2255.636828	-2.987500	3.115600	-9.306700	27.945443	0.000224	20.738468
2256.639190	-3.004300	3.113500	-9.352700	27.919460	0.000225	20.726540
2257.641397	-2.982000	3.113500	-9.283400	27.893201	0.000223	20.741362
2258.635534	-3.012000	3.111500	-9.370400	27.876834	0.000223	20.723466
2259.636937	-2.999000	3.111500	-9.330500	27.874503	0.000223	20.722542
2260.634677	-2.966700	3.112000	-9.231300	27.880846	0.000225	20.743627
2261.635989	-2.998300	3.110400	-9.325100	27.926616	0.000221	20.719043
2262.639282	-2.993300	3.110400	-9.309200	27.988376	0.000221	20.714350
2263.636157	-2.969600	3.110600	-9.235400	28.031956	0.000221	20.705111
2264.640225	-3.021700	3.108200	-9.389800	28.065124	0.000221	20.716214
2265.636958	-2.984900	3.107500	-9.274100	28.084338	0.000218	20.719909
2266.636083	-2.980400	3.106600	-9.258800	28.038096	0.000219	20.716982
2267.638240	-3.008800	3.106200	-9.344300	28.016371	0.000219	20.725935
2268.642486	-3.015200	3.104200	-9.359100	28.004449	0.000217	20.729581
2269.636521	-3.002000	3.103200	-9.314000	28.038981	0.000218	20.748221
2270.638010	-2.986600	3.103100	-9.265500	28.054680	0.000218	20.724668
2271.640243	-3.026900	3.100000	-9.380300	28.117593	0.000216	20.735843
2272.644458	-2.980700	3.101400	-9.242700	28.128394	0.000218	20.727750
2273.639458	-2.997200	3.099600	-9.289300	28.159333	0.000214	20.733293
2274.641366	-3.000400	3.099300	-9.298000	28.188152	0.000215	20.709199
2275.641414	-2.991300	3.098800	-9.267900	28.186049	0.000214	20.726523
2276.642266	-2.989900	3.098700	-9.264200	28.201063	0.000214	20.710344
2277.644933	-2.988400	3.097600	-9.255400	28.181737	0.000215	20.733088
2278.642018	-3.012300	3.095800	-9.323600	28.141736	0.000215	20.720792
2279.644953	-3.009300	3.095900	-9.315500	28.078523	0.000213	20.733971
2280.644220	-2.986600	3.094800	-9.241400	28.012822	0.000214	20.751761
2281.642972	-2.978000	3.094800	-9.216000	27.937784	0.000213	20.743087
2282.644339	-2.996600	3.092100	-9.265000	27.938799	0.000213	20.738419
2283.643080	-2.982500	3.092800	-9.223700	27.958601	0.000213	20.743177
2284.646550	-3.002700	3.091300	-9.279900	27.953793	0.000212	20.733121
2285.643338	-2.969800	3.091300	-9.179600	27.936923	0.000212	20.761187
2286.643364	-3.001400	3.089400	-9.271900	27.967096	0.000213	20.726597
2287.644647	-2.987100	3.089100	-9.225900	27.997180	0.000211	20.735067
2288.644353	-3.005800	3.087700	-9.279300	28.055232	0.000211	20.749881
2289.654209	-2.981400	3.087700	-9.205000	28.094676	0.000212	20.743594
2290.644136	-2.994800	3.086500	-9.243100	28.092118	0.000211	20.739596
2291.645814	-2.990400	3.086300	-9.228800	28.138057	0.000210	20.764980
2292.644269	-2.988800	3.083700	-9.215700	28.191002	0.000211	20.755219
2293.646401	-3.013600	3.082500	-9.289100	28.242256	0.000210	20.757508
2294.648201	-2.986000	3.084600	-9.210000	28.235646	0.000210	20.745637
2295.647324	-3.030600	3.080300	-9.333600	28.243401	0.000210	20.743962
2296.646316	-2.998900	3.081200	-9.239400	28.204506	0.000210	20.734674
2297.651701	-2.989600	3.080600	-9.209400	28.163434	0.000209	20.743111
2298.647608	-2.976100	3.079400	-9.163900	28.108189	0.000209	20.733489
2299.646982	-3.007300	3.076800	-9.252100	28.120671	0.000209	20.756486
2300.647065	-2.998300	3.076900	-9.223200	28.124715	0.000208	20.732107
2301.649913	-2.985600	3.077300	-9.186700	28.153170	0.000209	20.748425
2302.649529	-2.995100	3.074500	-9.207200	28.164425	0.000208	20.755963
2303.650011	-3.026600	3.074300	-9.303800	28.190020	0.000210	20.752333
2304.648360	-3.008800	3.072900	-9.244700	28.211473	0.000207	20.761130
2305.650673	-3.021400	3.070800	-9.276500	28.232983	0.000207	20.758604
2306.652903	-3.001800	3.073300	-9.223600	28.284364	0.000207	20.733996
2307.655259	-3.021000	3.069700	-9.272800	28.280816	0.000208	20.742277
2308.650679	-3.024800	3.067700	-9.278300	28.269619	0.000208	20.750919
2309.653450	-3.021700	3.067900	-9.268300	28.283617	0.000207	20.746046
2310.649533	-3.021100	3.067400	-9.265100	28.273509	0.000205	20.753886
2311.650787	-2.991800	3.067300	-9.175100	28.220641	0.000207	20.762773
2312.651199	-3.013900	3.065600	-9.238200	28.161071	0.000206	20.763492
2313.654295	-2.989600	3.065300	-9.162000	28.158220	0.000206	20.741656
2314.652295	-3.004300	3.063200	-9.201300	28.154753	0.000208	20.753813
2315.655476	-2.995200	3.063700	-9.175100	28.117739	0.000205	20.747371
2316.656013	-2.996300	3.062400	-9.174300	28.155849	0.000205	20.755391
2317.655099	-3.008400	3.060300	-9.205500	28.224652	0.000204	20.734568
2318.655541	-2.991100	3.060100	-9.151700	28.245853	0.000205	20.752595
2319.655373	-2.984100	3.060500	-9.131700	28.246543	0.000204	20.778420
2320.653806	-2.999700	3.058200	-9.172000	28.291258	0.000205	20.765593
2321.656370	-3.033400	3.056900	-9.271300	28.306628	0.000205	20.755938
2322.654699	-2.992500	3.056700	-9.146200	28.270521	0.000204	20.767000
2323.655390	-3.003100	3.054200	-9.171400	28.222703	0.000205	20.745883
2324.656407	-2.994900	3.054400	-9.146900	28.229077	0.000201	20.772690
2325.656129	-2.999100	3.052700	-9.153900	28.219090	0.000204	20.768798
2326.658244	-3.000900	3.051000	-9.155200	28.253640	0.000203	20.750477
2327.656455	-3.008700	3.049400	-9.173600	28.279866	0.000201	20.756020
2328.659337	-3.019800	3.048200	-9.204000	28.323394	0.000202	20.776614
2329.658354	-2.993000	3.047200	-9.118500	28.335037	0.000203	20.763206
2330.662020	-2.997300	3.047500	-9.133700	28.342076	0.000202	20.755595
2331.657465	-2.995900	3.047500	-9.128700	28.338065	0.000204	20.759617
2332.657142	-2.992900	3.044800	-9.111500	28.301310	0.000201	20.761964
2333.662086	-3.010100	3.043000	-9.158300	28.231635	0.000200	20.746341
2334.659206	-2.986200	3.042600	-9.084600	28.195493	0.000202	20.781552
2335.659730	-2.998500	3.041900	-9.119200	28.189395	0.000203	20.770196
2336.662770	-3.011800	3.040000	-9.154800	28.251943	0.000201	20.781012
2337.658059	-3.018800	3.038700	-9.172500	28.291250	0.000201	20.738558
2338.663760	-2.996800	3.037800	-9.102900	28.317816	0.000202	20.746815
2339.662680	-2.984200	3.036700	-9.061300	28.342060	0.000201	20.764114
2340.665358	-3.002300	3.035300	-9.111600	28.331302	0.000201	20.779835
2341.662901	-3.028000	3.033800	-9.185500	28.363502	0.000199	20.775273
2342.662463	-2.990200	3.034100	-9.071500	28.373521	0.000199	20.763550
2343.664889	-2.972100	3.034500	-9.018100	28.389182	0.000200	20.763198
2344.664969	-2.982900	3.032300	-9.044100	28.350293	0.000201	20.769559
2345.663388	-2.997900	3.030000	-9.081900	28.264447	0.000198	20.767523
2346.663423	-3.016500	3.027100	-9.129600	28.186390	0.000199	20.775706
2347.665591	-3.021800	3.027500	-9.146700	28.122660	0.000200	20.762757
2348.663638	-2.983400	3.026100	-9.027400	28.097145	0.000200	20.747976
2349.665271	-3.001900	3.025500	-9.081600	28.106021	0.000200	20.782042
2350.663923	-3.011800	3.023100	-9.103700	28.154274	0.000198	20.757124
2351.665123	-3.006200	3.024000	-9.087700	28.170011	0.000198	20.779606
2352.664701	-2.973100	3.024300	-8.990400	28.226203	0.000198	20.783072
2353.664245	-2.987600	3.020400	-9.022100	28.283885	0.000197	20.759119
2354.665622	-3.017900	3.018700	-9.109600	28.340047	0.000196	20.790062
2355.665828	-3.007400	3.018800	-9.078300	28.395961	0.000196	20.776189
2356.669811	-3.036700	3.015700	-9.155200	28.423451	0.000199	20.755979
2357.666476	-3.011200	3.016000	-9.080500	28.458497	0.000197	20.765667
2358.667409	-3.013600	3.014100	-9.083000	28.413806	0.000196	20.775666
2359.668000	-3.002600	3.013500	-9.047300	28.407538	0.000199	20.789743
2360.668509	-3.003200	3.011600	-9.043500	28.382232	0.000198	20.769477
2361.668295	-2.972400	3.011800	-8.951200	28.318239	0.000197	20.790863
2362.666185	-3.039100	3.008400	-9.141300	28.271714	0.000196	20.789065
2363.668776	-3.000000	3.010100	-9.029000	28.249759	0.000195	20.790667
2364.667564	-3.004800	3.007300	-9.034700	28.259421	0.000197	20.767678
2365.671157	-2.972900	3.008300	-8.942200	28.284949	0.000196	20.788165
2366.670662	-3.025800	3.004400	-9.089800	28.304777	0.000198	20.765929
2367.672718	-3.016600	3.003300	-9.058800	28.376135	0.000195	20.777088
2368.671922	-3.027800	3.001400	-9.085900	28.415981	0.000195	20.786391
2369.670725	-2.993100	3.000500	-8.980400	28.425805	0.000194	20.797232
2370.669854	-2.998800	2.999600	-8.994400	28.432592	0.000196	20.777987
2371.671063	-3.021400	2.998200	-9.057700	28.432762	0.000194	20.777211
2372.674652	-3.019000	2.997000	-9.047000	28.474823	0.000195	20.792539
2373.669944	-2.998800	2.996400	-8.983600	28.489565	0.000193	20.786048
2374.670034	-2.996300	2.995800	-8.975200	28.509194	0.000196	20.781159
2375.672503	-2.995900	2.993300	-8.966900	28.483817	0.000195	20.796855
2376.670060	-3.001800	2.991400	-8.978000	28.453537	0.000196	20.808088
2377.673815	-3.007400	2.988500	-8.986200	28.431804	0.000194	20.789997
2378.673003	-2.992400	2.989900	-8.946500	28.358128	0.000196	20.798785
2379.670693	-3.009700	2.987400	-8.989600	28.323281	0.000194	20.787879
2380.677168	-2.998700	2.987200	-8.956200	28.308333	0.000194	20.784683
2381.670743	-2.997000	2.986500	-8.949700	28.283025	0.000195	20.772003
2382.672303	-2.985700	2.984500	-8.910300	28.271430	0.000193	20.806796
2383.671187	-3.022800	2.982500	-9.014700	28.277625	0.000195	20.811611
2384.673402	-3.012200	2.981700	-8.979300	28.318279	0.000193	20.789007
2385.676610	-3.022500	2.979800	-9.005300	28.390530	0.000194	20.797747
2386.672793	-3.030100	2.976500	-9.017100	28.410104	0.000192	20.786162
2387.675045	-3.024500	2.977400	-9.004100	28.377783	0.000193	20.798662
2388.674844	-3.026600	2.975300	-9.004000	28.390059	0.000193	20.797272
2389.676549	-2.979600	2.974500	-8.860900	28.424806	0.000193	20.803338
2390.678459	-3.009100	2.973900	-8.946800	28.464253	0.000190	20.782843
2391.676562	-2.989500	2.971200	-8.881600	28.490653	0.000194	20.804213
2392.676147	-3.003400	2.969800	-8.918800	28.478590	0.000193	20.807712
2393.675729	-2.972400	2.968900	-8.823800	28.526785	0.000192	20.789392
2394.676148	-3.002900	2.967200	-8.908200	28.578201	0.000193	20.790912
2395.678555	-3.010200	2.965800	-8.927300	28.559547	0.000191	20.804843
2396.676043	-3.010900	2.963200	-8.921100	28.551430	0.000193	20.801883
2397.675554	-3.032700	2.960400	-8.976300	28.605369	0.000192	20.787928
2398.676754	-3.004100	2.960200	-8.890900	28.576902	0.000193	20.802407
2399.678203	-3.013300	2.958500	-8.913500	28.562088	0.000193	20.806927
2400.677366	-2.994300	2.958200	-8.856300	28.565067	0.000191	20.804712
2401.678162	-3.006400	2.955900	-8.885400	28.593729	0.000192	20.809396
2402.688160	-3.003500	2.955600	-8.876200	28.580109	0.000192	20.805636
2403.678411	-2.968400	2.954300	-8.769000	28.563955	0.000194	20.805014
2404.678769	-2.964300	2.952700	-8.751900	28.546267	0.000194	20.816124
2405.684932	-3.009000	2.949500	-8.873400	28.554377	0.000192	20.805325
2406.681841	-2.978700	2.949200	-8.783800	28.574670	0.000194	20.813435
2407.681752	-3.012800	2.946400	-8.876300	28.560749	0.000192	20.818855
2408.680230	-2.996900	2.945700	-8.826800	28.574086	0.000191	20.798148
2409.681066	-3.000500	2.943600	-8.831200	28.569451	0.000193	20.826196
2410.682099	-3.004400	2.942600	-8.839000	28.534310	0.000192	20.809298
2411.683821	-3.008500	2.940100	-8.844500	28.533028	0.000192	20.806110
2412.681846	-3.001800	2.939600	-8.822900	28.505257	0.000192	20.811334
2413.681509	-3.019200	2.937600	-8.867800	28.443723	0.000191	20.823335
2414.681161	-3.029800	2.934300	-8.889900	28.403325	0.000194	20.833390
2415.681613	-3.021500	2.934200	-8.864700	28.431910	0.000193	20.818553
2416.682194	-3.004200	2.932400	-8.808700	28.448788	0.000193	20.808522
2417.682651	-3.003900	2.930600	-8.802500	28.483656	0.000192	20.831305
2418.684145	-3.008800	2.930000	-8.814800	28.449138	0.000191	20.808399
2419.684235	-2.993800	2.929700	-8.769500	28.424856	0.000195	20.822354
2420.686249	-2.978300	2.927600	-8.718000	28.424653	0.000194	20.814563
2421.684759	-3.005800	2.924100	-8.788400	28.410478	0.000193	20.821152
2422.684825	-2.994600	2.924500	-8.757200	28.445720	0.000192	20.826294
2423.686185	-3.003300	2.922300	-8.775200	28.467996	0.000191	20.822648
2424.685326	-2.984700	2.919600	-8.713000	28.528093	0.000192	20.816787
2425.685534	-3.019100	2.918200	-8.809400	28.593981	0.000193	20.826245
2426.686543	-3.012900	2.916000	-8.785000	28.616750	0.000191	20.827839
2427.691681	-2.990100	2.915200	-8.715500	28.636969	0.000193	20.823073
2428.687265	-3.013400	2.913700	-8.778800	28.672682	0.000192	20.827275
2429.687401	-2.963500	2.913100	-8.632300	28.685482	0.000190	20.815037
2430.685537	-2.991000	2.912700	-8.710500	28.675149	0.000193	20.837821
2431.686752	-2.987500	2.909400	-8.690700	28.711251	0.000192	20.837199
2432.688491	-2.997100	2.905300	-8.706400	28.774004	0.000193	20.830709
2433.693399	-3.003300	2.903700	-8.719200	28.793725	0.000193	20.834453
2434.688505	-2.985900	2.904200	-8.670700	28.814833	0.000192	20.812094
2435.689161	-3.009200	2.901500	-8.729700	28.825115	0.000194	20.820081
2436.687067	-3.011800	2.899700	-8.732000	28.764492	0.000192	20.836300
2437.689291	-2.991800	2.899100	-8.672800	28.753933	0.000191	20.840363
2438.689785	-3.040600	2.894200	-8.799700	28.752911	0.000191	20.828902
2439.689127	-3.016600	2.893500	-8.727100	28.764938	0.000192	20.843862
2440.690855	-3.015100	2.890900	-8.715600	28.764711	0.000193	20.842210
2441.688962	-2.994300	2.891300	-8.656200	28.803236	0.000192	20.839292
2442.690741	-2.969300	2.888900	-8.577000	28.856197	0.000190	20.845701
2443.693196	-2.981300	2.886300	-8.603800	28.845793	0.000192	20.849445
2444.691278	-3.004200	2.884900	-8.666000	28.849064	0.000194	20.846576
2445.691560	-2.986300	2.884800	-8.614300	28.869449	0.000192	20.847671
2446.695292	-3.019200	2.881000	-8.697100	28.898565	0.000191	20.844287
2447.698884	-3.037400	2.877800	-8.739500	28.913025	0.000190	20.836570
2448.693928	-2.999300	2.876600	-8.627000	28.953135	0.000192	20.839521
2449.693583	-2.995200	2.875800	-8.612000	28.948056	0.000191	20.850050
2450.693386	-3.012700	2.873100	-8.653800	28.950011	0.000191	20.837322
2451.693261	-2.976400	2.872300	-8.547600	28.949711	0.000191	20.856459
2452.692818	-2.998100	2.869900	-8.603000	28.958434	0.000190	20.834428
2453.692407	-2.984300	2.868500	-8.559400	28.934180	0.000189	20.829433
2454.691753	-2.982800	2.865700	-8.545700	28.911865	0.000190	20.862901
2455.694375	-2.993700	2.864100	-8.573300	28.892471	0.000190	20.865647
2456.691888	-3.018600	2.861200	-8.634400	28.907986	0.000189	20.860890
2457.692786	-3.005700	2.859200	-8.592600	28.896301	0.000192	20.840110
2458.693498	-2.999100	2.857400	-8.568700	28.908822	0.000190	20.845137
2459.692273	-2.995300	2.856300	-8.553900	28.869895	0.000192	20.877517
2460.694827	-3.008900	2.853600	-8.585600	28.844527	0.000190	20.865239
2461.697097	-2.991100	2.850600	-8.525500	28.772292	0.000191	20.844630
2462.693913	-3.005200	2.850000	-8.563600	28.732053	0.000190	20.848669
2463.693102	-2.995600	2.847500	-8.528700	28.709660	0.000190	20.862149
2464.694586	-3.034600	2.844200	-8.629900	28.712144	0.000188	20.850901
2465.693744	-3.016100	2.844400	-8.577700	28.745883	0.000190	20.880615
2466.694318	-3.017400	2.841900	-8.574000	28.796720	0.000188	20.864969
2467.693375	-3.009800	2.839300	-8.544400	28.790852	0.000190	20.868067
2468.696253	-3.008900	2.836500	-8.534000	28.786372	0.000189	20.862607
2469.695102	-3.024300	2.834400	-8.570900	28.762333	0.000191	20.880591
2470.695693	-2.998100	2.833300	-8.494200	28.756815	0.000190	20.865549
2471.697827	-3.030300	2.830500	-8.575600	28.737215	0.000190	20.865247
2472.695458	-3.021100	2.828400	-8.542100	28.739008	0.000190	20.857571
2473.697138	-3.048200	2.825300	-8.609200	28.771318	0.000191	20.862141
2474.696429	-2.998300	2.823900	-8.465300	28.813032	0.000189	20.871918
2475.701402	-3.022800	2.821700	-8.527800	28.859232	0.000190	20.866776
2476.697138	-2.982700	2.820300	-8.411100	28.872411	0.000191	20.865353
2477.700503	-2.993900	2.817000	-8.431200	28.850289	0.000191	20.860612
2478.696645	-3.001500	2.813800	-8.444700	28.826512	0.000189	20.862738
2479.698109	-3.014700	2.811800	-8.475500	28.828370	0.000191	20.873144
2480.701153	-2.980300	2.810400	-8.374900	28.800153	0.000190	20.866056
2481.702513	-2.999800	2.807200	-8.420400	28.803602	0.000190	20.865738
2482.705991	-3.000000	2.806200	-8.416800	28.846500	0.000192	20.856320
2483.699188	-3.000900	2.803400	-8.411900	28.892487	0.000191	20.874198
2484.702425	-3.014100	2.800000	-8.438800	28.928525	0.000191	20.854555
2485.700675	-3.004000	2.797400	-8.402500	28.972148	0.000191	20.840658
2486.699995	-3.020000	2.794900	-8.439600	29.040678	0.000191	20.871296
2487.700845	-3.014700	2.791200	-8.413200	29.065749	0.000189	20.847247
2488.701327	-2.982500	2.790900	-8.322700	29.101164	0.000192	20.846421
2489.700528	-2.974900	2.787400	-8.291400	29.045806	0.000193	20.862713
2490.703117	-2.947100	2.786600	-8.211400	29.019079	0.000190	20.864708
2491.705463	-3.013200	2.781500	-8.380200	29.055364	0.000192	20.861438
2492.703549	-3.018400	2.778100	-8.384500	29.053830	0.000190	20.852781
2493.707154	-3.013000	2.776400	-8.364100	29.113463	0.000191	20.839374
2494.704119	-3.008600	2.774200	-8.345800	29.128010	0.000191	20.851661
2495.711828	-3.005400	2.770900	-8.326300	29.149599	0.000189	20.855397
2496.706545	-2.998900	2.769800	-8.305100	29.184200	0.000190	20.853754
2497.702985	-3.027600	2.764700	-8.369500	29.218539	0.000192	20.843789
2498.704434	-3.010100	2.762600	-8.313900	29.202177	0.000191	20.857645
2499.705087	-2.991400	2.758600	-8.250300	29.138241	0.000189	20.848694
2500.707094	-3.003500	2.756700	-8.278600	29.138833	0.000191	20.840282
2501.706737	-3.000000	2.753100	-8.258200	29.070568	0.000189	20.847835
2502.711114	-2.992800	2.751000	-8.231700	29.016329	0.000190	20.852454
2503.708253	-3.010400	2.747000	-8.268500	28.947724	0.000189	20.828853
2504.706171	-3.004800	2.744100	-8.244300	28.898858	0.000189	20.855961
2505.706955	-2.995100	2.740500	-8.207300	28.903589	0.000189	20.831330
2506.708731	-2.989100	2.738000	-8.182600	28.931235	0.000189	20.855389
2507.707185	-3.011800	2.734200	-8.233900	28.965583	0.000191	20.852061
2508.704756	-2.980500	2.733300	-8.144800	28.983353	0.000189	20.835352
2509.708030	-3.002400	2.727900	-8.188700	29.025830	0.000190	20.816035
2510.706794	-3.018100	2.724000	-8.219800	29.045400	0.000191	20.834805
2511.711304	-3.020200	2.722400	-8.220900	29.079364	0.000190	20.844369
2512.710885	-2.980200	2.718900	-8.102200	29.125309	0.000188	20.853680
2513.706995	-3.000200	2.715100	-8.143900	29.166595	0.000190	20.858773
2514.709679	-2.970800	2.711700	-8.055600	29.207726	0.000189	20.831944
2515.708939	-3.003000	2.708300	-8.132200	29.237701	0.000191	20.839391
2516.707283	-2.988500	2.705600	-8.083900	29.244215	0.000190	20.828887
2517.711185	-2.993100	2.700900	-8.083000	29.231788	0.000189	20.838173
2518.712116	-3.000300	2.698000	-8.094500	29.141340	0.000190	20.813411
2519.712818	-3.027300	2.692400	-8.149800	29.096840	0.000190	20.827366
2520.713089	-2.988000	2.689900	-8.036500	29.103014	0.000190	20.817466
2521.711411	-3.009400	2.685900	-8.081800	29.154751	0.000190	20.799898
2522.711073	-3.006100	2.682400	-8.062100	29.183632	0.000190	20.826631
2523.711730	-2.993500	2.678800	-8.018500	29.214095	0.000191	20.810861
2524.710051	-3.003700	2.676200	-8.037300	29.260407	0.000190	20.834773
2525.710059	-2.969600	2.672100	-7.934600	29.290267	0.000190	20.845424
2526.711375	-3.014400	2.665200	-8.033300	29.321100	0.000191	20.817704
2527.713738	-3.031200	2.662000	-8.068500	29.389088	0.000191	20.819845
2528.710884	-3.009800	2.657400	-7.997100	29.400208	0.000190	20.808768
2529.710979	-3.017700	2.654000	-8.008200	29.417866	0.000189	20.805703
2530.713919	-2.963500	2.650300	-7.853400	29.402691	0.000191	20.817908
2531.713177	-2.975500	2.646400	-7.873300	29.356490	0.000190	20.832983
2532.718350	-3.021400	2.641500	-7.979300	29.353967	0.000190	20.826173
2533.714101	-2.996300	2.636900	-7.899200	29.352532	0.000192	20.842269
2534.717938	-2.962100	2.634500	-7.802200	29.380929	0.000191	20.820156
2535.717088	-2.996900	2.628100	-7.875300	29.388115	0.000189	20.811278
2536.716162	-3.028300	2.622100	-7.939200	29.406040	0.000191	20.820336
2537.715254	-3.021600	2.617900	-7.910000	29.348257	0.000190	20.812832
2538.721114	-3.022100	2.613900	-7.898700	29.292815	0.000190	20.798207
2539.716020	-2.996600	2.608900	-7.817400	29.230320	0.000192	20.817729
2540.716748	-3.002900	2.603600	-7.816700	29.256189	0.000189	20.791642
2541.717749	-2.990600	2.598600	-7.770300	29.258420	0.000193	20.810011
2542.719592	-3.014800	2.593400	-7.817700	29.296660	0.000191	20.809194
2543.716933	-2.989600	2.589800	-7.742200	29.351234	0.000191	20.807297
2544.722109	-3.022500	2.580900	-7.799500	29.359702	0.000190	20.803030
2545.719647	-3.000800	2.577200	-7.731500	29.427697	0.000192	20.814189
2546.718359	-3.001700	2.572800	-7.721000	29.502337	0.000192	20.796016
2547.718447	-2.970700	2.568100	-7.627900	29.556268	0.000191	20.812922
2548.721323	-2.947900	2.563400	-7.554400	29.579535	0.000191	20.804608
2549.718169	-2.968500	2.555800	-7.585900	29.523310	0.000193	20.816208
2550.720624	-2.988100	2.548800	-7.614200	29.472702	0.000191	20.816404
2551.719434	-3.001800	2.543200	-7.633400	29.469831	0.000193	20.796915
2552.720157	-3.003600	2.537600	-7.621200	29.451144	0.000192	20.818383
2553.724436	-2.989800	2.532600	-7.570700	29.493854	0.000192	20.794577
2554.718060	-3.024800	2.523800	-7.633100	29.492807	0.000191	20.806325
2555.722770	-3.004200	2.519000	-7.566200	29.482540	0.000193	20.810674
2556.719924	-2.995900	2.512300	-7.525700	29.481145	0.000191	20.828233
2557.717529	-2.996100	2.507000	-7.510400	29.491842	0.000192	20.787808
2558.717885	-3.005200	2.499500	-7.510400	29.512418	0.000191	20.818979
