LabVIEW Measurement	
Writer_Version	2
Reader_Version	2
Separator	Tab
Decimal_Separator	.
Multi_Headings	No
X_Columns	One
Time_Pref	Absolute
Operator	admin
Description	Clolumns are: time, Current, Voltage, Power, Battery Temp, and Chamber Temp
Date	2024/08/16
Time	13:06:06.104549407958984375
***End_of_Header***	
	
Channels	6						
Samples	1	1	1	1	1	1	
Date	2024/08/25	2024/08/25	2024/08/25	2024/08/25	2024/08/25	2024/08/25	
Time	20:38:31.0743641853332519531	20:38:31.0803680419921875	20:38:31.0873599052429199219	20:38:31.0584478378295898438	20:38:31.0584478378295898438	20:38:31.0584478378295898438	
X_Dimension	Time	Time	Time	Time	Time	Time	
X0	0.0000000000000000E+0	0.0000000000000000E+0	0.0000000000000000E+0	0.0000000000000000E+0	0.0000000000000000E+0	0.0000000000000000E+0	
Delta_X	1.000000	1.000000	1.000000	1.000000	1.000000	1.000000	
***End_of_Header***							
X_Value	Untitled	Untitled 1	Untitled 2	Untitled 3	Untitled 4	Untitled 5	Comment
0.000000	0.026357	4.108900	0.108230	20.967827	0.000960	20.752573
1.001850	-2.985700	3.951600	-11.796000	20.979358	0.000965	20.750355
2.002852	-2.992600	3.943100	-11.798000	20.973694	0.000964	20.777881
3.002405	-2.986100	3.939800	-11.762000	20.982796	0.000959	20.763278
4.002026	-2.990200	3.936000	-11.769000	20.974394	0.000961	20.754400
5.002163	-2.995900	3.930400	-11.774000	20.968953	0.000959	20.739474
6.006094	-2.988700	3.929100	-11.742000	20.974918	0.000960	20.731689
7.003077	-3.003800	3.924900	-11.788000	20.966759	0.000957	20.741073
8.004463	-3.010600	3.922200	-11.807000	20.978739	0.000957	20.754952
9.003460	-3.000300	3.921200	-11.764000	20.983752	0.000956	20.774191
10.004954	-2.980200	3.919600	-11.679000	20.985401	0.000957	20.736010
11.004875	-2.997700	3.918300	-11.746000	20.983904	0.000955	20.731668
12.002055	-2.978900	3.916300	-11.666000	20.984580	0.000954	20.759846
13.003530	-2.992500	3.914700	-11.714000	20.996135	0.000955	20.745798
14.004028	-2.997400	3.913900	-11.730000	21.001021	0.000951	20.761116
15.009953	-3.001800	3.911500	-11.739000	20.994264	0.000953	20.766686
16.006864	-3.025900	3.908900	-11.827000	21.022237	0.000952	20.770958
17.007920	-3.015200	3.908500	-11.783000	21.002150	0.000950	20.759875
18.008062	-2.987700	3.908800	-11.678000	21.024010	0.000951	20.762773
19.005487	-2.979600	3.908200	-11.644000	21.045619	0.000950	20.785335
20.006208	-3.006500	3.907000	-11.745000	21.039155	0.000949	20.761326
21.004449	-2.984600	3.906200	-11.658000	21.020922	0.000949	20.765374
22.006729	-3.013600	3.904300	-11.765000	21.039208	0.000948	20.753318
23.004729	-2.991700	3.902900	-11.676000	21.049238	0.000946	20.769988
24.006534	-3.015300	3.901900	-11.764000	21.036492	0.000945	20.766723
25.008261	-2.993900	3.901500	-11.680000	21.046026	0.000945	20.784794
26.005603	-3.014600	3.900000	-11.756000	21.071377	0.000944	20.750407
27.007871	-3.005700	3.899700	-11.719000	21.064217	0.000945	20.752254
28.007715	-2.995300	3.900500	-11.682000	21.078587	0.000947	20.764731
29.006901	-3.030100	3.898900	-11.812000	21.065915	0.000945	20.764384
30.007345	-3.018800	3.897400	-11.765000	21.077869	0.000946	20.779186
31.010065	-3.010500	3.898100	-11.733000	21.067568	0.000943	20.761770
32.010766	-3.020300	3.895100	-11.763000	21.086703	0.000942	20.783755
33.009701	-2.989900	3.897500	-11.652000	21.087428	0.000943	20.753185
34.019496	-2.996900	3.896100	-11.673000	21.106566	0.000944	20.783235
35.012354	-2.984200	3.895600	-11.625000	21.105148	0.000941	20.760953
36.012233	-3.003100	3.896200	-11.700000	21.129121	0.000940	20.766441
37.011176	-3.011500	3.893200	-11.724000	21.118520	0.000940	20.780967
38.011357	-2.988100	3.895200	-11.637000	21.125704	0.000940	20.762075
39.011230	-2.984300	3.894600	-11.621000	21.136413	0.000939	20.766622
40.011736	-2.983900	3.894700	-11.621000	21.143898	0.000940	20.765101
41.012426	-2.995700	3.893100	-11.662000	21.156098	0.000939	20.780624
42.013523	-3.018300	3.891800	-11.746000	21.148518	0.000938	20.753601
43.011467	-2.970300	3.894400	-11.566000	21.147220	0.000938	20.758940
44.015156	-3.013600	3.890800	-11.724000	21.142978	0.000939	20.769397
45.012265	-3.021300	3.890400	-11.753000	21.153287	0.000938	20.768329
46.013392	-3.001700	3.890400	-11.676000	21.153085	0.000938	20.780455
47.011151	-3.020300	3.890400	-11.749000	21.177337	0.000938	20.772472
48.013477	-3.006200	3.891700	-11.698000	21.183652	0.000937	20.758874
49.013621	-2.998800	3.890400	-11.665000	21.191883	0.000938	20.773746
50.014641	-2.998700	3.889300	-11.662000	21.188392	0.000937	20.785427
51.014359	-3.015300	3.887700	-11.722000	21.193333	0.000934	20.780413
52.013846	-3.007500	3.889300	-11.695000	21.197900	0.000935	20.783559
53.016118	-3.005800	3.887000	-11.681000	21.217086	0.000936	20.774777
54.015532	-3.008700	3.887400	-11.695000	21.223849	0.000936	20.761154
55.014337	-3.000500	3.887100	-11.663000	21.219361	0.000936	20.776578
56.015538	-3.000400	3.887000	-11.661000	21.241485	0.000933	20.756037
57.016086	-2.989200	3.887300	-11.619000	21.222028	0.000935	20.793945
58.016800	-3.019400	3.886100	-11.732000	21.231709	0.000934	20.782767
59.015738	-3.017400	3.885500	-11.723000	21.252143	0.000933	20.767173
60.016319	-2.993900	3.886600	-11.634000	21.270207	0.000932	20.788090
61.017392	-2.991300	3.884000	-11.617000	21.299547	0.000933	20.772397
62.016289	-3.021400	3.885100	-11.737000	21.290567	0.000932	20.750610
63.017309	-2.998600	3.885200	-11.647000	21.285407	0.000933	20.783855
64.016042	-3.024000	3.883900	-11.744000	21.309108	0.000933	20.768211
65.017791	-2.967100	3.885900	-11.528000	21.321286	0.000932	20.780395
66.017389	-3.003900	3.884400	-11.667000	21.314103	0.000932	20.781743
67.017193	-2.983500	3.884600	-11.589000	21.304154	0.000932	20.787911
68.017193	-2.989200	3.882600	-11.605000	21.333262	0.000931	20.775781
69.019836	-2.993700	3.882800	-11.623000	21.327080	0.000932	20.786666
70.018213	-3.000700	3.883100	-11.651000	21.313834	0.000931	20.775311
71.017124	-2.991600	3.883800	-11.617000	21.341154	0.000932	20.799798
72.018468	-3.002200	3.882700	-11.655000	21.350385	0.000932	20.770153
73.018682	-2.990200	3.881400	-11.605000	21.362888	0.000932	20.796887
74.017327	-3.003700	3.882700	-11.662000	21.373586	0.000930	20.783408
75.017885	-2.986700	3.881600	-11.593000	21.380200	0.000931	20.794767
76.017946	-2.987700	3.882300	-11.598000	21.397463	0.000933	20.780270
77.018061	-2.986500	3.882200	-11.592000	21.371126	0.000930	20.793275
78.020064	-2.993000	3.880900	-11.614000	21.384770	0.000929	20.795072
79.020098	-2.988200	3.880700	-11.596000	21.402330	0.000932	20.787036
80.018796	-2.983300	3.881100	-11.578000	21.411536	0.000931	20.789135
81.019853	-2.994400	3.880400	-11.618000	21.403129	0.000931	20.792578
82.027667	-2.999900	3.879500	-11.636000	21.416629	0.000933	20.798024
83.020600	-3.005300	3.879000	-11.656000	21.413237	0.000932	20.781829
84.022314	-3.003600	3.879400	-11.651000	21.417202	0.000931	20.770622
85.020606	-2.997000	3.879800	-11.627000	21.455336	0.000934	20.792656
86.020542	-2.982200	3.881300	-11.574000	21.427158	0.000935	20.794808
87.021453	-3.003500	3.879400	-11.650000	21.435535	0.000931	20.806035
88.023321	-3.008200	3.877300	-11.663000	21.481374	0.000934	20.794054
89.019940	-2.996800	3.878400	-11.621000	21.459976	0.000932	20.792557
90.023607	-2.996500	3.879100	-11.622000	21.464863	0.000931	20.813094
91.021825	-2.994500	3.879700	-11.617000	21.497453	0.000931	20.783115
92.023393	-3.015600	3.878400	-11.694000	21.486558	0.000931	20.790232
93.025588	-3.002100	3.876400	-11.635000	21.476005	0.000931	20.812389
94.022110	-2.993100	3.877300	-11.604000	21.502563	0.000930	20.791073
95.023005	-3.007100	3.876900	-11.657000	21.498772	0.000930	20.797711
96.024597	-3.006000	3.875700	-11.650000	21.512114	0.000930	20.791147
97.024526	-2.990700	3.876000	-11.592000	21.518921	0.000933	20.787527
98.022992	-2.977600	3.877200	-11.544000	21.522008	0.000930	20.794409
99.027371	-3.009900	3.876600	-11.667000	21.511983	0.000931	20.785800
100.025042	-2.984700	3.875400	-11.565000	21.522877	0.000932	20.815193
101.024547	-2.973700	3.876000	-11.525000	21.533475	0.000932	20.818211
102.026854	-3.037900	3.874200	-11.767000	21.523545	0.000931	20.819181
103.024306	-2.970300	3.875400	-11.511000	21.546438	0.000929	20.819329
104.024276	-2.998500	3.875100	-11.618000	21.537654	0.000932	20.804375
105.030014	-3.037400	3.871900	-11.759000	21.559550	0.000929	20.822017
106.028130	-2.991500	3.874700	-11.590000	21.589451	0.000931	20.805472
107.025305	-3.003000	3.874700	-11.634000	21.574585	0.000930	20.815252
108.031472	-2.984200	3.874300	-11.560000	21.584404	0.000930	20.794732
109.027996	-3.025300	3.873300	-11.718000	21.598672	0.000930	20.826079
110.040912	-2.989900	3.873100	-11.578000	21.584305	0.000931	20.818814
111.027601	-3.000400	3.873400	-11.621000	21.613802	0.000930	20.809451
112.028774	-2.996600	3.873300	-11.606000	21.613130	0.000930	20.810676
113.027286	-2.982600	3.873700	-11.553000	21.606344	0.000932	20.843239
114.030293	-2.991200	3.872100	-11.580000	21.607465	0.000931	20.828240
115.026433	-3.006500	3.872200	-11.640000	21.629660	0.000933	20.812993
116.032807	-3.030000	3.871800	-11.730000	21.637241	0.000930	20.829588
117.034856	-3.012900	3.872100	-11.664000	21.636591	0.000929	20.827988
118.029729	-3.012800	3.871500	-11.662000	21.636817	0.000931	20.826319
119.030316	-2.997000	3.870600	-11.599000	21.654570	0.000931	20.841240
120.034550	-2.974400	3.872300	-11.516000	21.650727	0.000932	20.814634
121.031431	-2.988000	3.872300	-11.569000	21.641972	0.000932	20.839063
122.031035	-3.014800	3.870800	-11.669000	21.671277	0.000933	20.833777
123.036490	-2.992200	3.870600	-11.581000	21.679278	0.000932	20.818551
124.029221	-2.988200	3.871300	-11.568000	21.648403	0.000932	20.820370
125.028942	-2.990900	3.870900	-11.577000	21.700969	0.000932	20.831250
126.035884	-3.011200	3.870500	-11.653000	21.696083	0.000932	20.816403
127.034264	-3.013900	3.868900	-11.659000	21.709147	0.000932	20.810986
128.032212	-3.008500	3.868400	-11.638000	21.698794	0.000934	20.832392
129.034048	-3.000200	3.869700	-11.609000	21.699046	0.000933	20.826480
130.034207	-2.991600	3.869200	-11.573000	21.720189	0.000934	20.826777
131.032882	-2.994800	3.867800	-11.582000	21.730987	0.000934	20.827626
132.034464	-2.992000	3.868600	-11.573000	21.732705	0.000935	20.852104
133.032671	-3.017300	3.867700	-11.668000	21.767759	0.000935	20.823652
134.032261	-2.984100	3.869600	-11.546000	21.749732	0.000934	20.833110
135.034882	-3.016500	3.867500	-11.665000	21.793264	0.000937	20.832583
136.034102	-3.037300	3.867300	-11.744000	21.765189	0.000936	20.851424
137.038731	-2.980600	3.870000	-11.535000	21.767780	0.000935	20.824147
138.035254	-2.955300	3.870800	-11.438000	21.777852	0.000936	20.842762
139.035428	-2.992000	3.868000	-11.571000	21.785029	0.000936	20.840936
140.035341	-2.986700	3.869200	-11.555000	21.787497	0.000938	20.827759
141.035242	-2.980800	3.867900	-11.528000	21.781458	0.000935	20.863913
142.036736	-2.980100	3.868300	-11.526000	21.813244	0.000938	20.817968
143.040874	-3.015800	3.866100	-11.659000	21.804338	0.000937	20.846511
144.038120	-2.978300	3.867700	-11.519000	21.803292	0.000938	20.854472
145.038037	-2.992300	3.867300	-11.571000	21.805607	0.000938	20.838299
146.038474	-3.004100	3.866700	-11.615000	21.829842	0.000938	20.854967
147.038909	-2.984400	3.866000	-11.536000	21.837244	0.000938	20.852420
148.042896	-3.007100	3.864900	-11.621000	21.827667	0.000939	20.868911
149.037791	-2.999600	3.866000	-11.595000	21.840231	0.000937	20.848297
150.039071	-2.999800	3.865200	-11.594000	21.860148	0.000938	20.850215
151.039018	-3.001400	3.864200	-11.597000	21.858101	0.000940	20.851010
152.040345	-2.999300	3.864900	-11.590000	21.857348	0.000938	20.845515
153.039602	-3.001800	3.864100	-11.598000	21.866295	0.000940	20.867746
154.039633	-2.994400	3.864100	-11.569000	21.867193	0.000942	20.866274
155.043901	-2.994600	3.864100	-11.570000	21.866369	0.000939	20.842217
156.036216	-2.963300	3.865700	-11.454000	21.888329	0.000940	20.851395
157.042473	-2.995100	3.864500	-11.573000	21.877426	0.000940	20.883628
158.044546	-3.010600	3.864500	-11.634000	21.881863	0.000941	20.874319
159.039123	-2.980800	3.865500	-11.520000	21.889261	0.000941	20.862759
160.043326	-2.981600	3.865300	-11.523000	21.922766	0.000942	20.865950
161.044738	-3.005400	3.862700	-11.609000	21.932978	0.000943	20.860525
162.042093	-3.007000	3.863500	-11.616000	21.923706	0.000942	20.863098
163.045347	-3.002200	3.862400	-11.595000	21.921479	0.000942	20.856127
164.044141	-3.012700	3.862900	-11.635000	21.933391	0.000944	20.877059
165.042956	-2.975400	3.862600	-11.492000	21.955202	0.000943	20.867123
166.044604	-2.992300	3.863300	-11.558000	21.951104	0.000943	20.869660
167.045697	-2.985300	3.862700	-11.531000	21.977301	0.000943	20.873123
168.041576	-3.016300	3.860000	-11.641000	21.983306	0.000942	20.861592
169.044859	-3.003800	3.861100	-11.597000	22.000701	0.000942	20.868572
170.047764	-2.999200	3.861500	-11.581000	21.996384	0.000945	20.893173
171.042969	-3.007700	3.860300	-11.609000	22.014676	0.000944	20.904845
172.047928	-2.994800	3.861400	-11.563000	22.005245	0.000944	20.870277
173.050817	-3.006800	3.860700	-11.608000	22.011321	0.000945	20.895324
174.047758	-3.011800	3.860100	-11.624000	22.025729	0.000946	20.890781
175.048561	-2.982700	3.860800	-11.515000	22.041405	0.000945	20.903627
176.048614	-2.996000	3.860100	-11.564000	22.021257	0.000948	20.895787
177.047379	-3.026500	3.859700	-11.680000	22.024420	0.000945	20.888523
178.057865	-2.987600	3.861100	-11.534000	22.020974	0.000944	20.904511
179.049138	-3.007800	3.860600	-11.611000	22.032758	0.000946	20.895920
180.048576	-2.998200	3.860400	-11.573000	22.011839	0.000947	20.899635
181.053319	-2.970500	3.861000	-11.468000	22.027544	0.000947	20.899710
182.048559	-2.996600	3.860400	-11.567000	22.025967	0.000947	20.902872
183.047836	-3.000000	3.859200	-11.577000	22.060239	0.000945	20.905887
184.049627	-3.009000	3.857900	-11.606000	22.050787	0.000946	20.881728
185.051109	-3.004900	3.858900	-11.592000	22.054195	0.000946	20.898414
186.046462	-2.980000	3.860300	-11.503000	22.044124	0.000946	20.894497
187.049942	-2.983400	3.859300	-11.513000	22.068400	0.000949	20.898410
188.049163	-3.000200	3.857200	-11.572000	22.077296	0.000947	20.918694
189.049157	-2.980700	3.857900	-11.498000	22.083676	0.000949	20.886203
190.050602	-2.993100	3.859300	-11.550000	22.089377	0.000947	20.895703
191.051191	-3.003200	3.858400	-11.586000	22.073295	0.000951	20.900940
192.051153	-3.019400	3.856500	-11.643000	22.108339	0.000950	20.895247
193.052171	-3.007700	3.857300	-11.600000	22.097644	0.000948	20.906823
194.049981	-3.009400	3.855800	-11.602000	22.114068	0.000950	20.907619
195.049787	-2.974500	3.858200	-11.475000	22.127725	0.000952	20.919394
196.051251	-2.991100	3.857700	-11.538000	22.118147	0.000952	20.909332
197.050343	-2.996400	3.856900	-11.556000	22.121413	0.000951	20.915920
198.048527	-3.001900	3.855000	-11.571000	22.132924	0.000952	20.899471
199.052462	-2.987500	3.855900	-11.518000	22.150168	0.000953	20.903458
200.054387	-2.993500	3.855700	-11.541000	22.153133	0.000954	20.919702
201.055388	-2.995200	3.856900	-11.551000	22.170303	0.000956	20.912236
202.052894	-3.000400	3.856100	-11.569000	22.164789	0.000955	20.907665
203.052213	-3.016200	3.854200	-11.624000	22.168175	0.000956	20.907736
204.050436	-3.006800	3.854600	-11.589000	22.183351	0.000958	20.923402
205.053700	-3.008100	3.854800	-11.594000	22.184446	0.000959	20.897001
206.051985	-3.011300	3.854500	-11.605000	22.197547	0.000958	20.908220
207.052386	-2.997700	3.853700	-11.552000	22.203206	0.000960	20.930004
208.054328	-2.976200	3.854800	-11.472000	22.229149	0.000960	20.909989
209.051674	-3.010200	3.852400	-11.595000	22.229368	0.000959	20.906416
210.052690	-2.996200	3.853600	-11.545000	22.230984	0.000958	20.911352
211.053604	-2.983100	3.854500	-11.497000	22.251965	0.000958	20.886843
212.053276	-3.000400	3.853500	-11.561000	22.223322	0.000961	20.914585
213.055294	-2.995700	3.853500	-11.543000	22.235330	0.000961	20.901006
214.054526	-3.007800	3.853300	-11.589000	22.246445	0.000961	20.932994
215.057507	-3.001900	3.853700	-11.567000	22.257280	0.000962	20.907810
216.054623	-3.015600	3.853700	-11.620000	22.276123	0.000960	20.907711
217.057140	-2.986100	3.852700	-11.503000	22.270957	0.000963	20.901116
218.056361	-2.992500	3.851700	-11.525000	22.262302	0.000962	20.908571
219.054204	-2.995700	3.852100	-11.539000	22.302701	0.000962	20.913935
220.054274	-3.012400	3.851400	-11.601000	22.284728	0.000963	20.892621
221.053738	-2.991200	3.853000	-11.523000	22.307009	0.000962	20.894542
222.053692	-2.960300	3.854600	-11.409000	22.314505	0.000964	20.887349
223.055105	-2.995600	3.850600	-11.533000	22.283322	0.000964	20.918711
224.058765	-3.008300	3.850400	-11.582000	22.293118	0.000963	20.912874
225.053180	-3.025000	3.849500	-11.644000	22.294733	0.000964	20.886044
226.056012	-2.991000	3.850800	-11.518000	22.319629	0.000966	20.874463
227.055122	-2.974500	3.851700	-11.456000	22.318381	0.000965	20.882697
228.058538	-2.989600	3.850600	-11.510000	22.331389	0.000967	20.922271
229.055626	-2.997000	3.850800	-11.538000	22.339563	0.000965	20.881147
230.057229	-3.000600	3.850200	-11.552000	22.342499	0.000968	20.890251
231.067286	-2.986600	3.850000	-11.496000	22.319449	0.000967	20.898463
232.061409	-2.989900	3.849200	-11.508000	22.329789	0.000968	20.880369
233.056969	-2.986100	3.849800	-11.493000	22.337736	0.000969	20.894490
234.055718	-3.006000	3.848200	-11.566000	22.335814	0.000967	20.883083
235.059833	-3.008600	3.850200	-11.581000	22.326969	0.000969	20.881813
236.056463	-3.002200	3.848900	-11.553000	22.346606	0.000969	20.881561
237.058034	-3.003500	3.848100	-11.555000	22.348924	0.000970	20.886727
238.056828	-2.966900	3.849100	-11.419000	22.351786	0.000970	20.863517
239.057972	-2.995100	3.848800	-11.527000	22.374465	0.000971	20.885277
240.059592	-2.998900	3.847400	-11.537000	22.381567	0.000972	20.881010
241.059223	-2.995700	3.849100	-11.530000	22.364797	0.000972	20.891716
242.058672	-3.006700	3.847900	-11.568000	22.369306	0.000973	20.878214
243.057760	-3.027100	3.845200	-11.639000	22.384260	0.000974	20.894610
244.058743	-3.004500	3.847600	-11.559000	22.368758	0.000973	20.870080
245.060138	-3.015700	3.846600	-11.599000	22.369575	0.000972	20.906456
246.057744	-2.998900	3.846600	-11.535000	22.389189	0.000973	20.864936
247.057674	-3.013900	3.846000	-11.590000	22.371345	0.000974	20.883101
248.059841	-3.026900	3.844700	-11.636000	22.409373	0.000976	20.880879
249.060052	-2.994200	3.845900	-11.514000	22.419864	0.000975	20.878583
250.064460	-2.980900	3.846900	-11.466000	22.413136	0.000976	20.873742
251.061798	-3.008100	3.844800	-11.564000	22.451859	0.000976	20.866528
252.063487	-3.004600	3.846200	-11.554000	22.425620	0.000977	20.871545
253.067855	-3.006600	3.845600	-11.562000	22.446824	0.000977	20.889459
254.061729	-3.024100	3.845200	-11.627000	22.441167	0.000975	20.880002
255.064313	-3.008200	3.844800	-11.565000	22.478871	0.000977	20.873190
256.062430	-3.013200	3.844300	-11.583000	22.469003	0.000977	20.872791
257.061529	-3.002400	3.845000	-11.543000	22.476854	0.000978	20.853627
258.063814	-3.000900	3.844000	-11.535000	22.475384	0.000979	20.870172
259.064609	-3.043800	3.843500	-11.698000	22.482062	0.000979	20.882549
260.064736	-2.996800	3.844200	-11.520000	22.498509	0.000979	20.881477
261.063932	-2.975000	3.844400	-11.437000	22.465766	0.000980	20.857696
262.068209	-2.974300	3.844100	-11.433000	22.476758	0.000981	20.868230
263.063103	-3.001500	3.842900	-11.533000	22.496095	0.000979	20.860569
264.066760	-2.997200	3.844000	-11.519000	22.486701	0.000979	20.856376
265.070846	-2.999100	3.843700	-11.526000	22.492509	0.000980	20.881158
266.065357	-3.011500	3.842000	-11.569000	22.493407	0.000982	20.864514
267.067140	-2.982100	3.843000	-11.459000	22.528268	0.000981	20.858177
268.066898	-2.997400	3.842800	-11.518000	22.533257	0.000981	20.859380
269.064414	-2.984500	3.843300	-11.469000	22.524936	0.000980	20.854366
270.066390	-2.999900	3.842400	-11.525000	22.537595	0.000984	20.843812
271.068629	-2.989700	3.842100	-11.485000	22.522947	0.000983	20.860909
272.065410	-2.986400	3.842300	-11.473000	22.541263	0.000983	20.874035
273.068778	-2.995600	3.842800	-11.510000	22.559306	0.000984	20.849908
274.070766	-3.000900	3.842200	-11.529000	22.558613	0.000985	20.853007
275.075461	-3.004800	3.841900	-11.543000	22.556673	0.000985	20.845849
276.068999	-2.981600	3.842000	-11.455000	22.568361	0.000985	20.849020
277.073130	-3.006200	3.839700	-11.542000	22.587873	0.000987	20.840588
278.073574	-2.997200	3.840500	-11.510000	22.562337	0.000985	20.840616
279.070128	-3.024100	3.839000	-11.609000	22.589148	0.000989	20.845184
280.073457	-3.017500	3.839400	-11.584000	22.583697	0.000987	20.844940
281.076756	-3.005500	3.838700	-11.536000	22.577278	0.000988	20.851786
282.072656	-3.004200	3.840000	-11.535000	22.591628	0.000988	20.857150
283.073122	-2.997400	3.838700	-11.505000	22.596366	0.000990	20.838188
284.074984	-3.000800	3.839700	-11.521000	22.607010	0.000990	20.847901
285.073235	-2.996900	3.838300	-11.502000	22.625399	0.000991	20.861576
286.079319	-2.994400	3.838900	-11.494000	22.634595	0.000992	20.835227
287.074961	-2.998600	3.837800	-11.507000	22.620894	0.000991	20.847583
288.075146	-2.980700	3.838000	-11.438000	22.626854	0.000993	20.842647
289.076633	-3.011700	3.837500	-11.556000	22.622618	0.000994	20.842197
290.073249	-2.991300	3.837200	-11.476000	22.633206	0.000995	20.849483
291.079057	-3.003000	3.837800	-11.522000	22.631041	0.000994	20.838779
292.078865	-2.991000	3.838500	-11.480000	22.614228	0.000997	20.818621
293.077722	-3.010000	3.836800	-11.547000	22.620428	0.000996	20.820090
294.076437	-2.987900	3.837600	-11.465000	22.616574	0.000997	20.834721
295.079483	-3.031800	3.836500	-11.630000	22.640890	0.000998	20.843428
296.076911	-2.985800	3.835000	-11.450000	22.615948	0.000996	20.825086
297.076497	-3.013900	3.835900	-11.561000	22.635633	0.000999	20.832000
298.082718	-3.004700	3.836900	-11.528000	22.615952	0.000997	20.832675
299.077577	-3.005300	3.835600	-11.525000	22.622283	0.000997	20.824318
300.078705	-2.990600	3.835700	-11.470000	22.622085	0.000999	20.820801
301.077721	-3.006400	3.835700	-11.529000	22.622735	0.000997	20.813391
302.078968	-3.001300	3.835400	-11.511000	22.609010	0.000999	20.829042
303.080687	-3.002900	3.835700	-11.517000	22.594083	0.001000	20.821678
304.083873	-2.998200	3.836100	-11.501000	22.611801	0.001001	20.813819
305.082304	-2.985300	3.834300	-11.446000	22.607017	0.001000	20.810925
306.080470	-2.984300	3.835600	-11.445000	22.605700	0.001003	20.804864
307.085951	-3.007000	3.833700	-11.527000	22.637965	0.001003	20.796877
308.085816	-2.994500	3.834400	-11.481000	22.656505	0.001002	20.815447
309.085095	-3.004700	3.832200	-11.514000	22.671451	0.001003	20.822358
310.091325	-3.006500	3.833100	-11.523000	22.696141	0.001004	20.809156
311.087428	-3.002200	3.833300	-11.508000	22.699833	0.001004	20.829923
312.085976	-3.009500	3.832900	-11.533000	22.721953	0.001005	20.824580
313.089781	-3.006700	3.832900	-11.524000	22.695420	0.001005	20.814124
314.090332	-3.015600	3.831000	-11.552000	22.704443	0.001006	20.820316
315.086223	-3.011700	3.833600	-11.545000	22.731597	0.001006	20.801998
316.102788	-3.005500	3.831000	-11.512000	22.734755	0.001006	20.783824
317.088210	-2.994500	3.832100	-11.473000	22.736677	0.001006	20.823681
318.088772	-3.003400	3.831200	-11.506000	22.746465	0.001008	20.804089
319.091067	-2.998000	3.832200	-11.488000	22.727856	0.001009	20.796828
320.089698	-3.020100	3.830600	-11.567000	22.745543	0.001008	20.798898
321.091536	-2.994200	3.832900	-11.475000	22.710685	0.001010	20.800490
322.093159	-3.017900	3.830000	-11.557000	22.732212	0.001012	20.804510
323.097037	-3.009500	3.830700	-11.526000	22.705379	0.001009	20.813667
324.088671	-2.989800	3.830100	-11.448000	22.698978	0.001010	20.818635
325.096756	-2.999300	3.830600	-11.488000	22.718555	0.001013	20.801262
326.093251	-2.993300	3.830700	-11.465000	22.710059	0.001011	20.811243
327.090690	-2.993300	3.830200	-11.464000	22.729887	0.001013	20.809294
328.093981	-2.993900	3.830400	-11.467000	22.720374	0.001013	20.808774
329.089509	-2.999500	3.828300	-11.483000	22.736366	0.001013	20.811990
330.089443	-2.995300	3.830300	-11.472000	22.763470	0.001012	20.777027
331.097433	-3.007200	3.828800	-11.512000	22.777493	0.001012	20.807670
332.092071	-2.984400	3.829900	-11.429000	22.782202	0.001016	20.798636
333.093634	-3.004700	3.828100	-11.501000	22.787133	0.001013	20.798360
334.098980	-3.016700	3.827000	-11.544000	22.825620	0.001015	20.797086
335.090553	-2.996700	3.828300	-11.471000	22.820541	0.001014	20.801007
336.090118	-3.015500	3.827800	-11.542000	22.832144	0.001016	20.792716
337.101415	-2.985900	3.827400	-11.426000	22.849554	0.001016	20.800200
338.091718	-2.994100	3.827800	-11.460000	22.879774	0.001015	20.799181
339.092057	-2.981400	3.826500	-11.407000	22.851151	0.001016	20.817446
340.096212	-3.018300	3.825700	-11.546000	22.846520	0.001018	20.796686
341.097044	-3.013400	3.826100	-11.529000	22.883335	0.001017	20.791842
342.092596	-2.991800	3.826200	-11.445000	22.882190	0.001018	20.776945
343.096206	-2.993900	3.826300	-11.454000	22.904682	0.001018	20.797582
344.096566	-3.031100	3.823500	-11.586000	22.907048	0.001019	20.814651
345.094418	-2.999100	3.825000	-11.470000	22.918481	0.001020	20.807139
346.097325	-3.016400	3.824900	-11.537000	22.922642	0.001017	20.814152
347.096796	-3.025800	3.823000	-11.566000	22.922444	0.001019	20.813006
348.094824	-2.992700	3.824800	-11.445000	22.921420	0.001019	20.783530
349.097285	-2.993800	3.825000	-11.450000	22.910612	0.001021	20.796885
350.098928	-3.010400	3.824200	-11.511000	22.924838	0.001019	20.790275
351.096290	-2.980400	3.823900	-11.396000	22.925213	0.001021	20.791124
352.105831	-2.998000	3.825300	-11.467000	22.932835	0.001022	20.788803
353.103545	-3.011300	3.824400	-11.516000	22.906257	0.001022	20.783513
354.098879	-2.994900	3.823800	-11.450000	22.927830	0.001024	20.795643
355.101686	-2.991500	3.822800	-11.435000	22.891264	0.001022	20.791251
356.104132	-2.995500	3.823200	-11.452000	22.885012	0.001023	20.765548
357.099038	-3.000600	3.822600	-11.469000	22.889795	0.001023	20.779348
358.098543	-2.984400	3.823000	-11.408000	22.875123	0.001025	20.767020
359.100688	-2.999400	3.821700	-11.462000	22.849070	0.001024	20.786913
360.103193	-3.016300	3.820400	-11.521000	22.874130	0.001025	20.776931
361.103731	-3.007300	3.821600	-11.492000	22.863767	0.001026	20.777455
362.100541	-2.994200	3.821300	-11.441000	22.851635	0.001025	20.772412
363.099618	-3.024300	3.821100	-11.554000	22.830636	0.001025	20.773187
364.100569	-3.011400	3.820100	-11.503000	22.823409	0.001028	20.770215
365.102376	-2.992400	3.820800	-11.432000	22.813477	0.001028	20.795352
366.102867	-2.989700	3.820400	-11.421000	22.835797	0.001027	20.784047
367.101352	-2.983000	3.821300	-11.398000	22.819058	0.001027	20.794305
368.102532	-3.015200	3.819200	-11.514000	22.848505	0.001027	20.794882
369.102805	-3.020300	3.819700	-11.535000	22.869680	0.001028	20.785749
370.108714	-2.989700	3.819300	-11.418000	22.875907	0.001028	20.764012
371.106142	-2.989300	3.818700	-11.415000	22.894740	0.001029	20.792837
372.103180	-3.000900	3.818200	-11.456000	22.911975	0.001028	20.767904
373.104270	-2.975300	3.819900	-11.364000	22.919255	0.001027	20.788948
374.104130	-2.995000	3.817400	-11.432000	22.958631	0.001031	20.758697
375.105190	-3.021700	3.818300	-11.537000	22.957338	0.001030	20.768782
376.101708	-2.973100	3.819800	-11.355000	23.010116	0.001029	20.792263
377.103399	-2.976400	3.818600	-11.364000	23.004338	0.001030	20.761818
378.111204	-3.019100	3.818100	-11.526000	22.987453	0.001033	20.774773
379.105821	-2.986600	3.817600	-11.401000	22.988774	0.001031	20.789372
380.105772	-3.006200	3.817100	-11.474000	22.982548	0.001033	20.768909
381.105370	-3.011900	3.817000	-11.496000	22.981400	0.001033	20.763966
382.105593	-3.016600	3.815900	-11.510000	22.966136	0.001031	20.774277
383.119886	-2.998700	3.817000	-11.445000	23.008774	0.001034	20.784755
384.116752	-2.977500	3.817300	-11.366000	22.977423	0.001034	20.769465
385.104036	-2.994700	3.814500	-11.421000	23.008555	0.001034	20.777423
386.110209	-2.988900	3.816100	-11.406000	22.983251	0.001036	20.752069
387.112441	-3.022500	3.814100	-11.527000	22.997246	0.001036	20.770834
388.107971	-2.999200	3.815400	-11.442000	23.004921	0.001036	20.769514
389.107451	-3.002600	3.814700	-11.453000	23.018895	0.001037	20.778775
390.110657	-3.012300	3.814400	-11.489000	23.021533	0.001036	20.770038
391.107134	-3.010000	3.814000	-11.479000	23.026467	0.001036	20.782094
392.113555	-2.981600	3.815300	-11.375000	23.052144	0.001037	20.767993
393.114504	-3.003800	3.813400	-11.454000	23.035034	0.001037	20.780721
394.107372	-2.996500	3.812700	-11.424000	23.039763	0.001038	20.770760
395.112503	-3.008600	3.813000	-11.471000	23.035804	0.001038	20.761103
396.109953	-3.010500	3.813300	-11.479000	23.030101	0.001041	20.770088
397.108045	-2.990300	3.813400	-11.402000	23.041508	0.001040	20.752119
398.114680	-3.011200	3.813300	-11.481000	23.044269	0.001040	20.757731
399.118164	-3.006700	3.812000	-11.461000	23.062725	0.001042	20.784758
400.112204	-3.001900	3.812000	-11.443000	23.067008	0.001042	20.779093
401.116357	-2.968100	3.813500	-11.318000	23.065387	0.001041	20.749493
402.115322	-2.994200	3.810300	-11.408000	23.067354	0.001041	20.759051
403.111732	-3.005500	3.810600	-11.451000	23.036818	0.001043	20.758325
404.113953	-3.002700	3.810100	-11.440000	23.067626	0.001042	20.752685
405.113484	-2.969400	3.811600	-11.317000	23.050114	0.001043	20.757897
406.119314	-2.985700	3.810900	-11.377000	23.053899	0.001043	20.734188
407.122370	-3.017000	3.809700	-11.492000	23.051060	0.001044	20.750785
408.118906	-3.030800	3.809500	-11.545000	23.064458	0.001042	20.769426
409.123167	-3.008800	3.809000	-11.460000	23.069067	0.001043	20.751758
410.118008	-3.017500	3.809000	-11.491000	23.088316	0.001045	20.775788
411.119533	-3.008900	3.809800	-11.462000	23.133019	0.001043	20.760364
412.117866	-3.004200	3.808500	-11.440000	23.106866	0.001043	20.743166
413.121016	-3.009600	3.809200	-11.463000	23.131324	0.001046	20.753923
414.123349	-2.988100	3.807500	-11.376000	23.149824	0.001045	20.766772
415.116577	-2.978900	3.808400	-11.343000	23.154556	0.001045	20.762979
416.117717	-3.010800	3.808700	-11.466000	23.132719	0.001046	20.754847
417.120710	-3.014000	3.807100	-11.473000	23.148828	0.001046	20.763403
418.119329	-3.000000	3.806400	-11.419000	23.128255	0.001047	20.769341
419.116808	-3.001700	3.808100	-11.429000	23.127309	0.001048	20.785936
420.124922	-2.981000	3.807000	-11.348000	23.100538	0.001046	20.762430
421.118786	-3.019100	3.806000	-11.489000	23.088684	0.001049	20.764776
422.119697	-2.992900	3.806900	-11.393000	23.083228	0.001047	20.762154
423.123186	-3.021800	3.804300	-11.495000	23.086936	0.001048	20.748799
424.122140	-2.994200	3.806600	-11.397000	23.111839	0.001048	20.738665
425.123512	-3.005800	3.803800	-11.433000	23.109504	0.001048	20.775682
426.125231	-2.977700	3.805700	-11.331000	23.150265	0.001049	20.741135
427.130042	-3.008000	3.803200	-11.438000	23.179404	0.001050	20.758007
428.122578	-2.989600	3.805000	-11.374000	23.144961	0.001051	20.756209
429.126245	-2.996900	3.804300	-11.400000	23.165506	0.001052	20.737440
430.120767	-2.989800	3.804500	-11.374000	23.171632	0.001051	20.752589
431.121423	-2.995400	3.804600	-11.395000	23.177730	0.001052	20.747320
432.126236	-2.980600	3.803500	-11.336000	23.178023	0.001051	20.769426
433.126706	-2.994100	3.803000	-11.386000	23.191554	0.001051	20.753587
434.125697	-3.004200	3.803600	-11.426000	23.191123	0.001053	20.745569
435.125315	-3.013300	3.801600	-11.453000	23.176533	0.001051	20.749440
436.122767	-3.017500	3.802800	-11.474000	23.185121	0.001053	20.754252
437.126517	-2.998200	3.802600	-11.399000	23.188606	0.001053	20.753477
438.128073	-2.990500	3.801800	-11.369000	23.195975	0.001053	20.742370
439.127085	-2.990700	3.801500	-11.369000	23.195400	0.001053	20.776882
440.130741	-2.991800	3.802000	-11.374000	23.184842	0.001053	20.767250
441.127333	-3.009900	3.800600	-11.439000	23.180107	0.001053	20.747331
442.128452	-3.007700	3.799900	-11.429000	23.207571	0.001054	20.756836
443.125069	-3.001800	3.799500	-11.404000	23.204435	0.001054	20.776453
444.129144	-2.988500	3.800800	-11.357000	23.202465	0.001056	20.755986
445.126559	-2.991800	3.798700	-11.363000	23.231175	0.001055	20.749670
446.126154	-3.015900	3.798400	-11.454000	23.253808	0.001056	20.754808
447.127523	-2.994700	3.800000	-11.379000	23.250648	0.001054	20.749270
448.125767	-3.033300	3.797500	-11.517000	23.262423	0.001057	20.759175
449.127969	-3.005200	3.799700	-11.416000	23.269517	0.001056	20.759171
450.130742	-3.024100	3.797200	-11.481000	23.290111	0.001055	20.767958
451.128912	-2.994500	3.798200	-11.373000	23.294567	0.001056	20.762466
452.128669	-2.973500	3.797400	-11.291000	23.295856	0.001058	20.746687
453.142301	-2.978400	3.798700	-11.313000	23.309453	0.001056	20.766953
454.142276	-3.020500	3.796500	-11.466000	23.305484	0.001058	20.735948
455.130285	-3.007500	3.797400	-11.420000	23.291090	0.001057	20.761826
456.129493	-3.022300	3.795000	-11.468000	23.289473	0.001061	20.772059
457.128269	-2.992000	3.798100	-11.363000	23.292830	0.001059	20.749819
458.131394	-3.027600	3.796400	-11.493000	23.292852	0.001058	20.760746
459.132574	-2.996700	3.797000	-11.378000	23.290363	0.001059	20.771054
460.131768	-2.979500	3.796800	-11.310000	23.307313	0.001058	20.757696
461.133378	-2.995200	3.795100	-11.366000	23.318368	0.001060	20.754076
462.131620	-2.997100	3.795800	-11.375000	23.313259	0.001061	20.770768
463.132253	-3.023400	3.793900	-11.470000	23.300132	0.001060	20.748602
464.135073	-2.996400	3.796000	-11.374000	23.305287	0.001061	20.746182
465.137995	-3.006100	3.794200	-11.405000	23.321867	0.001060	20.771808
466.131814	-3.010500	3.794300	-11.420000	23.334313	0.001061	20.762944
467.133353	-2.990500	3.793300	-11.342000	23.347605	0.001062	20.770103
468.139581	-2.990000	3.793100	-11.340000	23.311152	0.001061	20.755379
469.134584	-3.001600	3.793700	-11.385000	23.319837	0.001062	20.767403
470.135155	-3.011300	3.791900	-11.418000	23.303099	0.001062	20.772913
471.139078	-3.015800	3.791800	-11.434000	23.289626	0.001061	20.762255
472.138904	-3.000500	3.792300	-11.377000	23.301125	0.001062	20.757659
473.135000	-2.991100	3.792200	-11.342000	23.283094	0.001062	20.772305
474.134877	-3.024500	3.790600	-11.463000	23.307820	0.001062	20.752988
475.138161	-2.977600	3.792300	-11.291000	23.338116	0.001061	20.775292
476.135582	-2.971300	3.792400	-11.267000	23.344341	0.001063	20.769202
477.134602	-2.990900	3.791900	-11.340000	23.350784	0.001064	20.777557
478.137988	-3.005500	3.790600	-11.392000	23.340178	0.001062	20.781626
479.134876	-2.990200	3.789500	-11.331000	23.326607	0.001062	20.757592
480.135420	-2.996600	3.791300	-11.360000	23.325085	0.001065	20.776930
481.141540	-2.984200	3.790600	-11.311000	23.333972	0.001063	20.771138
482.135840	-3.039000	3.788200	-11.510000	23.360987	0.001064	20.777826
483.138373	-2.989500	3.789600	-11.328000	23.359092	0.001063	20.763123
484.142116	-3.005000	3.789100	-11.384000	23.391137	0.001062	20.767741
485.140279	-2.993700	3.788500	-11.341000	23.397934	0.001065	20.781665
486.138853	-2.993800	3.788500	-11.341000	23.388543	0.001066	20.779840
487.142789	-2.971200	3.789500	-11.258000	23.397080	0.001062	20.796457
488.140224	-2.988300	3.788400	-11.319000	23.411522	0.001064	20.770155
489.143425	-3.022700	3.786300	-11.444000	23.429625	0.001065	20.788300
490.144253	-2.990400	3.786700	-11.321000	23.434776	0.001064	20.800101
491.138640	-2.993600	3.787400	-11.337000	23.431489	0.001064	20.768831
492.146909	-3.008700	3.785600	-11.388000	23.408656	0.001067	20.781981
493.144227	-2.981300	3.787900	-11.291000	23.448163	0.001066	20.781277
494.142490	-2.991000	3.786700	-11.324000	23.440199	0.001066	20.766656
495.145104	-3.014300	3.786300	-11.411000	23.424366	0.001067	20.799149
496.146280	-2.973300	3.786800	-11.258000	23.417047	0.001066	20.788021
497.140158	-3.014100	3.785100	-11.407000	23.434624	0.001067	20.778612
498.145129	-2.995300	3.784800	-11.336000	23.444061	0.001069	20.778587
499.150114	-3.012300	3.784800	-11.399000	23.447443	0.001068	20.789090
500.147196	-2.980400	3.785500	-11.281000	23.468109	0.001069	20.787993
501.145337	-2.983200	3.785800	-11.293000	23.464374	0.001069	20.794681
502.153668	-2.981000	3.784400	-11.280000	23.485607	0.001068	20.773765
503.142786	-3.005800	3.783700	-11.371000	23.495816	0.001069	20.783524
504.147563	-3.000600	3.783900	-11.353000	23.485339	0.001068	20.805264
505.148242	-2.986200	3.782700	-11.294000	23.484538	0.001069	20.790236
506.147895	-3.009300	3.783400	-11.384000	23.486628	0.001068	20.804659
507.146788	-2.982900	3.782700	-11.283000	23.474032	0.001068	20.776861
508.152217	-3.002700	3.783500	-11.360000	23.485558	0.001069	20.796475
509.143680	-2.960600	3.784000	-11.202000	23.492777	0.001070	20.771942
510.152370	-2.989100	3.781300	-11.302000	23.506470	0.001071	20.795625
511.152938	-2.984000	3.780700	-11.280000	23.511345	0.001070	20.798142
512.149177	-2.992200	3.779800	-11.308000	23.527159	0.001070	20.815890
513.154127	-3.010700	3.780200	-11.381000	23.541022	0.001069	20.785690
514.165829	-2.990800	3.780800	-11.305000	23.522327	0.001071	20.821003
515.154773	-3.031500	3.779600	-11.456000	23.479557	0.001071	20.795675
516.155792	-2.996600	3.779900	-11.326000	23.491506	0.001069	20.787264
517.151917	-3.006200	3.779000	-11.359000	23.490585	0.001070	20.802462
518.153130	-2.968000	3.780900	-11.218000	23.529722	0.001070	20.800441
519.150050	-2.978200	3.779400	-11.255000	23.522627	0.001070	20.794752
520.154402	-2.987300	3.778300	-11.286000	23.547746	0.001071	20.819457
521.164012	-3.007400	3.778500	-11.363000	23.554862	0.001071	20.792926
522.154257	-2.989900	3.778200	-11.294000	23.565321	0.001071	20.781599
523.196815	-2.993000	3.778800	-11.309000	23.580707	0.001070	20.787540
524.151491	-2.994800	3.777900	-11.313000	23.601819	0.001071	20.781677
525.154598	-3.005600	3.777000	-11.351000	23.578646	0.001072	20.806336
526.156507	-3.001400	3.776000	-11.333000	23.587682	0.001072	20.812075
527.150324	-3.009200	3.777200	-11.364000	23.603164	0.001072	20.791560
528.154419	-2.981300	3.776600	-11.257000	23.586959	0.001071	20.783375
529.157220	-3.010900	3.776000	-11.368000	23.593157	0.001074	20.795279
530.154421	-2.997300	3.775800	-11.315000	23.587929	0.001072	20.822754
531.155228	-3.004900	3.774400	-11.339000	23.558755	0.001072	20.798725
532.154938	-2.988100	3.774900	-11.280000	23.565179	0.001073	20.782405
533.155346	-3.004200	3.774000	-11.336000	23.559627	0.001074	20.793909
534.151610	-2.990600	3.775200	-11.289000	23.568364	0.001073	20.803615
535.156120	-2.990000	3.774500	-11.285000	23.569461	0.001073	20.824155
536.159205	-2.993400	3.774000	-11.296000	23.575610	0.001073	20.791913
537.153411	-2.984600	3.774300	-11.264000	23.574812	0.001075	20.813399
538.170913	-3.009600	3.773600	-11.356000	23.600873	0.001075	20.826247
539.159164	-3.025600	3.772100	-11.412000	23.628235	0.001075	20.798675
540.154866	-2.994400	3.773000	-11.297000	23.602666	0.001075	20.802915
541.154947	-2.988200	3.773100	-11.273000	23.591262	0.001074	20.801913
542.154728	-2.992400	3.772300	-11.287000	23.600820	0.001073	20.807228
543.159616	-2.978100	3.771700	-11.231000	23.578989	0.001073	20.812369
544.158545	-2.982700	3.771600	-11.248000	23.578367	0.001074	20.825023
545.157424	-2.987600	3.771600	-11.266000	23.578389	0.001074	20.803233
546.157525	-2.998800	3.770900	-11.307000	23.581823	0.001073	20.816159
547.155626	-2.995800	3.770600	-11.294000	23.613263	0.001075	20.802632
548.156328	-3.003300	3.769800	-11.321000	23.630138	0.001075	20.797738
549.160709	-3.018600	3.769800	-11.378000	23.644101	0.001075	20.818375
550.158086	-2.986200	3.770700	-11.259000	23.632898	0.001075	20.797187
551.158238	-2.984500	3.769900	-11.249000	23.664160	0.001073	20.809561
552.159959	-2.989500	3.770200	-11.270000	23.666175	0.001073	20.827228
553.162642	-2.995800	3.768600	-11.289000	23.695294	0.001075	20.808532
554.166070	-3.018600	3.767800	-11.372000	23.705324	0.001073	20.807682
555.161410	-2.983800	3.769100	-11.245000	23.710251	0.001073	20.839174
556.162702	-2.994600	3.767700	-11.282000	23.718016	0.001076	20.811398
557.159491	-3.004800	3.767400	-11.319000	23.723363	0.001074	20.821974
558.159655	-2.990100	3.767900	-11.266000	23.709451	0.001074	20.817035
559.164836	-3.039300	3.765100	-11.442000	23.710711	0.001074	20.836790
560.159223	-2.993300	3.766200	-11.272000	23.691448	0.001074	20.826960
561.158842	-3.012400	3.766300	-11.345000	23.709839	0.001074	20.828330
562.165983	-3.008000	3.766300	-11.328000	23.700501	0.001074	20.840304
563.160547	-3.014300	3.765000	-11.347000	23.697586	0.001073	20.825054
564.160216	-3.006400	3.765400	-11.319000	23.697728	0.001075	20.832782
565.165329	-2.997100	3.764700	-11.282000	23.730759	0.001074	20.834605
566.160974	-2.971500	3.765100	-11.187000	23.697026	0.001075	20.830656
567.164472	-2.998200	3.764600	-11.285000	23.747827	0.001074	20.841760
568.167138	-2.996300	3.762300	-11.272000	23.749020	0.001076	20.826835
569.161314	-2.987800	3.763900	-11.245000	23.721785	0.001074	20.848840
570.164845	-3.010500	3.763300	-11.329000	23.718323	0.001075	20.822611
571.168001	-3.001200	3.763100	-11.293000	23.703433	0.001073	20.830916
572.162701	-3.021500	3.762600	-11.368000	23.713615	0.001074	20.828322
573.162923	-3.015700	3.762700	-11.345000	23.720184	0.001075	20.833011
574.170499	-3.023900	3.762400	-11.376000	23.719785	0.001073	20.841620
575.162343	-3.015700	3.761700	-11.343000	23.731926	0.001075	20.825818
576.164037	-2.986100	3.762100	-11.232000	23.698172	0.001074	20.842710
577.167780	-3.000300	3.760200	-11.281000	23.731499	0.001075	20.841985
578.167985	-2.989500	3.762900	-11.249000	23.701652	0.001075	20.854734
579.166214	-2.985200	3.762500	-11.231000	23.720545	0.001073	20.847123
580.168697	-3.008000	3.759900	-11.308000	23.717008	0.001076	20.843578
581.167162	-2.983400	3.760800	-11.219000	23.727163	0.001072	20.852809
582.163220	-2.992600	3.761000	-11.254000	23.753770	0.001075	20.844873
583.167689	-3.004500	3.759600	-11.294000	23.778608	0.001075	20.831845
584.168502	-2.986300	3.759900	-11.226000	23.743186	0.001075	20.860813
585.169384	-3.022800	3.758000	-11.358000	23.773552	0.001073	20.846214
586.168477	-3.001800	3.758400	-11.280000	23.754014	0.001074	20.855548
587.168670	-2.986500	3.759200	-11.225000	23.763744	0.001076	20.846338
588.165752	-3.011800	3.757600	-11.316000	23.735193	0.001074	20.852800
589.170206	-2.989500	3.758000	-11.234000	23.742113	0.001073	20.855945
590.171488	-2.999600	3.757700	-11.270000	23.732952	0.001074	20.861932
591.167984	-2.994000	3.758200	-11.251000	23.760777	0.001074	20.849053
592.173082	-2.993800	3.757200	-11.248000	23.769515	0.001075	20.861606
593.172661	-2.995300	3.758000	-11.255000	23.779696	0.001073	20.878452
594.169481	-3.032300	3.754700	-11.383000	23.783105	0.001074	20.840621
595.177013	-3.003500	3.756100	-11.281000	23.830518	0.001076	20.860658
596.171962	-2.994300	3.755800	-11.245000	23.831492	0.001075	20.845988
597.167612	-2.986200	3.755200	-11.213000	23.810883	0.001075	20.841919
598.174105	-2.983900	3.756800	-11.209000	23.840502	0.001074	20.861659
599.171695	-3.025800	3.754400	-11.358000	23.810311	0.001073	20.880224
600.176271	-2.996100	3.753700	-11.245000	23.822384	0.001075	20.868622
601.175552	-2.994900	3.755300	-11.247000	23.815763	0.001076	20.862459
602.168944	-2.997500	3.753000	-11.249000	23.806108	0.001073	20.869847
603.170326	-3.003300	3.753400	-11.271000	23.818678	0.001075	20.859217
604.168608	-2.994900	3.753600	-11.240000	23.837890	0.001072	20.857618
605.168390	-3.019700	3.752900	-11.331000	23.828111	0.001075	20.862037
606.173750	-2.994900	3.753500	-11.240000	23.848120	0.001074	20.873091
607.174034	-2.993300	3.753600	-11.234000	23.820594	0.001073	20.858768
608.174823	-2.989100	3.753000	-11.217000	23.854320	0.001075	20.860817
609.172226	-3.025400	3.752000	-11.350000	23.860641	0.001073	20.867628
610.169902	-3.023000	3.750800	-11.338000	23.870698	0.001073	20.873444
611.178876	-2.983200	3.751600	-11.191000	23.880603	0.001075	20.870101
612.178613	-2.995800	3.751300	-11.237000	23.885458	0.001073	20.861694
613.177853	-2.982600	3.751800	-11.189000	23.862436	0.001073	20.872273
614.173328	-2.991200	3.751100	-11.220000	23.809202	0.001074	20.865837
615.173393	-2.997100	3.751000	-11.240000	23.831879	0.001073	20.877668
616.177400	-3.001600	3.750400	-11.255000	23.826977	0.001072	20.854263
617.172990	-3.001300	3.750000	-11.254000	23.829270	0.001071	20.868415
618.171804	-2.997400	3.751500	-11.244000	23.837062	0.001070	20.868168
619.172691	-2.987600	3.748400	-11.198000	23.860233	0.001074	20.875279
620.174341	-3.011400	3.748900	-11.289000	23.872580	0.001072	20.871065
621.174255	-3.002900	3.749100	-11.256000	23.873801	0.001072	20.869444
622.174224	-2.983800	3.748900	-11.185000	23.906432	0.001073	20.886042
623.176078	-2.998200	3.747800	-11.235000	23.908796	0.001072	20.865655
624.173294	-2.986300	3.748700	-11.193000	23.943864	0.001072	20.871896
625.178580	-3.011800	3.746900	-11.284000	23.936947	0.001074	20.878236
626.176960	-3.008300	3.746700	-11.270000	23.922914	0.001074	20.872225
627.175758	-3.005700	3.746500	-11.259000	23.922342	0.001074	20.884927
628.175487	-2.993400	3.746200	-11.212000	23.915475	0.001071	20.888472
629.177367	-3.005700	3.745000	-11.255000	23.911872	0.001073	20.884385
630.176044	-3.008000	3.744900	-11.264000	23.913887	0.001073	20.866018
631.180791	-3.015600	3.744300	-11.290000	23.929991	0.001073	20.892597
632.177433	-2.967600	3.746100	-11.116000	23.925863	0.001074	20.891776
633.181135	-3.006800	3.745300	-11.260000	23.943855	0.001073	20.858612
634.181623	-3.004100	3.744400	-11.248000	23.945997	0.001071	20.863604
635.178650	-3.004000	3.743700	-11.246000	23.978202	0.001073	20.875510
636.176914	-3.004800	3.745400	-11.253000	23.974472	0.001073	20.877934
637.179135	-3.016900	3.743300	-11.293000	23.965167	0.001073	20.881879
638.178761	-3.012200	3.743300	-11.274000	23.961462	0.001073	20.864414
639.181819	-3.010800	3.742600	-11.266000	23.982439	0.001072	20.881656
640.181818	-2.995900	3.743700	-11.215000	23.963854	0.001072	20.882933
641.182870	-2.998700	3.741800	-11.220000	23.977167	0.001072	20.870680
642.178808	-2.985000	3.742800	-11.172000	23.951885	0.001072	20.889421
643.180941	-2.988800	3.743500	-11.188000	23.948603	0.001073	20.870011
644.183325	-2.971300	3.742400	-11.118000	23.916626	0.001073	20.883937
645.181768	-2.992200	3.741000	-11.193000	23.905479	0.001073	20.883190
646.181226	-3.024000	3.740200	-11.310000	23.925289	0.001073	20.899735
647.184522	-3.003500	3.740100	-11.232000	23.943285	0.001072	20.888858
648.180695	-2.994200	3.741500	-11.202000	23.946397	0.001073	20.910469
649.181687	-3.001000	3.739700	-11.221000	23.960187	0.001073	20.888738
650.184203	-2.996500	3.739800	-11.205000	23.982212	0.001074	20.885220
651.181849	-2.992000	3.740200	-11.190000	23.989082	0.001072	20.896376
652.186233	-3.002400	3.739600	-11.227000	24.004060	0.001073	20.893380
653.185466	-2.989900	3.739100	-11.179000	24.028102	0.001072	20.900894
654.184516	-2.980300	3.738400	-11.140000	24.044276	0.001073	20.896252
655.185194	-3.002500	3.738600	-11.224000	24.032904	0.001072	20.884375
656.186171	-2.997300	3.738300	-11.204000	24.045994	0.001072	20.884700
657.183065	-2.980000	3.738600	-11.140000	24.046047	0.001072	20.894235
658.186724	-2.999700	3.736500	-11.207000	24.031115	0.001071	20.879262
659.188853	-3.015500	3.736200	-11.264000	24.021084	0.001072	20.893383
660.183474	-3.011400	3.736100	-11.250000	23.995157	0.001070	20.892986
661.184799	-2.991400	3.735500	-11.174000	24.005686	0.001073	20.891217
662.188068	-2.997500	3.735900	-11.198000	24.012898	0.001073	20.880907
663.187485	-2.977500	3.737500	-11.126000	24.023798	0.001071	20.881880
664.183464	-2.987000	3.735700	-11.158000	23.989434	0.001071	20.876817
665.189941	-2.994700	3.735500	-11.186000	23.985401	0.001073	20.887471
666.189717	-2.996100	3.735400	-11.191000	23.995207	0.001072	20.900622
667.186475	-3.013200	3.735500	-11.254000	23.979752	0.001071	20.876116
668.192538	-2.995200	3.736300	-11.190000	23.971217	0.001071	20.869928
669.194883	-2.974600	3.735000	-11.109000	23.947226	0.001070	20.855828
670.188357	-2.981400	3.735000	-11.134000	23.940359	0.001073	20.879761
671.195923	-3.001300	3.733800	-11.206000	23.954566	0.001070	20.880256
672.196215	-3.007000	3.734600	-11.229000	23.971217	0.001073	20.882255
673.190258	-2.983800	3.733900	-11.141000	23.960165	0.001072	20.869277
674.193060	-3.021000	3.732600	-11.275000	23.973704	0.001069	20.878586
675.192814	-2.990400	3.732900	-11.162000	23.964244	0.001069	20.874790
676.191494	-2.996000	3.732200	-11.181000	23.972755	0.001069	20.875264
677.197959	-3.001400	3.733500	-11.205000	24.007193	0.001071	20.852902
678.194973	-3.014900	3.732100	-11.252000	23.992360	0.001068	20.863156
679.191074	-3.033600	3.730000	-11.315000	24.012691	0.001070	20.851777
680.197308	-2.991400	3.731100	-11.159000	24.026025	0.001071	20.867519
681.196631	-2.994100	3.732100	-11.173000	24.051407	0.001068	20.878750
682.195518	-3.013200	3.730200	-11.239000	24.067578	0.001068	20.859406
683.197260	-3.002200	3.731000	-11.200000	24.069243	0.001068	20.862973
684.195404	-3.007400	3.729500	-11.215000	24.094650	0.001067	20.890822
685.194478	-3.001300	3.728800	-11.190000	24.082255	0.001068	20.870333
686.196422	-3.002100	3.729600	-11.196000	24.071801	0.001067	20.865539
687.196251	-3.003100	3.728700	-11.196000	24.046942	0.001068	20.869056
688.194967	-3.008000	3.728700	-11.214000	24.069932	0.001068	20.849914
689.196802	-2.984000	3.728000	-11.123000	24.066598	0.001068	20.876914
690.196961	-3.014200	3.728800	-11.238000	24.080157	0.001069	20.874866
691.193479	-3.003200	3.727200	-11.192000	24.066591	0.001070	20.847038
692.196180	-3.022700	3.726300	-11.263000	24.047655	0.001066	20.858866
693.194540	-3.014100	3.727200	-11.233000	24.057333	0.001068	20.862408
694.194100	-3.004100	3.728000	-11.198000	24.059542	0.001066	20.845184
695.207119	-3.028600	3.726400	-11.284000	24.031295	0.001067	20.875175
696.193285	-3.015300	3.727000	-11.238000	24.024803	0.001067	20.865346
697.193738	-3.002000	3.726000	-11.185000	24.033656	0.001068	20.860000
698.198323	-2.996100	3.727300	-11.166000	24.054180	0.001067	20.849764
699.199954	-2.995000	3.725800	-11.158000	24.060447	0.001065	20.861738
700.198590	-2.995600	3.726600	-11.162000	24.051563	0.001066	20.848087
701.199148	-3.006500	3.726800	-11.203000	24.070693	0.001066	20.835505
702.202469	-3.009000	3.725700	-11.210000	24.083134	0.001069	20.854619
703.197528	-3.013100	3.723600	-11.219000	24.091464	0.001066	20.847802
704.199463	-3.004800	3.723300	-11.187000	24.055406	0.001065	20.837718
705.204142	-2.994600	3.725300	-11.154000	24.069837	0.001065	20.861672
706.196278	-2.985300	3.723600	-11.115000	24.060078	0.001066	20.851412
707.202321	-3.000300	3.724000	-11.171000	24.061274	0.001064	20.838861
708.197372	-3.002000	3.723300	-11.176000	24.055146	0.001066	20.844095
709.198996	-3.000100	3.722600	-11.167000	24.045888	0.001065	20.853776
710.203330	-3.027000	3.722400	-11.266000	24.074626	0.001067	20.854622
711.202294	-3.015600	3.721900	-11.222000	24.090923	0.001066	20.835879
712.198509	-3.015800	3.720700	-11.219000	24.110254	0.001064	20.845309
713.203919	-3.000000	3.722700	-11.167000	24.131179	0.001065	20.835002
714.203722	-2.979700	3.721500	-11.088000	24.116795	0.001065	20.846654
715.198627	-2.969600	3.722300	-11.053000	24.117243	0.001062	20.844733
716.201897	-2.993300	3.721300	-11.137000	24.130551	0.001063	20.842433
717.201721	-2.991400	3.721200	-11.131000	24.083374	0.001061	20.819774
718.200882	-2.978900	3.721100	-11.084000	24.100616	0.001063	20.834695
719.204987	-3.007400	3.720000	-11.186000	24.078538	0.001062	20.865182
720.198014	-3.007300	3.718800	-11.182000	24.060003	0.001064	20.838061
721.202626	-3.005000	3.719600	-11.176000	24.065179	0.001063	20.842777
722.203268	-3.032900	3.719400	-11.280000	24.047937	0.001063	20.839709
723.200716	-3.014700	3.718600	-11.209000	24.051910	0.001062	20.819039
724.200530	-2.998000	3.718500	-11.147000	24.102077	0.001063	20.839006
725.200347	-2.998600	3.719600	-11.153000	24.117753	0.001063	20.845718
726.203637	-2.995000	3.717900	-11.134000	24.108297	0.001063	20.839080
727.199771	-3.023900	3.717200	-11.239000	24.112228	0.001060	20.840177
728.199370	-2.980800	3.718200	-11.081000	24.132112	0.001061	20.848740
729.200659	-2.998800	3.718000	-11.149000	24.138109	0.001061	20.848117
730.202694	-3.014900	3.717300	-11.206000	24.139499	0.001059	20.840028
731.201799	-3.008000	3.716900	-11.179000	24.147737	0.001061	20.839756
732.203318	-3.019600	3.716800	-11.222000	24.165627	0.001059	20.819293
733.202124	-2.993100	3.716800	-11.124000	24.166100	0.001061	20.839207
734.207640	-3.004800	3.716700	-11.167000	24.173614	0.001057	20.845796
735.210341	-3.007000	3.716200	-11.174000	24.210166	0.001058	20.817973
736.204786	-3.000300	3.715400	-11.146000	24.213203	0.001059	20.833821
737.207836	-3.004200	3.715800	-11.162000	24.222830	0.001059	20.837788
738.203794	-3.001900	3.714900	-11.150000	24.261469	0.001059	20.826285
739.203110	-3.005200	3.714700	-11.162000	24.266996	0.001057	20.824243
740.208320	-2.996300	3.714500	-11.129000	24.314363	0.001058	20.816281
741.206078	-3.018700	3.713900	-11.210000	24.283590	0.001055	20.825240
742.203596	-3.013200	3.714100	-11.191000	24.279638	0.001057	20.827915
743.208390	-2.993700	3.713400	-11.115000	24.263369	0.001056	20.811122
744.207500	-2.999600	3.714400	-11.140000	24.242292	0.001056	20.826489
745.206564	-2.987500	3.713600	-11.093000	24.207663	0.001056	20.837274
746.208860	-3.023300	3.711400	-11.219000	24.198311	0.001054	20.827893
747.213805	-3.010600	3.712900	-11.177000	24.183935	0.001055	20.837181
748.208269	-3.028600	3.710700	-11.236000	24.186620	0.001054	20.815219
749.212001	-3.021200	3.711200	-11.211000	24.213893	0.001055	20.822659
750.206749	-3.005500	3.712400	-11.156000	24.219417	0.001056	20.809235
751.206642	-2.992000	3.712200	-11.106000	24.235446	0.001056	20.825312
752.207695	-2.999500	3.711800	-11.132000	24.251787	0.001054	20.814677
753.207174	-2.962300	3.712200	-10.996000	24.239453	0.001052	20.790926
754.208706	-2.998600	3.711300	-11.127000	24.270457	0.001055	20.801162
755.213284	-2.980500	3.710300	-11.057000	24.293696	0.001054	20.814990
756.210874	-3.001000	3.709600	-11.131000	24.280807	0.001053	20.816760
757.212524	-2.999800	3.708600	-11.123000	24.295936	0.001053	20.809176
758.211120	-2.992600	3.708700	-11.098000	24.273127	0.001056	20.779658
759.216454	-2.998500	3.710600	-11.125000	24.272852	0.001053	20.815892
760.212035	-3.003200	3.708700	-11.137000	24.282235	0.001053	20.803019
761.213397	-3.009000	3.708400	-11.158000	24.266516	0.001052	20.812381
762.217618	-2.990100	3.708600	-11.088000	24.275327	0.001054	20.817427
763.212976	-2.991900	3.709300	-11.096000	24.262342	0.001054	20.804876
764.218302	-3.012300	3.707400	-11.167000	24.231563	0.001051	20.819047
765.213547	-2.986700	3.708000	-11.074000	24.233708	0.001054	20.801284
766.214879	-3.012100	3.707700	-11.167000	24.265379	0.001052	20.800336
767.215875	-3.029600	3.706600	-11.228000	24.273044	0.001052	20.807550
768.216384	-3.000600	3.707000	-11.123000	24.263791	0.001054	20.786889
769.216814	-2.981500	3.706700	-11.050000	24.275936	0.001052	20.807132
770.216363	-3.004900	3.706700	-11.136000	24.285986	0.001051	20.809153
771.217534	-3.022700	3.704900	-11.198000	24.281732	0.001052	20.769798
772.219377	-3.024200	3.706000	-11.206000	24.278399	0.001052	20.796326
773.221604	-3.010700	3.704500	-11.152000	24.283876	0.001051	20.787596
774.220473	-3.012200	3.704300	-11.157000	24.274772	0.001049	20.799800
775.226247	-3.013100	3.704000	-11.160000	24.306491	0.001051	20.788470
776.222857	-3.001900	3.704300	-11.119000	24.308830	0.001049	20.796032
777.223866	-3.010600	3.705500	-11.155000	24.339606	0.001051	20.800352
778.220110	-2.996200	3.705800	-11.101000	24.337987	0.001049	20.797780
779.220942	-3.003200	3.704300	-11.122000	24.323112	0.001049	20.794712
780.224229	-3.009100	3.704900	-11.147000	24.351500	0.001049	20.803749
781.225126	-2.992900	3.702000	-11.077000	24.344611	0.001048	20.790200
782.221082	-2.987100	3.703200	-11.061000	24.332893	0.001048	20.794566
783.225834	-2.981500	3.702800	-11.038000	24.341179	0.001048	20.780593
784.221980	-3.008000	3.702300	-11.135000	24.355331	0.001049	20.782461
785.221971	-2.985700	3.703400	-11.056000	24.326353	0.001047	20.786583
786.227649	-3.013400	3.702200	-11.155000	24.372674	0.001047	20.766194
787.220401	-3.001000	3.702600	-11.110000	24.359436	0.001047	20.776623
788.226462	-3.007800	3.700500	-11.129000	24.375708	0.001048	20.791049
789.225900	-3.013100	3.699900	-11.148000	24.348516	0.001047	20.780366
790.221518	-2.984500	3.702100	-11.048000	24.296825	0.001047	20.781145
791.222208	-2.979200	3.701400	-11.025000	24.271945	0.001046	20.780844
792.226276	-2.998300	3.701200	-11.096000	24.241171	0.001046	20.770363
793.225881	-2.988600	3.701200	-11.061000	24.268859	0.001046	20.772058
794.221834	-3.020800	3.699500	-11.174000	24.282465	0.001045	20.781439
795.226720	-3.011900	3.700100	-11.143000	24.251740	0.001046	20.792344
796.224913	-3.020200	3.698700	-11.170000	24.271265	0.001045	20.791541
797.221739	-2.993300	3.699700	-11.073000	24.269974	0.001044	20.782660
798.224655	-3.007700	3.698500	-11.121000	24.231512	0.001043	20.780589
799.225747	-2.997800	3.698700	-11.087000	24.249620	0.001041	20.788796
800.222161	-2.982700	3.698200	-11.030000	24.263776	0.001044	20.783081
801.229917	-3.013900	3.697100	-11.141000	24.274923	0.001044	20.773399
802.228649	-2.990100	3.697400	-11.054000	24.251684	0.001043	20.747717
803.225223	-2.976500	3.699000	-11.009000	24.261261	0.001045	20.775817
804.230724	-2.965800	3.698900	-10.969000	24.270119	0.001044	20.786598
805.233857	-2.984300	3.696700	-11.031000	24.288579	0.001045	20.776666
806.226528	-3.020800	3.695700	-11.162000	24.277778	0.001043	20.781953
807.230885	-3.000800	3.696600	-11.091000	24.269594	0.001044	20.770898
808.231462	-3.006700	3.696800	-11.115000	24.309250	0.001043	20.794557
809.231529	-2.982600	3.697500	-11.027000	24.320643	0.001040	20.783701
810.231637	-2.990800	3.696500	-11.054000	24.339371	0.001040	20.777356
811.230762	-3.002700	3.695500	-11.096000	24.348104	0.001040	20.782324
812.232450	-2.999400	3.696000	-11.084000	24.327452	0.001039	20.783892
813.230732	-2.984300	3.696100	-11.028000	24.342726	0.001041	20.782144
814.229776	-2.998900	3.695300	-11.081000	24.357625	0.001041	20.781444
815.227231	-3.009800	3.695900	-11.123000	24.364415	0.001039	20.766918
816.244878	-2.983400	3.694900	-11.023000	24.385684	0.001039	20.775927
817.235709	-3.001900	3.694800	-11.090000	24.387275	0.001041	20.772308
818.232674	-2.979600	3.693800	-11.005000	24.417648	0.001041	20.779544
819.230513	-2.991200	3.692800	-11.044000	24.424610	0.001040	20.784633
820.239614	-3.009800	3.692400	-11.112000	24.416968	0.001038	20.780758
821.231927	-3.008700	3.694300	-11.115000	24.427841	0.001038	20.777443
822.232058	-2.995200	3.693300	-11.062000	24.383509	0.001038	20.759046
823.230550	-2.999200	3.692500	-11.073000	24.376419	0.001038	20.759046
824.232935	-2.987600	3.691300	-11.027000	24.338530	0.001038	20.769400
825.237842	-3.002400	3.691800	-11.083000	24.306558	0.001037	20.772889
826.234311	-3.005400	3.691600	-11.094000	24.326635	0.001036	20.747037
827.234292	-3.015800	3.690500	-11.128000	24.336861	0.001036	20.775787
828.236778	-2.998400	3.691000	-11.066000	24.354519	0.001036	20.753672
829.235586	-2.982200	3.692100	-11.008000	24.364819	0.001036	20.760211
830.236086	-2.987700	3.691400	-11.028000	24.382378	0.001035	20.772610
831.239130	-2.990700	3.690700	-11.036000	24.386882	0.001036	20.753895
832.236753	-3.004700	3.690600	-11.088000	24.395288	0.001034	20.768017
833.240843	-3.012000	3.689600	-11.112000	24.384738	0.001034	20.758382
834.240786	-3.006700	3.689900	-11.093000	24.390135	0.001037	20.757158
835.241828	-2.983200	3.691000	-11.009000	24.400558	0.001035	20.757183
836.238569	-2.981500	3.690600	-11.002000	24.393592	0.001033	20.755884
837.243749	-2.983600	3.690100	-11.009000	24.411301	0.001033	20.748521
838.241855	-2.994100	3.688700	-11.044000	24.399291	0.001034	20.744532
839.237397	-2.981200	3.689200	-10.998000	24.395207	0.001032	20.757979
840.240805	-2.992500	3.687700	-11.034000	24.371973	0.001032	20.773078
841.240305	-3.008700	3.687600	-11.094000	24.390607	0.001033	20.746252
842.236745	-2.977700	3.688900	-10.983000	24.404635	0.001032	20.772179
843.248667	-3.012100	3.685600	-11.098000	24.399884	0.001032	20.763145
844.240844	-3.002500	3.686600	-11.069000	24.408543	0.001032	20.777048
845.238890	-3.009400	3.686300	-11.093000	24.426500	0.001031	20.770881
846.243854	-3.000700	3.685600	-11.057000	24.397546	0.001032	20.745626
847.246682	-2.989500	3.686100	-11.019000	24.441130	0.001030	20.781765
848.238866	-3.006500	3.685200	-11.078000	24.460257	0.001032	20.742158
849.246881	-2.993300	3.684900	-11.030000	24.453513	0.001029	20.773800
850.239404	-3.019200	3.683700	-11.120000	24.412420	0.001031	20.749168
851.243404	-3.015600	3.685100	-11.112000	24.411824	0.001030	20.747622
852.246079	-3.011600	3.683300	-11.092000	24.403143	0.001028	20.745552
853.244027	-3.020900	3.684700	-11.129000	24.373790	0.001029	20.739338
854.241057	-2.992100	3.684800	-11.024000	24.358637	0.001030	20.763967
855.245675	-2.978200	3.683600	-10.969000	24.332789	0.001030	20.730923
856.243830	-2.982000	3.684400	-10.985000	24.356200	0.001027	20.737339
857.242600	-3.018600	3.683400	-11.118000	24.349307	0.001028	20.756978
858.247123	-3.004800	3.684200	-11.069000	24.336694	0.001029	20.762343
859.245502	-2.986800	3.682800	-10.999000	24.333558	0.001028	20.738333
860.245032	-2.998300	3.683800	-11.043000	24.350874	0.001026	20.752385
861.248598	-3.011000	3.681400	-11.083000	24.346070	0.001027	20.741401
862.245999	-2.974600	3.683100	-10.953000	24.361868	0.001026	20.761518
863.246129	-2.977300	3.683100	-10.965000	24.331890	0.001026	20.747092
864.252236	-3.006900	3.681000	-11.067000	24.322733	0.001027	20.736957
865.252342	-3.032500	3.679800	-11.158000	24.333128	0.001026	20.753550
866.246329	-3.017300	3.679900	-11.101000	24.349122	0.001026	20.755369
867.250177	-2.974800	3.681800	-10.951000	24.336931	0.001025	20.740295
868.246552	-3.021300	3.680000	-11.117000	24.392853	0.001026	20.747082
869.248251	-2.989800	3.680000	-11.002000	24.384141	0.001026	20.720797
870.253750	-3.019900	3.680300	-11.113000	24.418644	0.001027	20.758732
871.248213	-2.999100	3.680800	-11.038000	24.408218	0.001027	20.748272
872.248546	-3.018900	3.678800	-11.104000	24.417717	0.001026	20.767759
873.249926	-3.017500	3.678800	-11.100000	24.391246	0.001026	20.753531
874.248574	-3.020200	3.677600	-11.105000	24.376841	0.001024	20.731967
875.250030	-2.987100	3.679800	-10.991000	24.375967	0.001025	20.745789
876.251388	-2.996500	3.678900	-11.022000	24.393903	0.001025	20.744816
877.251308	-3.009200	3.678700	-11.069000	24.411387	0.001022	20.740071
878.252868	-2.996800	3.678600	-11.023000	24.420240	0.001023	20.748953
879.260103	-2.993500	3.677700	-11.008000	24.465284	0.001024	20.734399
880.253351	-2.980300	3.678000	-10.960000	24.451498	0.001023	20.750915
881.253446	-2.997900	3.678000	-11.025000	24.446596	0.001022	20.766860
882.256749	-3.017400	3.676700	-11.093000	24.414677	0.001022	20.747165
883.261613	-3.003200	3.676600	-11.041000	24.408999	0.001020	20.769445
884.253580	-2.985700	3.677200	-10.978000	24.382880	0.001021	20.752251
885.258776	-3.012500	3.675700	-11.071000	24.381431	0.001022	20.739891
886.262651	-2.989400	3.677300	-10.991000	24.395780	0.001021	20.757132
887.257576	-2.991600	3.676700	-10.999000	24.388663	0.001019	20.762794
888.260356	-2.992500	3.675500	-10.998000	24.388660	0.001018	20.749988
889.257665	-3.001700	3.675100	-11.030000	24.399376	0.001019	20.759317
890.258301	-3.014900	3.674900	-11.078000	24.383853	0.001017	20.741373
891.259722	-2.984400	3.675400	-10.968000	24.373526	0.001016	20.753772
892.260628	-3.018900	3.673600	-11.089000	24.357975	0.001017	20.759983
893.257291	-3.000400	3.674200	-11.024000	24.340109	0.001016	20.766717
894.264873	-2.995000	3.673400	-10.999000	24.353193	0.001015	20.772256
895.258942	-3.000900	3.674300	-11.024000	24.365204	0.001017	20.763442
896.260394	-2.971700	3.674700	-10.920000	24.410627	0.001014	20.781510
897.261336	-3.008200	3.672600	-11.047000	24.411847	0.001017	20.773725
898.259696	-2.998500	3.673600	-11.014000	24.418934	0.001014	20.750013
899.259754	-3.004700	3.672400	-11.033000	24.424951	0.001014	20.759844
900.265694	-2.984300	3.673700	-10.962000	24.408211	0.001014	20.760120
901.264112	-2.985200	3.672500	-10.962000	24.436714	0.001015	20.764059
902.262337	-2.987400	3.672000	-10.968000	24.455372	0.001013	20.775191
903.267455	-3.027900	3.671200	-11.115000	24.491089	0.001013	20.740375
904.277711	-3.000600	3.671700	-11.016000	24.499222	0.001012	20.748061
905.267600	-2.979400	3.672400	-10.941000	24.527352	0.001013	20.772017
906.273106	-3.004200	3.669300	-11.022000	24.541282	0.001013	20.759915
907.267332	-3.001800	3.670800	-11.017000	24.571873	0.001011	20.751727
908.271559	-2.987000	3.670800	-10.964000	24.570403	0.001011	20.773012
909.268409	-3.009900	3.668700	-11.041000	24.586871	0.001011	20.746387
910.269158	-2.980100	3.670700	-10.938000	24.588762	0.001010	20.757767
911.263195	-2.998500	3.669900	-11.003000	24.601246	0.001011	20.771242
912.272857	-2.978100	3.670000	-10.929000	24.595028	0.001008	20.765952
913.270638	-2.968400	3.671200	-10.897000	24.616562	0.001011	20.758635
914.266302	-2.966300	3.669800	-10.885000	24.598182	0.001010	20.768642
915.271101	-2.989900	3.668100	-10.966000	24.620694	0.001010	20.769894
916.273882	-2.983700	3.670600	-10.951000	24.616537	0.001008	20.760033
917.272961	-3.014200	3.667200	-11.052000	24.645087	0.001008	20.772560
918.273739	-3.009400	3.667400	-11.036000	24.632801	0.001009	20.779198
919.271225	-2.996100	3.668300	-10.989000	24.645983	0.001008	20.762078
920.268100	-3.000100	3.667600	-11.002000	24.661752	0.001006	20.757513
921.272233	-3.000400	3.667100	-11.001000	24.667895	0.001006	20.769368
922.273662	-2.985100	3.667000	-10.945000	24.690252	0.001006	20.782793
923.271500	-2.998700	3.665200	-10.990000	24.644219	0.001006	20.765050
924.276508	-2.983400	3.666500	-10.937000	24.630590	0.001006	20.752322
925.273046	-2.991100	3.666000	-10.964000	24.613155	0.001006	20.767545
926.274369	-3.009000	3.664600	-11.025000	24.603707	0.001008	20.761858
927.271937	-3.010900	3.664100	-11.031000	24.611243	0.001005	20.773214
928.271060	-2.991700	3.664400	-10.961000	24.607562	0.001004	20.756717
929.269240	-2.988600	3.664500	-10.951000	24.597712	0.001005	20.758688
930.273341	-2.986400	3.664000	-10.941000	24.569062	0.001007	20.748907
931.273065	-3.005500	3.663000	-11.008000	24.561128	0.001004	20.752325
932.271711	-2.970000	3.664700	-10.882000	24.556476	0.001004	20.774211
933.273880	-2.981200	3.664300	-10.922000	24.573964	0.001004	20.785594
934.273578	-3.016000	3.661000	-11.041000	24.546675	0.001004	20.765326
935.271030	-3.011000	3.662000	-11.024000	24.525709	0.001003	20.766575
936.273977	-3.024400	3.660500	-11.069000	24.545307	0.001003	20.768221
937.275655	-2.986800	3.663700	-10.941000	24.549761	0.001003	20.777431
938.272121	-2.983200	3.662400	-10.925000	24.587637	0.001001	20.766123
939.277843	-3.011400	3.662400	-11.027000	24.590621	0.001002	20.767220
940.279133	-3.002500	3.661700	-10.993000	24.604751	0.001001	20.776182
941.273659	-3.008400	3.661700	-11.014000	24.630120	0.001001	20.777930
942.279194	-2.994200	3.662300	-10.964000	24.641659	0.001001	20.794250
943.278049	-3.000100	3.662000	-10.985000	24.664813	0.000998	20.773861
944.279109	-2.995200	3.661700	-10.966000	24.689409	0.001000	20.759187
945.281810	-3.008000	3.659800	-11.007000	24.662175	0.000998	20.765999
946.278022	-2.999000	3.659900	-10.975000	24.667274	0.000998	20.777754
947.274331	-2.984200	3.661600	-10.926000	24.643126	0.000999	20.769643
948.280464	-3.015900	3.659000	-11.034000	24.650390	0.001000	20.786416
949.275732	-3.004400	3.659600	-10.994000	24.645711	0.000999	20.770815
950.275802	-2.999200	3.658700	-10.972000	24.644296	0.000998	20.768921
951.282964	-3.003800	3.658500	-10.989000	24.691722	0.000997	20.768621
952.277612	-2.981500	3.658600	-10.907000	24.697466	0.000999	20.766324
953.277202	-2.988100	3.659000	-10.932000	24.691997	0.000996	20.773638
954.280741	-2.987800	3.659000	-10.931000	24.688936	0.000997	20.756816
955.277643	-2.985100	3.659100	-10.921000	24.700150	0.000996	20.773759
956.276668	-2.998600	3.657400	-10.965000	24.678266	0.000995	20.784516
957.280801	-3.006900	3.656900	-10.995000	24.663837	0.000995	20.778572
958.277462	-3.012700	3.656500	-11.013000	24.668911	0.000995	20.786035
959.277252	-2.990700	3.657800	-10.939000	24.645980	0.000998	20.800482
960.282405	-3.000400	3.656500	-10.970000	24.626655	0.000997	20.786781
961.282145	-3.013600	3.655900	-11.016000	24.655801	0.000995	20.788526
962.277869	-2.991400	3.656700	-10.938000	24.660449	0.000996	20.804570
963.282584	-2.997000	3.656100	-10.957000	24.674847	0.000995	20.773973
964.275645	-2.999000	3.655800	-10.963000	24.685292	0.000994	20.814800
965.279993	-2.972300	3.655600	-10.865000	24.670369	0.000994	20.778489
966.282278	-3.025000	3.655000	-11.056000	24.649152	0.000994	20.794656
967.279249	-2.994500	3.654800	-10.943000	24.605132	0.000995	20.796005
968.280693	-3.001400	3.653800	-10.964000	24.605579	0.000993	20.783652
969.280702	-3.004500	3.654400	-10.979000	24.582743	0.000992	20.761211
970.282877	-2.996200	3.653900	-10.946000	24.565332	0.000994	20.786416
971.280126	-3.003500	3.653300	-10.972000	24.556405	0.000993	20.776511
972.284177	-3.014000	3.652000	-11.006000	24.582218	0.000990	20.782970
973.285708	-2.988400	3.653900	-10.919000	24.582116	0.000991	20.773859
974.281144	-3.010600	3.652200	-10.994000	24.611985	0.000990	20.786760
975.282863	-2.991000	3.653900	-10.928000	24.630489	0.000989	20.792999
976.283977	-3.004500	3.651300	-10.969000	24.645459	0.000990	20.804227
977.292260	-3.005300	3.653500	-10.979000	24.652374	0.000989	20.795993
978.291696	-2.997700	3.651600	-10.946000	24.643816	0.000991	20.825337
979.288668	-3.000800	3.651700	-10.957000	24.647967	0.000990	20.789200
980.290095	-3.013900	3.650100	-11.000000	24.654706	0.000988	20.775573
981.286591	-2.993100	3.651100	-10.927000	24.680870	0.000989	20.785233
982.295411	-3.014500	3.650400	-11.003000	24.688826	0.000987	20.791794
983.289483	-3.012200	3.650000	-10.994000	24.710537	0.000987	20.823063
984.291739	-2.989100	3.650600	-10.910000	24.701806	0.000987	20.805293
985.290221	-2.997300	3.650000	-10.938000	24.714934	0.000986	20.781009
986.292780	-2.991900	3.649700	-10.918000	24.730601	0.000985	20.817119
987.289742	-2.983800	3.650300	-10.890000	24.740403	0.000986	20.815101
988.292023	-2.980600	3.650300	-10.879000	24.750718	0.000985	20.797478
989.287310	-2.998600	3.648600	-10.938000	24.757706	0.000985	20.803542
990.286748	-2.977400	3.649300	-10.863000	24.743778	0.000983	20.802842
991.290406	-3.010500	3.648000	-10.982000	24.751610	0.000984	20.807382
992.292514	-2.994100	3.648400	-10.923000	24.773023	0.000983	20.789042
993.291720	-3.021300	3.648500	-11.022000	24.772300	0.000982	20.790688
994.291625	-3.013800	3.646400	-10.988000	24.806818	0.000982	20.796879
995.290228	-2.982800	3.647900	-10.880000	24.800550	0.000983	20.802442
996.292490	-2.996900	3.646900	-10.928000	24.809576	0.000982	20.801069
997.295709	-3.003100	3.646900	-10.951000	24.813229	0.000982	20.791933
998.292426	-2.970900	3.646800	-10.833000	24.853239	0.000982	20.806958
999.290024	-2.979200	3.647500	-10.866000	24.841555	0.000980	20.789541
1000.297189	-3.035100	3.644500	-11.060000	24.823228	0.000981	20.825675
1001.297949	-3.000500	3.646000	-10.939000	24.811466	0.000980	20.778310
1002.293667	-3.010100	3.644600	-10.970000	24.799729	0.000982	20.797351
1003.295732	-3.005400	3.644900	-10.953000	24.787098	0.000980	20.803167
1004.292884	-2.994700	3.644700	-10.914000	24.804184	0.000979	20.802771
1005.291179	-3.005500	3.643700	-10.950000	24.819377	0.000979	20.791465
1006.295881	-3.003800	3.644400	-10.946000	24.845288	0.000979	20.805615
1007.295282	-3.007600	3.643300	-10.956000	24.847428	0.000978	20.800177
1008.291320	-3.001700	3.644000	-10.938000	24.814183	0.000978	20.800951
1009.299847	-2.999000	3.643900	-10.928000	24.778350	0.000980	20.815250
1010.301873	-3.004600	3.642400	-10.942000	24.748438	0.000977	20.814630
1011.301528	-2.974700	3.643500	-10.837000	24.735505	0.000977	20.831523
1012.291798	-2.994100	3.643200	-10.907000	24.708748	0.000977	20.822217
1013.297098	-3.002000	3.642700	-10.935000	24.735406	0.000977	20.820518
1014.293015	-3.001400	3.643000	-10.934000	24.713473	0.000977	20.820794
1015.295802	-2.982500	3.642300	-10.862000	24.698106	0.000977	20.803951
1016.295711	-3.010100	3.641500	-10.958000	24.726330	0.000977	20.837488
1017.297466	-2.999000	3.641700	-10.920000	24.716410	0.000976	20.826586
1018.296070	-3.013200	3.639800	-10.966000	24.741977	0.000973	20.812414
1019.295377	-3.007200	3.641500	-10.950000	24.744337	0.000976	20.824265
1020.293990	-3.000200	3.640000	-10.920000	24.732278	0.000975	20.812637
1021.293803	-3.022500	3.638000	-10.995000	24.731138	0.000974	20.842313
1022.298872	-3.033800	3.638700	-11.038000	24.779875	0.000973	20.801608
1023.293917	-2.979000	3.640400	-10.844000	24.802856	0.000973	20.817558
1024.297753	-3.010300	3.638200	-10.950000	24.803776	0.000975	20.825594
1025.297628	-3.017800	3.637900	-10.976000	24.795794	0.000971	20.815687
1026.296271	-3.013800	3.638300	-10.965000	24.790596	0.000976	20.832756
1027.307958	-3.018900	3.637400	-10.980000	24.758573	0.000972	20.814369
1028.307142	-2.997600	3.637400	-10.902000	24.734550	0.000972	20.812073
1029.298726	-2.994800	3.637300	-10.892000	24.734476	0.000971	20.822904
1030.302474	-2.996400	3.639100	-10.903000	24.724007	0.000970	20.839899
1031.308041	-3.020100	3.636400	-10.980000	24.698047	0.000973	20.812900
1032.300488	-2.999500	3.636900	-10.908000	24.732042	0.000970	20.821410
1033.304736	-2.997600	3.636700	-10.900000	24.774890	0.000972	20.826477
1034.304393	-3.006700	3.635200	-10.929000	24.758230	0.000973	20.825405
1035.305609	-3.005900	3.636900	-10.931000	24.771632	0.000971	20.828897
1036.305638	-3.004000	3.635800	-10.921000	24.740149	0.000972	20.820536
1037.310199	-2.997800	3.636700	-10.901000	24.753230	0.000972	20.833663
1038.308698	-2.994400	3.635900	-10.886000	24.756213	0.000970	20.825278
1039.308258	-3.007100	3.635200	-10.931000	24.778639	0.000967	20.832136
1040.311329	-2.999500	3.636200	-10.905000	24.803557	0.000969	20.841021
1041.310350	-2.993400	3.634800	-10.879000	24.796494	0.000969	20.825873
1042.304855	-2.982300	3.634900	-10.839000	24.772074	0.000967	20.832660
1043.307442	-2.993800	3.634300	-10.879000	24.778136	0.000970	20.847752
1044.309945	-3.004800	3.634400	-10.920000	24.764533	0.000965	20.829834
1045.310783	-3.002800	3.634500	-10.912000	24.771645	0.000967	20.842660
1046.307748	-2.987200	3.633900	-10.854000	24.802952	0.000968	20.823819
1047.310809	-2.992800	3.634900	-10.878000	24.817098	0.000965	20.855558
1048.311954	-3.001800	3.632800	-10.903000	24.844994	0.000968	20.853683
1049.312141	-2.988200	3.634300	-10.858000	24.857426	0.000965	20.856203
1050.312680	-3.004000	3.632300	-10.910000	24.895221	0.000966	20.851935
1051.315989	-3.005100	3.631100	-10.910000	24.907377	0.000965	20.835688
1052.312885	-2.980000	3.632100	-10.823000	24.906158	0.000963	20.834938
1053.312553	-2.978200	3.631800	-10.815000	24.942005	0.000964	20.856218
1054.310271	-3.007300	3.631700	-10.919000	24.900683	0.000962	20.829444
1055.312396	-3.010600	3.630100	-10.927000	24.889987	0.000962	20.847632
1056.313734	-3.011400	3.629900	-10.930000	24.860694	0.000963	20.854266
1057.314209	-2.985200	3.629700	-10.834000	24.867481	0.000962	20.858233
1058.314414	-3.004800	3.630800	-10.908000	24.882099	0.000962	20.859154
1059.312024	-3.017600	3.629400	-10.951000	24.893557	0.000963	20.852637
1060.310285	-2.995500	3.629500	-10.871000	24.904198	0.000961	20.853833
1061.317054	-3.001000	3.629400	-10.891000	24.899125	0.000959	20.842104
1062.315286	-2.993500	3.630200	-10.865000	24.925599	0.000961	20.861088
1063.310128	-3.002600	3.627800	-10.892000	24.951825	0.000960	20.849954
1064.314945	-3.001400	3.628900	-10.890000	24.974948	0.000958	20.847558
1065.314848	-2.996000	3.628000	-10.869000	24.978878	0.000959	20.867149
1066.314704	-2.999300	3.627800	-10.880000	24.960496	0.000959	20.866716
1067.315661	-2.987100	3.627600	-10.835000	24.938095	0.000957	20.862725
1068.315428	-3.006600	3.627000	-10.904000	24.917877	0.000958	20.862347
1069.317033	-3.001000	3.626600	-10.883000	24.905718	0.000957	20.860574
1070.319361	-2.979100	3.628000	-10.807000	24.913277	0.000956	20.868160
1071.312577	-3.016700	3.626300	-10.938000	24.915361	0.000954	20.848917
1072.312795	-3.004100	3.626300	-10.893000	24.949147	0.000955	20.865756
1073.318182	-3.010700	3.625300	-10.913000	24.947526	0.000956	20.879302
1074.313974	-2.991600	3.625700	-10.846000	24.932483	0.000955	20.886488
1075.313117	-2.994900	3.625400	-10.857000	24.890361	0.000954	20.862704
1076.320632	-2.996300	3.625000	-10.861000	24.908437	0.000954	20.874682
1077.315174	-2.999000	3.623900	-10.866000	24.916091	0.000954	20.877623
1078.315342	-3.004600	3.623800	-10.887000	24.920439	0.000952	20.867762
1079.321154	-3.006600	3.623500	-10.893000	24.962681	0.000953	20.882184
1080.315961	-3.007700	3.623700	-10.898000	24.962702	0.000953	20.874146
1081.314355	-2.979200	3.624100	-10.796000	24.997579	0.000953	20.870747
1082.319084	-3.000900	3.623700	-10.872000	24.996582	0.000951	20.885393
1083.322319	-3.004100	3.622200	-10.880000	25.000435	0.000950	20.884993
1084.316620	-2.988300	3.623400	-10.827000	24.967341	0.000952	20.891129
1085.318782	-3.004700	3.621400	-10.880000	24.968258	0.000951	20.879722
1086.317788	-3.007500	3.621300	-10.890000	24.944885	0.000949	20.872859
1087.318949	-3.007400	3.620900	-10.888000	24.907537	0.000949	20.896537
1088.325949	-3.018900	3.621000	-10.930000	24.899627	0.000949	20.867737
1089.321536	-2.988600	3.620800	-10.819000	24.913228	0.000947	20.906515
1090.316375	-2.977400	3.621000	-10.780000	24.942144	0.000947	20.895236
1091.321924	-3.011300	3.619400	-10.898000	24.936917	0.000950	20.906584
1092.317217	-2.992800	3.621000	-10.835000	24.940178	0.000947	20.904167
1093.317686	-3.016300	3.619600	-10.917000	24.975030	0.000947	20.875615
1094.321019	-2.996600	3.618800	-10.842000	24.978411	0.000947	20.895128
1095.320728	-3.018100	3.619700	-10.924000	24.923638	0.000946	20.889938
1096.318438	-2.973900	3.620400	-10.765000	24.865203	0.000946	20.887713
1097.324898	-2.974600	3.619000	-10.764000	24.900610	0.000945	20.887688
1098.324009	-2.990700	3.618700	-10.821000	24.881142	0.000944	20.898019
1099.320673	-2.998400	3.618400	-10.848000	24.912841	0.000943	20.882420
1100.324477	-2.990800	3.618600	-10.822000	24.934445	0.000943	20.892724
1101.324433	-2.997500	3.618100	-10.843000	24.947500	0.000942	20.902033
1102.320846	-2.994600	3.618000	-10.834000	24.934495	0.000945	20.877128
1103.330507	-3.004600	3.617400	-10.867000	24.962517	0.000942	20.917579
1104.327235	-2.980900	3.616700	-10.779000	24.997471	0.000941	20.900034
1105.319674	-2.993900	3.616700	-10.826000	25.017783	0.000941	20.906198
1106.323256	-2.987600	3.617900	-10.808000	25.014551	0.000942	20.906272
1107.320223	-2.981700	3.615300	-10.779000	25.055869	0.000939	20.908866
1108.323000	-2.992500	3.615700	-10.819000	25.055844	0.000940	20.899359
1109.326172	-3.001800	3.617100	-10.857000	25.002912	0.000939	20.892220
1110.322839	-3.005600	3.615000	-10.863000	25.005474	0.000940	20.893843
1111.323378	-3.002800	3.615500	-10.856000	25.003107	0.000940	20.906165
1112.323869	-3.008500	3.613700	-10.871000	24.970067	0.000939	20.911407
1113.329400	-2.998100	3.613600	-10.832000	24.949230	0.000937	20.891916
1114.324010	-3.011400	3.613200	-10.880000	24.974813	0.000937	20.917119
1115.327732	-3.019500	3.613200	-10.908000	25.011184	0.000939	20.908582
1116.328377	-3.016200	3.612000	-10.892000	25.036991	0.000937	20.896556
1117.329320	-2.993600	3.613600	-10.815000	25.053870	0.000936	20.923927
1118.331431	-3.017200	3.611400	-10.896000	25.087950	0.000937	20.887492
1119.326139	-3.012100	3.614000	-10.883000	25.094813	0.000935	20.901018
1120.326813	-3.010700	3.613800	-10.878000	25.113679	0.000934	20.891034
1121.328510	-3.003700	3.611800	-10.847000	25.096900	0.000934	20.890312
1122.328085	-3.016000	3.611200	-10.890000	25.082900	0.000934	20.893328
1123.325354	-3.003700	3.611300	-10.846000	25.073552	0.000934	20.889634
1124.331430	-3.010100	3.612500	-10.873000	25.034396	0.000937	20.886839
1125.327115	-3.006800	3.610000	-10.853000	24.988999	0.000935	20.897220
1126.331336	-2.981200	3.611500	-10.765000	24.945637	0.000934	20.884992
1127.328267	-2.986500	3.609600	-10.779000	24.906576	0.000932	20.901261
1128.328834	-2.989300	3.610100	-10.791000	24.941732	0.000934	20.884865
1129.327983	-3.002600	3.609800	-10.838000	24.962517	0.000931	20.877279
1130.329717	-3.007700	3.607900	-10.850000	24.923904	0.000935	20.887360
1131.329308	-3.004400	3.609600	-10.843000	24.947672	0.000932	20.897939
1132.332508	-2.998300	3.608200	-10.817000	24.941754	0.000931	20.897214
1133.333208	-2.972500	3.609300	-10.727000	24.971413	0.000930	20.902802
1134.330190	-2.965900	3.609100	-10.704000	24.959999	0.000930	20.883286
1135.333625	-3.010600	3.607600	-10.860000	25.000352	0.000930	20.882539
1136.333097	-2.982900	3.607600	-10.760000	25.034706	0.000928	20.894736
1137.334340	-2.997200	3.607800	-10.812000	25.021878	0.000930	20.881387
1138.336284	-3.015300	3.605600	-10.871000	25.059442	0.000929	20.876893
1139.334665	-3.005300	3.607300	-10.839000	25.087857	0.000927	20.871278
1140.331604	-3.003800	3.606600	-10.833000	25.096183	0.000929	20.878688
1141.333215	-3.002600	3.604600	-10.821000	25.126635	0.000926	20.884601
1142.335061	-2.997900	3.605600	-10.809000	25.147466	0.000927	20.882280
1143.331183	-3.001800	3.605400	-10.821000	25.177944	0.000928	20.872100
1144.331802	-2.996000	3.606400	-10.803000	25.196314	0.000925	20.879162
1145.336516	-3.001800	3.605600	-10.822000	25.193008	0.000923	20.884377
1146.332952	-3.002400	3.604000	-10.820000	25.200438	0.000924	20.876191
1147.332482	-3.034100	3.602900	-10.929000	25.190619	0.000924	20.872971
1148.337707	-3.013500	3.602900	-10.856000	25.158527	0.000924	20.883901
1149.335186	-2.983400	3.603400	-10.749000	25.145228	0.000923	20.863439
1150.333878	-2.984600	3.604600	-10.758000	25.120516	0.000922	20.870873
1151.342029	-2.989100	3.604000	-10.771000	25.104729	0.000921	20.864983
1152.342287	-2.989100	3.603100	-10.768000	25.079025	0.000924	20.887542
1153.333428	-2.971300	3.602800	-10.704000	25.070550	0.000920	20.858174
1154.335382	-2.988100	3.603600	-10.766000	25.041613	0.000920	20.867058
1155.338132	-2.984900	3.602000	-10.749000	25.021274	0.000921	20.867505
1156.339103	-3.001100	3.601200	-10.807000	24.985349	0.000918	20.848989
1157.335644	-3.015600	3.600600	-10.858000	25.029952	0.000920	20.850613
1158.338588	-3.022600	3.600000	-10.880000	25.037461	0.000921	20.863364
1159.341137	-3.008900	3.601500	-10.836000	25.039276	0.000917	20.849540
1160.338883	-3.015700	3.600000	-10.856000	25.085166	0.000918	20.869525
1161.343972	-3.007700	3.599600	-10.825000	25.105525	0.000917	20.852506
1162.338971	-3.013000	3.599100	-10.844000	25.135455	0.000919	20.864533
1163.337127	-3.004900	3.598700	-10.812000	25.156286	0.000918	20.858419
1164.339807	-2.981500	3.600300	-10.733000	25.132992	0.000916	20.874862
1165.340319	-3.004600	3.598800	-10.812000	25.137289	0.000915	20.850728
1166.337172	-3.021600	3.596800	-10.867000	25.161331	0.000915	20.858742
1167.342088	-3.010000	3.598600	-10.831000	25.149421	0.000915	20.844890
1168.345234	-2.988200	3.598000	-10.750000	25.166798	0.000914	20.848584
1169.344356	-2.989500	3.598100	-10.756000	25.158942	0.000914	20.842120
1170.342823	-3.005600	3.598900	-10.815000	25.181936	0.000913	20.854298
1171.338581	-3.002000	3.598000	-10.799000	25.136320	0.000912	20.874410
1172.344604	-3.006300	3.595800	-10.808000	25.109947	0.000911	20.835134
1173.344666	-2.995000	3.597000	-10.772000	25.073005	0.000914	20.850207
1174.344422	-3.003900	3.596800	-10.803000	25.082277	0.000911	20.860936
1175.349850	-2.990300	3.596400	-10.753000	25.078970	0.000908	20.832488
1176.342265	-2.998500	3.595800	-10.781000	25.078525	0.000911	20.855748
1177.351762	-3.006300	3.595200	-10.806000	25.063086	0.000911	20.841673
1178.342604	-3.000400	3.594100	-10.783000	25.077781	0.000908	20.841251
1179.342206	-3.010700	3.594000	-10.820000	25.082678	0.000910	20.853278
1180.349310	-2.984900	3.594300	-10.728000	25.095433	0.000909	20.854703
1181.347636	-3.021500	3.593500	-10.856000	25.079794	0.000907	20.834737
1182.345753	-2.990700	3.594900	-10.751000	25.060008	0.000907	20.853755
1183.342677	-3.011800	3.593600	-10.822000	25.055160	0.000907	20.835140
1184.343236	-2.985800	3.593900	-10.728000	25.053073	0.000906	20.829726
1185.346974	-2.993500	3.592700	-10.754000	25.062397	0.000906	20.856627
1186.344764	-3.001800	3.591200	-10.779000	25.064558	0.000906	20.840780
1187.345100	-2.987600	3.593400	-10.734000	25.057673	0.000905	20.842403
1188.348845	-2.985100	3.591700	-10.719000	25.057646	0.000905	20.842850
1189.345347	-3.005700	3.590500	-10.791000	25.057324	0.000904	20.846795
1190.345262	-2.995800	3.590900	-10.756000	25.036118	0.000904	20.832146
1191.350013	-2.996000	3.589600	-10.753000	25.045115	0.000902	20.849237
1192.346148	-2.997200	3.590000	-10.759000	25.046485	0.000904	20.822638
1193.349816	-3.007500	3.591000	-10.800000	25.076416	0.000904	20.839881
1194.353228	-3.002400	3.590600	-10.779000	25.090636	0.000905	20.826181
1195.347690	-3.000700	3.589900	-10.771000	25.094711	0.000902	20.849711
1196.347401	-3.013000	3.589200	-10.813000	25.103537	0.000902	20.851459
1197.352165	-3.013600	3.588900	-10.815000	25.114626	0.000901	20.852159
1198.350032	-3.010300	3.589100	-10.803000	25.145821	0.000901	20.825629
1199.347120	-3.001900	3.588800	-10.771000	25.151341	0.000902	20.833067
1200.351696	-3.007700	3.586300	-10.786000	25.161531	0.000900	20.822435
1201.351587	-2.985500	3.588900	-10.713000	25.148554	0.000900	20.826476
1202.351897	-2.983400	3.589300	-10.708000	25.148430	0.000899	20.834886
1203.352482	-2.989800	3.588100	-10.727000	25.156709	0.000899	20.822809
1204.358995	-2.980500	3.588100	-10.693000	25.170129	0.000899	20.822057
1205.346973	-2.996200	3.586800	-10.746000	25.170703	0.000898	20.855823
1206.348969	-2.993400	3.586900	-10.736000	25.194414	0.000895	20.834109
1207.347626	-2.987700	3.587000	-10.715000	25.201350	0.000896	20.827796
1208.351693	-2.998700	3.585800	-10.750000	25.214502	0.000896	20.844793
1209.356563	-3.015800	3.585100	-10.811000	25.212385	0.000894	20.830815
1210.348129	-2.991500	3.584500	-10.722000	25.237468	0.000893	20.822333
1211.347918	-3.016100	3.584400	-10.810000	25.211416	0.000892	20.828419
1212.352838	-2.986700	3.584800	-10.705000	25.206122	0.000893	20.822630
1213.356241	-2.975500	3.584800	-10.665000	25.168564	0.000891	20.832339
1214.350132	-2.993200	3.584200	-10.726000	25.118498	0.000891	20.797252
1215.351697	-2.986800	3.582000	-10.698000	25.084616	0.000891	20.832940
1216.351746	-3.004900	3.584400	-10.770000	25.068831	0.000891	20.836061
1217.355188	-2.992500	3.584200	-10.724000	25.072061	0.000890	20.821285
1218.356319	-3.011500	3.583300	-10.790000	25.068609	0.000888	20.827303
1219.355061	-2.981600	3.582600	-10.681000	25.119050	0.000887	20.826255
1220.349452	-2.988200	3.581600	-10.702000	25.152983	0.000887	20.811482
1221.356422	-3.004900	3.581100	-10.759000	25.181623	0.000887	20.807518
1222.356058	-2.992900	3.582300	-10.719000	25.214436	0.000885	20.813434
1223.351656	-3.009600	3.581500	-10.779000	25.221521	0.000886	20.828607
1224.354921	-3.006800	3.581400	-10.767000	25.222171	0.000885	20.836372
1225.353301	-2.994700	3.580400	-10.720000	25.222943	0.000885	20.803482
1226.355290	-3.014900	3.579200	-10.791000	25.250236	0.000884	20.809547
1227.356540	-2.996400	3.579800	-10.726000	25.244349	0.000885	20.795576
1228.354742	-3.023400	3.578600	-10.819000	25.244797	0.000884	20.815466
1229.355311	-3.020900	3.579100	-10.811000	25.247633	0.000884	20.811201
1230.357321	-2.998800	3.579600	-10.733000	25.232325	0.000884	20.824281
1231.355759	-2.996500	3.576900	-10.717000	25.249772	0.000884	20.808607
1232.369636	-2.975600	3.578800	-10.648000	25.256041	0.000882	20.808737
1233.355937	-3.027400	3.577600	-10.829000	25.265038	0.000884	20.806391
1234.357524	-2.999900	3.577800	-10.731000	25.296010	0.000882	20.810934
1235.354851	-2.999500	3.577500	-10.730000	25.275505	0.000880	20.798407
1236.354137	-2.990800	3.577700	-10.699000	25.255621	0.000880	20.798358
1237.354754	-2.997100	3.576300	-10.717000	25.232702	0.000880	20.795262
1238.354611	-2.979300	3.578600	-10.661000	25.218558	0.000879	20.821839
1239.358426	-2.994000	3.576400	-10.707000	25.227235	0.000880	20.793092
1240.354187	-2.984300	3.576300	-10.671000	25.211474	0.000878	20.795761
1241.354541	-3.000100	3.575800	-10.727000	25.223805	0.000878	20.789175
1242.353858	-2.978700	3.575500	-10.649000	25.193974	0.000877	20.795736
1243.357308	-3.014900	3.574000	-10.773000	25.181247	0.000879	20.798132
1244.354115	-2.991800	3.574600	-10.693000	25.179259	0.000878	20.813679
1245.356404	-2.988400	3.573800	-10.679000	25.187736	0.000875	20.803697
1246.356513	-3.003000	3.572700	-10.728000	25.209461	0.000875	20.796585
1247.356535	-2.988500	3.574600	-10.681000	25.220774	0.000876	20.816003
1248.358186	-2.994000	3.574500	-10.701000	25.244187	0.000877	20.800629
1249.361559	-2.983300	3.574500	-10.663000	25.258355	0.000874	20.803474
1250.356489	-3.005400	3.573800	-10.740000	25.261562	0.000873	20.810961
1251.358429	-2.996900	3.572500	-10.703000	25.257315	0.000873	20.776351
1252.358228	-3.016900	3.571700	-10.774000	25.245607	0.000873	20.797313
1253.358749	-3.001900	3.571300	-10.720000	25.283317	0.000871	20.804354
1254.363548	-2.998400	3.572400	-10.710000	25.291370	0.000871	20.790628
1255.358480	-3.001000	3.570600	-10.715000	25.289755	0.000873	20.792326
1256.359257	-3.010600	3.570400	-10.748000	25.292267	0.000871	20.786314
1257.363894	-2.993600	3.571100	-10.689000	25.287270	0.000871	20.791254
1258.358898	-2.991600	3.570200	-10.679000	25.281356	0.000871	20.786264
1259.358503	-2.975900	3.571400	-10.627000	25.294832	0.000873	20.768500
1260.358992	-3.002700	3.568800	-10.715000	25.322469	0.000870	20.770170
1261.360771	-3.015000	3.568600	-10.758000	25.306515	0.000868	20.786868
1262.358344	-2.997600	3.568000	-10.695000	25.313672	0.000867	20.784571
1263.358786	-2.989100	3.568400	-10.665000	25.278182	0.000868	20.775965
1264.360471	-3.008200	3.568100	-10.733000	25.254943	0.000865	20.766382
1265.367636	-2.996600	3.566800	-10.687000	25.204335	0.000867	20.783852
1266.360198	-3.010600	3.567500	-10.738000	25.189221	0.000865	20.757299
1267.368710	-2.984500	3.567300	-10.646000	25.189320	0.000866	20.791538
1268.360192	-2.995000	3.565700	-10.678000	25.187483	0.000866	20.778788
1269.364408	-2.984700	3.567000	-10.646000	25.216864	0.000866	20.786474
1270.365409	-3.001900	3.566200	-10.704000	25.219747	0.000865	20.790791
1271.361788	-2.993700	3.566100	-10.674000	25.218877	0.000865	20.761467
1272.361602	-2.987900	3.567100	-10.657000	25.262323	0.000864	20.769999
1273.367714	-2.991000	3.567600	-10.669000	25.270651	0.000865	20.768403
1274.360998	-2.993800	3.566500	-10.676000	25.290983	0.000865	20.782653
1275.365027	-2.999100	3.564100	-10.689000	25.262966	0.000864	20.791507
1276.371708	-3.015100	3.563900	-10.745000	25.257845	0.000864	20.762658
1277.363963	-3.009300	3.562200	-10.719000	25.281079	0.000863	20.767019
1278.365421	-3.007700	3.563500	-10.717000	25.272705	0.000864	20.789431
1279.367287	-3.009600	3.563800	-10.724000	25.254083	0.000861	20.779270
1280.364645	-3.001700	3.561700	-10.689000	25.219330	0.000861	20.773776
1281.364051	-2.966500	3.564800	-10.574000	25.226460	0.000862	20.771926
1282.368685	-2.980700	3.563100	-10.618000	25.243311	0.000860	20.793586
1283.365627	-2.999800	3.561600	-10.683000	25.232375	0.000864	20.784502
1284.366045	-2.993700	3.561300	-10.659000	25.260706	0.000862	20.767901
1285.369536	-2.990900	3.561600	-10.651000	25.271614	0.000859	20.751826
1286.364437	-2.973000	3.562300	-10.589000	25.287073	0.000860	20.755493
1287.367298	-2.996300	3.562100	-10.672000	25.296540	0.000860	20.779223
1288.381514	-2.992600	3.559800	-10.652000	25.286669	0.000858	20.764571
1289.371726	-2.996700	3.561100	-10.669000	25.275231	0.000857	20.759250
1290.367872	-2.999500	3.559900	-10.677000	25.238965	0.000855	20.765514
1291.372366	-2.984100	3.559900	-10.621000	25.202396	0.000857	20.779061
1292.368136	-3.021000	3.558800	-10.749000	25.215021	0.000855	20.792684
1293.368492	-3.006500	3.558600	-10.698000	25.226279	0.000855	20.764632
1294.372632	-2.984300	3.560000	-10.623000	25.225008	0.000855	20.769994
1295.367898	-2.999600	3.559800	-10.677000	25.223913	0.000854	20.765575
1296.369109	-2.978900	3.559100	-10.601000	25.223163	0.000854	20.780944
1297.372136	-2.965700	3.559200	-10.554000	25.210085	0.000854	20.789625
1298.367721	-2.979800	3.559000	-10.604000	25.244633	0.000854	20.763618
1299.371020	-3.004800	3.557400	-10.688000	25.283902	0.000851	20.770328
1300.373106	-3.003400	3.556000	-10.679000	25.255465	0.000853	20.764062
1301.366447	-3.005400	3.557000	-10.689000	25.229017	0.000851	20.759794
1302.368161	-2.989500	3.556800	-10.632000	25.277483	0.000849	20.772418
1303.375725	-3.007900	3.557100	-10.698000	25.250188	0.000848	20.770618
1304.375978	-3.000000	3.556200	-10.666000	25.246011	0.000848	20.755519
1305.373281	-3.011300	3.555200	-10.705000	25.237706	0.000849	20.756663
1306.372585	-3.008200	3.555800	-10.696000	25.204547	0.000846	20.754193
1307.373711	-3.004900	3.555600	-10.684000	25.219207	0.000845	20.764644
1308.374622	-3.001800	3.553700	-10.667000	25.219081	0.000845	20.755508
1309.378783	-2.991100	3.554200	-10.630000	25.258280	0.000846	20.757405
1310.370821	-2.989400	3.554800	-10.626000	25.289446	0.000843	20.763566
1311.369535	-3.020000	3.554100	-10.732000	25.269288	0.000842	20.764664
1312.374969	-3.012700	3.553200	-10.703000	25.218927	0.000843	20.765311
1313.372099	-3.018100	3.554000	-10.725000	25.213309	0.000841	20.757300
1314.372551	-3.001100	3.553700	-10.665000	25.214825	0.000841	20.781108
1315.375964	-2.993800	3.552600	-10.634000	25.231350	0.000841	20.767352
1316.370034	-2.993700	3.552400	-10.634000	25.217231	0.000839	20.770246
1317.376348	-2.996400	3.552500	-10.643000	25.191777	0.000840	20.754648
1318.376274	-2.991100	3.552100	-10.623000	25.227769	0.000838	20.766602
1319.380384	-3.023200	3.550900	-10.735000	25.233810	0.000840	20.765080
1320.373763	-2.999800	3.550900	-10.651000	25.219988	0.000840	20.752625
1321.378104	-3.020600	3.551300	-10.725000	25.200849	0.000839	20.758067
1322.376797	-2.990000	3.550900	-10.616000	25.197842	0.000836	20.754100
1323.372689	-3.000600	3.550600	-10.654000	25.214845	0.000836	20.751255
1324.374030	-2.982900	3.551500	-10.593000	25.232643	0.000837	20.763434
1325.374100	-3.007400	3.548700	-10.671000	25.271517	0.000838	20.745565
1326.379809	-3.016500	3.549200	-10.705000	25.271515	0.000836	20.750778
1327.382242	-3.005400	3.548200	-10.663000	25.275295	0.000835	20.750306
1328.378249	-2.995800	3.549200	-10.631000	25.287423	0.000835	20.762958
1329.379406	-2.997700	3.549000	-10.637000	25.286602	0.000834	20.746011
1330.383308	-2.989300	3.550100	-10.611000	25.340015	0.000833	20.778779
1331.378531	-3.007800	3.548400	-10.672000	25.345682	0.000833	20.750803
1332.383020	-2.981000	3.547800	-10.575000	25.303727	0.000832	20.765102
1333.380552	-2.986700	3.548600	-10.598000	25.280238	0.000832	20.748156
1334.387134	-2.993400	3.547800	-10.620000	25.265647	0.000832	20.761009
1335.386184	-3.005900	3.546500	-10.659000	25.240392	0.000831	20.752722
1336.386073	-3.002900	3.546800	-10.650000	25.193812	0.000831	20.741044
1337.392222	-3.005100	3.545200	-10.652000	25.158634	0.000829	20.760256
1338.383765	-3.003200	3.545700	-10.648000	25.164727	0.000830	20.746932
1339.390155	-3.013600	3.543400	-10.677000	25.182350	0.000831	20.745659
1340.388118	-2.989200	3.545000	-10.596000	25.192911	0.000828	20.753417
1341.388871	-2.980400	3.545900	-10.568000	25.212154	0.000828	20.732431
1342.392853	-2.995700	3.545300	-10.620000	25.190031	0.000827	20.750999
1343.390151	-2.996800	3.543500	-10.618000	25.216872	0.000827	20.758506
1344.385003	-3.013400	3.543800	-10.677000	25.237504	0.000825	20.757409
1345.389855	-2.986200	3.543500	-10.580000	25.235664	0.000825	20.745604
1346.392693	-2.993100	3.543000	-10.603000	25.255252	0.000827	20.751520
1347.389607	-2.974400	3.544100	-10.539000	25.227957	0.000826	20.744030
1348.389916	-3.010800	3.542100	-10.662000	25.173717	0.000825	20.733198
1349.390862	-3.006100	3.540300	-10.642000	25.189328	0.000823	20.737965
1350.386673	-3.018200	3.541100	-10.686000	25.195218	0.000826	20.755733
1351.392815	-2.997000	3.540300	-10.609000	25.185772	0.000824	20.750991
1352.392104	-3.011400	3.540900	-10.662000	25.220098	0.000821	20.759375
1353.391984	-3.016300	3.540500	-10.678000	25.208514	0.000823	20.747744
1354.393414	-3.020000	3.539100	-10.687000	25.213187	0.000820	20.758600
1355.396513	-3.009500	3.541000	-10.655000	25.210554	0.000822	20.740782
1356.388138	-2.990500	3.541000	-10.588000	25.215123	0.000822	20.760544
1357.392816	-2.986100	3.539400	-10.568000	25.201501	0.000822	20.729323
1358.396680	-3.000700	3.539100	-10.618000	25.199288	0.000819	20.751284
1359.393500	-3.004300	3.537900	-10.628000	25.207515	0.000822	20.757172
1360.396753	-2.985900	3.539600	-10.568000	25.234858	0.000819	20.744794
1361.395897	-2.998300	3.537500	-10.604000	25.254490	0.000819	20.750755
1362.396905	-2.984700	3.538500	-10.560000	25.282949	0.000819	20.754672
1363.393889	-3.024700	3.536900	-10.697000	25.304920	0.000819	20.771516
1364.394872	-2.997900	3.537700	-10.605000	25.335986	0.000817	20.748654
1365.390208	-3.015500	3.537200	-10.665000	25.338446	0.000817	20.756814
1366.392937	-3.005500	3.536500	-10.628000	25.321545	0.000818	20.764975
1367.394168	-3.002300	3.536900	-10.617000	25.310903	0.000817	20.763299
1368.394130	-2.994200	3.538600	-10.594000	25.255773	0.000816	20.749672
1369.397158	-3.000200	3.537300	-10.611000	25.238376	0.000816	20.761129
1370.400179	-3.012900	3.535700	-10.651000	25.228480	0.000813	20.748349
1371.392531	-3.032500	3.534800	-10.718000	25.235040	0.000816	20.756357
1372.396544	-3.008200	3.535400	-10.634000	25.249930	0.000813	20.766092
1373.399698	-3.003200	3.535200	-10.617000	25.259944	0.000813	20.737264
1374.393314	-3.010900	3.534300	-10.640000	25.263003	0.000813	20.760250
1375.395403	-3.004000	3.534100	-10.615000	25.297997	0.000812	20.744175
1376.398891	-2.999000	3.533400	-10.596000	25.311046	0.000811	20.755856
1377.396650	-3.011000	3.534000	-10.639000	25.262130	0.000811	20.758425
1378.400421	-2.985200	3.533700	-10.548000	25.247591	0.000809	20.767536
1379.401879	-3.009600	3.532800	-10.631000	25.282014	0.000811	20.730499
1380.397688	-3.017600	3.534100	-10.663000	25.285570	0.000810	20.761097
1381.401554	-3.005100	3.531400	-10.611000	25.290740	0.000807	20.753959
1382.401277	-3.010000	3.531800	-10.630000	25.283854	0.000809	20.740881
1383.400998	-3.002400	3.531700	-10.603000	25.273143	0.000808	20.757154
1384.403117	-3.007100	3.531300	-10.618000	25.264617	0.000808	20.757129
1385.405577	-3.020600	3.529000	-10.659000	25.298518	0.000807	20.774572
1386.408472	-3.014200	3.530200	-10.640000	25.314355	0.000809	20.764868
1387.405849	-3.001500	3.530800	-10.597000	25.339131	0.000806	20.753234
1388.406606	-3.002800	3.528700	-10.595000	25.377084	0.000807	20.755781
1389.401754	-3.015000	3.530700	-10.644000	25.356804	0.000806	20.756755
1390.404895	-3.011500	3.531300	-10.633000	25.363912	0.000805	20.763418
1391.401680	-3.006200	3.529600	-10.609000	25.350741	0.000803	20.757306
1392.406289	-2.999000	3.528700	-10.581000	25.340652	0.000804	20.751916
1393.410569	-2.986400	3.528500	-10.536000	25.327728	0.000804	20.744156
1394.415064	-2.995800	3.529000	-10.571000	25.349997	0.000801	20.768413
1395.406715	-2.995700	3.527100	-10.564000	25.354695	0.000803	20.771233
1396.411029	-2.979800	3.528500	-10.514000	25.402191	0.000799	20.756809
1397.404479	-2.985500	3.527500	-10.530000	25.398391	0.000800	20.753468
1398.405072	-2.992700	3.526400	-10.552000	25.392845	0.000801	20.765918
1399.407710	-2.979300	3.526200	-10.505000	25.369188	0.000799	20.765871
1400.403013	-3.001600	3.526000	-10.582000	25.382909	0.000799	20.742190
1401.403424	-3.002700	3.525600	-10.585000	25.379329	0.000800	20.772735
1402.404954	-3.004200	3.525000	-10.588000	25.396304	0.000800	20.769865
1403.409143	-3.010400	3.524900	-10.610000	25.410819	0.000799	20.750774
1404.404093	-2.998300	3.524500	-10.566000	25.389545	0.000798	20.755965
1405.409096	-3.010100	3.524500	-10.607000	25.408035	0.000796	20.754617
1406.403966	-3.014000	3.524400	-10.622000	25.403140	0.000798	20.773884
1407.408568	-3.005500	3.522900	-10.587000	25.393595	0.000797	20.749126
1408.406464	-2.991000	3.523400	-10.537000	25.365435	0.000796	20.757835
1409.407849	-2.991000	3.523100	-10.536000	25.348388	0.000796	20.750201
1410.413788	-3.002300	3.522200	-10.572000	25.343490	0.000795	20.753344
1411.413992	-2.978500	3.522800	-10.491000	25.341077	0.000795	20.746179
1412.408706	-2.997700	3.521600	-10.555000	25.336777	0.000793	20.773157
1413.408921	-2.976800	3.523100	-10.487000	25.336429	0.000795	20.749573
1414.412453	-2.992800	3.521800	-10.539000	25.313635	0.000792	20.790224
1415.408173	-3.003800	3.520500	-10.574000	25.293499	0.000794	20.760997
1416.407854	-3.003300	3.520200	-10.572000	25.263500	0.000793	20.790621
1417.410805	-2.989700	3.520400	-10.523000	25.254527	0.000792	20.756956
1418.411341	-2.998800	3.520600	-10.557000	25.235930	0.000792	20.779537
1419.407057	-2.977300	3.519800	-10.478000	25.253355	0.000791	20.766685
1420.412421	-2.991700	3.519100	-10.527000	25.274530	0.000791	20.763763
1421.410292	-3.010600	3.518300	-10.591000	25.275202	0.000789	20.766809
1422.413604	-3.016000	3.517700	-10.608000	25.279077	0.000787	20.778760
1423.413868	-3.003900	3.518100	-10.567000	25.323693	0.000788	20.769028
1424.409929	-2.973600	3.519300	-10.463000	25.353120	0.000790	20.780557
1425.417866	-2.992700	3.518100	-10.528000	25.382793	0.000787	20.774790
1426.412856	-2.988800	3.516700	-10.509000	25.383463	0.000786	20.766928
1427.414240	-2.993200	3.518400	-10.530000	25.410900	0.000787	20.770297
1428.412243	-2.984200	3.518400	-10.498000	25.395839	0.000785	20.782200
1429.416276	-3.008100	3.515500	-10.574000	25.357661	0.000786	20.752400
1430.416334	-2.999100	3.516000	-10.544000	25.341433	0.000784	20.789685
1431.415680	-3.011100	3.514900	-10.583000	25.318320	0.000785	20.796351
1432.421273	-3.006900	3.514500	-10.566000	25.284862	0.000785	20.752325
1433.415423	-3.020400	3.515000	-10.616000	25.243278	0.000783	20.767474
1434.417629	-3.018400	3.513800	-10.604000	25.220261	0.000781	20.796996
1435.418601	-3.000500	3.513500	-10.541000	25.201792	0.000781	20.791731
1436.413922	-3.017300	3.513700	-10.601000	25.218050	0.000782	20.765379
1437.414500	-2.986800	3.512300	-10.489000	25.221131	0.000782	20.763256
1438.419384	-2.998700	3.513100	-10.533000	25.270250	0.000780	20.768474
1439.415450	-3.005600	3.511500	-10.552000	25.303780	0.000780	20.770845
1440.423690	-3.003100	3.513000	-10.549000	25.330749	0.000780	20.770423
1441.420814	-2.991600	3.512400	-10.507000	25.318046	0.000779	20.771419
1442.420205	-2.998700	3.510800	-10.526000	25.300625	0.000778	20.772419
1443.415547	-3.002900	3.510700	-10.541000	25.325008	0.000779	20.796902
1444.417267	-2.998800	3.511900	-10.531000	25.326650	0.000777	20.793809
1445.421726	-2.969100	3.512300	-10.427000	25.354687	0.000777	20.773122
1446.420186	-3.009400	3.511100	-10.565000	25.393730	0.000777	20.799997
1447.422275	-2.992200	3.510500	-10.503000	25.409763	0.000776	20.793811
1448.425500	-3.012900	3.509400	-10.572000	25.412099	0.000777	20.788571
1449.420660	-2.985100	3.511300	-10.479000	25.408846	0.000777	20.795735
1450.423159	-3.012700	3.507800	-10.565000	25.400195	0.000777	20.789420
1451.423473	-3.010900	3.509400	-10.566000	25.388417	0.000775	20.778067
1452.419887	-3.004400	3.509300	-10.541000	25.429919	0.000776	20.778015
1453.421442	-3.020900	3.507200	-10.593000	25.411358	0.000774	20.775972
1454.423341	-3.012500	3.506300	-10.561000	25.441847	0.000775	20.798528
1455.420211	-3.007600	3.508400	-10.550000	25.466055	0.000774	20.786326
1456.424098	-2.999800	3.507500	-10.521000	25.475347	0.000775	20.793761
1457.425907	-3.009900	3.507200	-10.556000	25.447887	0.000774	20.792265
1458.418612	-2.997000	3.506100	-10.506000	25.435607	0.000773	20.794633
1459.420313	-3.005700	3.505300	-10.535000	25.442191	0.000771	20.757147
1460.424457	-3.007800	3.506000	-10.544000	25.451063	0.000772	20.790239
1461.421135	-3.006200	3.504600	-10.534000	25.422433	0.000771	20.800370
1462.420076	-2.990400	3.504600	-10.479000	25.461498	0.000772	20.815890
1463.424915	-3.005100	3.504900	-10.532000	25.479713	0.000770	20.780127
1464.420186	-3.010800	3.504300	-10.550000	25.501408	0.000770	20.794801
1465.421226	-3.016000	3.503200	-10.564000	25.541241	0.000769	20.802088
1466.426042	-3.018700	3.502300	-10.571000	25.538455	0.000767	20.795971
1467.423367	-3.022000	3.503500	-10.587000	25.525955	0.000769	20.810918
1468.422223	-3.008100	3.502800	-10.536000	25.500159	0.000767	20.789280
1469.429392	-2.984400	3.503700	-10.455000	25.506198	0.000768	20.787284
1470.425919	-3.003900	3.502200	-10.520000	25.524635	0.000768	20.818127
1471.421769	-3.002600	3.501700	-10.513000	25.551673	0.000765	20.805451
1472.429290	-3.009300	3.501800	-10.537000	25.546875	0.000766	20.787831
1473.422588	-3.013000	3.500700	-10.547000	25.586012	0.000767	20.809118
1474.426101	-3.024000	3.499500	-10.582000	25.593490	0.000764	20.811886
1475.427336	-3.007300	3.499500	-10.524000	25.592746	0.000763	20.798336
1476.426978	-2.990000	3.500800	-10.466000	25.542126	0.000764	20.796812
1477.431137	-2.968900	3.500400	-10.390000	25.503012	0.000762	20.794990
1478.427649	-2.992000	3.499700	-10.470000	25.482857	0.000762	20.789923
1479.427767	-3.004800	3.499200	-10.513000	25.471799	0.000762	20.805846
1480.428340	-3.006200	3.499000	-10.517000	25.500824	0.000763	20.780465
1481.428329	-3.018500	3.497700	-10.556000	25.487082	0.000761	20.812184
1482.424407	-3.021300	3.498500	-10.569000	25.522444	0.000761	20.810237
1483.429666	-2.960600	3.498300	-10.356000	25.512277	0.000761	20.795760
1484.429655	-3.021600	3.496000	-10.563000	25.515983	0.000761	20.813705
1485.436736	-3.015600	3.495000	-10.538000	25.522565	0.000759	20.798031
1486.432072	-2.999000	3.496900	-10.487000	25.522392	0.000759	20.802599
1487.430917	-3.026400	3.495900	-10.579000	25.484199	0.000761	20.820669
1488.433582	-2.992000	3.496300	-10.460000	25.473612	0.000758	20.815252
1489.433616	-3.019700	3.494400	-10.550000	25.467523	0.000758	20.805819
1490.437633	-2.992900	3.495700	-10.461000	25.455718	0.000760	20.816724
1491.430622	-3.005400	3.494600	-10.501000	25.474655	0.000758	20.822937
1492.430818	-3.006000	3.494300	-10.502000	25.502016	0.000757	20.817223
1493.431865	-2.989800	3.494000	-10.446000	25.500127	0.000756	20.805369
1494.429425	-3.010700	3.494200	-10.518000	25.532283	0.000755	20.845721
1495.431152	-2.990600	3.493800	-10.447000	25.519908	0.000754	20.835665
1496.436326	-3.008400	3.493100	-10.508000	25.504201	0.000756	20.814676
1497.430777	-3.007700	3.492100	-10.503000	25.473809	0.000754	20.834890
1498.433940	-3.010000	3.491900	-10.509000	25.481139	0.000755	20.829923
1499.443295	-2.998200	3.492800	-10.471000	25.489987	0.000754	20.830273
1500.439983	-3.018100	3.492500	-10.540000	25.504374	0.000753	20.819117
1501.437537	-2.999200	3.492300	-10.473000	25.490634	0.000752	20.839458
1502.434810	-3.025700	3.490300	-10.560000	25.509518	0.000755	20.826179
1503.445917	-3.002600	3.491100	-10.482000	25.531737	0.000751	20.813879
1504.433352	-2.976100	3.491000	-10.388000	25.528355	0.000753	20.836561
1505.440801	-2.988500	3.491100	-10.432000	25.549774	0.000750	20.817769
1506.437539	-3.000200	3.488500	-10.465000	25.544257	0.000751	20.835935
1507.433250	-2.986700	3.492000	-10.428000	25.530266	0.000749	20.816669
1508.451190	-2.992700	3.488700	-10.439000	25.546543	0.000751	20.825904
1509.452498	-2.978700	3.488000	-10.388000	25.518064	0.000751	20.816270
1510.466893	-2.997400	3.487000	-10.451000	25.484167	0.000752	20.809257
1511.453530	-2.955100	3.489600	-10.311000	25.463466	0.000751	20.829719
1512.454753	-2.989200	3.487700	-10.424000	25.507924	0.000750	20.834061
1513.437658	-2.977200	3.487200	-10.381000	25.494009	0.000749	20.826726
1514.455490	-3.014700	3.485900	-10.508000	25.527008	0.000749	20.819561
1515.432898	-3.003200	3.486000	-10.466000	25.483940	0.000749	20.814718
1516.438600	-3.011700	3.486300	-10.499000	25.447533	0.000749	20.832212
1517.437545	-2.995100	3.486600	-10.441000	25.427078	0.000748	20.848181
1518.434004	-3.023000	3.485600	-10.535000	25.428072	0.000746	20.823101
1519.443281	-2.983100	3.484900	-10.394000	25.428767	0.000746	20.834230
1520.442363	-3.003300	3.484500	-10.464000	25.431773	0.000745	20.848154
1521.437033	-2.999000	3.484600	-10.448000	25.452747	0.000748	20.823223
1522.442480	-3.011700	3.483100	-10.488000	25.413031	0.000747	20.844033
1523.438961	-3.001100	3.482900	-10.452000	25.423345	0.000745	20.845855
1524.443448	-3.015700	3.483800	-10.505000	25.434873	0.000744	20.839887
1525.440820	-3.005400	3.482900	-10.467000	25.432413	0.000744	20.835521
1526.446816	-2.983900	3.484600	-10.397000	25.408353	0.000743	20.848819
1527.437836	-2.999100	3.481900	-10.442000	25.380120	0.000743	20.837065
1528.441770	-3.003000	3.482100	-10.456000	25.351737	0.000744	20.830377
1529.446474	-3.006700	3.481900	-10.467000	25.337242	0.000742	20.840952
1530.437014	-2.975300	3.482600	-10.361000	25.347754	0.000742	20.842499
1531.439460	-2.983100	3.481500	-10.385000	25.362317	0.000740	20.843844
1532.440750	-3.003300	3.479900	-10.449000	25.377702	0.000740	20.855025
1533.436974	-3.018400	3.480000	-10.503000	25.358242	0.000739	20.858719
1534.441462	-3.000300	3.480000	-10.439000	25.390919	0.000740	20.837951
1535.446973	-2.971300	3.480600	-10.339000	25.401110	0.000739	20.850080
1536.437905	-2.991100	3.479600	-10.407000	25.424994	0.000738	20.852252
1537.443381	-2.998700	3.479500	-10.432000	25.445817	0.000738	20.859885
1538.452626	-2.991100	3.480100	-10.408000	25.432720	0.000737	20.852898
1539.442698	-2.999900	3.479300	-10.436000	25.430631	0.000737	20.856490
1540.441304	-2.992700	3.477800	-10.407000	25.392358	0.000737	20.877326
1541.449118	-3.000300	3.476600	-10.430000	25.431949	0.000736	20.856864
1542.443678	-3.000400	3.477900	-10.433000	25.432020	0.000734	20.864048
1543.441088	-3.031800	3.476000	-10.538000	25.438235	0.000734	20.853695
1544.450222	-3.007900	3.475800	-10.453000	25.426183	0.000734	20.869092
1545.471899	-3.004600	3.475500	-10.442000	25.420344	0.000733	20.859910
1546.458421	-2.984500	3.475900	-10.372000	25.403669	0.000733	20.855494
1547.473235	-2.998100	3.474400	-10.415000	25.394746	0.000733	20.853173
1548.482878	-3.008500	3.474400	-10.451000	25.358336	0.000733	20.857865
1549.462551	-2.989400	3.473700	-10.384000	25.386323	0.000733	20.858466
1550.461913	-2.994900	3.474500	-10.405000	25.413686	0.000731	20.855596
1551.464773	-3.014400	3.473100	-10.468000	25.431182	0.000730	20.879327
1552.465610	-3.022200	3.472900	-10.495000	25.413142	0.000730	20.856946
1553.468487	-3.011800	3.473600	-10.461000	25.412250	0.000730	20.870748
1554.449599	-2.989000	3.472400	-10.378000	25.395822	0.000730	20.863735
1555.451965	-3.008200	3.471600	-10.442000	25.404049	0.000729	20.868678
1556.447482	-3.038300	3.470700	-10.544000	25.445778	0.000728	20.868854
1557.456021	-3.006200	3.471700	-10.435000	25.443592	0.000728	20.874720
1558.469371	-2.996100	3.472100	-10.401000	25.447793	0.000726	20.884152
1559.476877	-3.018200	3.471700	-10.477000	25.494417	0.000726	20.845627
1560.470870	-3.008000	3.471000	-10.439000	25.521577	0.000726	20.884279
1561.475700	-2.969600	3.470200	-10.302000	25.531568	0.000724	20.880089
1562.470450	-2.993300	3.471100	-10.389000	25.526721	0.000725	20.879488
1563.474390	-3.005000	3.470700	-10.427000	25.538502	0.000724	20.897956
1564.457421	-2.990200	3.471400	-10.378000	25.558013	0.000725	20.868715
1565.458910	-2.996200	3.469100	-10.392000	25.517036	0.000723	20.874978
1566.472324	-3.009500	3.467700	-10.434000	25.511273	0.000725	20.870140
1567.476544	-3.032300	3.467100	-10.512000	25.499220	0.000723	20.879846
1568.469906	-3.015300	3.467300	-10.454000	25.459807	0.000720	20.876777
1569.474469	-3.009900	3.465200	-10.428000	25.447780	0.000723	20.868494
1570.486854	-2.972200	3.468900	-10.307000	25.454391	0.000723	20.887933
1571.488340	-3.034400	3.466400	-10.516000	25.461352	0.000721	20.883070
1572.480553	-2.997200	3.465000	-10.384000	25.476264	0.000721	20.867225
1573.481008	-2.985000	3.464500	-10.339000	25.491423	0.000721	20.871068
1574.479879	-2.992300	3.466100	-10.370000	25.488642	0.000719	20.873965
1575.470647	-2.996500	3.466000	-10.385000	25.482855	0.000720	20.881429
1576.475182	-2.984400	3.465700	-10.342000	25.478682	0.000721	20.878662
1577.477244	-2.993700	3.464600	-10.371000	25.535168	0.000720	20.857626
1578.464558	-2.993000	3.465800	-10.373000	25.540213	0.000719	20.874072
1579.485453	-2.994100	3.463700	-10.370000	25.560740	0.000719	20.874772
1580.465843	-3.005600	3.462900	-10.407000	25.541857	0.000718	20.890894
1581.478260	-2.993400	3.462500	-10.363000	25.557141	0.000716	20.867365
1582.486827	-2.981300	3.462800	-10.323000	25.557989	0.000717	20.896663
1583.469038	-3.026000	3.460600	-10.470000	25.570514	0.000717	20.883639
1584.487306	-2.999300	3.461600	-10.381000	25.587164	0.000715	20.878076
1585.476694	-2.984600	3.461900	-10.330000	25.587362	0.000715	20.892972
1586.459426	-2.979800	3.461000	-10.312000	25.581875	0.000716	20.882246
1587.478345	-3.018700	3.460200	-10.444000	25.560950	0.000716	20.893474
1588.482793	-2.987600	3.461500	-10.340000	25.584979	0.000712	20.889631
1589.458216	-2.989600	3.460600	-10.345000	25.576011	0.000715	20.884418
1590.491409	-3.002000	3.460500	-10.388000	25.588610	0.000714	20.880476
1591.488949	-2.992700	3.460500	-10.353000	25.593084	0.000712	20.872642
1592.479475	-2.989500	3.459600	-10.341000	25.614480	0.000710	20.873742
1593.481340	-3.000000	3.457900	-10.372000	25.611027	0.000712	20.901092
1594.478068	-3.008600	3.457800	-10.402000	25.622484	0.000713	20.860444
1595.480228	-2.969800	3.459100	-10.271000	25.616668	0.000711	20.879258
1596.478497	-3.003300	3.457600	-10.383000	25.634490	0.000711	20.866812
1597.485096	-3.008200	3.456100	-10.396000	25.605043	0.000710	20.887497
1598.485914	-2.998800	3.458300	-10.369000	25.648504	0.000710	20.867611
1599.478198	-3.007100	3.456600	-10.394000	25.622739	0.000710	20.869708
1600.488687	-2.995800	3.456300	-10.353000	25.610914	0.000710	20.863523
1601.486717	-3.001500	3.456100	-10.373000	25.605150	0.000711	20.868165
1602.484406	-3.009400	3.454900	-10.396000	25.614098	0.000708	20.856289
1603.458471	-3.005600	3.453600	-10.379000	25.649404	0.000708	20.877049
1604.463647	-2.973300	3.456000	-10.274000	25.640140	0.000708	20.861582
1605.459069	-2.995100	3.454600	-10.345000	25.631022	0.000707	20.858114
1606.462429	-3.017700	3.450900	-10.413000	25.678802	0.000707	20.859635
1607.473773	-2.996000	3.452700	-10.343000	25.658431	0.000708	20.853400
1608.463538	-3.000200	3.452400	-10.357000	25.678311	0.000708	20.866728
1609.461053	-2.998100	3.452700	-10.351000	25.701467	0.000705	20.860589
1610.467527	-2.987600	3.452600	-10.312000	25.670186	0.000708	20.864732
1611.473372	-2.993600	3.453000	-10.336000	25.648371	0.000706	20.842823
1612.480318	-3.001900	3.450600	-10.358000	25.640472	0.000707	20.853380
1613.490466	-2.995300	3.452800	-10.340000	25.615154	0.000705	20.840281
1614.477314	-3.003900	3.449600	-10.361000	25.602478	0.000701	20.846991
1615.483323	-2.980700	3.451500	-10.287000	25.583247	0.000704	20.844272
1616.486132	-3.016800	3.449100	-10.404000	25.579619	0.000703	20.843947
1617.482127	-3.005600	3.449300	-10.366000	25.593263	0.000702	20.861443
1618.488634	-3.007800	3.450000	-10.376000	25.561480	0.000701	20.831895
1619.492524	-3.001300	3.450700	-10.355000	25.574848	0.000701	20.862863
1620.498025	-3.009600	3.448700	-10.378000	25.572787	0.000702	20.838034
1621.475474	-2.985000	3.449400	-10.295000	25.591721	0.000702	20.852782
1622.495732	-3.006900	3.448600	-10.368000	25.562649	0.000699	20.835914
1623.501604	-2.981300	3.448200	-10.279000	25.600296	0.000703	20.855230
1624.475284	-2.995000	3.447500	-10.324000	25.614308	0.000700	20.839906
1625.483550	-2.993800	3.447500	-10.320000	25.630036	0.000700	20.835788
1626.470833	-2.996000	3.447300	-10.327000	25.661148	0.000699	20.845697
1627.470970	-2.991600	3.447300	-10.312000	25.647281	0.000698	20.852159
1628.468305	-2.985700	3.446900	-10.290000	25.667183	0.000697	20.847492
1629.471589	-2.984500	3.447300	-10.287000	25.630906	0.000698	20.847567
1630.492617	-3.002000	3.443900	-10.338000	25.618708	0.000696	20.837213
1631.479055	-2.972300	3.447900	-10.247000	25.592569	0.000696	20.846047
1632.477566	-2.979200	3.445900	-10.265000	25.567395	0.000697	20.822663
1633.497585	-3.009800	3.443900	-10.364000	25.595402	0.000695	20.837987
1634.495109	-3.010500	3.444300	-10.368000	25.591078	0.000695	20.821318
1635.503467	-2.980600	3.444700	-10.266000	25.571005	0.000693	20.828184
1636.491447	-2.982100	3.445100	-10.272000	25.554774	0.000694	20.829428
1637.486451	-3.017100	3.444200	-10.391000	25.532314	0.000694	20.836744
1638.479746	-2.995500	3.442000	-10.310000	25.520038	0.000692	20.830106
1639.477142	-2.989400	3.443400	-10.293000	25.502368	0.000693	20.836543
1640.473543	-3.001300	3.442200	-10.331000	25.515737	0.000694	20.830054
1641.495362	-2.986700	3.443500	-10.283000	25.537903	0.000692	20.838089
1642.499739	-3.015200	3.440700	-10.374000	25.563599	0.000693	20.829282
1643.475773	-3.005600	3.440600	-10.340000	25.526448	0.000692	20.829905
1644.485288	-3.010800	3.441100	-10.359000	25.519887	0.000693	20.814308
1645.477721	-2.984800	3.441400	-10.270000	25.482960	0.000691	20.819424
1646.478953	-2.993300	3.439100	-10.293000	25.475304	0.000691	20.821219
1647.498376	-3.011000	3.439500	-10.355000	25.489568	0.000691	20.845025
1648.478785	-2.997100	3.440000	-10.308000	25.466083	0.000691	20.838511
1649.484033	-2.974600	3.440700	-10.233000	25.502860	0.000689	20.818545
1650.479928	-3.000500	3.439200	-10.318000	25.515605	0.000689	20.825654
1651.478623	-2.971600	3.438600	-10.217000	25.566723	0.000688	20.832419
1652.480509	-2.996000	3.438000	-10.299000	25.560437	0.000688	20.810934
1653.487333	-2.998000	3.438700	-10.308000	25.578175	0.000687	20.845342
1654.480165	-2.995300	3.437100	-10.295000	25.567020	0.000686	20.800001
1655.492741	-2.992000	3.437500	-10.284000	25.543484	0.000687	20.827099
1656.480701	-2.994800	3.437300	-10.294000	25.519430	0.000685	20.811003
1657.486177	-2.983700	3.436500	-10.252000	25.483620	0.000687	20.829095
1658.484833	-3.005500	3.436300	-10.325000	25.452802	0.000686	20.820908
1659.485987	-2.996600	3.436100	-10.295000	25.425339	0.000685	20.827469
1660.481688	-3.011900	3.435100	-10.345000	25.405207	0.000684	20.807728
1661.481464	-2.993900	3.434000	-10.280000	25.431798	0.000687	20.807877
1662.484703	-3.028400	3.434400	-10.398000	25.468975	0.000684	20.796845
1663.488363	-2.995800	3.433600	-10.285000	25.480134	0.000683	20.798094
1664.487015	-3.014200	3.433400	-10.347000	25.535173	0.000684	20.823020
1665.487615	-2.998700	3.434300	-10.297000	25.551275	0.000683	20.826863
1666.482237	-2.989200	3.433000	-10.261000	25.554627	0.000682	20.805573
1667.482304	-3.010300	3.432000	-10.330000	25.567372	0.000683	20.806993
1668.482909	-2.992600	3.432100	-10.270000	25.605815	0.000682	20.813358
1669.484400	-3.002800	3.432600	-10.307000	25.615029	0.000682	20.799854
1670.481889	-2.984700	3.431200	-10.241000	25.607871	0.000681	20.825855
1671.486822	-2.988900	3.431300	-10.254000	25.536382	0.000681	20.810483
1672.485966	-2.989100	3.431200	-10.255000	25.545674	0.000681	20.816970
1673.498332	-2.991200	3.430400	-10.259000	25.519028	0.000681	20.801117
1674.502722	-2.973500	3.429300	-10.196000	25.518259	0.000680	20.799871
1675.483931	-3.015200	3.428700	-10.336000	25.541716	0.000677	20.820108
1676.485548	-3.000600	3.428900	-10.288000	25.538211	0.000679	20.806156
1677.505796	-2.993700	3.428100	-10.260000	25.542134	0.000676	20.815786
1678.500210	-2.999900	3.427400	-10.281000	25.535074	0.000675	20.806799
1679.505768	-2.977000	3.429600	-10.209000	25.479186	0.000674	20.807574
1680.504997	-2.985000	3.429000	-10.233000	25.487485	0.000674	20.820649
1681.486615	-3.011000	3.428400	-10.322000	25.498419	0.000675	20.808870
1682.481993	-3.029200	3.425300	-10.374000	25.484528	0.000675	20.792550
1683.482207	-3.020500	3.428100	-10.353000	25.487655	0.000673	20.820820
1684.489066	-2.991600	3.425800	-10.248000	25.495185	0.000675	20.789501
1685.486173	-3.038600	3.424500	-10.404000	25.488251	0.000673	20.812884
1686.490451	-2.981200	3.425700	-10.211000	25.524956	0.000673	20.806121
1687.488875	-3.006800	3.425800	-10.299000	25.535813	0.000671	20.812283
1688.493464	-2.990400	3.426300	-10.246000	25.523685	0.000670	20.794414
1689.484165	-3.007300	3.425200	-10.300000	25.543394	0.000671	20.782913
1690.493697	-2.992500	3.425600	-10.250000	25.527687	0.000670	20.802226
1691.489695	-3.006200	3.424200	-10.293000	25.540411	0.000669	20.810736
1692.489900	-3.005700	3.423000	-10.287000	25.556584	0.000670	20.808013
1693.493320	-2.976700	3.424000	-10.191000	25.554575	0.000667	20.809314
1694.491700	-2.989500	3.423600	-10.234000	25.565780	0.000668	20.791169
1695.488526	-2.986300	3.423900	-10.223000	25.547367	0.000668	20.808713
1696.492592	-2.978600	3.423400	-10.196000	25.538819	0.000671	20.805819
1697.496487	-2.990400	3.422500	-10.234000	25.581785	0.000668	20.802502
1698.490516	-2.987500	3.421600	-10.221000	25.577410	0.000665	20.799056
1699.493329	-2.999800	3.420800	-10.261000	25.574852	0.000666	20.807392
1700.486256	-2.970900	3.423100	-10.169000	25.584198	0.000668	20.807296
1701.496777	-2.987500	3.421600	-10.220000	25.582554	0.000667	20.808964
1702.495394	-3.022900	3.420800	-10.340000	25.627954	0.000664	20.786281
1703.498714	-3.001800	3.421000	-10.268000	25.646838	0.000663	20.797661
1704.503615	-3.016600	3.419600	-10.314000	25.645646	0.000664	20.789826
1705.497046	-3.014000	3.419600	-10.306000	25.674570	0.000664	20.800859
1706.487603	-3.004000	3.420100	-10.273000	25.660059	0.000661	20.782491
1707.487874	-3.011900	3.420400	-10.302000	25.663910	0.000663	20.810540
1708.497162	-3.016000	3.418900	-10.311000	25.673727	0.000662	20.811866
1709.496677	-2.992900	3.419600	-10.233000	25.667961	0.000663	20.777625
1710.497389	-3.020900	3.417400	-10.321000	25.696409	0.000660	20.789129
1711.494536	-2.994200	3.417300	-10.232000	25.733208	0.000659	20.810918
1712.507241	-2.999500	3.417200	-10.249000	25.713283	0.000659	20.791852
1713.495778	-3.011800	3.415600	-10.286000	25.750526	0.000660	20.786113
1714.494790	-3.000100	3.416200	-10.248000	25.742101	0.000657	20.772434
1715.504612	-3.001500	3.415300	-10.250000	25.756959	0.000660	20.784514
1716.493563	-2.990600	3.417100	-10.218000	25.776488	0.000658	20.781845
1717.498775	-2.996000	3.415600	-10.232000	25.767393	0.000657	20.797840
1718.492282	-3.008000	3.415500	-10.272000	25.781033	0.000658	20.774557
1719.499375	-3.006400	3.414600	-10.265000	25.740536	0.000657	20.768966
1720.502071	-3.006800	3.415300	-10.268000	25.730573	0.000659	20.784564
1721.496924	-3.006600	3.413700	-10.262000	25.682721	0.000656	20.784864
1722.503255	-2.983600	3.414400	-10.186000	25.673851	0.000657	20.793024
1723.492620	-2.991100	3.413900	-10.210000	25.650246	0.000656	20.796343
1724.496461	-2.998200	3.414400	-10.236000	25.649003	0.000656	20.776128
1725.492988	-3.007500	3.412400	-10.262000	25.635460	0.000655	20.788131
1726.504864	-2.977700	3.413000	-10.162000	25.658470	0.000654	20.779472
1727.493841	-2.991300	3.413600	-10.210000	25.651910	0.000653	20.781418
1728.505528	-3.030200	3.411500	-10.336000	25.693379	0.000653	20.788930
1729.506773	-2.974400	3.412200	-10.148000	25.724558	0.000652	20.782789
1730.503150	-3.003300	3.411900	-10.246000	25.744384	0.000652	20.776624
1731.506174	-3.001000	3.410600	-10.234000	25.730148	0.000651	20.782714
1732.506403	-2.991500	3.410200	-10.201000	25.728609	0.000650	20.761727
1733.505394	-2.992200	3.409700	-10.201000	25.737004	0.000653	20.771108
1734.499850	-3.019800	3.409500	-10.294000	25.740133	0.000654	20.780415
1735.504950	-3.002100	3.410600	-10.238000	25.767534	0.000649	20.788024
1736.501163	-3.006200	3.409000	-10.246000	25.763088	0.000650	20.773127
1737.526213	-2.999000	3.409800	-10.225000	25.753647	0.000649	20.780713
1738.525678	-3.010300	3.408500	-10.260000	25.738635	0.000651	20.775118
1739.529881	-3.005600	3.408400	-10.243000	25.739631	0.000649	20.752410
1740.524983	-3.004100	3.407100	-10.234000	25.723878	0.000650	20.756975
1741.531530	-3.019400	3.406300	-10.283000	25.721120	0.000647	20.774120
1742.525218	-3.009800	3.407700	-10.255000	25.705912	0.000648	20.754577
1743.534392	-2.979500	3.407300	-10.151000	25.718683	0.000646	20.769301
1744.530849	-3.006900	3.406400	-10.242000	25.702183	0.000648	20.765530
1745.525210	-2.996100	3.406300	-10.205000	25.712069	0.000647	20.761235
1746.523693	-2.994900	3.405900	-10.200000	25.750009	0.000645	20.772791
1747.526022	-2.996300	3.405300	-10.202000	25.737560	0.000646	20.783047
1748.509084	-2.981500	3.406300	-10.154000	25.774553	0.000643	20.763306
1749.507064	-3.002500	3.405500	-10.224000	25.763743	0.000643	20.769991
1750.518722	-3.014000	3.403000	-10.255000	25.798896	0.000644	20.762154
1751.506304	-3.000500	3.403900	-10.213000	25.806896	0.000643	20.777302
1752.506372	-2.962800	3.405500	-10.089000	25.773552	0.000643	20.775103
1753.504905	-3.004800	3.403900	-10.227000	25.789302	0.000642	20.762948
1754.503016	-2.980400	3.404900	-10.147000	25.815662	0.000642	20.761451
1755.511034	-3.015800	3.402100	-10.259000	25.806941	0.000642	20.770709
1756.506487	-3.003400	3.402500	-10.218000	25.816727	0.000640	20.761099
1757.503105	-2.982100	3.402700	-10.146000	25.851159	0.000640	20.751116
1758.509257	-2.996200	3.401800	-10.190000	25.836107	0.000640	20.761126
1759.506455	-2.986600	3.401800	-10.159000	25.799709	0.000640	20.758229
1760.512672	-2.995600	3.401200	-10.187000	25.824032	0.000640	20.762273
1761.512928	-2.990500	3.401000	-10.169000	25.772504	0.000636	20.756506
1762.514295	-2.997000	3.400400	-10.189000	25.745872	0.000636	20.748246
1763.508756	-3.012600	3.399500	-10.240000	25.735959	0.000636	20.747772
1764.510359	-3.042600	3.399200	-10.340000	25.729872	0.000638	20.772479
1765.511255	-3.009100	3.398500	-10.224000	25.719165	0.000635	20.776423
1766.510118	-3.015700	3.398300	-10.247000	25.749673	0.000635	20.779566
1767.516460	-2.964800	3.400200	-10.080000	25.741725	0.000634	20.775376
1768.535050	-2.996300	3.399000	-10.184000	25.729503	0.000634	20.768315
1769.535162	-3.000900	3.397400	-10.194000	25.732981	0.000634	20.757583
1770.546044	-3.003000	3.396700	-10.199000	25.775018	0.000634	20.770885
1771.535892	-2.997300	3.397800	-10.183000	25.764062	0.000632	20.757509
1772.539741	-2.973600	3.396900	-10.100000	25.804113	0.000634	20.752221
1773.536937	-2.989600	3.397800	-10.157000	25.829306	0.000633	20.747656
1774.538938	-2.996600	3.396100	-10.175000	25.839965	0.000631	20.753147
1775.534671	-2.977100	3.396900	-10.112000	25.838375	0.000632	20.754870
1776.534907	-2.983900	3.396800	-10.135000	25.823096	0.000629	20.755168
1777.535156	-3.020000	3.394800	-10.252000	25.829308	0.000631	20.764254
1778.517473	-3.012600	3.395100	-10.226000	25.782007	0.000630	20.743765
1779.550379	-2.992100	3.393700	-10.153000	25.740492	0.000628	20.745687
1780.540107	-2.994400	3.395800	-10.167000	25.742827	0.000627	20.738549
1781.541217	-2.994100	3.393900	-10.161000	25.729585	0.000629	20.745163
1782.518669	-3.013800	3.392600	-10.223000	25.708591	0.000628	20.743991
1783.552728	-2.987300	3.393000	-10.135000	25.682182	0.000627	20.756821
1784.543598	-2.987200	3.393900	-10.137000	25.653210	0.000626	20.727246
1785.537882	-2.995900	3.393100	-10.164000	25.660889	0.000626	20.734011
1786.513138	-3.011800	3.392200	-10.216000	25.685116	0.000627	20.750759
1787.516236	-2.997200	3.392900	-10.168000	25.674434	0.000626	20.736710
1788.516833	-3.002700	3.393700	-10.189000	25.679380	0.000627	20.741203
1789.517695	-3.003300	3.391000	-10.182000	25.687284	0.000627	20.728753
1790.519240	-3.010100	3.392200	-10.210000	25.695482	0.000626	20.749316
1791.518316	-2.992500	3.391200	-10.148000	25.675610	0.000626	20.739788
1792.516523	-3.018500	3.390300	-10.233000	25.666292	0.000624	20.755086
1793.518143	-3.002600	3.390400	-10.178000	25.647285	0.000625	20.754013
1794.520430	-2.980500	3.391500	-10.107000	25.668057	0.000624	20.757807
1795.522429	-2.978700	3.390800	-10.099000	25.686547	0.000625	20.730384
1796.520369	-2.990400	3.388700	-10.133000	25.677902	0.000624	20.719329
1797.525941	-3.006900	3.389400	-10.191000	25.705878	0.000622	20.753120
1798.555313	-2.995500	3.389200	-10.151000	25.716815	0.000622	20.728068
1799.547244	-3.017900	3.388600	-10.225000	25.692914	0.000623	20.734409
1800.544825	-2.985400	3.387900	-10.112000	25.675349	0.000623	20.730042
1801.552516	-3.018500	3.388400	-10.227000	25.646749	0.000621	20.734982
1802.540462	-3.001900	3.386800	-10.166000	25.646477	0.000621	20.746089
1803.525308	-2.994300	3.387600	-10.142000	25.651000	0.000620	20.758219
1804.522664	-2.966800	3.387200	-10.048000	25.641484	0.000620	20.770947
1805.548026	-3.009400	3.388000	-10.195000	25.631622	0.000621	20.725953
1806.524944	-2.995000	3.386600	-10.142000	25.626923	0.000619	20.750632
1807.524049	-2.978400	3.386000	-10.084000	25.629437	0.000618	20.750312
1808.524665	-3.009200	3.385700	-10.187000	25.664320	0.000617	20.741251
1809.524242	-3.008000	3.385700	-10.183000	25.643153	0.000619	20.727102
1810.528981	-2.984100	3.385200	-10.100000	25.638854	0.000620	20.741278
1811.531456	-3.001600	3.384600	-10.157000	25.617956	0.000616	20.730245
1812.543868	-2.993000	3.384900	-10.130000	25.588215	0.000616	20.724558
1813.532121	-2.979000	3.384900	-10.083000	25.583768	0.000616	20.727678
1814.533688	-3.009700	3.383700	-10.183000	25.587894	0.000616	20.738935
1815.528386	-2.985600	3.382900	-10.099000	25.606331	0.000616	20.745124
1816.533852	-2.967000	3.385000	-10.041000	25.600268	0.000613	20.733818
1817.534198	-3.001100	3.382700	-10.151000	25.561180	0.000615	20.744823
1818.529465	-2.968900	3.382700	-10.041000	25.564809	0.000615	20.732820
1819.532206	-3.009200	3.381600	-10.174000	25.563019	0.000612	20.764689
1820.556025	-3.006200	3.381700	-10.165000	25.563044	0.000612	20.732470
1821.534137	-3.002600	3.381700	-10.152000	25.587548	0.000613	20.715352
1822.527781	-3.023200	3.379600	-10.216000	25.529525	0.000613	20.741956
1823.526659	-3.016000	3.379900	-10.193000	25.563963	0.000611	20.752835
1824.533056	-3.021500	3.380600	-10.214000	25.625537	0.000610	20.758723
1825.530435	-3.002900	3.380200	-10.150000	25.663057	0.000611	20.741405
1826.534634	-2.981400	3.380200	-10.077000	25.682462	0.000612	20.731022
1827.528835	-3.006400	3.380200	-10.162000	25.677788	0.000611	20.752407
1828.535466	-2.990100	3.379400	-10.104000	25.684993	0.000612	20.738781
1829.530581	-3.001300	3.379000	-10.141000	25.696496	0.000609	20.745593
1830.536354	-3.010100	3.378300	-10.167000	25.713562	0.000610	20.737130
1831.532547	-3.018800	3.379100	-10.199000	25.685386	0.000609	20.732537
1832.535260	-3.002300	3.377900	-10.140000	25.676288	0.000609	20.746159
1833.567015	-3.001400	3.377200	-10.135000	25.715692	0.000608	20.752546
1834.533785	-2.989000	3.377200	-10.094000	25.705304	0.000610	20.765346
1835.549763	-2.987600	3.378100	-10.091000	25.706844	0.000608	20.752668
1836.551255	-3.000200	3.376600	-10.129000	25.693923	0.000605	20.735421
1837.540131	-3.004400	3.376700	-10.143000	25.666391	0.000608	20.748547
1838.537378	-2.979800	3.377900	-10.065000	25.608024	0.000608	20.739237
1839.538497	-2.991800	3.376300	-10.101000	25.622456	0.000607	20.732395
1840.562844	-3.003100	3.375300	-10.135000	25.682215	0.000606	20.759698
1841.551560	-2.996900	3.375600	-10.115000	25.712746	0.000605	20.754329
1842.535480	-3.011400	3.374900	-10.161000	25.719899	0.000605	20.764358
1843.539034	-3.002900	3.373600	-10.128000	25.746604	0.000602	20.773164
1844.552169	-2.994200	3.374800	-10.104000	25.766578	0.000603	20.746285
1845.538942	-2.971400	3.373000	-10.022000	25.764541	0.000603	20.740446
1846.537729	-3.000700	3.373600	-10.122000	25.777333	0.000601	20.763728
1847.534758	-2.995200	3.372600	-10.100000	25.766474	0.000601	20.755190
1848.540757	-2.997100	3.373100	-10.109000	25.785328	0.000600	20.755637
1849.556982	-2.988500	3.372900	-10.078000	25.775169	0.000602	20.770562
1850.557092	-2.974500	3.373700	-10.033000	25.752135	0.000600	20.760701
1851.560489	-2.998300	3.371600	-10.108000	25.753326	0.000599	20.767114
1852.559813	-2.986900	3.373300	-10.075000	25.769549	0.000598	20.754959
1853.556113	-3.011300	3.370600	-10.149000	25.788727	0.000598	20.763318
1854.552832	-3.014900	3.370600	-10.161000	25.814065	0.000598	20.759373
1855.567643	-2.987400	3.371700	-10.070000	25.793719	0.000597	20.761220
1856.564923	-3.017200	3.371100	-10.169000	25.771533	0.000596	20.753159
1857.553338	-3.004700	3.369100	-10.122000	25.769793	0.000596	20.764214
1858.561810	-3.005900	3.370700	-10.131000	25.806387	0.000594	20.760195
1859.563324	-3.004200	3.370200	-10.124000	25.795456	0.000594	20.759646
1860.560598	-2.986300	3.369800	-10.062000	25.793121	0.000595	20.771525
1861.568248	-2.996300	3.369200	-10.095000	25.801518	0.000595	20.759572
1862.565677	-2.991800	3.368600	-10.077000	25.822436	0.000595	20.761618
1863.564302	-3.029400	3.366700	-10.199000	25.859253	0.000592	20.770153
1864.568124	-3.006800	3.367900	-10.125000	25.866481	0.000592	20.770776
1865.565102	-2.975000	3.368600	-10.020000	25.824198	0.000594	20.790415
1866.559038	-3.002800	3.368400	-10.114000	25.813193	0.000593	20.758971
1867.561218	-3.012700	3.366800	-10.143000	25.796250	0.000593	20.768504
1868.563414	-3.024200	3.365300	-10.176000	25.786236	0.000592	20.763187
1869.566469	-3.015200	3.366100	-10.148000	25.759057	0.000593	20.766707
1870.577453	-3.006100	3.366800	-10.119000	25.704249	0.000591	20.769976
1871.564831	-3.028100	3.365300	-10.190000	25.698955	0.000590	20.783151
1872.570352	-3.008700	3.363700	-10.119000	25.696370	0.000591	20.763485
1873.568493	-3.028500	3.363500	-10.186000	25.734009	0.000590	20.768574
1874.560764	-3.021200	3.364600	-10.164000	25.748198	0.000588	20.775714
1875.566602	-2.987700	3.364500	-10.051000	25.767821	0.000590	20.775036
1876.547574	-3.005400	3.364800	-10.110000	25.766059	0.000589	20.763308
1877.555232	-3.017900	3.363300	-10.148000	25.743324	0.000587	20.761809
1878.549524	-3.018700	3.363000	-10.151000	25.730129	0.000588	20.769892
1879.554033	-2.993700	3.363800	-10.068000	25.689603	0.000587	20.776602
1880.548837	-2.999000	3.363500	-10.085000	25.710747	0.000586	20.784090
1881.545768	-3.023700	3.361100	-10.162000	25.715344	0.000588	20.784440
1882.549709	-2.966600	3.364500	-9.978500	25.768835	0.000586	20.787434
1883.547313	-2.996700	3.361600	-10.073000	25.795464	0.000585	20.789527
1884.549526	-2.990400	3.360700	-10.049000	25.832954	0.000584	20.792572
1885.555731	-2.999200	3.362600	-10.084000	25.850490	0.000584	20.768937
1886.555479	-2.996300	3.362500	-10.074000	25.841025	0.000584	20.761799
1887.556993	-3.006100	3.360900	-10.102000	25.887454	0.000583	20.787578
1888.551975	-3.005400	3.360300	-10.098000	25.882435	0.000581	20.794390
1889.555264	-2.992400	3.361100	-10.056000	25.909339	0.000584	20.792019
1890.554864	-2.994800	3.361000	-10.064000	25.874140	0.000583	20.801703
1891.558950	-2.983900	3.360400	-10.026000	25.884296	0.000581	20.787724
1892.549009	-3.017800	3.359500	-10.137000	25.869842	0.000582	20.797386
1893.555354	-2.988300	3.358800	-10.037000	25.902681	0.000581	20.774900
1894.552156	-2.981600	3.359900	-10.016000	25.894159	0.000579	20.789571
1895.558906	-3.000100	3.358900	-10.076000	25.887106	0.000579	20.766839
1896.554632	-2.997200	3.359400	-10.068000	25.912766	0.000579	20.774599
1897.556104	-2.998200	3.358800	-10.070000	25.913762	0.000579	20.794566
1898.554670	-3.002100	3.356700	-10.077000	25.927795	0.000578	20.784482
1899.557716	-2.976800	3.358200	-9.995800	25.919697	0.000577	20.801477
1900.556117	-3.004200	3.357000	-10.084000	25.906480	0.000576	20.778715
1901.551346	-2.982500	3.358100	-10.014000	25.902185	0.000576	20.800953
1902.558701	-2.990800	3.357300	-10.040000	25.905415	0.000573	20.796137
1903.557413	-2.999400	3.356700	-10.067000	25.927872	0.000574	20.809215
1904.556490	-3.006200	3.354800	-10.084000	25.969605	0.000576	20.789028
1905.559500	-2.988200	3.355500	-10.026000	25.979960	0.000574	20.794690
1906.561346	-3.004300	3.355900	-10.081000	25.992110	0.000573	20.790775
1907.579942	-3.032900	3.354900	-10.174000	26.008704	0.000573	20.800809
1908.583453	-2.998300	3.354200	-10.056000	26.041342	0.000572	20.802306
1909.579300	-3.003800	3.354000	-10.074000	26.016379	0.000572	20.790028
1910.573163	-3.016600	3.354400	-10.118000	26.034139	0.000571	20.790802
1911.579358	-3.010200	3.354100	-10.095000	26.075120	0.000569	20.794045
1912.574289	-3.031900	3.352500	-10.164000	26.024256	0.000570	20.787985
1913.592163	-2.976900	3.352400	-9.978000	26.070356	0.000569	20.784991
1914.575929	-3.002700	3.352300	-10.065000	26.057540	0.000568	20.805305
1915.576885	-2.959000	3.353400	-9.921000	26.042367	0.000569	20.774887
1916.563381	-2.996000	3.350900	-10.039000	26.033475	0.000569	20.790135
1917.556640	-3.000500	3.352000	-10.057000	26.029526	0.000569	20.801815
1918.558888	-3.016500	3.350000	-10.104000	26.014128	0.000569	20.793930
1919.558865	-2.998900	3.352300	-10.053000	25.984497	0.000569	20.780281
1920.566644	-3.016700	3.350600	-10.105000	25.964625	0.000568	20.816741
1921.560893	-2.977400	3.351700	-9.978200	25.933500	0.000568	20.793059
1922.561879	-3.007700	3.351100	-10.079000	25.916537	0.000566	20.792612
1923.558856	-2.985200	3.351800	-10.005000	25.875921	0.000565	20.800648
1924.590158	-2.993400	3.349800	-10.026000	25.855625	0.000567	20.803967
1925.592844	-3.001600	3.349200	-10.052000	25.868542	0.000565	20.810779
1926.598341	-3.017600	3.348700	-10.104000	25.887449	0.000565	20.788047
1927.574544	-2.997100	3.348200	-10.033000	25.893983	0.000564	20.808361
1928.579683	-3.000800	3.348700	-10.048000	25.845817	0.000565	20.778941
1929.583163	-2.988200	3.348000	-10.004000	25.841171	0.000564	20.804620
1930.581725	-3.000900	3.347900	-10.046000	25.847880	0.000563	20.806618
1931.565251	-3.008500	3.347600	-10.071000	25.867828	0.000564	20.789673
1932.594812	-2.985200	3.347500	-9.990700	25.878610	0.000565	20.818995
1933.586937	-3.012500	3.347400	-10.083000	25.925635	0.000562	20.803649
1934.602040	-2.999400	3.345400	-10.032000	25.948215	0.000560	20.813057
1935.586013	-2.991400	3.347100	-10.011000	25.989975	0.000562	20.796690
1936.591404	-2.981500	3.346600	-9.977500	26.011684	0.000560	20.824665
1937.566908	-3.004500	3.345300	-10.050000	26.010663	0.000559	20.807993
1938.567185	-3.007100	3.344300	-10.055000	25.997476	0.000560	20.808969
1939.566069	-3.024300	3.344600	-10.114000	26.019835	0.000559	20.805354
1940.573175	-3.013300	3.344300	-10.077000	26.024429	0.000557	20.813762
1941.564298	-3.009600	3.343600	-10.062000	26.023490	0.000557	20.815664
1942.567477	-2.999800	3.343800	-10.029000	26.035658	0.000557	20.806079
1943.568033	-3.015600	3.344200	-10.084000	26.056327	0.000556	20.823052
1944.568289	-2.977400	3.343000	-9.952600	26.086428	0.000554	20.801139
1945.572269	-2.977800	3.344100	-9.956800	26.066262	0.000556	20.818335
1946.569772	-2.977600	3.343000	-9.952600	26.052801	0.000554	20.819035
1947.567968	-2.993600	3.342500	-10.005000	26.047812	0.000554	20.806437
1948.565935	-3.004500	3.342400	-10.041000	26.073323	0.000556	20.841076
1949.566864	-3.012600	3.342100	-10.067000	26.041282	0.000553	20.817419
1950.569354	-3.019100	3.341000	-10.086000	26.042451	0.000551	20.838981
1951.575565	-3.024000	3.340700	-10.100000	26.021587	0.000553	20.816123
1952.574081	-3.026000	3.338900	-10.103000	26.050377	0.000551	20.818496
1953.577553	-3.008700	3.341300	-10.052000	26.038332	0.000553	20.815877
1954.569086	-3.008900	3.340400	-10.050000	26.027853	0.000552	20.801082
1955.575469	-2.999600	3.340000	-10.017000	26.044393	0.000550	20.821019
1956.572745	-2.984900	3.339300	-9.966900	26.064838	0.000552	20.827336
1957.572454	-3.000000	3.338900	-10.015000	26.073657	0.000550	20.812963
1958.578988	-3.015800	3.338500	-10.067000	26.052766	0.000551	20.807621
1959.577166	-3.014400	3.338300	-10.062000	26.042883	0.000550	20.819028
1960.572411	-3.007500	3.337400	-10.037000	26.064169	0.000552	20.836146
1961.583365	-3.009000	3.337900	-10.042000	26.093677	0.000548	20.839716
1962.574055	-2.982400	3.337900	-9.954000	26.123455	0.000547	20.811791
1963.580728	-3.015800	3.335900	-10.059000	26.152169	0.000547	20.810771
1964.583002	-3.015900	3.337500	-10.063000	26.184925	0.000547	20.821875
1965.579179	-2.968400	3.338400	-9.908200	26.197193	0.000547	20.827565
1966.577407	-3.008800	3.335800	-10.036000	26.211425	0.000546	20.838547
1967.578140	-2.978300	3.335700	-9.934200	26.237251	0.000545	20.837946
1968.581780	-3.000600	3.336500	-10.010000	26.274303	0.000544	20.822076
1969.581418	-3.000100	3.335700	-10.007000	26.268690	0.000543	20.831609
1970.578978	-3.018100	3.335300	-10.064000	26.260370	0.000545	20.830360
1971.578129	-2.989900	3.335000	-9.970700	26.257268	0.000544	20.834354
1972.578017	-3.021100	3.333000	-10.068000	26.257666	0.000542	20.830487
1973.577563	-2.992700	3.336100	-9.983200	26.275916	0.000542	20.823223
1974.580081	-3.004300	3.332900	-10.011000	26.249595	0.000543	20.821428
1975.578644	-3.008300	3.332600	-10.024000	26.210679	0.000539	20.845858
1976.579473	-2.996100	3.332400	-9.983400	26.199231	0.000541	20.815863
1977.578213	-3.012800	3.333300	-10.041000	26.211201	0.000541	20.855864
1978.580229	-2.992800	3.332700	-9.972500	26.189770	0.000540	20.829114
1979.576061	-2.989600	3.332300	-9.961500	26.207525	0.000540	20.841265
1980.579574	-2.996200	3.332900	-9.984900	26.207922	0.000538	20.850673
1981.578285	-2.996000	3.332500	-9.982900	26.179658	0.000539	20.836971
1982.581475	-3.011600	3.330200	-10.028000	26.186217	0.000538	20.829337
1983.593902	-3.002800	3.330800	-10.000000	26.172256	0.000535	20.826688
1984.585151	-3.009400	3.329600	-10.019000	26.181968	0.000538	20.845930
1985.580409	-3.003400	3.331100	-10.004000	26.184179	0.000537	20.836772
1986.579424	-3.016800	3.330000	-10.046000	26.219812	0.000537	20.855983
1987.581767	-3.016100	3.329900	-10.043000	26.254009	0.000534	20.847675
1988.587236	-2.995300	3.329200	-9.970600	26.279488	0.000534	20.847200
1989.581098	-3.023200	3.328300	-10.061000	26.298832	0.000532	20.841511
1990.581766	-3.018900	3.328300	-10.047000	26.273955	0.000534	20.853019
1991.584121	-3.004800	3.328900	-10.002000	26.290364	0.000532	20.830156
1992.581606	-3.003600	3.327700	-9.994600	26.304321	0.000534	20.832329
1993.584490	-2.996600	3.327200	-9.968900	26.303331	0.000532	20.857885
1994.583270	-3.003900	3.326500	-9.990500	26.339906	0.000532	20.852443
1995.582920	-2.992900	3.327100	-9.957000	26.364985	0.000530	20.826440
1996.586705	-2.996500	3.326300	-9.966600	26.335709	0.000530	20.862450
1997.586320	-3.005600	3.326400	-9.997300	26.269160	0.000530	20.846779
1998.582314	-3.024100	3.325500	-10.056000	26.209807	0.000529	20.875800
1999.582943	-3.001500	3.326100	-9.982400	26.189048	0.000530	20.873906
2000.585214	-3.004400	3.325500	-9.990200	26.145957	0.000528	20.864272
2001.581273	-3.000800	3.325300	-9.976000	26.152591	0.000527	20.853868
2002.586788	-2.986700	3.326500	-9.934200	26.180429	0.000528	20.875675
2003.584505	-2.994100	3.324800	-9.954000	26.189868	0.000527	20.870937
2004.585052	-2.994000	3.324700	-9.953100	26.229575	0.000527	20.854888
2005.586290	-3.008000	3.324000	-9.997300	26.202134	0.000530	20.873779
2006.586355	-3.000700	3.323700	-9.973000	26.211099	0.000527	20.862400
2007.584863	-2.988900	3.323700	-9.933400	26.223493	0.000526	20.871061
2008.585915	-3.010400	3.322400	-10.000000	26.199130	0.000525	20.848002
2009.592147	-2.994700	3.323800	-9.952600	26.202480	0.000525	20.859903
2010.594543	-3.011800	3.322000	-10.004000	26.203597	0.000523	20.860551
2011.586740	-2.994300	3.322800	-9.948800	26.224931	0.000525	20.870135
2012.587379	-3.000300	3.322600	-9.967900	26.186336	0.000523	20.864542
2013.587760	-2.994200	3.321700	-9.944100	26.164605	0.000523	20.884905
2014.592978	-3.006300	3.320800	-9.982000	26.211890	0.000522	20.861772
2015.590806	-3.003400	3.321900	-9.975400	26.225993	0.000522	20.878314
2016.591538	-2.988900	3.321600	-9.926000	26.223659	0.000520	20.875020
2017.592184	-2.998400	3.320800	-9.955800	26.244047	0.000520	20.880335
2018.588873	-2.980300	3.319800	-9.893200	26.265575	0.000518	20.875417
2019.590186	-3.004600	3.319600	-9.973500	26.288596	0.000520	20.887645
2020.592524	-3.008800	3.318800	-9.984500	26.295050	0.000520	20.876115
2021.589055	-3.009600	3.318500	-9.985500	26.334907	0.000520	20.883927
2022.591846	-2.990800	3.318400	-9.923000	26.288344	0.000520	20.869849
2023.597130	-3.005300	3.318900	-9.973100	26.252710	0.000517	20.875291
2024.590970	-2.995900	3.317500	-9.937300	26.231673	0.000518	20.903459
2025.593522	-2.994800	3.317800	-9.935300	26.198542	0.000518	20.866851
2026.594141	-3.008400	3.316600	-9.975700	26.178623	0.000515	20.868645
2027.598322	-3.018800	3.316300	-10.010000	26.199958	0.000517	20.891979
2028.596099	-2.988100	3.316900	-9.910200	26.212495	0.000516	20.874707
2029.596450	-3.002800	3.316400	-9.957200	26.205815	0.000516	20.890279
2030.594476	-3.006300	3.316100	-9.966500	26.190315	0.000513	20.883713
2031.600220	-3.011300	3.313700	-9.976700	26.176456	0.000516	20.887804
2032.595131	-2.997700	3.315500	-9.937600	26.168158	0.000513	20.884207
2033.593082	-3.001100	3.315300	-9.948600	26.183005	0.000513	20.907659
2034.597621	-3.003500	3.313600	-9.950100	26.216581	0.000512	20.885451
2035.601954	-3.020000	3.313400	-10.005000	26.215635	0.000512	20.897775
2036.598104	-3.014900	3.312600	-9.986200	26.248313	0.000510	20.900742
2037.595381	-3.004700	3.313400	-9.954900	26.255040	0.000511	20.885692
2038.598595	-2.987100	3.314000	-9.897500	26.259311	0.000511	20.905155
2039.597731	-2.988500	3.314200	-9.902500	26.246942	0.000510	20.900786
2040.598978	-2.993500	3.313000	-9.916400	26.214012	0.000510	20.905153
2041.599187	-2.997000	3.313100	-9.927800	26.168262	0.000510	20.916551
2042.601571	-2.999100	3.312700	-9.934000	26.161255	0.000507	20.886754
2043.597445	-3.021200	3.311200	-10.003000	26.118984	0.000507	20.905917
2044.605318	-3.007000	3.311300	-9.955900	26.180301	0.000508	20.921536
2045.602997	-2.998700	3.310100	-9.925300	26.210919	0.000507	20.906786
2046.597690	-3.021300	3.311600	-10.004000	26.234138	0.000506	20.911153
2047.605365	-3.021100	3.310000	-9.999100	26.257923	0.000507	20.905183
2048.603242	-3.014600	3.310900	-9.979800	26.258096	0.000505	20.900616
2049.599737	-3.026900	3.309100	-10.016000	26.222955	0.000505	20.902760
2050.598113	-3.010800	3.309800	-9.964500	26.202861	0.000505	20.905801
2051.602935	-3.026500	3.308400	-10.012000	26.213314	0.000504	20.898762
2052.602156	-3.012500	3.307800	-9.963500	26.220737	0.000504	20.916651
2053.602524	-3.021900	3.308100	-9.994900	26.223319	0.000504	20.898859
2054.598672	-3.008300	3.306700	-9.946800	26.244080	0.000503	20.923512
2055.607674	-2.989100	3.308300	-9.888400	26.208615	0.000503	20.905893
2056.602082	-3.010500	3.306100	-9.951500	26.203595	0.000501	20.920288
2057.601309	-2.979900	3.308000	-9.855700	26.172552	0.000501	20.900949
2058.607592	-2.989600	3.306900	-9.885100	26.164626	0.000500	20.904839
2059.603636	-2.991600	3.305800	-9.889000	26.158890	0.000500	20.899549
2060.607178	-3.006900	3.306200	-9.940200	26.207264	0.000499	20.889839
2061.605597	-3.001300	3.305900	-9.920500	26.200214	0.000498	20.894133
2062.601743	-3.014800	3.305500	-9.963500	26.170684	0.000499	20.909503
2063.602874	-2.998100	3.304500	-9.905200	26.155506	0.000496	20.904683
2064.609538	-2.992000	3.305800	-9.889400	26.154068	0.000497	20.916039
2065.604520	-3.001100	3.304000	-9.915100	26.166956	0.000496	20.909550
2066.611618	-3.015400	3.303100	-9.958600	26.207684	0.000495	20.913492
2067.606426	-3.013800	3.303100	-9.952700	26.195115	0.000496	20.877157
2068.613245	-3.011900	3.303300	-9.947300	26.230755	0.000494	20.900167
2069.606504	-2.976500	3.304600	-9.835100	26.215829	0.000495	20.915039
2070.606997	-3.038900	3.301200	-10.032000	26.215254	0.000494	20.888384
2071.613517	-3.010800	3.302700	-9.942100	26.175794	0.000493	20.889035
2072.609313	-2.987900	3.302600	-9.867200	26.214212	0.000491	20.910568
2073.612992	-3.010400	3.303600	-9.943100	26.264004	0.000493	20.902285
2074.609702	-3.006000	3.301400	-9.923000	26.288089	0.000491	20.895670
2075.608232	-2.993100	3.301400	-9.879900	26.340906	0.000490	20.902757
2076.614623	-3.016300	3.299800	-9.950500	26.322457	0.000491	20.882320
2077.613250	-2.987700	3.299300	-9.856200	26.327370	0.000491	20.897688
2078.614583	-3.001300	3.299600	-9.900800	26.321288	0.000492	20.880672
2079.614533	-2.989400	3.301000	-9.866900	26.246517	0.000488	20.875705
2080.614880	-2.988500	3.300300	-9.861800	26.206460	0.000489	20.870065
2081.615821	-2.992000	3.300600	-9.874700	26.224286	0.000487	20.881814
2082.619576	-2.975500	3.297900	-9.812100	26.250314	0.000486	20.872883
2083.617754	-2.982400	3.299300	-9.837700	26.281971	0.000486	20.860601
2084.617998	-3.015500	3.296600	-9.939700	26.309188	0.000487	20.902174
2085.623897	-2.980400	3.297400	-9.826600	26.321279	0.000486	20.885878
2086.618658	-2.993900	3.297500	-9.871500	26.336300	0.000485	20.873474
2087.620035	-2.973200	3.297400	-9.802700	26.338185	0.000484	20.876791
2088.620013	-3.031400	3.296000	-9.989900	26.359813	0.000483	20.872923
2089.617991	-3.003000	3.295900	-9.895500	26.353606	0.000483	20.881383
2090.619470	-3.000500	3.297700	-9.893700	26.361723	0.000481	20.887169
2091.618047	-2.999000	3.297100	-9.887300	26.363437	0.000482	20.880832
2092.618966	-2.998900	3.296200	-9.883500	26.339149	0.000482	20.871596
2093.620210	-2.976100	3.295900	-9.807600	26.349355	0.000482	20.874741
2094.622753	-3.001000	3.294800	-9.886600	26.372895	0.000481	20.881329
2095.618769	-2.981500	3.295000	-9.823000	26.366959	0.000479	20.887691
2096.620213	-2.991200	3.294500	-9.853600	26.380839	0.000479	20.871769
2097.621231	-2.999700	3.294600	-9.881600	26.395962	0.000479	20.880805
2098.621576	-2.999100	3.294100	-9.878700	26.417365	0.000480	20.877186
2099.619941	-2.991000	3.294000	-9.851000	26.442689	0.000477	20.869448
2100.619666	-2.997200	3.293900	-9.871700	26.479163	0.000477	20.894254
2101.621358	-3.017100	3.291900	-9.931600	26.502624	0.000476	20.863310
2102.622813	-3.009800	3.292600	-9.909400	26.506469	0.000476	20.866227
2103.620230	-3.034200	3.291200	-9.984300	26.488867	0.000474	20.887413
2104.626937	-2.992300	3.291100	-9.847300	26.488593	0.000473	20.874810
2105.620249	-3.000100	3.290800	-9.871800	26.486758	0.000475	20.859690
2106.621771	-3.010900	3.291100	-9.907600	26.480473	0.000474	20.870442
2107.627658	-3.007000	3.289000	-9.888700	26.494676	0.000475	20.879028
2108.620958	-2.990400	3.289700	-9.836300	26.501327	0.000473	20.876231
2109.624056	-3.011800	3.288800	-9.904100	26.475405	0.000471	20.860607
2110.628692	-3.030100	3.287900	-9.961500	26.464903	0.000470	20.876129
2111.624527	-3.019200	3.289200	-9.928300	26.456807	0.000472	20.890276
2112.625284	-2.986500	3.287000	-9.815800	26.486825	0.000468	20.868292
2113.624407	-3.012300	3.287800	-9.902500	26.443275	0.000468	20.872408
2114.625021	-2.997300	3.287500	-9.853000	26.475528	0.000469	20.858361
2115.624750	-3.004000	3.287100	-9.873300	26.508273	0.000467	20.868039
2116.624428	-2.987400	3.287500	-9.819500	26.517561	0.000468	20.856514
2117.632270	-2.968800	3.288800	-9.761700	26.563218	0.000468	20.857837
2118.629994	-2.971900	3.289400	-9.774400	26.559244	0.000468	20.860006
2119.627001	-3.026200	3.284900	-9.939300	26.553483	0.000467	20.842836
2120.630069	-3.002200	3.285900	-9.864100	26.529352	0.000465	20.881640
2121.631919	-2.991000	3.285200	-9.825300	26.513215	0.000464	20.844559
2122.627148	-2.986400	3.285700	-9.811900	26.528334	0.000464	20.864971
2123.630310	-2.980000	3.285100	-9.788700	26.530221	0.000463	20.868290
2124.628199	-3.011700	3.284000	-9.889300	26.515571	0.000462	20.862099
2125.628589	-2.995000	3.283400	-9.832200	26.504872	0.000461	20.866518
2126.637806	-2.995100	3.284600	-9.836200	26.496603	0.000462	20.866267
2127.630217	-3.014700	3.283500	-9.897600	26.454918	0.000460	20.872731
2128.631585	-3.021200	3.282000	-9.914600	26.480044	0.000459	20.849149
2129.636597	-3.039600	3.281300	-9.972500	26.489083	0.000458	20.846855
2130.632178	-2.985000	3.283500	-9.799500	26.480019	0.000460	20.850546
2131.632159	-3.004300	3.282700	-9.861600	26.496084	0.000458	20.878547
2132.632878	-3.003800	3.281000	-9.853200	26.523419	0.000458	20.853393
2133.633932	-2.995800	3.281000	-9.828100	26.527393	0.000459	20.861655
2134.639824	-3.014300	3.281400	-9.890000	26.553584	0.000457	20.844834
2135.633774	-2.992100	3.280700	-9.814900	26.550432	0.000456	20.853520
2136.634410	-3.009500	3.280500	-9.871700	26.568828	0.000456	20.863951
2137.634824	-3.018700	3.279700	-9.899800	26.540578	0.000455	20.862580
2138.634841	-2.980800	3.280900	-9.778600	26.526899	0.000452	20.849779
2139.636147	-3.018600	3.278000	-9.893100	26.537202	0.000454	20.852549
2140.639517	-3.001600	3.277700	-9.836700	26.511755	0.000451	20.835505
2141.635914	-2.992200	3.278600	-9.809200	26.519951	0.000452	20.853226
2142.636672	-3.000000	3.278300	-9.833700	26.489238	0.000451	20.852700
2143.642333	-3.003700	3.277900	-9.844600	26.519082	0.000451	20.844767
2144.638279	-3.018000	3.277400	-9.889700	26.547854	0.000449	20.831014
2145.635257	-2.994700	3.277900	-9.815000	26.567966	0.000451	20.855024
2146.644416	-2.989600	3.279200	-9.802200	26.585221	0.000449	20.843920
2147.641260	-2.993900	3.277400	-9.810100	26.570176	0.000448	20.860564
2148.639691	-3.014300	3.275100	-9.870800	26.568018	0.000448	20.838955
2149.641881	-2.982200	3.278200	-9.775100	26.588028	0.000448	20.840104
2150.642364	-3.006800	3.275100	-9.847000	26.606103	0.000447	20.858273
2151.639254	-2.997200	3.274500	-9.813300	26.598855	0.000447	20.841978
2152.642420	-3.007800	3.275000	-9.849600	26.609157	0.000448	20.856602
2153.639718	-3.000500	3.273700	-9.821900	26.629340	0.000446	20.822839
2154.641624	-2.999300	3.276900	-9.827200	26.638277	0.000446	20.838935
2155.642994	-2.988600	3.274100	-9.782800	26.657492	0.000445	20.830750
2156.648644	-2.995700	3.273800	-9.806300	26.678617	0.000443	20.833970
2157.642196	-3.004100	3.271600	-9.826400	26.709300	0.000442	20.845376
2158.644015	-2.973100	3.273000	-9.730000	26.713871	0.000444	20.849023
2159.645661	-2.992600	3.271700	-9.789400	26.680955	0.000442	20.840114
2160.644282	-2.995700	3.272100	-9.801100	26.652456	0.000441	20.834697
2161.644697	-2.996300	3.272000	-9.801800	26.675221	0.000440	20.865642
2162.644715	-2.979900	3.270900	-9.744600	26.676090	0.000439	20.831430
2163.647478	-2.999100	3.270000	-9.806200	26.687583	0.000438	20.829233
2164.644311	-3.010200	3.269300	-9.839100	26.707270	0.000438	20.835749
2165.646748	-3.000200	3.269300	-9.807500	26.699623	0.000437	20.827587
2166.646982	-3.018100	3.267800	-9.861600	26.663185	0.000437	20.836474
2167.645306	-3.018700	3.268200	-9.865000	26.683567	0.000435	20.807653
2168.646765	-3.013500	3.267900	-9.846900	26.653728	0.000435	20.834553
2169.649326	-2.982800	3.268800	-9.749000	26.589111	0.000435	20.816064
2170.646154	-2.983100	3.267500	-9.746500	26.577418	0.000434	20.851723
2171.644947	-3.014000	3.267100	-9.845600	26.564759	0.000435	20.827619
2172.650442	-2.991700	3.268000	-9.775900	26.544550	0.000432	20.832435
2173.646488	-2.980500	3.267800	-9.738400	26.532088	0.000432	20.824176
2174.646889	-3.001000	3.267000	-9.803100	26.537502	0.000433	20.819660
2175.650193	-2.991300	3.266300	-9.768500	26.552722	0.000431	20.835433
2176.648961	-2.985200	3.266600	-9.751000	26.554658	0.000429	20.841647
2177.649978	-2.995700	3.265800	-9.781700	26.538645	0.000429	20.842620
2178.647760	-2.996500	3.265400	-9.783800	26.512130	0.000431	20.820236
2179.653640	-2.999100	3.264600	-9.789400	26.544454	0.000428	20.811002
2180.651161	-3.018100	3.264500	-9.851500	26.582762	0.000429	20.824379
2181.651262	-2.982600	3.265300	-9.737600	26.595522	0.000427	20.829620
2182.648359	-2.994000	3.264700	-9.774300	26.651875	0.000426	20.824630
2183.648805	-3.023900	3.262900	-9.865000	26.671734	0.000427	20.823257
2184.647629	-3.004300	3.262500	-9.799800	26.671761	0.000424	20.804793
2185.647490	-3.010000	3.262800	-9.820700	26.665506	0.000424	20.823634
2186.650208	-3.023400	3.261800	-9.861100	26.646938	0.000425	20.820616
2187.653001	-3.019300	3.261700	-9.846800	26.669106	0.000425	20.802598
2188.651873	-3.000100	3.261300	-9.783500	26.685414	0.000425	20.818518
2189.650664	-2.990200	3.261700	-9.752700	26.714951	0.000422	20.806014
2190.660641	-3.004700	3.261900	-9.799800	26.716294	0.000421	20.833916
2191.651721	-2.994400	3.261300	-9.764300	26.695592	0.000421	20.814526
2192.691999	-2.978900	3.260900	-9.712600	26.638449	0.000422	20.813503
2193.686798	-2.988300	3.260300	-9.741000	26.638498	0.000420	20.824933
2194.679139	-3.027900	3.258100	-9.863800	26.613352	0.000417	20.803447
2195.683266	-3.004800	3.259500	-9.793100	26.577207	0.000417	20.832072
2196.688003	-2.994100	3.258900	-9.756900	26.511764	0.000417	20.824136
2197.678147	-2.999100	3.258700	-9.772000	26.480606	0.000419	20.820318
2198.659355	-3.023400	3.257900	-9.848600	26.486938	0.000416	20.794915
2199.685500	-3.013600	3.258200	-9.816100	26.443015	0.000416	20.816199
2200.660501	-2.997000	3.256500	-9.758800	26.471744	0.000415	20.796712
2201.678162	-2.999200	3.256300	-9.765600	26.532670	0.000416	20.832347
2202.669088	-3.022500	3.255900	-9.840200	26.591956	0.000415	20.800431
2203.679876	-2.988800	3.256700	-9.732700	26.655309	0.000415	20.782564
2204.695911	-2.996200	3.255300	-9.752500	26.676284	0.000415	20.796064
2205.699040	-2.996700	3.256200	-9.757200	26.722902	0.000412	20.801205
2206.691416	-2.994500	3.255000	-9.746100	26.748791	0.000410	20.817277
2207.681356	-3.014200	3.253700	-9.806400	26.763463	0.000412	20.788879
2208.691334	-2.986100	3.253700	-9.714900	26.758248	0.000412	20.792646
2209.680398	-3.009700	3.254400	-9.793600	26.744102	0.000410	20.790277
2210.692451	-3.007900	3.252300	-9.781400	26.757453	0.000410	20.795165
2211.691615	-3.006800	3.252100	-9.777700	26.781831	0.000409	20.783165
2212.688438	-3.005600	3.251500	-9.772000	26.740554	0.000409	20.827487
2213.688284	-3.002900	3.252300	-9.763500	26.740105	0.000408	20.794319
2214.697431	-3.007200	3.249900	-9.772000	26.733900	0.000405	20.797563
2215.683020	-3.000700	3.252200	-9.758200	26.783594	0.000406	20.798214
2216.695394	-3.008600	3.250500	-9.779000	26.795929	0.000405	20.803978
2217.688423	-3.006200	3.249800	-9.768000	26.735070	0.000405	20.800636
2218.693052	-2.993500	3.251700	-9.732800	26.731966	0.000405	20.793249
2219.669563	-3.007800	3.249100	-9.771800	26.739117	0.000404	20.799015
2220.668876	-2.986400	3.252200	-9.711300	26.748253	0.000403	20.787338
2221.673862	-3.010700	3.247900	-9.778200	26.722092	0.000401	20.785218
2222.686728	-3.014400	3.246400	-9.784200	26.721546	0.000400	20.790833
2223.687150	-3.002200	3.246100	-9.744500	26.680413	0.000399	20.793102
2224.669159	-3.030900	3.247200	-9.841300	26.675103	0.000398	20.780178
2225.670852	-2.983800	3.247200	-9.688400	26.709162	0.000396	20.767477
2226.670303	-3.001000	3.246800	-9.742100	26.712069	0.000399	20.775141
2227.669581	-3.001200	3.246600	-9.742400	26.731852	0.000398	20.771323
2228.676791	-3.046100	3.244200	-9.880800	26.764023	0.000397	20.771424
2229.701249	-2.999000	3.245900	-9.732900	26.770428	0.000397	20.775019
2230.695342	-2.983500	3.245400	-9.681700	26.783882	0.000397	20.774796
2231.691005	-3.024300	3.243800	-9.809900	26.800960	0.000392	20.769681
2232.694448	-2.995200	3.244300	-9.716900	26.796173	0.000391	20.793317
2233.693709	-2.995700	3.243600	-9.716100	26.830425	0.000392	20.777022
2234.693996	-3.013500	3.243600	-9.773100	26.856959	0.000392	20.792796
2235.701707	-3.003600	3.243200	-9.739300	26.876765	0.000391	20.792322
2236.695421	-2.991100	3.243800	-9.700700	26.866667	0.000391	20.762728
2237.698682	-3.009900	3.243400	-9.761900	26.890393	0.000391	20.753393
2238.700120	-3.002800	3.241900	-9.734200	26.885457	0.000389	20.782570
2239.696327	-3.000800	3.241000	-9.724200	26.889504	0.000388	20.794700
2240.695888	-3.000900	3.242000	-9.727600	26.903430	0.000388	20.755598
2241.694932	-3.005600	3.240400	-9.738600	26.836743	0.000389	20.789064
2242.679018	-2.999600	3.240200	-9.718500	26.820910	0.000388	20.769825
2243.677337	-3.009300	3.239500	-9.746900	26.785318	0.000389	20.766757
2244.695030	-3.017600	3.239100	-9.773200	26.820961	0.000387	20.778886
2245.692305	-2.987500	3.240100	-9.678200	26.832057	0.000387	20.794310
2246.675104	-3.002400	3.238100	-9.721300	26.812678	0.000385	20.761074
2247.692157	-3.006600	3.238500	-9.736000	26.835511	0.000385	20.769333
2248.699044	-2.990900	3.237700	-9.682200	26.860929	0.000382	20.764070
2249.699036	-2.991200	3.237000	-9.681700	26.912752	0.000384	20.772084
2250.698550	-3.000700	3.236800	-9.711500	26.886966	0.000384	20.755637
2251.700599	-3.015300	3.235000	-9.753400	26.882524	0.000383	20.770138
2252.697674	-2.996800	3.236400	-9.697400	26.911911	0.000384	20.769341
2253.698557	-3.000000	3.236600	-9.708600	26.954795	0.000382	20.764100
2254.703276	-3.008700	3.235900	-9.735200	26.972145	0.000382	20.764477
2255.697786	-3.009400	3.235800	-9.736300	26.928590	0.000380	20.751024
2256.703117	-2.998300	3.236600	-9.704000	26.921667	0.000379	20.750227
2257.705618	-2.990800	3.233000	-9.668000	26.904272	0.000380	20.758815
2258.696319	-3.024400	3.232600	-9.775300	26.900623	0.000379	20.754197
2259.679393	-2.998600	3.233300	-9.693900	26.895782	0.000380	20.763080
2260.683094	-2.993700	3.232900	-9.677400	26.921818	0.000380	20.749905
2261.680260	-3.032800	3.231300	-9.798300	26.911093	0.000378	20.759510
2262.677560	-2.992600	3.232000	-9.670900	26.928046	0.000378	20.759013
2263.681175	-3.001500	3.231500	-9.697800	26.919287	0.000377	20.752576
2264.680707	-3.021300	3.229300	-9.756400	26.930355	0.000375	20.742842
2265.679277	-3.002200	3.229900	-9.694500	26.944622	0.000377	20.747231
2266.679712	-2.989900	3.231000	-9.659000	26.956434	0.000375	20.739195
2267.702702	-3.000600	3.229500	-9.689000	26.927197	0.000375	20.741563
2268.705921	-3.001400	3.229400	-9.691100	26.935561	0.000372	20.743810
2269.705609	-3.016900	3.228400	-9.739000	26.994600	0.000372	20.752919
2270.680407	-2.996000	3.228700	-9.672600	27.015022	0.000371	20.752119
2271.700607	-2.989400	3.228400	-9.649700	27.063138	0.000371	20.755463
2272.711563	-2.985100	3.228500	-9.636900	27.083135	0.000370	20.742857
2273.689009	-3.015900	3.229600	-9.738800	27.037256	0.000370	20.743184
2274.711836	-3.014200	3.226900	-9.725700	27.045417	0.000368	20.743331
2275.683503	-2.995500	3.225800	-9.660900	26.983180	0.000370	20.761824
2276.707845	-2.987300	3.227500	-9.641400	27.005738	0.000368	20.741360
2277.701068	-2.997000	3.225400	-9.664700	27.041075	0.000368	20.738016
2278.701740	-3.034900	3.224700	-9.785200	27.060875	0.000365	20.760773
2279.705443	-2.998000	3.223500	-9.663300	27.070529	0.000367	20.742507
2280.714667	-2.987800	3.226700	-9.640300	27.122712	0.000365	20.748996
2281.702960	-2.968800	3.224000	-9.570700	27.131023	0.000366	20.748820
2282.686691	-2.988300	3.224600	-9.635100	27.122858	0.000363	20.750091
2283.688138	-2.994700	3.222300	-9.649100	27.135737	0.000363	20.757355
2284.715536	-2.975400	3.222300	-9.586600	27.141916	0.000364	20.746973
2285.708683	-3.006000	3.222700	-9.685700	27.145512	0.000364	20.764341
2286.711193	-2.981500	3.222200	-9.606300	27.135214	0.000363	20.739284
2287.705049	-3.021800	3.220500	-9.730200	27.081520	0.000362	20.733646
2288.715238	-2.986900	3.220200	-9.618100	27.018066	0.000362	20.752335
2289.709958	-3.003400	3.220000	-9.669300	27.006948	0.000360	20.753008
2290.717447	-2.991400	3.218900	-9.628000	27.039456	0.000361	20.742551
2291.715996	-3.010300	3.219600	-9.691500	27.044393	0.000361	20.738981
2292.696901	-2.995300	3.221100	-9.646200	27.061067	0.000359	20.746742
2293.692097	-2.988900	3.218500	-9.616600	27.071514	0.000358	20.736385
2294.694137	-2.983300	3.218300	-9.600200	27.063622	0.000358	20.747889
2295.694038	-3.006700	3.217200	-9.672200	27.051537	0.000357	20.755175
2296.695426	-3.007500	3.217500	-9.674900	27.019229	0.000356	20.743547
2297.696121	-3.025400	3.215600	-9.727500	27.049031	0.000355	20.749336
2298.695593	-3.000300	3.215700	-9.647500	27.024785	0.000355	20.749135
2299.697465	-3.007300	3.216100	-9.671100	27.003146	0.000354	20.763410
2300.721002	-2.984500	3.214900	-9.593400	26.937109	0.000353	20.768601
2301.712732	-3.002900	3.214300	-9.650500	26.904151	0.000352	20.744468
2302.716815	-2.973500	3.214400	-9.556500	26.861934	0.000353	20.737579
2303.720376	-3.018800	3.213600	-9.700300	26.889654	0.000352	20.750280
2304.713654	-2.979500	3.213300	-9.573000	26.894348	0.000351	20.757844
2305.719371	-2.989500	3.213200	-9.605000	26.912488	0.000351	20.751429
2306.713180	-2.978200	3.214400	-9.572800	26.925840	0.000350	20.743991
2307.712080	-2.981600	3.214400	-9.582400	26.948475	0.000349	20.761538
2308.715616	-2.977900	3.213100	-9.566800	26.958301	0.000349	20.742969
2309.718827	-3.020900	3.211200	-9.700000	26.926435	0.000350	20.728942
2310.712713	-2.997100	3.210200	-9.620400	26.933661	0.000348	20.749485
2311.729033	-3.002200	3.210100	-9.636800	26.881166	0.000346	20.731787
2312.732529	-2.987100	3.208800	-9.583900	26.866672	0.000347	20.748033
2313.704028	-3.001200	3.208900	-9.629900	26.878559	0.000345	20.740071
2314.707818	-2.974500	3.209100	-9.544800	26.926358	0.000344	20.733607
2315.718413	-2.990100	3.208400	-9.592300	26.978421	0.000345	20.739493
2316.717004	-3.000100	3.208400	-9.623800	26.968371	0.000345	20.749302
2317.723100	-3.002500	3.207600	-9.629700	26.976016	0.000344	20.735652
2318.723058	-2.990700	3.207200	-9.590900	27.003635	0.000344	20.752048
2319.704261	-3.004000	3.206300	-9.630500	27.037382	0.000343	20.753743
2320.721498	-2.992300	3.207400	-9.596100	27.057506	0.000342	20.726564
2321.705592	-2.992200	3.205500	-9.590600	27.059712	0.000341	20.750595
2322.702947	-3.030900	3.204800	-9.712100	27.048819	0.000341	20.752917
2323.701659	-3.003800	3.203600	-9.621600	27.013806	0.000340	20.763224
2324.704047	-3.008800	3.203400	-9.637400	27.005119	0.000339	20.758756
2325.720602	-3.013200	3.202700	-9.649600	27.064551	0.000341	20.746926
2326.724019	-3.018900	3.201800	-9.665100	27.060206	0.000340	20.755834
2327.704426	-2.993500	3.202000	-9.584200	27.090429	0.000337	20.746874
2328.702938	-2.975100	3.203100	-9.528300	27.075318	0.000337	20.753488
2329.704174	-2.983700	3.202400	-9.553300	27.046558	0.000337	20.761549
2330.706153	-3.004400	3.200800	-9.614800	27.057251	0.000336	20.756655
2331.703828	-2.983400	3.202500	-9.553400	27.075116	0.000335	20.776993
2332.701212	-2.972500	3.201200	-9.515000	27.130599	0.000335	20.755980
2333.705182	-2.988300	3.199100	-9.559100	27.151839	0.000335	20.737512
2334.703002	-2.999600	3.199100	-9.595700	27.164693	0.000333	20.744277
2335.705479	-2.977300	3.198400	-9.522000	27.143454	0.000333	20.769384
2336.707993	-3.003600	3.198700	-9.606000	27.141543	0.000333	20.775523
2337.706677	-3.014900	3.196900	-9.636900	27.101347	0.000331	20.749794
2338.708882	-3.002200	3.197200	-9.597700	27.134052	0.000332	20.746651
2339.707391	-3.002400	3.198300	-9.601600	27.112886	0.000332	20.761400
2340.728785	-3.004600	3.195000	-9.598700	27.083634	0.000331	20.760429
2341.716126	-2.996100	3.196900	-9.577800	27.030579	0.000331	20.739789
2342.708109	-2.994600	3.196000	-9.570300	26.976384	0.000329	20.750248
2343.708380	-2.975200	3.196100	-9.508000	26.939778	0.000329	20.758482
2344.727994	-2.993600	3.195400	-9.564400	26.926726	0.000329	20.747254
2345.710484	-2.999400	3.193500	-9.578300	26.926827	0.000328	20.762529
2346.707410	-3.020000	3.193600	-9.642800	26.970109	0.000325	20.762430
2347.708371	-3.008100	3.193600	-9.606300	27.005748	0.000328	20.757018
2348.707439	-3.026600	3.193200	-9.662900	27.034432	0.000328	20.771166
2349.708771	-3.025000	3.192800	-9.656900	27.048407	0.000326	20.778107
2350.709466	-3.001100	3.191700	-9.577600	27.049868	0.000324	20.760136
2351.710665	-3.000900	3.190500	-9.572900	27.092702	0.000323	20.750583
2352.708352	-2.997300	3.190300	-9.561000	27.113868	0.000324	20.781828
2353.730133	-3.000300	3.188800	-9.565600	27.120123	0.000323	20.739754
2354.746086	-3.002600	3.189900	-9.577500	27.121713	0.000321	20.763164
2355.733782	-3.012700	3.188300	-9.603400	27.098614	0.000321	20.761744
2356.731524	-3.013100	3.188700	-9.605700	27.067152	0.000320	20.753336
2357.730673	-3.015700	3.186700	-9.609400	27.073454	0.000321	20.743078
2358.727705	-2.996400	3.186600	-9.547600	27.094450	0.000320	20.755659
2359.730281	-3.010900	3.186800	-9.594100	27.113162	0.000322	20.756935
2360.731036	-3.012500	3.185400	-9.595500	27.132640	0.000320	20.758981
2361.735377	-3.010900	3.186400	-9.592900	27.166213	0.000319	20.760979
2362.731585	-3.015800	3.185600	-9.605500	27.197948	0.000321	20.781994
2363.738748	-2.982700	3.184700	-9.497300	27.200730	0.000319	20.762032
2364.735080	-3.021500	3.184100	-9.619000	27.195843	0.000319	20.783196
2365.711092	-2.996100	3.183400	-9.536500	27.226958	0.000318	20.774189
2366.736058	-2.992700	3.183700	-9.527000	27.256609	0.000318	20.755175
2367.729665	-2.969300	3.183300	-9.451200	27.255045	0.000316	20.752179
2368.712464	-2.999200	3.182500	-9.544500	27.266313	0.000317	20.773472
2369.715010	-3.008100	3.182500	-9.572100	27.271299	0.000316	20.769477
2370.716681	-3.000700	3.181700	-9.546500	27.319230	0.000316	20.766483
2371.728035	-3.009800	3.181500	-9.574400	27.318638	0.000316	20.758301
2372.728927	-3.041500	3.180400	-9.671900	27.312609	0.000317	20.789695
2373.738348	-2.991700	3.180100	-9.513000	27.263438	0.000316	20.768209
2374.715482	-3.007400	3.178700	-9.557900	27.254583	0.000315	20.772578
2375.732176	-2.974100	3.180100	-9.456300	27.269719	0.000313	20.780691
2376.744292	-3.002700	3.178200	-9.541600	27.250565	0.000313	20.758579
2377.727330	-3.028500	3.176400	-9.617300	27.300386	0.000312	20.759381
2378.734551	-2.989300	3.178500	-9.500200	27.290709	0.000312	20.770984
2379.738448	-3.005200	3.176100	-9.544100	27.236900	0.000312	20.769490
2380.742942	-3.011100	3.174800	-9.557600	27.181024	0.000312	20.755488
2381.741087	-3.003800	3.175300	-9.537600	27.176858	0.000310	20.784489
2382.735970	-3.034900	3.173100	-9.629400	27.186237	0.000310	20.766421
2383.731214	-3.007400	3.174600	-9.546400	27.165519	0.000310	20.773559
2384.736761	-3.001400	3.175000	-9.527600	27.174800	0.000310	20.779100
2385.722054	-3.003700	3.173000	-9.530100	27.221546	0.000308	20.787711
2386.717288	-3.012800	3.173300	-9.559300	27.244793	0.000308	20.780748
2387.742951	-3.014400	3.173800	-9.565300	27.254568	0.000308	20.773986
2388.743260	-3.022400	3.170300	-9.580900	27.272086	0.000307	20.774537
2389.719382	-2.994000	3.170700	-9.491900	27.295060	0.000307	20.781525
2390.733630	-3.008700	3.170200	-9.536400	27.279628	0.000307	20.764579
2391.742374	-2.992900	3.169600	-9.485400	27.245592	0.000306	20.791036
2392.735662	-2.987100	3.169800	-9.467000	27.206145	0.000305	20.779333
2393.733863	-3.009100	3.169500	-9.536400	27.209421	0.000306	20.793533
2394.734689	-2.990100	3.170000	-9.477500	27.237406	0.000305	20.784698
2395.745250	-3.000400	3.167000	-9.500600	27.243238	0.000305	20.774917
2396.736921	-3.002300	3.164800	-9.500200	27.283506	0.000306	20.776540
2397.741036	-3.016900	3.166000	-9.549100	27.321138	0.000307	20.780731
2398.736067	-2.983200	3.167100	-9.447700	27.343470	0.000302	20.785177
2399.739740	-3.013000	3.166000	-9.538000	27.369268	0.000305	20.777464
2400.737873	-3.001900	3.164100	-9.497500	27.393506	0.000302	20.771975
2401.744063	-2.991300	3.165000	-9.466800	27.335657	0.000302	20.803870
2402.741655	-3.024300	3.164300	-9.567500	27.279710	0.000300	20.799275
2403.741858	-2.977000	3.163000	-9.414900	27.229822	0.000300	20.794613
2404.744129	-3.008700	3.163700	-9.517700	27.203152	0.000299	20.801452
2405.740521	-3.001300	3.162000	-9.489300	27.190843	0.000301	20.775796
2406.744022	-3.008800	3.161200	-9.510100	27.210072	0.000298	20.775222
2407.743497	-2.995100	3.159700	-9.462200	27.252772	0.000298	20.782136
2408.738466	-2.970700	3.159700	-9.386300	27.293215	0.000299	20.784410
2409.742883	-2.997900	3.158300	-9.466800	27.298748	0.000298	20.753939
2410.736316	-3.017600	3.160100	-9.535100	27.269750	0.000298	20.773609
2411.746610	-2.997700	3.157300	-9.463600	27.274910	0.000298	20.786860
2412.741388	-2.997000	3.158300	-9.464200	27.315747	0.000294	20.791902
2413.743764	-3.007100	3.156900	-9.491900	27.330235	0.000296	20.790356
2414.749598	-2.998200	3.157000	-9.464500	27.324483	0.000296	20.789311
2415.742482	-3.027300	3.155100	-9.550200	27.296946	0.000295	20.773465
2416.723026	-3.021600	3.154900	-9.531100	27.303597	0.000294	20.796751
2417.723141	-3.032400	3.153000	-9.559800	27.295165	0.000294	20.779259
2418.727718	-3.001100	3.153300	-9.462300	27.348181	0.000294	20.792762
2419.725137	-3.015600	3.153500	-9.508800	27.356024	0.000295	20.790220
2420.723408	-3.004000	3.153200	-9.471500	27.371578	0.000295	20.820091
2421.720440	-2.986200	3.152200	-9.412200	27.371159	0.000295	20.801178
2422.722684	-2.976200	3.151600	-9.379200	27.420053	0.000292	20.774975
2423.721250	-2.957000	3.151800	-9.318300	27.441016	0.000294	20.788003
2424.722938	-2.988100	3.150900	-9.414300	27.481523	0.000293	20.788453
2425.725980	-2.990000	3.148900	-9.413300	27.502508	0.000292	20.791074
2426.725278	-3.010200	3.148600	-9.476800	27.512084	0.000292	20.806873
2427.724416	-3.011600	3.147400	-9.476100	27.558517	0.000292	20.801434
2428.750425	-3.007700	3.147200	-9.465200	27.551227	0.000290	20.782244
2429.725990	-2.996000	3.146700	-9.427100	27.558942	0.000292	20.803757
2430.722839	-2.996400	3.146200	-9.425700	27.541727	0.000290	20.779325
2431.740309	-3.019500	3.144000	-9.491600	27.558076	0.000291	20.805731
2432.744657	-3.013300	3.144500	-9.474500	27.557306	0.000288	20.797844
2433.752649	-2.953500	3.145800	-9.289900	27.561646	0.000290	20.815013
2434.747245	-2.997100	3.141600	-9.415000	27.584866	0.000290	20.789538
2435.731607	-3.021100	3.141700	-9.489300	27.600913	0.000290	20.819434
2436.730509	-3.006000	3.140400	-9.438500	27.598307	0.000289	20.814916
2437.734289	-2.999800	3.141000	-9.420100	27.635386	0.000290	20.813345
2438.731181	-2.988300	3.141000	-9.385100	27.659591	0.000288	20.800242
2439.745102	-2.997300	3.140400	-9.411500	27.655029	0.000288	20.815093
2440.757903	-2.997000	3.138800	-9.405900	27.641838	0.000288	20.792336
2441.746656	-3.003800	3.137800	-9.424300	27.638561	0.000288	20.808953
2442.745839	-2.977200	3.137500	-9.340300	27.667579	0.000287	20.796901
2443.754259	-2.999900	3.136200	-9.406000	27.687939	0.000288	20.799845
2444.764382	-3.000700	3.135600	-9.408700	27.657141	0.000287	20.800623
2445.738501	-3.024400	3.136100	-9.484300	27.641490	0.000286	20.795305
2446.732498	-2.999400	3.134300	-9.399300	27.642926	0.000286	20.807181
2447.739443	-3.003600	3.132900	-9.409700	27.601932	0.000286	20.819511
2448.738684	-3.001900	3.132200	-9.401100	27.561753	0.000285	20.809904
2449.737010	-3.025400	3.131300	-9.472100	27.552078	0.000284	20.820085
2450.736134	-2.986900	3.131300	-9.352900	27.464024	0.000285	20.802616
2451.735604	-2.993100	3.130500	-9.369100	27.492498	0.000282	20.815616
2452.756949	-2.989900	3.129900	-9.357300	27.478212	0.000283	20.820209
2453.755828	-3.001700	3.129400	-9.393200	27.561303	0.000279	20.815616
2454.767828	-3.019300	3.127800	-9.442300	27.610460	0.000281	20.824774
2455.757379	-3.007200	3.126900	-9.401600	27.600145	0.000281	20.819136
2456.739890	-2.979100	3.127000	-9.313900	27.637967	0.000280	20.799346
2457.755332	-3.001100	3.125200	-9.378100	27.634942	0.000278	20.814321
2458.765334	-2.993000	3.125300	-9.352400	27.666664	0.000281	20.812101
2459.763212	-3.017900	3.125000	-9.430000	27.684866	0.000282	20.830417
2460.766492	-2.984300	3.125100	-9.325200	27.719262	0.000279	20.810503
2461.758390	-3.000100	3.121900	-9.365000	27.714129	0.000279	20.805811
2462.761245	-3.008900	3.122300	-9.394100	27.684216	0.000280	20.823126
2463.763559	-2.966900	3.123000	-9.264700	27.656769	0.000279	20.838653
2464.767792	-3.019000	3.120300	-9.418700	27.617211	0.000279	20.836307
2465.765328	-3.009600	3.120100	-9.389900	27.595460	0.000279	20.818216
2466.756611	-2.982000	3.119900	-9.302500	27.606469	0.000278	20.829766
2467.764607	-3.006700	3.118700	-9.374500	27.612222	0.000279	20.825598
2468.771988	-3.000600	3.116100	-9.349400	27.639578	0.000277	20.842692
2469.761697	-3.009200	3.117200	-9.379000	27.657262	0.000278	20.824925
2470.763473	-2.999300	3.116000	-9.344700	27.694961	0.000278	20.840575
2471.751666	-2.988000	3.115800	-9.309100	27.683378	0.000278	20.833187
2472.742986	-2.992800	3.115100	-9.321300	27.700637	0.000276	20.838700
2473.745686	-3.012700	3.113000	-9.378500	27.700765	0.000277	20.849735
2474.770167	-2.993400	3.111500	-9.313000	27.728664	0.000277	20.828024
2475.778765	-3.001400	3.111200	-9.336700	27.702352	0.000277	20.842796
2476.773980	-3.013700	3.110800	-9.373500	27.713863	0.000278	20.836836
2477.759912	-2.981300	3.110100	-9.271000	27.732091	0.000277	20.844274
2478.763762	-3.017700	3.108100	-9.378300	27.758526	0.000276	20.832470
2479.746133	-2.986900	3.108900	-9.284700	27.751581	0.000276	20.832120
2480.750049	-3.007300	3.106600	-9.341200	27.757633	0.000277	20.850537
2481.764907	-3.022600	3.105200	-9.384800	27.770009	0.000276	20.843077
2482.762650	-2.994000	3.105300	-9.295800	27.784565	0.000274	20.858674
2483.760887	-3.006100	3.105000	-9.333100	27.751162	0.000275	20.839758
2484.771898	-2.999100	3.103700	-9.307500	27.722620	0.000275	20.839485
2485.765423	-3.013700	3.101900	-9.347600	27.716446	0.000272	20.837539
2486.775918	-3.000500	3.102200	-9.306900	27.714314	0.000273	20.841084
2487.772764	-3.000700	3.100900	-9.303500	27.714120	0.000275	20.841362
2488.769392	-3.017500	3.098500	-9.348600	27.723020	0.000273	20.846526
2489.745826	-2.995000	3.098200	-9.278000	27.732718	0.000273	20.845379
2490.744997	-2.996600	3.098600	-9.284300	27.741873	0.000274	20.843212
2491.748379	-3.014300	3.096400	-9.332200	27.765308	0.000273	20.831709
2492.746155	-3.023600	3.096000	-9.360100	27.776418	0.000274	20.832458
2493.746945	-2.977600	3.096900	-9.220000	27.789534	0.000276	20.863200
2494.749682	-3.007000	3.094800	-9.305600	27.801291	0.000272	20.838523
2495.747025	-3.000800	3.094500	-9.285200	27.790454	0.000272	20.850850
2496.775818	-2.994600	3.093700	-9.263300	27.765434	0.000272	20.848430
2497.770615	-2.992500	3.091700	-9.251200	27.701901	0.000273	20.853249
2498.772725	-3.007800	3.090400	-9.293200	27.652995	0.000272	20.850977
2499.772308	-2.975700	3.090600	-9.195500	27.661899	0.000271	20.849505
2500.772866	-2.978300	3.090200	-9.202400	27.648880	0.000271	20.867224
2501.789705	-2.997400	3.087900	-9.255100	27.604210	0.000272	20.858787
2502.772414	-2.998400	3.087800	-9.257500	27.598583	0.000271	20.856443
2503.785116	-3.011400	3.086300	-9.292800	27.585961	0.000272	20.859864
2504.764852	-2.988800	3.086200	-9.222800	27.624621	0.000272	20.861306
2505.778457	-2.997300	3.085100	-9.246200	27.654458	0.000275	20.848182
2506.777591	-3.007800	3.083400	-9.273600	27.663682	0.000273	20.847981
2507.756310	-3.035100	3.082100	-9.353600	27.631070	0.000273	20.833183
2508.776502	-2.986200	3.082200	-9.203000	27.668890	0.000271	20.874083
2509.784152	-2.994700	3.080400	-9.224400	27.655743	0.000271	20.867966
2510.773052	-3.002100	3.080500	-9.246800	27.688207	0.000272	20.875028
2511.773198	-3.012500	3.078100	-9.271400	27.715413	0.000272	20.872059
2512.774348	-3.008400	3.077300	-9.256400	27.718982	0.000271	20.872332
2513.758426	-2.974800	3.078300	-9.156000	27.711545	0.000269	20.871960
2514.774857	-3.020400	3.075600	-9.288100	27.735942	0.000272	20.855735
2515.760091	-3.024300	3.074200	-9.295900	27.748888	0.000269	20.874452
2516.755473	-3.002400	3.074800	-9.231100	27.750696	0.000269	20.868686
2517.761992	-2.985600	3.073900	-9.175500	27.765875	0.000271	20.870210
2518.752032	-2.998900	3.071000	-9.208200	27.773958	0.000269	20.873129
2519.761598	-3.019000	3.069500	-9.264900	27.802526	0.000270	20.875800
2520.754210	-3.008000	3.068900	-9.230500	27.801732	0.000270	20.868837
2521.774914	-3.000300	3.069100	-9.207000	27.785387	0.000269	20.885578
2522.773744	-3.044200	3.066600	-9.334100	27.767584	0.000269	20.859129
2523.775776	-3.000900	3.067300	-9.203100	27.788835	0.000270	20.890470
2524.778355	-3.004200	3.065200	-9.207800	27.789879	0.000269	20.876823
2525.774866	-3.009800	3.064200	-9.221700	27.813036	0.000270	20.892066
2526.781283	-2.981100	3.065200	-9.136600	27.832153	0.000269	20.867211
2527.779873	-3.001500	3.062300	-9.190300	27.867394	0.000271	20.900779
2528.761909	-3.009800	3.060700	-9.211400	27.866745	0.000270	20.885903
2529.787414	-3.018300	3.060300	-9.235000	27.845126	0.000269	20.889748
2530.787421	-2.971900	3.058900	-9.089400	27.839026	0.000270	20.875075
2531.783191	-3.027400	3.057900	-9.256000	27.826132	0.000271	20.891496
2532.781095	-3.018100	3.055800	-9.222000	27.826280	0.000269	20.884059
2533.789022	-3.003300	3.055800	-9.176400	27.874806	0.000270	20.896860
2534.773938	-3.011200	3.055900	-9.200900	27.906743	0.000270	20.877322
2535.762928	-2.992100	3.053000	-9.133700	27.902007	0.000267	20.893891
2536.759485	-3.022400	3.051300	-9.221200	27.901560	0.000268	20.894864
2537.756717	-2.990600	3.051700	-9.125800	27.857279	0.000266	20.902927
2538.763720	-2.977700	3.052900	-9.090200	27.811034	0.000268	20.905223
2539.761610	-2.997000	3.049300	-9.137600	27.796974	0.000268	20.916676
2540.765209	-2.990700	3.048500	-9.115600	27.792857	0.000267	20.903051
2541.766697	-3.014900	3.046500	-9.183900	27.742571	0.000268	20.894646
2542.762572	-2.978700	3.047800	-9.077800	27.731685	0.000267	20.896019
2543.770077	-3.000700	3.045100	-9.136200	27.726973	0.000269	20.887485
2544.785970	-3.006400	3.043700	-9.150000	27.767124	0.000267	20.888061
2545.763677	-2.989100	3.042700	-9.093900	27.803849	0.000267	20.885191
2546.762007	-3.018000	3.040700	-9.176100	27.807621	0.000265	20.881401
2547.777904	-2.981000	3.040400	-9.061900	27.783743	0.000267	20.886768
2548.790896	-2.987600	3.040000	-9.081000	27.820119	0.000268	20.896824
2549.784367	-3.015500	3.038500	-9.161000	27.822305	0.000267	20.879110
2550.763368	-2.988900	3.037800	-9.078700	27.815339	0.000269	20.861195
2551.766632	-2.978500	3.036900	-9.044700	27.807133	0.000267	20.880910
2552.769960	-2.992800	3.035600	-9.084300	27.795130	0.000267	20.865512
2553.766944	-2.982800	3.034400	-9.050200	27.811896	0.000267	20.866265
2554.772376	-3.022400	3.031900	-9.163100	27.807557	0.000269	20.872329
2555.763588	-3.026300	3.030800	-9.171200	27.824198	0.000266	20.878170
2556.762577	-3.006100	3.029600	-9.106000	27.834787	0.000268	20.881715
2557.767749	-2.988200	3.028900	-9.050300	27.826581	0.000266	20.853543
2558.765234	-3.000200	3.028600	-9.085100	27.828589	0.000265	20.854615
2559.765569	-3.004100	3.027300	-9.093000	27.847039	0.000264	20.886459
2560.768031	-2.998000	3.025900	-9.070700	27.829928	0.000265	20.879195
2561.766810	-3.014200	3.023400	-9.111900	27.813318	0.000268	20.874333
2562.773314	-2.992800	3.022700	-9.044700	27.793779	0.000266	20.867472
2563.786914	-3.018400	3.021700	-9.119300	27.774462	0.000266	20.865101
2564.767305	-3.015200	3.020100	-9.104800	27.728660	0.000266	20.870691
2565.774961	-2.998300	3.019900	-9.053700	27.716436	0.000268	20.868348
2566.765239	-3.013400	3.018500	-9.094700	27.718494	0.000268	20.867100
2567.779879	-3.011900	3.017600	-9.088200	27.749791	0.000266	20.861611
2568.776968	-2.972900	3.017200	-8.968800	27.780789	0.000268	20.867202
2569.768860	-2.983400	3.015100	-8.994800	27.818284	0.000266	20.868900
2570.766010	-2.998600	3.014100	-9.036800	27.812408	0.000265	20.846866
2571.772221	-2.995100	3.012500	-9.021700	27.799561	0.000267	20.872343
2572.792334	-3.009300	3.009700	-9.056200	27.794107	0.000266	20.864010
2573.791943	-2.998100	3.010200	-9.024100	27.797904	0.000269	20.822313
2574.790479	-2.999100	3.007800	-9.019800	27.794727	0.000270	20.852779
2575.789942	-3.020900	3.006900	-9.081300	27.777792	0.000267	20.852807
2576.800088	-3.009000	3.006000	-9.044000	27.722688	0.000267	20.856148
2577.784595	-3.020600	3.005400	-9.077000	27.695011	0.000269	20.852953
2578.791360	-3.000500	3.004800	-9.014900	27.687872	0.000267	20.841976
2579.789573	-2.996400	3.002200	-8.995000	27.739699	0.000265	20.838655
2580.797785	-2.985400	3.002400	-8.961900	27.795050	0.000266	20.846941
2581.771082	-3.003000	2.998400	-9.003300	27.847716	0.000266	20.847313
2582.770494	-3.028300	2.997500	-9.076300	27.858749	0.000267	20.838503
2583.771069	-3.021000	2.999000	-9.057300	27.879675	0.000265	20.849607
2584.771186	-3.026200	2.994400	-9.061000	27.879946	0.000268	20.855569
2585.771269	-2.997300	2.994600	-8.975200	27.882595	0.000267	20.829787
2586.773350	-2.978000	2.993500	-8.913300	27.908925	0.000267	20.854389
2587.795354	-3.004600	2.992600	-8.990100	27.919511	0.000267	20.864095
2588.788234	-2.988900	2.991600	-8.940400	27.932600	0.000267	20.834597
2589.775761	-2.962400	2.991100	-8.858900	27.905129	0.000266	20.829707
2590.798557	-3.042500	2.987500	-9.087800	27.892850	0.000267	20.851961
2591.799757	-3.010100	2.986800	-8.989700	27.855084	0.000265	20.843349
2592.795350	-2.990700	2.986200	-8.929500	27.860636	0.000264	20.851308
2593.802073	-3.006900	2.982700	-8.967400	27.881760	0.000266	20.843170
2594.799082	-2.982000	2.982800	-8.893200	27.876652	0.000265	20.846564
2595.797762	-2.980100	2.980400	-8.881200	27.822968	0.000264	20.840899
2596.777264	-2.982600	2.979600	-8.884400	27.801937	0.000265	20.867147
2597.778201	-2.987300	2.978600	-8.896700	27.796179	0.000266	20.817258
2598.799902	-3.022100	2.976100	-8.991700	27.835059	0.000265	20.838843
2599.793322	-2.982200	2.976000	-8.874400	27.836845	0.000265	20.830209
2600.796442	-3.009000	2.974400	-8.949000	27.845589	0.000264	20.842328
2601.796417	-2.999900	2.973000	-8.917900	27.809884	0.000264	20.834843
2602.796915	-3.005200	2.971300	-8.928200	27.833411	0.000266	20.844296
2603.807707	-3.023500	2.969500	-8.977400	27.870903	0.000266	20.829399
2604.777954	-2.981500	2.969200	-8.851900	27.942804	0.000264	20.824953
2605.799709	-3.001900	2.967700	-8.907500	28.005826	0.000265	20.836705
2606.778070	-2.984200	2.965300	-8.847500	28.043285	0.000265	20.836004
2607.779753	-3.002700	2.964900	-8.901700	28.007187	0.000264	20.848506
2608.782274	-3.012300	2.963300	-8.925500	27.968138	0.000265	20.843340
2609.790310	-2.997600	2.961500	-8.876300	27.955813	0.000264	20.845159
2610.778193	-2.988500	2.962100	-8.851400	27.950875	0.000265	20.824543
2611.801939	-3.002500	2.958500	-8.881600	27.959306	0.000264	20.842036
2612.806025	-3.014100	2.955700	-8.907700	28.014119	0.000265	20.826087
2613.827360	-2.985500	2.955600	-8.822500	28.020218	0.000263	20.830803
2614.812456	-2.966800	2.956200	-8.767800	28.062833	0.000262	20.841932
2615.806389	-3.006500	2.953100	-8.877000	28.104157	0.000262	20.863615
2616.799669	-2.986600	2.950900	-8.812400	28.094389	0.000262	20.834817
2617.802417	-2.987100	2.951400	-8.814200	28.070836	0.000264	20.849039
2618.821698	-3.020900	2.948500	-8.906100	28.047703	0.000262	20.835711
2619.795461	-2.985100	2.948100	-8.799400	27.988255	0.000262	20.841304
2620.804966	-2.994000	2.943900	-8.813200	27.912261	0.000262	20.816023
2621.802824	-3.004000	2.943900	-8.842300	27.845661	0.000260	20.825332
2622.801683	-3.001500	2.943000	-8.832100	27.811219	0.000261	20.844248
2623.805588	-3.031500	2.940300	-8.913100	27.769188	0.000261	20.818071
2624.785687	-2.994700	2.938200	-8.797700	27.804475	0.000262	20.829875
2625.802553	-3.007500	2.937800	-8.834800	27.823074	0.000263	20.853333
2626.802093	-2.981000	2.937900	-8.756300	27.903186	0.000263	20.827752
2627.801861	-2.977400	2.934600	-8.736000	27.898207	0.000261	20.831749
2628.785632	-2.957600	2.935300	-8.679900	27.880354	0.000260	20.829902
2629.807090	-3.015600	2.932300	-8.841500	27.888390	0.000262	20.820447
2630.806256	-2.972000	2.930200	-8.707500	27.865604	0.000263	20.834971
2631.802420	-3.026600	2.927000	-8.858100	27.919014	0.000262	20.820923
2632.790815	-2.987900	2.927700	-8.746300	27.924073	0.000262	20.817480
2633.790117	-2.988500	2.925400	-8.741900	27.972646	0.000262	20.820851
2634.803660	-3.021900	2.922500	-8.830800	28.044372	0.000261	20.811495
2635.809771	-3.011100	2.920500	-8.792800	28.056299	0.000261	20.802638
2636.785730	-2.981000	2.920400	-8.704500	28.060834	0.000262	20.821428
2637.787868	-3.024500	2.917800	-8.824100	28.123136	0.000262	20.826298
2638.803857	-2.998500	2.916900	-8.744400	28.140812	0.000260	20.829868
2639.804984	-3.028900	2.916000	-8.830900	28.123314	0.000261	20.823632
2640.819127	-2.988200	2.914100	-8.706900	28.102094	0.000261	20.804168
2641.812207	-2.981400	2.912600	-8.682600	28.071949	0.000262	20.816021
2642.807724	-2.995600	2.910500	-8.717100	28.041830	0.000261	20.822213
2643.789402	-3.005600	2.908700	-8.740900	28.049840	0.000262	20.806568
2644.813997	-2.991900	2.907100	-8.696800	28.060058	0.000260	20.803577
2645.811677	-3.006700	2.903800	-8.729400	28.120249	0.000263	20.811539
2646.815950	-3.009900	2.905000	-8.741700	28.160336	0.000260	20.820600
2647.814653	-2.983400	2.903600	-8.660800	28.164824	0.000263	20.808048
2648.813903	-3.022200	2.900000	-8.763100	28.133172	0.000262	20.807478
2649.814157	-2.996200	2.898600	-8.683500	28.113316	0.000263	20.803610
2650.817133	-2.994900	2.897700	-8.677600	28.089614	0.000263	20.813890
2651.831582	-3.002800	2.894800	-8.691600	28.092068	0.000261	20.796445
2652.794371	-3.006800	2.892900	-8.697300	28.116736	0.000262	20.806105
2653.796158	-2.987300	2.892400	-8.639600	28.144155	0.000262	20.810474
2654.809484	-2.999300	2.888400	-8.662000	28.191281	0.000261	20.799596
2655.797383	-3.009100	2.888100	-8.689800	28.166439	0.000263	20.803511
2656.795221	-3.014500	2.885100	-8.696400	28.187836	0.000262	20.794232
2657.798913	-3.004500	2.883100	-8.661500	28.127969	0.000262	20.800343
2658.797397	-2.983600	2.882500	-8.598600	28.091528	0.000264	20.817713
2659.794654	-3.005500	2.881100	-8.657700	28.073755	0.000265	20.806934
2660.796224	-3.008600	2.878100	-8.658000	28.042963	0.000264	20.809129
2661.796253	-3.017200	2.876200	-8.676100	27.990655	0.000264	20.802943
2662.820992	-3.007300	2.874300	-8.643100	27.953961	0.000263	20.779759
2663.811177	-2.997400	2.872300	-8.608400	27.928300	0.000263	20.790441
2664.811925	-2.995500	2.871300	-8.599700	27.960704	0.000264	20.794606
2665.815707	-2.983900	2.870200	-8.563000	27.982619	0.000263	20.800070
2666.820497	-2.988500	2.868100	-8.571100	27.976222	0.000264	20.795053
2667.826406	-3.022900	2.864400	-8.657300	28.000793	0.000266	20.795130
2668.822024	-2.999500	2.863100	-8.585900	28.021517	0.000264	20.802240
2669.815099	-3.000300	2.860600	-8.581300	28.073627	0.000263	20.787839
2670.803263	-2.992000	2.858600	-8.551700	28.135280	0.000261	20.782574
2671.802390	-3.005900	2.856500	-8.584900	28.182968	0.000263	20.794072
2672.818704	-2.977400	2.855300	-8.499800	28.233213	0.000263	20.778750
2673.828782	-2.991100	2.852800	-8.532100	28.296390	0.000263	20.800633
2674.806795	-2.969300	2.853100	-8.471400	28.337385	0.000264	20.804451
2675.820168	-3.022000	2.848800	-8.607400	28.320604	0.000264	20.788029
2676.806969	-3.019500	2.846300	-8.592100	28.329278	0.000262	20.790599
2677.804132	-3.022200	2.845100	-8.596900	28.355126	0.000263	20.810935
2678.824132	-3.008100	2.842800	-8.551000	28.343030	0.000265	20.803498
2679.822495	-3.003400	2.840500	-8.528800	28.335466	0.000261	20.783079
2680.821619	-3.008700	2.839300	-8.541600	28.322948	0.000263	20.785174
2681.802557	-3.023700	2.835600	-8.573300	28.354474	0.000263	20.811702
2682.802747	-2.959400	2.835900	-8.391000	28.386843	0.000262	20.794508
2683.804043	-2.979900	2.832500	-8.438800	28.411151	0.000261	20.787217
2684.807737	-2.989600	2.830000	-8.459700	28.428472	0.000260	20.802288
2685.807070	-3.021000	2.826300	-8.536900	28.424656	0.000260	20.796074
2686.808451	-3.010800	2.827000	-8.511000	28.453723	0.000264	20.808276
2687.810351	-3.001900	2.822500	-8.472400	28.497909	0.000262	20.800615
2688.805634	-2.993600	2.820200	-8.441900	28.504005	0.000260	20.793003
2689.811171	-3.000000	2.818800	-8.455200	28.462842	0.000262	20.799440
2690.813277	-2.987200	2.817400	-8.413800	28.488440	0.000261	20.770216
2691.816082	-3.000500	2.813600	-8.440600	28.468218	0.000260	20.771189
2692.809482	-3.020700	2.812200	-8.493700	28.428146	0.000260	20.787735
2693.834328	-2.995000	2.809000	-8.412200	28.382222	0.000261	20.806925
2694.830667	-2.988800	2.805800	-8.384700	28.343683	0.000258	20.784240
2695.830948	-3.037300	2.802800	-8.511400	28.308660	0.000262	20.781219
2696.814208	-3.000700	2.802900	-8.409200	28.316939	0.000260	20.772959
2697.825321	-3.004200	2.799400	-8.409000	28.345194	0.000259	20.773908
2698.834047	-2.979500	2.797700	-8.334500	28.389658	0.000259	20.791653
2699.810701	-2.991600	2.794200	-8.358600	28.399990	0.000259	20.796841
2700.830781	-2.993300	2.790800	-8.351900	28.407327	0.000260	20.780995
2701.831302	-2.990600	2.789500	-8.341400	28.471044	0.000260	20.776879
2702.834354	-2.990100	2.785900	-8.328900	28.509379	0.000258	20.765698
2703.829964	-3.005600	2.784900	-8.368900	28.531135	0.000259	20.767694
2704.837303	-3.001400	2.781900	-8.348800	28.538594	0.000259	20.775206
2705.841514	-2.993200	2.778300	-8.312900	28.504991	0.000259	20.800160
2706.839470	-2.967000	2.776000	-8.235500	28.552100	0.000257	20.765574
2707.833831	-2.990900	2.772800	-8.291600	28.526328	0.000260	20.803157
2708.829908	-3.021000	2.769900	-8.365800	28.464301	0.000259	20.763925
2709.835380	-2.999100	2.767400	-8.298800	28.459642	0.000261	20.765872
2710.812366	-2.985600	2.764200	-8.252100	28.489259	0.000259	20.776730
2711.820570	-2.955400	2.763200	-8.165500	28.509280	0.000260	20.756115
2712.816472	-2.976900	2.758300	-8.209800	28.545657	0.000261	20.778525
2713.841671	-2.974300	2.755800	-8.195200	28.554972	0.000259	20.781742
2714.837379	-2.980600	2.753000	-8.203200	28.565036	0.000261	20.772438
2715.837856	-3.006900	2.748700	-8.264200	28.611621	0.000260	20.754395
2716.839740	-3.000500	2.747400	-8.242700	28.597620	0.000260	20.763054
2717.832965	-2.977300	2.743100	-8.166400	28.572096	0.000261	20.792350
2718.835130	-2.990800	2.740800	-8.196100	28.521820	0.000259	20.758787
2719.842290	-3.005100	2.736700	-8.223200	28.452158	0.000260	20.755015
2720.840497	-3.012000	2.733400	-8.231700	28.426389	0.000261	20.775534
2721.839169	-2.967600	2.731000	-8.103600	28.377932	0.000261	20.784587
2722.844216	-3.014200	2.728200	-8.221900	28.397885	0.000262	20.754417
2723.823529	-3.005800	2.722700	-8.183200	28.426285	0.000259	20.791551
2724.819769	-2.987700	2.720000	-8.125500	28.481326	0.000260	20.773483
2725.824716	-3.015800	2.716700	-8.191400	28.518817	0.000261	20.774255
2726.824454	-2.999700	2.713100	-8.137600	28.553584	0.000262	20.771810
2727.826774	-3.006700	2.709100	-8.144900	28.624726	0.000260	20.768069
2728.821460	-3.028800	2.703600	-8.187700	28.626656	0.000261	20.751994
2729.825998	-3.003800	2.703000	-8.118700	28.614169	0.000260	20.772135
2730.838059	-2.996900	2.698500	-8.086100	28.571004	0.000263	20.769439
2731.847962	-3.016600	2.693800	-8.124500	28.530588	0.000261	20.762401
2732.840544	-2.984200	2.691000	-8.029100	28.515694	0.000258	20.755936
2733.844096	-3.000200	2.689000	-8.066400	28.519860	0.000260	20.758235
2734.847138	-2.993700	2.684500	-8.035300	28.504520	0.000260	20.756537
2735.860446	-2.978300	2.680600	-7.983000	28.453245	0.000260	20.743782
2736.867533	-3.003200	2.676400	-8.037200	28.491361	0.000259	20.748501
2737.888358	-2.986800	2.673600	-7.984300	28.520999	0.000260	20.755115
2738.867690	-2.972200	2.668200	-7.928700	28.521125	0.000260	20.755716
2739.879008	-2.971500	2.664100	-7.915400	28.548432	0.000259	20.764251
2740.873742	-3.008600	2.658800	-7.998500	28.562953	0.000260	20.771289
2741.873521	-2.982700	2.656800	-7.923700	28.582779	0.000260	20.769444
2742.868052	-3.022600	2.650900	-8.010700	28.582059	0.000262	20.763029
2743.867007	-2.976900	2.647600	-7.880400	28.554607	0.000259	20.760512
2744.854193	-3.012300	2.643200	-7.960500	28.617051	0.000259	20.771718
2745.846441	-3.002100	2.638700	-7.920800	28.606844	0.000260	20.762387
2746.849684	-2.997800	2.635900	-7.901000	28.577605	0.000258	20.751431
2747.867130	-2.984200	2.629600	-7.846200	28.585858	0.000258	20.765433
2748.873855	-2.994600	2.625800	-7.862300	28.610711	0.000260	20.748263
2749.874372	-2.981200	2.621500	-7.814100	28.667576	0.000261	20.760018
2750.865777	-3.006300	2.615600	-7.861500	28.656453	0.000259	20.758298
2751.859903	-2.994800	2.610900	-7.817500	28.664557	0.000261	20.743227
2752.851872	-3.020500	2.603300	-7.862500	28.651031	0.000260	20.744302
2753.876618	-2.985200	2.601400	-7.764500	28.672886	0.000263	20.757780
2754.877991	-2.997300	2.594800	-7.776000	28.704431	0.000260	20.772484
2755.871759	-3.015400	2.589500	-7.807600	28.754354	0.000260	20.755439
2756.860446	-3.013300	2.583500	-7.784000	28.796770	0.000261	20.751224
2757.877264	-2.967500	2.579900	-7.653600	28.836606	0.000262	20.748679
2758.867542	-2.980100	2.575200	-7.674100	28.876367	0.000261	20.770717
2759.887351	-3.000500	2.569000	-7.707400	28.859899	0.000260	20.760765
2760.866322	-3.009700	2.562600	-7.712000	28.872284	0.000260	20.745266
2761.868204	-3.000900	2.558100	-7.675400	28.904714	0.000261	20.757547
2762.874978	-2.989600	2.552700	-7.630100	28.923986	0.000263	20.754203
2763.851686	-3.026300	2.545400	-7.702200	28.911305	0.000262	20.758498
2764.854202	-2.972200	2.541500	-7.552600	28.892208	0.000261	20.744949
2765.852300	-2.961300	2.535200	-7.506500	28.876353	0.000261	20.747468
2766.850615	-2.980900	2.528100	-7.534900	28.906454	0.000261	20.750765
2767.871626	-2.987600	2.522900	-7.535900	28.906456	0.000262	20.741759
2768.854449	-3.011000	2.516100	-7.575100	28.885052	0.000261	20.746749
2769.855987	-2.971500	2.509600	-7.456300	28.881487	0.000263	20.750743
2770.873549	-2.995300	2.504400	-7.500400	28.881265	0.000262	20.717327
2771.866231	-2.984900	2.497600	-7.454700	28.878890	0.000261	20.749075
