LabVIEW Measurement	
Writer_Version	2
Reader_Version	2
Separator	Tab
Decimal_Separator	.
Multi_Headings	No
X_Columns	One
Time_Pref	Absolute
Operator	admin
Description	Clolumns are: time, Current, Voltage, Power, Battery Temp, and Chamber Temp
Date	2024/08/16
Time	13:06:06.104549407958984375
***End_of_Header***	
	
Channels	6						
Samples	1	1	1	1	1	1	
Date	2024/09/11	2024/09/11	2024/09/11	2024/09/11	2024/09/11	2024/09/11	
Time	05:27:22.8290858268737792969	05:27:22.834056854248046875	05:27:22.8391375541687011719	05:27:22.8136248588562011719	05:27:22.8136248588562011719	05:27:22.8136248588562011719	
X_Dimension	Time	Time	Time	Time	Time	Time	
X0	0.0000000000000000E+0	0.0000000000000000E+0	0.0000000000000000E+0	0.0000000000000000E+0	0.0000000000000000E+0	0.0000000000000000E+0	
Delta_X	1.000000	1.000000	1.000000	1.000000	1.000000	1.000000	
***End_of_Header***							
X_Value	Untitled	Untitled 1	Untitled 2	Untitled 3	Untitled 4	Untitled 5	Comment
0.000000	0.026274	4.097600	0.107690	20.968601	0.000902	20.693600
1.000414	-3.000700	3.920200	-11.762000	20.968087	0.000902	20.705415
2.008121	-3.002100	3.913600	-11.746000	20.969754	0.000900	20.699495
3.001045	-2.996800	3.907900	-11.710000	20.983536	0.000899	20.703323
4.002476	-2.998600	3.904400	-11.706000	20.958762	0.000897	20.683285
5.002706	-2.997700	3.901200	-11.693000	20.988008	0.000897	20.686931
6.004043	-3.006600	3.897800	-11.718000	20.975887	0.000899	20.699940
7.002962	-3.002900	3.895700	-11.698000	20.979607	0.000896	20.696073
8.003157	-3.012100	3.893600	-11.727000	20.984167	0.000897	20.672656
9.005622	-2.999500	3.891500	-11.671000	21.001668	0.000895	20.679730
10.005276	-2.996900	3.891200	-11.661000	20.976542	0.000895	20.692059
11.004608	-3.002500	3.888900	-11.676000	21.003286	0.000895	20.683719
12.005277	-2.994100	3.887600	-11.639000	20.983810	0.000895	20.697906
13.005168	-3.012200	3.884000	-11.697000	20.977026	0.000892	20.707717
14.005153	-2.976800	3.885600	-11.566000	21.007284	0.000891	20.704315
15.007238	-3.025500	3.880400	-11.739000	21.008168	0.000890	20.704251
16.005368	-3.013400	3.880200	-11.691000	21.012493	0.000889	20.697197
17.007901	-2.991900	3.880900	-11.610000	21.021916	0.000890	20.718951
18.009828	-2.969200	3.879500	-11.517000	21.021368	0.000889	20.712239
19.005972	-3.005700	3.876400	-11.650000	21.028342	0.000891	20.701195
20.010152	-2.975300	3.877900	-11.536000	21.033288	0.000890	20.685752
21.006646	-3.002900	3.875900	-11.638000	21.033728	0.000890	20.702315
22.006906	-2.980500	3.876400	-11.553000	21.034261	0.000888	20.707590
23.009235	-2.989200	3.875100	-11.582000	21.038732	0.000887	20.695940
24.010417	-2.997400	3.874600	-11.612000	21.061985	0.000886	20.707819
25.010622	-3.005900	3.872100	-11.638000	21.058627	0.000885	20.700193
26.007677	-2.989100	3.873000	-11.575000	21.069506	0.000888	20.703962
27.008223	-3.012700	3.871900	-11.664000	21.053887	0.000886	20.714419
28.009569	-2.994800	3.872700	-11.595000	21.073396	0.000883	20.694576
29.011205	-3.011700	3.869900	-11.653000	21.068059	0.000884	20.714844
30.007487	-3.005800	3.869900	-11.632000	21.094386	0.000883	20.708459
31.008272	-3.001100	3.869400	-11.610000	21.102982	0.000884	20.709946
32.008125	-3.003500	3.867200	-11.612000	21.092221	0.000885	20.730003
33.008047	-2.987400	3.868800	-11.556000	21.109696	0.000884	20.718559
34.014595	-2.999200	3.866700	-11.596000	21.099756	0.000883	20.710038
35.008111	-2.991000	3.867300	-11.566000	21.129776	0.000883	20.717307
36.009159	-3.008500	3.867500	-11.634000	21.117901	0.000883	20.727241
37.008328	-3.027500	3.865800	-11.702000	21.130782	0.000884	20.708830
38.009360	-2.971600	3.865500	-11.485000	21.126091	0.000882	20.712673
39.010843	-2.972000	3.865600	-11.488000	21.128329	0.000882	20.695944
40.010365	-2.992200	3.863100	-11.558000	21.143947	0.000883	20.725794
41.010330	-2.978900	3.864500	-11.511000	21.168532	0.000881	20.719091
42.010880	-2.967100	3.864700	-11.465000	21.175364	0.000883	20.704113
43.011388	-2.970300	3.863400	-11.474000	21.172275	0.000881	20.708136
44.015389	-2.992500	3.863400	-11.557000	21.193424	0.000880	20.709378
45.014441	-3.019600	3.861200	-11.659000	21.202611	0.000881	20.704817
46.012316	-2.991000	3.862200	-11.551000	21.190605	0.000881	20.710825
47.011574	-2.995400	3.861700	-11.566000	21.225655	0.000881	20.724078
48.013390	-3.003900	3.859900	-11.592000	21.208650	0.000879	20.721291
49.012788	-3.004700	3.861000	-11.600000	21.219494	0.000880	20.722655
50.018113	-3.014400	3.859800	-11.633000	21.255760	0.000881	20.713890
51.013034	-2.985400	3.859300	-11.520000	21.227747	0.000880	20.703409
52.014418	-3.003500	3.860000	-11.592000	21.258687	0.000881	20.710654
53.013570	-3.000000	3.859600	-11.578000	21.249598	0.000880	20.701561
54.012961	-2.982600	3.861000	-11.514000	21.266246	0.000881	20.701146
55.022557	-3.009100	3.858200	-11.609000	21.275554	0.000881	20.709510
56.025602	-3.009600	3.857500	-11.609000	21.285873	0.000880	20.746389
57.016892	-2.993600	3.858700	-11.550000	21.296906	0.000879	20.706689
58.015357	-3.033300	3.856500	-11.697000	21.312038	0.000881	20.725623
59.014806	-3.021800	3.855000	-11.647000	21.335491	0.000879	20.717317
60.016494	-3.002900	3.857200	-11.582000	21.320799	0.000880	20.718739
61.015591	-3.004000	3.856700	-11.584000	21.334773	0.000878	20.732720
62.014366	-2.983200	3.856600	-11.503000	21.357634	0.000879	20.730462
63.015242	-3.001700	3.856400	-11.575000	21.365045	0.000879	20.716540
64.015220	-3.012800	3.853700	-11.609000	21.354717	0.000879	20.705731
65.015578	-2.993300	3.855000	-11.537000	21.379844	0.000878	20.725182
66.017665	-2.995000	3.855200	-11.545000	21.373429	0.000877	20.732989
67.016262	-3.023800	3.853300	-11.651000	21.393358	0.000880	20.719737
68.018010	-3.006300	3.854000	-11.585000	21.380367	0.000878	20.719541
69.018501	-2.992900	3.855100	-11.536000	21.386528	0.000877	20.734241
70.020640	-3.023400	3.853500	-11.649000	21.398287	0.000879	20.717082
71.022345	-3.009300	3.853000	-11.592000	21.404365	0.000877	20.736915
72.020119	-3.000700	3.852600	-11.559000	21.401278	0.000879	20.721971
73.022465	-3.019500	3.853400	-11.633000	21.437123	0.000880	20.732706
74.019844	-3.005800	3.852000	-11.578000	21.428871	0.000878	20.733458
75.021094	-2.998400	3.852300	-11.550000	21.441920	0.000881	20.729919
76.023930	-3.010000	3.852100	-11.593000	21.445335	0.000882	20.729068
77.023108	-2.984900	3.853500	-11.501000	21.417688	0.000878	20.734123
78.020993	-2.990800	3.852100	-11.520000	21.442370	0.000879	20.729420
79.020801	-3.019200	3.850300	-11.624000	21.448843	0.000881	20.735897
80.022209	-3.015000	3.850200	-11.606000	21.472087	0.000878	20.723593
81.023483	-3.019100	3.850200	-11.623000	21.467519	0.000880	20.719022
82.024845	-2.997900	3.851100	-11.545000	21.468599	0.000881	20.747605
83.023019	-2.995100	3.851100	-11.534000	21.502630	0.000882	20.735188
84.026658	-2.994200	3.849600	-11.526000	21.474139	0.000883	20.730388
85.024445	-3.017900	3.848300	-11.613000	21.497867	0.000880	20.715722
86.024034	-2.994400	3.849800	-11.527000	21.529117	0.000880	20.729449
87.027722	-2.987600	3.849900	-11.499000	21.522229	0.000879	20.729195
88.024370	-2.973700	3.850100	-11.447000	21.548896	0.000880	20.754458
89.025136	-3.001700	3.847800	-11.548000	21.527075	0.000880	20.731199
90.026045	-3.004500	3.847400	-11.558000	21.567181	0.000879	20.731976
91.024464	-2.981800	3.848600	-11.475000	21.563317	0.000881	20.739964
92.026149	-2.995400	3.848100	-11.525000	21.571553	0.000882	20.730661
93.029078	-3.004000	3.847200	-11.555000	21.573570	0.000882	20.742164
94.025670	-3.001100	3.846300	-11.541000	21.570883	0.000882	20.740423
95.027935	-2.985300	3.848400	-11.485000	21.594379	0.000882	20.740702
96.026202	-2.986600	3.847500	-11.490000	21.594345	0.000883	20.744461
97.026959	-3.010300	3.845300	-11.573000	21.597550	0.000881	20.728227
98.030124	-3.005000	3.846000	-11.556000	21.612883	0.000884	20.742149
99.028976	-2.996300	3.846600	-11.524000	21.607842	0.000883	20.754174
100.028594	-2.992400	3.846200	-11.508000	21.626272	0.000885	20.756496
101.026488	-2.992600	3.847000	-11.511000	21.652029	0.000885	20.739597
102.027313	-2.998400	3.845900	-11.530000	21.682762	0.000882	20.737163
103.029378	-2.992400	3.843400	-11.499000	21.626296	0.000882	20.750357
104.033734	-2.995200	3.844800	-11.515000	21.661431	0.000885	20.754697
105.029647	-3.008100	3.843200	-11.560000	21.687065	0.000884	20.764230
106.029875	-2.990000	3.843700	-11.492000	21.692604	0.000885	20.761238
107.030005	-3.009700	3.843800	-11.568000	21.664895	0.000885	20.741093
108.029998	-3.006700	3.844100	-11.557000	21.669501	0.000884	20.745229
109.029300	-2.992600	3.841800	-11.496000	21.687417	0.000884	20.741347
110.031046	-2.990600	3.842900	-11.492000	21.682571	0.000886	20.743611
111.033165	-2.987900	3.843400	-11.483000	21.692252	0.000886	20.764205
112.031414	-2.976400	3.844300	-11.440000	21.700771	0.000886	20.759454
113.032903	-2.986700	3.844300	-11.480000	21.731200	0.000887	20.743914
114.035805	-3.003700	3.842300	-11.540000	21.706612	0.000887	20.744437
115.033856	-2.978900	3.842300	-11.445000	21.739220	0.000886	20.752415
116.032821	-3.005700	3.841400	-11.545000	21.714681	0.000886	20.753935
117.031886	-3.003700	3.841000	-11.535000	21.753824	0.000884	20.755177
118.031639	-3.000800	3.842000	-11.528000	21.760979	0.000886	20.765183
119.032506	-2.997200	3.841600	-11.512000	21.767743	0.000886	20.775273
120.036609	-2.996700	3.839600	-11.503000	21.784105	0.000887	20.766518
121.033356	-3.027000	3.840300	-11.623000	21.795538	0.000888	20.784600
122.034381	-3.003500	3.840300	-11.533000	21.809579	0.000887	20.750763
123.034685	-2.989100	3.839700	-11.477000	21.818449	0.000888	20.778132
124.035740	-2.984500	3.841500	-11.462000	21.822991	0.000890	20.757074
125.040958	-3.009600	3.839700	-11.555000	21.822312	0.000892	20.782473
126.036432	-2.986300	3.840800	-11.468000	21.834106	0.000888	20.766777
127.038384	-2.993200	3.840200	-11.492000	21.845393	0.000889	20.756736
128.036863	-3.006400	3.840000	-11.543000	21.822082	0.000891	20.782244
129.037758	-2.993000	3.839100	-11.489000	21.842550	0.000891	20.773806
130.036973	-3.023300	3.838000	-11.601000	21.828216	0.000891	20.772736
131.037552	-2.990700	3.839600	-11.480000	21.873152	0.000891	20.765081
132.036815	-3.007300	3.837400	-11.538000	21.869240	0.000893	20.786296
133.040802	-3.010300	3.838000	-11.553000	21.884814	0.000889	20.763004
134.037833	-3.010800	3.837700	-11.553000	21.850340	0.000893	20.774491
135.038776	-3.008400	3.837400	-11.543000	21.876409	0.000892	20.771661
136.042572	-2.989200	3.838200	-11.472000	21.878050	0.000893	20.765243
137.039048	-3.002400	3.837000	-11.519000	21.872136	0.000894	20.769281
138.042114	-3.003400	3.837000	-11.522000	21.890308	0.000893	20.766133
139.038349	-3.016900	3.835600	-11.571000	21.904104	0.000892	20.772829
140.039980	-3.014400	3.836400	-11.563000	21.896515	0.000895	20.777561
141.039811	-2.999500	3.836900	-11.507000	21.931339	0.000895	20.787763
142.038700	-3.004300	3.837800	-11.528000	21.944251	0.000894	20.785041
143.039246	-3.001100	3.835700	-11.510000	21.952548	0.000895	20.773905
144.038374	-3.011800	3.836800	-11.555000	21.961914	0.000893	20.779014
145.039245	-3.004900	3.834800	-11.522000	21.960200	0.000896	20.785358
146.040996	-2.996200	3.835400	-11.490000	21.975323	0.000896	20.773470
147.043274	-3.007200	3.834100	-11.529000	21.999602	0.000898	20.770748
148.040151	-2.995500	3.835700	-11.488000	21.991975	0.000895	20.777337
149.040894	-3.019700	3.833400	-11.573000	22.012440	0.000894	20.778383
150.039791	-3.004900	3.832700	-11.516000	22.030902	0.000897	20.804926
151.042349	-3.003200	3.833800	-11.513000	22.018383	0.000897	20.783858
152.042295	-2.993700	3.834200	-11.477000	22.038701	0.000897	20.791396
153.042294	-2.990600	3.833500	-11.464000	22.031186	0.000896	20.801891
154.040864	-3.006400	3.832500	-11.520000	22.054101	0.000898	20.782631
155.041915	-2.990700	3.833100	-11.461000	22.051030	0.000900	20.801368
156.042033	-3.010400	3.832100	-11.535000	22.049307	0.000898	20.801539
157.043661	-2.979300	3.833600	-11.420000	22.060879	0.000900	20.772821
158.044230	-2.985300	3.833500	-11.443000	22.082729	0.000899	20.803705
159.043445	-3.016000	3.831900	-11.556000	22.093672	0.000901	20.796167
160.045646	-2.984800	3.831600	-11.434000	22.106215	0.000900	20.786440
161.046096	-3.007100	3.830600	-11.518000	22.094619	0.000900	20.779572
162.047085	-2.994100	3.831300	-11.470000	22.115800	0.000901	20.791294
163.051369	-2.989200	3.832000	-11.452000	22.116713	0.000904	20.798372
164.048482	-3.028700	3.829100	-11.595000	22.106074	0.000902	20.812377
165.050054	-2.999900	3.830300	-11.489000	22.129134	0.000902	20.814126
166.049187	-2.993300	3.831500	-11.467000	22.141995	0.000903	20.784328
167.048598	-3.033000	3.828700	-11.612000	22.140271	0.000901	20.804414
168.048539	-3.008300	3.829400	-11.517000	22.133192	0.000904	20.817240
169.050956	-2.988200	3.829800	-11.442000	22.129452	0.000904	20.813022
170.051581	-2.980400	3.830900	-11.417000	22.157311	0.000904	20.820051
171.052321	-2.975300	3.831100	-11.398000	22.155793	0.000905	20.809996
172.051880	-3.001600	3.829300	-11.493000	22.155719	0.000905	20.786215
173.052059	-2.999900	3.828200	-11.482000	22.136302	0.000905	20.802337
174.053384	-3.009700	3.829400	-11.524000	22.151652	0.000906	20.803006
175.050712	-3.000900	3.828500	-11.487000	22.191932	0.000907	20.807298
176.049381	-2.990400	3.830600	-11.454000	22.175356	0.000906	20.802082
177.054405	-3.017100	3.828100	-11.548000	22.189334	0.000908	20.797111
178.051556	-2.999600	3.827500	-11.480000	22.191776	0.000909	20.804771
179.050629	-2.979000	3.827800	-11.402000	22.229481	0.000909	20.786573
180.052972	-3.017300	3.827400	-11.547000	22.224730	0.000908	20.821171
181.051382	-3.002400	3.826700	-11.487000	22.233425	0.000909	20.814230
182.052138	-2.992100	3.827900	-11.453000	22.231751	0.000909	20.817769
183.053863	-3.003800	3.827400	-11.495000	22.229261	0.000910	20.830448
184.051202	-2.996300	3.826600	-11.465000	22.247949	0.000910	20.809806
185.051692	-3.015600	3.825700	-11.536000	22.236911	0.000911	20.822461
186.054221	-3.000000	3.826300	-11.478000	22.238927	0.000912	20.820213
187.053890	-3.004700	3.825400	-11.493000	22.244586	0.000911	20.825404
188.052483	-2.981200	3.826500	-11.407000	22.276909	0.000913	20.809405
189.055897	-3.003500	3.826200	-11.491000	22.255297	0.000914	20.807680
190.053192	-2.992500	3.825100	-11.446000	22.262556	0.000913	20.832966
191.052476	-3.015700	3.824000	-11.530000	22.276533	0.000914	20.826572
192.057914	-2.991400	3.824400	-11.440000	22.281220	0.000912	20.817989
193.055505	-3.016300	3.823300	-11.531000	22.293132	0.000913	20.814269
194.056359	-3.002200	3.825100	-11.482000	22.311878	0.000915	20.818815
195.059017	-2.999400	3.825500	-11.473000	22.320792	0.000917	20.825844
196.055773	-2.997300	3.824100	-11.461000	22.325249	0.000916	20.832678
197.056764	-3.018700	3.821700	-11.536000	22.344126	0.000916	20.822183
198.060333	-2.986600	3.823800	-11.419000	22.347367	0.000916	20.806937
199.057450	-3.003500	3.823000	-11.481000	22.365565	0.000918	20.828953
200.056815	-2.993600	3.822900	-11.444000	22.369197	0.000917	20.828796
201.063874	-2.993400	3.822800	-11.442000	22.366488	0.000918	20.829402
202.058002	-2.993000	3.821800	-11.437000	22.391086	0.000918	20.840757
203.058264	-2.994000	3.822200	-11.442000	22.398017	0.000918	20.821620
204.059523	-2.992000	3.821700	-11.434000	22.394522	0.000919	20.838509
205.058191	-3.001100	3.822800	-11.471000	22.409879	0.000921	20.817852
206.057490	-3.019500	3.820300	-11.534000	22.417855	0.000920	20.815882
207.060456	-3.016500	3.820100	-11.522000	22.417186	0.000919	20.840816
208.060296	-2.972500	3.823800	-11.365000	22.421086	0.000920	20.834764
209.059233	-3.013200	3.820900	-11.512000	22.435203	0.000920	20.829935
210.062468	-2.997400	3.820600	-11.451000	22.443823	0.000922	20.822920
211.060634	-2.998300	3.821200	-11.457000	22.449275	0.000922	20.837389
212.060497	-2.983800	3.821300	-11.401000	22.480948	0.000924	20.843978
213.061977	-2.982400	3.820700	-11.393000	22.459667	0.000923	20.821718
214.061509	-3.005700	3.821400	-11.485000	22.499281	0.000925	20.835312
215.061120	-3.016700	3.819800	-11.522000	22.493502	0.000924	20.829050
216.062877	-2.990600	3.821000	-11.427000	22.504948	0.000925	20.816806
217.061247	-2.995600	3.819000	-11.439000	22.505885	0.000928	20.823908
218.063336	-3.005200	3.818900	-11.476000	22.506661	0.000926	20.844599
219.065004	-3.022700	3.818200	-11.540000	22.540227	0.000926	20.850240
220.063041	-2.991100	3.819300	-11.422000	22.512948	0.000928	20.847576
221.064271	-2.987200	3.817500	-11.402000	22.511445	0.000929	20.836113
222.066766	-2.992800	3.817400	-11.424000	22.506295	0.000928	20.836646
223.065308	-3.016400	3.817500	-11.513000	22.472499	0.000929	20.811336
224.064772	-2.998900	3.817500	-11.448000	22.502800	0.000932	20.819870
225.067142	-3.025500	3.816600	-11.546000	22.511723	0.000930	20.824064
226.064369	-3.005900	3.816300	-11.471000	22.524588	0.000932	20.818458
227.064147	-2.990200	3.816600	-11.412000	22.505275	0.000933	20.837521
228.066123	-2.992000	3.815700	-11.416000	22.557060	0.000932	20.830116
229.065245	-2.981700	3.817200	-11.381000	22.526638	0.000932	20.802019
230.066590	-2.999800	3.816200	-11.447000	22.561125	0.000933	20.815221
231.067553	-3.028400	3.814500	-11.551000	22.561843	0.000933	20.811673
232.065829	-2.976500	3.817300	-11.360000	22.563819	0.000936	20.823135
233.065615	-2.996900	3.815800	-11.434000	22.581419	0.000936	20.829856
234.068266	-3.002600	3.816700	-11.458000	22.584601	0.000935	20.802224
235.067186	-2.990300	3.815200	-11.408000	22.582234	0.000935	20.819293
236.067405	-2.972800	3.816300	-11.344000	22.596714	0.000935	20.825261
237.069169	-2.977000	3.815100	-11.356000	22.614762	0.000936	20.810147
238.069753	-2.997300	3.813600	-11.430000	22.583215	0.000938	20.817431
239.069589	-2.975100	3.813800	-11.345000	22.586587	0.000937	20.824127
240.069835	-3.004800	3.814700	-11.462000	22.576694	0.000939	20.825124
241.072017	-2.992100	3.815000	-11.414000	22.600496	0.000937	20.813877
242.070796	-3.022800	3.812300	-11.522000	22.589901	0.000939	20.806110
243.073599	-2.991900	3.814100	-11.411000	22.592644	0.000938	20.806486
244.073953	-3.018000	3.812100	-11.503000	22.617963	0.000940	20.815724
245.074153	-3.015300	3.812600	-11.495000	22.606216	0.000941	20.812019
246.073084	-3.004200	3.811700	-11.450000	22.629896	0.000940	20.803494
247.072809	-3.009800	3.812200	-11.473000	22.600106	0.000944	20.791674
248.074224	-2.985100	3.811300	-11.376000	22.619384	0.000943	20.787275
249.075338	-2.986900	3.812200	-11.386000	22.630428	0.000942	20.800234
250.075628	-3.011200	3.811200	-11.474000	22.641013	0.000944	20.811784
251.076334	-2.991100	3.812500	-11.403000	22.619637	0.000943	20.811237
252.077623	-3.005800	3.809900	-11.451000	22.629154	0.000943	20.793742
253.075492	-3.007900	3.811400	-11.463000	22.624029	0.000946	20.802834
254.076393	-3.003600	3.810800	-11.446000	22.630242	0.000946	20.787720
255.078280	-3.001300	3.811100	-11.437000	22.648377	0.000945	20.799720
256.077559	-3.005000	3.810200	-11.448000	22.647055	0.000946	20.790809
257.076609	-3.006500	3.809900	-11.454000	22.657674	0.000947	20.805713
258.079499	-2.991900	3.811100	-11.402000	22.659797	0.000946	20.783657
259.076515	-2.990700	3.810400	-11.395000	22.656654	0.000948	20.776716
260.077457	-3.009500	3.809300	-11.463000	22.664628	0.000947	20.783281
261.078185	-3.018000	3.808100	-11.492000	22.696051	0.000949	20.806221
262.078822	-3.012700	3.808400	-11.471000	22.680250	0.000949	20.792764
263.079170	-3.021200	3.807200	-11.501000	22.681655	0.000949	20.784214
264.079386	-3.035700	3.807100	-11.556000	22.702327	0.000949	20.774575
265.077961	-2.999700	3.809200	-11.425000	22.711599	0.000949	20.775802
266.078730	-3.019100	3.808500	-11.496000	22.707651	0.000950	20.772321
267.082587	-2.994300	3.807000	-11.398000	22.730011	0.000954	20.758683
268.080607	-2.998400	3.807800	-11.417000	22.748784	0.000952	20.772746
269.079804	-2.996600	3.807800	-11.408000	22.749770	0.000951	20.771363
270.081033	-3.011600	3.807000	-11.463000	22.767293	0.000953	20.787968
271.080975	-3.003700	3.806700	-11.431000	22.777526	0.000953	20.786839
272.083371	-3.008900	3.806200	-11.451000	22.765351	0.000954	20.766582
273.084013	-3.012200	3.807000	-11.467000	22.778131	0.000955	20.796928
274.082633	-2.996900	3.806900	-11.408000	22.771104	0.000954	20.787045
275.082970	-3.009600	3.806200	-11.454000	22.785084	0.000955	20.794411
276.082911	-2.999600	3.805700	-11.414000	22.802915	0.000953	20.753951
277.083786	-2.989200	3.804500	-11.371000	22.829479	0.000954	20.805219
278.083558	-2.990500	3.806500	-11.381000	22.830679	0.000955	20.782713
279.085102	-3.006800	3.805300	-11.441000	22.827088	0.000957	20.762046
280.084310	-3.002100	3.804000	-11.419000	22.818763	0.000956	20.775044
281.083518	-3.002000	3.803700	-11.418000	22.828556	0.000956	20.778216
282.085636	-2.995600	3.803600	-11.393000	22.841819	0.000959	20.773010
283.085735	-2.998200	3.802800	-11.400000	22.819744	0.000959	20.785984
284.084409	-2.986700	3.803300	-11.358000	22.844493	0.000959	20.776163
285.086284	-2.999500	3.802900	-11.405000	22.845327	0.000960	20.782689
286.084984	-3.015800	3.802100	-11.465000	22.863108	0.000962	20.758776
287.085246	-2.998800	3.802300	-11.401000	22.854759	0.000962	20.776965
288.084620	-2.982300	3.803700	-11.341000	22.855779	0.000962	20.770874
289.085896	-3.004000	3.802900	-11.423000	22.869309	0.000964	20.759773
290.086452	-3.021200	3.802200	-11.486000	22.862927	0.000963	20.772346
291.089354	-3.003400	3.801700	-11.416000	22.886977	0.000963	20.761352
292.088034	-2.990700	3.801000	-11.367000	22.910061	0.000963	20.782582
293.090062	-3.000800	3.801800	-11.407000	22.912793	0.000963	20.759714
294.091732	-2.983100	3.800700	-11.336000	22.909416	0.000963	20.769608
295.088013	-3.012400	3.800400	-11.447000	22.928543	0.000964	20.768381
296.088470	-2.977300	3.801700	-11.317000	22.929572	0.000965	20.767990
297.089458	-2.993700	3.800800	-11.377000	22.945785	0.000965	20.768112
298.087144	-3.017500	3.798600	-11.461000	22.901117	0.000966	20.769828
299.088141	-3.004400	3.799900	-11.415000	22.915813	0.000966	20.765111
300.091734	-2.976300	3.801000	-11.312000	22.887075	0.000967	20.765243
301.088980	-2.996800	3.801400	-11.390000	22.890739	0.000966	20.772707
302.089800	-3.008500	3.799200	-11.429000	22.863664	0.000965	20.751746
303.093431	-3.008100	3.799300	-11.427000	22.858721	0.000967	20.761967
304.090757	-3.006200	3.798300	-11.416000	22.905274	0.000969	20.782527
305.090106	-2.992500	3.799400	-11.368000	22.913237	0.000971	20.746408
306.093864	-3.008100	3.797900	-11.423000	22.935114	0.000967	20.755050
307.090203	-3.001800	3.797600	-11.399000	22.950454	0.000969	20.752401
308.089128	-2.986900	3.797200	-11.341000	22.949907	0.000970	20.750905
309.091350	-3.014500	3.797200	-11.444000	22.937832	0.000970	20.775317
310.089892	-2.986000	3.796800	-11.336000	22.935187	0.000971	20.778832
311.090969	-3.011200	3.795900	-11.429000	22.940662	0.000972	20.749228
312.095242	-2.992500	3.797200	-11.362000	22.973604	0.000973	20.759948
313.092965	-3.004800	3.795600	-11.404000	22.981723	0.000975	20.748167
314.092255	-3.013100	3.795400	-11.435000	22.985606	0.000974	20.761068
315.096022	-3.022400	3.794500	-11.467000	22.964178	0.000973	20.759988
316.096189	-2.990400	3.796000	-11.351000	22.952625	0.000974	20.774491
317.094720	-3.000800	3.794100	-11.384000	22.966242	0.000973	20.740718
318.098663	-3.002200	3.794300	-11.390000	22.973595	0.000976	20.734807
319.094360	-3.008700	3.793800	-11.413000	22.985694	0.000975	20.751673
320.095788	-2.998100	3.794600	-11.375000	23.016586	0.000974	20.755598
321.097995	-2.982600	3.793500	-11.314000	23.008263	0.000977	20.744887
322.097260	-3.003400	3.792300	-11.389000	23.031476	0.000976	20.743015
323.096885	-2.977200	3.793500	-11.292000	23.038247	0.000976	20.754542
324.099918	-3.025900	3.792100	-11.473000	23.063050	0.000975	20.756634
325.096788	-3.018600	3.793300	-11.448000	23.070475	0.000976	20.747004
326.098210	-3.001700	3.792700	-11.383000	23.068158	0.000978	20.765546
327.098254	-2.997600	3.792800	-11.368000	23.075158	0.000977	20.749326
328.097514	-3.029900	3.790700	-11.484000	23.098189	0.000977	20.768611
329.099257	-3.002900	3.791700	-11.386000	23.113453	0.000979	20.737912
330.098684	-3.010800	3.790700	-11.411000	23.123512	0.000979	20.750837
331.099269	-2.992300	3.791800	-11.346000	23.134273	0.000979	20.743602
332.099037	-3.000700	3.790400	-11.373000	23.160503	0.000979	20.749023
333.101260	-2.992400	3.791700	-11.345000	23.152254	0.000979	20.747395
334.100591	-3.008300	3.789100	-11.397000	23.179249	0.000979	20.744101
335.100605	-3.009800	3.790000	-11.406000	23.180654	0.000980	20.745982
336.102228	-3.003800	3.788900	-11.381000	23.186878	0.000981	20.758858
337.100515	-2.982600	3.790000	-11.303000	23.180668	0.000982	20.750739
338.100285	-3.003100	3.788300	-11.376000	23.146830	0.000982	20.747650
339.102029	-3.017900	3.787600	-11.430000	23.137171	0.000981	20.752196
340.100383	-2.991600	3.789200	-11.335000	23.141698	0.000984	20.729230
341.104138	-2.980200	3.788400	-11.289000	23.148395	0.000983	20.740684
342.103775	-2.985800	3.788400	-11.310000	23.159034	0.000984	20.730956
343.103986	-2.993000	3.787600	-11.335000	23.174747	0.000983	20.743856
344.103536	-3.021700	3.786700	-11.442000	23.143044	0.000985	20.753814
345.104653	-3.015100	3.786800	-11.416000	23.142571	0.000983	20.738640
346.103412	-3.005500	3.786600	-11.379000	23.175800	0.000983	20.736851
347.112897	-2.990300	3.787000	-11.323000	23.144766	0.000985	20.735150
348.105836	-2.997800	3.787000	-11.350000	23.145654	0.000985	20.740781
349.104701	-2.970500	3.786100	-11.246000	23.167454	0.000986	20.746031
350.104724	-2.991200	3.786700	-11.326000	23.211131	0.000987	20.735272
351.103990	-2.971900	3.786400	-11.251000	23.185566	0.000987	20.723877
352.106430	-3.023300	3.784000	-11.438000	23.193902	0.000987	20.721799
353.107227	-2.996800	3.786000	-11.344000	23.189604	0.000988	20.745943
354.107857	-2.979200	3.786200	-11.279000	23.203204	0.000989	20.727328
355.106951	-2.989600	3.784700	-11.315000	23.199019	0.000988	20.727401
356.106924	-3.026600	3.783000	-11.449000	23.222774	0.000989	20.739354
357.106531	-2.994800	3.784100	-11.332000	23.208677	0.000991	20.725700
358.107834	-3.006800	3.783400	-11.375000	23.248772	0.000989	20.740278
359.107307	-2.994900	3.783500	-11.330000	23.262161	0.000989	20.737574
360.108656	-3.000000	3.783800	-11.349000	23.256849	0.000992	20.742208
361.107493	-3.009400	3.782700	-11.381000	23.257454	0.000991	20.728589
362.107917	-3.012000	3.782600	-11.391000	23.267282	0.000992	20.721843
363.114243	-2.982300	3.783100	-11.282000	23.276608	0.000990	20.721232
364.112135	-2.986200	3.782700	-11.295000	23.232509	0.000992	20.729195
365.109265	-3.001200	3.781800	-11.349000	23.245470	0.000993	20.736968
366.111888	-2.984200	3.782900	-11.288000	23.260171	0.000990	20.735105
367.110301	-2.990200	3.781800	-11.307000	23.248367	0.000991	20.730862
368.109838	-3.003100	3.782300	-11.357000	23.262643	0.000991	20.725729
369.112537	-3.004300	3.780600	-11.356000	23.261234	0.000993	20.708194
370.108644	-2.997200	3.780500	-11.330000	23.278705	0.000991	20.714324
371.109029	-3.005800	3.780200	-11.361000	23.283822	0.000993	20.714236
372.111500	-3.006100	3.780000	-11.361000	23.299654	0.000994	20.726785
373.110320	-2.999600	3.779500	-11.336000	23.310331	0.000994	20.726580
374.110672	-2.992000	3.780500	-11.310000	23.316432	0.000994	20.745972
375.113380	-3.000000	3.779600	-11.338000	23.329191	0.000993	20.730309
376.110518	-3.010800	3.777900	-11.373000	23.346500	0.000993	20.706879
377.110076	-2.996600	3.779500	-11.325000	23.371286	0.000995	20.714652
378.112156	-3.015900	3.777500	-11.392000	23.361800	0.000996	20.732646
379.110128	-3.014800	3.778300	-11.389000	23.359884	0.000996	20.723612
380.111248	-3.005900	3.777500	-11.354000	23.332103	0.000995	20.721373
381.111213	-3.007700	3.777500	-11.361000	23.334771	0.000996	20.718831
382.111085	-2.998200	3.776600	-11.322000	23.369453	0.000995	20.710917
383.112113	-3.030500	3.776200	-11.442000	23.362829	0.000996	20.718504
384.113037	-2.984200	3.777400	-11.270000	23.370823	0.000997	20.708497
385.111677	-3.007900	3.776700	-11.358000	23.370701	0.000997	20.704581
386.110756	-2.993500	3.776100	-11.303000	23.379338	0.001000	20.693797
387.111878	-3.001400	3.774100	-11.327000	23.402143	0.000999	20.703853
388.110108	-2.988800	3.775400	-11.282000	23.403114	0.000998	20.702455
389.112771	-2.994500	3.774900	-11.304000	23.385903	0.000999	20.726932
390.116854	-2.994700	3.774600	-11.303000	23.388580	0.001000	20.719657
391.109336	-2.990700	3.774900	-11.288000	23.399027	0.000997	20.699781
392.111812	-2.985800	3.774000	-11.267000	23.391687	0.001000	20.703804
393.114500	-3.016900	3.772800	-11.381000	23.349617	0.001000	20.706209
394.111263	-3.009000	3.772800	-11.351000	23.357152	0.001000	20.708072
395.112609	-3.025400	3.772600	-11.412000	23.371516	0.001000	20.728158
396.115178	-3.000100	3.772500	-11.317000	23.399842	0.000998	20.704865
397.113412	-2.995300	3.773800	-11.303000	23.365643	0.001000	20.701408
398.112557	-2.963100	3.773600	-11.181000	23.379582	0.001000	20.721070
399.115739	-2.981000	3.773300	-11.247000	23.405455	0.001002	20.699585
400.115343	-3.009500	3.772600	-11.353000	23.410200	0.001003	20.708609
401.115800	-3.004500	3.772000	-11.332000	23.434882	0.001003	20.675025
402.115574	-3.006100	3.771700	-11.337000	23.452882	0.001001	20.693069
403.116212	-3.002700	3.771100	-11.322000	23.453078	0.001002	20.704171
404.115306	-2.986400	3.772000	-11.262000	23.468722	0.001003	20.720801
405.120313	-2.999400	3.770100	-11.307000	23.490472	0.001003	20.699927
406.117441	-2.984500	3.769500	-11.249000	23.507428	0.001004	20.684205
407.117774	-3.008000	3.770800	-11.341000	23.514377	0.001004	20.682636
408.117992	-2.993900	3.770300	-11.288000	23.525671	0.001005	20.703916
409.117785	-2.984200	3.771100	-11.252000	23.524422	0.001003	20.703613
410.120396	-3.008100	3.767900	-11.333000	23.505306	0.001004	20.701047
411.120006	-3.013300	3.767000	-11.350000	23.488643	0.001003	20.703785
412.119732	-2.993300	3.767500	-11.277000	23.466533	0.001004	20.702958
413.120039	-3.000100	3.768800	-11.306000	23.443485	0.001005	20.704987
414.121964	-2.990300	3.768100	-11.267000	23.430084	0.001007	20.699615
415.119576	-2.995700	3.768100	-11.287000	23.443695	0.001003	20.717052
416.119268	-2.989200	3.768100	-11.261000	23.456248	0.001006	20.708297
417.124713	-3.024600	3.765100	-11.387000	23.487844	0.001006	20.677850
418.121381	-3.012100	3.767200	-11.345000	23.507930	0.001006	20.708893
419.126198	-3.010500	3.765700	-11.336000	23.503780	0.001003	20.695723
420.120988	-3.003600	3.767000	-11.313000	23.484059	0.001003	20.706776
421.123090	-3.008400	3.764300	-11.324000	23.484425	0.001007	20.685804
422.122114	-3.026500	3.764400	-11.392000	23.506975	0.001006	20.670948
423.122963	-3.006600	3.764300	-11.317000	23.501942	0.001006	20.707158
424.124394	-2.994200	3.765100	-11.272000	23.493013	0.001006	20.711010
425.123776	-2.973800	3.765900	-11.198000	23.489848	0.001007	20.691241
426.122404	-2.984000	3.765200	-11.233000	23.498811	0.001006	20.694536
427.126136	-3.012000	3.762600	-11.331000	23.501952	0.001006	20.687726
428.123936	-2.987800	3.764300	-11.245000	23.521058	0.001007	20.693128
429.124676	-3.008400	3.765000	-11.326000	23.515382	0.001008	20.692654
430.129011	-2.981900	3.763900	-11.222000	23.514943	0.001008	20.694585
431.125036	-3.012300	3.762300	-11.331000	23.507935	0.001008	20.697992
432.126759	-3.002300	3.761800	-11.293000	23.508067	0.001009	20.696701
433.127361	-3.026300	3.761100	-11.381000	23.530006	0.001008	20.696882
434.126368	-3.004700	3.761100	-11.300000	23.535600	0.001009	20.689212
435.127043	-2.992800	3.761300	-11.256000	23.554773	0.001010	20.685673
436.130499	-2.999100	3.761600	-11.281000	23.552042	0.001010	20.679141
437.127527	-3.007800	3.761500	-11.313000	23.556787	0.001009	20.700495
438.127785	-2.980200	3.761800	-11.210000	23.587346	0.001011	20.686083
439.129617	-2.977600	3.761700	-11.200000	23.580193	0.001009	20.683179
440.127959	-3.009700	3.758100	-11.309000	23.590838	0.001010	20.687686
441.127780	-3.014500	3.759200	-11.331000	23.573785	0.001010	20.693827
442.129641	-2.998900	3.759200	-11.272000	23.560322	0.001011	20.710203
443.128656	-2.983900	3.758500	-11.215000	23.528655	0.001011	20.696950
444.127385	-2.999800	3.757800	-11.272000	23.564155	0.001010	20.687017
445.129787	-2.998600	3.759600	-11.273000	23.557469	0.001010	20.676995
446.131434	-3.001600	3.757900	-11.279000	23.595889	0.001011	20.682318
447.129879	-3.004100	3.757300	-11.286000	23.626745	0.001012	20.685750
448.136396	-2.984500	3.758700	-11.216000	23.610234	0.001012	20.694330
449.136136	-2.989400	3.757100	-11.230000	23.638939	0.001012	20.701296
450.132401	-2.992600	3.757600	-11.244000	23.656429	0.001013	20.685164
451.133482	-3.017900	3.757700	-11.338000	23.668711	0.001011	20.695581
452.135546	-3.015000	3.755400	-11.322000	23.672324	0.001013	20.688297
453.132625	-3.000100	3.757100	-11.270000	23.696088	0.001011	20.694104
454.136600	-3.012500	3.755900	-11.314000	23.682885	0.001015	20.687505
455.135609	-3.012700	3.755900	-11.314000	23.668175	0.001011	20.682240
456.132280	-3.003300	3.754600	-11.275000	23.682626	0.001011	20.651206
457.136205	-2.998300	3.754700	-11.255000	23.676298	0.001013	20.686116
458.136899	-2.994300	3.755400	-11.244000	23.669784	0.001013	20.680533
459.134595	-2.972700	3.755100	-11.162000	23.658008	0.001013	20.692437
460.145724	-2.993600	3.752800	-11.232000	23.673903	0.001012	20.666644
461.138510	-3.009900	3.753300	-11.294000	23.701807	0.001015	20.684664
462.135712	-2.997500	3.754400	-11.252000	23.693065	0.001015	20.694393
463.140965	-2.987900	3.753200	-11.213000	23.687326	0.001014	20.672041
464.140510	-3.000700	3.753100	-11.261000	23.693050	0.001012	20.685842
465.137474	-3.002700	3.751500	-11.263000	23.681422	0.001014	20.674657
466.139411	-2.993800	3.752500	-11.232000	23.670032	0.001015	20.680308
467.139293	-3.000100	3.752500	-11.257000	23.643473	0.001016	20.672648
468.137810	-2.987400	3.751000	-11.205000	23.651367	0.001016	20.666336
469.136927	-2.995600	3.750600	-11.234000	23.654010	0.001015	20.687954
470.137344	-2.974400	3.751600	-11.158000	23.674030	0.001016	20.686213
471.138003	-3.005800	3.749500	-11.270000	23.676395	0.001013	20.671513
472.137471	-2.984100	3.751200	-11.194000	23.685127	0.001015	20.661775
473.138708	-2.985600	3.750200	-11.194000	23.728769	0.001016	20.694627
474.136955	-2.975600	3.749900	-11.157000	23.730734	0.001015	20.675258
475.138539	-2.990700	3.749700	-11.214000	23.749529	0.001016	20.674187
476.137868	-2.997900	3.748300	-11.237000	23.776665	0.001015	20.684801
477.138070	-2.997100	3.749600	-11.237000	23.767558	0.001017	20.687998
478.138727	-2.984100	3.748400	-11.185000	23.743610	0.001015	20.669201
479.138990	-2.992400	3.746800	-11.209000	23.761727	0.001016	20.684522
480.139447	-2.987900	3.748800	-11.200000	23.746496	0.001017	20.689640
481.137897	-3.002500	3.747600	-11.251000	23.764043	0.001017	20.696328
482.138113	-2.995900	3.746500	-11.223000	23.731894	0.001017	20.672153
483.138364	-2.986300	3.747600	-11.190000	23.779088	0.001017	20.710466
484.139338	-3.002000	3.747000	-11.247000	23.794440	0.001016	20.680337
485.140316	-2.987300	3.746400	-11.191000	23.776504	0.001017	20.687010
486.139881	-2.992800	3.745500	-11.208000	23.793470	0.001017	20.693590
487.139472	-3.010400	3.747200	-11.279000	23.791432	0.001015	20.686805
488.138941	-3.016600	3.744500	-11.294000	23.800042	0.001017	20.690222
489.139504	-2.988900	3.745200	-11.193000	23.780736	0.001018	20.689831
490.140877	-3.011100	3.744400	-11.273000	23.790194	0.001015	20.683192
491.140776	-3.008300	3.743900	-11.262000	23.787566	0.001019	20.688144
492.140928	-2.998000	3.743500	-11.222000	23.837956	0.001018	20.685089
493.141634	-2.987800	3.744300	-11.186000	23.840286	0.001018	20.695961
494.142592	-3.013500	3.742300	-11.276000	23.826148	0.001016	20.705020
495.140920	-3.016600	3.742600	-11.288000	23.836503	0.001018	20.685055
496.141874	-3.007000	3.742100	-11.251000	23.834963	0.001017	20.699158
497.143757	-2.990700	3.742600	-11.192000	23.842797	0.001019	20.701324
498.143774	-2.985900	3.742500	-11.174000	23.858670	0.001019	20.682151
499.146993	-2.992700	3.742000	-11.199000	23.851552	0.001016	20.675013
500.143911	-3.027100	3.740800	-11.322000	23.877390	0.001019	20.684801
501.144282	-3.005000	3.741000	-11.240000	23.864964	0.001017	20.675185
502.143736	-2.995900	3.740900	-11.206000	23.843782	0.001018	20.704208
503.147060	-3.004400	3.741100	-11.239000	23.866855	0.001018	20.678504
504.143486	-3.003700	3.741200	-11.235000	23.857593	0.001019	20.688184
505.144772	-3.004100	3.739700	-11.234000	23.850899	0.001017	20.697120
506.148111	-3.003800	3.738800	-11.229000	23.844654	0.001018	20.719783
507.144253	-2.999800	3.739600	-11.216000	23.849773	0.001020	20.699784
508.146305	-3.013700	3.738900	-11.267000	23.860323	0.001018	20.693767
509.148516	-3.007800	3.739100	-11.245000	23.895739	0.001017	20.695140
510.148121	-3.014200	3.738300	-11.267000	23.886379	0.001018	20.703299
511.146169	-2.968700	3.738300	-11.097000	23.848623	0.001016	20.687724
512.155030	-2.996600	3.737300	-11.198000	23.843299	0.001018	20.708941
513.147317	-3.005500	3.737300	-11.232000	23.844342	0.001018	20.699555
514.147882	-3.002300	3.737100	-11.219000	23.863999	0.001018	20.683701
515.152843	-3.012200	3.736200	-11.253000	23.854999	0.001020	20.695541
516.148676	-2.988400	3.737400	-11.169000	23.844596	0.001018	20.702180
517.148269	-3.008100	3.737100	-11.241000	23.847823	0.001019	20.693087
518.152206	-3.002900	3.736900	-11.221000	23.866119	0.001019	20.697208
519.149346	-2.976700	3.735600	-11.119000	23.900287	0.001020	20.702547
520.148612	-2.986000	3.736100	-11.155000	23.916919	0.001016	20.709268
521.153239	-3.002200	3.736200	-11.215000	23.932865	0.001020	20.704394
522.150387	-3.005100	3.735100	-11.223000	23.920970	0.001020	20.721392
523.149520	-2.971600	3.734900	-11.098000	23.938587	0.001019	20.712979
524.154887	-3.028700	3.732200	-11.302000	23.958154	0.001018	20.715056
525.149989	-3.002500	3.733700	-11.208000	23.977335	0.001020	20.705367
526.152189	-3.027300	3.733600	-11.301000	24.000152	0.001018	20.714973
527.154644	-2.991600	3.733800	-11.169000	24.009194	0.001020	20.712187
528.152576	-2.964100	3.734300	-11.067000	23.992124	0.001018	20.706447
529.152303	-2.999700	3.732300	-11.193000	24.021136	0.001019	20.707093
530.154869	-2.990500	3.732100	-11.160000	24.011036	0.001021	20.700283
531.154586	-3.001700	3.732800	-11.204000	24.044132	0.001020	20.696964
532.154594	-3.005200	3.730200	-11.209000	24.011568	0.001019	20.694177
533.161959	-3.019500	3.730500	-11.263000	24.031026	0.001019	20.700889
534.156567	-2.987600	3.730900	-11.145000	24.041198	0.001019	20.698288
535.155297	-3.021900	3.730900	-11.273000	24.035329	0.001020	20.716112
536.159229	-2.993900	3.731300	-11.170000	24.064048	0.001019	20.692754
537.156026	-2.995200	3.728600	-11.166000	24.080366	0.001019	20.696792
538.155094	-3.016500	3.729100	-11.246000	24.101519	0.001019	20.710896
539.158648	-2.974600	3.729600	-11.093000	24.089276	0.001019	20.696245
540.157570	-2.991400	3.729700	-11.156000	24.060494	0.001018	20.700097
541.153418	-2.998100	3.728700	-11.178000	24.045356	0.001019	20.723323
542.158347	-2.996000	3.729100	-11.172000	24.012986	0.001018	20.707929
543.155339	-3.037600	3.726200	-11.317000	23.999616	0.001019	20.731032
544.157778	-3.004300	3.727200	-11.196000	24.002730	0.001018	20.704282
545.160335	-3.009700	3.726000	-11.213000	24.000766	0.001017	20.719857
546.158938	-2.992900	3.726600	-11.153000	24.001531	0.001018	20.724418
547.157749	-3.003900	3.726600	-11.193000	23.973596	0.001016	20.719637
548.163114	-3.009500	3.725900	-11.211000	23.973767	0.001017	20.712695
549.160941	-2.992700	3.726200	-11.150000	23.980542	0.001019	20.724232
550.158998	-3.001900	3.725200	-11.181000	23.999396	0.001018	20.717060
551.164001	-2.992800	3.724000	-11.143000	23.999055	0.001018	20.724305
552.161348	-3.018400	3.724100	-11.239000	24.000098	0.001019	20.710177
553.162341	-2.996800	3.724000	-11.159000	23.980377	0.001020	20.716005
554.165756	-2.996300	3.723800	-11.157000	24.002682	0.001018	20.714191
555.162606	-2.973900	3.724900	-11.076000	24.011348	0.001019	20.745643
556.162521	-3.000800	3.724000	-11.173000	24.030489	0.001018	20.732122
557.165355	-2.989600	3.724300	-11.133000	24.044615	0.001021	20.715467
558.165464	-3.034200	3.720600	-11.288000	24.063331	0.001020	20.720013
559.163730	-2.974600	3.723200	-11.074000	24.073611	0.001019	20.727478
560.166686	-3.013500	3.721000	-11.212000	24.100573	0.001018	20.722276
561.166786	-2.982200	3.722700	-11.102000	24.126283	0.001019	20.740476
562.163763	-3.012300	3.721600	-11.210000	24.152260	0.001018	20.716743
563.166732	-3.004100	3.720600	-11.175000	24.105774	0.001018	20.710422
564.167492	-3.028500	3.720100	-11.265000	24.104039	0.001018	20.715794
565.163749	-2.980500	3.721700	-11.091000	24.098136	0.001018	20.714142
566.176895	-3.004700	3.720100	-11.177000	24.076389	0.001019	20.724100
567.166366	-3.016200	3.719300	-11.217000	24.108113	0.001017	20.695223
568.166852	-2.974300	3.721200	-11.067000	24.104136	0.001018	20.724902
569.175023	-2.965400	3.721700	-11.035000	24.151353	0.001018	20.726740
570.168653	-3.011100	3.720200	-11.200000	24.161062	0.001020	20.708026
571.166420	-3.005100	3.718500	-11.173000	24.194104	0.001018	20.732635
572.169515	-3.011400	3.719000	-11.199000	24.199026	0.001018	20.723821
573.174701	-3.009800	3.719700	-11.194000	24.194577	0.001018	20.719358
574.166807	-3.002100	3.718200	-11.162000	24.170214	0.001019	20.731907
575.171238	-3.010000	3.718300	-11.190000	24.144116	0.001018	20.727541
576.171044	-3.012700	3.716900	-11.197000	24.131800	0.001016	20.750277
577.168600	-3.003700	3.717800	-11.166000	24.144311	0.001018	20.734850
578.172296	-3.013800	3.716900	-11.201000	24.187160	0.001017	20.748904
579.170852	-3.007200	3.716900	-11.176000	24.199026	0.001018	20.746582
580.168857	-3.006000	3.716300	-11.170000	24.158893	0.001018	20.718654
581.177179	-2.983500	3.716800	-11.088000	24.164795	0.001018	20.732635
582.178450	-2.973200	3.716500	-11.048000	24.169946	0.001019	20.732112
583.174962	-2.987600	3.716100	-11.100000	24.175063	0.001017	20.732977
584.181778	-2.987500	3.716000	-11.100000	24.187593	0.001017	20.756925
585.172857	-3.014700	3.714500	-11.196000	24.141060	0.001016	20.719260
586.170671	-3.004100	3.713400	-11.155000	24.133179	0.001018	20.733168
587.177350	-3.008000	3.714700	-11.173000	24.119908	0.001017	20.724124
588.173440	-2.989100	3.714900	-11.103000	24.146465	0.001017	20.747916
589.171404	-2.988900	3.713400	-11.097000	24.128476	0.001017	20.724183
590.174590	-2.992500	3.714400	-11.114000	24.146743	0.001016	20.739660
591.179385	-2.991200	3.713700	-11.108000	24.172319	0.001017	20.728802
592.175487	-2.983300	3.713600	-11.078000	24.159784	0.001017	20.738990
593.178957	-2.991800	3.713400	-11.109000	24.188451	0.001018	20.734077
594.179865	-2.984900	3.712300	-11.080000	24.211702	0.001018	20.736536
595.177995	-2.993000	3.712000	-11.109000	24.217891	0.001015	20.752228
596.178453	-2.991200	3.712300	-11.103000	24.226970	0.001017	20.723875
597.180548	-2.985900	3.711900	-11.082000	24.244183	0.001017	20.742563
598.175970	-2.995800	3.710700	-11.115000	24.252584	0.001015	20.744352
599.180332	-3.015300	3.710000	-11.186000	24.237614	0.001016	20.740715
600.177622	-3.004300	3.710300	-11.146000	24.231673	0.001015	20.748507
601.178830	-3.010600	3.710500	-11.170000	24.210498	0.001017	20.764253
602.180191	-2.985100	3.712100	-11.079000	24.205942	0.001015	20.741190
603.179035	-2.994400	3.709500	-11.107000	24.218958	0.001014	20.751401
604.178130	-3.029500	3.708600	-11.233000	24.202535	0.001014	20.738721
605.181043	-3.010700	3.708700	-11.165000	24.210508	0.001016	20.740554
606.180713	-3.002100	3.708800	-11.132000	24.242024	0.001012	20.733759
607.180215	-2.980600	3.708900	-11.054000	24.263549	0.001016	20.746816
608.192334	-2.966800	3.709800	-11.005000	24.267813	0.001013	20.752990
609.179722	-2.992000	3.708700	-11.096000	24.244007	0.001016	20.733378
610.180192	-2.988000	3.708500	-11.081000	24.257910	0.001015	20.750169
611.182640	-3.012000	3.707200	-11.165000	24.252262	0.001014	20.745926
612.180857	-2.998200	3.706300	-11.111000	24.275736	0.001014	20.766628
613.181965	-2.996900	3.707000	-11.109000	24.301188	0.001014	20.771297
614.183700	-2.979100	3.707600	-11.044000	24.290560	0.001015	20.745462
615.182942	-2.999100	3.705700	-11.113000	24.308376	0.001014	20.739151
616.181912	-2.988500	3.706100	-11.075000	24.321767	0.001013	20.750687
617.183784	-2.999400	3.705700	-11.114000	24.345424	0.001012	20.759721
618.184660	-3.011200	3.706300	-11.159000	24.322142	0.001013	20.756280
619.183640	-3.003000	3.706100	-11.128000	24.348889	0.001014	20.754662
620.185738	-2.998100	3.705600	-11.109000	24.334865	0.001013	20.751973
621.185428	-2.974800	3.706600	-11.024000	24.317230	0.001013	20.766525
622.186946	-3.018500	3.703700	-11.178000	24.331507	0.001013	20.744337
623.188703	-2.989300	3.703400	-11.070000	24.321679	0.001013	20.769092
624.187505	-2.970200	3.704600	-11.002000	24.346413	0.001013	20.757394
625.185718	-2.988000	3.703700	-11.066000	24.383354	0.001013	20.745613
626.186776	-2.992400	3.702600	-11.079000	24.397085	0.001013	20.779778
627.187122	-2.998500	3.702400	-11.100000	24.407409	0.001013	20.761212
628.184947	-2.990000	3.703400	-11.072000	24.423284	0.001012	20.748214
629.187268	-2.987000	3.701500	-11.056000	24.441619	0.001013	20.767557
630.187118	-2.987700	3.701000	-11.057000	24.446199	0.001014	20.756504
631.185945	-2.998000	3.700100	-11.092000	24.462122	0.001012	20.776273
632.189123	-3.010000	3.700000	-11.135000	24.453425	0.001014	20.755693
633.187339	-2.991300	3.701000	-11.069000	24.480992	0.001012	20.762488
634.188937	-3.027800	3.699500	-11.200000	24.476534	0.001012	20.769869
635.191657	-3.021300	3.698900	-11.173000	24.509275	0.001010	20.751983
636.191436	-3.015100	3.698400	-11.150000	24.492768	0.001013	20.744430
637.190304	-3.016900	3.698900	-11.158000	24.504344	0.001011	20.772167
638.193137	-3.006900	3.698400	-11.119000	24.502805	0.001013	20.765880
639.191910	-3.004200	3.698900	-11.112000	24.504295	0.001012	20.755522
640.190595	-2.977100	3.698400	-11.010000	24.494965	0.001012	20.775085
641.191819	-2.983700	3.698000	-11.032000	24.455461	0.001011	20.773384
642.192132	-3.004600	3.696500	-11.105000	24.468948	0.001010	20.769370
643.190868	-2.997500	3.698500	-11.085000	24.461557	0.001009	20.783766
644.192773	-2.972400	3.698000	-10.990000	24.477250	0.001011	20.762053
645.191561	-2.985800	3.696900	-11.037000	24.498844	0.001010	20.786562
646.191045	-2.985300	3.697500	-11.037000	24.479116	0.001011	20.783366
647.191193	-2.985400	3.697000	-11.036000	24.476549	0.001010	20.772255
648.192766	-3.024100	3.696000	-11.175000	24.491428	0.001010	20.769165
649.190949	-2.994700	3.696200	-11.067000	24.503609	0.001010	20.770006
650.191662	-2.971900	3.696600	-10.985000	24.514512	0.001009	20.775730
651.191301	-2.994600	3.695500	-11.066000	24.498834	0.001009	20.788924
652.193270	-3.007800	3.695400	-11.114000	24.475482	0.001008	20.787306
653.193771	-3.006700	3.695500	-11.109000	24.470600	0.001009	20.783356
654.192603	-3.014100	3.694100	-11.133000	24.476680	0.001008	20.777128
655.192599	-2.983900	3.695300	-11.025000	24.481382	0.001006	20.780897
656.194005	-3.026500	3.692200	-11.173000	24.475043	0.001009	20.769796
657.195273	-2.985200	3.694700	-11.028000	24.451364	0.001010	20.763583
658.194525	-3.010900	3.692300	-11.114000	24.447329	0.001007	20.792726
659.196700	-3.004100	3.692900	-11.093000	24.435416	0.001009	20.770817
660.194360	-2.999300	3.692100	-11.073000	24.400174	0.001008	20.776238
661.197402	-3.007200	3.691900	-11.102000	24.428629	0.001006	20.775388
662.196076	-2.988100	3.692200	-11.032000	24.388562	0.001007	20.793988
663.195996	-3.009200	3.692500	-11.111000	24.421866	0.001008	20.779983
664.195160	-2.999200	3.692300	-11.072000	24.402946	0.001007	20.787080
665.197430	-2.987300	3.690800	-11.024000	24.402668	0.001007	20.789647
666.197962	-2.998600	3.689800	-11.063000	24.401236	0.001009	20.788684
667.197335	-3.020100	3.690600	-11.145000	24.410411	0.001007	20.789353
668.199031	-2.996700	3.690200	-11.058000	24.438890	0.001006	20.789476
669.197468	-2.998200	3.690100	-11.063000	24.452426	0.001008	20.802107
670.201516	-2.960700	3.690900	-10.926000	24.479959	0.001006	20.808393
671.199437	-3.018900	3.687500	-11.131000	24.498137	0.001005	20.794863
672.200412	-3.002700	3.688600	-11.075000	24.521459	0.001006	20.788865
673.200233	-2.966600	3.690100	-10.946000	24.557765	0.001007	20.791152
674.200189	-2.980100	3.689500	-10.994000	24.566997	0.001004	20.797096
675.199959	-2.987800	3.687900	-11.018000	24.579518	0.001003	20.795434
676.200546	-3.002300	3.687500	-11.070000	24.618219	0.001005	20.801550
677.206017	-2.995800	3.686900	-11.043000	24.644812	0.001004	20.792673
678.199844	-2.996400	3.686600	-11.046000	24.626529	0.001005	20.802302
679.200930	-2.994100	3.686800	-11.037000	24.621536	0.001004	20.789231
680.201294	-3.004400	3.685100	-11.070000	24.597621	0.001003	20.797004
681.202558	-2.978900	3.686800	-10.981000	24.588920	0.001004	20.793015
682.201834	-2.997900	3.685000	-11.047000	24.593899	0.001005	20.794217
683.205219	-2.980600	3.687100	-10.989000	24.548328	0.001002	20.796383
684.203513	-2.993200	3.685300	-11.029000	24.554954	0.001003	20.816307
685.204154	-2.990400	3.684300	-11.017000	24.566652	0.001003	20.795327
686.203060	-2.994300	3.686200	-11.036000	24.576585	0.001003	20.808613
687.203954	-3.000200	3.684800	-11.054000	24.600905	0.001004	20.814997
688.202872	-2.980100	3.684300	-10.979000	24.623987	0.001003	20.808285
689.206144	-2.990300	3.684800	-11.018000	24.663061	0.001002	20.809561
690.203537	-2.990500	3.683700	-11.015000	24.668609	0.001002	20.802801
691.203884	-3.012200	3.683200	-11.093000	24.681538	0.001001	20.809610
692.206693	-2.992900	3.684200	-11.025000	24.682376	0.001001	20.827046
693.202643	-3.004300	3.683300	-11.065000	24.686750	0.001003	20.813892
694.202510	-3.006300	3.681600	-11.067000	24.653912	0.001001	20.808916
695.208418	-2.997300	3.682800	-11.037000	24.642367	0.001000	20.809185
696.203905	-2.990000	3.682200	-11.008000	24.645455	0.001000	20.816551
697.202216	-2.999100	3.682100	-11.041000	24.662637	0.001000	20.828102
698.203234	-3.011300	3.680900	-11.084000	24.649318	0.000999	20.824695
699.203909	-3.004300	3.681800	-11.059000	24.637495	0.001000	20.829901
700.204333	-2.997600	3.681800	-11.034000	24.657181	0.000999	20.813618
701.206138	-3.006400	3.679600	-11.061000	24.676179	0.001000	20.845958
702.204374	-2.995400	3.680700	-11.025000	24.658998	0.001000	20.813545
703.204473	-2.978700	3.679500	-10.959000	24.707511	0.000997	20.833777
704.207261	-2.991600	3.680700	-11.010000	24.740523	0.000999	20.836558
705.203558	-2.997300	3.679400	-11.026000	24.732432	0.001000	20.822749
706.204870	-3.005200	3.678900	-11.055000	24.684986	0.000999	20.828717
707.209192	-3.005200	3.677800	-11.051000	24.666207	0.000996	20.816512
708.207364	-3.008400	3.677700	-11.063000	24.672082	0.000998	20.813398
709.219763	-3.014300	3.677500	-11.085000	24.644724	0.000994	20.812973
710.208961	-3.009900	3.677400	-11.067000	24.664449	0.000998	20.821860
711.205410	-3.020200	3.676400	-11.103000	24.676539	0.000997	20.823561
712.206595	-3.015100	3.676200	-11.083000	24.674494	0.000996	20.806809
713.208664	-3.010200	3.676200	-11.065000	24.677933	0.000997	20.828278
714.208195	-2.991300	3.676500	-10.996000	24.711871	0.000996	20.813496
715.207359	-3.005800	3.676300	-11.049000	24.722120	0.000996	20.810504
716.211652	-2.999500	3.675000	-11.022000	24.705338	0.000996	20.806941
717.209880	-3.010000	3.676000	-11.064000	24.683106	0.000995	20.823986
718.209851	-2.999600	3.675700	-11.025000	24.672638	0.000996	20.815378
719.213558	-3.014600	3.675200	-11.079000	24.698178	0.000997	20.806868
720.210406	-3.011000	3.675400	-11.066000	24.701899	0.000994	20.805387
721.210341	-2.988700	3.674800	-10.982000	24.682502	0.000996	20.816268
722.211872	-2.993200	3.674100	-10.997000	24.697549	0.000995	20.806711
723.210145	-2.974000	3.673800	-10.924000	24.701290	0.000994	20.823267
724.209929	-3.011500	3.672400	-11.057000	24.727414	0.000994	20.800171
725.216277	-2.991200	3.674600	-10.991000	24.730805	0.000994	20.792193
726.212855	-2.998600	3.673600	-11.014000	24.707725	0.000993	20.801750
727.211942	-2.993300	3.674500	-10.998000	24.723849	0.000993	20.812714
728.212326	-3.008500	3.672300	-11.047000	24.703025	0.000993	20.807938
729.213619	-2.999200	3.672000	-11.011000	24.688499	0.000993	20.806164
730.212599	-2.998400	3.671900	-11.008000	24.655602	0.000993	20.807293
731.214592	-2.996700	3.670400	-10.998000	24.631128	0.000992	20.791744
732.217429	-3.000500	3.670800	-11.012000	24.611281	0.000993	20.796011
733.215555	-3.008800	3.670500	-11.043000	24.621736	0.000990	20.800811
734.214438	-3.000500	3.670700	-11.013000	24.633573	0.000993	20.796568
735.217960	-2.975800	3.671600	-10.924000	24.681445	0.000992	20.804301
736.215954	-3.002100	3.670300	-11.017000	24.707881	0.000992	20.800958
737.217725	-2.991600	3.671200	-10.981000	24.735914	0.000991	20.792579
738.219689	-2.960700	3.671400	-10.869000	24.722334	0.000992	20.796495
739.220028	-2.986300	3.669600	-10.958000	24.734122	0.000991	20.785091
740.218797	-2.994300	3.668700	-10.984000	24.690676	0.000990	20.792228
741.221632	-2.986800	3.670100	-10.961000	24.656474	0.000991	20.789676
742.223377	-3.000100	3.667700	-11.002000	24.616708	0.000989	20.773481
743.220799	-3.024100	3.666200	-11.086000	24.630290	0.000990	20.773833
744.221997	-3.019900	3.667400	-11.074000	24.637631	0.000992	20.779303
745.223552	-3.005600	3.666000	-11.017000	24.656669	0.000990	20.795561
746.221646	-2.984200	3.667400	-10.943000	24.668239	0.000986	20.778721
747.223945	-3.007100	3.666500	-11.024000	24.657210	0.000989	20.781405
748.223444	-3.000500	3.666700	-11.001000	24.696989	0.000990	20.780071
749.222295	-3.019000	3.665600	-11.064000	24.685658	0.000988	20.781503
750.224833	-2.994300	3.666000	-10.977000	24.695450	0.000989	20.791802
751.223691	-2.981300	3.666100	-10.927000	24.670879	0.000989	20.787061
752.222594	-3.026100	3.665000	-11.089000	24.696502	0.000988	20.782427
753.225302	-3.000200	3.666500	-10.997000	24.718758	0.000989	20.764457
754.222915	-2.989800	3.665400	-10.957000	24.736021	0.000988	20.783678
755.222196	-3.017400	3.663700	-11.054000	24.763645	0.000987	20.771570
756.226405	-2.998500	3.666200	-10.992000	24.754994	0.000987	20.788019
757.227361	-2.973600	3.666200	-10.901000	24.760396	0.000988	20.746972
758.223496	-3.007600	3.664200	-11.019000	24.753055	0.000991	20.778961
759.224064	-3.005400	3.663900	-11.010000	24.735924	0.000986	20.775045
760.223682	-3.006200	3.663000	-11.011000	24.728145	0.000987	20.759652
761.225020	-2.995700	3.663100	-10.973000	24.748038	0.000987	20.787677
762.225070	-3.007700	3.663100	-11.016000	24.765895	0.000987	20.779992
763.225059	-3.007400	3.662500	-11.014000	24.764877	0.000988	20.769961
764.225116	-3.017100	3.661700	-11.047000	24.795515	0.000986	20.765146
765.224789	-3.019300	3.662000	-11.054000	24.825791	0.000985	20.784626
766.225003	-3.016900	3.660800	-11.043000	24.819187	0.000986	20.779894
767.224507	-2.990100	3.660700	-10.945000	24.813215	0.000984	20.764418
768.225213	-2.981200	3.661600	-10.914000	24.796655	0.000984	20.773403
769.225553	-3.015200	3.661500	-11.039000	24.794268	0.000984	20.750144
770.226189	-3.004400	3.660400	-10.996000	24.780191	0.000984	20.763045
771.226564	-2.971900	3.660700	-10.879000	24.799431	0.000985	20.779034
772.225551	-2.980900	3.660900	-10.911000	24.790595	0.000981	20.755942
773.234212	-2.981100	3.660600	-10.912000	24.819937	0.000983	20.776380
774.226706	-2.968100	3.659100	-10.859000	24.793723	0.000982	20.788952
775.226432	-2.992700	3.659800	-10.950000	24.779427	0.000982	20.763700
776.228304	-2.983200	3.659800	-10.917000	24.772388	0.000982	20.748575
777.227334	-3.003600	3.658000	-10.985000	24.766475	0.000980	20.763030
778.227434	-3.015000	3.657700	-11.027000	24.753913	0.000979	20.771286
779.228900	-3.015900	3.658300	-11.032000	24.762140	0.000980	20.755834
780.228810	-3.002800	3.657200	-10.980000	24.768233	0.000982	20.747724
781.242210	-3.009800	3.657700	-11.007000	24.769880	0.000981	20.757912
782.228370	-2.998400	3.657000	-10.964000	24.778204	0.000981	20.774801
783.228172	-3.011800	3.655700	-11.009000	24.771541	0.000981	20.762218
784.227545	-2.978700	3.656800	-10.892000	24.762296	0.000981	20.765000
785.227512	-2.995400	3.657300	-10.954000	24.764731	0.000979	20.772660
786.229789	-2.989100	3.656100	-10.927000	24.751516	0.000979	20.746595
787.230234	-3.006800	3.654300	-10.987000	24.759354	0.000977	20.773427
788.241158	-3.008500	3.654900	-10.994000	24.732373	0.000979	20.755360
789.231953	-3.005800	3.656400	-10.989000	24.705806	0.000978	20.755727
790.233428	-3.014800	3.654400	-11.016000	24.685946	0.000978	20.765670
791.233144	-2.999100	3.653000	-10.954000	24.708120	0.000976	20.757100
792.232598	-3.006500	3.652500	-10.979000	24.736806	0.000977	20.739893
793.232636	-2.994900	3.653200	-10.939000	24.740113	0.000976	20.743212
794.232313	-2.996500	3.653100	-10.946000	24.721920	0.000978	20.736334
795.233782	-2.990700	3.653600	-10.926000	24.745749	0.000976	20.776844
796.232750	-3.009100	3.653100	-10.991000	24.751599	0.000975	20.749997
797.231934	-3.002100	3.652100	-10.963000	24.752412	0.000975	20.750814
798.232932	-2.994900	3.651800	-10.934000	24.782447	0.000975	20.737332
799.233744	-2.975900	3.653000	-10.870000	24.786879	0.000976	20.738935
800.232604	-3.009000	3.651100	-10.984000	24.812816	0.000974	20.740309
801.234748	-3.013400	3.650700	-11.000000	24.801647	0.000976	20.758498
802.235693	-2.983600	3.652000	-10.896000	24.804979	0.000974	20.735288
803.235663	-2.979800	3.651600	-10.880000	24.821379	0.000973	20.742738
804.234938	-2.991000	3.650900	-10.918000	24.803562	0.000974	20.755204
805.237186	-3.006600	3.649300	-10.971000	24.801584	0.000973	20.756064
806.236897	-2.998600	3.651400	-10.948000	24.815358	0.000975	20.739541
807.237140	-3.034500	3.649300	-11.073000	24.825606	0.000974	20.758836
808.237728	-3.002400	3.649700	-10.957000	24.839984	0.000974	20.741497
809.240480	-2.997000	3.649300	-10.935000	24.884988	0.000971	20.752999
810.239353	-3.002100	3.650000	-10.957000	24.858117	0.000971	20.746419
811.239569	-2.994600	3.649300	-10.927000	24.897466	0.000972	20.733753
812.238781	-3.013100	3.647000	-10.987000	24.888441	0.000971	20.752671
813.239019	-3.003700	3.647100	-10.953000	24.894022	0.000972	20.715123
814.241169	-2.995500	3.648500	-10.928000	24.893657	0.000971	20.736569
815.239436	-3.027600	3.646900	-11.040000	24.865871	0.000970	20.749460
816.238777	-3.016400	3.646700	-10.999000	24.837379	0.000969	20.735088
817.249050	-2.985900	3.648200	-10.892000	24.826351	0.000969	20.716907
818.239295	-2.993000	3.647600	-10.917000	24.795486	0.000970	20.734770
819.239303	-2.996600	3.647000	-10.928000	24.765452	0.000970	20.733553
820.241356	-2.984800	3.646900	-10.883000	24.718139	0.000967	20.731118
821.240085	-3.042400	3.642600	-11.080000	24.735115	0.000967	20.731558
822.241021	-3.018900	3.644100	-11.001000	24.737926	0.000967	20.725844
823.244327	-3.001900	3.644300	-10.938000	24.752680	0.000968	20.716467
824.241747	-3.007700	3.644900	-10.962000	24.731301	0.000966	20.735792
825.241812	-2.977800	3.644900	-10.853000	24.698236	0.000966	20.716834
826.246356	-3.003200	3.644200	-10.943000	24.685902	0.000966	20.741443
827.242325	-2.998600	3.645100	-10.930000	24.697715	0.000966	20.717259
828.242789	-2.976700	3.645300	-10.851000	24.727809	0.000964	20.713319
829.249470	-2.972000	3.644000	-10.828000	24.768964	0.000964	20.727120
830.241961	-3.026000	3.643800	-11.025000	24.783382	0.000965	20.717406
831.242076	-2.996400	3.644600	-10.919000	24.783153	0.000964	20.747050
832.244650	-3.001500	3.642700	-10.933000	24.786543	0.000964	20.733382
833.243064	-2.991800	3.641800	-10.894000	24.793099	0.000965	20.736168
834.242625	-3.015300	3.642600	-10.982000	24.837340	0.000962	20.726513
835.246048	-3.021700	3.641700	-11.003000	24.822484	0.000963	20.730097
836.242750	-2.998200	3.642600	-10.920000	24.862257	0.000963	20.726865
837.244568	-2.998400	3.640700	-10.914000	24.913557	0.000961	20.712444
838.246408	-2.994000	3.640200	-10.898000	24.941186	0.000963	20.732116
839.245031	-2.996100	3.641800	-10.911000	24.933812	0.000960	20.726137
840.247173	-3.001100	3.641200	-10.928000	24.931036	0.000961	20.706754
841.248242	-3.008600	3.640700	-10.952000	24.956376	0.000959	20.741198
842.248376	-2.975800	3.641500	-10.835000	24.981013	0.000962	20.725624
843.246357	-2.981000	3.640700	-10.851000	24.965074	0.000962	20.727168
844.251616	-2.972500	3.641000	-10.821000	24.958859	0.000959	20.721879
845.250700	-3.002000	3.639100	-10.923000	24.970874	0.000958	20.717817
846.246988	-3.008700	3.638300	-10.945000	24.966817	0.000959	20.742195
847.258702	-2.989900	3.640400	-10.883000	24.966452	0.000958	20.720017
848.251637	-2.997800	3.639000	-10.908000	24.934898	0.000958	20.729598
849.253773	-3.008000	3.637800	-10.940000	24.922737	0.000957	20.717866
850.255764	-3.007000	3.637500	-10.937000	24.898669	0.000958	20.705561
851.250589	-3.007200	3.636500	-10.933000	24.869850	0.000958	20.721684
852.248126	-3.004100	3.638600	-10.930000	24.896102	0.000956	20.739023
853.255154	-3.000300	3.638600	-10.915000	24.869743	0.000958	20.710196
854.251348	-3.002700	3.636400	-10.917000	24.861200	0.000956	20.713476
855.249941	-3.011000	3.635100	-10.943000	24.848240	0.000957	20.703787
856.251341	-3.024300	3.635500	-10.994000	24.886459	0.000955	20.726499
857.253160	-3.015600	3.635900	-10.963000	24.902716	0.000956	20.721952
858.250774	-2.981000	3.637400	-10.841000	24.920171	0.000957	20.702012
859.254018	-3.030500	3.635600	-11.016000	24.944809	0.000954	20.712518
860.252313	-2.988200	3.636300	-10.864000	24.980214	0.000953	20.712967
861.251924	-3.019000	3.634800	-10.971000	24.969749	0.000954	20.700091
862.253463	-3.005400	3.635100	-10.924000	24.970474	0.000953	20.712200
863.253364	-3.025500	3.633900	-10.993000	24.986453	0.000953	20.699788
864.258479	-2.992700	3.634900	-10.876000	24.998603	0.000954	20.725262
865.257537	-2.989700	3.634800	-10.866000	25.024111	0.000953	20.704872
866.256238	-3.015100	3.633900	-10.954000	25.059188	0.000952	20.720642
867.256354	-2.986300	3.634100	-10.850000	25.058423	0.000953	20.708020
868.259477	-2.999300	3.633400	-10.896000	25.026473	0.000953	20.698707
869.257186	-3.001500	3.633600	-10.905000	25.021423	0.000955	20.696957
870.255311	-2.994400	3.632300	-10.875000	24.993879	0.000952	20.696336
871.261105	-2.982500	3.632900	-10.834000	24.967499	0.000951	20.713006
872.258306	-2.980300	3.631800	-10.823000	24.952601	0.000951	20.706114
873.256634	-3.002800	3.632100	-10.905000	24.955786	0.000953	20.694611
874.264153	-2.980100	3.631800	-10.822000	24.933379	0.000951	20.690612
875.260734	-3.000100	3.630600	-10.891000	24.952105	0.000950	20.716047
876.257638	-3.006000	3.630100	-10.911000	24.984106	0.000949	20.715451
877.260878	-2.989500	3.630900	-10.853000	25.003415	0.000949	20.714444
878.259065	-3.049600	3.628600	-11.064000	25.023785	0.000949	20.694112
879.256779	-3.003900	3.629300	-10.901000	25.033427	0.000948	20.698575
880.263082	-3.003400	3.629100	-10.899000	25.017620	0.000948	20.691243
881.260705	-3.005700	3.629200	-10.907000	24.998969	0.000948	20.708558
882.258844	-3.011600	3.627600	-10.924000	24.998253	0.000947	20.707365
883.265234	-3.013400	3.627100	-10.928000	24.972442	0.000947	20.694733
884.261582	-3.008400	3.629600	-10.916000	24.949246	0.000947	20.682829
885.258430	-3.004000	3.628800	-10.900000	24.964085	0.000947	20.694880
886.262670	-3.004400	3.627800	-10.898000	24.961406	0.000946	20.694088
887.261353	-3.016600	3.626100	-10.937000	24.929322	0.000944	20.717836
888.260889	-2.990300	3.625700	-10.841000	24.945467	0.000946	20.686623
889.265893	-2.997600	3.625700	-10.868000	24.962668	0.000947	20.681602
890.264979	-2.993700	3.625900	-10.854000	24.980994	0.000944	20.688617
891.261523	-2.982500	3.626500	-10.815000	24.989837	0.000944	20.693702
892.264241	-3.005000	3.626100	-10.895000	25.012098	0.000944	20.682379
893.265564	-2.978500	3.627000	-10.801000	25.021194	0.000946	20.689140
894.261602	-2.979300	3.626500	-10.803000	25.032069	0.000943	20.688202
895.266737	-3.011200	3.623900	-10.911000	25.036359	0.000943	20.661211
896.267326	-2.996400	3.625800	-10.863000	25.051133	0.000941	20.694537
897.265418	-3.027100	3.624400	-10.970000	25.047788	0.000941	20.693550
898.265794	-3.013300	3.623600	-10.916000	25.077195	0.000942	20.672807
899.266478	-2.980200	3.625700	-10.804000	25.101694	0.000940	20.673218
900.265470	-2.990100	3.624200	-10.835000	25.140269	0.000941	20.711471
901.269123	-2.984400	3.623400	-10.813000	25.120587	0.000941	20.691712
902.266484	-3.007500	3.621900	-10.891000	25.132225	0.000941	20.691066
903.265647	-3.016500	3.623200	-10.927000	25.159536	0.000941	20.668222
904.270307	-2.993100	3.623000	-10.843000	25.193868	0.000939	20.687517
905.266825	-2.987100	3.622300	-10.820000	25.187738	0.000938	20.689424
906.267388	-2.991500	3.621500	-10.833000	25.185873	0.000939	20.685181
907.267413	-3.004300	3.620100	-10.876000	25.159327	0.000938	20.697886
908.270577	-3.006500	3.621700	-10.887000	25.131265	0.000939	20.688207
909.267601	-3.009400	3.620500	-10.893000	25.100564	0.000939	20.696268
910.271000	-2.995100	3.621200	-10.845000	25.092111	0.000936	20.691101
911.269310	-3.023700	3.618900	-10.942000	25.084310	0.000935	20.690856
912.269077	-3.008400	3.621100	-10.892000	25.101436	0.000937	20.679123
913.270977	-3.009700	3.620400	-10.894000	25.107771	0.000937	20.683587
914.272308	-2.975800	3.621300	-10.775000	25.107902	0.000938	20.694625
915.269844	-3.004800	3.618300	-10.872000	25.127511	0.000938	20.673531
916.275290	-3.000100	3.618500	-10.855000	25.104362	0.000937	20.683010
917.270509	-2.986900	3.619100	-10.809000	25.134981	0.000934	20.685298
918.269768	-2.973500	3.618100	-10.757000	25.143263	0.000933	20.684604
919.271562	-2.977900	3.618500	-10.775000	25.135779	0.000935	20.671873
920.271142	-2.996100	3.618400	-10.841000	25.148493	0.000935	20.682741
921.270436	-3.000700	3.617300	-10.853000	25.168427	0.000933	20.685210
922.271034	-2.974500	3.619100	-10.765000	25.162613	0.000932	20.681270
923.270711	-3.012900	3.616900	-10.895000	25.158601	0.000932	20.669654
924.268223	-2.996300	3.617800	-10.838000	25.102989	0.000933	20.682105
925.271599	-3.022200	3.614700	-10.922000	25.120465	0.000932	20.688270
926.283039	-3.015800	3.617200	-10.908000	25.139017	0.000933	20.688876
927.270125	-2.995500	3.615500	-10.828000	25.158587	0.000930	20.690504
928.273781	-3.004300	3.615200	-10.860000	25.168408	0.000929	20.700839
929.272326	-3.016200	3.613900	-10.900000	25.187504	0.000931	20.681128
930.272282	-3.007900	3.614900	-10.872000	25.202374	0.000928	20.692738
931.274979	-3.024200	3.614200	-10.928000	25.150022	0.000931	20.686173
932.274236	-3.021000	3.614500	-10.918000	25.163947	0.000926	20.680238
933.272532	-3.000200	3.613800	-10.841000	25.132288	0.000926	20.693501
934.276663	-3.010000	3.612800	-10.873000	25.089656	0.000927	20.682472
935.273302	-3.005800	3.612800	-10.858000	25.072204	0.000927	20.695774
936.273564	-2.992800	3.612500	-10.811000	25.097443	0.000927	20.676063
937.271760	-3.005000	3.612700	-10.854000	25.151044	0.000926	20.690519
938.274792	-2.998500	3.612800	-10.832000	25.147431	0.000926	20.686892
939.275464	-2.993500	3.612100	-10.811000	25.191804	0.000925	20.684970
940.276849	-2.985100	3.612700	-10.784000	25.206795	0.000925	20.690064
941.278450	-3.003100	3.611500	-10.844000	25.204565	0.000925	20.677867
942.276427	-3.007400	3.610200	-10.857000	25.243643	0.000924	20.695764
943.278900	-2.987500	3.611100	-10.786000	25.205086	0.000926	20.675071
944.276679	-3.017700	3.608700	-10.890000	25.207311	0.000924	20.697221
945.274755	-2.993000	3.610000	-10.804000	25.171767	0.000925	20.689986
946.279710	-3.020000	3.610200	-10.902000	25.185488	0.000923	20.705185
947.279881	-3.015400	3.608400	-10.880000	25.154424	0.000922	20.672573
948.278342	-3.008000	3.610100	-10.859000	25.172430	0.000922	20.720051
949.280064	-3.002300	3.608800	-10.833000	25.209098	0.000921	20.682419
950.280577	-2.980500	3.609200	-10.756000	25.200914	0.000922	20.676572
951.280210	-2.981600	3.608500	-10.757000	25.167137	0.000920	20.688182
952.282292	-2.992700	3.608200	-10.797000	25.116560	0.000921	20.688617
953.280800	-2.989200	3.608300	-10.785000	25.095368	0.000920	20.669239
954.281394	-2.998900	3.607500	-10.818000	25.093489	0.000920	20.689165
955.283360	-2.992200	3.607700	-10.794000	25.082927	0.000921	20.689942
956.284616	-2.997900	3.607700	-10.815000	25.093353	0.000918	20.685709
957.280818	-2.999500	3.607600	-10.820000	25.132303	0.000918	20.677867
958.284804	-2.989000	3.606300	-10.778000	25.175234	0.000919	20.701528
959.281488	-3.019600	3.605600	-10.886000	25.187986	0.000918	20.688251
960.281818	-3.001000	3.605900	-10.819000	25.199974	0.000917	20.672309
961.284104	-2.997800	3.606200	-10.809000	25.204371	0.000917	20.708969
962.282941	-2.992500	3.605800	-10.788000	25.191716	0.000917	20.698160
963.281476	-3.025200	3.603100	-10.899000	25.202116	0.000917	20.703386
964.284643	-3.001700	3.604900	-10.818000	25.181637	0.000915	20.695154
965.287490	-3.005800	3.604100	-10.833000	25.180293	0.000915	20.695701
966.285846	-3.008600	3.604400	-10.843000	25.204746	0.000914	20.687058
967.288047	-3.007000	3.602900	-10.833000	25.234475	0.000915	20.698414
968.283516	-3.021000	3.602700	-10.882000	25.240566	0.000917	20.695046
969.285783	-3.015000	3.601400	-10.856000	25.286702	0.000914	20.696796
970.290274	-2.993900	3.602100	-10.783000	25.264856	0.000916	20.689087
971.289798	-2.997500	3.603500	-10.800000	25.232790	0.000913	20.693878
972.287541	-3.005100	3.600600	-10.819000	25.236788	0.000913	20.683191
973.289643	-2.984000	3.602600	-10.749000	25.248171	0.000913	20.700785
974.290306	-3.018000	3.601500	-10.868000	25.255133	0.000912	20.687386
975.285272	-3.025700	3.601600	-10.896000	25.266166	0.000912	20.677124
976.291602	-2.997400	3.601000	-10.793000	25.261020	0.000911	20.683338
977.292963	-3.005100	3.601400	-10.821000	25.277320	0.000910	20.707766
978.287973	-2.998000	3.600400	-10.793000	25.252543	0.000910	20.690475
979.290574	-2.979400	3.600000	-10.724000	25.285324	0.000910	20.689248
980.294340	-2.991600	3.599800	-10.768000	25.298221	0.000908	20.715475
981.288691	-2.984800	3.600100	-10.744000	25.315124	0.000908	20.691668
982.292751	-3.028000	3.597300	-10.892000	25.284925	0.000909	20.703547
983.294348	-2.995000	3.599100	-10.778000	25.297734	0.000909	20.702658
984.291334	-3.002000	3.598200	-10.801000	25.326672	0.000906	20.705635
985.293633	-2.999400	3.598300	-10.791000	25.352065	0.000906	20.700785
986.293821	-2.985700	3.597600	-10.740000	25.353750	0.000905	20.685880
987.290509	-3.010700	3.597100	-10.829000	25.355395	0.000907	20.713613
988.294138	-3.017500	3.596800	-10.851000	25.378291	0.000908	20.698668
989.292467	-2.999200	3.597200	-10.788000	25.364635	0.000906	20.704398
990.291134	-3.001700	3.596900	-10.796000	25.357489	0.000906	20.708128
991.294879	-2.996600	3.596400	-10.776000	25.369406	0.000903	20.695437
992.298751	-3.003500	3.596100	-10.800000	25.318863	0.000904	20.702061
993.295520	-2.976700	3.595900	-10.703000	25.306526	0.000904	20.699631
994.296181	-3.009000	3.594500	-10.815000	25.319433	0.000904	20.702159
995.295537	-2.993500	3.595000	-10.760000	25.324992	0.000902	20.724338
996.292122	-3.016900	3.595200	-10.845000	25.331468	0.000901	20.712821
997.304738	-3.016500	3.595100	-10.843000	25.347392	0.000902	20.707947
998.297327	-3.007400	3.594000	-10.807000	25.356340	0.000901	20.731632
999.296693	-2.986200	3.592600	-10.727000	25.368121	0.000901	20.705053
1000.300433	-2.989000	3.594400	-10.742000	25.350999	0.000900	20.710147
1001.298216	-3.016500	3.593900	-10.839000	25.387701	0.000899	20.722818
1002.296549	-3.009300	3.592700	-10.810000	25.370760	0.000901	20.718135
1003.301139	-2.991300	3.592200	-10.744000	25.366052	0.000899	20.703924
1004.299738	-3.010300	3.591800	-10.812000	25.348385	0.000899	20.710841
1005.299706	-2.997300	3.592000	-10.764000	25.367770	0.000898	20.705175
1006.300770	-3.008000	3.590500	-10.798000	25.330041	0.000898	20.727511
1007.302978	-2.991000	3.590800	-10.740000	25.356729	0.000898	20.716849
1008.299494	-2.995600	3.591600	-10.758000	25.361378	0.000897	20.714405
1009.301596	-3.013900	3.590100	-10.819000	25.339232	0.000897	20.718721
1010.301165	-2.986300	3.591100	-10.723000	25.369732	0.000896	20.723742
1011.299291	-2.987600	3.591300	-10.729000	25.374274	0.000896	20.730199
1012.304904	-3.000900	3.590400	-10.773000	25.402086	0.000897	20.723512
1013.300901	-3.009200	3.590400	-10.803000	25.408371	0.000893	20.726978
1014.302207	-3.012100	3.588400	-10.807000	25.417742	0.000893	20.725482
1015.301205	-2.997800	3.589800	-10.761000	25.430067	0.000895	20.721263
1016.302978	-3.003000	3.588200	-10.775000	25.426679	0.000894	20.721180
1017.300863	-2.983800	3.588200	-10.705000	25.440081	0.000893	20.709506
1018.303005	-2.980700	3.587800	-10.692000	25.392559	0.000892	20.721532
1019.301636	-2.997700	3.585900	-10.749000	25.413565	0.000894	20.725555
1020.300695	-2.997500	3.587900	-10.753000	25.406652	0.000892	20.716717
1021.304978	-2.978900	3.587800	-10.687000	25.427950	0.000891	20.741423
1022.304576	-3.013800	3.585000	-10.804000	25.454261	0.000891	20.729911
1023.302039	-2.996600	3.585500	-10.742000	25.456792	0.000891	20.745256
1024.304177	-3.001400	3.584700	-10.758000	25.453024	0.000892	20.729143
1025.302518	-2.994800	3.585800	-10.738000	25.444817	0.000890	20.730385
1026.300928	-2.998900	3.586300	-10.753000	25.475582	0.000891	20.711491
1027.302872	-3.029000	3.584600	-10.857000	25.441828	0.000888	20.741135
1028.303157	-2.998700	3.585800	-10.752000	25.447251	0.000889	20.711491
1029.301697	-2.999600	3.584300	-10.751000	25.410576	0.000888	20.727770
1030.306249	-2.994400	3.584700	-10.733000	25.457688	0.000887	20.726714
1031.303197	-3.004500	3.583600	-10.766000	25.433777	0.000888	20.720246
1032.303811	-3.007000	3.584400	-10.777000	25.426864	0.000887	20.719469
1033.303195	-2.970700	3.583900	-10.645000	25.428753	0.000885	20.732272
1034.304619	-3.025700	3.582800	-10.839000	25.436079	0.000885	20.748638
1035.303493	-3.020600	3.581600	-10.817000	25.399077	0.000886	20.720017
1036.305607	-3.007500	3.582300	-10.773000	25.361291	0.000883	20.733284
1037.303869	-3.005700	3.581800	-10.764000	25.348492	0.000887	20.750779
1038.303207	-2.967500	3.583900	-10.634000	25.324880	0.000884	20.740822
1039.308407	-3.019500	3.581600	-10.813000	25.337777	0.000884	20.731485
1040.303911	-3.002800	3.581700	-10.754000	25.359402	0.000883	20.739448
1041.305321	-3.019900	3.578600	-10.806000	25.393922	0.000882	20.735704
1042.311292	-2.997700	3.579500	-10.729000	25.373675	0.000883	20.720114
1043.307009	-3.004000	3.577600	-10.746000	25.402096	0.000883	20.736799
1044.304893	-3.006400	3.579400	-10.760000	25.411734	0.000881	20.740313
1045.310620	-3.007800	3.579400	-10.764000	25.402217	0.000880	20.739292
1046.304910	-2.996600	3.578900	-10.722000	25.456081	0.000879	20.740274
1047.305059	-3.005600	3.579600	-10.758000	25.474788	0.000878	20.737248
1048.306427	-3.022900	3.579400	-10.818000	25.512089	0.000880	20.747680
1049.303825	-2.999800	3.577600	-10.732000	25.556023	0.000879	20.729686
1050.307171	-3.009400	3.578000	-10.766000	25.558856	0.000878	20.744860
1051.306734	-3.005200	3.577200	-10.749000	25.550912	0.000879	20.771496
1052.306173	-3.015600	3.575100	-10.779000	25.529617	0.000878	20.764809
1053.305722	-2.995600	3.575400	-10.710000	25.475260	0.000878	20.756689
1054.310101	-2.993900	3.576300	-10.706000	25.472169	0.000878	20.757379
1055.308028	-2.985100	3.577100	-10.678000	25.456008	0.000877	20.755849
1056.308960	-2.982000	3.577300	-10.666000	25.470548	0.000876	20.739629
1057.306849	-3.023400	3.574100	-10.805000	25.481841	0.000875	20.734848
1058.311142	-3.009700	3.575100	-10.759000	25.441770	0.000874	20.752456
1059.307316	-3.030700	3.574600	-10.832000	25.416778	0.000872	20.737317
1060.308801	-3.002500	3.573000	-10.727000	25.431732	0.000872	20.772723
1061.311580	-2.977100	3.575900	-10.645000	25.425000	0.000875	20.764540
1062.310068	-2.981700	3.575000	-10.658000	25.436016	0.000873	20.768490
1063.311494	-2.983000	3.574000	-10.660000	25.457736	0.000871	20.748101
1064.315241	-2.992400	3.574800	-10.696000	25.465315	0.000871	20.750970
1065.312135	-3.025900	3.573000	-10.809000	25.486018	0.000871	20.759432
1066.313632	-3.015200	3.572200	-10.771000	25.499419	0.000870	20.769570
1067.316792	-2.994500	3.572600	-10.696000	25.515024	0.000871	20.766750
1068.316293	-2.988200	3.572100	-10.673000	25.550192	0.000868	20.758445
1069.317254	-3.004300	3.570900	-10.727000	25.549647	0.000868	20.755526
1070.319033	-2.976600	3.572700	-10.634000	25.548182	0.000868	20.752158
1071.319028	-3.002900	3.570600	-10.721000	25.569403	0.000868	20.763040
1072.316782	-2.993300	3.570100	-10.685000	25.558432	0.000866	20.759608
1073.323792	-3.008000	3.569000	-10.735000	25.579245	0.000865	20.775295
1074.320219	-3.001500	3.569900	-10.714000	25.584365	0.000864	20.760522
1075.319024	-2.994200	3.571100	-10.691000	25.576918	0.000866	20.761578
1076.322484	-2.987200	3.570200	-10.663000	25.606020	0.000866	20.775158
1077.319089	-3.014300	3.569800	-10.760000	25.582112	0.000864	20.763949
1078.317085	-2.999000	3.569300	-10.703000	25.622397	0.000865	20.777382
1079.332209	-2.990900	3.568300	-10.671000	25.599785	0.000863	20.761783
1080.318862	-2.983500	3.568200	-10.644000	25.559075	0.000864	20.759779
1081.316031	-2.984600	3.568400	-10.649000	25.522778	0.000863	20.775011
1082.318242	-2.983700	3.566400	-10.639000	25.535779	0.000861	20.776688
1083.317797	-2.974900	3.566900	-10.609000	25.532075	0.000861	20.769175
1084.320585	-3.013700	3.566900	-10.748000	25.557824	0.000861	20.770377
1085.321094	-2.992300	3.567600	-10.674000	25.583961	0.000861	20.769126
1086.319041	-3.003500	3.566100	-10.710000	25.614479	0.000858	20.757575
1087.319750	-3.005300	3.565100	-10.714000	25.636522	0.000862	20.779714
1088.319422	-3.025100	3.563900	-10.780000	25.617954	0.000858	20.779557
1089.319030	-3.005100	3.565100	-10.713000	25.656277	0.000859	20.787701
1090.319939	-2.986000	3.565200	-10.644000	25.647200	0.000857	20.776688
1091.320211	-2.989200	3.565200	-10.656000	25.680232	0.000858	20.784260
1092.321105	-2.999800	3.565200	-10.693000	25.655308	0.000858	20.772978
1093.321164	-3.002600	3.564200	-10.701000	25.667909	0.000857	20.780892
1094.321345	-3.007600	3.563200	-10.716000	25.669846	0.000858	20.773828
1095.321729	-2.995400	3.564300	-10.676000	25.679808	0.000855	20.764394
1096.322868	-3.004300	3.563000	-10.704000	25.687371	0.000855	20.765826
1097.321761	-2.998100	3.562000	-10.678000	25.693761	0.000856	20.775089
1098.322193	-2.992000	3.562700	-10.659000	25.704015	0.000855	20.766423
1099.323724	-2.999100	3.561600	-10.681000	25.728383	0.000853	20.777622
1100.322532	-2.997900	3.563300	-10.682000	25.701052	0.000851	20.780990
1101.323030	-3.025800	3.560400	-10.772000	25.651931	0.000851	20.777172
1102.324562	-2.987400	3.561700	-10.639000	25.647935	0.000851	20.783116
1103.323621	-2.979500	3.562100	-10.613000	25.647740	0.000851	20.772015
1104.323680	-2.977400	3.561000	-10.602000	25.644012	0.000853	20.782969
1105.322494	-2.985100	3.561000	-10.629000	25.638673	0.000851	20.779978
1106.323965	-3.006600	3.558400	-10.697000	25.621108	0.000848	20.794105
1107.323339	-2.998100	3.559600	-10.671000	25.610298	0.000849	20.800792
1108.325989	-3.008000	3.559100	-10.704000	25.613505	0.000847	20.782676
1109.325182	-3.027800	3.557000	-10.770000	25.631845	0.000848	20.787818
1110.325389	-3.029100	3.556600	-10.771000	25.627270	0.000849	20.796500
1111.325066	-3.014100	3.557000	-10.720000	25.638624	0.000848	20.811697
1112.325420	-2.985000	3.559700	-10.623000	25.665183	0.000848	20.791431
1113.326935	-2.974600	3.559100	-10.585000	25.672435	0.000846	20.788283
1114.326375	-3.011900	3.557100	-10.713000	25.636410	0.000844	20.796197
1115.325679	-3.001600	3.558200	-10.679000	25.651201	0.000844	20.785922
1116.330354	-3.009900	3.555800	-10.702000	25.630998	0.000845	20.777011
1117.325969	-3.018100	3.555400	-10.729000	25.614343	0.000846	20.793474
1118.327433	-2.977100	3.557100	-10.588000	25.616085	0.000843	20.779577
1119.332413	-2.998100	3.555200	-10.657000	25.653634	0.000843	20.796427
1120.329153	-2.986100	3.556300	-10.618000	25.683955	0.000843	20.797957
1121.329640	-3.014100	3.554300	-10.713000	25.685590	0.000843	20.790116
1122.332751	-2.996600	3.553600	-10.648000	25.672566	0.000841	20.799320
1123.330575	-2.962200	3.554500	-10.529000	25.664818	0.000841	20.818091
1124.335312	-2.973400	3.553600	-10.565000	25.672021	0.000841	20.814420
1125.336236	-2.999500	3.554000	-10.659000	25.652349	0.000840	20.797981
1126.332469	-3.013700	3.553200	-10.708000	25.683872	0.000839	20.804512
1127.339065	-3.012600	3.552000	-10.698000	25.682855	0.000838	20.806335
1128.334859	-2.979400	3.552800	-10.584000	25.683385	0.000839	20.803549
1129.333536	-2.999000	3.553600	-10.657000	25.656949	0.000839	20.788376
1130.334824	-2.994300	3.552900	-10.638000	25.681424	0.000837	20.812010
1131.335824	-2.994300	3.552100	-10.635000	25.695319	0.000837	20.808896
1132.336335	-2.984900	3.551300	-10.598000	25.704215	0.000835	20.805504
1133.337525	-2.999200	3.549700	-10.646000	25.717326	0.000835	20.826733
1134.338398	-2.998700	3.551300	-10.648000	25.753407	0.000835	20.804179
1135.336174	-3.011600	3.549100	-10.687000	25.795092	0.000835	20.810490
1136.336863	-3.003100	3.549900	-10.660000	25.789340	0.000834	20.817988
1137.338750	-3.000000	3.549500	-10.647000	25.803730	0.000832	20.823434
1138.336980	-3.022400	3.548600	-10.724000	25.779243	0.000834	20.801208
1139.338984	-2.993100	3.549000	-10.622000	25.795185	0.000834	20.806316
1140.341049	-3.004500	3.547800	-10.659000	25.822246	0.000832	20.798411
1141.346513	-2.999200	3.547500	-10.638000	25.810202	0.000834	20.831832
1142.339063	-3.002100	3.548200	-10.651000	25.834129	0.000832	20.807504
1143.343228	-2.971600	3.547900	-10.542000	25.808193	0.000831	20.807528
1144.338437	-2.998900	3.548100	-10.639000	25.808519	0.000831	20.823028
1145.338348	-2.996700	3.547500	-10.630000	25.795132	0.000827	20.827599
1146.341439	-2.991100	3.547600	-10.610000	25.797842	0.000829	20.823683
1147.339844	-3.009600	3.545000	-10.667000	25.818125	0.000829	20.833626
1148.340732	-2.996300	3.546400	-10.625000	25.816986	0.000828	20.822999
1149.339493	-2.970100	3.546900	-10.534000	25.816548	0.000826	20.827775
1150.339533	-2.982000	3.544900	-10.570000	25.783482	0.000828	20.828224
1151.339610	-2.985400	3.545500	-10.584000	25.785905	0.000827	20.830184
1152.341726	-3.027000	3.544100	-10.727000	25.785818	0.000827	20.818243
1153.341625	-3.000000	3.544300	-10.632000	25.797327	0.000828	20.807519
1154.341094	-3.003400	3.544300	-10.642000	25.816281	0.000824	20.835092
1155.340968	-3.008600	3.544400	-10.662000	25.804490	0.000825	20.823723
1156.341261	-3.012300	3.542900	-10.671000	25.753437	0.000823	20.828865
1157.341174	-3.001100	3.543100	-10.633000	25.696838	0.000822	20.822750
1158.343781	-2.998300	3.543100	-10.622000	25.667107	0.000823	20.830346
1159.342294	-2.997600	3.542900	-10.619000	25.669467	0.000821	20.833665
1160.341709	-2.982800	3.541600	-10.563000	25.729756	0.000822	20.827365
1161.344166	-2.988000	3.542400	-10.584000	25.720315	0.000821	20.830209
1162.346604	-2.994900	3.543500	-10.611000	25.708163	0.000820	20.835547
1163.342509	-2.995200	3.542100	-10.608000	25.708285	0.000821	20.828557
1164.345102	-3.017200	3.539900	-10.679000	25.719804	0.000821	20.823533
1165.352565	-2.960000	3.541500	-10.482000	25.730520	0.000819	20.831925
1166.344031	-2.987200	3.540200	-10.574000	25.755272	0.000818	20.843510
1167.346379	-3.029300	3.539000	-10.720000	25.801094	0.000820	20.837380
1168.344615	-2.997400	3.540600	-10.611000	25.811405	0.000820	20.829721
1169.349353	-3.013900	3.539800	-10.668000	25.833639	0.000816	20.835933
1170.349955	-3.015800	3.539600	-10.674000	25.845137	0.000817	20.818561
1171.347708	-3.005500	3.539700	-10.637000	25.840865	0.000816	20.816166
1172.347161	-2.984600	3.539100	-10.562000	25.838782	0.000815	20.824505
1173.350482	-2.983300	3.539700	-10.559000	25.835877	0.000815	20.837234
1174.347497	-3.012000	3.537300	-10.653000	25.810763	0.000813	20.810110
1175.346498	-2.992700	3.537800	-10.585000	25.811356	0.000814	20.825405
1176.348041	-2.986200	3.536800	-10.560000	25.831133	0.000814	20.819192
1177.344390	-2.990200	3.537800	-10.578000	25.810558	0.000813	20.827922
1178.346324	-2.986000	3.536800	-10.559000	25.776791	0.000812	20.819133
1179.352401	-2.985600	3.535900	-10.555000	25.742463	0.000811	20.804093
1180.348046	-2.985100	3.537800	-10.559000	25.672913	0.000812	20.797298
1181.347662	-2.996800	3.535300	-10.592000	25.653752	0.000811	20.799390
1182.350833	-3.021200	3.534100	-10.675000	25.662415	0.000811	20.804772
1183.347423	-2.985000	3.534500	-10.550000	25.685080	0.000810	20.811889
1184.347493	-2.989300	3.534400	-10.564000	25.709224	0.000808	20.820018
1185.350562	-3.004400	3.533200	-10.614000	25.703876	0.000809	20.800421
1186.347388	-2.989100	3.534900	-10.565000	25.694541	0.000808	20.814279
1187.347304	-3.008000	3.532900	-10.626000	25.701394	0.000809	20.812627
1188.347824	-2.974500	3.532900	-10.507000	25.696975	0.000808	20.808663
1189.347269	-3.001100	3.533000	-10.602000	25.691495	0.000806	20.805055
1190.349049	-2.987000	3.532100	-10.549000	25.709020	0.000808	20.810804
1191.347990	-3.001700	3.532100	-10.601000	25.704022	0.000808	20.821905
1192.347677	-3.015000	3.531700	-10.647000	25.702810	0.000806	20.829222
1193.348605	-3.005900	3.533100	-10.619000	25.743723	0.000805	20.806781
1194.347983	-2.993600	3.532300	-10.573000	25.725372	0.000805	20.813952
1195.347535	-3.012100	3.530800	-10.635000	25.742453	0.000805	20.801712
1196.347186	-3.003600	3.530100	-10.602000	25.778241	0.000804	20.805417
1197.348196	-3.011900	3.530300	-10.631000	25.751082	0.000805	20.806585
1198.348811	-3.018200	3.528700	-10.650000	25.764226	0.000803	20.811254
1199.348163	-2.980400	3.529900	-10.519000	25.779803	0.000803	20.810779
1200.350006	-2.994900	3.528800	-10.568000	25.779210	0.000802	20.796433
1201.369670	-2.987900	3.528800	-10.543000	25.793069	0.000802	20.793759
1202.361491	-2.985300	3.530100	-10.537000	25.772421	0.000800	20.804312
1203.364334	-3.009200	3.527100	-10.612000	25.743650	0.000799	20.794854
1204.367769	-2.994600	3.527400	-10.562000	25.710728	0.000800	20.773639
1205.370985	-3.003300	3.527000	-10.591000	25.721936	0.000798	20.801966
1206.361700	-2.989700	3.527800	-10.545000	25.711876	0.000800	20.783327
1207.366952	-2.984500	3.528000	-10.528000	25.723449	0.000798	20.799693
1208.364976	-2.994600	3.526300	-10.559000	25.705049	0.000797	20.809186
1209.365132	-3.013100	3.524800	-10.620000	25.701272	0.000798	20.783582
1210.371517	-2.998300	3.524900	-10.568000	25.683951	0.000795	20.797479
1211.365957	-2.996300	3.524100	-10.558000	25.655032	0.000796	20.790719
1212.375253	-2.981900	3.525300	-10.511000	25.632858	0.000797	20.800690
1213.364730	-3.008800	3.523900	-10.600000	25.600911	0.000795	20.788993
1214.377204	-3.011000	3.524000	-10.609000	25.595196	0.000796	20.776616
1215.366491	-2.993700	3.523600	-10.547000	25.594554	0.000795	20.795885
1216.365775	-3.020500	3.523400	-10.642000	25.567195	0.000794	20.809660
1217.374876	-3.007800	3.523100	-10.596000	25.580390	0.000793	20.790670
1218.367661	-2.993100	3.522400	-10.542000	25.606079	0.000792	20.789917
1219.374055	-2.996600	3.522900	-10.555000	25.642115	0.000792	20.791970
1220.374683	-2.994500	3.522600	-10.547000	25.645493	0.000792	20.799630
1221.380656	-2.995200	3.521600	-10.545000	25.694541	0.000789	20.769709
1222.384022	-2.999900	3.521100	-10.562000	25.679785	0.000789	20.802778
1223.369454	-3.016400	3.518900	-10.613000	25.709794	0.000789	20.788348
1224.375004	-2.989300	3.520900	-10.524000	25.716909	0.000790	20.790753
1225.376137	-3.018300	3.519400	-10.620000	25.759116	0.000790	20.776249
1226.377146	-3.024300	3.519400	-10.642000	25.772626	0.000788	20.774646
1227.376185	-3.010600	3.519900	-10.596000	25.785093	0.000787	20.773893
1228.384201	-2.998700	3.519300	-10.552000	25.797653	0.000789	20.760905
1229.372297	-3.015000	3.518700	-10.608000	25.814174	0.000786	20.782717
1230.375760	-3.023700	3.517700	-10.635000	25.846938	0.000787	20.776274
1231.377457	-3.002800	3.518100	-10.562000	25.849517	0.000785	20.780287
1232.386493	-2.998700	3.518400	-10.550000	25.867696	0.000788	20.765832
1233.378093	-2.989400	3.517700	-10.514000	25.871156	0.000784	20.768834
1234.377308	-3.029700	3.516700	-10.654000	25.876747	0.000783	20.776347
1235.379041	-3.013500	3.514200	-10.588000	25.889067	0.000783	20.798207
1236.372091	-3.024600	3.516100	-10.634000	25.912559	0.000784	20.791461
1237.379601	-2.994100	3.517400	-10.530000	25.872319	0.000785	20.776640
1238.384904	-2.990400	3.516500	-10.514000	25.808174	0.000781	20.784750
1239.377470	-2.967300	3.515700	-10.431000	25.800948	0.000780	20.762792
1240.376525	-3.010400	3.514600	-10.579000	25.745067	0.000780	20.789638
1241.385810	-2.990700	3.514400	-10.510000	25.724574	0.000779	20.773321
1242.378511	-2.989400	3.515100	-10.507000	25.673736	0.000778	20.753079
1243.389279	-2.990400	3.515300	-10.511000	25.720121	0.000780	20.762684
1244.382617	-3.011400	3.513400	-10.577000	25.743067	0.000780	20.783362
1245.378410	-3.034600	3.512000	-10.657000	25.785346	0.000777	20.780786
1246.375014	-2.985200	3.512700	-10.485000	25.787877	0.000777	20.785698
1247.381574	-2.997400	3.511700	-10.524000	25.825770	0.000779	20.775873
1248.374553	-3.003600	3.512000	-10.547000	25.850037	0.000775	20.784603
1249.376602	-3.007200	3.510700	-10.557000	25.850884	0.000777	20.757478
1250.374622	-2.988300	3.512000	-10.494000	25.880596	0.000776	20.751764
1251.387308	-3.010800	3.509600	-10.566000	25.857745	0.000776	20.786656
1252.387701	-2.985400	3.511500	-10.481000	25.841322	0.000775	20.772529
1253.376469	-3.003300	3.511600	-10.545000	25.876251	0.000774	20.763994
1254.377309	-2.995800	3.510000	-10.514000	25.863687	0.000776	20.764650
1255.399529	-3.004200	3.509000	-10.540000	25.902176	0.000774	20.775340
1256.381980	-3.032900	3.507500	-10.637000	25.890070	0.000774	20.776455
1257.379957	-3.009400	3.508200	-10.557000	25.846719	0.000773	20.775580
1258.386765	-2.983800	3.509900	-10.471000	25.773069	0.000772	20.762289
1259.379397	-3.004700	3.508000	-10.540000	25.708699	0.000773	20.755005
1260.378104	-3.005300	3.507700	-10.541000	25.715634	0.000769	20.778567
1261.386903	-2.991000	3.508200	-10.491000	25.644287	0.000769	20.769968
1262.389038	-2.995300	3.506200	-10.502000	25.664708	0.000769	20.750176
1263.380063	-3.005400	3.507900	-10.541000	25.632411	0.000771	20.762783
1264.379670	-3.014300	3.505600	-10.566000	25.635424	0.000767	20.762964
1265.378901	-3.006300	3.505400	-10.537000	25.643751	0.000766	20.768483
1266.382329	-3.007100	3.505900	-10.542000	25.652371	0.000767	20.745370
1267.383896	-3.022200	3.502600	-10.584000	25.640169	0.000767	20.766307
1268.386657	-2.998600	3.506100	-10.513000	25.643036	0.000767	20.752591
1269.379001	-3.011800	3.503000	-10.550000	25.642866	0.000765	20.762377
1270.385355	-3.005700	3.503600	-10.529000	25.683309	0.000764	20.745150
1271.379821	-2.999000	3.503700	-10.507000	25.727017	0.000763	20.750171
1272.379530	-3.014900	3.504100	-10.564000	25.756236	0.000762	20.779046
1273.383839	-2.987000	3.503100	-10.463000	25.808413	0.000762	20.759860
1274.394296	-2.975400	3.503200	-10.422000	25.851985	0.000761	20.761903
1275.385758	-3.004500	3.502200	-10.521000	25.854345	0.000762	20.772809
1276.380213	-3.017200	3.501500	-10.563000	25.847167	0.000762	20.760383
1277.382009	-3.008800	3.500400	-10.530000	25.805630	0.000759	20.748529
1278.382667	-2.989700	3.501200	-10.466000	25.813036	0.000758	20.761659
1279.381198	-3.011500	3.500500	-10.541000	25.847192	0.000759	20.753295
1280.402654	-3.009200	3.500400	-10.533000	25.852783	0.000759	20.763179
1281.385277	-3.007900	3.498900	-10.523000	25.850277	0.000758	20.757816
1282.383627	-2.983600	3.500400	-10.442000	25.866169	0.000757	20.755763
1283.383573	-2.988100	3.498500	-10.453000	25.843513	0.000757	20.745331
1284.383750	-3.000500	3.498200	-10.495000	25.842798	0.000758	20.768321
1285.386910	-2.989600	3.498400	-10.457000	25.864111	0.000757	20.741841
1286.396588	-3.015600	3.496800	-10.544000	25.879288	0.000757	20.737173
1287.384117	-3.008600	3.497500	-10.522000	25.881755	0.000755	20.759092
1288.386181	-2.987900	3.498400	-10.452000	25.881502	0.000755	20.750303
1289.388810	-2.981400	3.496900	-10.425000	25.915387	0.000755	20.744989
1290.381575	-3.020300	3.495700	-10.557000	25.923606	0.000755	20.754194
1291.380508	-2.992900	3.497600	-10.466000	25.901252	0.000753	20.752126
1292.398662	-2.991400	3.495400	-10.454000	25.912025	0.000752	20.736870
1293.380375	-2.995900	3.495800	-10.472000	25.890338	0.000751	20.723143
1294.391142	-2.987200	3.494900	-10.439000	25.840004	0.000752	20.731849
1295.392270	-2.990700	3.494800	-10.450000	25.821581	0.000750	20.734205
1296.383470	-3.010600	3.494800	-10.521000	25.836637	0.000750	20.768297
1297.382077	-3.012000	3.492400	-10.517000	25.869678	0.000751	20.752649
1298.384284	-2.993800	3.494300	-10.460000	25.853498	0.000752	20.753466
1299.387114	-3.010400	3.494500	-10.517000	25.871230	0.000750	20.747096
1300.386523	-3.023900	3.493000	-10.562000	25.891029	0.000750	20.746123
1301.396282	-3.015300	3.492300	-10.529000	25.893219	0.000749	20.738365
1302.393730	-2.987400	3.493300	-10.435000	25.868758	0.000749	20.736078
1303.394197	-3.009900	3.492900	-10.512000	25.870466	0.000748	20.751070
1304.390542	-3.005300	3.493000	-10.497000	25.856549	0.000748	20.736615
1305.394110	-2.998000	3.490800	-10.465000	25.878383	0.000748	20.744324
1306.393481	-3.005700	3.491100	-10.492000	25.867016	0.000745	20.746182
1307.395554	-3.022400	3.490900	-10.550000	25.846189	0.000746	20.734743
1308.392833	-2.988300	3.488900	-10.425000	25.865313	0.000746	20.741152
1309.389400	-2.981200	3.490800	-10.406000	25.892060	0.000744	20.740521
1310.388908	-3.020500	3.489100	-10.538000	25.914750	0.000745	20.732494
1311.407832	-2.996400	3.488600	-10.452000	25.961694	0.000744	20.731292
1312.398259	-3.002100	3.488200	-10.470000	25.929731	0.000743	20.735217
1313.389978	-2.973100	3.489600	-10.373000	25.921927	0.000742	20.732592
1314.415536	-3.028000	3.488000	-10.559000	25.898824	0.000743	20.734987
1315.394042	-2.991300	3.487900	-10.432000	25.905252	0.000743	20.738126
1316.397150	-2.991900	3.487000	-10.432000	25.889482	0.000742	20.721808
1317.407208	-3.009100	3.486300	-10.490000	25.929031	0.000743	20.734987
1318.405061	-2.993400	3.485200	-10.431000	25.925002	0.000740	20.738527
1319.402703	-2.992600	3.485900	-10.430000	25.942562	0.000739	20.719183
1320.401021	-3.000100	3.483700	-10.450000	25.939730	0.000737	20.731986
1321.395047	-2.976500	3.485200	-10.372000	25.976047	0.000737	20.741445
1322.405809	-2.997200	3.483900	-10.441000	25.979277	0.000736	20.748010
1323.403904	-2.999800	3.483900	-10.451000	25.986332	0.000737	20.716216
1324.395894	-3.005600	3.483900	-10.471000	26.005346	0.000735	20.713033
1325.405350	-3.013300	3.483800	-10.496000	26.000175	0.000735	20.743400
1326.396541	-2.994600	3.483600	-10.431000	26.037170	0.000737	20.707548
1327.399502	-3.006000	3.481000	-10.463000	26.029147	0.000735	20.743112
1328.393213	-2.995900	3.482100	-10.430000	25.993183	0.000735	20.736850
1329.402856	-3.001500	3.481200	-10.448000	25.958633	0.000734	20.722527
1330.394622	-2.989400	3.480500	-10.403000	25.895063	0.000732	20.727889
1331.407094	-2.984600	3.481100	-10.388000	25.858378	0.000734	20.727073
1332.405236	-2.968800	3.481700	-10.336000	25.877224	0.000732	20.731780
1333.395745	-2.985300	3.479700	-10.385000	25.902687	0.000732	20.736498
1334.401505	-3.010200	3.478700	-10.470000	25.923138	0.000732	20.716739
1335.405396	-2.993500	3.479400	-10.415000	25.930461	0.000729	20.725044
1336.402937	-2.980400	3.479500	-10.369000	25.931210	0.000729	20.719158
1337.397631	-3.001200	3.478900	-10.440000	25.931561	0.000729	20.723304
1338.397469	-3.013800	3.478400	-10.482000	25.913820	0.000728	20.725870
1339.405805	-3.010900	3.477400	-10.469000	25.876957	0.000729	20.731037
1340.408287	-2.996500	3.477900	-10.420000	25.863342	0.000726	20.711195
1341.401751	-3.026300	3.476000	-10.518000	25.865142	0.000730	20.716323
1342.413655	-2.989500	3.477600	-10.395000	25.907743	0.000729	20.746793
1343.397874	-3.004500	3.475900	-10.443000	25.917908	0.000728	20.705319
1344.404577	-2.974400	3.478500	-10.346000	25.916964	0.000727	20.722864
1345.400922	-2.997200	3.475900	-10.417000	25.898255	0.000728	20.715448
1346.405095	-3.006400	3.475200	-10.447000	25.908648	0.000726	20.711665
1347.394899	-3.014000	3.474400	-10.471000	25.903033	0.000725	20.706497
1348.400386	-3.003800	3.475700	-10.439000	25.875210	0.000726	20.707944
1349.408746	-2.990400	3.474200	-10.387000	25.904157	0.000725	20.709998
1350.402084	-3.004300	3.474700	-10.438000	25.912497	0.000725	20.711738
1351.400388	-2.973600	3.474400	-10.330000	25.901642	0.000723	20.718851
1352.400652	-3.017300	3.472700	-10.477000	25.928072	0.000724	20.707944
1353.403591	-3.017900	3.469900	-10.470000	25.924778	0.000721	20.727396
1354.395282	-2.997200	3.472600	-10.407000	25.895248	0.000725	20.719540
1355.401264	-3.031100	3.469300	-10.514000	25.881405	0.000721	20.707529
1356.401773	-3.026000	3.470600	-10.501000	25.856642	0.000721	20.702093
1357.415352	-3.023000	3.470100	-10.489000	25.866106	0.000722	20.719188
1358.398167	-3.014800	3.468800	-10.457000	25.864145	0.000720	20.710580
1359.404657	-3.014700	3.471100	-10.462000	25.917431	0.000721	20.699624
1360.414132	-2.987200	3.470400	-10.365000	25.896990	0.000721	20.711807
1361.409105	-2.983100	3.470200	-10.350000	25.907933	0.000717	20.696246
1362.413035	-2.981100	3.469800	-10.341000	25.912872	0.000718	20.705002
1363.400333	-2.994000	3.469500	-10.385000	25.932135	0.000719	20.707285
1364.405246	-2.978800	3.468700	-10.331000	25.905150	0.000717	20.684440
1365.406380	-2.965800	3.468600	-10.286000	25.862330	0.000717	20.704488
1366.403252	-3.013600	3.466100	-10.444000	25.856486	0.000717	20.709049
1367.402131	-3.019000	3.466700	-10.465000	25.875887	0.000715	20.716685
1368.404681	-3.005000	3.466200	-10.415000	25.881672	0.000715	20.706375
1369.407201	-2.983700	3.468200	-10.347000	25.898202	0.000715	20.688840
1370.412420	-2.991600	3.466300	-10.367000	25.929970	0.000715	20.692306
1371.426631	-3.001500	3.464100	-10.397000	25.950265	0.000714	20.704635
1372.406857	-3.005700	3.464100	-10.411000	25.954853	0.000714	20.695967
1373.407948	-3.007900	3.464000	-10.418000	25.971600	0.000712	20.687188
1374.408450	-3.028100	3.464100	-10.488000	26.000934	0.000712	20.692003
1375.404941	-3.011900	3.463100	-10.429000	26.012309	0.000712	20.705803
1376.400743	-2.986300	3.463200	-10.340000	26.007152	0.000712	20.696828
1377.402630	-3.002300	3.463700	-10.398000	26.013034	0.000710	20.688987
1378.403828	-2.986500	3.463400	-10.343000	25.950664	0.000709	20.691758
1379.409659	-3.002700	3.460100	-10.389000	25.908926	0.000710	20.701037
1380.400665	-2.981900	3.463100	-10.326000	25.864958	0.000707	20.685315
1381.410688	-2.989900	3.461400	-10.349000	25.830934	0.000709	20.682431
1382.401357	-2.986900	3.460900	-10.336000	25.835717	0.000708	20.719007
1383.403112	-3.023900	3.459200	-10.458000	25.825951	0.000708	20.682167
1384.400911	-3.000900	3.461400	-10.386000	25.813664	0.000709	20.699223
1385.405860	-2.985900	3.460700	-10.332000	25.801586	0.000707	20.700367
1386.419002	-2.984100	3.460000	-10.324000	25.794058	0.000707	20.685692
1387.408370	-2.991800	3.460300	-10.352000	25.814778	0.000708	20.688014
1388.404649	-2.998600	3.457400	-10.366000	25.827645	0.000706	20.696671
1389.415174	-3.022400	3.457700	-10.450000	25.852335	0.000705	20.705828
1390.405526	-2.989900	3.458800	-10.340000	25.862778	0.000704	20.692609
1391.409451	-3.005600	3.457700	-10.391000	25.856992	0.000704	20.675416
1392.415671	-3.012800	3.456300	-10.413000	25.824000	0.000704	20.705339
1393.405358	-2.965300	3.457300	-10.251000	25.816049	0.000705	20.699248
1394.416796	-3.001900	3.456300	-10.374000	25.837105	0.000703	20.693846
1395.406225	-2.973900	3.455900	-10.276000	25.882212	0.000703	20.687476
1396.404553	-2.992700	3.454600	-10.337000	25.906994	0.000704	20.683922
1397.405964	-2.995700	3.456100	-10.353000	25.909875	0.000704	20.688713
1398.403028	-3.005200	3.454700	-10.380000	25.941351	0.000704	20.686196
1399.407820	-2.968600	3.455800	-10.258000	25.928730	0.000701	20.685369
1400.416531	-2.960600	3.455000	-10.228000	25.937999	0.000701	20.681405
1401.407802	-3.027300	3.453600	-10.454000	25.937274	0.000701	20.694902
1402.410356	-2.993900	3.452200	-10.333000	25.906907	0.000698	20.683360
1403.421077	-3.013300	3.451700	-10.400000	25.917364	0.000700	20.677269
1404.410382	-3.027300	3.451700	-10.448000	25.933956	0.000699	20.679713
1405.410764	-3.017900	3.452300	-10.418000	25.951394	0.000699	20.683483
1406.412702	-2.980300	3.452300	-10.288000	25.998988	0.000696	20.667761
1407.412015	-3.000000	3.452000	-10.354000	26.004652	0.000698	20.687677
1408.403930	-2.996700	3.451600	-10.342000	26.014514	0.000695	20.693793
1409.418450	-3.015800	3.449500	-10.402000	26.025645	0.000698	20.701659
1410.411004	-2.999200	3.450200	-10.347000	26.033269	0.000694	20.672806
1411.428249	-2.980900	3.450500	-10.284000	26.049616	0.000697	20.681170
1412.410609	-2.997600	3.449100	-10.336000	26.054637	0.000694	20.698070
1413.419711	-2.995500	3.448100	-10.328000	26.066956	0.000694	20.691481
1414.411014	-2.993400	3.448900	-10.322000	26.054627	0.000694	20.709915
1415.421194	-2.995300	3.448200	-10.328000	26.070332	0.000693	20.687286
1416.409194	-3.001700	3.446800	-10.345000	26.029878	0.000693	20.687892
1417.406621	-2.999000	3.445800	-10.333000	25.992741	0.000693	20.705110
1418.406401	-3.018200	3.445600	-10.399000	25.932633	0.000690	20.686445
1419.418615	-2.995200	3.446900	-10.323000	25.930054	0.000690	20.696184
1420.409186	-2.995500	3.447500	-10.326000	25.938598	0.000691	20.703345
1421.410727	-3.010600	3.445600	-10.371000	25.905307	0.000691	20.692659
1422.422572	-2.997100	3.445100	-10.324000	25.921656	0.000688	20.699601
1423.412571	-2.986000	3.445000	-10.286000	25.923616	0.000692	20.705839
1424.424354	-3.003900	3.443700	-10.344000	25.967616	0.000689	20.693143
1425.410326	-3.012900	3.443600	-10.374000	26.009269	0.000689	20.699904
1426.417150	-3.006900	3.442800	-10.351000	25.998463	0.000688	20.699953
1427.410805	-2.989800	3.443800	-10.294000	26.023077	0.000687	20.710458
1428.428187	-2.995600	3.442600	-10.311000	26.027952	0.000686	20.684060
1429.415954	-2.983900	3.442500	-10.271000	26.051655	0.000686	20.693177
1430.416681	-3.010100	3.441400	-10.357000	26.083069	0.000687	20.698662
1431.416850	-3.001900	3.442000	-10.331000	26.106119	0.000687	20.703805
1432.414951	-2.986300	3.441000	-10.275000	26.141389	0.000686	20.697044
1433.420501	-3.004700	3.441800	-10.340000	26.152388	0.000684	20.689604
1434.413785	-3.018700	3.439000	-10.380000	26.139088	0.000683	20.703742
1435.425006	-2.990100	3.439900	-10.285000	26.157579	0.000685	20.679171
1436.415142	-3.013800	3.440700	-10.368000	26.158265	0.000683	20.703571
1437.422398	-2.987900	3.439700	-10.277000	26.181581	0.000683	20.692860
1438.421018	-2.991500	3.438700	-10.286000	26.153001	0.000683	20.694962
1439.415523	-3.007600	3.437900	-10.340000	26.145632	0.000680	20.707946
1440.416109	-2.996900	3.438700	-10.304000	26.136802	0.000680	20.698599
1441.426190	-3.004500	3.436400	-10.323000	26.107229	0.000680	20.684530
1442.422412	-3.001000	3.436700	-10.313000	26.101444	0.000681	20.691046
1443.423187	-3.021000	3.435700	-10.377000	26.111403	0.000679	20.723814
1444.421129	-2.996200	3.437300	-10.298000	26.070031	0.000679	20.684613
1445.426143	-2.991800	3.436500	-10.281000	26.013162	0.000679	20.726102
1446.429420	-2.977900	3.436400	-10.232000	25.957239	0.000679	20.715435
1447.435663	-3.012400	3.434200	-10.343000	25.941143	0.000678	20.707325
1448.423008	-2.990600	3.435800	-10.273000	25.972327	0.000676	20.693608
1449.418896	-3.009500	3.434600	-10.336000	25.963326	0.000678	20.702584
1450.418174	-2.989100	3.434800	-10.265000	26.003403	0.000676	20.692587
1451.425712	-3.001800	3.433800	-10.307000	26.025403	0.000674	20.703786
1452.424456	-3.014300	3.432400	-10.346000	26.051987	0.000675	20.695882
1453.424775	-2.995500	3.433200	-10.284000	26.023248	0.000673	20.699250
1454.419759	-2.998000	3.432700	-10.290000	26.006657	0.000675	20.707238
1455.424573	-3.013700	3.431600	-10.340000	25.984004	0.000674	20.717670
1456.420477	-2.995500	3.431300	-10.277000	25.983328	0.000674	20.698971
1457.434514	-3.017000	3.432200	-10.352000	25.963190	0.000673	20.713353
1458.426049	-3.051100	3.428800	-10.460000	25.956305	0.000673	20.719713
1459.430179	-2.989600	3.431900	-10.258000	25.973573	0.000673	20.715724
1460.425071	-3.001400	3.430000	-10.293000	26.007903	0.000673	20.708489
1461.438250	-3.001500	3.430000	-10.294000	26.009669	0.000671	20.691296
1462.429337	-3.035900	3.428400	-10.408000	25.987561	0.000672	20.703698
1463.424685	-2.991600	3.429400	-10.259000	25.948218	0.000671	20.703053
1464.431485	-3.021700	3.429000	-10.359000	25.927345	0.000671	20.711007
1465.433310	-2.976600	3.429200	-10.205000	25.898612	0.000669	20.708695
1466.437319	-2.981200	3.427700	-10.218000	25.892924	0.000671	20.708670
1467.437020	-3.020300	3.426700	-10.347000	25.915871	0.000668	20.710386
1468.432072	-2.975500	3.427600	-10.198000	25.915906	0.000667	20.702359
1469.432298	-2.995800	3.427300	-10.266000	25.949513	0.000669	20.723795
1470.436751	-3.019700	3.424700	-10.340000	25.969481	0.000666	20.705449
1471.435426	-3.007100	3.426100	-10.301000	26.018091	0.000666	20.695965
1472.429643	-2.997000	3.427100	-10.270000	26.022630	0.000667	20.723761
1473.429435	-2.996000	3.425200	-10.260000	26.016724	0.000666	20.716878
1474.428181	-3.004200	3.424600	-10.287000	26.011328	0.000664	20.726156
1475.434527	-3.013200	3.423900	-10.316000	25.993394	0.000665	20.724260
1476.456949	-3.017200	3.424100	-10.330000	26.000522	0.000665	20.708660
1477.432817	-3.003200	3.423200	-10.280000	25.961083	0.000665	20.711237
1478.425983	-2.981000	3.424400	-10.207000	25.968128	0.000665	20.718315
1479.442513	-3.005600	3.422800	-10.288000	25.967306	0.000663	20.744991
1480.431619	-3.033600	3.421300	-10.377000	26.012175	0.000663	20.716101
1481.437181	-3.021700	3.421400	-10.336000	25.985902	0.000662	20.711515
1482.427821	-3.009100	3.422800	-10.299000	25.948204	0.000661	20.706832
1483.430754	-3.003800	3.420500	-10.271000	25.926338	0.000662	20.743188
1484.429303	-3.003300	3.421000	-10.273000	25.916548	0.000662	20.737620
1485.437895	-2.977400	3.421300	-10.185000	25.922343	0.000659	20.717836
1486.434682	-3.022500	3.419100	-10.334000	25.928080	0.000658	20.712219
1487.435878	-3.011400	3.419400	-10.296000	25.964299	0.000661	20.724426
1488.436671	-3.011000	3.418900	-10.293000	25.958285	0.000659	20.723126
1489.434314	-2.988400	3.419700	-10.218000	25.980769	0.000658	20.718687
1490.434156	-2.999000	3.417900	-10.248000	26.012993	0.000658	20.734941
1491.443367	-3.021700	3.416600	-10.322000	26.035572	0.000657	20.721591
1492.436652	-3.003900	3.419300	-10.270000	26.045653	0.000659	20.722710
1493.434905	-2.995900	3.417200	-10.237000	26.052683	0.000655	20.729774
1494.445098	-2.994100	3.417200	-10.230000	26.053759	0.000658	20.721371
1495.433713	-3.013400	3.417000	-10.296000	26.053301	0.000657	20.712850
1496.437569	-3.012800	3.415600	-10.290000	26.056531	0.000655	20.725106
1497.436944	-2.990800	3.415100	-10.213000	26.079290	0.000654	20.734223
1498.441432	-3.047300	3.414900	-10.405000	26.093944	0.000654	20.721444
1499.435234	-3.016000	3.414000	-10.296000	26.124447	0.000652	20.746405
1500.448548	-2.981000	3.415200	-10.180000	26.133388	0.000654	20.746380
1501.445426	-2.996100	3.415500	-10.232000	26.125945	0.000653	20.714718
1502.436869	-2.991400	3.414200	-10.211000	26.163491	0.000652	20.734428
1503.434844	-3.005300	3.413500	-10.258000	26.177369	0.000651	20.719924
1504.437011	-2.985500	3.413300	-10.189000	26.213702	0.000652	20.727511
1505.442214	-2.975700	3.414200	-10.158000	26.162255	0.000650	20.724177
1506.439279	-2.988000	3.413400	-10.198000	26.120102	0.000651	20.739669
1507.437616	-2.998100	3.412600	-10.230000	26.092090	0.000650	20.746610
1508.438114	-3.006400	3.411700	-10.256000	26.105858	0.000648	20.734365
1509.444715	-3.012500	3.412000	-10.278000	26.118079	0.000647	20.735739
1510.445324	-3.011500	3.411800	-10.272000	26.119037	0.000650	20.732434
1511.438927	-3.025100	3.410400	-10.316000	26.107950	0.000649	20.731251
1512.437205	-2.982600	3.410300	-10.170000	26.095788	0.000648	20.743213
1513.441520	-2.999800	3.409100	-10.226000	26.049930	0.000647	20.742182
1514.439888	-3.014500	3.408900	-10.276000	26.080288	0.000645	20.742338
1515.439984	-3.029700	3.408600	-10.325000	26.090091	0.000645	20.738437
1516.449367	-2.997400	3.408700	-10.216000	26.137061	0.000646	20.727311
1517.440525	-3.021600	3.407700	-10.295000	26.180692	0.000644	20.716151
1518.451026	-2.988500	3.407900	-10.184000	26.156408	0.000645	20.768090
1519.442417	-3.011800	3.406400	-10.257000	26.172345	0.000643	20.740955
1520.461779	-3.002300	3.408700	-10.233000	26.169971	0.000644	20.750424
1521.460818	-2.980900	3.407300	-10.156000	26.164819	0.000644	20.756627
1522.441993	-3.008400	3.407100	-10.249000	26.177681	0.000643	20.734463
1523.452993	-2.979900	3.407400	-10.152000	26.140379	0.000642	20.765260
1524.454993	-2.970100	3.408500	-10.122000	26.122968	0.000643	20.734487
1525.444048	-3.009800	3.403500	-10.244000	26.103898	0.000643	20.755155
1526.446183	-2.994200	3.405700	-10.197000	26.109200	0.000641	20.743887
1527.469524	-2.989400	3.404700	-10.177000	26.109356	0.000641	20.757321
1528.457097	-2.987500	3.404600	-10.170000	26.100171	0.000641	20.737660
1529.456668	-3.001600	3.403200	-10.215000	26.110665	0.000639	20.753420
1530.448313	-3.006500	3.404100	-10.233000	26.158408	0.000639	20.752081
1531.446638	-3.001200	3.403200	-10.213000	26.157648	0.000638	20.747050
1532.449417	-3.011700	3.404600	-10.253000	26.138165	0.000639	20.746913
1533.456894	-3.024000	3.402800	-10.289000	26.092333	0.000637	20.735474
1534.447803	-2.992500	3.402200	-10.180000	26.116532	0.000637	20.755048
1535.452116	-2.993100	3.402100	-10.182000	26.145487	0.000638	20.757115
1536.448201	-3.012400	3.401600	-10.246000	26.162970	0.000637	20.754769
1537.451323	-2.995400	3.402200	-10.190000	26.202704	0.000635	20.748702
1538.449656	-3.002600	3.402000	-10.213000	26.207870	0.000635	20.745359
1539.453912	-2.977600	3.402100	-10.129000	26.191939	0.000637	20.762067
1540.457932	-3.001300	3.399900	-10.203000	26.156729	0.000634	20.760825
1541.455993	-2.987700	3.400600	-10.159000	26.118604	0.000636	20.763294
1542.457884	-3.001500	3.399500	-10.202000	26.073808	0.000634	20.753371
1543.451226	-2.995900	3.399400	-10.184000	26.073384	0.000634	20.765274
1544.451489	-2.994700	3.398700	-10.177000	26.086491	0.000634	20.744777
1545.450311	-3.017700	3.398100	-10.254000	26.112771	0.000632	20.759330
1546.450785	-2.992100	3.397400	-10.163000	26.145997	0.000634	20.773750
1547.452048	-3.002600	3.396400	-10.198000	26.167412	0.000630	20.766819
1548.455211	-3.013500	3.396700	-10.235000	26.195675	0.000629	20.763925
1549.455552	-3.021600	3.396800	-10.262000	26.243414	0.000630	20.773966
1550.458962	-2.980600	3.396800	-10.123000	26.228860	0.000629	20.747960
1551.453553	-3.005400	3.395300	-10.203000	26.215031	0.000628	20.751606
1552.457491	-3.038900	3.395100	-10.315000	26.185051	0.000627	20.754197
1553.452874	-3.007000	3.395200	-10.208000	26.187542	0.000629	20.772822
1554.452391	-2.989500	3.395200	-10.149000	26.193471	0.000628	20.789686
1555.460862	-2.997100	3.394500	-10.173000	26.184010	0.000627	20.765005
1556.461900	-2.984600	3.394600	-10.130000	26.188412	0.000628	20.748566
1557.453854	-3.014500	3.393400	-10.229000	26.171800	0.000626	20.774547
1558.458245	-3.000100	3.392400	-10.176000	26.157050	0.000626	20.763045
1559.455329	-3.007400	3.393400	-10.204000	26.174038	0.000626	20.776796
1560.464205	-2.979100	3.392600	-10.106000	26.188437	0.000625	20.773247
1561.452004	-3.003300	3.391400	-10.184000	26.207287	0.000624	20.758998
1562.455268	-3.007100	3.392100	-10.200000	26.241998	0.000625	20.768276
1563.462774	-2.990600	3.391500	-10.142000	26.255438	0.000626	20.785101
1564.459632	-3.006900	3.391500	-10.196000	26.268407	0.000624	20.778693
1565.455153	-3.003500	3.391400	-10.185000	26.254300	0.000624	20.789173
1566.466200	-3.006300	3.390400	-10.192000	26.279404	0.000623	20.773623
1567.455600	-3.022900	3.389500	-10.245000	26.306974	0.000622	20.784260
1568.457995	-3.023900	3.388800	-10.246000	26.299765	0.000623	20.783654
1569.456828	-2.990100	3.388400	-10.130000	26.286929	0.000621	20.773599
1570.455701	-3.010700	3.388900	-10.202000	26.298243	0.000622	20.790185
1571.465286	-2.998900	3.388200	-10.160000	26.303491	0.000621	20.778864
1572.453997	-3.009800	3.387500	-10.195000	26.296764	0.000618	20.773526
1573.460587	-3.001100	3.388100	-10.166000	26.282065	0.000617	20.789574
1574.459282	-2.997100	3.386700	-10.149000	26.267088	0.000618	20.775945
1575.461098	-3.002700	3.387100	-10.169000	26.255910	0.000618	20.780834
1576.457634	-3.011500	3.386500	-10.198000	26.259646	0.000615	20.787433
1577.460921	-2.979100	3.386500	-10.088000	26.279220	0.000617	20.780076
1578.457510	-3.005800	3.386200	-10.177000	26.275265	0.000615	20.777999
1579.459846	-3.021100	3.385500	-10.226000	26.282994	0.000617	20.798094
1580.467165	-2.998000	3.385900	-10.150000	26.304649	0.000615	20.780502
1581.461052	-2.995700	3.385100	-10.139000	26.280344	0.000614	20.787370
1582.462760	-2.984200	3.386300	-10.105000	26.309440	0.000613	20.772040
1583.459949	-3.017700	3.383300	-10.208000	26.275650	0.000614	20.795455
1584.464809	-2.985600	3.384300	-10.102000	26.277270	0.000612	20.789496
1585.466311	-3.004600	3.383500	-10.164000	26.267011	0.000614	20.783454
1586.461104	-2.988600	3.383300	-10.111000	26.254948	0.000612	20.787927
1587.464032	-3.004100	3.382100	-10.159000	26.280256	0.000612	20.794869
1588.462802	-3.010100	3.382000	-10.178000	26.230777	0.000612	20.804889
1589.464036	-3.002800	3.381600	-10.153000	26.210727	0.000609	20.790904
1590.465662	-2.997900	3.382300	-10.140000	26.207292	0.000608	20.783660
1591.464505	-3.008100	3.380700	-10.169000	26.181836	0.000611	20.790797
1592.469956	-2.991900	3.380700	-10.113000	26.149253	0.000610	20.791246
1593.470081	-2.975200	3.380400	-10.057000	26.167170	0.000610	20.780326
1594.465034	-3.002100	3.379900	-10.145000	26.210727	0.000608	20.811293
1595.466932	-3.017900	3.379000	-10.196000	26.223782	0.000608	20.804498
1596.465620	-2.994500	3.379200	-10.118000	26.272960	0.000608	20.802235
1597.467113	-3.009400	3.379700	-10.170000	26.262001	0.000607	20.784584
1598.468108	-3.016100	3.378200	-10.188000	26.278428	0.000607	20.823376
1599.470596	-3.026900	3.379100	-10.227000	26.290914	0.000606	20.805579
1600.468161	-2.975300	3.378100	-10.050000	26.289051	0.000605	20.789008
1601.472709	-3.008900	3.377000	-10.159000	26.303264	0.000605	20.789541
1602.475828	-2.975200	3.377500	-10.047000	26.269463	0.000604	20.799669
1603.472532	-2.991600	3.376300	-10.100000	26.275607	0.000604	20.802524
1604.478216	-3.016800	3.376000	-10.183000	26.294854	0.000603	20.789150
1605.469296	-2.999000	3.376400	-10.125000	26.307894	0.000605	20.811738
1606.470316	-2.999700	3.377200	-10.129000	26.288949	0.000601	20.802182
1607.475988	-2.995600	3.376200	-10.113000	26.327263	0.000601	20.806073
1608.473701	-3.009000	3.375600	-10.156000	26.323911	0.000604	20.805076
1609.475511	-3.011500	3.373800	-10.159000	26.331086	0.000604	20.788578
1610.471694	-3.005600	3.373800	-10.139000	26.336008	0.000602	20.826715
1611.475078	-2.977400	3.374100	-10.044000	26.348479	0.000601	20.819335
1612.474267	-2.972100	3.374100	-10.027000	26.352073	0.000600	20.802558
1613.473313	-2.979600	3.373200	-10.050000	26.333600	0.000601	20.798692
1614.473769	-3.000000	3.372700	-10.117000	26.355230	0.000602	20.827542
1615.475661	-2.996600	3.373300	-10.107000	26.334242	0.000600	20.808346
1616.472317	-3.016000	3.371000	-10.166000	26.325857	0.000596	20.832161
1617.471674	-2.990800	3.372400	-10.085000	26.330444	0.000597	20.815434
1618.472692	-2.998000	3.371000	-10.106000	26.314923	0.000597	20.800784
1619.470615	-3.013300	3.370500	-10.156000	26.331460	0.000597	20.823567
1620.480205	-2.993400	3.370700	-10.089000	26.367812	0.000596	20.828333
1621.480989	-2.992900	3.370700	-10.087000	26.392622	0.000594	20.825767
1622.480084	-2.982600	3.370500	-10.052000	26.429395	0.000596	20.825743
1623.485150	-2.986000	3.370100	-10.062000	26.452792	0.000596	20.812750
1624.482715	-3.007700	3.369700	-10.134000	26.449451	0.000596	20.814133
1625.475151	-2.996300	3.370700	-10.098000	26.449344	0.000594	20.830146
1626.475345	-3.005100	3.368000	-10.120000	26.452670	0.000593	20.817843
1627.479324	-3.009700	3.369200	-10.139000	26.401974	0.000591	20.829003
1628.474824	-3.023900	3.367300	-10.182000	26.421005	0.000592	20.830586
1629.482815	-3.011500	3.368900	-10.145000	26.422663	0.000592	20.833675
1630.476170	-3.029700	3.367100	-10.200000	26.425975	0.000590	20.839849
1631.478016	-3.004100	3.366300	-10.112000	26.438640	0.000590	20.837405
1632.481876	-3.013300	3.365900	-10.140000	26.456483	0.000590	20.820253
1633.477753	-3.002900	3.365900	-10.107000	26.436052	0.000589	20.822003
1634.477808	-2.985700	3.367100	-10.052000	26.407785	0.000589	20.831999
1635.480243	-2.988300	3.366400	-10.059000	26.437433	0.000588	20.816753
1636.485097	-3.003800	3.364800	-10.106000	26.433951	0.000588	20.828899
1637.477144	-2.993200	3.365100	-10.071000	26.393632	0.000587	20.824412
1638.479932	-2.990800	3.364900	-10.063000	26.383000	0.000586	20.835537
1639.477433	-2.990000	3.364500	-10.059000	26.375851	0.000588	20.812231
1640.476873	-3.001600	3.363600	-10.094000	26.379095	0.000586	20.806482
1641.477621	-2.998300	3.362500	-10.082000	26.402406	0.000585	20.823273
1642.479856	-2.992400	3.364500	-10.065000	26.399818	0.000586	20.824466
1643.491346	-3.009500	3.361300	-10.115000	26.412279	0.000584	20.825609
1644.481511	-3.035400	3.362000	-10.204000	26.427326	0.000584	20.826983
1645.488286	-3.011600	3.361700	-10.123000	26.443366	0.000582	20.821293
1646.484473	-2.993600	3.361100	-10.061000	26.462080	0.000583	20.806438
1647.491011	-2.991500	3.360300	-10.051000	26.425852	0.000584	20.799898
1648.481350	-2.993900	3.361000	-10.061000	26.427073	0.000581	20.803021
1649.489418	-2.974800	3.362200	-10.001000	26.437296	0.000582	20.815667
1650.485384	-2.976000	3.362600	-10.007000	26.428284	0.000582	20.802816
1651.494525	-2.988000	3.359900	-10.038000	26.453009	0.000583	20.800166
1652.484160	-2.998500	3.360800	-10.076000	26.419612	0.000581	20.826342
1653.495047	-2.998000	3.359400	-10.070000	26.396905	0.000579	20.811106
1654.489939	-3.005200	3.360000	-10.097000	26.381740	0.000581	20.793020
1655.487272	-3.001200	3.358900	-10.080000	26.395008	0.000579	20.799242
1656.486109	-3.005200	3.358100	-10.091000	26.384833	0.000580	20.808457
1657.482699	-2.999300	3.358600	-10.073000	26.409861	0.000577	20.796627
1658.502198	-2.978100	3.357500	-9.998200	26.399653	0.000578	20.799643
1659.484840	-2.994700	3.358500	-10.057000	26.385125	0.000576	20.805905
1660.497459	-3.021500	3.356600	-10.141000	26.400538	0.000577	20.802903
1661.485486	-2.993300	3.357300	-10.049000	26.398553	0.000577	20.803754
1662.494909	-3.007200	3.356100	-10.091000	26.408159	0.000576	20.811511
1663.492798	-3.015400	3.356500	-10.119000	26.414121	0.000575	20.813711
1664.493152	-2.982800	3.356600	-10.010000	26.458840	0.000573	20.806027
1665.489800	-2.997300	3.356300	-10.058000	26.459264	0.000574	20.787012
1666.487717	-2.995500	3.354800	-10.048000	26.469077	0.000574	20.793083
1667.492740	-3.014000	3.353600	-10.106000	26.446225	0.000572	20.787183
1668.489748	-2.985900	3.354600	-10.016000	26.428264	0.000570	20.790468
1669.501020	-2.990500	3.354300	-10.030000	26.421246	0.000572	20.807596
1670.489341	-3.002100	3.352700	-10.064000	26.450699	0.000571	20.803060
1671.501770	-2.999300	3.353100	-10.056000	26.479018	0.000572	20.803075
1672.489593	-3.028000	3.352000	-10.148000	26.491453	0.000570	20.809884
1673.493219	-2.990800	3.353000	-10.028000	26.476090	0.000569	20.793494
1674.493830	-2.986700	3.352500	-10.011000	26.474203	0.000567	20.807718
1675.496818	-3.010500	3.350600	-10.085000	26.441619	0.000567	20.803417
1676.493613	-3.015500	3.349300	-10.098000	26.453943	0.000567	20.801579
1677.494712	-2.996700	3.351300	-10.042000	26.470853	0.000566	20.809092
1678.495327	-3.004400	3.350100	-10.065000	26.488695	0.000567	20.804741
1679.494603	-3.020600	3.348500	-10.114000	26.491273	0.000568	20.784098
1680.496654	-2.994100	3.351300	-10.033000	26.529808	0.000568	20.786797
1681.494599	-3.018200	3.349900	-10.110000	26.571945	0.000567	20.779367
1682.496688	-2.984800	3.350000	-9.997700	26.596122	0.000564	20.776170
1683.499019	-3.009500	3.349700	-10.080000	26.585468	0.000567	20.799125
1684.504120	-3.014500	3.348200	-10.092000	26.627413	0.000564	20.804306
1685.501962	-2.994700	3.347800	-10.025000	26.649508	0.000565	20.794275
1686.498756	-3.014900	3.347200	-10.090000	26.680223	0.000564	20.795283
1687.501221	-3.002500	3.347100	-10.049000	26.662641	0.000563	20.787090
1688.502778	-3.003000	3.345500	-10.046000	26.649338	0.000564	20.803588
1689.504820	-2.982600	3.347700	-9.983500	26.641271	0.000563	20.775089
1690.499168	-2.997900	3.347400	-10.033000	26.551725	0.000565	20.790810
1691.501862	-3.015900	3.345900	-10.090000	26.510215	0.000560	20.768998
1692.509711	-2.993200	3.346600	-10.016000	26.467628	0.000559	20.800161
1693.499916	-2.991800	3.345200	-10.007000	26.486400	0.000558	20.779200
1694.500005	-2.997600	3.344800	-10.024000	26.497177	0.000560	20.776756
1695.496813	-3.001300	3.343800	-10.034000	26.486351	0.000560	20.777729
1696.499407	-2.995300	3.344700	-10.017000	26.498013	0.000561	20.788976
1697.499580	-3.019600	3.343900	-10.095000	26.528553	0.000557	20.769888
1698.496127	-2.992500	3.343400	-10.003000	26.516760	0.000558	20.768940
1699.497831	-3.002100	3.343500	-10.037000	26.503975	0.000557	20.777426
1700.497112	-3.003200	3.342700	-10.038000	26.465741	0.000558	20.784039
1701.503716	-2.997800	3.342900	-10.020000	26.495922	0.000557	20.781185
1702.497377	-2.984100	3.343900	-9.977800	26.522143	0.000556	20.761548
1703.495993	-2.986400	3.341600	-9.978600	26.543963	0.000556	20.751713
1704.496230	-2.982000	3.342200	-9.965600	26.565856	0.000554	20.768030
1705.496609	-3.004100	3.341000	-10.036000	26.538400	0.000553	20.760820
1706.508845	-3.016800	3.340100	-10.075000	26.581796	0.000555	20.781209
1707.502170	-2.994500	3.341300	-10.005000	26.600941	0.000552	20.761573
1708.499868	-3.020800	3.339100	-10.085000	26.589513	0.000551	20.783277
1709.510148	-2.986400	3.340400	-9.973700	26.588049	0.000553	20.742924
1710.497689	-3.008300	3.339700	-10.046000	26.606080	0.000551	20.767688
1711.499983	-2.991200	3.339000	-9.987000	26.582195	0.000550	20.756479
1712.500261	-2.998500	3.339100	-10.012000	26.595426	0.000551	20.756504
1713.507550	-2.995900	3.338700	-10.001000	26.533625	0.000550	20.768822
1714.504601	-3.006000	3.338200	-10.032000	26.505658	0.000548	20.789548
1715.500514	-3.008400	3.336900	-10.038000	26.471051	0.000551	20.764721
1716.502711	-2.995900	3.338100	-9.999400	26.431814	0.000549	20.753258
1717.498941	-3.004900	3.336300	-10.024000	26.429820	0.000547	20.765952
1718.500097	-2.965800	3.338000	-9.898400	26.448277	0.000545	20.759373
1719.500652	-2.987700	3.336900	-9.968500	26.450538	0.000547	20.777768
1720.502301	-2.997700	3.337100	-10.003000	26.481891	0.000546	20.772298
1721.504279	-3.012700	3.333900	-10.043000	26.434173	0.000546	20.765586
1722.506175	-3.003600	3.334600	-10.015000	26.413936	0.000545	20.769902
1723.508149	-2.980600	3.335600	-9.940800	26.391072	0.000545	20.758777
1724.505543	-2.974300	3.335300	-9.919400	26.345709	0.000545	20.754910
1725.508148	-2.983900	3.335400	-9.951300	26.308850	0.000545	20.761490
1726.512540	-3.014500	3.334200	-10.050000	26.305256	0.000544	20.747445
1727.503918	-2.993000	3.334700	-9.978800	26.323996	0.000541	20.762961
1728.508956	-3.000900	3.334700	-10.005000	26.327698	0.000540	20.758620
1729.515188	-3.015800	3.333100	-10.051000	26.385148	0.000543	20.758987
1730.506269	-3.024800	3.333400	-10.082000	26.366443	0.000540	20.762472
1731.516344	-2.999100	3.331700	-9.991000	26.380621	0.000541	20.768187
1732.516306	-3.005200	3.333400	-10.016000	26.394739	0.000540	20.764359
1733.512361	-3.016600	3.330500	-10.046000	26.432962	0.000540	20.740660
1734.512940	-2.992300	3.331500	-9.968000	26.455873	0.000539	20.743774
1735.509283	-3.000700	3.330900	-9.994200	26.511197	0.000539	20.756235
1736.508420	-2.998600	3.329500	-9.982700	26.509952	0.000538	20.736965
1737.508866	-2.987900	3.331600	-9.952300	26.465089	0.000537	20.749719
1738.514864	-2.985500	3.330000	-9.941100	26.444069	0.000539	20.759886
1739.508554	-2.997600	3.330500	-9.982800	26.497468	0.000535	20.754289
1740.510302	-3.000900	3.329000	-9.990200	26.492620	0.000536	20.749415
1741.517236	-2.976000	3.330100	-9.909800	26.475068	0.000537	20.748369
1742.510215	-3.013900	3.328900	-10.031000	26.487902	0.000534	20.754631
1743.514036	-3.015500	3.326000	-10.029000	26.517937	0.000534	20.735982
1744.516773	-2.995200	3.327900	-9.966500	26.499515	0.000535	20.752079
1745.513534	-3.004900	3.326600	-9.995000	26.447503	0.000536	20.758596
1746.516887	-3.014700	3.325400	-10.024000	26.432397	0.000533	20.747680
1747.511673	-3.004500	3.325900	-9.991800	26.432480	0.000531	20.738754
1748.513705	-2.994700	3.325700	-9.958000	26.428152	0.000531	20.729661
1749.515057	-3.005900	3.326100	-9.997100	26.439702	0.000531	20.723726
1750.513259	-3.014500	3.325400	-10.024000	26.478361	0.000529	20.728444
1751.519557	-2.984600	3.325800	-9.925200	26.499418	0.000529	20.748188
1752.512081	-3.027600	3.323600	-10.061000	26.512169	0.000530	20.746306
1753.511893	-3.008600	3.323600	-9.998200	26.517684	0.000529	20.737150
1754.512880	-2.997700	3.323400	-9.962300	26.538064	0.000529	20.752896
1755.518093	-2.971900	3.325700	-9.881500	26.564684	0.000526	20.735557
1756.516944	-2.996100	3.322800	-9.954100	26.541994	0.000528	20.733137
1757.518948	-2.993200	3.322800	-9.944400	26.533503	0.000526	20.757794
1758.516781	-3.008600	3.322900	-9.995900	26.512543	0.000527	20.751424
1759.516113	-3.004700	3.321700	-9.980100	26.466893	0.000525	20.730668
1760.516036	-3.000100	3.323200	-9.968800	26.438409	0.000525	20.743290
1761.517162	-3.005000	3.321900	-9.980200	26.433073	0.000523	20.731289
1762.516798	-2.994600	3.321600	-9.945800	26.459973	0.000523	20.727506
1763.518304	-3.010900	3.319000	-9.992300	26.510365	0.000521	20.747338
1764.517488	-3.008500	3.321400	-9.991600	26.500906	0.000522	20.736881
1765.521225	-2.994500	3.320900	-9.943600	26.531762	0.000521	20.738499
1766.516582	-3.011500	3.319600	-9.995400	26.581096	0.000520	20.737356
1767.520391	-2.998000	3.319700	-9.951000	26.593335	0.000520	20.730218
1768.518996	-2.997600	3.319600	-9.949100	26.619024	0.000518	20.739448
1769.522282	-2.991100	3.319100	-9.926900	26.573947	0.000519	20.728747
1770.528308	-3.002900	3.318500	-9.964100	26.546108	0.000518	20.748178
1771.519436	-2.968400	3.318500	-9.849500	26.558080	0.000516	20.719909
1772.520017	-2.984400	3.319100	-9.903200	26.569279	0.000518	20.699871
1773.518483	-2.996800	3.317100	-9.939100	26.582851	0.000517	20.734853
1774.522816	-2.955800	3.319100	-9.809200	26.627344	0.000518	20.727422
1775.520268	-3.010300	3.317000	-9.984600	26.638893	0.000518	20.727178
1776.520716	-3.002100	3.315900	-9.953500	26.640662	0.000516	20.737966
1777.523606	-2.986400	3.316700	-9.903700	26.632965	0.000515	20.725961
1778.520969	-2.998300	3.315800	-9.940200	26.578762	0.000514	20.723629
1779.521033	-3.025500	3.314600	-10.027000	26.550737	0.000514	20.729598
1780.523139	-2.998100	3.315300	-9.937400	26.574516	0.000515	20.720309
1781.521445	-3.013600	3.315000	-9.988500	26.571988	0.000513	20.744322
1782.533322	-2.979800	3.314900	-9.877300	26.557122	0.000509	20.711833
1783.526113	-3.000600	3.315100	-9.946300	26.530551	0.000511	20.744395
1784.523081	-3.011800	3.313000	-9.977400	26.566313	0.000511	20.736246
1785.523374	-3.005400	3.313500	-9.957400	26.583926	0.000513	20.720759
1786.523853	-2.978200	3.312800	-9.865400	26.589839	0.000508	20.721962
1787.527018	-3.012200	3.311600	-9.974500	26.647830	0.000509	20.727628
1788.527562	-3.013100	3.311600	-9.977100	26.606503	0.000506	20.713583
1789.526335	-2.993800	3.312700	-9.916600	26.619263	0.000506	20.721195
1790.528616	-3.016200	3.311000	-9.985400	26.674305	0.000509	20.697343
1791.526091	-2.999700	3.310200	-9.927800	26.714803	0.000507	20.743750
1792.523440	-2.985900	3.312800	-9.890100	26.745011	0.000506	20.724807
1793.524222	-2.996300	3.310000	-9.916700	26.762475	0.000504	20.727667
1794.531896	-2.990400	3.310100	-9.897000	26.758508	0.000504	20.726049
1795.524346	-3.009900	3.309500	-9.960100	26.755474	0.000503	20.724421
1796.523487	-2.969700	3.310100	-9.829400	26.752800	0.000502	20.734061
1797.526555	-2.986900	3.309200	-9.882800	26.745993	0.000503	20.738123
1798.526188	-2.996400	3.308000	-9.910800	26.697260	0.000502	20.723741
1799.538009	-2.995100	3.308500	-9.908300	26.658814	0.000500	20.705003
1800.530889	-2.997500	3.307700	-9.913400	26.593773	0.000501	20.719752
1801.525880	-2.987000	3.306500	-9.875600	26.553679	0.000499	20.729236
1802.525898	-3.007600	3.305700	-9.941500	26.569658	0.000501	20.716848
1803.525872	-2.997000	3.306600	-9.909100	26.596325	0.000498	20.711886
1804.529118	-3.018000	3.304700	-9.973000	26.566706	0.000498	20.709613
1805.533692	-2.983800	3.306500	-9.865500	26.574774	0.000499	20.711559
1806.526748	-3.008300	3.306400	-9.945000	26.587558	0.000497	20.728678
1807.529944	-3.021900	3.303200	-9.980600	26.633164	0.000498	20.701503
1808.542688	-3.015300	3.304200	-9.962600	26.653942	0.000495	20.679240
1809.530404	-3.033300	3.302400	-10.015000	26.691795	0.000495	20.700701
1810.530191	-2.978800	3.303800	-9.840500	26.728314	0.000496	20.704700
1811.527988	-3.002600	3.303900	-9.919200	26.733891	0.000495	20.715997
1812.534108	-2.981800	3.303300	-9.847700	26.732403	0.000494	20.704069
1813.532620	-2.987200	3.301700	-9.862300	26.749153	0.000494	20.724704
1814.538542	-3.016100	3.302100	-9.958500	26.762951	0.000494	20.705858
1815.530548	-2.999500	3.302800	-9.905800	26.795418	0.000493	20.708630
1816.534562	-3.023400	3.301800	-9.981600	26.772334	0.000492	20.710077
1817.535343	-2.997100	3.302500	-9.896100	26.735778	0.000493	20.699875
1818.535280	-3.013100	3.301500	-9.945600	26.691094	0.000492	20.703791
1819.534634	-2.992000	3.301400	-9.877200	26.692655	0.000489	20.706782
1820.531046	-3.016600	3.299800	-9.953500	26.657486	0.000491	20.701772
1821.531345	-2.993800	3.300900	-9.881400	26.668854	0.000488	20.689492
1822.534869	-3.000900	3.299200	-9.899100	26.700080	0.000491	20.709505
1823.532369	-2.967100	3.300300	-9.791200	26.710553	0.000490	20.698697
1824.531494	-3.019700	3.298200	-9.957600	26.714374	0.000489	20.703488
1825.533298	-2.977900	3.300500	-9.826900	26.753120	0.000488	20.723003
1826.534887	-3.007300	3.297800	-9.916300	26.766821	0.000485	20.689834
1827.533446	-2.997900	3.297600	-9.885100	26.750981	0.000488	20.700936
1828.540881	-2.987000	3.299000	-9.853500	26.742069	0.000485	20.708571
1829.535338	-2.991100	3.297200	-9.861000	26.776194	0.000485	20.704949
1830.533524	-3.008600	3.297600	-9.920300	26.819727	0.000487	20.707467
1831.534724	-2.982800	3.297500	-9.835000	26.849338	0.000483	20.698833
1832.532986	-2.987000	3.296900	-9.845700	26.840597	0.000485	20.680085
1833.537704	-3.028200	3.295100	-9.977000	26.825084	0.000485	20.693886
1834.535100	-3.020100	3.294100	-9.947100	26.773851	0.000484	20.688367
1835.534682	-3.015100	3.293500	-9.929100	26.796040	0.000483	20.702143
1836.536682	-3.005300	3.294900	-9.901100	26.781168	0.000480	20.687663
1837.537519	-3.010700	3.293700	-9.915400	26.740124	0.000481	20.687648
1838.535974	-2.978900	3.293500	-9.809900	26.715950	0.000480	20.705545
1839.541942	-3.013600	3.293100	-9.922600	26.641600	0.000481	20.682481
1840.536890	-2.995900	3.294400	-9.868000	26.656090	0.000479	20.670968
1841.538279	-3.004000	3.293900	-9.893400	26.631311	0.000480	20.674981
1842.542080	-2.999300	3.292000	-9.872700	26.656479	0.000478	20.706924
1843.538277	-2.989000	3.292300	-9.839800	26.664351	0.000478	20.693500
1844.538929	-3.005600	3.292200	-9.893400	26.685998	0.000476	20.687286
1845.539608	-3.021800	3.290400	-9.941900	26.682565	0.000476	20.697586
1846.540082	-3.010100	3.290700	-9.904300	26.702568	0.000475	20.688298
1847.544121	-3.021000	3.289500	-9.936500	26.675573	0.000476	20.686763
1848.540550	-3.021000	3.289700	-9.936800	26.683679	0.000474	20.687325
1849.539490	-3.010400	3.289100	-9.900100	26.648592	0.000475	20.701365
1850.540486	-2.995100	3.289800	-9.853000	26.627285	0.000474	20.708395
1851.543067	-3.005900	3.289400	-9.885200	26.623137	0.000474	20.693319
1852.539570	-2.972800	3.290400	-9.778700	26.596460	0.000471	20.687838
1853.540836	-3.015600	3.287900	-9.914500	26.610441	0.000471	20.680554
1854.542116	-3.008500	3.287000	-9.887800	26.645028	0.000473	20.686401
1855.543890	-3.007800	3.286700	-9.884900	26.659119	0.000468	20.706258
1856.541254	-3.012100	3.287900	-9.902900	26.646190	0.000469	20.679034
1857.547278	-3.024600	3.286600	-9.939300	26.688808	0.000470	20.691060
1858.544588	-2.982200	3.288000	-9.804700	26.753844	0.000467	20.699546
1859.543831	-2.987900	3.285000	-9.813600	26.783302	0.000468	20.694076
1860.543895	-2.990900	3.285500	-9.825300	26.792213	0.000466	20.699717
1861.551651	-3.019600	3.285100	-9.918300	26.833761	0.000467	20.696447
1862.546280	-3.010400	3.284200	-9.885600	26.865429	0.000465	20.688933
1863.546568	-3.005500	3.284500	-9.870600	26.873786	0.000465	20.709666
1864.548945	-3.011200	3.284700	-9.890300	26.914397	0.000464	20.701663
1865.546185	-3.010300	3.283200	-9.882600	26.941566	0.000466	20.708595
1866.550212	-3.016900	3.281700	-9.898900	26.951988	0.000466	20.705799
1867.552145	-3.032100	3.282800	-9.951500	26.930673	0.000463	20.691475
1868.545868	-3.006900	3.283300	-9.871700	26.916974	0.000462	20.710893
1869.547403	-3.041000	3.281800	-9.978600	26.919283	0.000463	20.686186
1870.545908	-2.988600	3.283100	-9.809500	26.862639	0.000461	20.691343
1871.545447	-2.983100	3.283400	-9.793500	26.848380	0.000461	20.689808
1872.556016	-2.992800	3.281600	-9.820400	26.854476	0.000461	20.686455
1873.545166	-2.983800	3.282000	-9.792000	26.892745	0.000461	20.670405
1874.556410	-2.952200	3.282000	-9.687000	26.846411	0.000460	20.690673
1875.549260	-2.995500	3.281800	-9.829300	26.811417	0.000458	20.680618
1876.546052	-2.982700	3.280700	-9.784500	26.789447	0.000459	20.688400
1877.546590	-2.997300	3.279500	-9.828700	26.783112	0.000457	20.698153
1878.552140	-3.010500	3.279300	-9.871600	26.826775	0.000458	20.689896
1879.545114	-3.001200	3.278500	-9.838200	26.837490	0.000456	20.697825
1880.545945	-2.996000	3.278400	-9.821200	26.876834	0.000455	20.692815
1881.544781	-3.005400	3.278600	-9.852000	26.886109	0.000456	20.705935
1882.545776	-2.999300	3.277200	-9.828000	26.913848	0.000453	20.683565
1883.551372	-3.008100	3.278900	-9.862200	26.916808	0.000456	20.715468
1884.550575	-2.998200	3.277100	-9.825000	26.932889	0.000453	20.669046
1885.550377	-3.020600	3.275600	-9.892800	26.960179	0.000452	20.671358
1886.551748	-2.959400	3.277900	-9.699200	26.968749	0.000452	20.680925
1887.560340	-3.017600	3.274700	-9.880400	26.953879	0.000451	20.679723
1888.551165	-2.957300	3.277200	-9.690500	26.984056	0.000450	20.697742
1889.553730	-2.981800	3.274900	-9.762900	27.010304	0.000449	20.679566
1890.549717	-2.994900	3.275600	-9.808900	27.036139	0.000449	20.684684
1891.546566	-2.987000	3.275100	-9.781700	27.033685	0.000450	20.681267
1892.557705	-2.998100	3.275200	-9.818600	27.025791	0.000448	20.687080
1893.547515	-2.973800	3.274100	-9.733700	27.015394	0.000448	20.670933
1894.549412	-3.011000	3.272500	-9.852200	27.033408	0.000448	20.687627
1895.549942	-2.992500	3.272800	-9.793000	27.008939	0.000448	20.674399
1896.554871	-2.976900	3.274300	-9.745600	26.979161	0.000446	20.701355
1897.548505	-2.998100	3.273000	-9.811300	26.984722	0.000444	20.683712
1898.551152	-2.985200	3.273200	-9.770200	26.999411	0.000444	20.674775
1899.548950	-2.995100	3.271900	-9.798900	27.034098	0.000443	20.707763
1900.550797	-3.006200	3.271400	-9.833200	27.039755	0.000443	20.695909
1901.550161	-3.011100	3.271200	-9.848900	27.061915	0.000442	20.696857
1902.551270	-3.004900	3.269500	-9.823900	27.036285	0.000440	20.718499
1903.559168	-3.013700	3.268000	-9.847500	27.033723	0.000441	20.706913
1904.553618	-2.996200	3.269300	-9.793600	27.044495	0.000439	20.716323
1905.556073	-3.015600	3.268100	-9.853500	27.042113	0.000438	20.688796
1906.551552	-2.987300	3.270400	-9.767900	27.057477	0.000440	20.707568
1907.552181	-3.004200	3.267800	-9.816100	27.036659	0.000440	20.702753
1908.550826	-3.002200	3.268300	-9.810800	27.073469	0.000437	20.709900
1909.557116	-3.018400	3.267100	-9.860700	27.070436	0.000436	20.704004
1910.561132	-2.982900	3.268200	-9.748300	27.061876	0.000437	20.700137
1911.555400	-3.008300	3.267700	-9.829000	27.080793	0.000436	20.714896
1912.557356	-3.007600	3.265400	-9.820000	27.093912	0.000434	20.709123
1913.551925	-3.005400	3.266700	-9.816300	27.084759	0.000435	20.688063
1914.559142	-2.996800	3.267300	-9.790200	27.081931	0.000433	20.699443
1915.554123	-3.004600	3.265200	-9.809500	27.068764	0.000433	20.720342
1916.555407	-3.003400	3.264900	-9.803300	27.043353	0.000434	20.718968
1917.558486	-3.001200	3.264200	-9.795500	27.045599	0.000431	20.703682
1918.569612	-3.009700	3.264100	-9.823500	27.035046	0.000433	20.709666
1919.556591	-3.005800	3.264500	-9.811600	27.034672	0.000431	20.690796
1920.557736	-3.000300	3.263600	-9.790800	27.048549	0.000430	20.692424
1921.553534	-2.998500	3.264800	-9.788600	27.040859	0.000431	20.709822
1922.554353	-3.012800	3.262300	-9.826700	27.007058	0.000430	20.722772
1923.562277	-2.980100	3.262200	-9.720300	26.983191	0.000429	20.713469
1924.556385	-3.000500	3.260700	-9.782100	26.976517	0.000426	20.707705
1925.555955	-2.988600	3.262500	-9.748400	26.979468	0.000428	20.698818
1926.557549	-3.003700	3.261000	-9.793400	26.978671	0.000424	20.702284
1927.562924	-3.008700	3.260100	-9.806600	26.995207	0.000427	20.711802
1928.569154	-2.995800	3.259700	-9.765100	26.959363	0.000426	20.704679
1929.556680	-3.002000	3.260300	-9.786100	26.945023	0.000424	20.708752
1930.556413	-2.990100	3.261200	-9.750400	26.960330	0.000425	20.715610
1931.561576	-3.010700	3.257700	-9.806400	26.990687	0.000423	20.707256
1932.557909	-2.993300	3.259800	-9.756100	27.013222	0.000422	20.703839
1933.556960	-2.985900	3.259900	-9.730800	26.997215	0.000422	20.718563
1934.566513	-3.004300	3.257100	-9.784000	26.977835	0.000421	20.719462
1935.562981	-3.000700	3.257100	-9.772900	27.008628	0.000422	20.705383
1936.567103	-2.955500	3.258900	-9.630100	27.017261	0.000419	20.734455
1937.567988	-2.988100	3.256300	-9.729100	27.031381	0.000417	20.715938
1938.561184	-2.979600	3.258100	-9.707400	27.012254	0.000418	20.703814
1939.561434	-2.997900	3.256100	-9.760000	26.977727	0.000419	20.717458
1940.563746	-2.993600	3.258100	-9.751400	27.036446	0.000419	20.698270
1941.557483	-2.988600	3.256700	-9.732000	27.038259	0.000416	20.718113
1942.561765	-2.973400	3.255000	-9.676900	27.070334	0.000416	20.700583
1943.564828	-3.006300	3.254000	-9.781300	27.033593	0.000417	20.712946
1944.563162	-2.985400	3.254600	-9.715300	27.034244	0.000416	20.733043
1945.565724	-3.003100	3.252700	-9.767400	27.027959	0.000416	20.727670
1946.560214	-2.987600	3.254200	-9.720500	27.007116	0.000414	20.724253
1947.562641	-2.982900	3.253800	-9.704200	27.037846	0.000414	20.709162
1948.560999	-3.000700	3.253800	-9.763200	27.062169	0.000413	20.722718
1949.564873	-3.003100	3.253600	-9.770200	27.090432	0.000413	20.712736
1950.576012	-3.008400	3.251500	-9.780800	27.136814	0.000411	20.709598
1951.569005	-3.011500	3.252000	-9.792000	27.184380	0.000408	20.718084
1952.568608	-3.000500	3.251400	-9.755100	27.228318	0.000409	20.734778
1953.564203	-2.996600	3.250900	-9.740400	27.262380	0.000411	20.719727
1954.568785	-3.002700	3.250600	-9.759400	27.230651	0.000408	20.755143
1955.571120	-3.009500	3.251200	-9.783800	27.166005	0.000409	20.713352
1956.569925	-3.010200	3.249300	-9.779200	27.126307	0.000406	20.716574
1957.566221	-2.999200	3.248700	-9.742200	27.110205	0.000407	20.728355
1958.566147	-3.007300	3.248200	-9.767200	27.039810	0.000403	20.714931
1959.570798	-3.015800	3.247500	-9.792400	27.077431	0.000404	20.736172
1960.565736	-3.001100	3.248900	-9.749800	27.074699	0.000406	20.713509
1961.575353	-3.011600	3.246400	-9.774600	27.122205	0.000403	20.718613
1962.572172	-3.013700	3.245900	-9.780900	27.132397	0.000403	20.712267
1963.565660	-2.969600	3.248100	-9.645100	27.123862	0.000401	20.742092
1964.568412	-2.991800	3.247600	-9.715600	27.143444	0.000402	20.720060
1965.578928	-2.977500	3.246300	-9.664300	27.178281	0.000399	20.730443
1966.566541	-3.000500	3.245000	-9.735800	27.241557	0.000399	20.727705
1967.565849	-2.980500	3.247500	-9.677900	27.234209	0.000398	20.709882
1968.569995	-3.019300	3.245000	-9.796100	27.257779	0.000400	20.717469
1969.567266	-3.004900	3.245900	-9.752000	27.255519	0.000398	20.716618
1970.565755	-3.022600	3.243500	-9.801900	27.235599	0.000397	20.719341
1971.569098	-3.017900	3.241800	-9.781200	27.264898	0.000395	20.715621
1972.575557	-3.012600	3.244300	-9.772900	27.306535	0.000394	20.719097
1973.567632	-2.982800	3.244200	-9.675300	27.276984	0.000395	20.715924
1974.579332	-2.986500	3.242300	-9.682100	27.237966	0.000394	20.733577
1975.567721	-2.986400	3.240800	-9.677700	27.194105	0.000394	20.741618
1976.569197	-2.987600	3.242200	-9.685200	27.207592	0.000392	20.724836
1977.579151	-2.997000	3.240200	-9.709700	27.204088	0.000391	20.715147
1978.578126	-2.996100	3.240700	-9.708400	27.205575	0.000390	20.735610
1979.569018	-2.996500	3.240700	-9.709700	27.200919	0.000390	20.738988
1980.577961	-3.019100	3.239400	-9.779000	27.195734	0.000390	20.735669
1981.572393	-2.987600	3.240800	-9.681300	27.202601	0.000389	20.725031
1982.571667	-2.988900	3.239400	-9.681300	27.193960	0.000389	20.724401
1983.582163	-3.004800	3.239400	-9.732700	27.203616	0.000387	20.743598
1984.569776	-2.996700	3.238700	-9.704600	27.188604	0.000387	20.728971
1985.571701	-2.998400	3.239700	-9.711900	27.175186	0.000387	20.733493
1986.583047	-3.005200	3.237000	-9.726200	27.197717	0.000387	20.729602
1987.573625	-3.000300	3.236400	-9.708700	27.221370	0.000385	20.745807
1988.572179	-3.002700	3.237000	-9.718200	27.231512	0.000383	20.742258
1989.576335	-2.980700	3.236800	-9.646600	27.228912	0.000384	20.746282
1990.574241	-3.004500	3.236000	-9.722000	27.242291	0.000382	20.756894
1991.572124	-2.993300	3.234800	-9.681700	27.285571	0.000383	20.725037
1992.573153	-2.989100	3.235200	-9.668000	27.353884	0.000381	20.752505
1993.579579	-2.993300	3.235300	-9.683200	27.373632	0.000381	20.751982
1994.581246	-3.016300	3.233600	-9.751900	27.418213	0.000379	20.738035
1995.574050	-3.001100	3.234100	-9.704100	27.439520	0.000378	20.747142
1996.581569	-2.978300	3.234800	-9.633300	27.462069	0.000378	20.742801
1997.584808	-3.005700	3.233100	-9.717600	27.451856	0.000378	20.751019
1998.581184	-2.988100	3.233700	-9.661500	27.434272	0.000375	20.738544
1999.573646	-2.986600	3.232600	-9.652700	27.459975	0.000376	20.757291
2000.574884	-2.997300	3.231300	-9.684700	27.455408	0.000377	20.783991
2001.577188	-3.009900	3.231100	-9.724000	27.379405	0.000376	20.765850
2002.574452	-2.986200	3.231600	-9.649200	27.390134	0.000373	20.752461
2003.573630	-3.002100	3.230200	-9.696800	27.337635	0.000372	20.762712
2004.573607	-2.991300	3.229900	-9.661100	27.321716	0.000374	20.735318
2005.577347	-2.993500	3.230100	-9.667000	27.294751	0.000372	20.745178
2006.580182	-2.985600	3.230600	-9.643300	27.251506	0.000372	20.741032
2007.577954	-3.004700	3.228700	-9.700000	27.258771	0.000370	20.755927
2008.581616	-2.980300	3.229600	-9.624600	27.280406	0.000371	20.761568
2009.581191	-2.979000	3.228400	-9.616300	27.323529	0.000368	20.748047
2010.585670	-2.971000	3.228900	-9.591500	27.337728	0.000368	20.757115
2011.583620	-3.007100	3.228500	-9.706700	27.371713	0.000368	20.767122
2012.582201	-3.005700	3.226500	-9.696700	27.379930	0.000368	20.748835
2013.589265	-2.985900	3.226700	-9.633900	27.408030	0.000366	20.759560
2014.583666	-2.999100	3.226100	-9.674700	27.436984	0.000364	20.752178
2015.588490	-2.997800	3.225000	-9.666900	27.436814	0.000365	20.765758
2016.584883	-2.973400	3.226700	-9.593700	27.408934	0.000363	20.745770
2017.581878	-3.023400	3.225400	-9.750100	27.380072	0.000362	20.760831
2018.584618	-2.998200	3.224800	-9.667200	27.389090	0.000362	20.758998
2019.579690	-2.992800	3.224600	-9.648500	27.404026	0.000361	20.755532
2020.579845	-3.002500	3.223800	-9.679200	27.417729	0.000358	20.740393
2021.580785	-2.988700	3.223800	-9.634000	27.472133	0.000360	20.752453
2022.580129	-3.033300	3.223300	-9.776200	27.498092	0.000360	20.744905
2023.586078	-3.005100	3.222200	-9.682100	27.537145	0.000356	20.752902
2024.589516	-2.980200	3.221200	-9.598000	27.545195	0.000357	20.783762
2025.584746	-3.004900	3.220900	-9.677500	27.578775	0.000357	20.768237
2026.590729	-3.005700	3.220700	-9.677900	27.560951	0.000357	20.771165
2027.581586	-3.000200	3.222100	-9.665500	27.538403	0.000355	20.771238
2028.585851	-2.980100	3.222400	-9.602000	27.545375	0.000354	20.758338
2029.581798	-3.039100	3.218600	-9.780200	27.569564	0.000353	20.761814
2030.580040	-2.987400	3.222200	-9.624800	27.575064	0.000354	20.746484
2031.585092	-3.000100	3.221200	-9.662800	27.590712	0.000354	20.759858
2032.585220	-2.988100	3.219600	-9.619600	27.602177	0.000351	20.768076
2033.580559	-3.019400	3.218800	-9.718300	27.652200	0.000350	20.770520
2034.581386	-3.015400	3.218400	-9.703400	27.648600	0.000351	20.778752
2035.581398	-3.022100	3.216300	-9.718700	27.684931	0.000349	20.775007
2036.581650	-3.002300	3.217500	-9.658800	27.667555	0.000349	20.767005
2037.597263	-3.003800	3.216100	-9.659600	27.699451	0.000348	20.769704
2038.584545	-3.004400	3.216100	-9.660900	27.677970	0.000347	20.761838
2039.590682	-2.994600	3.214800	-9.625400	27.669464	0.000345	20.767504
2040.581818	-3.007300	3.216000	-9.670200	27.700806	0.000348	20.760161
2041.589594	-3.009200	3.215100	-9.674200	27.703862	0.000345	20.752805
2042.584241	-3.021900	3.213200	-9.708600	27.741857	0.000344	20.758324
2043.589604	-2.982000	3.213000	-9.579600	27.754555	0.000345	20.782007
2044.582790	-3.008300	3.211500	-9.659100	27.754603	0.000344	20.766883
2045.599577	-2.982700	3.213600	-9.582800	27.718129	0.000343	20.780438
2046.602696	-2.990400	3.211900	-9.603600	27.644452	0.000341	20.794018
2047.591837	-2.998900	3.211700	-9.630800	27.627138	0.000343	20.775648
2048.587562	-3.007700	3.213100	-9.662700	27.624384	0.000340	20.779514
2049.594363	-3.012400	3.210600	-9.670100	27.651399	0.000340	20.782042
2050.584343	-2.990300	3.210000	-9.598000	27.674342	0.000340	20.783792
2051.598409	-2.998100	3.209200	-9.620900	27.680011	0.000340	20.794712
2052.586196	-3.010500	3.209700	-9.661200	27.693578	0.000337	20.796511
2053.588999	-2.989700	3.209300	-9.593800	27.709079	0.000337	20.769909
2054.587615	-3.006700	3.209500	-9.649000	27.746992	0.000337	20.783405
2055.592233	-2.972700	3.210100	-9.540600	27.784345	0.000336	20.779270
2056.586428	-2.978100	3.208800	-9.555100	27.778608	0.000334	20.763539
2057.586910	-3.017900	3.207300	-9.677200	27.729087	0.000332	20.770129
2058.587054	-3.003600	3.207400	-9.633200	27.703726	0.000333	20.787282
2059.588512	-3.001200	3.208500	-9.627700	27.705043	0.000332	20.821323
2060.592764	-3.024400	3.205600	-9.694200	27.690761	0.000332	20.780400
2061.590137	-2.985900	3.206200	-9.571900	27.699354	0.000329	20.789521
2062.588756	-3.018200	3.203500	-9.667800	27.686423	0.000331	20.809225
2063.597355	-2.975100	3.205500	-9.536500	27.671456	0.000330	20.789897
2064.593481	-2.993200	3.204900	-9.591800	27.679598	0.000329	20.792874
2065.593726	-2.992400	3.205700	-9.590700	27.727829	0.000327	20.796838
2066.599359	-2.987500	3.205400	-9.576100	27.715481	0.000328	20.781568
2067.595273	-2.992400	3.204200	-9.587400	27.678534	0.000328	20.791804
2068.593769	-2.986700	3.203200	-9.566000	27.619608	0.000326	20.791305
2069.602100	-3.016700	3.203300	-9.661800	27.551026	0.000325	20.801482
2070.592717	-3.003900	3.201800	-9.616700	27.501892	0.000324	20.793774
2071.596628	-2.999100	3.201100	-9.598400	27.496091	0.000325	20.788411
2072.603943	-3.008800	3.201000	-9.629300	27.491150	0.000323	20.796716
2073.600903	-2.985900	3.201600	-9.558400	27.517202	0.000323	20.804909
2074.604540	-3.007400	3.201400	-9.626300	27.576580	0.000322	20.802064
2075.609208	-2.993300	3.199500	-9.576100	27.632210	0.000321	20.795925
2076.596961	-2.994900	3.200500	-9.584100	27.691184	0.000321	20.794101
2077.597479	-3.017300	3.197500	-9.647700	27.721194	0.000320	20.792532
2078.597646	-3.017100	3.196700	-9.643200	27.731487	0.000319	20.811899
2079.608708	-2.972800	3.197900	-9.505100	27.771017	0.000318	20.806160
2080.606513	-2.982800	3.195500	-9.530400	27.737685	0.000317	20.816714
2081.599266	-2.991600	3.197700	-9.564600	27.698442	0.000317	20.823215
2082.598809	-2.970000	3.197700	-9.495700	27.648169	0.000314	20.808663
2083.602603	-2.986500	3.197500	-9.547800	27.636364	0.000315	20.804846
2084.606030	-3.015200	3.194500	-9.631100	27.619269	0.000316	20.799024
2085.599184	-3.007800	3.194100	-9.605400	27.641557	0.000312	20.803433
2086.605919	-3.012900	3.193900	-9.620500	27.652686	0.000314	20.791873
2087.598933	-3.007100	3.193300	-9.601200	27.638380	0.000310	20.841487
2088.603807	-3.017200	3.192800	-9.632300	27.637778	0.000312	20.802949
2089.601414	-2.989800	3.193000	-9.545600	27.654197	0.000312	20.819471
2090.606720	-3.006300	3.191500	-9.591900	27.608066	0.000311	20.824735
2091.609743	-3.004800	3.192900	-9.593300	27.577917	0.000311	20.801512
2092.605984	-2.985900	3.194200	-9.535700	27.523902	0.000310	20.811176
2093.603792	-3.003700	3.191200	-9.584800	27.534610	0.000308	20.825743
2094.604128	-2.988500	3.190700	-9.534800	27.530150	0.000309	20.796600
2095.604986	-3.001300	3.189200	-9.569300	27.515215	0.000307	20.825669
2096.602739	-3.009600	3.190700	-9.602100	27.522838	0.000308	20.828598
2097.603735	-3.000000	3.190400	-9.570100	27.593055	0.000305	20.816744
2098.603088	-2.995000	3.189800	-9.552700	27.598866	0.000304	20.837289
2099.611024	-3.005300	3.189200	-9.583800	27.611939	0.000305	20.806347
2100.603593	-3.000400	3.187700	-9.562200	27.611142	0.000302	20.824511
2101.601915	-3.007500	3.186700	-9.582700	27.620542	0.000302	20.835392
2102.617764	-3.009600	3.187300	-9.590900	27.650457	0.000302	20.830406
2103.602359	-2.996500	3.186600	-9.547200	27.684190	0.000302	20.821676
2104.603079	-2.989100	3.188000	-9.528400	27.685399	0.000301	20.838066
2105.610639	-3.002400	3.185200	-9.562300	27.742904	0.000299	20.822439
2106.604377	-2.989900	3.184800	-9.521500	27.737021	0.000300	20.837856
2107.611392	-2.984700	3.184300	-9.501900	27.756810	0.000298	20.827899
2108.605522	-3.002900	3.184500	-9.561600	27.759191	0.000298	20.826027
2109.603200	-2.995600	3.184200	-9.537700	27.713220	0.000299	20.815801
2110.614671	-3.016000	3.182300	-9.596300	27.671249	0.000296	20.812448
2111.603185	-3.003800	3.182500	-9.558200	27.654670	0.000298	20.810464
2112.603721	-3.029500	3.181300	-9.636400	27.690326	0.000295	20.812204
2113.608527	-3.013900	3.179300	-9.581700	27.736512	0.000294	20.820274
2114.603821	-3.021600	3.180100	-9.607900	27.763912	0.000294	20.812287
2115.607262	-2.985200	3.181000	-9.495000	27.799526	0.000294	20.831531
2116.609179	-2.998100	3.179500	-9.530900	27.835983	0.000292	20.814643
2117.612449	-3.001400	3.178700	-9.539300	27.853925	0.000292	20.802354
2118.611134	-2.992100	3.178600	-9.510500	27.857776	0.000292	20.811921
2119.616018	-2.985000	3.178100	-9.485400	27.907617	0.000292	20.803762
2120.611849	-2.977900	3.178700	-9.465000	27.905864	0.000290	20.811481
2121.607145	-2.992800	3.178600	-9.511800	27.868972	0.000291	20.785730
2122.607332	-3.001800	3.177000	-9.535300	27.861905	0.000287	20.794265
2123.607863	-2.996400	3.176800	-9.516600	27.854270	0.000289	20.794641
2124.614676	-3.014300	3.174900	-9.568900	27.841054	0.000288	20.787979
2125.612417	-2.991700	3.175600	-9.499500	27.879482	0.000287	20.794411
2126.610134	-2.989500	3.174400	-9.488900	27.865130	0.000286	20.799881
2127.612533	-2.991200	3.175200	-9.496900	27.856033	0.000285	20.784562
2128.608479	-3.007500	3.173100	-9.541500	27.850088	0.000287	20.797071
2129.612613	-2.996400	3.176000	-9.515600	27.882401	0.000284	20.791660
2130.614368	-3.019100	3.172500	-9.576500	27.879633	0.000283	20.786977
2131.608616	-2.992900	3.173000	-9.495200	27.890746	0.000283	20.783463
2132.617032	-3.002900	3.171000	-9.520600	27.881615	0.000281	20.792765
2133.610929	-2.985100	3.172000	-9.467300	27.875889	0.000281	20.796485
2134.608674	-3.006000	3.170800	-9.529600	27.841954	0.000280	20.802634
2135.611956	-3.020200	3.169800	-9.572700	27.832580	0.000280	20.793674
2136.611780	-2.990000	3.169200	-9.474900	27.851775	0.000280	20.789285
2137.619345	-2.980700	3.168800	-9.443500	27.880367	0.000278	20.789613
2138.612262	-2.973700	3.168200	-9.420400	27.896083	0.000276	20.797844
2139.618051	-2.996700	3.169900	-9.497000	27.934952	0.000277	20.802351
2140.615996	-2.997100	3.167500	-9.491900	27.923898	0.000278	20.781269
2141.618233	-2.993000	3.166000	-9.474400	27.945136	0.000276	20.805964
2142.620002	-3.013700	3.165500	-9.539300	27.944699	0.000275	20.774704
2143.616447	-3.022800	3.165500	-9.566900	27.946535	0.000275	20.784138
2144.613110	-2.988500	3.164800	-9.456500	28.001660	0.000276	20.776088
2145.617027	-3.011300	3.164800	-9.529000	28.005248	0.000274	20.780648
2146.614640	-3.009900	3.163300	-9.520200	28.020079	0.000274	20.789887
2147.612678	-3.019400	3.164200	-9.551400	28.031384	0.000273	20.781352
2148.615276	-2.975500	3.164700	-9.415700	28.057350	0.000271	20.788049
2149.613945	-3.001300	3.163500	-9.493400	28.059705	0.000271	20.769083
2150.613928	-2.999800	3.161300	-9.481900	28.082509	0.000271	20.789193
2151.616220	-2.991100	3.163200	-9.461000	28.047774	0.000269	20.792634
2152.615230	-2.998400	3.162000	-9.479100	27.996527	0.000270	20.782301
2153.621009	-3.023700	3.161100	-9.557000	27.990486	0.000267	20.789496
2154.614576	-2.992600	3.160800	-9.458000	27.969769	0.000269	20.755841
2155.616935	-3.018100	3.159200	-9.533900	27.915234	0.000267	20.778713
2156.621854	-3.019300	3.158400	-9.534200	27.940406	0.000266	20.768012
2157.623015	-2.986700	3.158200	-9.431300	27.962076	0.000263	20.779867
2158.612540	-2.995600	3.158500	-9.459000	27.958900	0.000263	20.794688
2159.617054	-3.023400	3.156000	-9.540500	27.984712	0.000265	20.769934
2160.620681	-2.996100	3.158900	-9.463700	27.925089	0.000263	20.762078
2161.623247	-3.002900	3.156500	-9.478100	27.908591	0.000262	20.787673
2162.632464	-3.012300	3.155400	-9.503900	27.918688	0.000262	20.771283
2163.617761	-3.009900	3.156000	-9.498400	27.917964	0.000261	20.755381
2164.617305	-2.986000	3.154700	-9.418900	27.981244	0.000261	20.788255
2165.614600	-2.989800	3.154700	-9.430500	28.002262	0.000260	20.773849
2166.622329	-3.011800	3.153700	-9.496500	28.024980	0.000260	20.793397
2167.615349	-3.011700	3.154200	-9.498800	27.982536	0.000259	20.763950
2168.623990	-3.012800	3.152100	-9.495600	27.982235	0.000258	20.780717
2169.623497	-3.003200	3.152000	-9.465000	27.984255	0.000256	20.768525
2170.616806	-3.035400	3.150000	-9.560500	27.982055	0.000257	20.765363
2171.618894	-2.979600	3.151100	-9.387700	27.974843	0.000254	20.769958
2172.625716	-3.013400	3.148800	-9.487000	28.024100	0.000255	20.776865
2173.624377	-2.985600	3.150000	-9.403200	28.008857	0.000253	20.773375
2174.617991	-2.990100	3.149100	-9.415200	27.931130	0.000256	20.761521
2175.618692	-3.017500	3.146900	-9.495300	27.895181	0.000254	20.759477
2176.624780	-2.991400	3.148000	-9.416200	27.888911	0.000253	20.774504
2177.618864	-3.024600	3.145500	-9.511800	27.937677	0.000253	20.770481
2178.625757	-2.994100	3.146600	-9.420700	27.948065	0.000252	20.758177
2179.619737	-3.018700	3.145000	-9.491900	27.978612	0.000252	20.755259
2180.621492	-2.996100	3.145000	-9.420200	28.022299	0.000252	20.753714
2181.620982	-2.992200	3.144000	-9.406000	28.052339	0.000249	20.765461
2182.619487	-3.004200	3.145500	-9.449000	28.073982	0.000249	20.762591
2183.622078	-2.994400	3.142800	-9.410500	28.080950	0.000250	20.766761
2184.623297	-3.003000	3.141200	-9.431100	28.122263	0.000251	20.766150
2185.618400	-2.999400	3.141500	-9.422200	28.141346	0.000245	20.756437
2186.629988	-3.007000	3.140700	-9.443200	28.163953	0.000248	20.768765
2187.623632	-2.988800	3.139800	-9.382200	28.200908	0.000247	20.741958
2188.627372	-3.007900	3.139600	-9.442200	28.198674	0.000247	20.760572
2189.620238	-2.999300	3.139000	-9.413200	28.194907	0.000247	20.763892
2190.634968	-3.023500	3.136700	-9.482200	28.201573	0.000246	20.760171
2191.626810	-2.975900	3.138600	-9.339400	28.155718	0.000245	20.760000
2192.621699	-2.973800	3.138800	-9.333100	28.152999	0.000245	20.747306
2193.635437	-2.982100	3.136900	-9.353600	28.186682	0.000244	20.742808
2194.625645	-3.007300	3.136000	-9.429800	28.171732	0.000243	20.750991
2195.624330	-2.966800	3.137400	-9.307400	28.155029	0.000244	20.755513
2196.630136	-2.989200	3.135900	-9.372700	28.142880	0.000240	20.760827
2197.623333	-2.992800	3.134800	-9.379700	28.153412	0.000243	20.749143
2198.625968	-3.007800	3.132500	-9.420200	28.160923	0.000242	20.756706
2199.630695	-3.020600	3.132100	-9.459600	28.203311	0.000240	20.741058
2200.639796	-3.018200	3.131100	-9.449400	28.209531	0.000239	20.753958
2201.627652	-2.984400	3.132200	-9.347400	28.174014	0.000239	20.745702
2202.625361	-2.990900	3.130700	-9.362500	28.103933	0.000239	20.748645
2203.626277	-2.988200	3.130200	-9.352500	28.011489	0.000237	20.763696
2204.624940	-2.979600	3.130100	-9.325900	27.979603	0.000237	20.733496
2205.630474	-2.999000	3.129500	-9.384600	27.996998	0.000237	20.769498
2206.632351	-2.996600	3.127800	-9.371500	28.018098	0.000236	20.763710
2207.631968	-3.023500	3.127900	-9.456600	28.061434	0.000234	20.745692
2208.636060	-2.997500	3.127000	-9.372000	28.101218	0.000234	20.751602
2209.637719	-2.993400	3.126200	-9.356600	28.106846	0.000235	20.752052
2210.633608	-3.030200	3.124500	-9.467300	28.128318	0.000234	20.755175
2211.633334	-3.001800	3.123600	-9.376100	28.120553	0.000233	20.733133
2212.629655	-3.006200	3.124400	-9.391400	28.111639	0.000233	20.738384
2213.633428	-2.984900	3.122400	-9.317900	28.103549	0.000232	20.756793
2214.635639	-2.977700	3.123100	-9.298600	28.107885	0.000231	20.735079
2215.630059	-2.988800	3.123300	-9.332900	28.112556	0.000229	20.736463
2216.640202	-2.987600	3.121000	-9.323300	28.136723	0.000228	20.746093
2217.651190	-2.992500	3.120700	-9.337600	28.154164	0.000230	20.731408
2218.644412	-2.993900	3.120800	-9.342800	28.163943	0.000228	20.736512
2219.639736	-2.993300	3.119600	-9.336600	28.160622	0.000230	20.754506
2220.635975	-2.987500	3.117900	-9.312900	28.170707	0.000224	20.726725
2221.637583	-3.004700	3.117600	-9.366000	28.178340	0.000227	20.737729
2222.635885	-2.978600	3.116300	-9.281600	28.165381	0.000227	20.742700
2223.638212	-2.988200	3.117900	-9.316000	28.151639	0.000224	20.735030
2224.644562	-3.009900	3.114700	-9.374100	28.153630	0.000226	20.730870
2225.648492	-3.010000	3.114200	-9.372200	28.162627	0.000224	20.740403
2226.641795	-2.985800	3.114100	-9.297000	28.185307	0.000223	20.756598
2227.644154	-2.984000	3.112900	-9.287700	28.232020	0.000224	20.760005
2228.649585	-3.004300	3.113300	-9.351700	28.255349	0.000224	20.729912
2229.643108	-3.015500	3.112200	-9.383300	28.219207	0.000223	20.725766
2230.645359	-2.986000	3.111300	-9.288400	28.166531	0.000222	20.743384
2231.639366	-2.994400	3.109500	-9.309800	28.145118	0.000220	20.746484
2232.647234	-2.996500	3.108600	-9.313800	28.161748	0.000221	20.742363
2233.638829	-3.001100	3.108700	-9.329000	28.141894	0.000220	20.715261
2234.639767	-2.991300	3.108200	-9.297300	28.112138	0.000221	20.750267
2235.641434	-2.983000	3.107800	-9.270300	28.070990	0.000221	20.742035
2236.642500	-3.026500	3.106900	-9.401100	28.052328	0.000219	20.724197
2237.639999	-3.025500	3.103700	-9.389200	28.089190	0.000218	20.729061
2238.638849	-3.006600	3.106300	-9.338800	28.123418	0.000219	20.726059
2239.642244	-2.994300	3.104700	-9.295100	28.173343	0.000217	20.728905
2240.635993	-3.010100	3.102900	-9.337400	28.158116	0.000216	20.747715
2241.639550	-3.018600	3.101300	-9.360200	28.124637	0.000218	20.735822
2242.639040	-2.988000	3.101300	-9.264900	28.062875	0.000216	20.727228
2243.638938	-3.012000	3.099400	-9.334300	27.992049	0.000217	20.716150
2244.648849	-2.993500	3.100300	-9.279600	27.926181	0.000216	20.728088
2245.650626	-2.989200	3.099900	-9.263500	27.905190	0.000215	20.739204
2246.656181	-2.990100	3.099300	-9.266100	27.946913	0.000213	20.707229
2247.643972	-3.000400	3.097100	-9.292100	27.991834	0.000214	20.722573
2248.644571	-3.002400	3.095100	-9.291000	28.008526	0.000215	20.727521
2249.647882	-2.986400	3.095700	-9.243900	28.017174	0.000214	20.723898
2250.646686	-3.015200	3.093900	-9.326700	28.047234	0.000213	20.726656
2251.640553	-3.031100	3.092300	-9.372300	28.039071	0.000215	20.734560
2252.655321	-3.015600	3.093800	-9.329200	28.058553	0.000212	20.729515
2253.638536	-3.028400	3.091800	-9.361800	28.035642	0.000214	20.723048
2254.643801	-3.012500	3.090700	-9.310100	28.069193	0.000213	20.726475
2255.652930	-3.002700	3.091100	-9.280500	28.081405	0.000211	20.736872
2256.648007	-2.994800	3.089600	-9.251300	28.126913	0.000211	20.712508
2257.643978	-2.999700	3.088000	-9.262100	28.160679	0.000212	20.746028
2258.644793	-2.995800	3.088200	-9.249900	28.170376	0.000212	20.712166
2259.649790	-2.985100	3.089100	-9.220300	28.193250	0.000209	20.712909
2260.642185	-3.011300	3.087000	-9.294800	28.194711	0.000211	20.726709
2261.644836	-3.012000	3.086400	-9.294600	28.159096	0.000209	20.711242
2262.641775	-3.010000	3.084400	-9.283000	28.165219	0.000209	20.714087
2263.643754	-2.998500	3.084300	-9.247300	28.207486	0.000208	20.732458
2264.653949	-3.004600	3.083900	-9.264600	28.215409	0.000208	20.723839
2265.644153	-2.990700	3.082200	-9.216600	28.253882	0.000206	20.718003
2266.647798	-3.000600	3.081400	-9.244700	28.292173	0.000207	20.721468
2267.653340	-3.033500	3.079700	-9.340400	28.226834	0.000208	20.730600
2268.650581	-3.016100	3.078500	-9.283700	28.214176	0.000208	20.715011
2269.643228	-3.013700	3.077900	-9.275300	28.195784	0.000207	20.715461
2270.654611	-2.992000	3.077100	-9.206000	28.171293	0.000207	20.699812
2271.652241	-2.999100	3.077100	-9.227900	28.189652	0.000207	20.709760
2272.656974	-2.969300	3.077100	-9.136200	28.213744	0.000208	20.736862
2273.647661	-2.991300	3.074800	-9.197000	28.240321	0.000206	20.714307
2274.649140	-2.991500	3.074100	-9.195700	28.297208	0.000207	20.714209
2275.659173	-2.993400	3.073900	-9.200400	28.337129	0.000207	20.713153
2276.646787	-3.000000	3.071800	-9.214100	28.341377	0.000205	20.742562
2277.658677	-2.987200	3.072300	-9.176500	28.348309	0.000206	20.714928
2278.649468	-3.004500	3.069200	-9.220000	28.287381	0.000205	20.733714
2279.653862	-3.016000	3.068900	-9.255200	28.248148	0.000204	20.707961
2280.647436	-3.007700	3.068200	-9.227300	28.256732	0.000206	20.709966
2281.659973	-2.990400	3.066900	-9.170300	28.284386	0.000203	20.711730
2282.647924	-3.002000	3.065500	-9.201400	28.297475	0.000205	20.712581
2283.654253	-3.017000	3.065600	-9.248600	28.295567	0.000203	20.710660
2284.646398	-3.012500	3.064700	-9.230700	28.304538	0.000206	20.719694
2285.648237	-2.992700	3.063800	-9.168500	28.334220	0.000204	20.708328
2286.652001	-2.997400	3.062900	-9.178900	28.360455	0.000204	20.695862
2287.656549	-2.997500	3.061500	-9.176000	28.376237	0.000204	20.704168
2288.663536	-3.037500	3.060700	-9.295600	28.390413	0.000203	20.722710
2289.649128	-2.990500	3.059700	-9.148900	28.419957	0.000202	20.700301
2290.651117	-3.015700	3.058200	-9.221500	28.427335	0.000203	20.699196
2291.661132	-3.009400	3.057800	-9.200800	28.471270	0.000202	20.696023
2292.660517	-2.993900	3.056600	-9.149700	28.459149	0.000204	20.696620
2293.652541	-2.986200	3.055900	-9.124200	28.485153	0.000202	20.689140
2294.660091	-2.991000	3.054500	-9.135300	28.443791	0.000201	20.697275
2295.654346	-3.024000	3.052300	-9.229400	28.455950	0.000202	20.682017
2296.659388	-3.008700	3.051500	-9.180100	28.412534	0.000202	20.719855
2297.653316	-3.019800	3.051100	-9.211700	28.379863	0.000200	20.704026
2298.651874	-3.004000	3.049800	-9.160700	28.383208	0.000202	20.722094
2299.654445	-3.009800	3.050200	-9.179600	28.359314	0.000202	20.690919
2300.651127	-2.999400	3.047900	-9.140600	28.293799	0.000200	20.713147
2301.660904	-3.011500	3.048000	-9.178200	28.310436	0.000200	20.693388
2302.653610	-2.991800	3.045800	-9.111200	28.334997	0.000200	20.705790
2303.655952	-3.016900	3.043100	-9.179300	28.384922	0.000199	20.704378
2304.658062	-3.033700	3.044200	-9.233400	28.429101	0.000197	20.700027
2305.680665	-3.016900	3.043100	-9.179000	28.471707	0.000200	20.719698
2306.661019	-2.998600	3.041900	-9.119900	28.511306	0.000200	20.696986
2307.660924	-2.981600	3.041100	-9.066700	28.563892	0.000200	20.698262
2308.659410	-2.997000	3.039900	-9.109600	28.590932	0.000201	20.699890
2309.657529	-3.020500	3.037200	-9.172500	28.596246	0.000201	20.706191
2310.659621	-3.040500	3.037300	-9.233500	28.601735	0.000201	20.692278
2311.661341	-3.037200	3.034900	-9.216800	28.560596	0.000200	20.709643
2312.656066	-2.997200	3.036100	-9.098900	28.548258	0.000199	20.710967
2313.662448	-2.979300	3.033700	-9.037500	28.527227	0.000198	20.703537
2314.663653	-3.009800	3.032600	-9.127100	28.500171	0.000199	20.691462
2315.668229	-3.001100	3.031700	-9.097600	28.481231	0.000198	20.708900
2316.658312	-3.034700	3.030100	-9.194400	28.476848	0.000199	20.706382
2317.673209	-3.013200	3.029000	-9.125900	28.503273	0.000197	20.708338
2318.663557	-2.982700	3.028800	-9.032800	28.505035	0.000197	20.688300
2319.673368	-2.982800	3.028000	-9.030400	28.526067	0.000200	20.715646
2320.660835	-3.004100	3.025500	-9.087500	28.496269	0.000196	20.694645
2321.662676	-3.018100	3.024000	-9.125900	28.494444	0.000198	20.702291
2322.659407	-2.974400	3.025200	-8.997300	28.465397	0.000196	20.705283
2323.661935	-2.967000	3.023400	-8.969300	28.453131	0.000196	20.711423
2324.663906	-2.990100	3.021400	-9.033200	28.459723	0.000196	20.682971
2325.658335	-3.020700	3.019500	-9.120100	28.430311	0.000197	20.711203
2326.660772	-3.009900	3.018700	-9.085100	28.446612	0.000196	20.699167
2327.660532	-3.008100	3.017500	-9.075600	28.482877	0.000195	20.694435
2328.663677	-2.973600	3.017600	-8.972100	28.512772	0.000196	20.719327
2329.656220	-2.985500	3.015600	-9.002600	28.567106	0.000197	20.714777
2330.671283	-3.036900	3.012700	-9.148100	28.551050	0.000196	20.714254
2331.658824	-3.006400	3.013700	-9.059500	28.593932	0.000196	20.698644
2332.663677	-3.003800	3.011500	-9.044200	28.567917	0.000196	20.687616
2333.663071	-3.005800	3.010800	-9.049000	28.532654	0.000196	20.696674
2334.659823	-2.976700	3.011000	-8.961100	28.516321	0.000195	20.700614
2335.658141	-3.004200	3.008300	-9.036400	28.498803	0.000196	20.706207
2336.664064	-2.997500	3.007400	-9.013800	28.457922	0.000194	20.692539
2337.669952	-3.000100	3.005500	-9.015900	28.412491	0.000196	20.694205
2338.660947	-3.018200	3.004100	-9.065400	28.403627	0.000194	20.710886
2339.661772	-2.989800	3.002800	-8.975900	28.380593	0.000195	20.692431
2340.667773	-3.015700	3.001600	-9.050300	28.421607	0.000193	20.710973
2341.671774	-2.990500	3.000500	-8.972300	28.476324	0.000193	20.703958
2342.663714	-3.001300	3.000200	-9.004000	28.476251	0.000192	20.689659
2343.664249	-2.996000	2.998300	-8.980500	28.506458	0.000194	20.710123
2344.664934	-3.000900	2.997200	-8.993100	28.539993	0.000192	20.706437
2345.662880	-3.006700	2.996400	-9.008400	28.528091	0.000192	20.713417
2346.679061	-2.986100	2.995000	-8.941300	28.564577	0.000193	20.703219
2347.682647	-2.989200	2.993100	-8.945400	28.571600	0.000194	20.722622
2348.664782	-3.001200	2.990400	-8.973800	28.583817	0.000192	20.700785
2349.669590	-3.001600	2.991200	-8.976800	28.573605	0.000191	20.718951
2350.667098	-3.014200	2.989100	-9.009000	28.569295	0.000194	20.710342
2351.663845	-3.024400	2.986300	-9.030500	28.496293	0.000195	20.702257
2352.671318	-3.000400	2.985700	-8.957800	28.473004	0.000192	20.708676
2353.666049	-3.014800	2.984700	-8.997400	28.394190	0.000192	20.716081
2354.666869	-3.017300	2.982100	-8.996700	28.316467	0.000194	20.710367
2355.673864	-2.978200	2.982700	-8.881600	28.297859	0.000194	20.720555
2356.676987	-2.988000	2.980500	-8.904600	28.263422	0.000190	20.699157
2357.665961	-2.989300	2.977700	-8.899700	28.287367	0.000192	20.689600
2358.666773	-2.997900	2.977400	-8.924600	28.340906	0.000192	20.725018
2359.679967	-2.999700	2.976300	-8.926500	28.400180	0.000193	20.719269
2360.675698	-3.013700	2.974000	-8.961200	28.458058	0.000193	20.715910
2361.666492	-3.015300	2.972100	-8.961300	28.520884	0.000190	20.722280
2362.671398	-3.028800	2.970200	-8.995500	28.557549	0.000192	20.701831
2363.668700	-3.010100	2.970100	-8.938500	28.533125	0.000191	20.716116
2364.670038	-3.003100	2.969700	-8.918000	28.495327	0.000191	20.709345
2365.680987	-3.008500	2.966200	-8.922800	28.508559	0.000191	20.715558
2366.687504	-3.011600	2.965300	-8.928000	28.507098	0.000191	20.718355
2367.684708	-2.977600	2.966200	-8.831600	28.482396	0.000191	20.704858
2368.685057	-2.989900	2.962600	-8.857100	28.414943	0.000189	20.700942
2369.686735	-3.006400	2.961500	-8.902000	28.404802	0.000190	20.715387
2370.673114	-3.017000	2.960000	-8.928400	28.416986	0.000191	20.713906
2371.679572	-3.000300	2.958800	-8.876100	28.428612	0.000189	20.724191
2372.678000	-3.006900	2.957000	-8.890500	28.430326	0.000189	20.708847
2373.671946	-2.978100	2.956600	-8.804600	28.452854	0.000191	20.695970
2374.676771	-2.997000	2.953400	-8.850800	28.495366	0.000190	20.725506
2375.694049	-2.989000	2.951600	-8.820100	28.502691	0.000190	20.703958
2376.677703	-2.976000	2.951400	-8.783000	28.522417	0.000189	20.719083
2377.677602	-2.992400	2.949200	-8.824300	28.551453	0.000191	20.727462
2378.687786	-3.003800	2.947400	-8.852400	28.586001	0.000189	20.732859
2379.675475	-3.051100	2.945100	-8.983800	28.557612	0.000191	20.710430
2380.682088	-2.977900	2.945100	-8.769100	28.536566	0.000190	20.707727
2381.676395	-2.999200	2.943300	-8.826300	28.473800	0.000189	20.721806
2382.680812	-2.956500	2.942400	-8.697200	28.468538	0.000190	20.719352
2383.674445	-2.999800	2.939600	-8.817300	28.481493	0.000190	20.709164
2384.685625	-2.996100	2.938200	-8.801400	28.490051	0.000191	20.716360
2385.676492	-3.003800	2.936100	-8.818000	28.547191	0.000189	20.722696
2386.677804	-2.998900	2.934600	-8.799200	28.591107	0.000189	20.732311
2387.676523	-3.020000	2.931600	-8.852200	28.581463	0.000189	20.704105
2388.674447	-2.988300	2.931500	-8.759400	28.578371	0.000188	20.714742
2389.686465	-3.010300	2.929300	-8.816600	28.570392	0.000190	20.713344
2390.681582	-2.991800	2.927900	-8.758700	28.620344	0.000191	20.720032
2391.691118	-2.989700	2.926300	-8.747100	28.636195	0.000188	20.736471
2392.678397	-2.977700	2.925700	-8.710400	28.628663	0.000188	20.727936
2393.686244	-2.997300	2.923400	-8.761600	28.630833	0.000190	20.713999
2394.691829	-2.998000	2.921100	-8.756700	28.647480	0.000188	20.712274
2395.688230	-2.997000	2.919600	-8.748500	28.679481	0.000187	20.729334
2396.682014	-2.976200	2.919300	-8.687100	28.694085	0.000187	20.730293
2397.691487	-2.997800	2.916100	-8.740500	28.758842	0.000187	20.731035
2398.696769	-2.998800	2.916100	-8.744100	28.753892	0.000189	20.727946
2399.686435	-3.017500	2.912800	-8.788100	28.783319	0.000191	20.731984
2400.682165	-2.999100	2.912100	-8.732900	28.762220	0.000188	20.722109
2401.688225	-2.994500	2.910100	-8.712000	28.731768	0.000188	20.733162
2402.691210	-2.985800	2.908700	-8.684500	28.717054	0.000189	20.715495
2403.682029	-2.986200	2.907000	-8.680100	28.705926	0.000189	20.725150
2404.689195	-3.000500	2.905100	-8.715300	28.736679	0.000189	20.714874
2405.689232	-2.994800	2.903100	-8.693300	28.795145	0.000188	20.724930
2406.680505	-3.001400	2.900900	-8.705600	28.811547	0.000188	20.726754
2407.681877	-2.995600	2.900500	-8.687800	28.874992	0.000187	20.740407
2408.684021	-2.967500	2.898800	-8.600400	28.867219	0.000189	20.752965
2409.685695	-2.999700	2.895800	-8.684700	28.857733	0.000188	20.711639
2410.683963	-3.019100	2.892800	-8.732300	28.828177	0.000189	20.722643
2411.682736	-2.987300	2.891500	-8.635900	28.811907	0.000188	20.729487
2412.681365	-3.002400	2.890300	-8.676600	28.801565	0.000190	20.726656
2413.692498	-2.990200	2.887700	-8.632700	28.852230	0.000188	20.736917
2414.697509	-3.003400	2.887100	-8.669700	28.843540	0.000189	20.743335
2415.694354	-3.020500	2.883500	-8.708700	28.809373	0.000188	20.742108
2416.691308	-3.008500	2.883800	-8.674500	28.801153	0.000188	20.748527
2417.688351	-3.025000	2.880700	-8.713600	28.802735	0.000191	20.733998
2418.688431	-3.017000	2.877900	-8.681300	28.769674	0.000190	20.728670
2419.686978	-3.023900	2.875900	-8.694700	28.722291	0.000189	20.731202
2420.690931	-2.959900	2.876600	-8.513700	28.755082	0.000189	20.739577
2421.686109	-2.994300	2.874100	-8.604000	28.797990	0.000188	20.742495
2422.707480	-2.975700	2.872600	-8.547000	28.817118	0.000190	20.725253
2423.691601	-2.978500	2.870500	-8.548700	28.839047	0.000189	20.727429
2424.693010	-2.998900	2.867300	-8.597300	28.881854	0.000190	20.740682
2425.694208	-3.001800	2.865000	-8.598000	28.949409	0.000190	20.724340
2426.691861	-3.013500	2.863000	-8.626000	28.992406	0.000189	20.734943
2427.688743	-3.028500	2.861100	-8.663100	29.043169	0.000189	20.749105
2428.698094	-2.996100	2.859000	-8.563400	29.072175	0.000187	20.733286
2429.691154	-2.990900	2.857200	-8.544500	29.097140	0.000189	20.731414
2430.698966	-2.975400	2.856700	-8.499100	29.094389	0.000190	20.724374
2431.691687	-3.015300	2.852900	-8.601400	29.085448	0.000188	20.741919
2432.692178	-2.992400	2.850900	-8.530200	29.091673	0.000189	20.739656
2433.704581	-2.990400	2.849600	-8.519500	29.076639	0.000189	20.745844
2434.695436	-3.022500	2.846900	-8.603500	29.048030	0.000189	20.740252
2435.706031	-3.017900	2.844800	-8.584300	28.995658	0.000189	20.741538
2436.694498	-2.991900	2.842400	-8.503600	28.975770	0.000187	20.733829
2437.706202	-2.982000	2.841500	-8.472000	29.037590	0.000189	20.750122
2438.694019	-3.006200	2.839600	-8.534600	29.024316	0.000188	20.743860
2439.692119	-3.001200	2.836600	-8.512100	28.984785	0.000187	20.772310
2440.708021	-2.995600	2.833600	-8.486400	28.977905	0.000188	20.748309
2441.699234	-2.983200	2.831900	-8.446400	29.010063	0.000189	20.747043
2442.699711	-3.016600	2.829900	-8.535800	29.029250	0.000189	20.736503
2443.701457	-3.006000	2.827600	-8.498800	29.015167	0.000187	20.758350
2444.696876	-3.004100	2.824400	-8.483800	28.949799	0.000188	20.741328
2445.698323	-3.011700	2.822500	-8.499000	28.932555	0.000188	20.741974
2446.700430	-2.955800	2.821900	-8.339200	28.920246	0.000188	20.761341
2447.702985	-3.007200	2.818400	-8.474300	28.975562	0.000189	20.745474
2448.706384	-2.994500	2.816400	-8.433100	29.027621	0.000189	20.761889
2449.715058	-3.001200	2.814100	-8.444400	29.059292	0.000189	20.755867
2450.711156	-2.988200	2.812600	-8.404000	29.075946	0.000188	20.751310
2451.706190	-2.977600	2.810600	-8.367400	29.049991	0.000189	20.758350
2452.702985	-3.019400	2.806000	-8.471300	29.021707	0.000191	20.742653
2453.709357	-2.993100	2.804800	-8.393100	28.966960	0.000187	20.752454
2454.699055	-3.005800	2.801600	-8.420600	28.920052	0.000188	20.752611
2455.699211	-2.994300	2.800000	-8.382700	28.836671	0.000189	20.750641
2456.703062	-2.992400	2.796100	-8.365700	28.847933	0.000187	20.755822
2457.704717	-2.984600	2.795200	-8.341600	28.811835	0.000188	20.752650
2458.706370	-3.022900	2.790700	-8.434500	28.792959	0.000188	20.770145
2459.702085	-3.014100	2.788000	-8.401700	28.800092	0.000189	20.755993
2460.703084	-3.024000	2.785900	-8.421900	28.804450	0.000189	20.761805
2461.700366	-2.995800	2.783500	-8.337600	28.886470	0.000188	20.762402
2462.710124	-3.008300	2.780700	-8.364500	28.955572	0.000189	20.750938
2463.710425	-3.010400	2.778100	-8.362500	29.025029	0.000188	20.751691
2464.703402	-2.968600	2.776400	-8.241500	29.025199	0.000188	20.763242
2465.704054	-2.975200	2.773600	-8.251000	29.051227	0.000189	20.766708
2466.700378	-2.991600	2.771300	-8.289600	29.092590	0.000189	20.777565
2467.704135	-2.981300	2.768200	-8.251900	29.134999	0.000188	20.765295
2468.706402	-2.986900	2.765200	-8.257700	29.190163	0.000186	20.751657
2469.701555	-2.989900	2.761400	-8.255600	29.214630	0.000188	20.766830
2470.707047	-3.014000	2.758700	-8.312000	29.240014	0.000188	20.769651
2471.701412	-2.977900	2.755200	-8.203300	29.276183	0.000187	20.767221
2472.709464	-3.004700	2.754000	-8.273900	29.279656	0.000188	20.778308
2473.715835	-2.982200	2.749500	-8.198200	29.246324	0.000187	20.766053
2474.703446	-3.008700	2.746700	-8.262000	29.175445	0.000189	20.771439
2475.717038	-2.996400	2.743100	-8.218300	29.129875	0.000186	20.786686
2476.702545	-2.976500	2.740800	-8.156500	29.088345	0.000187	20.771391
2477.705509	-3.013800	2.737400	-8.248100	29.099978	0.000188	20.782164
2478.715075	-3.001500	2.734200	-8.206000	29.162547	0.000187	20.779779
2479.718224	-3.005300	2.730200	-8.202900	29.172166	0.000186	20.766712
2480.711794	-3.016200	2.725300	-8.219300	29.220800	0.000189	20.783479
2481.708623	-3.034300	2.722500	-8.258300	29.164492	0.000189	20.780790
2482.702868	-3.022400	2.721700	-8.224700	29.161980	0.000187	20.768301
2483.710734	-2.975600	2.717700	-8.085500	29.115157	0.000189	20.784183
2484.718418	-3.000500	2.714800	-8.143900	29.043760	0.000186	20.806600
2485.712893	-2.974000	2.711300	-8.062200	29.011362	0.000188	20.786759
2486.713490	-2.999900	2.706800	-8.119300	28.990849	0.000187	20.784110
2487.705258	-3.008600	2.703100	-8.131800	28.998039	0.000185	20.768120
2488.714860	-3.045500	2.697700	-8.214800	29.029521	0.000186	20.777081
2489.711268	-2.993800	2.696700	-8.072600	29.061715	0.000187	20.761628
2490.704348	-2.989800	2.692800	-8.049800	29.081674	0.000187	20.789325
2491.723296	-3.013600	2.688300	-8.100200	29.081203	0.000187	20.785532
2492.727041	-2.992200	2.684100	-8.030000	29.089902	0.000187	20.782917
2493.708419	-3.014900	2.680200	-8.079300	29.119606	0.000190	20.797675
2494.708356	-2.981900	2.676900	-7.980200	29.155333	0.000189	20.795269
2495.718058	-2.998000	2.673300	-8.013300	29.179535	0.000189	20.800216
2496.712605	-3.020900	2.667300	-8.055600	29.193893	0.000187	20.785762
2497.718070	-3.020700	2.665000	-8.049300	29.221304	0.000186	20.783987
2498.717882	-3.013800	2.660300	-8.016300	29.196547	0.000188	20.790807
2499.725179	-2.946300	2.657500	-7.828300	29.210060	0.000186	20.803951
2500.713220	-2.992100	2.653200	-7.936900	29.206054	0.000188	20.792801
2501.718837	-2.998000	2.648900	-7.940400	29.274398	0.000187	20.810467
2502.720057	-2.970000	2.644600	-7.853800	29.291239	0.000188	20.794248
2503.716128	-2.983600	2.640800	-7.877600	29.351386	0.000186	20.791330
2504.715388	-3.008600	2.634300	-7.924500	29.354607	0.000187	20.782722
2505.725561	-2.993600	2.633000	-7.880900	29.334416	0.000187	20.782286
2506.720739	-2.973300	2.626400	-7.808300	29.387310	0.000188	20.785337
2507.721707	-3.024600	2.620400	-7.923900	29.376213	0.000188	20.811136
2508.724731	-3.022700	2.615700	-7.905800	29.398722	0.000187	20.786881
2509.712170	-2.986200	2.611500	-7.798600	29.432267	0.000189	20.812158
2510.714581	-2.996700	2.607500	-7.812700	29.418698	0.000188	20.793265
2511.722652	-2.990500	2.601600	-7.778700	29.400424	0.000186	20.808037
2512.717975	-2.985000	2.598600	-7.755700	29.410448	0.000188	20.812451
2513.727932	-3.019100	2.591400	-7.822100	29.422053	0.000187	20.829363
2514.718557	-3.000100	2.586500	-7.758800	29.448805	0.000188	20.807015
2515.720217	-3.044700	2.580100	-7.854300	29.401655	0.000189	20.819710
2516.726285	-3.015400	2.574800	-7.762800	29.382270	0.000188	20.804913
2517.719553	-2.969700	2.570100	-7.631200	29.319050	0.000189	20.805206
2518.717352	-2.968500	2.564300	-7.611700	29.279810	0.000189	20.798377
2519.715915	-2.991200	2.559600	-7.655600	29.291122	0.000191	20.826846
2520.724802	-2.990300	2.552400	-7.631300	29.292004	0.000189	20.808770
2521.715466	-2.973600	2.547700	-7.575200	29.347423	0.000188	20.812939
2522.723406	-2.982100	2.539800	-7.572800	29.429328	0.000186	20.814885
2523.724412	-3.014100	2.534300	-7.637300	29.433489	0.000189	20.814812
2524.716859	-3.024200	2.527900	-7.643100	29.449847	0.000186	20.820394
2525.715460	-3.006800	2.520900	-7.579300	29.413479	0.000188	20.824040
2526.734414	-2.958400	2.517700	-7.447200	29.405181	0.000187	20.808090
2527.718489	-2.971500	2.510200	-7.457000	29.374806	0.000189	20.825365
2528.719969	-3.021200	2.501900	-7.557500	29.353830	0.000188	20.800905
2529.719738	-2.981900	2.497400	-7.445800	29.370499	0.000188	20.829559
