LabVIEW Measurement	
Writer_Version	2
Reader_Version	2
Separator	Tab
Decimal_Separator	.
Multi_Headings	No
X_Columns	One
Time_Pref	Absolute
Operator	admin
Description	Clolumns are: time, Current, Voltage, Power, Battery Temp, and Chamber Temp
Date	2024/08/16
Time	13:06:06.104549407958984375
***End_of_Header***	
	
Channels	6						
Samples	1	1	1	1	1	1	
Date	2024/08/29	2024/08/29	2024/08/29	2024/08/29	2024/08/29	2024/08/29	
Time	14:06:31.6055865287780761719	14:06:31.612667083740234375	14:06:31.6176910400390625	14:06:31.564788818359375	14:06:31.564788818359375	14:06:31.564788818359375	
X_Dimension	Time	Time	Time	Time	Time	Time	
X0	0.0000000000000000E+0	0.0000000000000000E+0	0.0000000000000000E+0	0.0000000000000000E+0	0.0000000000000000E+0	0.0000000000000000E+0	
Delta_X	1.000000	1.000000	1.000000	1.000000	1.000000	1.000000	
***End_of_Header***							
X_Value	Untitled	Untitled 1	Untitled 2	Untitled 3	Untitled 4	Untitled 5	Comment
0.000000	-0.003328	4.106900	-0.013819	21.075449	0.000952	20.710855
0.993245	-2.984700	3.944700	-11.772000	21.060758	0.000950	20.732672
1.991291	-3.002700	3.935600	-11.816000	21.081269	0.000951	20.706245
2.991934	-3.011800	3.932400	-11.843000	21.075729	0.000948	20.731051
3.987890	-2.991300	3.927200	-11.746000	21.082844	0.000949	20.707346
4.991921	-3.011300	3.924400	-11.816000	21.076484	0.000948	20.726116
5.998317	-2.994500	3.920500	-11.739000	21.070247	0.000945	20.741215
6.990903	-3.016300	3.918200	-11.817000	21.090581	0.000944	20.704654
7.992797	-3.005800	3.916600	-11.771000	21.078157	0.000945	20.726841
8.994244	-2.982200	3.914400	-11.672000	21.095247	0.000946	20.712641
9.992370	-3.014900	3.911500	-11.792000	21.075247	0.000945	20.695479
10.997475	-3.005300	3.910900	-11.752000	21.075218	0.000942	20.727221
11.992875	-3.014300	3.910200	-11.786000	21.096905	0.000943	20.699599
13.005484	-3.009200	3.907900	-11.759000	21.108854	0.000944	20.718665
13.994010	-3.012200	3.906600	-11.765000	21.098529	0.000941	20.723036
14.993237	-2.985600	3.905500	-11.659000	21.110449	0.000941	20.721209
16.005541	-2.997200	3.904800	-11.703000	21.113203	0.000940	20.741983
16.991267	-2.991800	3.902600	-11.675000	21.101752	0.000940	20.719148
17.992554	-2.966700	3.903500	-11.580000	21.127305	0.000938	20.717680
18.992332	-2.992300	3.900900	-11.671000	21.111217	0.000939	20.715813
19.989411	-3.002300	3.900300	-11.708000	21.110491	0.000938	20.743063
21.005219	-2.996600	3.900300	-11.686000	21.119799	0.000939	20.712543
22.000693	-2.987400	3.898100	-11.645000	21.144246	0.000936	20.721350
23.009336	-3.016200	3.897800	-11.755000	21.152584	0.000937	20.739650
23.995281	-3.005400	3.896700	-11.709000	21.154637	0.000936	20.714675
24.997697	-2.991300	3.897400	-11.658000	21.151814	0.000936	20.731292
25.992831	-3.011600	3.895300	-11.730000	21.156908	0.000936	20.718369
26.997107	-2.995200	3.894200	-11.663000	21.158405	0.000936	20.713702
27.997088	-2.995400	3.893500	-11.661000	21.166384	0.000935	20.736384
29.003545	-3.000700	3.893200	-11.682000	21.158809	0.000936	20.726435
29.994853	-2.997500	3.893600	-11.669000	21.178935	0.000934	20.753207
31.000252	-3.003300	3.893100	-11.690000	21.193781	0.000935	20.720167
31.995667	-3.016700	3.890600	-11.736000	21.194853	0.000935	20.744948
33.008780	-2.982900	3.890900	-11.605000	21.205153	0.000934	20.733914
34.001729	-3.006400	3.890300	-11.695000	21.228708	0.000932	20.725709
34.994013	-3.001000	3.888700	-11.668000	21.236963	0.000932	20.745822
35.996332	-3.011500	3.889700	-11.713000	21.229310	0.000932	20.741959
36.993208	-3.014300	3.888100	-11.718000	21.235319	0.000931	20.740384
38.001574	-3.012800	3.887500	-11.711000	21.224244	0.000932	20.741633
38.993854	-3.010000	3.887000	-11.700000	21.251038	0.000929	20.742833
39.997857	-2.992900	3.887700	-11.635000	21.231927	0.000929	20.731300
40.998523	-3.008000	3.886000	-11.687000	21.261432	0.000929	20.740903
41.998207	-3.016200	3.886000	-11.720000	21.271336	0.000930	20.743699
42.998876	-2.988400	3.886300	-11.613000	21.287801	0.000930	20.746420
43.998738	-3.009500	3.885100	-11.691000	21.274130	0.000929	20.741753
45.001584	-2.995200	3.885000	-11.635000	21.276504	0.000928	20.758827
46.001328	-2.995200	3.884400	-11.633000	21.285406	0.000926	20.723161
46.994462	-2.980900	3.885800	-11.582000	21.279319	0.000927	20.733667
48.006487	-2.990400	3.883600	-11.612000	21.283560	0.000927	20.758773
49.017186	-3.013000	3.883200	-11.698000	21.281866	0.000926	20.753286
50.010332	-2.997000	3.883000	-11.636000	21.298599	0.000926	20.733040
51.003443	-3.022500	3.881700	-11.731000	21.294717	0.000926	20.751443
52.010729	-2.990400	3.882300	-11.609000	21.315492	0.000925	20.758951
53.003530	-3.007500	3.881300	-11.672000	21.340586	0.000925	20.754184
54.000658	-2.992300	3.881800	-11.615000	21.330337	0.000926	20.746301
55.001059	-2.984900	3.883000	-11.589000	21.323030	0.000923	20.758432
56.006703	-2.994100	3.882100	-11.622000	21.355632	0.000924	20.759281
57.001842	-3.013200	3.879900	-11.689000	21.346455	0.000924	20.760056
58.001807	-3.002300	3.880500	-11.649000	21.367035	0.000923	20.762155
59.012204	-2.994900	3.880200	-11.621000	21.360978	0.000922	20.764155
60.000656	-2.994100	3.879600	-11.615000	21.379263	0.000921	20.753051
61.015225	-3.006200	3.879400	-11.661000	21.370835	0.000923	20.760741
62.013674	-3.007800	3.879400	-11.667000	21.383186	0.000923	20.733268
63.002049	-3.009100	3.878900	-11.671000	21.405864	0.000921	20.744579
64.008188	-2.986800	3.879200	-11.585000	21.394692	0.000923	20.760903
65.018689	-2.996900	3.878300	-11.621000	21.395867	0.000923	20.777725
66.004065	-2.988800	3.878400	-11.591000	21.401612	0.000921	20.764981
67.012233	-3.007200	3.877000	-11.657000	21.414037	0.000922	20.775516
68.006010	-2.997000	3.877600	-11.621000	21.423766	0.000921	20.754904
69.016465	-2.990600	3.876900	-11.594000	21.415764	0.000921	20.760648
70.010076	-2.989800	3.877000	-11.589000	21.432853	0.000921	20.773005
71.003735	-2.978900	3.877800	-11.550000	21.422733	0.000921	20.754818
72.004986	-2.992200	3.876400	-11.598000	21.457953	0.000921	20.782473
73.010837	-2.999000	3.876900	-11.626000	21.459478	0.000922	20.776412
74.009267	-3.015000	3.874400	-11.680000	21.455465	0.000920	20.766706
75.008298	-3.007200	3.875900	-11.654000	21.486671	0.000922	20.770430
76.005241	-3.020300	3.874900	-11.703000	21.469537	0.000922	20.766088
77.014069	-2.992900	3.876300	-11.600000	21.478743	0.000922	20.762971
78.008418	-2.997700	3.874300	-11.613000	21.493112	0.000921	20.773081
79.013305	-3.014900	3.874900	-11.682000	21.502865	0.000922	20.758184
80.004352	-3.009500	3.873000	-11.655000	21.509948	0.000923	20.770488
81.006421	-2.999200	3.874700	-11.620000	21.533217	0.000922	20.782391
82.013144	-2.993400	3.875200	-11.599000	21.527230	0.000922	20.763598
83.012190	-2.996100	3.874600	-11.607000	21.531400	0.000921	20.765874
84.012617	-3.018800	3.872700	-11.690000	21.539702	0.000921	20.766121
85.002124	-2.990200	3.874600	-11.584000	21.547432	0.000921	20.757735
86.013737	-2.992300	3.872200	-11.586000	21.560177	0.000922	20.778549
87.004022	-2.987800	3.873900	-11.574000	21.582822	0.000922	20.754741
88.006011	-3.020800	3.871700	-11.694000	21.567259	0.000923	20.769515
89.012695	-3.024000	3.871800	-11.705000	21.564964	0.000922	20.762476
90.011191	-2.995100	3.871100	-11.593000	21.596464	0.000923	20.772187
91.021544	-2.984100	3.872500	-11.554000	21.584841	0.000922	20.776677
92.015082	-3.013400	3.870400	-11.662000	21.577457	0.000921	20.794418
93.007465	-2.991300	3.871800	-11.581000	21.615442	0.000922	20.780746
94.014823	-3.011500	3.871200	-11.658000	21.612920	0.000921	20.794818
95.009858	-3.014100	3.870300	-11.665000	21.641423	0.000921	20.782090
96.012570	-2.998100	3.870400	-11.602000	21.596934	0.000921	20.784036
97.016887	-2.981400	3.870000	-11.536000	21.640046	0.000920	20.791144
98.005815	-2.997200	3.870200	-11.599000	21.632391	0.000923	20.794863
99.006177	-3.011300	3.869700	-11.652000	21.628498	0.000923	20.778165
100.011350	-2.999700	3.870000	-11.608000	21.646922	0.000923	20.773369
101.006477	-2.980800	3.870300	-11.536000	21.661808	0.000922	20.779257
102.019541	-2.999300	3.867700	-11.599000	21.643556	0.000921	20.772371
103.015401	-3.010300	3.867400	-11.641000	21.659340	0.000921	20.794805
104.015182	-3.013000	3.867300	-11.651000	21.647964	0.000923	20.790059
105.025759	-2.984600	3.868400	-11.544000	21.661824	0.000922	20.776902
106.013695	-2.993700	3.869400	-11.581000	21.694062	0.000923	20.805846
107.018392	-2.985400	3.868600	-11.548000	21.682765	0.000921	20.787428
108.012896	-2.997400	3.869400	-11.597000	21.700365	0.000922	20.790343
109.010435	-3.000900	3.867500	-11.604000	21.725722	0.000924	20.798651
110.030174	-2.998800	3.866600	-11.594000	21.714525	0.000924	20.790763
111.016360	-2.995800	3.867800	-11.586000	21.710977	0.000925	20.781997
112.016582	-2.980900	3.867200	-11.526000	21.719934	0.000923	20.793806
113.016997	-2.979800	3.867700	-11.524000	21.713569	0.000923	20.798341
114.014273	-2.975200	3.867000	-11.503000	21.744833	0.000924	20.802604
115.022447	-3.004700	3.866300	-11.615000	21.766774	0.000924	20.801804
116.015498	-2.995600	3.865600	-11.579000	21.746501	0.000923	20.806170
117.015093	-2.975900	3.867100	-11.507000	21.757596	0.000922	20.800678
118.020069	-2.988200	3.867100	-11.552000	21.787462	0.000925	20.806388
119.020811	-3.003100	3.866900	-11.611000	21.771380	0.000924	20.797878
120.021307	-3.003500	3.863800	-11.603000	21.783594	0.000924	20.806310
121.019238	-2.996100	3.865300	-11.579000	21.762048	0.000922	20.803238
122.019732	-2.999200	3.864600	-11.589000	21.794614	0.000924	20.794580
123.019037	-3.011400	3.864700	-11.636000	21.798853	0.000924	20.808780
124.021428	-2.992500	3.863900	-11.561000	21.803936	0.000924	20.794901
125.015967	-2.992800	3.865100	-11.567000	21.806803	0.000924	20.806780
126.021365	-3.024500	3.865000	-11.688000	21.826247	0.000925	20.805378
127.020231	-2.999000	3.863500	-11.585000	21.823083	0.000925	20.804108
128.019107	-2.987300	3.864100	-11.542000	21.856066	0.000925	20.825741
129.018084	-2.998700	3.863300	-11.584000	21.844030	0.000924	20.825074
130.024892	-3.013300	3.864000	-11.642000	21.848116	0.000926	20.823000
131.019688	-2.986100	3.862700	-11.533000	21.853278	0.000924	20.840967
132.020816	-3.001000	3.862300	-11.590000	21.841608	0.000924	20.816485
133.026176	-3.019900	3.862600	-11.664000	21.862353	0.000926	20.833930
134.020184	-2.982000	3.863100	-11.519000	21.868037	0.000925	20.812593
135.026309	-3.021600	3.861300	-11.666000	21.854353	0.000924	20.836354
136.017618	-2.993900	3.863300	-11.565000	21.902173	0.000927	20.824002
137.021354	-3.000400	3.862900	-11.590000	21.894796	0.000925	20.824204
138.023365	-3.029000	3.861800	-11.696000	21.880255	0.000927	20.820555
139.028834	-2.991000	3.861800	-11.549000	21.908306	0.000928	20.838201
140.019569	-3.000600	3.860800	-11.584000	21.903022	0.000929	20.848084
141.029173	-2.975200	3.860600	-11.485000	21.921294	0.000928	20.834132
142.020684	-2.999400	3.859800	-11.576000	21.922596	0.000928	20.833064
143.020894	-3.003800	3.860500	-11.595000	21.911375	0.000929	20.839850
144.017644	-2.998900	3.860500	-11.576000	21.907339	0.000929	20.837707
145.015696	-3.011200	3.859900	-11.620000	21.937177	0.000928	20.831538
146.020512	-2.989100	3.860500	-11.538000	21.955754	0.000930	20.834487
147.017731	-2.985400	3.858900	-11.519000	21.958068	0.000928	20.832062
148.021508	-3.010300	3.859500	-11.617000	21.946024	0.000927	20.837075
149.024328	-2.999000	3.858400	-11.570000	21.982106	0.000932	20.829098
150.020141	-3.009900	3.859900	-11.616000	21.975199	0.000928	20.859640
151.026053	-2.994300	3.860200	-11.558000	21.971129	0.000930	20.829015
152.022170	-2.978200	3.860100	-11.495000	21.994817	0.000930	20.849407
153.027682	-3.014700	3.858100	-11.630000	21.980331	0.000930	20.840122
154.037577	-2.986400	3.860000	-11.526000	22.003989	0.000931	20.832986
155.026047	-2.982300	3.859700	-11.510000	22.006506	0.000930	20.835031
156.028680	-3.020100	3.857300	-11.648000	22.009673	0.000933	20.825874
157.029757	-3.004600	3.856800	-11.587000	22.016526	0.000933	20.859285
158.028615	-3.004200	3.857900	-11.590000	22.025723	0.000933	20.863276
159.042855	-3.011200	3.856600	-11.612000	22.016852	0.000933	20.847758
160.033922	-2.996200	3.857300	-11.556000	22.037441	0.000935	20.854618
161.030951	-2.992600	3.856500	-11.539000	22.062021	0.000933	20.833233
162.023945	-2.993000	3.858000	-11.546000	22.068149	0.000935	20.837471
163.027562	-2.990000	3.856300	-11.530000	22.076052	0.000935	20.851547
164.026824	-3.002200	3.858100	-11.582000	22.070394	0.000935	20.873381
165.023861	-3.008500	3.856000	-11.599000	22.076023	0.000936	20.860526
166.024181	-3.002500	3.857800	-11.582000	22.088120	0.000934	20.860308
167.031782	-2.990100	3.855600	-11.528000	22.099083	0.000935	20.850895
168.035102	-3.015100	3.855200	-11.623000	22.101945	0.000935	20.845700
169.031592	-2.977400	3.856500	-11.481000	22.099729	0.000934	20.863870
170.031486	-3.010900	3.856900	-11.612000	22.124283	0.000937	20.867589
171.021252	-3.010400	3.855400	-11.606000	22.126577	0.000936	20.845230
172.021853	-3.008700	3.854300	-11.594000	22.142403	0.000937	20.846376
173.028349	-3.024200	3.854400	-11.655000	22.148408	0.000936	20.849543
174.030730	-2.993800	3.854000	-11.538000	22.145471	0.000937	20.866043
175.026006	-3.008400	3.853600	-11.591000	22.167281	0.000937	20.867964
176.023166	-2.994900	3.853700	-11.541000	22.161273	0.000940	20.854362
177.024656	-3.004200	3.853000	-11.575000	22.177997	0.000937	20.866364
178.026247	-3.015300	3.853000	-11.617000	22.207486	0.000938	20.870759
179.028931	-3.001300	3.853100	-11.562000	22.171795	0.000937	20.861578
180.028250	-3.013200	3.852800	-11.609000	22.179447	0.000937	20.874927
181.029745	-3.016400	3.852600	-11.619000	22.194581	0.000940	20.862106
182.028818	-2.989000	3.853400	-11.517000	22.182642	0.000939	20.861058
183.034607	-3.009700	3.852200	-11.593000	22.189569	0.000938	20.871786
184.028930	-3.010400	3.852300	-11.595000	22.170078	0.000939	20.856065
185.025649	-2.973500	3.854400	-11.459000	22.183067	0.000942	20.861957
186.039013	-3.001700	3.852300	-11.562000	22.188704	0.000940	20.873291
187.030290	-2.999700	3.852900	-11.556000	22.195088	0.000941	20.875889
188.030861	-3.002700	3.851600	-11.563000	22.214002	0.000941	20.876334
189.029797	-3.002300	3.852100	-11.564000	22.224799	0.000941	20.901841
190.030034	-2.962900	3.852200	-11.413000	22.222332	0.000940	20.878985
191.042632	-2.999500	3.851000	-11.550000	22.234501	0.000941	20.877418
192.031599	-2.975200	3.852200	-11.459000	22.255066	0.000942	20.905119
193.031527	-2.990000	3.851700	-11.515000	22.250153	0.000944	20.852315
194.031165	-2.974200	3.851700	-11.455000	22.269701	0.000944	20.883265
195.040595	-3.001200	3.852100	-11.559000	22.296347	0.000944	20.890505
196.031612	-2.981100	3.852200	-11.483000	22.290636	0.000945	20.883838
197.042361	-3.006300	3.848800	-11.569000	22.313818	0.000945	20.890929
198.040985	-2.999500	3.850700	-11.548000	22.315362	0.000945	20.874933
199.044127	-3.005300	3.849700	-11.569000	22.292119	0.000946	20.872522
200.031708	-2.988100	3.850500	-11.505000	22.326431	0.000946	20.890282
201.039777	-3.004300	3.849200	-11.563000	22.316816	0.000949	20.867380
202.038538	-3.025000	3.848100	-11.639000	22.298753	0.000945	20.890542
203.030607	-2.983200	3.849500	-11.483000	22.317043	0.000946	20.848642
204.039805	-2.978200	3.849200	-11.463000	22.311888	0.000948	20.879988
205.030805	-2.994600	3.848000	-11.522000	22.307725	0.000948	20.882932
206.033961	-3.014400	3.848100	-11.598000	22.323706	0.000950	20.864322
207.030809	-2.998000	3.849100	-11.538000	22.348378	0.000949	20.865320
208.034044	-3.011000	3.847400	-11.584000	22.326699	0.000947	20.867793
209.031229	-2.994800	3.847700	-11.522000	22.357626	0.000949	20.888329
210.032142	-3.004600	3.847600	-11.559000	22.364778	0.000952	20.875577
211.050756	-3.011400	3.845900	-11.580000	22.372511	0.000949	20.854873
212.032102	-3.028000	3.847300	-11.649000	22.383377	0.000949	20.855796
213.054465	-3.018300	3.845800	-11.607000	22.376048	0.000953	20.889232
214.036245	-3.031900	3.844300	-11.654000	22.378696	0.000953	20.873393
215.035407	-2.968400	3.847700	-11.419000	22.395741	0.000951	20.863910
216.049948	-2.996100	3.846800	-11.524000	22.383184	0.000953	20.871723
217.036349	-3.006700	3.846600	-11.565000	22.411672	0.000953	20.867535
218.032878	-3.005200	3.844700	-11.552000	22.383163	0.000953	20.833772
219.036925	-2.990800	3.847300	-11.504000	22.415385	0.000954	20.860823
220.042810	-2.997300	3.847100	-11.530000	22.402902	0.000955	20.852589
221.034386	-3.000200	3.843900	-11.530000	22.415192	0.000955	20.850198
222.035141	-3.007200	3.845800	-11.565000	22.432559	0.000954	20.849097
223.035670	-3.017100	3.845400	-11.600000	22.428973	0.000957	20.858308
224.038645	-3.022400	3.844500	-11.619000	22.434107	0.000955	20.860131
225.035838	-3.022600	3.844700	-11.620000	22.435182	0.000955	20.848405
226.050920	-2.985100	3.845200	-11.476000	22.421974	0.000958	20.829963
227.047733	-3.006300	3.842500	-11.550000	22.435882	0.000957	20.834882
228.033826	-2.999300	3.844100	-11.529000	22.443605	0.000956	20.839298
229.036068	-3.001700	3.843800	-11.537000	22.437385	0.000959	20.840181
230.046951	-2.999300	3.843900	-11.528000	22.445789	0.000958	20.860923
231.069360	-3.025400	3.842600	-11.625000	22.459396	0.000957	20.836619
232.038909	-2.998700	3.844400	-11.527000	22.457753	0.000958	20.835922
233.038011	-3.004600	3.843500	-11.546000	22.453117	0.000962	20.843133
234.037810	-3.010700	3.842700	-11.568000	22.453896	0.000961	20.836327
235.041246	-3.002700	3.842000	-11.535000	22.454053	0.000961	20.847389
236.035024	-3.015100	3.841600	-11.582000	22.454378	0.000961	20.857672
237.040727	-2.993100	3.841700	-11.497000	22.480122	0.000962	20.827504
238.055988	-2.990900	3.843100	-11.493000	22.492185	0.000961	20.842430
239.042569	-3.004600	3.842200	-11.543000	22.498645	0.000962	20.826140
240.042806	-2.990100	3.843200	-11.491000	22.497229	0.000963	20.837998
241.046770	-3.019500	3.840300	-11.594000	22.517913	0.000964	20.836428
242.042942	-2.977200	3.841900	-11.437000	22.526361	0.000963	20.838724
243.041745	-3.023100	3.838900	-11.604000	22.516181	0.000964	20.823313
244.042154	-3.018600	3.840500	-11.592000	22.532278	0.000965	20.828529
245.048674	-2.990000	3.840400	-11.481000	22.528219	0.000964	20.836792
246.043919	-3.023500	3.838700	-11.605000	22.523740	0.000967	20.820453
247.048857	-3.002100	3.839600	-11.526000	22.544699	0.000967	20.827693
248.046124	-3.004700	3.839900	-11.537000	22.547470	0.000968	20.828572
249.051075	-3.005900	3.838900	-11.539000	22.554975	0.000967	20.819493
250.042294	-3.010000	3.838500	-11.553000	22.565449	0.000967	20.829509
251.052007	-3.004600	3.839200	-11.533000	22.565503	0.000965	20.845683
252.045311	-3.006600	3.839000	-11.541000	22.580060	0.000967	20.803840
253.049772	-3.011600	3.837100	-11.555000	22.577697	0.000969	20.821388
254.056806	-3.008300	3.837600	-11.543000	22.605974	0.000967	20.804190
255.045201	-3.028800	3.836800	-11.620000	22.597713	0.000969	20.806348
256.044621	-2.987000	3.837900	-11.463000	22.617024	0.000969	20.802456
257.047832	-3.011100	3.837200	-11.553000	22.599414	0.000968	20.796671
258.053700	-2.999700	3.837100	-11.508000	22.615346	0.000970	20.824956
259.050871	-3.012800	3.835700	-11.554000	22.601741	0.000970	20.815123
260.046834	-3.002500	3.837800	-11.521000	22.630800	0.000972	20.812934
261.047729	-2.973600	3.837500	-11.410000	22.600009	0.000971	20.802957
262.050226	-3.000300	3.836400	-11.509000	22.625083	0.000973	20.809579
263.059497	-3.007800	3.836900	-11.539000	22.596832	0.000971	20.788870
264.053038	-3.017500	3.835100	-11.570000	22.612488	0.000974	20.791748
265.054546	-2.990000	3.836400	-11.469000	22.614081	0.000974	20.808991
266.047375	-2.997200	3.836600	-11.497000	22.645334	0.000975	20.811371
267.045415	-2.998200	3.836100	-11.500000	22.617206	0.000975	20.810699
268.051551	-3.015200	3.834500	-11.561000	22.628198	0.000976	20.794681
269.046219	-3.003200	3.836400	-11.518000	22.647365	0.000976	20.777843
270.051811	-2.993900	3.835600	-11.482000	22.605286	0.000978	20.776949
271.050787	-3.014600	3.834900	-11.560000	22.605291	0.000978	20.769841
272.047811	-3.012700	3.834400	-11.551000	22.594156	0.000977	20.798518
273.051362	-3.010400	3.834800	-11.543000	22.603732	0.000977	20.812850
274.058008	-3.006400	3.832600	-11.521000	22.619729	0.000979	20.788095
275.053959	-2.995000	3.833400	-11.481000	22.625735	0.000978	20.804543
276.057384	-3.008000	3.833200	-11.530000	22.629152	0.000980	20.779042
277.053958	-3.012400	3.834100	-11.549000	22.636484	0.000980	20.796343
278.054157	-2.998900	3.833300	-11.495000	22.628309	0.000980	20.797163
279.059612	-3.004100	3.832100	-11.511000	22.641568	0.000979	20.797642
280.062461	-2.968700	3.834800	-11.383000	22.652239	0.000983	20.785570
281.065424	-2.985400	3.834400	-11.447000	22.636770	0.000982	20.792361
282.053222	-2.991000	3.832600	-11.462000	22.634905	0.000982	20.788123
283.052633	-3.020200	3.832500	-11.573000	22.666124	0.000982	20.800901
284.056213	-3.009000	3.831400	-11.527000	22.661568	0.000982	20.779267
285.057966	-2.984900	3.832600	-11.437000	22.639323	0.000983	20.785910
286.058785	-3.009100	3.831900	-11.529000	22.640566	0.000985	20.785258
287.055377	-3.013100	3.831900	-11.545000	22.646601	0.000984	20.780872
288.053624	-2.976400	3.831600	-11.403000	22.652459	0.000985	20.792903
289.052808	-2.981100	3.830000	-11.417000	22.660610	0.000985	20.794429
290.059070	-2.980600	3.830900	-11.418000	22.676680	0.000987	20.788241
291.059185	-3.008600	3.830000	-11.522000	22.676182	0.000986	20.776836
292.053611	-2.994000	3.830400	-11.467000	22.659323	0.000987	20.789347
293.052221	-3.016500	3.829400	-11.550000	22.679678	0.000986	20.781286
294.056474	-3.018500	3.829400	-11.557000	22.661522	0.000988	20.765944
295.054140	-2.994900	3.830700	-11.472000	22.680531	0.000987	20.778347
296.055692	-3.000500	3.829900	-11.491000	22.657937	0.000988	20.782268
297.055560	-3.041300	3.828900	-11.642000	22.685792	0.000988	20.768443
298.052910	-3.017000	3.829300	-11.552000	22.687670	0.000989	20.766057
299.060469	-2.980300	3.830000	-11.414000	22.708696	0.000990	20.785221
300.056190	-3.005200	3.828300	-11.504000	22.740469	0.000992	20.763469
301.075109	-3.000800	3.829200	-11.490000	22.748047	0.000992	20.759680
302.062816	-2.973900	3.828300	-11.384000	22.783404	0.000990	20.767123
303.056441	-2.994200	3.828900	-11.464000	22.793147	0.000991	20.783996
304.055418	-2.977800	3.828800	-11.400000	22.795769	0.000993	20.791839
305.069394	-3.009900	3.828200	-11.520000	22.794552	0.000991	20.784929
306.067103	-3.013500	3.826500	-11.530000	22.826042	0.000994	20.755782
307.056705	-3.018500	3.825600	-11.546000	22.811625	0.000994	20.771212
308.063359	-2.989100	3.826600	-11.437000	22.796311	0.000995	20.776734
309.065958	-3.000600	3.825600	-11.478000	22.766269	0.000994	20.771770
310.062434	-2.988800	3.825800	-11.434000	22.775321	0.000994	20.771829
311.064010	-3.017600	3.824800	-11.540000	22.777890	0.000995	20.764444
312.062624	-3.031500	3.824800	-11.593000	22.761678	0.000996	20.763377
313.068135	-2.997100	3.825200	-11.464000	22.765918	0.000996	20.775212
314.064983	-2.996000	3.824600	-11.457000	22.762482	0.000997	20.760389
315.064534	-2.995200	3.826200	-11.459000	22.739347	0.000998	20.777992
316.076924	-3.008200	3.823500	-11.501000	22.777761	0.000996	20.760522
317.061593	-2.966500	3.826200	-11.350000	22.789875	0.000996	20.785460
318.060646	-2.990700	3.825300	-11.438000	22.783929	0.001000	20.794202
319.068929	-2.990600	3.824100	-11.436000	22.785901	0.000999	20.785746
320.059013	-2.997900	3.824400	-11.465000	22.783618	0.000999	20.771131
321.066935	-3.017500	3.823600	-11.535000	22.804868	0.001001	20.764443
322.070469	-2.998400	3.822700	-11.460000	22.801811	0.001001	20.765174
323.063520	-3.010700	3.823500	-11.509000	22.814073	0.001002	20.756120
324.080359	-3.014600	3.823400	-11.525000	22.843600	0.001003	20.759147
325.065966	-3.006800	3.822400	-11.492000	22.825940	0.001002	20.752835
326.068834	-2.992100	3.823100	-11.439000	22.808802	0.001001	20.737088
327.066236	-2.999600	3.822600	-11.466000	22.843837	0.001003	20.763652
328.066685	-2.978200	3.823400	-11.386000	22.833099	0.001003	20.764274
329.066798	-3.017100	3.821000	-11.526000	22.832783	0.001003	20.758268
330.072402	-3.030700	3.820900	-11.579000	22.843669	0.001005	20.749259
331.077231	-3.023600	3.820000	-11.547000	22.859219	0.001004	20.758199
332.064866	-2.993900	3.821300	-11.439000	22.841707	0.001003	20.752034
333.071009	-2.987600	3.821800	-11.416000	22.862537	0.001008	20.742556
334.063194	-3.004200	3.820300	-11.476000	22.862162	0.001006	20.754983
335.072147	-3.022700	3.818800	-11.542000	22.894498	0.001007	20.759878
336.065371	-3.004300	3.820900	-11.477000	22.892758	0.001007	20.746754
337.072806	-2.981800	3.820300	-11.391000	22.888203	0.001008	20.766847
338.063498	-2.975000	3.819800	-11.363000	22.873905	0.001009	20.754420
339.066467	-3.000800	3.818800	-11.457000	22.892290	0.001007	20.761932
340.067790	-3.001400	3.819300	-11.463000	22.903298	0.001009	20.760159
341.066537	-3.010500	3.818700	-11.495000	22.921781	0.001009	20.735527
342.068829	-3.014400	3.817900	-11.508000	22.916629	0.001011	20.735107
343.069212	-3.008500	3.817700	-11.484000	22.910723	0.001011	20.735354
344.069474	-2.988400	3.818300	-11.410000	22.917373	0.001009	20.763355
345.074378	-2.973400	3.819000	-11.354000	22.937601	0.001011	20.738100
346.066648	-3.005700	3.817800	-11.474000	22.967687	0.001013	20.751649
347.076447	-2.988700	3.818000	-11.410000	22.957073	0.001013	20.753817
348.069347	-3.003900	3.817200	-11.465000	22.969955	0.001011	20.759611
349.069149	-2.998200	3.818100	-11.446000	22.977773	0.001013	20.754168
350.076622	-2.996700	3.817400	-11.439000	22.989131	0.001013	20.761755
351.072405	-2.995200	3.818600	-11.437000	22.991650	0.001016	20.755269
352.074572	-2.989300	3.818000	-11.413000	22.975634	0.001017	20.735902
353.068683	-3.005800	3.816600	-11.470000	22.969082	0.001018	20.749253
354.073889	-2.984300	3.816400	-11.387000	22.974416	0.001018	20.723776
355.072657	-3.021800	3.815600	-11.529000	22.984576	0.001017	20.753397
356.066389	-2.983700	3.816800	-11.387000	23.003609	0.001017	20.711299
357.070116	-2.997800	3.814300	-11.432000	22.998527	0.001018	20.743193
358.068666	-3.008400	3.814000	-11.472000	22.971848	0.001019	20.734006
359.070677	-2.998900	3.815100	-11.440000	22.962082	0.001019	20.754568
360.081965	-2.981300	3.814400	-11.371000	22.958325	0.001018	20.756020
361.080180	-2.996800	3.814000	-11.429000	22.977157	0.001017	20.740748
362.070278	-3.011500	3.813900	-11.483000	23.009362	0.001018	20.746937
363.074175	-2.998600	3.812400	-11.431000	23.004531	0.001020	20.755847
364.076427	-2.975800	3.813800	-11.348000	23.015465	0.001020	20.738826
365.075965	-3.023600	3.811700	-11.524000	23.010160	0.001021	20.727821
366.087931	-2.994100	3.813500	-11.416000	23.039032	0.001020	20.745845
367.075228	-2.983100	3.812400	-11.372000	23.045608	0.001020	20.738683
368.078823	-2.997600	3.812800	-11.428000	23.045761	0.001020	20.722240
369.083724	-3.017600	3.810300	-11.497000	23.045085	0.001022	20.738159
370.085599	-3.037700	3.811100	-11.575000	23.019684	0.001020	20.739735
371.073164	-3.022000	3.810100	-11.513000	23.022528	0.001020	20.750172
372.083004	-2.987600	3.811500	-11.384000	23.057547	0.001021	20.720298
373.080819	-3.011400	3.811000	-11.476000	23.076879	0.001020	20.750577
374.085960	-3.010100	3.810900	-11.470000	23.055782	0.001020	20.730859
375.083704	-3.024200	3.811000	-11.523000	23.085471	0.001020	20.741641
376.078857	-2.997300	3.811400	-11.422000	23.097902	0.001022	20.719483
377.078191	-2.993300	3.810200	-11.404000	23.076490	0.001021	20.726003
378.078635	-3.014500	3.808600	-11.480000	23.052657	0.001021	20.720614
379.084972	-2.998000	3.808600	-11.417000	23.079038	0.001023	20.729979
380.091091	-2.993900	3.809300	-11.403000	23.115849	0.001023	20.731777
381.077849	-3.000000	3.809500	-11.428000	23.109032	0.001024	20.728740
382.084094	-2.998800	3.807900	-11.418000	23.110249	0.001023	20.719528
383.077198	-3.006400	3.807900	-11.447000	23.146596	0.001026	20.716594
384.085837	-3.008600	3.807000	-11.451000	23.171102	0.001026	20.744471
385.078210	-2.976000	3.808200	-11.332000	23.168746	0.001027	20.734049
386.079174	-2.984100	3.809300	-11.367000	23.201271	0.001024	20.725391
387.078900	-3.000300	3.808200	-11.423000	23.204184	0.001025	20.729732
388.078016	-3.014000	3.806700	-11.472000	23.227274	0.001026	20.728216
389.085245	-3.012500	3.807000	-11.467000	23.233750	0.001028	20.702936
390.079050	-2.966300	3.806900	-11.291000	23.239359	0.001027	20.718041
391.098089	-3.005200	3.805300	-11.434000	23.248230	0.001026	20.723138
392.085858	-2.996800	3.806200	-11.405000	23.243474	0.001028	20.725010
393.079338	-3.009200	3.805000	-11.449000	23.249231	0.001030	20.713709
394.084242	-3.036700	3.804100	-11.551000	23.244258	0.001029	20.722002
395.098615	-3.001300	3.804700	-11.417000	23.266096	0.001028	20.737724
396.082619	-3.019300	3.804100	-11.484000	23.255914	0.001030	20.716613
397.086380	-2.999800	3.804500	-11.411000	23.259625	0.001030	20.697572
398.082067	-2.992600	3.804600	-11.385000	23.222799	0.001029	20.715196
399.093484	-2.998800	3.803900	-11.406000	23.230024	0.001032	20.721489
400.080995	-2.999500	3.803100	-11.406000	23.240335	0.001030	20.727554
401.092100	-2.972700	3.804900	-11.309000	23.217880	0.001032	20.712163
402.095198	-2.992400	3.804600	-11.384000	23.222563	0.001031	20.722071
403.083111	-3.001800	3.803300	-11.416000	23.230981	0.001033	20.701583
404.088307	-2.994500	3.803900	-11.389000	23.194597	0.001033	20.696416
405.086033	-3.023600	3.801700	-11.493000	23.211187	0.001034	20.701187
406.092842	-2.990300	3.803400	-11.372000	23.229995	0.001032	20.703440
407.082790	-3.027300	3.801700	-11.507000	23.222701	0.001033	20.710355
408.085463	-3.011600	3.801100	-11.445000	23.250320	0.001034	20.703894
409.091787	-2.998600	3.802700	-11.401000	23.254430	0.001035	20.692840
410.084729	-2.985600	3.803700	-11.355000	23.243598	0.001036	20.696209
411.092097	-3.002500	3.802700	-11.416000	23.239768	0.001036	20.700906
412.088442	-2.985400	3.802400	-11.350000	23.220000	0.001035	20.719029
413.086996	-2.978900	3.801500	-11.324000	23.251473	0.001037	20.696515
414.090378	-3.005500	3.799900	-11.420000	23.235436	0.001036	20.702729
415.086041	-3.011500	3.800100	-11.443000	23.261907	0.001036	20.713610
416.087810	-3.009200	3.798000	-11.428000	23.225234	0.001036	20.704833
417.087912	-3.019900	3.798600	-11.471000	23.226008	0.001036	20.696125
418.101441	-3.002000	3.798700	-11.403000	23.231183	0.001037	20.692302
419.099711	-3.013100	3.799000	-11.446000	23.257314	0.001038	20.704265
420.092803	-3.010200	3.797500	-11.430000	23.260995	0.001038	20.698945
421.102531	-3.029100	3.797400	-11.502000	23.295065	0.001039	20.696579
422.086830	-2.968600	3.800700	-11.282000	23.307440	0.001039	20.686695
423.088518	-3.016300	3.797700	-11.453000	23.307440	0.001038	20.711827
424.089393	-3.020000	3.796600	-11.464000	23.296859	0.001041	20.723035
425.090829	-3.006900	3.796300	-11.414000	23.282991	0.001040	20.699178
426.093670	-2.972800	3.797700	-11.289000	23.311027	0.001040	20.699775
427.095644	-2.986100	3.798000	-11.340000	23.341710	0.001040	20.684058
428.106188	-3.006600	3.797100	-11.415000	23.328616	0.001042	20.697488
429.100855	-2.993200	3.796300	-11.362000	23.346766	0.001042	20.705248
430.094244	-3.002100	3.796900	-11.397000	23.336136	0.001043	20.708345
431.093120	-3.003700	3.794800	-11.397000	23.348491	0.001042	20.680896
432.097407	-3.009900	3.795000	-11.421000	23.349309	0.001044	20.702581
433.095363	-3.017700	3.793500	-11.446000	23.371968	0.001042	20.702057
434.094983	-2.997500	3.795300	-11.375000	23.366370	0.001042	20.704033
435.103339	-3.019800	3.793900	-11.456000	23.350482	0.001043	20.700437
436.095104	-2.992500	3.796600	-11.361000	23.362408	0.001042	20.674455
437.096125	-2.999400	3.793800	-11.378000	23.371672	0.001043	20.692751
438.093164	-2.995400	3.794500	-11.365000	23.354972	0.001044	20.721534
439.092009	-2.994200	3.793100	-11.356000	23.396701	0.001045	20.708355
440.107098	-2.999800	3.792200	-11.374000	23.357391	0.001045	20.695508
441.097201	-2.991900	3.793900	-11.350000	23.399520	0.001043	20.707387
442.094025	-3.004400	3.793000	-11.394000	23.411273	0.001044	20.703046
443.094237	-3.001500	3.790800	-11.377000	23.380804	0.001044	20.710914
444.101284	-2.995100	3.791700	-11.355000	23.362078	0.001045	20.695938
445.099810	-2.983500	3.791400	-11.311000	23.357672	0.001046	20.708593
446.101790	-3.002100	3.791000	-11.380000	23.357628	0.001046	20.699539
447.099105	-2.989400	3.791100	-11.331000	23.363680	0.001045	20.704182
448.095464	-2.995300	3.790600	-11.351000	23.367267	0.001048	20.703036
449.107786	-2.996200	3.790000	-11.355000	23.365498	0.001046	20.698418
450.099925	-2.998700	3.789300	-11.362000	23.382731	0.001047	20.706681
451.099722	-2.974400	3.790600	-11.274000	23.373196	0.001047	20.708030
452.100852	-2.987200	3.791200	-11.323000	23.391995	0.001050	20.720235
453.100431	-3.004000	3.790200	-11.384000	23.410524	0.001049	20.716995
454.102553	-3.003500	3.789000	-11.379000	23.395834	0.001047	20.728825
455.097564	-3.008500	3.789300	-11.398000	23.440332	0.001049	20.708939
456.113066	-2.985300	3.789300	-11.312000	23.417497	0.001048	20.709285
457.110530	-3.012100	3.787900	-11.408000	23.454819	0.001050	20.701174
458.102399	-2.985200	3.787900	-11.307000	23.454346	0.001053	20.708287
459.103369	-3.011300	3.788700	-11.408000	23.489454	0.001050	20.693217
460.104779	-3.001500	3.786700	-11.363000	23.491297	0.001050	20.683683
461.107873	-2.980700	3.786800	-11.286000	23.491464	0.001049	20.712303
462.102857	-2.982600	3.786800	-11.293000	23.493958	0.001050	20.696783
463.104469	-2.989900	3.787200	-11.321000	23.507054	0.001048	20.710860
464.107386	-3.000000	3.786800	-11.360000	23.484601	0.001051	20.698309
465.105148	-3.000200	3.786100	-11.358000	23.479796	0.001051	20.696338
466.104443	-2.977200	3.788300	-11.277000	23.454149	0.001050	20.695760
467.108404	-3.008700	3.785900	-11.390000	23.458835	0.001050	20.697613
468.118287	-3.008500	3.786300	-11.390000	23.456445	0.001050	20.717504
469.105531	-2.990800	3.785800	-11.322000	23.481767	0.001050	20.706850
470.107292	-3.012200	3.784600	-11.399000	23.474347	0.001051	20.705575
471.110692	-2.989500	3.784300	-11.312000	23.507188	0.001049	20.708623
472.111913	-3.021500	3.783000	-11.429000	23.509577	0.001050	20.712441
473.117426	-2.994400	3.784000	-11.330000	23.517821	0.001051	20.704108
474.111905	-3.006300	3.783900	-11.375000	23.542166	0.001049	20.715711
475.111377	-2.976100	3.783700	-11.260000	23.536145	0.001051	20.720107
476.107666	-2.988700	3.783800	-11.307000	23.527538	0.001050	20.721910
477.112940	-3.002400	3.781400	-11.352000	23.538116	0.001052	20.739154
478.110707	-3.012300	3.781600	-11.390000	23.518230	0.001052	20.727280
479.117744	-3.010900	3.782300	-11.387000	23.496274	0.001053	20.697208
480.116645	-2.983200	3.782600	-11.282000	23.501127	0.001054	20.701125
481.110026	-2.988200	3.780500	-11.296000	23.522340	0.001052	20.720019
482.111748	-2.995400	3.779800	-11.321000	23.526331	0.001054	20.712165
483.122409	-3.020600	3.780300	-11.418000	23.557022	0.001053	20.706421
484.114030	-3.014700	3.779900	-11.394000	23.580302	0.001053	20.733553
485.123719	-2.987600	3.779600	-11.290000	23.597636	0.001053	20.714892
486.109974	-3.004700	3.778900	-11.353000	23.585535	0.001053	20.708925
487.115057	-2.992600	3.779300	-11.309000	23.594177	0.001053	20.721857
488.116156	-2.975100	3.780100	-11.245000	23.592659	0.001055	20.724603
489.116537	-2.980500	3.780900	-11.268000	23.581584	0.001053	20.729147
490.121340	-2.980700	3.779500	-11.264000	23.567098	0.001054	20.725058
491.115447	-2.983900	3.779800	-11.278000	23.531175	0.001055	20.723660
492.116869	-2.998700	3.778900	-11.331000	23.504814	0.001056	20.716676
493.112836	-3.000700	3.777800	-11.335000	23.506129	0.001053	20.726055
494.118885	-2.997200	3.777600	-11.321000	23.494831	0.001054	20.709988
495.099020	-2.995100	3.777600	-11.313000	23.533747	0.001055	20.726238
496.099429	-2.989100	3.777800	-11.291000	23.554264	0.001054	20.717881
497.098777	-2.999700	3.776500	-11.328000	23.559989	0.001056	20.716034
498.099465	-3.003600	3.777500	-11.345000	23.576771	0.001055	20.720055
499.100209	-3.006000	3.775500	-11.348000	23.572844	0.001055	20.722282
500.098030	-2.996400	3.775800	-11.312000	23.599159	0.001056	20.735861
501.099432	-2.988900	3.775700	-11.284000	23.635302	0.001056	20.724678
502.099639	-3.013200	3.775500	-11.374000	23.615891	0.001057	20.715175
503.100055	-3.015500	3.776400	-11.386000	23.606160	0.001056	20.732448
504.102493	-3.014300	3.773800	-11.373000	23.593966	0.001056	20.728758
505.117247	-2.996700	3.775500	-11.313000	23.609225	0.001057	20.723666
506.100453	-3.004600	3.772900	-11.335000	23.617418	0.001059	20.740890
507.101599	-3.000900	3.773400	-11.323000	23.642166	0.001057	20.733930
508.122828	-2.993400	3.774700	-11.298000	23.631563	0.001058	20.703859
509.102257	-3.008700	3.772900	-11.351000	23.623474	0.001059	20.723251
510.105712	-3.001000	3.774000	-11.325000	23.611403	0.001060	20.727746
511.126137	-2.993200	3.772800	-11.292000	23.654616	0.001060	20.734083
512.119808	-3.015000	3.771300	-11.369000	23.631716	0.001059	20.740999
513.104161	-2.996700	3.771900	-11.302000	23.628110	0.001058	20.737383
514.103156	-3.001800	3.772100	-11.321000	23.670775	0.001058	20.731318
515.108138	-3.010800	3.771500	-11.354000	23.691161	0.001058	20.755076
516.104786	-2.999600	3.769800	-11.306000	23.709231	0.001058	20.751855
517.132559	-3.002400	3.771500	-11.321000	23.660794	0.001060	20.726526
518.128675	-2.977900	3.771400	-11.230000	23.654271	0.001059	20.745592
519.128328	-3.016600	3.770900	-11.374000	23.689737	0.001059	20.740845
520.104573	-2.988700	3.770600	-11.268000	23.699694	0.001059	20.721429
521.135122	-2.997500	3.769000	-11.296000	23.698526	0.001058	20.753451
522.125237	-2.975700	3.768700	-11.212000	23.719734	0.001059	20.735832
523.127818	-2.990800	3.768700	-11.270000	23.708280	0.001060	20.740944
524.137915	-3.013400	3.768000	-11.354000	23.711719	0.001059	20.737279
525.129047	-3.005600	3.768400	-11.325000	23.701314	0.001061	20.771420
526.124672	-2.993600	3.767500	-11.278000	23.683564	0.001060	20.762158
527.126067	-2.979000	3.768600	-11.226000	23.680510	0.001060	20.762416
528.123466	-2.993100	3.768100	-11.277000	23.705620	0.001058	20.740648
529.130491	-3.006100	3.766400	-11.320000	23.684638	0.001060	20.749959
530.125546	-3.019400	3.765700	-11.369000	23.696467	0.001061	20.754231
531.131032	-2.985700	3.767800	-11.248000	23.696492	0.001060	20.760420
532.123081	-2.984700	3.765800	-11.239000	23.692082	0.001062	20.763586
533.123717	-2.999300	3.765400	-11.293000	23.723498	0.001062	20.760470
534.115819	-3.003200	3.765800	-11.308000	23.731937	0.001060	20.767982
535.122023	-2.995800	3.766000	-11.282000	23.727730	0.001060	20.750961
536.132234	-2.988000	3.765500	-11.249000	23.732188	0.001064	20.771553
537.130305	-3.005200	3.763800	-11.310000	23.710803	0.001062	20.770501
538.126863	-2.990800	3.764400	-11.256000	23.757899	0.001061	20.780735
539.109020	-2.997300	3.763800	-11.280000	23.744509	0.001060	20.767785
540.128350	-3.004800	3.764300	-11.309000	23.772313	0.001060	20.774324
541.125990	-2.989200	3.764200	-11.251000	23.764322	0.001061	20.757778
542.145252	-3.016900	3.763000	-11.352000	23.765126	0.001061	20.756212
543.131489	-2.997500	3.762400	-11.277000	23.773559	0.001061	20.771781
544.112204	-3.002200	3.763200	-11.296000	23.808411	0.001061	20.754093
545.109886	-3.002800	3.762800	-11.298000	23.789766	0.001058	20.802255
546.109191	-3.028900	3.760100	-11.388000	23.813632	0.001061	20.768338
547.128017	-2.999800	3.760600	-11.280000	23.824164	0.001061	20.777476
548.133982	-3.036500	3.760100	-11.417000	23.840523	0.001060	20.778706
549.127035	-3.021500	3.760800	-11.361000	23.839750	0.001062	20.752800
550.142294	-2.991800	3.760500	-11.249000	23.856409	0.001060	20.774246
551.130786	-2.991000	3.761300	-11.249000	23.878028	0.001060	20.767474
552.126707	-3.018100	3.758900	-11.343000	23.889012	0.001061	20.758574
553.128662	-3.009400	3.759200	-11.312000	23.904341	0.001060	20.789592
554.143526	-2.994000	3.760700	-11.258000	23.905242	0.001061	20.774849
555.132348	-2.991200	3.760100	-11.246000	23.922565	0.001060	20.774676
556.136690	-2.983100	3.760200	-11.217000	23.872940	0.001061	20.768062
557.134505	-2.997800	3.759600	-11.268000	23.872270	0.001062	20.780667
558.130689	-2.992000	3.758800	-11.244000	23.831234	0.001062	20.764176
559.113107	-3.003700	3.758000	-11.286000	23.840293	0.001062	20.782742
560.113921	-3.008300	3.759200	-11.308000	23.844081	0.001062	20.773264
561.143342	-3.003100	3.758900	-11.287000	23.874216	0.001061	20.792576
562.134845	-3.026700	3.757300	-11.371000	23.869069	0.001061	20.768922
563.130010	-3.006900	3.758300	-11.300000	23.885122	0.001062	20.782174
564.137352	-3.009200	3.757900	-11.307000	23.888333	0.001061	20.772592
565.144345	-2.989200	3.757700	-11.232000	23.881093	0.001062	20.775289
566.135230	-2.995200	3.757400	-11.254000	23.905307	0.001062	20.782026
567.138221	-2.985900	3.755900	-11.213000	23.914666	0.001062	20.777186
568.133548	-2.987800	3.756500	-11.222000	23.905411	0.001060	20.778337
569.132965	-2.999700	3.755300	-11.264000	23.948119	0.001062	20.772800
570.133443	-3.008400	3.755600	-11.297000	23.942593	0.001062	20.776267
571.119194	-2.993300	3.755300	-11.239000	23.944760	0.001061	20.801674
572.117524	-2.991500	3.754800	-11.231000	23.931299	0.001061	20.776796
573.118011	-2.988700	3.754400	-11.220000	23.914430	0.001061	20.781217
574.119005	-3.001600	3.754100	-11.267000	23.898678	0.001061	20.785810
575.119593	-2.984400	3.754100	-11.203000	23.911396	0.001061	20.789554
576.117637	-3.014900	3.752400	-11.312000	23.918494	0.001060	20.785766
577.141937	-3.034500	3.752400	-11.385000	23.919410	0.001062	20.781943
578.139159	-3.005800	3.752200	-11.277000	23.904904	0.001061	20.797744
579.120008	-3.004300	3.753000	-11.274000	23.925335	0.001060	20.790730
580.143477	-2.979900	3.753100	-11.183000	23.912770	0.001061	20.793778
581.140239	-3.007300	3.751200	-11.280000	23.938279	0.001061	20.809400
582.133711	-2.991200	3.750300	-11.216000	23.939077	0.001060	20.805459
583.137309	-2.995100	3.751000	-11.233000	23.938487	0.001059	20.805340
584.135420	-2.998600	3.751000	-11.247000	23.961778	0.001061	20.805464
585.137061	-3.016300	3.750500	-11.311000	23.967723	0.001062	20.788192
586.140113	-3.000100	3.750300	-11.250000	23.978825	0.001063	20.798850
587.148273	-3.006000	3.750500	-11.274000	24.006997	0.001060	20.797705
588.141883	-3.003800	3.749800	-11.262000	23.984976	0.001062	20.792692
589.134507	-3.002900	3.749600	-11.258000	24.007273	0.001062	20.797981
590.138869	-3.019800	3.748500	-11.318000	23.998240	0.001061	20.805044
591.145817	-2.994000	3.749600	-11.225000	24.004914	0.001061	20.791823
592.141396	-3.005000	3.748000	-11.262000	24.006504	0.001061	20.806220
593.119727	-2.995300	3.747800	-11.225000	24.004820	0.001062	20.819230
594.141242	-2.990800	3.747500	-11.207000	24.001579	0.001064	20.805074
595.119710	-3.001400	3.746800	-11.244000	24.039458	0.001061	20.797542
596.124252	-3.031500	3.746200	-11.355000	24.041349	0.001061	20.791852
597.149907	-3.010100	3.747300	-11.278000	24.035479	0.001061	20.798293
598.123009	-2.998600	3.747000	-11.235000	24.030972	0.001061	20.798989
599.121274	-3.018200	3.746000	-11.304000	24.030830	0.001061	20.810226
600.141479	-2.988400	3.746800	-11.196000	24.035730	0.001061	20.797597
601.123166	-2.983200	3.746600	-11.177000	24.023142	0.001062	20.815318
602.127274	-2.970700	3.746800	-11.129000	24.009332	0.001061	20.806685
603.122490	-2.991500	3.746800	-11.207000	24.028190	0.001061	20.821329
604.140314	-2.997000	3.743800	-11.219000	24.029835	0.001061	20.809229
605.142176	-3.019500	3.745000	-11.306000	24.043398	0.001063	20.794856
606.150077	-2.964800	3.744800	-11.102000	24.051037	0.001059	20.819112
607.144078	-3.001200	3.745100	-11.238000	24.052332	0.001060	20.809031
608.123560	-3.002900	3.744100	-11.241000	24.051914	0.001061	20.805767
609.149430	-3.004800	3.743500	-11.248000	24.079464	0.001062	20.827706
610.148540	-3.022100	3.742700	-11.309000	24.068092	0.001060	20.818673
611.140773	-3.031900	3.742200	-11.344000	24.074839	0.001059	20.820698
612.145038	-3.004200	3.742900	-11.244000	24.052490	0.001061	20.816776
613.149304	-2.984300	3.742600	-11.168000	24.049167	0.001062	20.810598
614.129476	-3.012500	3.742800	-11.274000	24.031151	0.001061	20.830463
615.154924	-3.006500	3.741200	-11.247000	24.075175	0.001061	20.821034
616.144014	-3.009700	3.742100	-11.261000	24.070344	0.001060	20.827568
617.154714	-3.018300	3.740700	-11.289000	24.085650	0.001060	20.829169
618.158857	-2.993600	3.740200	-11.196000	24.046335	0.001058	20.805388
619.150140	-2.995500	3.739700	-11.201000	24.051836	0.001061	20.829396
620.152018	-3.006400	3.739800	-11.242000	24.038997	0.001061	20.817469
621.153669	-2.989100	3.740500	-11.179000	24.032881	0.001060	20.831249
622.153645	-3.016800	3.739200	-11.279000	24.045356	0.001060	20.822897
623.169720	-2.994000	3.740400	-11.198000	24.070837	0.001059	20.848451
624.135436	-2.995100	3.739400	-11.199000	24.060835	0.001057	20.819455
625.136801	-3.008400	3.739600	-11.249000	24.082411	0.001060	20.820231
626.137438	-3.021600	3.736600	-11.288000	24.066716	0.001061	20.805439
627.152669	-2.971000	3.740900	-11.112000	24.058482	0.001060	20.840328
628.158511	-3.013800	3.737400	-11.262000	24.056167	0.001060	20.818567
629.154032	-2.986500	3.738600	-11.163000	24.063614	0.001057	20.843578
630.154672	-2.991600	3.738300	-11.182000	24.014429	0.001059	20.836926
631.156729	-2.994500	3.736800	-11.189000	24.020950	0.001059	20.825922
632.158855	-2.998800	3.736900	-11.205000	24.031480	0.001058	20.842646
633.155462	-2.980200	3.737500	-11.138000	24.009116	0.001058	20.845822
634.163886	-3.001700	3.734500	-11.209000	24.018424	0.001058	20.851363
635.156367	-2.996600	3.735500	-11.193000	24.025374	0.001056	20.825617
636.153666	-2.995400	3.735300	-11.188000	24.051009	0.001057	20.844687
637.139128	-2.991500	3.735100	-11.172000	24.075943	0.001058	20.829865
638.159964	-2.999300	3.736000	-11.204000	24.083696	0.001058	20.833847
639.138993	-3.012000	3.733200	-11.244000	24.074166	0.001058	20.825713
640.139189	-2.987400	3.734100	-11.154000	24.083583	0.001058	20.842743
641.139588	-3.037000	3.733000	-11.336000	24.082269	0.001057	20.845218
642.139812	-3.009600	3.734300	-11.238000	24.109345	0.001056	20.848191
643.140119	-3.029600	3.732600	-11.307000	24.080782	0.001059	20.834718
644.140424	-3.006100	3.732500	-11.219000	24.128463	0.001058	20.865468
645.139980	-3.014800	3.732300	-11.251000	24.147679	0.001055	20.852025
646.140354	-2.983500	3.733700	-11.138000	24.135639	0.001058	20.863656
647.139706	-2.980000	3.732500	-11.122000	24.128326	0.001058	20.841150
648.140492	-2.997800	3.731300	-11.185000	24.131395	0.001057	20.839486
649.141506	-2.999000	3.733200	-11.194000	24.154707	0.001055	20.836315
650.144425	-3.008300	3.731300	-11.224000	24.154343	0.001057	20.863924
651.143581	-3.022500	3.729700	-11.272000	24.143033	0.001057	20.856848
652.145805	-3.028200	3.730200	-11.294000	24.124951	0.001058	20.843454
653.143134	-3.009600	3.730100	-11.224000	24.128462	0.001058	20.855984
654.142984	-2.986700	3.731100	-11.143000	24.095325	0.001056	20.860682
655.144369	-2.989000	3.731800	-11.152000	24.077512	0.001057	20.850878
656.148387	-3.013300	3.728800	-11.235000	24.104559	0.001058	20.878476
657.144602	-2.977900	3.729400	-11.105000	24.129424	0.001056	20.874491
658.145082	-2.991500	3.730400	-11.158000	24.123485	0.001057	20.887501
659.144469	-2.993000	3.729900	-11.162000	24.141726	0.001056	20.845106
660.145102	-3.016600	3.728800	-11.248000	24.170274	0.001055	20.871367
661.147444	-3.005300	3.728800	-11.206000	24.143929	0.001056	20.862013
662.171134	-3.007200	3.728100	-11.210000	24.155108	0.001055	20.840984
663.175660	-2.988100	3.728400	-11.140000	24.166459	0.001054	20.877023
664.175120	-3.011000	3.726700	-11.220000	24.199403	0.001054	20.861703
665.164604	-2.992300	3.727300	-11.153000	24.224935	0.001056	20.865502
666.165240	-3.007700	3.727600	-11.211000	24.245316	0.001056	20.880255
667.147844	-3.001400	3.726100	-11.183000	24.245322	0.001055	20.869355
668.163701	-2.998100	3.726000	-11.170000	24.278588	0.001054	20.870482
669.166564	-2.997800	3.726100	-11.168000	24.272645	0.001054	20.867366
670.163995	-2.991700	3.727000	-11.149000	24.286334	0.001055	20.863079
671.146633	-3.015700	3.725000	-11.232000	24.303282	0.001054	20.890510
672.150638	-3.006300	3.724300	-11.194000	24.262790	0.001055	20.857006
673.147840	-2.985300	3.725300	-11.121000	24.239548	0.001052	20.873995
674.147271	-2.994400	3.725100	-11.154000	24.279137	0.001053	20.867239
675.147288	-2.990200	3.725900	-11.139000	24.263219	0.001054	20.855066
676.147156	-2.982000	3.725600	-11.108000	24.292733	0.001054	20.887040
677.150503	-3.006800	3.724600	-11.199000	24.274102	0.001053	20.876412
678.165224	-3.002800	3.723700	-11.180000	24.274058	0.001054	20.871627
679.170926	-2.978800	3.723900	-11.092000	24.243406	0.001052	20.882132
680.170920	-3.011800	3.723300	-11.213000	24.263787	0.001054	20.864170
681.167556	-2.982900	3.721900	-11.101000	24.251754	0.001053	20.853523
682.168819	-2.979800	3.722900	-11.093000	24.266585	0.001053	20.874562
683.167972	-3.006600	3.721800	-11.189000	24.274025	0.001052	20.852155
684.171237	-2.989300	3.722000	-11.125000	24.261760	0.001052	20.871145
685.169991	-2.976500	3.723200	-11.081000	24.271815	0.001052	20.866058
686.165850	-3.009500	3.720000	-11.194000	24.303619	0.001050	20.860977
687.147922	-3.019700	3.719000	-11.228000	24.296651	0.001052	20.860627
688.170513	-3.011100	3.720900	-11.203000	24.278020	0.001051	20.848576
689.178440	-2.994400	3.720400	-11.139000	24.290813	0.001051	20.869942
690.165060	-2.967900	3.720800	-11.042000	24.300739	0.001052	20.848132
691.174590	-2.990400	3.719600	-11.122000	24.296564	0.001054	20.851056
692.167101	-2.997700	3.719700	-11.149000	24.267533	0.001050	20.853230
693.173708	-3.015600	3.718400	-11.212000	24.243229	0.001051	20.834541
694.153128	-2.980400	3.717900	-11.079000	24.228856	0.001049	20.855686
695.155466	-3.010700	3.718400	-11.194000	24.216689	0.001050	20.853912
696.153316	-2.987200	3.719300	-11.110000	24.202808	0.001050	20.834300
697.152786	-2.978900	3.719200	-11.078000	24.243319	0.001051	20.860235
698.169506	-2.972500	3.718300	-11.051000	24.255959	0.001048	20.829767
699.174930	-2.973200	3.718100	-11.054000	24.277182	0.001049	20.845839
700.170940	-3.013400	3.716800	-11.199000	24.279329	0.001048	20.831872
701.178666	-2.998000	3.715700	-11.139000	24.272141	0.001049	20.843153
702.178469	-3.002700	3.715000	-11.153000	24.278887	0.001048	20.855609
703.176377	-3.010500	3.716300	-11.187000	24.271999	0.001047	20.833054
704.177932	-2.984900	3.715200	-11.088000	24.252274	0.001047	20.830812
705.180421	-2.995400	3.716100	-11.130000	24.223843	0.001048	20.832640
706.180709	-3.010000	3.715600	-11.183000	24.244047	0.001049	20.828249
707.180236	-2.997700	3.715100	-11.135000	24.280548	0.001047	20.822664
708.173165	-2.978800	3.715000	-11.064000	24.279879	0.001048	20.829579
709.178093	-2.997700	3.713300	-11.130000	24.276128	0.001045	20.832454
710.176802	-2.982700	3.715200	-11.080000	24.283721	0.001049	20.802139
711.172009	-2.987400	3.715100	-11.098000	24.299123	0.001050	20.825175
712.181993	-3.013600	3.712300	-11.186000	24.301098	0.001047	20.854182
713.178753	-2.991600	3.713900	-11.109000	24.312946	0.001047	20.822919
714.159226	-2.989000	3.713700	-11.099000	24.323295	0.001047	20.835672
715.184318	-3.001000	3.711700	-11.138000	24.303853	0.001047	20.819488
716.187938	-3.008800	3.711900	-11.168000	24.297615	0.001047	20.813706
717.188084	-3.007300	3.712600	-11.164000	24.290973	0.001046	20.841181
718.190965	-2.997200	3.712800	-11.127000	24.282446	0.001047	20.817455
719.187106	-3.010800	3.710300	-11.170000	24.282555	0.001047	20.824203
720.186673	-2.999900	3.710500	-11.129000	24.284949	0.001046	20.816173
721.179694	-3.016400	3.710500	-11.192000	24.287318	0.001046	20.815230
722.162567	-3.000900	3.710200	-11.132000	24.295777	0.001044	20.828457
723.162946	-3.016900	3.709900	-11.191000	24.319791	0.001045	20.847329
724.162379	-3.024100	3.709000	-11.214000	24.339084	0.001045	20.819268
725.161749	-2.993600	3.710800	-11.108000	24.320778	0.001045	20.829828
726.187757	-3.007300	3.710400	-11.157000	24.306131	0.001043	20.801859
727.180026	-3.022900	3.709100	-11.211000	24.336909	0.001043	20.780103
728.163725	-3.026600	3.708200	-11.222000	24.365851	0.001043	20.810559
729.162978	-2.992600	3.709100	-11.099000	24.370283	0.001041	20.798883
730.162753	-3.030300	3.707700	-11.234000	24.366611	0.001044	20.796623
731.166517	-3.009600	3.708300	-11.159000	24.361565	0.001044	20.810527
732.163587	-3.005100	3.707200	-11.140000	24.337392	0.001043	20.822786
733.173261	-2.973300	3.708100	-11.024000	24.345580	0.001043	20.801603
734.161918	-3.009400	3.706900	-11.155000	24.333652	0.001041	20.791060
735.164574	-2.976800	3.710100	-11.043000	24.326322	0.001043	20.809785
736.165188	-3.009300	3.706400	-11.152000	24.330907	0.001041	20.810117
737.167414	-3.013100	3.707300	-11.169000	24.384249	0.001040	20.792505
738.164010	-3.015500	3.704900	-11.171000	24.350893	0.001043	20.806933
739.163406	-2.999500	3.706800	-11.117000	24.385058	0.001039	20.811335
740.164256	-3.026100	3.704700	-11.209000	24.407155	0.001040	20.816433
741.167039	-3.006700	3.706400	-11.143000	24.400126	0.001042	20.790890
742.200307	-3.006600	3.705500	-11.141000	24.432590	0.001040	20.786949
743.195788	-2.993300	3.705700	-11.091000	24.433670	0.001041	20.798463
744.166413	-3.008400	3.703600	-11.142000	24.442060	0.001039	20.795975
745.184870	-3.005000	3.704100	-11.130000	24.447074	0.001041	20.790574
746.189492	-2.990000	3.704500	-11.075000	24.423921	0.001042	20.808597
747.198011	-2.979600	3.704500	-11.036000	24.400547	0.001041	20.788467
748.168756	-2.993200	3.704600	-11.087000	24.405432	0.001040	20.782462
749.198593	-2.977800	3.704600	-11.030000	24.404965	0.001041	20.785313
750.189761	-2.980200	3.702800	-11.034000	24.420169	0.001040	20.784919
751.182645	-3.014200	3.702100	-11.158000	24.432616	0.001037	20.807363
752.168340	-2.982800	3.702500	-11.042000	24.433740	0.001039	20.781937
753.172108	-2.990000	3.703100	-11.070000	24.443597	0.001040	20.788982
754.168203	-3.007200	3.701300	-11.130000	24.456443	0.001038	20.767256
755.168658	-2.995600	3.701200	-11.086000	24.483602	0.001036	20.775538
756.168980	-3.038300	3.700100	-11.241000	24.476703	0.001036	20.780470
757.187818	-2.986600	3.702700	-11.057000	24.473873	0.001040	20.774312
758.171885	-3.014500	3.700300	-11.154000	24.457338	0.001036	20.797552
759.171810	-3.027200	3.698900	-11.196000	24.463758	0.001036	20.776017
760.176645	-3.008300	3.699800	-11.129000	24.423007	0.001038	20.768799
761.172074	-3.006300	3.700000	-11.122000	24.406041	0.001038	20.783548
762.188209	-2.999500	3.700200	-11.098000	24.365375	0.001038	20.771201
763.172246	-3.010100	3.699800	-11.135000	24.375675	0.001037	20.765886
764.187543	-3.020900	3.700400	-11.178000	24.389345	0.001035	20.777703
765.190948	-3.004100	3.699200	-11.112000	24.426609	0.001035	20.770516
766.193054	-3.024200	3.698700	-11.184000	24.426492	0.001033	20.786521
767.190294	-3.014900	3.698600	-11.150000	24.446348	0.001036	20.770405
768.172614	-2.991500	3.699100	-11.065000	24.423865	0.001034	20.777721
769.175180	-3.007300	3.698000	-11.120000	24.426289	0.001032	20.758815
770.196089	-3.011800	3.695500	-11.129000	24.440197	0.001033	20.767553
771.191698	-3.008700	3.696900	-11.122000	24.454112	0.001033	20.771081
772.203462	-3.015400	3.695900	-11.144000	24.480559	0.001034	20.755889
773.173680	-2.991400	3.697500	-11.059000	24.492656	0.001032	20.781303
774.175416	-3.005500	3.697900	-11.113000	24.540688	0.001033	20.774018
775.173213	-3.004500	3.695900	-11.104000	24.512664	0.001033	20.785256
776.172375	-3.008100	3.696900	-11.120000	24.498228	0.001032	20.771720
777.175246	-2.984400	3.696300	-11.031000	24.490820	0.001031	20.763813
778.173396	-2.989900	3.697000	-11.053000	24.465950	0.001033	20.748344
779.192242	-2.995800	3.695900	-11.071000	24.466232	0.001030	20.749576
780.207305	-3.001600	3.696100	-11.092000	24.467601	0.001031	20.762803
781.196223	-3.006200	3.695600	-11.108000	24.489396	0.001030	20.770919
782.194570	-3.009100	3.694500	-11.116000	24.488677	0.001029	20.753603
783.197531	-3.007200	3.694400	-11.109000	24.503192	0.001028	20.759631
784.191581	-3.012900	3.692700	-11.124000	24.507624	0.001028	20.756964
785.195489	-2.992400	3.695700	-11.058000	24.486160	0.001029	20.764354
786.208715	-2.984400	3.695300	-11.027000	24.530615	0.001029	20.753005
787.195084	-3.005900	3.693400	-11.101000	24.519290	0.001029	20.766774
788.193398	-3.008400	3.692600	-11.109000	24.566026	0.001028	20.755344
789.177282	-3.028500	3.693000	-11.183000	24.561681	0.001028	20.747191
790.195863	-2.995200	3.693300	-11.062000	24.569573	0.001029	20.777396
791.194181	-3.011400	3.692000	-11.116000	24.605985	0.001029	20.768411
792.198500	-2.996400	3.692100	-11.062000	24.614896	0.001029	20.738471
793.197404	-3.007600	3.691500	-11.102000	24.597540	0.001029	20.750454
794.196983	-3.011400	3.690400	-11.111000	24.600369	0.001027	20.752344
795.192585	-3.004500	3.690700	-11.087000	24.564798	0.001027	20.747473
796.192015	-2.991500	3.691100	-11.041000	24.548510	0.001026	20.754838
797.209088	-3.003100	3.691600	-11.086000	24.573366	0.001026	20.744216
798.190878	-2.994800	3.691400	-11.054000	24.541114	0.001025	20.749789
799.195553	-3.012200	3.689700	-11.113000	24.532344	0.001028	20.758059
800.198645	-3.001300	3.689700	-11.072000	24.510654	0.001025	20.738193
801.210928	-3.011800	3.690400	-11.114000	24.510789	0.001026	20.751605
802.198489	-3.001000	3.690200	-11.073000	24.549000	0.001024	20.740631
803.206583	-3.029300	3.687500	-11.169000	24.530023	0.001024	20.736290
804.176994	-2.998300	3.689400	-11.061000	24.550277	0.001025	20.720574
805.177894	-3.014700	3.689000	-11.118000	24.564012	0.001025	20.740994
806.195017	-3.002000	3.688000	-11.070000	24.551308	0.001026	20.745317
807.180921	-2.997700	3.689000	-11.058000	24.584068	0.001023	20.732194
808.176938	-2.974500	3.688600	-10.970000	24.577158	0.001024	20.722415
809.196797	-3.008000	3.688200	-11.093000	24.573530	0.001025	20.743433
810.197603	-2.985400	3.686600	-11.005000	24.579134	0.001023	20.747632
811.194195	-2.988700	3.687800	-11.021000	24.568645	0.001025	20.726202
812.208609	-3.011800	3.686200	-11.100000	24.561489	0.001025	20.758852
813.179084	-3.006000	3.687500	-11.084000	24.554376	0.001023	20.731326
814.180564	-2.999200	3.686300	-11.055000	24.568934	0.001021	20.747829
815.179799	-3.012200	3.686200	-11.103000	24.535479	0.001022	20.746031
816.204477	-3.011000	3.685400	-11.095000	24.511506	0.001022	20.742367
817.200634	-3.010100	3.685800	-11.094000	24.484844	0.001022	20.765879
818.197267	-2.990800	3.685600	-11.022000	24.487717	0.001021	20.734146
819.184597	-2.993400	3.685400	-11.031000	24.500501	0.001020	20.722790
820.182968	-3.016600	3.683900	-11.110000	24.515901	0.001023	20.724490
821.181014	-3.011000	3.684700	-11.093000	24.521031	0.001022	20.729638
822.180845	-2.993200	3.685200	-11.029000	24.540162	0.001020	20.734134
823.183744	-3.004100	3.683900	-11.066000	24.537578	0.001019	20.725377
824.183349	-2.999100	3.682400	-11.043000	24.494204	0.001018	20.738284
825.184013	-3.009300	3.682400	-11.079000	24.485704	0.001020	20.718849
826.186153	-2.971900	3.683800	-10.946000	24.503073	0.001019	20.741967
827.201091	-2.996200	3.682400	-11.032000	24.515661	0.001019	20.717611
828.201853	-2.998700	3.682600	-11.040000	24.550829	0.001019	20.705005
829.214677	-3.007400	3.683100	-11.075000	24.535786	0.001019	20.737804
830.213975	-2.991100	3.681600	-11.011000	24.505522	0.001019	20.720241
831.208081	-3.005300	3.681300	-11.062000	24.516993	0.001020	20.725112
832.202614	-3.008600	3.680900	-11.073000	24.492793	0.001017	20.728807
833.201266	-2.996900	3.681600	-11.033000	24.506682	0.001017	20.722353
834.213285	-2.992800	3.679500	-11.011000	24.504620	0.001018	20.717439
835.185061	-3.018600	3.680700	-11.110000	24.525463	0.001018	20.729817
836.203419	-2.984600	3.682700	-10.990000	24.535025	0.001018	20.717125
837.209406	-2.983200	3.681200	-10.980000	24.561888	0.001018	20.711361
838.204062	-2.995400	3.680400	-11.022000	24.552645	0.001017	20.712519
839.187685	-2.985600	3.680700	-10.987000	24.592071	0.001017	20.728844
840.187600	-3.001700	3.680000	-11.045000	24.568523	0.001018	20.723708
841.216050	-2.995200	3.678900	-11.018000	24.608868	0.001016	20.725784
842.207974	-2.979900	3.679400	-10.964000	24.581313	0.001016	20.728481
843.209670	-2.991500	3.677200	-11.000000	24.576716	0.001015	20.727188
844.201025	-3.008300	3.678200	-11.065000	24.563858	0.001015	20.736099
845.203292	-3.016500	3.677200	-11.091000	24.562324	0.001015	20.709427
846.207232	-2.986000	3.678300	-10.983000	24.539101	0.001015	20.704144
847.190845	-3.006600	3.677500	-11.056000	24.526089	0.001012	20.710530
848.189632	-3.004700	3.677300	-11.048000	24.510230	0.001012	20.716430
849.189582	-3.012300	3.678000	-11.078000	24.492867	0.001014	20.706595
850.192191	-2.998900	3.676900	-11.026000	24.497820	0.001012	20.693071
851.189538	-3.012600	3.675700	-11.072000	24.508199	0.001013	20.702537
852.191450	-3.008600	3.674400	-11.054000	24.535762	0.001012	20.704113
853.190677	-3.004000	3.674400	-11.037000	24.537303	0.001011	20.708030
854.206140	-3.001300	3.675200	-11.030000	24.539525	0.001011	20.718320
855.210432	-2.983000	3.675800	-10.964000	24.526992	0.001011	20.710487
856.212603	-2.984100	3.675600	-10.967000	24.533265	0.001008	20.721997
857.212760	-3.003600	3.674500	-11.036000	24.511010	0.001010	20.710099
858.192519	-3.011700	3.674200	-11.065000	24.481556	0.001008	20.693349
859.209240	-3.018800	3.674600	-11.091000	24.497133	0.001008	20.707082
860.209836	-2.978800	3.673300	-10.941000	24.456066	0.001010	20.702863
861.217330	-3.007200	3.671500	-11.039000	24.466445	0.001009	20.706164
862.207453	-3.008600	3.671900	-11.047000	24.467390	0.001008	20.705216
863.207587	-2.973600	3.673100	-10.919000	24.487933	0.001009	20.724879
864.214641	-2.995700	3.673000	-11.000000	24.533032	0.001008	20.703270
865.207802	-2.997000	3.671300	-11.001000	24.539979	0.001009	20.707870
866.201014	-2.999100	3.672100	-11.012000	24.562436	0.001007	20.687252
867.192685	-2.978300	3.673400	-10.939000	24.569181	0.001007	20.701133
868.209157	-2.989200	3.671200	-10.971000	24.560423	0.001009	20.710364
869.216665	-3.001300	3.670800	-11.016000	24.564535	0.001008	20.694575
870.220205	-2.980800	3.671700	-10.943000	24.531872	0.001006	20.700684
871.192779	-3.000500	3.669600	-11.010000	24.538991	0.001009	20.701189
872.195081	-3.014500	3.670700	-11.064000	24.536009	0.001004	20.707680
873.193700	-3.005500	3.670900	-11.031000	24.565603	0.001005	20.699440
874.193142	-3.017400	3.669600	-11.072000	24.565683	0.001005	20.678181
875.192915	-3.014400	3.670800	-11.064000	24.564535	0.001006	20.702162
876.194626	-2.989900	3.669900	-10.971000	24.546927	0.001006	20.682597
877.197116	-3.002500	3.668600	-11.014000	24.575613	0.001003	20.706639
878.216079	-3.015800	3.670000	-11.067000	24.587476	0.001004	20.674443
879.212188	-3.008700	3.668900	-11.038000	24.604089	0.001004	20.674991
880.223034	-3.007200	3.667800	-11.027000	24.576988	0.001002	20.686680
881.209717	-2.985600	3.668800	-10.953000	24.537782	0.001002	20.710882
882.227020	-2.983000	3.668700	-10.943000	24.534953	0.001002	20.685282
883.218774	-3.004000	3.667400	-11.016000	24.503640	0.001003	20.692746
884.217331	-2.997700	3.667400	-10.993000	24.468250	0.001003	20.689956
885.219740	-2.985200	3.667400	-10.947000	24.471264	0.001004	20.687764
886.222506	-2.997300	3.667700	-10.992000	24.482981	0.001003	20.707108
887.200546	-2.980300	3.669000	-10.934000	24.473056	0.001002	20.683872
888.200390	-3.003800	3.665500	-11.009000	24.456846	0.001002	20.680411
889.199701	-2.984800	3.666500	-10.943000	24.480501	0.001000	20.678065
890.199798	-3.010000	3.665900	-11.033000	24.522016	0.001001	20.681784
891.199975	-3.003700	3.665400	-11.008000	24.531492	0.000998	20.699354
892.214252	-3.001800	3.664600	-10.999000	24.570470	0.001001	20.687253
893.223807	-2.998300	3.663600	-10.983000	24.575994	0.000998	20.675250
894.217367	-3.013400	3.664200	-11.042000	24.604771	0.000999	20.686582
895.230832	-3.022500	3.664000	-11.073000	24.600125	0.000998	20.663426
896.222362	-2.994900	3.665200	-10.976000	24.588538	0.000997	20.676458
897.215945	-3.006100	3.663000	-11.011000	24.578093	0.000998	20.691583
898.200834	-3.006500	3.663900	-11.015000	24.579713	0.000999	20.691786
899.205104	-2.998700	3.663400	-10.984000	24.589140	0.000998	20.672794
900.216838	-3.005500	3.664200	-11.012000	24.613443	0.000998	20.681058
901.218995	-2.989900	3.664800	-10.956000	24.602175	0.000997	20.667380
902.222901	-2.994300	3.663500	-10.968000	24.626852	0.000995	20.665588
903.227859	-2.983600	3.663100	-10.928000	24.671098	0.000996	20.662097
904.224840	-2.986700	3.662100	-10.937000	24.697093	0.000997	20.676803
905.207329	-2.987900	3.662800	-10.943000	24.692840	0.000995	20.675855
906.234986	-3.016600	3.661700	-11.045000	24.679690	0.000995	20.689687
907.230373	-2.979600	3.660400	-10.905000	24.712373	0.000995	20.662263
908.231701	-3.017100	3.660200	-11.042000	24.682734	0.000994	20.682784
909.210886	-2.987300	3.662100	-10.939000	24.688883	0.000993	20.680893
910.240047	-3.010500	3.661200	-11.021000	24.688680	0.000994	20.684009
911.227148	-3.025000	3.660800	-11.073000	24.675904	0.000993	20.668342
912.229238	-2.973600	3.660100	-10.883000	24.676537	0.000992	20.677987
913.238740	-3.001800	3.661000	-10.989000	24.696063	0.000993	20.675296
914.239402	-3.007200	3.659500	-11.004000	24.704145	0.000993	20.677242
915.211686	-2.991400	3.659600	-10.945000	24.700966	0.000994	20.680216
916.224730	-2.997000	3.659800	-10.967000	24.735735	0.000992	20.672906
917.210253	-2.991200	3.659600	-10.945000	24.732526	0.000992	20.688653
918.231730	-3.017400	3.657100	-11.033000	24.723211	0.000991	20.671244
919.241930	-2.994600	3.659300	-10.958000	24.702722	0.000991	20.680081
920.245093	-3.000300	3.657600	-10.973000	24.747039	0.000989	20.677138
921.247497	-3.006300	3.657400	-10.995000	24.733447	0.000990	20.668713
922.240153	-3.038200	3.656000	-11.107000	24.748242	0.000990	20.646573
923.218825	-3.024800	3.656200	-11.058000	24.728194	0.000991	20.678142
924.213062	-3.022900	3.656800	-11.053000	24.677495	0.000991	20.657610
925.241273	-3.010700	3.657000	-11.009000	24.707546	0.000989	20.668800
926.234572	-2.992800	3.657000	-10.944000	24.703490	0.000990	20.668048
927.230258	-3.002800	3.655700	-10.976000	24.721298	0.000990	20.685446
928.234540	-2.996700	3.655000	-10.951000	24.721132	0.000991	20.681961
929.231219	-3.018300	3.654000	-11.027000	24.735755	0.000990	20.658700
930.217157	-3.014200	3.655500	-11.017000	24.730533	0.000989	20.696612
931.230672	-2.989100	3.656100	-10.927000	24.767375	0.000988	20.677158
932.229408	-3.021000	3.654700	-11.040000	24.783041	0.000986	20.653996
933.236479	-2.988800	3.654600	-10.922000	24.776377	0.000988	20.679553
934.240636	-2.998900	3.654900	-10.960000	24.792368	0.000987	20.679480
935.215880	-3.016800	3.653100	-11.020000	24.784514	0.000987	20.676339
936.221697	-2.993000	3.654000	-10.935000	24.804007	0.000985	20.672194
937.234933	-3.000400	3.652900	-10.958000	24.844670	0.000987	20.693090
938.233519	-2.997800	3.652800	-10.949000	24.849173	0.000985	20.673901
939.247045	-2.997800	3.652800	-10.949000	24.851836	0.000983	20.686532
940.235626	-3.010100	3.652500	-10.992000	24.833344	0.000982	20.690258
941.235139	-2.999700	3.654000	-10.959000	24.849904	0.000984	20.676056
942.247374	-2.977900	3.654200	-10.881000	24.864402	0.000982	20.673063
943.232073	-3.004300	3.651700	-10.971000	24.841977	0.000981	20.685645
944.242432	-2.979600	3.652900	-10.884000	24.814753	0.000983	20.686298
945.246649	-3.006000	3.651400	-10.974000	24.805113	0.000983	20.673304
946.233093	-3.000500	3.651600	-10.955000	24.778582	0.000982	20.674653
947.238760	-2.986800	3.651000	-10.904000	24.766696	0.000983	20.683589
948.242010	-2.981300	3.651600	-10.884000	24.779061	0.000982	20.684144
949.239082	-2.987900	3.650500	-10.907000	24.753050	0.000983	20.677480
950.234166	-2.989900	3.649300	-10.910000	24.717938	0.000980	20.693455
951.231873	-3.015000	3.649200	-11.000000	24.713814	0.000982	20.671772
952.246001	-2.983000	3.650400	-10.887000	24.696884	0.000981	20.686552
953.243309	-2.988600	3.649600	-10.905000	24.648841	0.000982	20.684335
954.218918	-2.968300	3.649600	-10.833000	24.670559	0.000979	20.679575
955.240006	-2.986300	3.650000	-10.899000	24.689061	0.000980	20.688185
956.222553	-3.005400	3.648400	-10.965000	24.719283	0.000978	20.684847
957.220346	-2.986700	3.648600	-10.896000	24.743527	0.000981	20.678830
958.243253	-2.997300	3.647400	-10.931000	24.762710	0.000978	20.705669
959.239118	-2.992600	3.648400	-10.916000	24.792469	0.000979	20.685746
960.237454	-2.995200	3.647500	-10.924000	24.782480	0.000979	20.657701
961.237303	-3.008500	3.646400	-10.969000	24.777688	0.000978	20.673282
962.238061	-3.020500	3.646400	-11.013000	24.772798	0.000976	20.663158
963.224869	-3.001400	3.647400	-10.946000	24.743602	0.000975	20.693131
964.223069	-3.011800	3.646500	-10.981000	24.748456	0.000978	20.689467
965.220981	-2.999800	3.646900	-10.938000	24.773155	0.000975	20.690545
966.245146	-3.038300	3.644300	-11.070000	24.779996	0.000976	20.680341
967.220246	-2.985600	3.645100	-10.882000	24.780150	0.000975	20.696144
968.237507	-3.007500	3.644800	-10.960000	24.798804	0.000975	20.698268
969.226206	-3.001900	3.644500	-10.940000	24.811707	0.000975	20.688458
970.240925	-3.001400	3.644800	-10.939000	24.794208	0.000973	20.694604
971.251318	-3.014200	3.643300	-10.981000	24.764866	0.000972	20.678432
972.247046	-3.000700	3.644300	-10.935000	24.743837	0.000975	20.671554
973.244164	-3.021200	3.643000	-11.005000	24.736204	0.000972	20.687603
974.242409	-3.007900	3.642800	-10.956000	24.695974	0.000974	20.688958
975.253349	-3.016000	3.641900	-10.984000	24.677994	0.000971	20.691305
976.252828	-3.007800	3.643800	-10.959000	24.681554	0.000971	20.690609
977.244773	-2.996500	3.642700	-10.914000	24.725129	0.000971	20.691662
978.245605	-3.006600	3.642900	-10.952000	24.732296	0.000971	20.685104
979.248937	-2.978400	3.641700	-10.846000	24.728271	0.000971	20.683435
980.246537	-3.000400	3.641100	-10.924000	24.723945	0.000971	20.693319
981.256892	-3.003100	3.642100	-10.936000	24.768666	0.000969	20.698370
982.247084	-3.008200	3.640600	-10.951000	24.761561	0.000970	20.693610
983.248152	-2.981300	3.643200	-10.861000	24.759518	0.000968	20.695352
984.229053	-3.013300	3.641700	-10.972000	24.771532	0.000969	20.682752
985.231070	-3.001700	3.640900	-10.928000	24.775122	0.000969	20.694891
986.228488	-2.999700	3.640700	-10.919000	24.768760	0.000967	20.690876
987.246097	-3.016000	3.639600	-10.976000	24.777289	0.000968	20.691849
988.248764	-2.991200	3.640500	-10.889000	24.780148	0.000968	20.700883
989.246915	-3.001300	3.639400	-10.922000	24.749824	0.000967	20.694634
990.259741	-3.000200	3.640700	-10.922000	24.765710	0.000968	20.707732
991.246290	-2.990500	3.639600	-10.883000	24.790660	0.000968	20.714279
992.252398	-3.013000	3.638700	-10.962000	24.833181	0.000965	20.695311
993.227558	-3.004900	3.637300	-10.929000	24.855442	0.000964	20.706748
994.227627	-2.998800	3.637900	-10.909000	24.877720	0.000966	20.709667
995.251404	-2.991500	3.638600	-10.884000	24.862885	0.000966	20.695251
996.251737	-2.986200	3.637200	-10.860000	24.856443	0.000964	20.705855
997.247237	-3.010700	3.636500	-10.947000	24.856639	0.000964	20.695620
998.228669	-2.977600	3.638200	-10.831000	24.863554	0.000963	20.703983
999.228577	-3.011000	3.635800	-10.946000	24.851725	0.000964	20.712026
1000.229423	-2.969800	3.637100	-10.800000	24.895654	0.000962	20.709649
1001.234958	-2.985700	3.635400	-10.853000	24.885120	0.000962	20.708085
1002.233073	-3.016600	3.634600	-10.963000	24.905533	0.000963	20.695854
1003.233740	-2.992200	3.635100	-10.876000	24.890213	0.000963	20.701341
1004.232448	-3.009000	3.635700	-10.939000	24.919803	0.000963	20.713024
1005.232370	-3.018000	3.635300	-10.969000	24.918558	0.000962	20.712248
1006.231422	-2.990300	3.634600	-10.867000	24.921319	0.000963	20.706483
1007.230180	-2.991700	3.634100	-10.872000	24.909637	0.000960	20.704716
1008.231209	-3.010800	3.634900	-10.943000	24.929276	0.000963	20.706410
1009.235167	-2.986900	3.635800	-10.857000	24.961424	0.000962	20.701218
1010.235959	-3.010000	3.633300	-10.934000	24.963841	0.000960	20.702222
1011.249712	-2.983100	3.633100	-10.836000	24.976277	0.000961	20.714231
1012.234448	-3.009600	3.632700	-10.930000	24.965437	0.000960	20.717101
1013.233610	-2.985400	3.632900	-10.845000	24.978535	0.000960	20.728352
1014.234036	-2.991200	3.633400	-10.867000	24.959768	0.000959	20.728481
1015.241270	-2.995200	3.633900	-10.882000	24.938982	0.000960	20.706195
1016.234839	-2.983800	3.630600	-10.832000	24.911779	0.000958	20.717298
1017.242939	-2.970700	3.633000	-10.791000	24.897036	0.000959	20.707242
1018.235826	-3.011300	3.630800	-10.932000	24.862849	0.000958	20.723192
1019.238020	-2.990400	3.630700	-10.856000	24.853001	0.000957	20.719472
1020.238672	-2.996000	3.630400	-10.875000	24.887115	0.000958	20.709138
1021.258747	-3.029600	3.629700	-10.995000	24.876028	0.000956	20.703227
1022.238668	-2.989100	3.630800	-10.850000	24.913405	0.000957	20.720353
1023.263938	-3.017900	3.629300	-10.951000	24.898558	0.000955	20.724417
1024.237648	-2.996000	3.628100	-10.868000	24.924289	0.000957	20.712784
1025.238178	-3.006800	3.629700	-10.913000	24.916111	0.000955	20.733501
1026.259176	-3.010300	3.628400	-10.922000	24.929664	0.000958	20.726714
1027.254716	-2.990800	3.629600	-10.853000	24.936382	0.000956	20.713542
1028.241908	-2.966400	3.630500	-10.769000	24.985640	0.000954	20.705611
1029.260470	-3.023200	3.626100	-10.960000	24.996180	0.000955	20.717139
1030.240975	-2.997900	3.627300	-10.874000	25.031429	0.000953	20.737824
1031.263223	-2.989100	3.628500	-10.845000	25.053312	0.000953	20.726124
1032.241716	-3.004100	3.627900	-10.898000	25.040975	0.000954	20.735552
1033.246488	-3.007400	3.626800	-10.906000	25.038025	0.000950	20.722158
1034.242154	-3.018800	3.627100	-10.948000	25.030289	0.000951	20.733360
1035.246221	-2.994200	3.627900	-10.862000	25.013591	0.000951	20.735565
1036.265626	-3.029300	3.625400	-10.981000	25.020204	0.000952	20.729875
1037.269264	-2.999600	3.625100	-10.873000	25.024333	0.000951	20.722165
1038.266380	-2.999300	3.625800	-10.874000	25.038552	0.000950	20.731223
1039.272302	-3.027800	3.624200	-10.972000	25.046012	0.000949	20.724486
1040.264278	-3.017200	3.625300	-10.937000	25.043374	0.000950	20.722312
1041.249960	-3.001500	3.624400	-10.878000	25.042062	0.000950	20.738065
1042.247821	-3.012300	3.624300	-10.916000	25.058545	0.000950	20.739439
1043.248412	-3.001600	3.624500	-10.878000	25.070029	0.000950	20.745751
1044.253018	-2.982000	3.624300	-10.807000	25.076022	0.000949	20.723791
1045.280425	-3.020200	3.621400	-10.936000	25.088352	0.000947	20.730478
1046.274481	-2.969100	3.623600	-10.757000	25.120526	0.000947	20.754717
1047.266361	-2.994800	3.622100	-10.846000	25.112815	0.000949	20.740812
1048.266784	-3.016100	3.622300	-10.924000	25.099866	0.000946	20.741089
1049.268424	-2.976900	3.623700	-10.787000	25.096714	0.000944	20.743614
1050.270971	-2.980900	3.623500	-10.800000	25.083758	0.000946	20.733927
1051.250787	-2.988500	3.621600	-10.822000	25.058951	0.000946	20.737000
1052.249600	-2.989900	3.621400	-10.826000	25.051221	0.000945	20.740147
1053.251103	-2.994600	3.621600	-10.843000	25.058436	0.000944	20.745493
1054.252257	-3.004500	3.620500	-10.877000	25.083495	0.000944	20.746466
1055.252177	-2.990500	3.621500	-10.829000	25.082973	0.000943	20.749736
1056.271454	-3.021400	3.620200	-10.937000	25.081808	0.000944	20.746669
1057.256169	-2.999700	3.619300	-10.856000	25.102192	0.000942	20.734415
1058.276047	-3.021400	3.619700	-10.936000	25.094788	0.000944	20.745475
1059.269892	-3.028600	3.618600	-10.957000	25.119896	0.000945	20.735117
1060.287941	-3.026200	3.618000	-10.948000	25.129692	0.000942	20.739262
1061.281922	-2.981200	3.620400	-10.791000	25.136077	0.000941	20.757526
1062.256557	-3.026400	3.617800	-10.948000	25.130864	0.000940	20.748025
1063.272972	-2.980500	3.618700	-10.784000	25.148045	0.000941	20.749152
1064.254876	-3.014000	3.616800	-10.900000	25.158282	0.000940	20.752791
1065.284389	-3.006800	3.618300	-10.879000	25.179487	0.000939	20.746103
1066.277845	-3.020300	3.616500	-10.922000	25.177825	0.000939	20.761031
1067.275014	-3.008400	3.617200	-10.880000	25.133232	0.000937	20.751351
1068.277433	-2.984400	3.616600	-10.793000	25.089925	0.000938	20.751498
1069.277939	-3.024500	3.616700	-10.938000	25.089925	0.000940	20.743437
1070.277256	-3.020100	3.615600	-10.918000	25.078693	0.000939	20.778631
1071.258314	-2.997500	3.615000	-10.835000	25.043015	0.000939	20.757515
1072.293789	-2.995700	3.615800	-10.831000	25.022311	0.000937	20.758544
1073.276452	-2.993800	3.614900	-10.821000	24.984773	0.000937	20.751210
1074.273617	-3.011100	3.613900	-10.881000	25.033949	0.000936	20.756001
1075.286657	-3.013800	3.614300	-10.892000	25.054708	0.000937	20.746492
1076.293482	-3.001700	3.616500	-10.855000	25.043997	0.000936	20.764191
1077.277574	-3.001300	3.614500	-10.847000	25.071590	0.000935	20.754430
1078.275509	-2.964600	3.614700	-10.715000	25.075669	0.000935	20.766112
1079.257879	-2.976800	3.615400	-10.762000	25.084000	0.000935	20.779217
1080.274985	-3.023100	3.612800	-10.921000	25.088723	0.000935	20.767837
1081.279800	-3.001200	3.613800	-10.845000	25.094846	0.000933	20.773509
1082.279445	-2.998800	3.613100	-10.834000	25.074315	0.000933	20.782770
1083.273802	-3.018300	3.611100	-10.898000	25.058948	0.000933	20.771612
1084.281000	-2.999400	3.612700	-10.835000	25.054525	0.000932	20.763853
1085.291006	-2.992000	3.613000	-10.809000	25.068101	0.000932	20.776058
1086.259649	-2.972700	3.613800	-10.742000	25.069567	0.000932	20.784643
1087.283633	-2.981600	3.611300	-10.766000	25.086350	0.000930	20.801016
1088.278949	-3.004700	3.610600	-10.848000	25.105716	0.000931	20.763558
1089.278733	-2.956400	3.612700	-10.680000	25.120334	0.000929	20.757843
1090.286004	-3.017600	3.610300	-10.893000	25.139251	0.000929	20.783947
1091.261223	-2.985400	3.610600	-10.778000	25.142638	0.000928	20.760793
1092.266321	-3.001300	3.610800	-10.836000	25.113519	0.000927	20.779926
1093.269319	-2.996600	3.610300	-10.817000	25.075591	0.000927	20.757973
1094.282740	-2.991600	3.611700	-10.803000	25.093264	0.000928	20.796103
1095.279478	-3.017000	3.609200	-10.889000	25.100342	0.000927	20.778078
1096.285555	-2.979200	3.609200	-10.750000	25.064451	0.000928	20.782352
1097.263608	-3.001000	3.608200	-10.828000	25.118070	0.000927	20.770744
1098.267707	-2.993800	3.609200	-10.805000	25.094902	0.000928	20.786841
1099.265425	-3.000600	3.608300	-10.826000	25.137110	0.000925	20.774211
1100.266642	-3.011600	3.609000	-10.867000	25.116807	0.000924	20.784649
1101.285572	-3.016200	3.608000	-10.882000	25.142631	0.000925	20.766477
1102.285547	-3.006500	3.607100	-10.843000	25.147085	0.000926	20.781379
1103.272013	-3.006200	3.607500	-10.844000	25.148348	0.000924	20.765578
1104.264996	-3.001600	3.607300	-10.827000	25.150066	0.000923	20.774414
1105.265840	-3.010500	3.605600	-10.853000	25.186384	0.000923	20.795228
1106.265934	-2.991300	3.607800	-10.791000	25.194959	0.000924	20.797199
1107.281818	-3.014200	3.604800	-10.864000	25.211164	0.000923	20.779328
1108.286733	-3.006500	3.606700	-10.842000	25.235226	0.000922	20.803960
1109.290686	-3.001100	3.604500	-10.816000	25.185783	0.000923	20.787986
1110.288220	-3.011000	3.604500	-10.852000	25.184513	0.000921	20.798091
1111.289541	-2.974900	3.606000	-10.725000	25.195204	0.000921	20.812143
1112.288578	-3.009100	3.602500	-10.838000	25.190383	0.000922	20.785492
1113.267197	-3.019700	3.602800	-10.878000	25.211188	0.000920	20.802587
1114.272550	-3.008700	3.603000	-10.839000	25.190677	0.000922	20.791003
1115.269797	-3.026600	3.602400	-10.902000	25.189757	0.000922	20.771587
1116.275836	-2.987600	3.603000	-10.763000	25.198381	0.000919	20.816281
1117.324229	-3.011900	3.602600	-10.850000	25.215702	0.000916	20.809489
1118.301364	-2.999500	3.602800	-10.806000	25.207802	0.000919	20.784488
1119.274119	-3.004700	3.601400	-10.820000	25.206746	0.000917	20.791015
1120.287450	-3.015900	3.600500	-10.858000	25.228048	0.000915	20.800547
1121.286346	-3.015100	3.601000	-10.857000	25.239205	0.000917	20.791833
1122.291271	-2.968300	3.601000	-10.688000	25.223252	0.000916	20.814224
1123.272354	-2.989500	3.601400	-10.765000	25.227471	0.000914	20.807554
1124.293382	-3.017500	3.598700	-10.858000	25.224036	0.000915	20.808847
1125.292910	-2.998800	3.601300	-10.798000	25.209990	0.000915	20.798539
1126.272292	-3.009400	3.599400	-10.830000	25.194097	0.000914	20.814351
1127.274887	-2.993300	3.599700	-10.774000	25.213755	0.000912	20.806112
1128.295057	-2.983200	3.599900	-10.739000	25.218454	0.000914	20.800398
1129.294110	-3.011600	3.597400	-10.832000	25.225415	0.000912	20.815921
1130.292259	-3.003400	3.597000	-10.803000	25.231069	0.000912	20.822072
1131.293437	-2.986500	3.598000	-10.743000	25.244146	0.000913	20.827614
1132.289063	-2.993400	3.598300	-10.770000	25.217569	0.000911	20.815631
1133.297873	-3.032200	3.596700	-10.904000	25.202131	0.000910	20.816253
1134.293697	-3.029700	3.596800	-10.896000	25.156483	0.000910	20.803616
1135.293971	-3.007600	3.596700	-10.817000	25.159323	0.000909	20.822589
1136.280635	-2.983400	3.598400	-10.734000	25.169854	0.000909	20.836954
1137.292185	-2.996000	3.596200	-10.774000	25.175663	0.000910	20.840888
1138.296961	-3.021400	3.596100	-10.864000	25.204767	0.000910	20.834546
1139.299569	-3.009800	3.594700	-10.818000	25.201510	0.000907	20.829379
1140.300558	-2.974000	3.597100	-10.697000	25.213936	0.000908	20.836639
1141.301759	-3.025500	3.595600	-10.876000	25.212814	0.000907	20.828400
1142.301655	-2.982900	3.594800	-10.722000	25.212537	0.000908	20.818166
1143.298561	-2.986300	3.595100	-10.735000	25.237936	0.000905	20.822802
1144.297886	-2.998300	3.595500	-10.778000	25.242977	0.000904	20.828812
1145.278929	-2.999800	3.593900	-10.780000	25.256330	0.000905	20.824674
1146.282098	-2.991400	3.594000	-10.750000	25.255624	0.000907	20.837241
1147.280127	-3.000600	3.592700	-10.780000	25.296637	0.000904	20.837641
1148.304545	-2.992100	3.593200	-10.750000	25.285971	0.000904	20.839261
1149.302574	-2.994600	3.592200	-10.757000	25.305137	0.000902	20.812512
1150.301154	-2.985900	3.592700	-10.726000	25.345792	0.000905	20.839106
1151.300780	-3.019000	3.592200	-10.844000	25.350140	0.000903	20.825929
1152.312137	-2.998400	3.592400	-10.769000	25.337642	0.000903	20.846095
1153.298944	-3.024700	3.591700	-10.862000	25.337317	0.000903	20.854777
1154.286430	-2.982700	3.592700	-10.714000	25.332238	0.000902	20.865799
1155.297775	-3.010800	3.590900	-10.810000	25.330895	0.000901	20.846908
1156.282353	-2.991900	3.590600	-10.742000	25.329080	0.000901	20.861679
1157.288710	-3.007100	3.591000	-10.798000	25.326596	0.000901	20.825048
1158.283720	-3.024800	3.589900	-10.857000	25.316728	0.000898	20.856390
1159.313887	-2.982200	3.588800	-10.702000	25.336090	0.000899	20.825571
1160.316597	-3.002000	3.591000	-10.778000	25.363080	0.000901	20.854567
1161.303203	-3.002400	3.589400	-10.776000	25.358358	0.000897	20.835128
1162.303427	-3.003000	3.588100	-10.774000	25.407737	0.000899	20.844407
1163.301860	-2.994300	3.588100	-10.743000	25.418825	0.000896	20.837049
1164.310668	-3.016900	3.588200	-10.824000	25.412637	0.000898	20.844586
1165.316421	-2.997200	3.589400	-10.757000	25.414998	0.000897	20.845060
1166.309675	-3.010800	3.586800	-10.798000	25.410546	0.000896	20.841538
1167.284698	-2.977700	3.588700	-10.686000	25.418353	0.000897	20.854592
1168.286158	-3.003100	3.587000	-10.771000	25.415887	0.000895	20.830306
1169.285018	-2.997700	3.587400	-10.752000	25.438749	0.000893	20.849468
1170.288332	-3.025000	3.584600	-10.843000	25.446457	0.000894	20.842037
1171.286415	-2.980400	3.586500	-10.687000	25.438276	0.000893	20.839038
1172.304459	-2.983000	3.585900	-10.696000	25.423240	0.000893	20.853335
1173.309206	-3.009200	3.585200	-10.788000	25.417028	0.000893	20.847098
1174.303921	-3.005100	3.584800	-10.772000	25.405597	0.000893	20.843206
1175.302768	-3.005800	3.584700	-10.774000	25.389119	0.000890	20.851316
1176.307095	-2.994700	3.583700	-10.731000	25.349851	0.000891	20.826587
1177.287788	-3.006800	3.583800	-10.774000	25.344528	0.000890	20.832621
1178.288577	-2.978800	3.583500	-10.674000	25.321682	0.000890	20.839080
1179.311438	-3.020600	3.583200	-10.821000	25.311901	0.000890	20.822621
1180.304071	-2.993200	3.583500	-10.725000	25.258407	0.000889	20.832449
1181.306896	-3.015100	3.582300	-10.800000	25.203427	0.000888	20.847898
1182.287983	-3.006200	3.583300	-10.770000	25.198869	0.000888	20.830521
1183.287603	-2.997300	3.582700	-10.737000	25.149725	0.000889	20.831445
1184.293022	-2.988100	3.581500	-10.701000	25.162950	0.000888	20.810582
1185.289566	-2.993300	3.581600	-10.718000	25.165556	0.000888	20.831691
1186.289794	-2.991400	3.582500	-10.715000	25.154571	0.000886	20.823033
1187.288130	-2.983300	3.581600	-10.684000	25.127403	0.000886	20.815675
1188.290526	-2.990100	3.581200	-10.707000	25.133513	0.000886	20.822282
1189.290549	-2.992100	3.581100	-10.714000	25.138058	0.000884	20.830638
1190.312593	-3.000300	3.580800	-10.743000	25.181405	0.000884	20.828162
1191.313322	-3.015600	3.578400	-10.789000	25.223813	0.000883	20.810994
1192.291135	-3.004900	3.579900	-10.755000	25.256775	0.000882	20.804732
1193.292714	-2.982100	3.579600	-10.674000	25.276064	0.000882	20.819831
1194.296529	-2.991400	3.579800	-10.707000	25.276799	0.000881	20.807293
1195.295636	-2.999900	3.580400	-10.740000	25.315020	0.000882	20.814374
1196.294005	-2.978300	3.579800	-10.660000	25.319277	0.000880	20.807268
1197.296704	-2.997200	3.579100	-10.727000	25.316811	0.000880	20.829448
1198.320089	-2.991600	3.579000	-10.706000	25.294885	0.000881	20.812650
1199.327809	-3.000600	3.578300	-10.736000	25.258822	0.000880	20.805365
1200.314829	-2.982600	3.578900	-10.673000	25.227075	0.000879	20.829916
1201.314227	-3.000000	3.578100	-10.733000	25.183104	0.000878	20.826074
1202.295306	-3.002600	3.576400	-10.737000	25.165800	0.000879	20.806332
1203.295206	-2.986000	3.577400	-10.681000	25.162813	0.000879	20.806652
1204.295633	-2.973300	3.577500	-10.636000	25.139074	0.000876	20.801787
1205.295688	-3.002700	3.576400	-10.737000	25.153808	0.000878	20.797137
1206.302550	-3.032400	3.574200	-10.838000	25.168179	0.000878	20.815359
1207.299483	-3.000500	3.574900	-10.725000	25.188629	0.000876	20.819767
1208.313705	-3.007600	3.575400	-10.752000	25.195468	0.000876	20.797236
1209.317233	-3.007100	3.574500	-10.747000	25.214108	0.000874	20.785129
1210.317297	-3.004900	3.574900	-10.741000	25.206122	0.000876	20.806509
1211.319317	-3.010400	3.572300	-10.752000	25.191855	0.000876	20.804514
1212.301671	-3.007900	3.572600	-10.746000	25.163867	0.000874	20.810081
1213.301578	-3.004100	3.573600	-10.734000	25.150121	0.000874	20.805290
1214.299319	-2.998100	3.571700	-10.707000	25.126449	0.000872	20.797174
1215.300905	-2.990100	3.573700	-10.685000	25.155359	0.000870	20.802014
1216.302406	-2.993100	3.572200	-10.691000	25.155537	0.000870	20.808831
1217.304952	-3.008100	3.572100	-10.743000	25.139478	0.000869	20.794132
1218.303061	-3.004300	3.572600	-10.732000	25.139864	0.000870	20.795942
1219.325366	-2.995100	3.572700	-10.700000	25.124137	0.000869	20.799120
1220.324904	-2.998900	3.571800	-10.710000	25.085749	0.000869	20.764850
1221.301568	-3.023900	3.570200	-10.795000	25.090993	0.000868	20.784815
1222.304597	-2.990900	3.570800	-10.679000	25.122020	0.000869	20.793676
1223.303364	-3.012900	3.569900	-10.755000	25.125277	0.000868	20.801213
1224.328745	-2.996400	3.570200	-10.697000	25.144097	0.000867	20.794027
1225.321789	-2.974300	3.570800	-10.619000	25.152371	0.000868	20.769617
1226.303734	-2.986000	3.570200	-10.659000	25.183243	0.000866	20.779746
1227.303705	-2.979100	3.568600	-10.630000	25.174073	0.000865	20.779550
1228.302849	-2.997000	3.568100	-10.692000	25.192597	0.000865	20.764481
1229.305803	-2.984700	3.569200	-10.652000	25.204520	0.000865	20.784987
1230.306513	-3.012400	3.567100	-10.744000	25.215187	0.000865	20.779574
1231.304941	-2.973000	3.568700	-10.609000	25.243131	0.000866	20.792931
1232.304056	-2.996000	3.567900	-10.689000	25.285702	0.000865	20.786834
1233.304144	-3.007400	3.567900	-10.728000	25.319655	0.000863	20.808122
1234.304210	-2.976500	3.567400	-10.618000	25.312277	0.000863	20.780800
1235.306191	-2.987800	3.567300	-10.656000	25.345824	0.000863	20.782714
1236.303421	-2.988600	3.567300	-10.661000	25.348731	0.000861	20.799384
1237.304245	-2.977700	3.566600	-10.618000	25.363394	0.000862	20.787555
1238.309070	-3.037400	3.565400	-10.829000	25.372268	0.000859	20.762325
1239.304944	-2.999100	3.565800	-10.693000	25.393616	0.000861	20.748199
1240.307074	-2.991300	3.564600	-10.662000	25.392616	0.000861	20.767584
1241.303989	-2.982300	3.565600	-10.633000	25.382276	0.000859	20.786126
1242.304230	-3.001700	3.564100	-10.697000	25.354342	0.000860	20.800276
1243.306933	-2.990100	3.564000	-10.656000	25.354391	0.000857	20.780411
1244.306640	-3.003300	3.564200	-10.704000	25.395271	0.000857	20.780208
1245.304313	-2.998300	3.563500	-10.683000	25.372059	0.000859	20.783927
1246.307055	-2.991400	3.564500	-10.662000	25.358432	0.000859	20.781149
1247.304794	-2.989100	3.563100	-10.650000	25.328534	0.000857	20.787166
1248.306202	-2.985600	3.563100	-10.636000	25.307927	0.000856	20.749405
1249.308648	-3.002100	3.561800	-10.692000	25.280439	0.000855	20.770170
1250.307603	-3.015200	3.561400	-10.737000	25.302653	0.000856	20.784887
1251.312231	-3.015300	3.561800	-10.739000	25.289154	0.000855	20.786032
1252.307469	-3.029600	3.559300	-10.782000	25.337770	0.000855	20.768938
1253.310917	-3.021700	3.561000	-10.759000	25.358818	0.000854	20.771579
1254.312543	-3.006700	3.560700	-10.704000	25.364264	0.000855	20.754288
1255.309355	-3.019800	3.559700	-10.748000	25.389830	0.000853	20.756726
1256.311367	-3.007900	3.560700	-10.709000	25.401219	0.000851	20.789499
1257.307236	-3.020900	3.560600	-10.754000	25.406278	0.000851	20.769448
1258.308062	-2.999100	3.559700	-10.674000	25.410527	0.000851	20.777509
1259.308116	-2.993200	3.560800	-10.656000	25.445163	0.000851	20.760605
1260.310233	-3.002100	3.560400	-10.687000	25.446358	0.000851	20.776505
1261.311879	-3.015400	3.558500	-10.729000	25.447474	0.000850	20.758659
1262.308768	-3.016000	3.557300	-10.728000	25.414942	0.000850	20.772459
1263.309365	-3.018400	3.557500	-10.736000	25.414065	0.000850	20.755931
1264.311530	-2.986500	3.558200	-10.625000	25.440060	0.000850	20.762594
1265.314710	-2.985400	3.557600	-10.620000	25.462645	0.000847	20.769152
1266.309270	-3.004300	3.557000	-10.684000	25.443660	0.000848	20.754354
1267.311923	-2.997100	3.556300	-10.658000	25.443733	0.000846	20.771498
1268.311009	-2.985600	3.557700	-10.620000	25.453992	0.000846	20.758566
1269.313794	-2.995700	3.556100	-10.652000	25.448270	0.000846	20.782693
1270.314941	-3.022100	3.555900	-10.744000	25.424759	0.000844	20.746754
1271.313086	-2.998200	3.555400	-10.659000	25.446351	0.000846	20.767488
1272.316599	-2.991900	3.556500	-10.639000	25.433497	0.000845	20.747468
1273.313199	-2.997700	3.555300	-10.657000	25.423655	0.000845	20.760345
1274.312868	-3.027800	3.554300	-10.760000	25.400413	0.000845	20.747911
1275.321221	-3.017300	3.554100	-10.722000	25.405656	0.000843	20.769772
1276.313100	-3.005300	3.554000	-10.680000	25.419441	0.000843	20.762752
1277.312937	-3.000600	3.552200	-10.658000	25.405453	0.000841	20.758663
1278.317666	-2.995800	3.552400	-10.641000	25.380972	0.000841	20.750202
1279.315046	-2.976800	3.552300	-10.573000	25.433803	0.000841	20.768165
1280.316038	-2.996800	3.553100	-10.647000	25.410855	0.000840	20.768355
1281.318591	-3.006700	3.551800	-10.678000	25.403098	0.000840	20.751082
1282.316082	-2.999200	3.551400	-10.650000	25.366608	0.000839	20.755694
1283.316883	-3.003100	3.551200	-10.663000	25.348210	0.000839	20.766144
1284.316338	-3.001800	3.553200	-10.665000	25.314510	0.000837	20.740366
1285.317208	-2.994000	3.549200	-10.625000	25.297030	0.000838	20.761223
1286.323578	-3.005800	3.549900	-10.669000	25.269314	0.000838	20.752362
1287.317039	-3.019700	3.549700	-10.718000	25.289989	0.000836	20.754154
1288.318384	-3.017100	3.548600	-10.705000	25.306371	0.000835	20.763964
1289.320183	-3.009500	3.549800	-10.682000	25.298410	0.000837	20.743642
1290.318789	-2.983000	3.550200	-10.589000	25.298508	0.000836	20.776458
1291.320396	-2.994000	3.549500	-10.626000	25.307928	0.000835	20.734706
1292.321609	-3.000500	3.550600	-10.653000	25.352686	0.000832	20.746930
1293.317940	-2.984400	3.547400	-10.586000	25.338372	0.000833	20.745360
1294.319406	-2.966000	3.549200	-10.526000	25.336452	0.000834	20.757657
1295.318625	-2.986000	3.548800	-10.596000	25.338188	0.000833	20.759400
1296.320241	-3.004700	3.547600	-10.657000	25.362664	0.000832	20.746043
1297.322636	-2.993000	3.547300	-10.617000	25.327026	0.000833	20.730647
1298.319709	-2.998400	3.546200	-10.632000	25.331619	0.000832	20.748062
1299.323119	-3.008400	3.546300	-10.667000	25.327240	0.000830	20.755046
1300.320195	-2.985200	3.547000	-10.587000	25.373120	0.000831	20.735204
1301.324080	-3.021600	3.546300	-10.713000	25.359597	0.000830	20.756714
1302.325183	-2.992000	3.545500	-10.606000	25.335433	0.000831	20.751892
1303.320982	-3.008900	3.545500	-10.667000	25.336752	0.000828	20.757958
1304.327419	-3.000200	3.544400	-10.633000	25.347215	0.000829	20.728633
1305.323804	-2.990700	3.545500	-10.603000	25.388242	0.000827	20.748493
1306.323509	-2.999900	3.544000	-10.630000	25.385280	0.000829	20.750260
1307.328300	-2.970600	3.545400	-10.531000	25.358315	0.000827	20.765858
1308.329286	-3.013300	3.544200	-10.678000	25.340376	0.000827	20.745950
1309.325377	-2.990400	3.544200	-10.597000	25.335077	0.000826	20.743000
1310.327340	-2.988400	3.543300	-10.588000	25.350759	0.000826	20.734089
1311.327901	-2.987300	3.543400	-10.584000	25.358958	0.000826	20.746590
1312.327249	-2.975000	3.543800	-10.541000	25.389824	0.000825	20.747236
1313.330339	-3.014000	3.543000	-10.677000	25.391388	0.000824	20.726520
1314.327172	-2.999500	3.540900	-10.619000	25.416464	0.000822	20.752649
1315.331526	-2.991000	3.541300	-10.591000	25.429133	0.000821	20.744982
1316.325120	-3.004400	3.541500	-10.639000	25.413011	0.000822	20.751553
1317.329016	-3.010800	3.539900	-10.657000	25.427723	0.000821	20.738824
1318.332703	-3.015900	3.539800	-10.674000	25.418530	0.000821	20.737654
1319.328462	-3.021000	3.539700	-10.693000	25.457624	0.000820	20.738978
1320.329507	-2.996000	3.540000	-10.605000	25.432892	0.000820	20.733110
1321.331455	-2.996300	3.538900	-10.601000	25.434106	0.000820	20.737648
1322.328457	-3.024900	3.537900	-10.701000	25.426251	0.000819	20.735924
1323.327403	-2.994300	3.540900	-10.601000	25.447806	0.000818	20.720584
1324.330569	-2.989500	3.540000	-10.581000	25.473028	0.000818	20.723152
1325.327536	-3.007500	3.538500	-10.641000	25.461192	0.000819	20.734975
1326.329606	-2.999400	3.537800	-10.609000	25.429685	0.000816	20.730837
1327.328724	-3.011400	3.536800	-10.649000	25.411165	0.000817	20.721723
1328.330247	-3.009600	3.537600	-10.646000	25.421333	0.000818	20.731933
1329.331593	-2.998100	3.537800	-10.606000	25.422798	0.000816	20.735302
1330.329297	-3.003400	3.536800	-10.622000	25.412686	0.000815	20.727992
1331.332472	-2.978600	3.536800	-10.534000	25.404953	0.000816	20.729236
1332.329539	-2.995800	3.536700	-10.595000	25.436565	0.000811	20.733953
1333.329909	-3.004000	3.536000	-10.621000	25.454827	0.000813	20.735222
1334.331683	-2.989700	3.534700	-10.567000	25.454974	0.000814	20.729679
1335.331861	-3.007200	3.534500	-10.627000	25.464117	0.000814	20.734593
1336.330905	-3.016600	3.533600	-10.659000	25.420026	0.000813	20.719241
1337.328764	-2.994900	3.534900	-10.586000	25.405265	0.000810	20.733817
1338.330372	-3.026500	3.533500	-10.692000	25.422062	0.000811	20.726501
1339.329710	-3.009400	3.534400	-10.635000	25.464957	0.000812	20.718840
1340.334794	-3.018700	3.531600	-10.660000	25.500866	0.000809	20.742100
1341.329014	-3.001500	3.532200	-10.601000	25.491644	0.000810	20.712922
1342.332269	-3.001600	3.532700	-10.603000	25.463038	0.000809	20.723077
1343.329979	-2.998400	3.533200	-10.593000	25.440520	0.000807	20.725122
1344.331222	-2.994000	3.532400	-10.574000	25.441311	0.000808	20.696990
1345.335458	-2.987800	3.533000	-10.554000	25.444745	0.000809	20.718458
1346.334991	-2.987100	3.531300	-10.546000	25.459401	0.000806	20.716106
1347.330451	-2.988500	3.529700	-10.548000	25.494520	0.000807	20.731458
1348.331161	-2.979700	3.532100	-10.524000	25.500406	0.000805	20.719825
1349.336461	-2.990500	3.530700	-10.558000	25.507139	0.000806	20.707145
1350.333074	-3.018900	3.529700	-10.654000	25.429310	0.000804	20.713390
1351.336562	-3.024800	3.528900	-10.672000	25.393441	0.000805	20.743282
1352.335104	-3.023500	3.528300	-10.667000	25.370800	0.000802	20.696836
1353.334888	-3.020700	3.528500	-10.658000	25.369800	0.000805	20.708636
1354.333268	-3.012600	3.527100	-10.624000	25.382182	0.000801	20.701628
1355.332691	-3.024600	3.528100	-10.670000	25.389565	0.000802	20.700507
1356.335785	-3.042000	3.526100	-10.724000	25.394680	0.000803	20.718446
1357.334285	-2.995200	3.528100	-10.567000	25.411379	0.000802	20.712454
1358.334853	-2.997600	3.527000	-10.571000	25.380139	0.000800	20.705267
1359.333939	-2.982300	3.528400	-10.522000	25.399745	0.000799	20.721636
1360.335636	-2.993600	3.526100	-10.554000	25.420271	0.000800	20.718064
1361.338999	-2.980800	3.528000	-10.515000	25.454838	0.000800	20.726698
1362.334573	-3.000600	3.526500	-10.580000	25.490595	0.000800	20.701910
1363.335559	-2.978100	3.527500	-10.504000	25.503570	0.000799	20.703561
1364.335468	-2.974800	3.527400	-10.492000	25.495414	0.000800	20.704380
1365.334422	-3.012600	3.525500	-10.620000	25.503735	0.000797	20.715107
1366.336916	-2.989700	3.525800	-10.540000	25.480225	0.000798	20.702877
1367.334606	-2.963900	3.526400	-10.450000	25.500326	0.000799	20.712632
1368.335721	-2.988200	3.524900	-10.533000	25.500816	0.000796	20.703640
1369.337099	-2.992600	3.524500	-10.545000	25.462601	0.000797	20.687549
1370.339276	-3.012300	3.523700	-10.613000	25.421883	0.000797	20.695025
1371.335664	-2.998000	3.523200	-10.561000	25.395163	0.000798	20.682893
1372.336808	-3.025300	3.522900	-10.657000	25.373564	0.000795	20.710993
1373.335536	-3.005400	3.521900	-10.584000	25.380666	0.000795	20.719547
1374.336681	-3.008300	3.523600	-10.599000	25.411549	0.000795	20.687018
1375.337486	-3.011900	3.522100	-10.607000	25.448681	0.000796	20.715298
1376.339176	-2.992600	3.522700	-10.541000	25.485725	0.000793	20.715039
1377.341377	-3.022300	3.520700	-10.639000	25.486393	0.000795	20.692475
1378.337804	-3.010000	3.521500	-10.597000	25.495836	0.000793	20.696742
1379.341613	-3.007700	3.521600	-10.591000	25.515286	0.000793	20.697309
1380.336792	-3.008900	3.520300	-10.591000	25.500374	0.000792	20.721215
1381.338159	-2.989300	3.521100	-10.524000	25.513434	0.000791	20.702562
1382.339185	-2.992300	3.520100	-10.532000	25.517003	0.000791	20.692868
1383.340809	-3.015700	3.519600	-10.613000	25.512582	0.000791	20.716405
1384.338130	-3.002500	3.519300	-10.565000	25.525097	0.000789	20.702894
1385.338029	-2.993800	3.518400	-10.533000	25.516193	0.000789	20.716713
1386.338898	-2.986100	3.519500	-10.509000	25.529714	0.000788	20.698047
1387.338162	-3.008200	3.517500	-10.580000	25.490617	0.000789	20.710943
1388.341640	-3.017500	3.517700	-10.614000	25.502636	0.000788	20.695984
1389.341821	-2.980000	3.518700	-10.484000	25.529849	0.000788	20.705295
1390.342710	-3.007700	3.516800	-10.577000	25.533270	0.000788	20.705886
1391.341389	-2.993300	3.518500	-10.530000	25.528996	0.000786	20.718191
1392.341074	-2.984400	3.517700	-10.496000	25.503543	0.000785	20.695473
1393.342785	-2.987000	3.516300	-10.503000	25.431073	0.000786	20.726541
1394.340461	-2.995000	3.516500	-10.530000	25.437506	0.000784	20.694118
1395.339368	-3.002300	3.514900	-10.551000	25.468124	0.000784	20.678869
1396.340011	-2.990500	3.514600	-10.510000	25.458595	0.000784	20.722883
1397.340798	-3.012200	3.513500	-10.582000	25.492242	0.000783	20.730119
1398.341891	-3.011000	3.513900	-10.579000	25.477108	0.000784	20.695953
1399.344530	-2.991200	3.514700	-10.512000	25.473526	0.000783	20.697098
1400.342964	-2.977500	3.513700	-10.461000	25.441363	0.000782	20.725020
1401.342899	-3.007300	3.512400	-10.562000	25.474391	0.000784	20.701760
1402.344937	-2.997300	3.512600	-10.527000	25.488777	0.000780	20.701507
1403.346806	-2.997700	3.512800	-10.529000	25.510441	0.000781	20.705720
1404.348142	-2.982200	3.513400	-10.476000	25.494510	0.000778	20.686875
1405.343300	-2.987100	3.511400	-10.487000	25.511459	0.000780	20.693939
1406.345078	-2.996500	3.512300	-10.524000	25.512967	0.000779	20.698299
1407.344221	-2.987500	3.511300	-10.488000	25.505480	0.000778	20.712118
1408.343910	-3.020500	3.510700	-10.603000	25.520424	0.000777	20.711952
1409.348565	-2.992600	3.510300	-10.503000	25.548127	0.000775	20.726972
1410.344796	-3.011200	3.509500	-10.566000	25.540070	0.000776	20.717457
1411.344727	-3.020900	3.509500	-10.600000	25.526647	0.000777	20.714409
1412.343832	-2.993700	3.509900	-10.506000	25.531216	0.000777	20.705720
1413.345820	-3.025800	3.507800	-10.612000	25.530075	0.000775	20.700781
1414.346749	-2.990100	3.508700	-10.491000	25.510643	0.000776	20.715407
1415.348079	-3.025300	3.507100	-10.609000	25.506860	0.000774	20.714452
1416.345349	-2.988900	3.509000	-10.487000	25.500194	0.000774	20.729096
1417.351117	-3.006000	3.507400	-10.543000	25.498110	0.000772	20.718467
1418.346195	-3.003100	3.507400	-10.531000	25.510110	0.000773	20.725777
1419.344956	-3.018400	3.507700	-10.586000	25.504836	0.000773	20.714317
1420.351190	-2.989800	3.507800	-10.486000	25.524440	0.000772	20.715037
1421.345801	-2.983900	3.507200	-10.465000	25.483393	0.000772	20.718387
1422.347841	-2.980600	3.505400	-10.447000	25.468896	0.000770	20.723745
1423.346780	-2.978800	3.504700	-10.439000	25.452622	0.000769	20.701236
1424.346763	-2.981000	3.506300	-10.451000	25.449267	0.000772	20.708300
1425.347956	-2.998000	3.504500	-10.505000	25.454204	0.000770	20.725586
1426.349839	-2.992800	3.505800	-10.491000	25.460538	0.000768	20.726257
1427.347833	-2.995500	3.504800	-10.498000	25.425308	0.000769	20.712691
1428.348339	-2.995800	3.503900	-10.496000	25.423217	0.000769	20.712013
1429.347191	-2.980300	3.505400	-10.446000	25.453333	0.000769	20.710012
1430.347816	-2.997400	3.503700	-10.500000	25.463420	0.000766	20.711607
1431.351640	-3.030400	3.501500	-10.609000	25.506682	0.000767	20.721860
1432.349567	-3.012200	3.501600	-10.547000	25.481136	0.000766	20.728450
1433.353700	-2.986400	3.502200	-10.458000	25.433397	0.000767	20.722236
1434.350008	-2.991100	3.502300	-10.474000	25.416251	0.000765	20.718295
1435.351476	-2.993400	3.500900	-10.479000	25.364179	0.000766	20.713898
1436.353969	-3.020000	3.500000	-10.569000	25.350908	0.000764	20.730445
1437.356138	-2.997000	3.502000	-10.495000	25.369183	0.000763	20.720820
1438.353891	-3.030100	3.498900	-10.601000	25.389807	0.000763	20.716398
1439.355457	-2.997800	3.499700	-10.490000	25.379940	0.000761	20.707438
1440.354824	-2.996000	3.498800	-10.481000	25.401741	0.000762	20.715579
1441.355526	-2.988600	3.499200	-10.457000	25.377131	0.000760	20.720740
1442.356643	-2.999600	3.498900	-10.494000	25.367485	0.000761	20.710104
1443.357478	-3.022500	3.498200	-10.572000	25.373458	0.000762	20.725586
1444.359187	-3.012400	3.498100	-10.536000	25.432655	0.000759	20.729078
1445.357490	-2.996700	3.498300	-10.481000	25.461256	0.000759	20.715597
1446.358023	-3.021100	3.496500	-10.562000	25.434323	0.000760	20.726485
1447.362929	-2.998900	3.497300	-10.487000	25.460661	0.000757	20.724484
1448.358327	-2.974200	3.498000	-10.403000	25.483748	0.000758	20.731547
1449.361113	-2.995400	3.497000	-10.474000	25.479848	0.000758	20.714828
1450.361685	-2.995200	3.496400	-10.472000	25.473330	0.000760	20.741000
1451.360866	-2.984000	3.497100	-10.434000	25.459520	0.000757	20.735193
1452.365149	-3.011000	3.494700	-10.521000	25.483699	0.000757	20.739559
1453.364830	-2.977900	3.495700	-10.408000	25.515831	0.000756	20.738635
1454.362376	-2.999400	3.494500	-10.480000	25.505762	0.000756	20.728524
1455.362430	-2.993300	3.494200	-10.458000	25.508178	0.000755	20.731424
1456.363038	-2.991700	3.494600	-10.453000	25.515187	0.000756	20.731824
1457.363455	-3.017800	3.494000	-10.543000	25.524452	0.000755	20.737810
1458.365602	-2.984700	3.494100	-10.427000	25.553553	0.000756	20.707290
1459.365270	-2.998200	3.491900	-10.468000	25.582470	0.000754	20.723055
1460.367813	-2.997100	3.491600	-10.463000	25.601459	0.000752	20.708934
1461.364266	-3.009100	3.493500	-10.511000	25.605364	0.000753	20.747946
1462.364850	-2.995200	3.492100	-10.458000	25.611919	0.000751	20.727027
1463.366515	-2.980000	3.491900	-10.405000	25.611925	0.000751	20.723240
1464.364821	-3.014800	3.491100	-10.524000	25.595646	0.000753	20.748143
1465.366020	-3.000600	3.490900	-10.474000	25.559667	0.000751	20.734768
1466.366087	-2.980300	3.489400	-10.397000	25.566994	0.000751	20.721737
1467.367397	-2.991300	3.489300	-10.437000	25.573285	0.000750	20.723314
1468.365890	-2.993300	3.490600	-10.447000	25.596020	0.000748	20.738087
1469.367410	-3.000500	3.489600	-10.468000	25.613685	0.000749	20.736388
1470.368415	-2.978700	3.490400	-10.395000	25.607351	0.000748	20.743303
1471.366994	-3.001600	3.487500	-10.466000	25.634059	0.000748	20.735513
1472.368841	-3.011600	3.487500	-10.502000	25.669196	0.000747	20.741881
1473.369241	-2.988500	3.488800	-10.425000	25.669043	0.000746	20.742675
1474.369709	-3.028800	3.487400	-10.561000	25.703033	0.000747	20.721337
1475.367657	-2.994400	3.486600	-10.439000	25.680649	0.000745	20.725882
1476.375459	-2.972100	3.486900	-10.362000	25.726863	0.000744	20.736264
1477.368363	-3.015500	3.485400	-10.509000	25.736567	0.000744	20.750280
1478.369476	-2.975300	3.486700	-10.373000	25.738008	0.000744	20.739399
1479.370314	-2.985000	3.486400	-10.406000	25.717115	0.000746	20.743543
1480.372999	-3.000700	3.486600	-10.461000	25.700917	0.000744	20.742921
1481.370244	-2.986800	3.486100	-10.411000	25.673187	0.000742	20.738777
1482.370557	-2.990800	3.485600	-10.424000	25.667191	0.000741	20.750299
1483.369880	-3.006200	3.484400	-10.474000	25.673083	0.000740	20.737724
1484.370739	-2.999600	3.483800	-10.449000	25.682132	0.000741	20.749658
1485.373129	-3.008800	3.483600	-10.480000	25.703051	0.000743	20.737003
1486.373064	-3.001900	3.483600	-10.457000	25.710653	0.000741	20.738001
1487.378541	-3.030500	3.482000	-10.551000	25.702530	0.000739	20.751654
1488.372224	-2.982000	3.483400	-10.387000	25.674953	0.000741	20.741499
1489.373590	-3.024000	3.480000	-10.522000	25.648608	0.000742	20.764826
1490.379994	-2.999200	3.481200	-10.440000	25.655536	0.000741	20.742860
1491.375862	-2.991300	3.481100	-10.412000	25.705154	0.000740	20.738167
1492.373344	-2.990200	3.482200	-10.412000	25.700139	0.000739	20.732182
1493.374168	-2.990300	3.481200	-10.409000	25.686774	0.000736	20.743888
1494.372863	-2.986200	3.480800	-10.393000	25.675959	0.000739	20.758631
1495.373243	-3.004500	3.479800	-10.454000	25.676909	0.000739	20.744886
1496.372585	-3.021400	3.479100	-10.511000	25.664261	0.000736	20.741191
1497.375733	-3.004000	3.479200	-10.451000	25.628780	0.000736	20.750126
1498.373775	-3.009900	3.478800	-10.469000	25.640674	0.000737	20.757805
1499.373647	-3.025800	3.477700	-10.521000	25.633697	0.000733	20.745107
1500.375896	-3.035300	3.477100	-10.552000	25.630417	0.000732	20.738968
1501.374153	-2.990200	3.476600	-10.394000	25.639589	0.000734	20.755293
1502.375989	-2.976400	3.479200	-10.353000	25.601649	0.000734	20.765078
1503.374514	-2.984300	3.476300	-10.373000	25.602188	0.000733	20.759930
1504.372437	-2.996000	3.476200	-10.414000	25.598142	0.000734	20.744011
1505.379230	-3.042600	3.474100	-10.569000	25.624684	0.000732	20.757867
1506.375026	-2.986100	3.475800	-10.377000	25.592850	0.000734	20.758138
1507.373390	-3.010300	3.475200	-10.460000	25.595579	0.000731	20.768465
1508.375809	-3.012600	3.474700	-10.467000	25.584873	0.000730	20.758187
1509.374998	-2.988300	3.474500	-10.382000	25.570654	0.000731	20.751019
1510.376738	-3.004700	3.474300	-10.439000	25.609571	0.000731	20.765448
1511.379385	-3.006600	3.473600	-10.443000	25.609117	0.000730	20.765940
1512.376693	-3.011800	3.473300	-10.459000	25.597296	0.000728	20.760232
1513.378362	-3.007600	3.473600	-10.445000	25.547152	0.000729	20.778626
1514.378812	-3.005600	3.472600	-10.436000	25.535869	0.000729	20.771088
1515.379266	-3.002300	3.472200	-10.423000	25.515567	0.000729	20.773933
1516.383870	-2.995700	3.472900	-10.403000	25.508534	0.000729	20.759283
1517.379841	-3.011300	3.471800	-10.453000	25.553216	0.000726	20.743463
1518.380128	-2.965500	3.472800	-10.297000	25.546894	0.000729	20.766513
1519.380285	-2.974500	3.472700	-10.328000	25.551904	0.000726	20.779605
1520.379998	-2.983900	3.471600	-10.358000	25.548237	0.000725	20.783035
1521.381630	-2.971300	3.471500	-10.313000	25.580722	0.000725	20.772511
1522.380839	-2.986400	3.470000	-10.362000	25.609675	0.000726	20.775035
1523.382864	-3.007700	3.470200	-10.436000	25.612894	0.000725	20.751715
1524.380517	-3.003600	3.470200	-10.422000	25.594592	0.000724	20.759887
1525.380994	-3.023900	3.468800	-10.488000	25.580569	0.000723	20.785633
1526.383007	-3.004600	3.468300	-10.420000	25.566638	0.000720	20.777807
1527.381316	-3.037700	3.467100	-10.531000	25.543350	0.000721	20.776230
1528.380566	-2.983600	3.468200	-10.347000	25.480805	0.000722	20.752774
1529.382437	-2.997100	3.468700	-10.395000	25.484674	0.000720	20.768514
1530.382296	-3.001000	3.467800	-10.404000	25.513329	0.000721	20.787333
1531.386506	-3.009300	3.467100	-10.432000	25.519767	0.000720	20.780522
1532.386627	-2.986200	3.466300	-10.350000	25.550978	0.000719	20.781046
1533.383788	-2.987800	3.466100	-10.355000	25.561886	0.000719	20.766396
1534.382298	-3.003100	3.466100	-10.408000	25.593739	0.000719	20.775627
1535.382783	-3.005900	3.465400	-10.416000	25.621993	0.000718	20.791674
1536.384173	-3.001600	3.464600	-10.398000	25.641772	0.000718	20.759382
1537.386382	-3.013100	3.462700	-10.432000	25.672354	0.000717	20.757381
1538.383915	-3.015300	3.463900	-10.443000	25.688925	0.000716	20.784457
1539.384301	-2.992900	3.464300	-10.367000	25.713375	0.000717	20.788152
1540.383793	-2.977200	3.465600	-10.316000	25.719739	0.000718	20.778422
1541.387915	-3.019600	3.463500	-10.458000	25.723331	0.000716	20.779660
1542.385786	-2.985400	3.463600	-10.338000	25.718218	0.000717	20.780688
1543.385141	-2.999100	3.463300	-10.385000	25.725949	0.000715	20.784660
1544.385403	-3.002700	3.461400	-10.392000	25.727948	0.000715	20.781452
1545.386169	-2.982600	3.461300	-10.322000	25.728775	0.000716	20.775645
1546.389468	-3.004700	3.462000	-10.400000	25.751900	0.000717	20.787493
1547.386860	-3.027400	3.460200	-10.475000	25.749883	0.000716	20.766975
1548.388830	-3.005300	3.460100	-10.397000	25.731596	0.000714	20.798392
1549.391743	-3.005200	3.460100	-10.397000	25.721431	0.000714	20.798140
1550.388978	-3.002800	3.461600	-10.393000	25.706993	0.000713	20.788854
1551.389724	-3.001400	3.458700	-10.380000	25.691838	0.000711	20.775528
1552.388496	-2.996400	3.459300	-10.364000	25.658908	0.000714	20.786551
1553.392361	-2.964100	3.459700	-10.253000	25.637413	0.000711	20.795782
1554.389799	-2.971400	3.459000	-10.277000	25.612986	0.000713	20.774093
1555.394946	-3.004200	3.458500	-10.388000	25.622152	0.000711	20.806059
1556.391867	-2.994800	3.457000	-10.352000	25.614365	0.000710	20.782591
1557.394665	-3.015900	3.456900	-10.425000	25.645475	0.000709	20.798189
1558.399984	-3.030600	3.455500	-10.470000	25.682893	0.000708	20.806373
1559.404979	-2.995100	3.457200	-10.353000	25.693315	0.000707	20.781754
1560.392492	-3.011800	3.454300	-10.402000	25.703572	0.000708	20.802962
1561.391413	-3.029400	3.455300	-10.465000	25.717367	0.000708	20.801644
1562.392999	-3.011200	3.455300	-10.404000	25.685535	0.000706	20.813769
1563.394008	-3.010700	3.454400	-10.400000	25.672035	0.000707	20.798787
1564.395782	-2.984100	3.454600	-10.308000	25.647511	0.000704	20.820148
1565.393697	-2.988900	3.453900	-10.322000	25.689306	0.000703	20.805228
1566.401612	-2.979000	3.454700	-10.290000	25.652925	0.000705	20.802352
1567.393865	-3.001700	3.454100	-10.366000	25.650761	0.000703	20.811558
1568.393418	-2.974000	3.453700	-10.270000	25.657965	0.000705	20.817371
1569.394475	-2.989300	3.453600	-10.323000	25.660000	0.000703	20.806614
1570.391402	-2.992100	3.452600	-10.329000	25.686437	0.000706	20.799027
1571.393665	-3.007000	3.452200	-10.380000	25.704370	0.000703	20.793805
1572.393780	-3.017300	3.451700	-10.413000	25.704842	0.000703	20.809927
1573.400581	-2.992700	3.452400	-10.330000	25.746254	0.000703	20.810271
1574.397204	-3.026400	3.450400	-10.440000	25.748290	0.000702	20.798566
1575.398041	-2.978900	3.451900	-10.282000	25.745660	0.000701	20.817260
1576.395981	-3.005700	3.450800	-10.371000	25.746426	0.000701	20.820401
1577.396674	-2.983500	3.451400	-10.296000	25.747542	0.000701	20.821522
1578.402698	-2.984100	3.450100	-10.295000	25.748928	0.000702	20.790197
1579.397696	-3.009800	3.448500	-10.378000	25.684800	0.000701	20.825832
1580.402449	-3.002900	3.448900	-10.355000	25.692304	0.000700	20.832895
1581.397640	-2.994200	3.449000	-10.326000	25.647806	0.000698	20.806220
1582.405270	-2.989200	3.449000	-10.308000	25.627647	0.000700	20.825801
1583.402646	-2.986100	3.449700	-10.300000	25.631325	0.000702	20.821436
1584.400494	-2.992800	3.447500	-10.317000	25.646978	0.000699	20.824354
1585.400366	-3.002000	3.447700	-10.348000	25.645464	0.000698	20.834687
1586.401966	-3.006300	3.446100	-10.359000	25.656941	0.000699	20.827723
1587.399972	-3.000000	3.445600	-10.335000	25.674948	0.000697	20.819256
1588.413303	-2.991100	3.446000	-10.306000	25.673084	0.000697	20.829238
1589.402980	-3.007000	3.446100	-10.362000	25.678179	0.000697	20.822501
1590.400891	-2.989900	3.445600	-10.301000	25.685389	0.000696	20.822630
1591.404910	-2.989400	3.446400	-10.301000	25.705958	0.000695	20.826220
1592.402328	-2.975800	3.445600	-10.253000	25.726134	0.000697	20.844114
1593.408337	-2.993600	3.444300	-10.309000	25.703377	0.000694	20.833585
1594.407516	-2.996200	3.443900	-10.316000	25.700784	0.000693	20.817230
1595.408579	-2.996400	3.443400	-10.317000	25.707423	0.000693	20.830063
1596.408854	-2.989700	3.442800	-10.292000	25.719298	0.000692	20.818283
1597.404756	-3.020500	3.442000	-10.395000	25.709158	0.000692	20.830857
1598.405328	-3.034300	3.441400	-10.442000	25.695989	0.000692	20.817630
1599.405637	-2.988000	3.441400	-10.282000	25.648119	0.000692	20.830241
1600.406753	-3.024600	3.440300	-10.404000	25.630443	0.000691	20.845679
1601.404894	-3.009500	3.441500	-10.356000	25.620596	0.000691	20.830100
1602.406777	-3.027100	3.440000	-10.412000	25.649823	0.000693	20.825789
1603.403763	-3.018300	3.438900	-10.378000	25.658388	0.000690	20.848616
1604.405852	-3.001100	3.439700	-10.322000	25.695211	0.000691	20.829176
1605.405846	-2.996600	3.440200	-10.307000	25.729641	0.000690	20.844318
1606.407797	-2.981500	3.439600	-10.254000	25.700821	0.000691	20.830069
1607.409629	-2.985300	3.439900	-10.268000	25.707749	0.000690	20.853622
1608.406422	-2.987300	3.439000	-10.271000	25.695548	0.000690	20.836627
1609.408006	-2.986600	3.439300	-10.270000	25.685831	0.000687	20.848678
1610.406068	-2.988300	3.438300	-10.274000	25.678848	0.000688	20.864422
1611.406815	-2.967500	3.439300	-10.205000	25.706498	0.000688	20.830082
1612.409213	-3.008200	3.437400	-10.340000	25.733700	0.000687	20.836067
1613.408509	-2.986100	3.436900	-10.262000	25.735110	0.000688	20.837483
1614.406398	-2.997000	3.437300	-10.299000	25.727312	0.000686	20.862840
1615.407514	-3.000300	3.436700	-10.309000	25.734608	0.000686	20.841246
1616.408644	-3.021300	3.434500	-10.376000	25.743626	0.000686	20.857416
1617.407833	-3.012700	3.435800	-10.349000	25.687965	0.000684	20.823795
1618.411457	-3.000300	3.435600	-10.306000	25.714278	0.000684	20.860180
1619.410000	-2.997000	3.435200	-10.295000	25.737906	0.000685	20.859731
1620.413181	-3.019000	3.434700	-10.368000	25.739065	0.000683	20.857102
1621.410050	-2.989400	3.436300	-10.271000	25.775707	0.000683	20.859768
1622.410686	-3.003200	3.434200	-10.312000	25.774518	0.000681	20.839608
1623.414542	-3.020700	3.432300	-10.366000	25.732205	0.000680	20.834091
1624.412906	-3.003200	3.433500	-10.311000	25.746789	0.000681	20.854430
1625.409242	-2.999400	3.432900	-10.296000	25.727607	0.000681	20.839904
1626.412921	-3.004500	3.432800	-10.312000	25.708773	0.000679	20.853703
1627.410972	-2.984000	3.431800	-10.239000	25.737863	0.000679	20.852102
1628.410959	-3.008500	3.431200	-10.322000	25.763054	0.000679	20.846585
1629.409790	-3.004800	3.431900	-10.311000	25.779919	0.000675	20.865421
1630.410219	-3.011900	3.429900	-10.329000	25.723849	0.000677	20.854621
1631.409369	-2.998400	3.431700	-10.288000	25.706805	0.000676	20.852675
1632.410331	-3.008700	3.429700	-10.319000	25.665263	0.000677	20.844141
1633.411369	-3.000200	3.428900	-10.286000	25.647176	0.000676	20.862958
1634.409281	-3.012700	3.429400	-10.331000	25.641382	0.000676	20.846234
1635.410975	-3.000400	3.429600	-10.289000	25.673730	0.000677	20.847903
1636.412229	-2.999200	3.429900	-10.286000	25.702036	0.000675	20.842195
1637.411009	-2.979600	3.430200	-10.219000	25.725811	0.000676	20.867970
1638.412817	-2.993200	3.428800	-10.263000	25.743350	0.000672	20.844338
1639.412177	-3.002000	3.427300	-10.288000	25.734952	0.000674	20.864350
1640.412124	-2.985900	3.429000	-10.237000	25.740126	0.000673	20.845366
1641.412610	-3.003300	3.427800	-10.294000	25.746882	0.000672	20.840298
1642.413255	-3.000200	3.426200	-10.278000	25.765095	0.000673	20.815920
1643.414240	-2.991700	3.426700	-10.250000	25.779183	0.000670	20.854251
1644.415772	-3.000700	3.426400	-10.281000	25.774138	0.000671	20.829270
1645.414588	-3.000300	3.425200	-10.275000	25.742388	0.000670	20.829147
1646.414614	-3.014800	3.426400	-10.329000	25.755262	0.000670	20.818845
1647.414703	-3.032700	3.423400	-10.380000	25.747580	0.000669	20.837207
1648.420402	-3.012400	3.422300	-10.308000	25.727006	0.000669	20.833611
1649.414087	-3.000700	3.425100	-10.277000	25.725326	0.000668	20.830975
1650.412740	-2.988100	3.424800	-10.231000	25.712531	0.000667	20.839935
1651.413977	-2.999900	3.423000	-10.268000	25.688082	0.000670	20.813955
1652.415471	-2.962800	3.424100	-10.144000	25.654913	0.000669	20.833272
1653.415621	-3.005300	3.422300	-10.284000	25.619904	0.000667	20.826560
1654.418297	-2.987000	3.422000	-10.219000	25.643135	0.000668	20.825236
1655.415221	-2.988400	3.421900	-10.225000	25.644006	0.000667	20.817576
1656.415261	-3.000400	3.421800	-10.266000	25.703519	0.000667	20.819503
1657.419307	-2.996800	3.421300	-10.251000	25.710925	0.000665	20.817459
1658.417241	-2.971200	3.421400	-10.164000	25.677923	0.000668	20.822244
1659.417190	-3.023200	3.420600	-10.340000	25.679277	0.000665	20.815070
1660.421598	-3.014500	3.420400	-10.310000	25.694157	0.000667	20.819583
1661.418646	-3.010900	3.420100	-10.297000	25.717068	0.000665	20.788068
1662.417737	-3.001200	3.419400	-10.262000	25.763256	0.000663	20.820236
1663.422395	-2.991900	3.418800	-10.228000	25.822112	0.000662	20.804915
1664.418833	-3.005800	3.419400	-10.275000	25.812126	0.000661	20.815747
1665.421612	-3.010500	3.417100	-10.285000	25.838136	0.000661	20.813425
1666.422819	-3.014100	3.418000	-10.300000	25.827133	0.000659	20.816122
1667.419994	-3.015300	3.417100	-10.302000	25.786913	0.000662	20.820291
1668.418028	-3.007500	3.417200	-10.277000	25.734895	0.000662	20.811664
1669.422067	-2.997800	3.416900	-10.242000	25.721702	0.000659	20.794619
1670.419733	-3.001000	3.416600	-10.253000	25.736876	0.000660	20.785678
1671.420685	-2.992800	3.417100	-10.226000	25.733473	0.000660	20.810710
1672.424953	-2.985400	3.416600	-10.199000	25.748407	0.000659	20.819546
1673.423335	-3.013500	3.416700	-10.295000	25.781879	0.000657	20.780622
1674.421986	-3.000900	3.417100	-10.253000	25.794471	0.000659	20.814133
1675.427866	-2.987400	3.416900	-10.205000	25.803243	0.000658	20.799712
1676.425224	-3.010000	3.416000	-10.280000	25.830897	0.000657	20.793351
1677.424336	-3.005900	3.415500	-10.266000	25.826679	0.000660	20.793381
1678.430066	-2.986600	3.414400	-10.197000	25.829658	0.000657	20.796374
1679.426712	-3.013500	3.413600	-10.286000	25.850102	0.000655	20.805531
1680.427513	-3.005800	3.412400	-10.255000	25.842850	0.000655	20.800143
1681.428854	-3.010900	3.412800	-10.275000	25.829388	0.000656	20.781878
1682.427289	-2.990100	3.413200	-10.205000	25.814799	0.000653	20.785715
1683.425241	-3.011800	3.411700	-10.273000	25.851328	0.000653	20.812926
1684.430185	-2.978500	3.412800	-10.163000	25.829192	0.000653	20.790216
1685.429838	-3.020400	3.410400	-10.299000	25.839724	0.000654	20.803166
1686.426929	-2.986100	3.412600	-10.189000	25.823926	0.000652	20.796306
1687.430137	-3.004900	3.411200	-10.250000	25.827175	0.000651	20.789613
1688.428828	-2.998800	3.410600	-10.226000	25.860265	0.000652	20.780179
1689.427102	-2.996700	3.411500	-10.222000	25.831571	0.000651	20.803037
1690.430706	-3.003600	3.409900	-10.241000	25.804641	0.000654	20.776934
1691.429215	-2.987100	3.410700	-10.187000	25.784442	0.000652	20.797895
1692.425868	-2.992700	3.409700	-10.203000	25.751852	0.000651	20.795506
1693.435407	-3.018100	3.408200	-10.286000	25.705732	0.000650	20.785690
1694.429702	-2.996500	3.408300	-10.212000	25.693016	0.000651	20.778609
1695.431100	-3.019900	3.407100	-10.288000	25.726276	0.000650	20.790204
1696.432338	-3.003300	3.407400	-10.232000	25.736587	0.000649	20.794872
1697.435884	-2.991300	3.407100	-10.189000	25.780868	0.000649	20.805685
1698.429042	-3.011900	3.406800	-10.259000	25.734031	0.000647	20.795623
1699.431985	-3.015700	3.405300	-10.269000	25.739021	0.000648	20.768867
1700.432598	-2.996800	3.406400	-10.207000	25.706498	0.000648	20.778873
1701.428990	-2.987100	3.405500	-10.172000	25.715743	0.000647	20.781996
1702.434505	-2.984500	3.406000	-10.164000	25.729678	0.000646	20.793622
1703.432929	-3.006600	3.404800	-10.236000	25.767663	0.000647	20.800482
1704.432160	-2.998500	3.404900	-10.209000	25.788132	0.000646	20.781214
1705.435112	-2.992100	3.405800	-10.189000	25.758946	0.000646	20.775129
1706.433580	-2.993400	3.404600	-10.191000	25.753661	0.000646	20.792107
1707.433712	-3.004900	3.404300	-10.229000	25.810594	0.000643	20.766317
1708.443526	-3.019700	3.404200	-10.279000	25.805622	0.000644	20.773652
1709.432217	-2.992900	3.404300	-10.187000	25.780727	0.000643	20.775672
1710.433990	-2.980700	3.403100	-10.143000	25.805493	0.000643	20.780161
1711.432573	-2.999500	3.404000	-10.209000	25.834814	0.000643	20.787328
1712.433985	-2.995800	3.402300	-10.192000	25.844941	0.000642	20.788967
1713.432551	-3.013600	3.401000	-10.248000	25.867137	0.000641	20.772857
1714.433477	-2.973000	3.403200	-10.117000	25.866610	0.000641	20.776595
1715.432560	-2.999800	3.402000	-10.204000	25.884325	0.000642	20.789650
1716.435445	-2.998200	3.402500	-10.201000	25.885073	0.000641	20.786608
1717.434652	-3.000800	3.400500	-10.203000	25.880721	0.000643	20.778443
1718.434326	-2.991600	3.401200	-10.173000	25.824258	0.000641	20.774828
1719.433820	-2.999400	3.400800	-10.199000	25.858120	0.000639	20.764747
1720.434414	-2.996100	3.401300	-10.190000	25.852437	0.000639	20.796497
1721.439486	-3.002100	3.400500	-10.206000	25.897645	0.000640	20.768417
1722.434818	-3.020400	3.399600	-10.266000	25.878128	0.000638	20.759716
1723.434874	-3.012100	3.398300	-10.235000	25.904117	0.000639	20.775868
1724.438250	-3.021000	3.398100	-10.264000	25.909279	0.000638	20.769673
1725.434815	-3.008400	3.397900	-10.221000	25.885263	0.000637	20.774470
1726.435162	-2.994400	3.398200	-10.175000	25.844720	0.000637	20.786374
1727.437739	-2.990900	3.397900	-10.162000	25.838191	0.000635	20.762271
1728.435444	-2.967000	3.398000	-10.081000	25.815712	0.000635	20.767666
1729.439466	-2.997600	3.397400	-10.183000	25.834194	0.000635	20.769162
1730.438484	-2.983200	3.398000	-10.135000	25.817085	0.000632	20.769519
1731.436872	-3.004200	3.397100	-10.205000	25.802771	0.000633	20.776952
1732.436578	-2.987600	3.396600	-10.147000	25.777686	0.000634	20.765504
1733.439008	-3.002700	3.396500	-10.198000	25.729034	0.000634	20.783491
1734.438230	-2.988300	3.396800	-10.149000	25.731229	0.000632	20.777161
1735.436447	-2.974000	3.396000	-10.098000	25.755015	0.000630	20.762646
1736.439574	-2.998300	3.395100	-10.178000	25.763604	0.000629	20.759420
1737.436268	-3.018400	3.393000	-10.241000	25.754764	0.000630	20.774248
1738.436713	-3.017200	3.393400	-10.237000	25.785520	0.000630	20.772900
1739.437674	-3.001100	3.393600	-10.183000	25.790492	0.000628	20.777894
1740.436603	-3.004900	3.393100	-10.195000	25.801906	0.000628	20.767548
1741.437983	-2.987400	3.394100	-10.139000	25.776116	0.000627	20.757289
1742.440652	-2.999800	3.391500	-10.172000	25.768986	0.000627	20.756291
1743.441636	-2.976000	3.391600	-10.092000	25.747965	0.000626	20.769315
1744.444280	-3.000200	3.392300	-10.176000	25.757535	0.000627	20.752375
1745.442902	-2.992300	3.391600	-10.148000	25.727151	0.000627	20.775436
1746.441450	-2.995800	3.391500	-10.159000	25.737512	0.000625	20.748858
1747.442352	-3.014400	3.390700	-10.220000	25.754604	0.000626	20.751802
1748.446594	-2.998300	3.391700	-10.166000	25.758381	0.000624	20.745164
1749.441196	-3.002000	3.389200	-10.173000	25.803494	0.000624	20.749702
1750.441236	-3.002100	3.389500	-10.174000	25.820094	0.000623	20.761636
1751.446623	-3.015000	3.389300	-10.218000	25.845982	0.000622	20.769623
1752.443033	-3.024500	3.388700	-10.247000	25.793091	0.000621	20.757744
1753.443046	-3.008300	3.388800	-10.193000	25.756793	0.000622	20.762061
1754.447747	-3.015200	3.387900	-10.214000	25.743128	0.000622	20.759241
1755.446077	-3.000700	3.387500	-10.163000	25.710016	0.000623	20.744948
1756.444343	-3.013500	3.386300	-10.204000	25.658510	0.000623	20.749640
1757.447059	-3.000800	3.387600	-10.165000	25.656297	0.000620	20.745521
1758.446370	-3.004500	3.387800	-10.178000	25.691035	0.000620	20.744849
1759.444909	-2.991300	3.386900	-10.130000	25.720702	0.000621	20.766113
1760.448141	-3.044300	3.384400	-10.302000	25.762145	0.000620	20.753212
1761.445746	-3.001200	3.385200	-10.159000	25.781179	0.000618	20.741986
1762.445545	-2.996600	3.385700	-10.145000	25.830693	0.000619	20.752842
1763.448425	-3.012400	3.385900	-10.197000	25.848384	0.000619	20.747380
1764.448103	-2.976800	3.385300	-10.077000	25.855268	0.000616	20.751451
1765.447956	-3.003400	3.386100	-10.168000	25.863599	0.000618	20.765035
1766.450397	-2.983500	3.385500	-10.100000	25.867994	0.000617	20.741949
1767.449996	-2.993700	3.384000	-10.129000	25.888044	0.000616	20.756876
1768.445022	-3.015100	3.384200	-10.202000	25.899623	0.000616	20.766138
1769.449323	-2.998100	3.384400	-10.146000	25.848170	0.000614	20.748113
1770.448269	-3.022600	3.382700	-10.224000	25.822289	0.000614	20.749141
1771.444813	-3.004000	3.383600	-10.163000	25.828578	0.000615	20.745502
1772.450093	-3.004300	3.382300	-10.160000	25.863733	0.000614	20.742885
1773.447821	-2.989600	3.382400	-10.111000	25.878175	0.000615	20.731313
1774.445541	-3.005500	3.380900	-10.160000	25.867791	0.000613	20.737004
1775.449040	-3.004400	3.382100	-10.160000	25.863887	0.000613	20.740668
1776.445548	-2.992500	3.381500	-10.118000	25.864389	0.000610	20.739276
1777.444981	-2.985400	3.381400	-10.094000	25.895841	0.000611	20.733413
1778.445526	-3.002500	3.381500	-10.152000	25.902645	0.000612	20.738826
1779.446898	-2.969500	3.380300	-10.037000	25.891698	0.000611	20.733518
1780.446984	-2.996700	3.381100	-10.132000	25.883747	0.000612	20.744498
1781.446370	-3.003600	3.379400	-10.150000	25.888044	0.000609	20.722261
1782.448796	-2.994300	3.379400	-10.118000	25.891722	0.000610	20.745871
1783.446979	-3.006700	3.380400	-10.163000	25.901517	0.000610	20.710191
1784.447269	-3.001500	3.377800	-10.137000	25.919495	0.000608	20.718769
1785.448189	-3.011700	3.378400	-10.174000	25.919802	0.000608	20.748476
1786.448178	-3.007500	3.376300	-10.153000	25.935849	0.000609	20.713387
1787.449180	-2.986200	3.378000	-10.085000	25.962279	0.000607	20.724767
1788.448707	-3.008600	3.377300	-10.159000	25.945215	0.000606	20.723745
1789.446913	-3.012200	3.377600	-10.172000	25.958773	0.000605	20.711287
1790.449386	-3.014100	3.376600	-10.176000	25.924522	0.000605	20.719551
1791.449964	-3.022300	3.376900	-10.205000	25.924056	0.000603	20.725247
1792.450451	-2.995500	3.377300	-10.116000	25.907261	0.000606	20.730661
1793.449082	-2.986000	3.377300	-10.084000	25.934409	0.000603	20.713836
1794.453239	-2.994600	3.375700	-10.108000	25.919085	0.000603	20.719779
1795.450591	-3.001900	3.376100	-10.134000	25.919134	0.000603	20.713664
1796.451152	-3.000900	3.374900	-10.127000	25.889399	0.000601	20.724096
1797.451226	-2.998500	3.375000	-10.119000	25.885666	0.000602	20.722716
1798.451076	-3.000500	3.375500	-10.126000	25.871592	0.000602	20.696248
1799.450870	-3.005600	3.374200	-10.140000	25.843118	0.000600	20.737348
1800.451307	-2.989700	3.374200	-10.087000	25.834965	0.000600	20.703078
1801.455036	-3.031400	3.372500	-10.223000	25.830319	0.000600	20.706471
1802.452734	-2.999200	3.373200	-10.116000	25.836283	0.000599	20.707721
1803.453946	-2.994400	3.373000	-10.099000	25.848212	0.000598	20.714963
1804.454283	-3.005700	3.373300	-10.138000	25.873247	0.000597	20.706920
1805.455301	-2.997100	3.371700	-10.104000	25.919330	0.000597	20.720974
1806.455458	-3.024200	3.370800	-10.192000	25.869373	0.000597	20.716306
1807.455085	-2.991200	3.372400	-10.086000	25.856782	0.000598	20.695595
1808.455840	-3.019300	3.370700	-10.177000	25.865750	0.000596	20.704605
1809.454506	-3.020400	3.371100	-10.180000	25.904748	0.000597	20.731929
1810.455505	-3.007700	3.370800	-10.138000	25.867442	0.000597	20.709624
1811.454983	-3.039100	3.369300	-10.238000	25.827891	0.000596	20.712093
1812.455471	-2.994600	3.369700	-10.089000	25.815570	0.000597	20.696396
1813.456637	-3.025300	3.369700	-10.194000	25.850002	0.000597	20.709649
1814.457567	-3.004700	3.368900	-10.121000	25.859393	0.000593	20.729041
1815.456981	-3.017200	3.367600	-10.160000	25.880940	0.000594	20.709433
1816.456428	-3.009400	3.368100	-10.135000	25.933428	0.000594	20.705738
1817.457919	-2.991500	3.368200	-10.075000	25.963732	0.000594	20.716743
1818.457395	-3.008000	3.367700	-10.130000	25.978166	0.000593	20.709907
1819.457817	-3.013200	3.368700	-10.149000	26.003669	0.000591	20.700916
1820.458278	-3.027000	3.366400	-10.188000	26.012587	0.000593	20.692331
1821.457746	-3.011600	3.368000	-10.142000	25.959680	0.000591	20.695601
1822.459908	-3.004700	3.366700	-10.115000	25.924730	0.000591	20.697948
1823.462264	-3.015100	3.366400	-10.149000	25.899611	0.000592	20.683143
1824.458982	-3.018900	3.365500	-10.159000	25.819321	0.000591	20.671713
1825.459734	-2.998900	3.366000	-10.094000	25.773210	0.000591	20.705529
1826.458329	-3.025000	3.364100	-10.176000	25.744016	0.000590	20.697541
1827.461389	-2.992200	3.365700	-10.070000	25.690397	0.000589	20.698213
1828.460056	-3.024600	3.364300	-10.174000	25.696614	0.000588	20.706354
1829.460117	-3.026100	3.364300	-10.179000	25.720162	0.000587	20.699660
1830.460153	-3.028700	3.363000	-10.184000	25.715515	0.000588	20.707795
1831.462470	-3.011400	3.364000	-10.130000	25.766294	0.000588	20.708066
1832.463367	-2.993300	3.363800	-10.068000	25.801004	0.000586	20.690299
1833.462070	-3.029800	3.361300	-10.182000	25.816998	0.000585	20.697357
1834.461813	-3.015100	3.362800	-10.138000	25.810739	0.000587	20.689646
1835.462125	-3.008800	3.362800	-10.118000	25.811181	0.000585	20.703367
1836.462375	-2.998900	3.363100	-10.085000	25.862305	0.000585	20.676486
1837.461862	-3.006100	3.362400	-10.107000	25.888044	0.000583	20.698077
1838.463074	-3.025600	3.360900	-10.167000	25.925827	0.000582	20.672021
1839.461760	-3.008500	3.362300	-10.115000	25.932067	0.000584	20.700103
1840.464598	-3.020300	3.361100	-10.151000	25.955292	0.000583	20.688821
1841.462712	-2.994200	3.361100	-10.063000	25.989444	0.000582	20.704642
1842.462589	-2.993500	3.362200	-10.063000	26.002511	0.000582	20.686949
1843.465706	-2.992700	3.360000	-10.055000	26.058995	0.000582	20.673998
1844.463781	-3.011500	3.358300	-10.113000	26.057408	0.000582	20.675722
1845.466089	-2.991200	3.359900	-10.049000	26.032366	0.000580	20.680908
1846.468424	-2.990900	3.360100	-10.049000	26.036043	0.000579	20.666109
1847.467415	-2.976800	3.361000	-10.004000	26.034357	0.000578	20.672477
1848.468887	-2.994000	3.357900	-10.053000	26.026733	0.000580	20.693742
1849.468333	-3.006000	3.358400	-10.094000	26.009425	0.000580	20.690102
1850.467399	-3.006400	3.358000	-10.094000	25.979913	0.000576	20.691272
1851.468860	-3.027400	3.356400	-10.159000	25.959000	0.000579	20.707721
1852.468855	-3.016000	3.357400	-10.125000	25.936051	0.000578	20.682293
1853.469388	-2.988800	3.357500	-10.034000	25.930106	0.000574	20.676319
1854.470016	-3.015800	3.356400	-10.121000	25.962175	0.000575	20.671553
1855.470201	-3.009800	3.355900	-10.100000	25.972362	0.000574	20.690324
1856.471642	-3.021700	3.355200	-10.137000	25.946655	0.000573	20.694370
1857.468997	-3.007000	3.355800	-10.090000	25.973827	0.000574	20.659076
1858.468877	-3.024200	3.353000	-10.139000	25.995248	0.000575	20.685342
1859.469289	-3.031600	3.353800	-10.166000	25.979901	0.000574	20.666127
1860.468936	-3.013900	3.353300	-10.105000	25.962138	0.000574	20.665825
1861.469265	-2.952900	3.356300	-9.908900	25.976401	0.000572	20.664982
1862.471077	-3.015600	3.353100	-10.111000	25.942162	0.000572	20.668042
1863.470991	-2.998900	3.354000	-10.057000	25.950860	0.000571	20.680101
1864.472602	-2.998100	3.353700	-10.053000	25.953048	0.000570	20.675186
1865.470094	-2.992800	3.352500	-10.032000	25.967158	0.000571	20.674189
1866.470757	-3.008800	3.353100	-10.088000	25.947985	0.000569	20.688119
1867.471209	-2.995200	3.354000	-10.045000	25.947587	0.000569	20.660215
1868.471180	-3.001400	3.352900	-10.063000	25.933802	0.000569	20.666755
1869.471349	-2.991400	3.352200	-10.028000	25.935089	0.000569	20.653822
1870.471211	-3.030400	3.350800	-10.152000	25.952061	0.000567	20.682730
1871.472353	-3.001800	3.350500	-10.056000	25.947470	0.000569	20.671953
1872.473065	-2.983600	3.350500	-9.995000	25.906188	0.000566	20.648969
1873.471603	-2.990100	3.351400	-10.019000	25.902381	0.000567	20.654629
1874.473289	-2.983700	3.350200	-9.995000	25.945963	0.000566	20.668541
1875.471914	-3.000900	3.349600	-10.050000	25.978699	0.000565	20.659229
1876.474373	-2.991400	3.350500	-10.022000	25.978399	0.000564	20.642330
1877.474281	-2.974300	3.350000	-9.963200	25.988635	0.000565	20.669212
1878.472686	-2.991700	3.350300	-10.021000	26.025801	0.000566	20.655343
1879.475248	-3.033800	3.347800	-10.155000	26.043232	0.000563	20.652942
1880.474517	-2.980000	3.349000	-9.978700	26.057138	0.000563	20.669761
1881.473218	-2.972400	3.348600	-9.952200	26.089804	0.000563	20.673659
1882.476624	-3.005500	3.347700	-10.061000	26.110917	0.000564	20.676855
1883.477686	-3.016000	3.347100	-10.094000	26.119981	0.000561	20.659882
1884.483242	-3.002200	3.347400	-10.048000	26.103863	0.000561	20.643685
1885.478282	-2.995200	3.346800	-10.024000	26.123309	0.000560	20.684566
1886.477065	-3.006400	3.347000	-10.062000	26.143379	0.000561	20.678179
1887.477217	-2.997300	3.346700	-10.030000	26.140701	0.000562	20.683075
1888.477709	-3.005100	3.347000	-10.058000	26.152571	0.000559	20.660387
1889.476831	-2.999700	3.346000	-10.035000	26.161310	0.000559	20.667273
1890.480530	-3.015800	3.345700	-10.090000	26.187710	0.000557	20.669145
1891.481785	-2.987600	3.345000	-9.992600	26.201994	0.000557	20.687294
1892.479874	-2.980300	3.345100	-9.969100	26.218037	0.000559	20.651728
1893.480988	-2.988100	3.346400	-9.997900	26.215880	0.000557	20.659045
1894.481152	-2.989900	3.345300	-10.001000	26.209691	0.000556	20.671793
1895.480608	-2.990600	3.344200	-10.000000	26.236194	0.000556	20.667605
1896.483312	-3.000200	3.343600	-10.031000	26.222707	0.000554	20.684873
1897.482255	-2.992100	3.344400	-10.006000	26.223375	0.000555	20.671793
1898.480307	-2.978700	3.342600	-9.955300	26.221739	0.000555	20.680107
1899.483051	-3.013000	3.341900	-10.068000	26.201952	0.000555	20.674447
1900.481514	-3.003700	3.341100	-10.034000	26.200481	0.000554	20.669175
1901.481857	-2.976000	3.343400	-9.948800	26.187269	0.000553	20.664433
1902.483698	-2.983500	3.342800	-9.972200	26.163627	0.000553	20.672446
1903.482962	-3.010000	3.341200	-10.056000	26.154790	0.000552	20.685378
1904.482823	-2.984500	3.340500	-9.968900	26.102484	0.000553	20.678339
1905.485370	-3.003900	3.340100	-10.031000	26.074869	0.000551	20.671454
1906.488505	-2.981500	3.342400	-9.964400	26.054276	0.000550	20.679214
1907.484709	-3.020400	3.339900	-10.087000	26.060135	0.000550	20.666607
1908.483405	-3.006100	3.339200	-10.037000	26.080084	0.000551	20.649191
1909.484877	-3.003100	3.338900	-10.026000	26.056237	0.000551	20.694936
1910.483284	-2.994600	3.338800	-9.997000	26.048889	0.000550	20.665265
1911.484951	-2.983200	3.338600	-9.958600	26.073471	0.000549	20.670524
1912.482574	-2.995600	3.338600	-10.000000	26.100106	0.000547	20.666940
1913.483705	-3.018900	3.337500	-10.074000	26.135614	0.000549	20.668005
1914.485118	-3.014400	3.337700	-10.060000	26.131962	0.000547	20.667654
1915.484747	-2.984300	3.337400	-9.958800	26.138819	0.000546	20.674072
1916.483504	-2.983600	3.337400	-9.956300	26.172568	0.000547	20.681431
1917.487775	-2.988300	3.336900	-9.969900	26.174234	0.000548	20.677890
1918.488802	-2.979200	3.337900	-9.943300	26.174578	0.000546	20.681554
1919.488177	-2.994500	3.336100	-9.989100	26.143164	0.000544	20.685077
1920.486641	-3.006900	3.334800	-10.026000	26.108147	0.000545	20.684504
1921.487124	-2.980300	3.335900	-9.941200	26.127758	0.000544	20.671491
1922.487359	-3.003400	3.335400	-10.016000	26.155654	0.000545	20.680082
1923.488338	-3.007000	3.334900	-10.028000	26.166580	0.000544	20.679682
1924.486346	-2.985700	3.335800	-9.958200	26.162726	0.000542	20.672489
1925.486333	-3.010900	3.334500	-10.038000	26.164295	0.000544	20.680704
1926.492219	-2.986000	3.333400	-9.952700	26.168909	0.000542	20.680125
1927.488728	-3.008800	3.332600	-10.025000	26.185596	0.000542	20.677453
1928.488666	-3.015200	3.331900	-10.044000	26.160244	0.000540	20.670943
1929.492320	-3.001000	3.334800	-10.006000	26.131110	0.000540	20.673911
1930.489565	-2.990400	3.333400	-9.966900	26.109311	0.000540	20.691364
1931.489603	-2.973200	3.333600	-9.910200	26.092390	0.000540	20.687639
1932.491699	-3.028400	3.330600	-10.086000	26.124185	0.000539	20.680704
1933.494338	-2.998300	3.331200	-9.986400	26.126716	0.000538	20.683248
1934.489218	-2.993000	3.331300	-9.968900	26.148790	0.000536	20.676978
1935.490432	-3.001000	3.330100	-9.991900	26.127065	0.000536	20.684073
1936.490228	-2.974000	3.332500	-9.910200	26.108429	0.000538	20.682890
1937.491812	-2.994700	3.329500	-9.970100	26.089541	0.000536	20.684775
1938.493424	-3.004400	3.328800	-10.000000	26.077467	0.000536	20.674065
1939.492564	-3.000600	3.331100	-9.994100	26.056679	0.000535	20.678783
1940.493117	-3.003000	3.329200	-9.996000	26.085710	0.000534	20.690884
1941.496282	-2.984200	3.329900	-9.936200	26.068103	0.000534	20.685520
1942.493396	-3.005200	3.329000	-10.004000	26.040217	0.000533	20.691642
1943.493322	-3.007600	3.327500	-10.007000	26.060583	0.000534	20.687448
1944.493382	-2.989000	3.327900	-9.946000	26.088474	0.000533	20.683703
1945.495215	-2.985500	3.328000	-9.934800	26.107448	0.000533	20.695183
1946.497018	-3.003000	3.326700	-9.987800	26.129927	0.000533	20.695959
1947.502670	-2.990100	3.327700	-9.949100	26.124393	0.000532	20.689923
1948.507163	-2.991300	3.325600	-9.946900	26.135492	0.000531	20.695386
1949.503170	-3.001800	3.325900	-9.983400	26.156009	0.000531	20.674749
1950.498752	-2.981400	3.326400	-9.915200	26.148165	0.000531	20.691050
1951.498939	-3.012100	3.325300	-10.015000	26.179658	0.000530	20.683340
1952.499509	-3.016100	3.324300	-10.025000	26.210328	0.000529	20.686659
1953.498458	-3.003000	3.325800	-9.986400	26.215721	0.000527	20.703934
1954.497704	-2.996100	3.325600	-9.962600	26.203931	0.000526	20.696827
1955.498029	-3.006200	3.323900	-9.990500	26.229233	0.000527	20.681000
1956.500184	-2.986000	3.323800	-9.924300	26.186227	0.000526	20.700374
1957.500954	-3.020900	3.323400	-10.037000	26.148729	0.000527	20.688298
1958.502309	-2.980400	3.324800	-9.908500	26.100615	0.000525	20.676461
1959.501515	-3.008900	3.323100	-9.997700	26.048417	0.000525	20.679491
1960.502238	-3.016000	3.321800	-10.017000	26.049036	0.000524	20.675371
1961.503553	-3.008000	3.321300	-9.990100	26.070352	0.000524	20.708171
1962.502631	-3.006100	3.321400	-9.982500	26.081678	0.000525	20.692048
1963.503045	-3.009400	3.321700	-9.994500	26.110592	0.000521	20.697394
1964.504594	-3.006200	3.321900	-9.985600	26.132471	0.000523	20.680495
1965.502229	-3.012500	3.320100	-9.999900	26.147424	0.000522	20.693625
1966.504107	-3.001700	3.321200	-9.968500	26.202185	0.000521	20.705978
1967.505130	-2.994900	3.320600	-9.943900	26.217590	0.000520	20.681154
1968.505709	-2.980900	3.319700	-9.894200	26.241697	0.000520	20.710597
1969.506379	-3.009100	3.318400	-9.983400	26.252837	0.000519	20.686703
1970.508100	-2.996600	3.320000	-9.947900	26.285858	0.000520	20.706138
1971.508342	-2.989200	3.320500	-9.923800	26.331875	0.000519	20.694062
1972.506851	-2.989700	3.318000	-9.918200	26.323928	0.000518	20.699352
1973.507643	-2.991800	3.318000	-9.925600	26.372675	0.000519	20.694290
1974.504798	-2.994400	3.318300	-9.935300	26.403904	0.000519	20.701495
1975.507629	-3.002300	3.318100	-9.960500	26.392588	0.000519	20.708140
1976.508029	-2.988600	3.317800	-9.915200	26.414062	0.000517	20.696057
1977.506006	-2.994500	3.317000	-9.931800	26.417199	0.000516	20.705375
1978.508858	-3.024100	3.316100	-10.027000	26.419405	0.000515	20.695737
1979.507314	-2.993200	3.316000	-9.925100	26.411256	0.000517	20.710308
1980.508324	-3.015100	3.313800	-9.989200	26.340594	0.000515	20.712783
1981.511372	-3.029600	3.315400	-10.043000	26.325993	0.000514	20.709489
1982.509591	-2.992100	3.314900	-9.917500	26.285987	0.000513	20.691094
1983.508672	-3.038400	3.313700	-10.067000	26.247224	0.000514	20.699081
1984.509442	-3.000200	3.313800	-9.941200	26.248437	0.000513	20.706465
1985.509346	-2.977700	3.315400	-9.871200	26.256979	0.000512	20.718843
1986.508187	-2.999200	3.313500	-9.937100	26.263462	0.000512	20.722039
1987.509721	-3.001900	3.314600	-9.949000	26.293481	0.000512	20.709057
1988.511057	-2.998900	3.313700	-9.936100	26.292936	0.000511	20.718942
1989.511850	-3.009200	3.311800	-9.965200	26.279492	0.000508	20.704008
1990.513943	-2.986600	3.313500	-9.895800	26.320815	0.000511	20.699543
1991.513152	-2.985300	3.313000	-9.889300	26.340232	0.000510	20.710997
1992.511933	-3.001700	3.312100	-9.940500	26.302384	0.000509	20.695718
1993.513407	-2.984900	3.313300	-9.889000	26.305711	0.000507	20.723246
1994.517136	-2.977700	3.311100	-9.859000	26.312157	0.000509	20.718344
1995.514060	-2.983500	3.312500	-9.880900	26.335257	0.000508	20.727335
1996.520078	-2.999700	3.310700	-9.929800	26.359239	0.000506	20.729152
1997.515169	-2.989900	3.311100	-9.899600	26.323971	0.000505	20.711724
1998.517169	-3.001200	3.311000	-9.935000	26.309198	0.000504	20.729595
1999.518530	-2.998200	3.309500	-9.921000	26.275448	0.000504	20.714169
2000.519237	-2.978700	3.310300	-9.859600	26.270742	0.000506	20.724613
2001.518887	-2.989500	3.310000	-9.893800	26.270080	0.000504	20.708300
2002.517879	-2.994800	3.308300	-9.906200	26.283830	0.000506	20.713584
2003.517995	-2.985800	3.307300	-9.873800	26.307917	0.000503	20.735421
2004.518869	-2.978600	3.309300	-9.855800	26.350226	0.000504	20.730051
2005.520701	-2.980700	3.308100	-9.858900	26.401098	0.000504	20.739454
2006.518420	-2.989300	3.307900	-9.886700	26.430874	0.000505	20.721965
2007.520241	-3.004100	3.306300	-9.930500	26.434029	0.000502	20.718972
2008.521899	-3.006600	3.307200	-9.942800	26.416966	0.000501	20.729798
2009.520344	-3.006600	3.306100	-9.938300	26.406263	0.000500	20.736585
2010.520983	-2.996100	3.306000	-9.904500	26.381651	0.000499	20.730340
2011.520274	-2.975900	3.306500	-9.838700	26.351034	0.000499	20.713793
2012.521825	-2.975400	3.305800	-9.835600	26.337352	0.000498	20.730864
2013.519574	-3.002000	3.304800	-9.919000	26.335741	0.000498	20.736357
2014.521874	-3.007700	3.303900	-9.935900	26.331440	0.000497	20.724921
2015.520977	-3.013800	3.304600	-9.958200	26.324614	0.000497	20.729915
2016.521494	-2.986800	3.305700	-9.872500	26.351727	0.000496	20.735827
2017.521271	-2.994800	3.303900	-9.892400	26.348700	0.000496	20.735630
2018.522298	-2.990700	3.304200	-9.881300	26.314528	0.000496	20.733530
2019.519261	-3.025500	3.301300	-9.987000	26.262335	0.000494	20.732760
2020.527586	-2.993400	3.303000	-9.886400	26.227842	0.000494	20.747885
2021.520520	-2.993900	3.302900	-9.887700	26.239387	0.000495	20.748106
2022.521194	-2.983100	3.301900	-9.848800	26.199127	0.000493	20.732779
2023.522873	-3.006800	3.301400	-9.925800	26.247163	0.000493	20.748334
2024.521125	-2.986900	3.301800	-9.860300	26.274155	0.000492	20.747010
2025.522526	-3.002000	3.301000	-9.909200	26.315864	0.000491	20.758581
2026.526313	-3.007800	3.300800	-9.927300	26.318254	0.000492	20.752922
2027.527641	-3.005100	3.301400	-9.920400	26.338039	0.000490	20.747201
2028.523480	-2.981100	3.300000	-9.836900	26.373796	0.000490	20.752319
2029.528512	-2.997500	3.299300	-9.888400	26.370145	0.000489	20.735846
2030.523441	-2.994100	3.299400	-9.876200	26.369054	0.000489	20.735698
2031.522560	-2.980900	3.299200	-9.834000	26.354300	0.000489	20.751690
2032.524096	-2.987400	3.298600	-9.852800	26.381541	0.000487	20.759628
2033.523781	-2.982100	3.300300	-9.840400	26.369722	0.000487	20.740162
2034.523154	-2.997700	3.298000	-9.885700	26.438348	0.000487	20.753187
2035.524422	-2.996400	3.299000	-9.884200	26.433232	0.000486	20.745200
2036.526543	-3.000100	3.296700	-9.889100	26.453199	0.000486	20.771907
2037.525734	-2.983800	3.298100	-9.839400	26.462162	0.000485	20.749621
2038.526517	-2.997000	3.296900	-9.878800	26.450117	0.000483	20.774974
2039.524238	-2.997800	3.295700	-9.877500	26.438501	0.000483	20.740064
2040.524389	-3.003100	3.294500	-9.892600	26.448083	0.000484	20.778145
2041.525198	-2.996300	3.295700	-9.872900	26.448953	0.000481	20.762898
2042.524383	-2.993600	3.295900	-9.865800	26.430488	0.000482	20.734380
2043.526345	-3.022000	3.294500	-9.955200	26.410171	0.000481	20.767541
2044.526773	-3.003800	3.295000	-9.896900	26.423656	0.000480	20.754067
2045.536278	-3.007300	3.294500	-9.906500	26.427112	0.000480	20.764179
2046.526345	-3.029600	3.292900	-9.974400	26.401637	0.000479	20.763231
2047.527314	-3.006600	3.294700	-9.905300	26.387766	0.000481	20.755927
2048.528459	-3.009000	3.293600	-9.909700	26.397373	0.000480	20.761790
2049.528377	-3.001500	3.292900	-9.882100	26.413247	0.000480	20.736492
2050.526540	-3.003100	3.292800	-9.888000	26.421714	0.000478	20.747374
2051.526342	-2.998200	3.292900	-9.871900	26.414411	0.000477	20.758526
2052.528473	-3.007200	3.291500	-9.896500	26.425739	0.000477	20.755687
2053.527103	-2.987200	3.291600	-9.831300	26.449725	0.000476	20.770787
2054.527205	-2.991400	3.292300	-9.847900	26.506584	0.000476	20.774358
2055.529364	-3.018200	3.291500	-9.932900	26.504850	0.000475	20.766451
2056.527142	-3.014400	3.290000	-9.916200	26.473343	0.000474	20.753747
2057.528874	-3.006000	3.290800	-9.891100	26.461978	0.000474	20.766033
2058.531042	-3.008600	3.289500	-9.895800	26.441993	0.000474	20.778188
2059.529315	-2.996400	3.290600	-9.858700	26.432191	0.000474	20.765017
2060.529596	-2.977900	3.291200	-9.799000	26.419778	0.000471	20.768662
2061.532926	-2.999000	3.289700	-9.865000	26.475836	0.000472	20.761944
2062.528649	-3.014200	3.288500	-9.910000	26.508722	0.000471	20.763705
2063.530852	-2.992200	3.288900	-9.839300	26.557302	0.000470	20.754690
2064.531494	-2.997100	3.288900	-9.856400	26.579569	0.000469	20.752417
2065.528004	-3.000800	3.287400	-9.863700	26.604103	0.000468	20.790356
2066.532274	-2.981800	3.288300	-9.802800	26.610835	0.000468	20.774839
2067.533938	-2.986700	3.287800	-9.818000	26.597034	0.000469	20.776138
2068.529046	-2.981600	3.287500	-9.801100	26.595845	0.000468	20.762615
2069.532103	-2.965800	3.287700	-9.749400	26.553767	0.000468	20.794759
2070.531966	-2.995800	3.285600	-9.841100	26.540339	0.000466	20.761346
2071.529103	-3.004600	3.285400	-9.870800	26.533888	0.000466	20.788528
2072.532794	-2.985900	3.284600	-9.806800	26.511124	0.000466	20.784137
2073.532199	-2.977500	3.284200	-9.777100	26.559366	0.000465	20.780473
2074.532430	-3.012400	3.282500	-9.885100	26.594994	0.000463	20.777407
2075.533681	-2.994400	3.284300	-9.832400	26.617316	0.000462	20.794156
2076.535386	-3.002600	3.284200	-9.860100	26.654700	0.000463	20.782425
2077.532448	-2.984600	3.284200	-9.801000	26.657934	0.000462	20.793263
2078.535466	-2.986900	3.283500	-9.806500	26.647809	0.000461	20.789248
2079.537401	-2.973600	3.283000	-9.761400	26.621249	0.000460	20.769660
2080.534812	-2.984500	3.283400	-9.796900	26.643650	0.000460	20.775584
2081.535654	-3.000900	3.283400	-9.852100	26.625629	0.000460	20.773115
2082.537806	-3.002400	3.281400	-9.851100	26.613145	0.000460	20.789963
2083.534791	-3.006600	3.281300	-9.863600	26.605408	0.000459	20.794514
2084.536366	-2.988500	3.281400	-9.805500	26.619283	0.000458	20.770054
2085.537649	-2.994600	3.280500	-9.822900	26.625641	0.000456	20.791619
2086.535290	-2.996900	3.282100	-9.835000	26.634535	0.000457	20.799138
2087.537134	-3.002800	3.278900	-9.844700	26.620091	0.000455	20.776557
2088.536361	-2.990200	3.279800	-9.806100	26.636747	0.000455	20.803258
2089.537362	-2.997400	3.279400	-9.828600	26.634542	0.000454	20.800567
2090.539880	-2.989900	3.280100	-9.806400	26.655644	0.000453	20.784323
2091.538807	-3.011300	3.279000	-9.871600	26.687991	0.000453	20.805462
2092.539868	-2.991100	3.279400	-9.807200	26.693406	0.000453	20.799052
2093.542560	-3.014800	3.277500	-9.880300	26.700781	0.000451	20.786078
2094.541485	-3.005200	3.277700	-9.849200	26.701877	0.000450	20.792870
2095.538640	-3.004600	3.278100	-9.848600	26.711261	0.000450	20.780493
2096.548544	-2.983200	3.277700	-9.777300	26.736287	0.000450	20.810869
2097.541294	-3.003700	3.276900	-9.841700	26.734652	0.000449	20.794052
2098.541866	-3.011800	3.276100	-9.866200	26.761185	0.000449	20.796072
2099.541399	-3.006300	3.276000	-9.848000	26.780741	0.000449	20.795345
2100.541140	-3.013800	3.275700	-9.870200	26.766305	0.000447	20.803591
2101.540259	-2.998100	3.275700	-9.820000	26.736196	0.000448	20.802717
2102.546658	-2.990800	3.274900	-9.793600	26.733372	0.000446	20.778541
2103.540956	-2.988500	3.274000	-9.782300	26.765221	0.000447	20.786380
2104.540954	-2.994000	3.274900	-9.804100	26.790045	0.000445	20.785733
2105.550317	-3.011700	3.272400	-9.854800	26.798533	0.000446	20.810863
2106.544065	-3.014900	3.272200	-9.864600	26.836560	0.000446	20.787932
2107.542510	-3.007100	3.273000	-9.841000	26.832371	0.000445	20.806005
2108.548374	-2.999100	3.273000	-9.814800	26.778334	0.000443	20.815211
2109.544359	-3.000200	3.271900	-9.815200	26.772400	0.000443	20.805925
2110.545166	-3.008400	3.269700	-9.835500	26.767684	0.000442	20.801183
2111.547031	-2.991400	3.271600	-9.785400	26.736582	0.000440	20.816381
2112.545648	-2.993800	3.271000	-9.791900	26.751778	0.000440	20.788037
2113.545303	-3.004600	3.269100	-9.821800	26.749046	0.000440	20.804730
2114.549009	-2.988600	3.271200	-9.775100	26.784833	0.000440	20.806097
2115.545692	-3.010500	3.268800	-9.838900	26.802416	0.000440	20.809552
2116.544341	-2.987400	3.270800	-9.770500	26.794595	0.000438	20.813068
2117.568450	-3.001700	3.269200	-9.811900	26.790798	0.000439	20.820630
2118.547544	-3.004700	3.268900	-9.820400	26.795741	0.000436	20.822754
2119.544684	-3.006800	3.267600	-9.823400	26.770372	0.000437	20.820008
2120.548411	-2.980400	3.267600	-9.737700	26.773453	0.000435	20.817890
2121.548711	-2.984000	3.268700	-9.752300	26.838336	0.000436	20.812951
2122.547596	-2.991800	3.267600	-9.773400	26.822401	0.000433	20.812576
2123.552133	-3.001500	3.267300	-9.805100	26.833320	0.000434	20.814072
2124.549960	-3.013300	3.266200	-9.841200	26.821825	0.000432	20.814842
2125.551649	-2.991300	3.266200	-9.769000	26.848343	0.000432	20.815901
2126.553336	-3.010600	3.264200	-9.826200	26.863335	0.000432	20.828130
2127.552204	-2.992800	3.265200	-9.771500	26.885743	0.000433	20.822213
2128.550508	-3.000700	3.265300	-9.797200	26.845091	0.000431	20.823537
2129.556008	-3.003700	3.265100	-9.807000	26.852465	0.000429	20.828580
2130.554467	-3.016000	3.262800	-9.838600	26.816129	0.000428	20.827607
2131.557492	-2.993300	3.264500	-9.770000	26.807776	0.000425	20.799768
2132.555545	-2.993500	3.264600	-9.771700	26.802435	0.000428	20.799140
2133.556806	-3.023800	3.263300	-9.866500	26.805712	0.000426	20.810495
2134.554709	-3.003100	3.262100	-9.794700	26.813502	0.000426	20.828758
2135.556534	-3.006100	3.261600	-9.803500	26.809209	0.000426	20.799312
2136.556830	-2.981400	3.262200	-9.725000	26.813833	0.000425	20.813444
2137.556716	-3.004500	3.262300	-9.801100	26.832071	0.000424	20.802859
2138.557814	-2.981100	3.263100	-9.726500	26.869754	0.000422	20.806609
2139.557469	-2.990800	3.261300	-9.752200	26.868370	0.000423	20.800476
2140.559952	-2.981000	3.261600	-9.722400	26.835158	0.000423	20.789842
2141.559514	-3.020800	3.258600	-9.842400	26.841093	0.000421	20.790119
2142.559943	-2.994200	3.259300	-9.757900	26.853954	0.000420	20.811585
2143.556458	-3.014700	3.260400	-9.828600	26.885224	0.000420	20.785180
2144.559392	-3.005700	3.260400	-9.798000	26.894110	0.000418	20.799805
2145.558951	-2.976300	3.259200	-9.699100	26.955360	0.000419	20.808765
2146.558655	-3.005600	3.256900	-9.787900	26.954619	0.000421	20.806597
2147.559557	-2.998700	3.257200	-9.765800	26.962310	0.000417	20.793943
2148.558184	-2.972300	3.257900	-9.681600	26.989609	0.000417	20.786781
2149.558226	-3.007400	3.256700	-9.793300	26.991624	0.000417	20.807299
2150.558472	-2.969900	3.257400	-9.673600	27.007404	0.000418	20.783813
2151.559057	-3.014400	3.257600	-9.818000	27.012970	0.000415	20.782299
2152.559137	-2.968100	3.256500	-9.663500	27.017954	0.000414	20.795846
2153.560113	-3.001900	3.256700	-9.774100	26.980859	0.000414	20.792207
2154.560356	-2.978300	3.256100	-9.695400	26.943560	0.000412	20.789787
2155.559844	-2.997400	3.255700	-9.756800	26.932513	0.000414	20.797644
2156.561290	-3.009100	3.255000	-9.793600	26.918918	0.000414	20.783499
2157.560394	-3.001400	3.254700	-9.766400	26.885714	0.000413	20.770500
2158.564040	-2.990200	3.253900	-9.728100	26.903853	0.000410	20.765032
2159.562134	-3.009200	3.253300	-9.789100	26.909163	0.000410	20.753775
2160.562855	-3.003100	3.253300	-9.767800	26.892211	0.000410	20.774189
2161.563821	-2.982200	3.254000	-9.702700	26.816369	0.000407	20.765734
2162.565489	-3.005100	3.253100	-9.775100	26.761664	0.000409	20.772846
2163.564828	-3.004000	3.253000	-9.770500	26.722171	0.000406	20.761115
2164.565188	-2.994100	3.252500	-9.737500	26.694516	0.000406	20.791634
2165.567693	-3.004600	3.251700	-9.769500	26.670487	0.000407	20.793555
2166.565659	-3.002300	3.250600	-9.758500	26.661875	0.000405	20.798174
2167.564735	-2.990500	3.251900	-9.723600	26.627493	0.000404	20.774989
2168.568568	-3.013500	3.249100	-9.790000	26.643854	0.000403	20.787644
2169.566718	-2.985600	3.251300	-9.706200	26.667437	0.000403	20.758720
2170.566114	-2.985300	3.249700	-9.699700	26.714974	0.000402	20.769527
2171.568155	-3.015100	3.247700	-9.790200	26.775561	0.000403	20.784448
2172.566124	-2.992600	3.247500	-9.717800	26.811672	0.000402	20.774761
2173.568130	-3.003800	3.246700	-9.751500	26.860893	0.000400	20.779207
2174.569962	-2.997000	3.247000	-9.730000	26.795815	0.000400	20.760241
2175.568437	-3.008000	3.247400	-9.767700	26.798498	0.000398	20.762938
2176.569466	-2.989800	3.247100	-9.706500	26.812572	0.000400	20.766658
2177.573343	-2.991400	3.246700	-9.711200	26.832329	0.000399	20.771350
2178.568728	-2.990700	3.246000	-9.706700	26.840095	0.000398	20.754976
2179.571248	-2.998800	3.245800	-9.732300	26.841914	0.000397	20.746847
2180.579926	-3.022600	3.244100	-9.804700	26.805554	0.000397	20.767187
2181.571765	-3.006600	3.244000	-9.752100	26.804212	0.000398	20.758726
2182.573260	-3.018700	3.243200	-9.787300	26.775225	0.000395	20.752815
2183.574853	-3.002700	3.244800	-9.742600	26.744123	0.000396	20.762797
2184.572884	-3.018100	3.242200	-9.784100	26.761444	0.000395	20.757926
2185.573086	-2.989200	3.242200	-9.691000	26.784657	0.000395	20.747599
2186.577642	-2.998200	3.243400	-9.723000	26.811905	0.000394	20.750339
2187.573921	-3.020800	3.242500	-9.793700	26.836727	0.000395	20.726458
2188.572334	-3.012900	3.242900	-9.769300	26.873068	0.000393	20.758732
2189.576103	-3.000200	3.242200	-9.725200	26.916953	0.000391	20.756867
2190.573116	-3.006100	3.239600	-9.737000	26.975513	0.000391	20.754588
2191.574854	-2.993600	3.239800	-9.698000	26.993682	0.000391	20.747254
2192.581877	-3.003300	3.239300	-9.728200	27.007827	0.000390	20.744883
2193.576484	-2.997400	3.240400	-9.711700	26.987209	0.000388	20.751177
2194.576008	-2.989000	3.238500	-9.678600	26.966714	0.000390	20.749533
2195.585169	-2.990200	3.239400	-9.685500	26.986297	0.000389	20.762114
2196.577774	-3.002400	3.238100	-9.721000	26.992060	0.000386	20.736139
2197.579024	-3.012800	3.238300	-9.755800	26.992825	0.000384	20.739754
2198.578222	-3.003400	3.239400	-9.728000	26.968331	0.000383	20.754952
2199.578239	-2.997100	3.238300	-9.704600	26.954908	0.000386	20.739557
2200.579018	-2.999800	3.237900	-9.712000	26.974295	0.000385	20.741983
2201.580471	-2.984800	3.237600	-9.662600	26.973052	0.000383	20.740259
2202.577901	-2.998800	3.235900	-9.703400	27.004919	0.000383	20.742907
2203.577229	-3.038800	3.234900	-9.828900	27.002904	0.000382	20.754632
2204.580573	-2.996900	3.235300	-9.693400	27.021519	0.000382	20.733522
2205.577658	-2.988500	3.235500	-9.668600	27.036086	0.000380	20.747224
2206.578942	-2.980100	3.235200	-9.640500	27.039026	0.000382	20.733110
2207.580441	-3.008700	3.233700	-9.728400	27.047090	0.000381	20.745487
2208.579815	-3.013500	3.234400	-9.746400	27.029847	0.000380	20.738578
2209.579323	-2.987300	3.233900	-9.659300	27.006419	0.000378	20.746787
2210.582079	-3.006700	3.232700	-9.718400	27.023050	0.000379	20.739329
2211.581049	-3.014200	3.232200	-9.741300	27.054340	0.000378	20.741399
2212.580225	-2.976000	3.233800	-9.622800	27.059857	0.000376	20.741731
2213.583339	-2.978500	3.233100	-9.628900	27.088316	0.000376	20.717720
2214.580491	-2.990900	3.231800	-9.664700	27.119757	0.000375	20.728953
2215.580169	-3.009900	3.229600	-9.719400	27.105913	0.000374	20.746800
2216.582381	-2.986800	3.231600	-9.651200	27.090380	0.000375	20.725486
2217.581992	-2.989700	3.230700	-9.657700	27.084949	0.000374	20.739940
2218.583233	-3.014700	3.228200	-9.731400	27.076812	0.000371	20.750248
2219.586336	-3.008000	3.229600	-9.713100	27.087931	0.000372	20.738197
2220.582973	-2.990400	3.229000	-9.655000	27.104554	0.000370	20.726466
2221.584184	-2.988400	3.228500	-9.647100	27.115257	0.000372	20.728221
2222.590276	-2.989300	3.228800	-9.651000	27.132743	0.000371	20.727315
2223.584913	-2.973600	3.227300	-9.595400	27.154436	0.000367	20.719735
2224.584997	-2.999700	3.226400	-9.677900	27.145227	0.000368	20.716163
2225.588364	-2.993300	3.225800	-9.654700	27.176121	0.000367	20.728744
2226.585279	-3.004700	3.226600	-9.694800	27.167734	0.000368	20.722204
2227.584819	-3.014900	3.225100	-9.722800	27.167140	0.000368	20.732987
2228.588944	-3.012800	3.224800	-9.714100	27.156842	0.000365	20.755347
2229.584818	-2.995000	3.224900	-9.657500	27.154442	0.000364	20.733018
2230.585195	-3.003400	3.225200	-9.685300	27.093105	0.000365	20.710208
2231.586654	-2.997900	3.223400	-9.662200	27.054592	0.000364	20.712253
2232.586308	-3.021800	3.221800	-9.734300	26.991816	0.000362	20.720246
2233.586358	-2.997100	3.223200	-9.659400	26.973292	0.000366	20.726749
2234.591733	-2.992200	3.222800	-9.642400	26.982760	0.000363	20.722045
2235.587214	-3.024700	3.220900	-9.741100	26.982582	0.000362	20.726608
2236.588126	-3.006300	3.222100	-9.685800	26.956673	0.000363	20.726632
2237.593269	-3.007300	3.220300	-9.682800	26.934046	0.000361	20.733277
2238.589156	-2.992400	3.222500	-9.641000	26.918615	0.000359	20.719656
2239.587400	-2.979700	3.220600	-9.594800	26.940605	0.000360	20.718535
2240.590965	-2.977400	3.220200	-9.586000	26.980684	0.000358	20.709051
2241.586265	-2.994800	3.219800	-9.641400	27.008031	0.000359	20.746037
2242.586764	-2.993300	3.218500	-9.633000	27.035549	0.000358	20.713491
2243.594482	-3.008500	3.218000	-9.680500	27.079721	0.000358	20.729940
2244.588998	-2.999500	3.217000	-9.648800	27.099823	0.000358	20.723129
2245.589520	-2.998900	3.217400	-9.648000	27.133124	0.000355	20.710628
2246.593150	-2.989000	3.217600	-9.615700	27.123346	0.000356	20.730667
2247.588140	-2.991300	3.217200	-9.622900	27.108162	0.000354	20.720136
2248.588517	-3.006200	3.216300	-9.667900	27.103270	0.000352	20.709051
2249.593076	-2.990200	3.216600	-9.617500	27.052327	0.000353	20.727045
2250.594918	-2.984000	3.215900	-9.595600	27.007015	0.000352	20.720832
2251.590937	-3.022500	3.214600	-9.713700	26.965804	0.000351	20.713054
2252.594561	-3.028500	3.215400	-9.737000	26.919148	0.000349	20.719718
2253.590510	-3.005000	3.214000	-9.655800	26.888920	0.000349	20.718720
2254.589210	-2.986500	3.214300	-9.598500	26.860627	0.000352	20.700227
2255.594818	-3.004300	3.212100	-9.648200	26.826821	0.000350	20.700374
2256.593090	-2.995300	3.211900	-9.619300	26.846878	0.000348	20.703946
2257.591702	-3.037000	3.212500	-9.755900	26.828266	0.000347	20.732650
2258.603238	-3.000800	3.210600	-9.633500	26.808980	0.000348	20.707567
2259.596182	-3.005800	3.211300	-9.651300	26.795727	0.000345	20.698034
2260.601133	-3.001300	3.211600	-9.637800	26.760927	0.000343	20.714729
2261.596547	-3.001600	3.209900	-9.633700	26.751047	0.000344	20.715228
2262.595694	-3.005400	3.209500	-9.644500	26.752389	0.000345	20.700455
2263.595455	-2.982800	3.208800	-9.569900	26.770641	0.000343	20.701262
2264.595994	-3.003100	3.208200	-9.633400	26.808411	0.000341	20.703201
2265.597725	-3.003900	3.208800	-9.637400	26.848508	0.000344	20.692782
2266.594830	-2.983200	3.207300	-9.565200	26.914200	0.000342	20.719010
2267.600118	-3.001600	3.206900	-9.624700	26.977930	0.000340	20.695849
2268.597522	-2.984800	3.207700	-9.574000	27.014658	0.000342	20.709077
2269.594832	-2.995900	3.205000	-9.600900	27.038355	0.000340	20.693077
2270.601039	-3.013800	3.208400	-9.668800	27.074665	0.000338	20.715371
2271.600100	-3.001400	3.204700	-9.617600	27.060172	0.000340	20.697000
2272.595659	-2.990100	3.205700	-9.585400	27.025613	0.000338	20.677891
2273.602831	-3.016600	3.205300	-9.668700	26.997611	0.000339	20.691458
2274.600033	-2.982200	3.204400	-9.554400	26.944434	0.000338	20.682553
2275.597199	-2.987000	3.203800	-9.568900	26.923099	0.000336	20.697136
2276.599824	-2.989600	3.202700	-9.573600	26.906240	0.000339	20.697253
2277.600517	-2.989200	3.204500	-9.577900	26.910986	0.000336	20.705345
2278.598747	-2.998200	3.202000	-9.598900	26.942823	0.000334	20.710808
2279.601982	-3.017300	3.202500	-9.661600	26.972438	0.000334	20.680367
2280.601443	-3.015900	3.200600	-9.651600	26.982786	0.000335	20.712588
2281.602763	-2.983200	3.200900	-9.547800	27.038172	0.000333	20.708541
2282.604566	-3.024500	3.200400	-9.679300	27.059437	0.000333	20.679665
2283.603362	-3.011100	3.199800	-9.633400	27.132740	0.000330	20.681315
2284.601514	-3.044200	3.199400	-9.738900	27.145493	0.000332	20.686082
2285.605859	-3.001800	3.199400	-9.603500	27.192685	0.000332	20.685657
2286.606055	-2.989800	3.198900	-9.563300	27.235038	0.000329	20.680841
2287.604156	-2.988100	3.200100	-9.561300	27.242782	0.000327	20.698116
2288.606757	-2.997000	3.196300	-9.578500	27.216537	0.000328	20.698744
2289.608319	-2.976000	3.196200	-9.511200	27.174483	0.000327	20.689162
2290.608212	-2.998800	3.196100	-9.583300	27.129201	0.000325	20.698147
2291.609491	-2.968900	3.196600	-9.489100	27.163867	0.000325	20.696977
2292.608126	-2.980100	3.197000	-9.525800	27.145157	0.000324	20.688115
2293.604115	-3.013200	3.195400	-9.627500	27.155333	0.000325	20.696928
2294.610454	-3.000700	3.194600	-9.585400	27.193445	0.000324	20.665082
2295.610051	-2.992600	3.195000	-9.560300	27.184910	0.000325	20.704866
2296.608349	-3.013800	3.193000	-9.621900	27.192826	0.000323	20.672048
2297.610672	-3.010700	3.192700	-9.610300	27.213819	0.000322	20.696959
2298.611528	-2.991300	3.192400	-9.548100	27.217070	0.000323	20.683158
2299.606954	-3.001200	3.191600	-9.577100	27.234586	0.000322	20.674222
2300.609818	-3.003300	3.191700	-9.584600	27.288299	0.000322	20.675145
2301.609018	-3.008200	3.190400	-9.596400	27.312914	0.000320	20.676199
2302.606876	-2.972700	3.193000	-9.490600	27.320805	0.000320	20.676076
2303.612157	-2.996000	3.189900	-9.555800	27.322023	0.000321	20.662127
2304.612140	-2.990500	3.191200	-9.542100	27.295847	0.000320	20.693171
2305.609657	-3.010600	3.188600	-9.598400	27.255438	0.000319	20.671962
2306.613366	-3.007900	3.187800	-9.586800	27.237035	0.000317	20.681428
2307.613531	-2.995200	3.187400	-9.545600	27.217352	0.000318	20.669689
2308.610074	-2.977800	3.188600	-9.494200	27.221748	0.000317	20.687863
2309.612795	-3.001400	3.187100	-9.564900	27.196948	0.000316	20.687100
2310.613293	-3.006100	3.187900	-9.582700	27.155376	0.000317	20.681797
2311.610624	-2.994300	3.186900	-9.542000	27.148458	0.000316	20.666303
2312.614079	-2.999300	3.187600	-9.559000	27.165558	0.000314	20.683978
2313.612097	-3.005900	3.186000	-9.574800	27.209009	0.000316	20.655606
2314.611643	-2.981900	3.185300	-9.497700	27.240188	0.000315	20.677487
2315.613124	-3.001100	3.184800	-9.557100	27.309707	0.000315	20.659221
2316.614581	-3.012500	3.183600	-9.589800	27.328886	0.000315	20.670454
2317.614205	-3.004500	3.183400	-9.563300	27.353892	0.000314	20.680911
2318.612653	-3.025100	3.182400	-9.626300	27.365278	0.000313	20.683830
2319.616608	-2.996900	3.182100	-9.535600	27.406584	0.000311	20.695513
2320.616406	-2.982000	3.182900	-9.489800	27.406388	0.000312	20.654060
2321.614991	-3.005000	3.180500	-9.556300	27.422033	0.000311	20.680708
2322.614585	-2.997300	3.181400	-9.535100	27.384309	0.000310	20.680215
2323.617057	-3.039200	3.180000	-9.662800	27.322434	0.000311	20.672973
2324.617565	-3.008700	3.178900	-9.563600	27.294955	0.000309	20.677573
2325.614641	-2.995600	3.179600	-9.523700	27.234189	0.000308	20.666709
2326.616868	-3.007600	3.178200	-9.557900	27.208611	0.000310	20.663267
2327.617751	-3.000400	3.178100	-9.535200	27.203627	0.000307	20.681964
2328.617079	-2.992800	3.178000	-9.509800	27.248068	0.000306	20.662177
2329.617479	-2.992900	3.178100	-9.510700	27.240924	0.000307	20.646929
2330.616258	-2.997500	3.176800	-9.521100	27.270897	0.000306	20.662855
2331.617789	-3.001200	3.175600	-9.530100	27.269287	0.000305	20.643689
2332.618770	-2.999000	3.175100	-9.521400	27.269311	0.000304	20.681651
2333.618391	-2.981000	3.175100	-9.463400	27.267775	0.000303	20.662559
2334.617247	-2.998600	3.174200	-9.516300	27.277282	0.000304	20.648888
2335.617345	-3.008700	3.174400	-9.549700	27.330718	0.000303	20.653328
2336.617809	-2.982100	3.175400	-9.468200	27.359917	0.000303	20.666107
2337.620057	-2.974200	3.174800	-9.440900	27.395671	0.000302	20.648494
2338.617121	-3.002100	3.174300	-9.528700	27.398126	0.000301	20.656180
2339.617483	-3.005600	3.170300	-9.527900	27.359874	0.000300	20.648993
2340.619870	-3.007700	3.170800	-9.536200	27.322724	0.000298	20.663306
2341.620125	-2.992400	3.169600	-9.483600	27.279187	0.000300	20.657443
2342.616737	-3.000700	3.173100	-9.520000	27.226563	0.000299	20.649079
2343.622134	-2.988300	3.170300	-9.473000	27.202270	0.000298	20.640765
2344.617822	-3.019600	3.169600	-9.569300	27.251228	0.000297	20.641172
2345.620601	-2.975200	3.169100	-9.427000	27.263442	0.000298	20.653459
2346.625769	-2.997200	3.167600	-9.492700	27.257338	0.000297	20.636412
2347.621087	-2.994100	3.167600	-9.483000	27.246178	0.000296	20.663122
2348.621179	-2.985100	3.167600	-9.454400	27.277321	0.000296	20.655566
2349.621233	-2.978900	3.166500	-9.431500	27.356747	0.000296	20.657702
2350.621755	-2.977700	3.165500	-9.424900	27.365514	0.000295	20.654666
2351.620297	-2.994600	3.164700	-9.476800	27.354348	0.000295	20.656237
2352.622463	-2.978000	3.165500	-9.426400	27.349194	0.000295	20.649629
2353.621510	-3.008800	3.163300	-9.517000	27.348619	0.000294	20.646204
2354.620765	-2.987600	3.163800	-9.451100	27.352690	0.000293	20.651248
2355.623883	-3.010400	3.163500	-9.522500	27.431101	0.000294	20.654740
2356.622623	-3.002200	3.161700	-9.490900	27.467153	0.000292	20.669675
2357.623762	-3.003500	3.162200	-9.496800	27.461265	0.000294	20.673709
2358.625590	-3.016100	3.160100	-9.530000	27.422030	0.000292	20.639449
2359.625003	-2.997000	3.161300	-9.472800	27.366132	0.000290	20.626361
2360.624872	-3.000500	3.159200	-9.477900	27.352512	0.000290	20.645379
2361.626282	-2.999800	3.160100	-9.478800	27.351887	0.000291	20.670832
2362.627245	-3.014300	3.160300	-9.525200	27.350969	0.000290	20.656156
2363.627249	-2.996300	3.158100	-9.462200	27.317576	0.000288	20.644849
2364.630606	-2.985700	3.158000	-9.428000	27.351147	0.000287	20.673881
2365.625866	-2.993000	3.156800	-9.447200	27.372969	0.000287	20.640353
2366.625422	-3.008200	3.156100	-9.493200	27.451079	0.000288	20.656821
2367.628076	-3.007900	3.154300	-9.486400	27.491659	0.000285	20.651654
2368.626360	-3.013400	3.154500	-9.504200	27.531895	0.000286	20.646616
2369.626090	-3.000800	3.154000	-9.462900	27.523112	0.000286	20.655325
2370.627609	-2.994000	3.155100	-9.445500	27.516294	0.000285	20.658897
2371.627538	-3.010300	3.152200	-9.487900	27.450161	0.000286	20.654000
2372.626352	-3.014500	3.151500	-9.498600	27.424906	0.000286	20.666527
2373.628294	-2.992500	3.151800	-9.431400	27.416104	0.000284	20.662413
2374.627014	-3.019500	3.150600	-9.512500	27.449065	0.000284	20.644362
2375.627133	-3.021900	3.149500	-9.515600	27.410546	0.000285	20.662986
2376.628520	-2.979700	3.149400	-9.383500	27.370612	0.000284	20.648889
2377.629627	-3.000500	3.148900	-9.447500	27.345606	0.000284	20.664513
2378.629602	-3.002700	3.148000	-9.451400	27.355082	0.000281	20.655553
2379.632567	-2.990600	3.147500	-9.412200	27.375381	0.000283	20.656532
2380.630719	-3.020200	3.146700	-9.503000	27.435361	0.000282	20.648119
2381.629847	-3.014700	3.145400	-9.480600	27.450412	0.000281	20.666108
2382.630096	-2.991200	3.145400	-9.408000	27.479883	0.000279	20.641702
2383.631831	-3.010600	3.144700	-9.466900	27.529092	0.000281	20.675094
2384.634764	-2.979700	3.146200	-9.373400	27.519942	0.000279	20.660196
2385.632514	-2.996600	3.143300	-9.418500	27.502976	0.000279	20.660670
2386.633022	-2.993900	3.143300	-9.409400	27.543609	0.000281	20.657456
2387.633066	-2.972600	3.144000	-9.345000	27.538964	0.000278	20.661791
2388.637729	-3.008100	3.140400	-9.445900	27.601322	0.000279	20.656729
2389.632802	-2.990900	3.141300	-9.394300	27.604749	0.000279	20.657333
2390.633841	-2.966200	3.142200	-9.318400	27.595300	0.000278	20.663947
2391.633274	-3.008800	3.140700	-9.448700	27.588703	0.000279	20.649721
2392.633012	-3.000100	3.139500	-9.417700	27.558316	0.000277	20.667987
2393.632871	-2.996800	3.137600	-9.401600	27.563458	0.000275	20.657512
2394.633728	-3.000400	3.138500	-9.415400	27.591188	0.000277	20.658860
2395.635130	-3.008700	3.136300	-9.435000	27.614302	0.000274	20.675956
2396.634362	-2.992200	3.137200	-9.386400	27.625594	0.000275	20.645115
2397.635180	-2.993700	3.136300	-9.388400	27.642069	0.000275	20.670704
2398.635421	-2.990800	3.134600	-9.374400	27.639584	0.000274	20.678162
2399.638225	-2.991800	3.133400	-9.373700	27.636592	0.000275	20.663770
2400.635956	-2.986300	3.132700	-9.354000	27.601599	0.000273	20.675028
2401.635121	-3.003300	3.132900	-9.408500	27.576965	0.000275	20.650239
2402.637494	-3.009800	3.132200	-9.426100	27.563575	0.000273	20.653836
2403.639692	-3.002700	3.130900	-9.400600	27.583220	0.000273	20.678821
2404.638607	-2.993400	3.129900	-9.367900	27.593619	0.000274	20.678852
2405.637423	-3.000000	3.128600	-9.384700	27.659663	0.000273	20.672287
2406.639231	-3.013800	3.127900	-9.426500	27.601091	0.000273	20.668827
2407.638402	-2.994100	3.129000	-9.366500	27.579341	0.000274	20.677763
2408.640532	-2.973800	3.127600	-9.300300	27.580626	0.000271	20.661510
2409.641021	-2.948500	3.128500	-9.222800	27.610889	0.000270	20.674419
2410.640750	-2.985900	3.126100	-9.332700	27.609084	0.000270	20.668334
2411.643126	-3.008400	3.124300	-9.398300	27.618258	0.000271	20.676143
2412.644866	-3.003600	3.123700	-9.381600	27.628380	0.000270	20.683484
2413.641834	-2.982900	3.123000	-9.314600	27.612903	0.000270	20.698732
2414.640797	-2.999300	3.122900	-9.364700	27.598546	0.000270	20.671482
2415.642251	-3.004200	3.122100	-9.378100	27.572059	0.000271	20.690825
2416.642297	-2.977600	3.122100	-9.295300	27.549561	0.000269	20.682887
2417.642897	-3.010900	3.121100	-9.397300	27.550999	0.000270	20.681015
2418.643065	-3.009600	3.118300	-9.383900	27.556061	0.000269	20.690850
2419.642481	-2.993700	3.118900	-9.336300	27.552070	0.000268	20.676402
2420.643790	-2.977100	3.117000	-9.278200	27.570296	0.000271	20.675300
2421.643179	-3.025400	3.116600	-9.427200	27.615621	0.000270	20.688664
2422.643543	-3.007500	3.115900	-9.369000	27.657731	0.000268	20.661807
2423.641935	-2.990100	3.114400	-9.311200	27.662761	0.000268	20.664498
2424.647703	-2.967800	3.115900	-9.245600	27.657786	0.000266	20.695057
2425.645096	-2.986600	3.113700	-9.298400	27.662101	0.000266	20.677111
2426.645899	-3.010100	3.113300	-9.370400	27.673379	0.000267	20.696996
2427.643928	-2.981600	3.111600	-9.276500	27.686707	0.000264	20.692865
2428.645960	-3.026500	3.110400	-9.412500	27.706253	0.000265	20.693093
2429.645215	-3.006800	3.110300	-9.351500	27.726581	0.000266	20.686047
2430.646514	-3.009200	3.109500	-9.356300	27.776402	0.000264	20.668853
2431.648174	-3.026200	3.107700	-9.403900	27.794306	0.000264	20.679285
2432.645490	-2.982000	3.108700	-9.269200	27.819723	0.000265	20.672622
2433.645615	-3.015300	3.107300	-9.367700	27.817545	0.000263	20.683233
2434.644917	-3.018700	3.104900	-9.371200	27.842044	0.000262	20.688449
2435.644977	-3.022100	3.104800	-9.380000	27.832573	0.000264	20.676545
2436.645936	-2.973100	3.107300	-9.237300	27.849973	0.000264	20.689317
2437.646847	-2.986200	3.104800	-9.270700	27.846578	0.000262	20.696806
2438.644032	-3.009400	3.102800	-9.335700	27.849435	0.000261	20.711537
2439.645117	-2.995400	3.101100	-9.288500	27.825952	0.000262	20.687901
2440.646050	-3.000400	3.101100	-9.303700	27.765076	0.000263	20.683535
2441.648115	-2.996100	3.100800	-9.289500	27.727181	0.000262	20.709887
2442.646138	-3.010600	3.099600	-9.329400	27.724996	0.000262	20.693462
2443.647049	-3.019500	3.097600	-9.352000	27.758835	0.000261	20.687212
2444.645030	-3.005200	3.098000	-9.309400	27.791363	0.000262	20.692921
2445.645233	-2.998800	3.096600	-9.284700	27.809762	0.000261	20.700532
2446.646218	-3.006900	3.094800	-9.304700	27.834059	0.000260	20.706019
2447.644701	-3.020400	3.094900	-9.346800	27.857273	0.000259	20.682439
2448.645770	-3.006000	3.094600	-9.301100	27.897605	0.000260	20.707860
2449.646765	-2.995600	3.094000	-9.267300	27.918058	0.000258	20.699522
2450.647463	-2.981700	3.092600	-9.219900	27.896198	0.000258	20.697909
2451.648732	-3.000700	3.092200	-9.277000	27.866745	0.000259	20.707146
2452.648736	-2.995900	3.090700	-9.258800	27.848089	0.000260	20.703069
2453.648043	-3.010600	3.089100	-9.298400	27.861189	0.000257	20.710090
2454.648192	-3.024900	3.087900	-9.340200	27.875989	0.000258	20.709813
2455.648838	-3.002900	3.088200	-9.272900	27.906782	0.000259	20.717572
2456.647888	-3.011500	3.086800	-9.293900	27.920028	0.000259	20.685383
2457.649070	-2.998100	3.086900	-9.253600	27.952980	0.000259	20.726613
2458.648392	-3.005200	3.085100	-9.270400	27.935452	0.000259	20.695218
2459.649901	-3.012400	3.083300	-9.286800	27.914180	0.000258	20.694196
2460.649401	-3.015500	3.082900	-9.295400	27.918591	0.000256	20.701007
2461.650077	-3.016600	3.080300	-9.290700	27.858167	0.000258	20.705625
2462.651337	-2.976400	3.082600	-9.174500	27.827684	0.000258	20.715724
2463.649935	-3.001800	3.079900	-9.244400	27.788787	0.000256	20.704554
2464.651207	-2.997000	3.079500	-9.228500	27.761014	0.000255	20.715959
2465.653193	-2.993700	3.077500	-9.211900	27.788072	0.000256	20.699566
2466.651177	-2.981000	3.076700	-9.169400	27.832677	0.000257	20.702731
2467.652414	-2.996000	3.076400	-9.215800	27.877831	0.000258	20.723521
2468.650815	-3.007100	3.075700	-9.247400	27.836924	0.000259	20.719334
2469.651584	-2.972800	3.074700	-9.138900	27.829703	0.000257	20.707325
2470.652792	-2.973300	3.073900	-9.137500	27.821003	0.000256	20.695723
2471.652803	-2.994900	3.071500	-9.198100	27.874044	0.000255	20.703113
2472.651209	-2.973400	3.071200	-9.130900	27.876137	0.000256	20.704746
2473.652284	-3.009700	3.069900	-9.238900	27.834397	0.000254	20.703039
2474.656893	-2.991800	3.068700	-9.180000	27.773864	0.000255	20.708502
2475.656312	-3.013100	3.067500	-9.242100	27.773888	0.000254	20.704259
2476.655704	-3.037100	3.067100	-9.312900	27.788672	0.000256	20.702066
2477.657545	-2.979900	3.067000	-9.138500	27.776299	0.000254	20.716643
2478.656808	-2.993000	3.064500	-9.170800	27.730327	0.000255	20.718743
2479.655606	-3.007500	3.062800	-9.210900	27.720010	0.000253	20.719741
2480.657451	-2.993900	3.061800	-9.165000	27.699871	0.000255	20.728874
2481.654585	-3.020500	3.060300	-9.243400	27.728547	0.000252	20.707468
2482.657333	-3.016500	3.060100	-9.229600	27.765378	0.000255	20.732206
2483.656179	-2.986800	3.061600	-9.143700	27.804184	0.000254	20.739017
2484.653637	-3.024300	3.058300	-9.246700	27.830445	0.000254	20.715185
2485.655340	-3.001200	3.057800	-9.176200	27.841954	0.000254	20.712069
2486.655149	-3.032600	3.055500	-9.265300	27.821769	0.000254	20.731584
2487.653834	-3.024300	3.056000	-9.241400	27.796107	0.000253	20.714292
2488.655742	-2.967800	3.055300	-9.066100	27.769074	0.000254	20.734503
2489.670700	-2.978500	3.054400	-9.095300	27.732329	0.000253	20.708429
2490.653960	-3.034700	3.051400	-9.259400	27.691587	0.000253	20.719114
2491.656368	-3.015200	3.052100	-9.201400	27.663940	0.000252	20.729701
2492.656675	-3.023700	3.049900	-9.221300	27.661853	0.000254	20.757948
2493.655930	-3.008900	3.048800	-9.172500	27.707810	0.000252	20.730698
2494.657714	-3.000500	3.048700	-9.146800	27.750809	0.000252	20.725605
2495.655986	-3.027800	3.045900	-9.221100	27.802343	0.000251	20.734793
2496.654338	-3.014700	3.046700	-9.183100	27.848563	0.000253	20.713030
2497.658165	-2.972500	3.046000	-9.053400	27.828556	0.000253	20.726086
2498.655996	-2.987900	3.043400	-9.092700	27.795949	0.000252	20.737368
2499.655240	-2.959400	3.043100	-9.004200	27.764406	0.000252	20.718425
2500.657111	-3.000300	3.040800	-9.121800	27.695070	0.000251	20.723567
2501.663623	-2.988700	3.040900	-9.087200	27.748289	0.000252	20.723069
2502.662378	-2.985400	3.039200	-9.072400	27.779392	0.000252	20.733981
2503.659324	-3.030500	3.037200	-9.203100	27.811601	0.000251	20.732731
2504.657316	-2.982700	3.039200	-9.063900	27.870523	0.000252	20.725650
2505.656543	-2.979200	3.036100	-9.043800	27.869954	0.000251	20.743096
2506.659959	-2.985200	3.035700	-9.061400	27.865543	0.000250	20.741027
2507.656994	-3.000400	3.033700	-9.100900	27.832069	0.000249	20.739580
2508.659289	-3.008200	3.032000	-9.119400	27.846301	0.000252	20.740152
2509.660905	-3.004700	3.030700	-9.105600	27.843700	0.000250	20.725207
2510.658668	-2.987900	3.031800	-9.056300	27.877425	0.000251	20.749193
2511.658463	-2.985100	3.029600	-9.043100	27.896821	0.000251	20.736945
2512.658969	-3.033000	3.026900	-9.179300	27.883403	0.000251	20.759951
2513.661077	-3.005700	3.027600	-9.098900	27.936748	0.000250	20.735406
2514.661170	-2.977100	3.026400	-9.009200	27.907185	0.000249	20.749273
2515.665362	-2.990000	3.023700	-9.040200	27.903656	0.000249	20.749989
2516.662234	-2.996400	3.023600	-9.059100	27.892018	0.000252	20.738275
2517.662190	-3.021500	3.022200	-9.129700	27.917384	0.000251	20.739624
2518.661968	-3.007500	3.019700	-9.080100	27.902187	0.000251	20.752304
2519.662961	-2.999500	3.019200	-9.055200	27.924635	0.000249	20.742180
2520.662288	-3.030200	3.017200	-9.140700	27.940774	0.000249	20.743252
2521.662121	-2.993100	3.018900	-9.035000	27.910802	0.000249	20.749121
2522.662193	-3.012300	3.014600	-9.079800	27.917918	0.000250	20.740161
2523.663633	-3.029800	3.014300	-9.131800	27.910980	0.000251	20.753093
2524.664392	-3.000800	3.014000	-9.043000	27.923748	0.000248	20.747452
2525.661793	-2.969000	3.012100	-8.941300	27.907071	0.000248	20.748210
2526.664169	-2.968000	3.009900	-8.931800	27.880249	0.000248	20.744922
2527.668111	-2.997000	3.009200	-9.017500	27.896187	0.000250	20.769499
2528.665066	-3.006800	3.008500	-9.044500	27.916182	0.000249	20.746949
2529.663570	-2.994300	3.006700	-9.002100	27.956689	0.000249	20.765435
2530.667977	-2.989300	3.005900	-8.984500	27.939161	0.000249	20.759172
2531.663796	-3.000700	3.004800	-9.015600	27.939981	0.000247	20.766636
2532.665108	-2.993800	3.003500	-8.990800	27.959864	0.000249	20.756777
2533.669384	-2.998400	3.001900	-9.000000	27.962428	0.000249	20.746555
2534.668641	-2.998800	3.000300	-8.996200	28.018784	0.000248	20.739270
2535.667751	-3.031300	2.998200	-9.087500	28.052130	0.000247	20.746758
2536.668801	-2.969500	2.997500	-8.900300	28.025550	0.000249	20.767418
2537.666453	-2.998800	2.997100	-8.986400	27.964466	0.000250	20.775633
2538.666010	-2.986000	2.995400	-8.943600	27.942869	0.000248	20.758163
2539.669498	-2.978200	2.994300	-8.916600	27.927801	0.000247	20.763386
2540.665369	-2.956700	2.996200	-8.856700	27.902289	0.000248	20.764734
2541.666940	-3.004100	2.992700	-8.989200	27.900924	0.000249	20.762887
2542.668538	-3.023700	2.989200	-9.036400	27.859313	0.000249	20.780277
2543.666072	-3.014200	2.989800	-9.011100	27.902962	0.000248	20.772999
2544.665757	-2.987300	2.988000	-8.925600	27.925348	0.000248	20.764710
2545.667629	-3.008400	2.984800	-8.977600	27.977693	0.000246	20.770456
2546.665348	-2.997200	2.985500	-8.947400	27.974640	0.000248	20.784926
2547.666077	-2.989200	2.984500	-8.920500	28.019984	0.000248	20.759445
2548.668705	-2.978600	2.982100	-8.881300	28.041481	0.000249	20.758324
2549.668844	-2.993200	2.981000	-8.922100	28.067737	0.000249	20.768633
2550.667501	-2.990700	2.980100	-8.911100	28.065081	0.000250	20.768331
2551.669800	-3.016600	2.976900	-8.979600	28.053012	0.000248	20.787002
2552.668473	-2.992000	2.978200	-8.909800	28.064764	0.000250	20.771330
2553.668511	-2.995200	2.975700	-8.911800	28.084173	0.000248	20.767635
2554.670889	-3.033600	2.972900	-9.017900	28.079665	0.000249	20.783486
2555.667701	-2.992200	2.972000	-8.891500	28.067168	0.000249	20.771853
2556.677658	-2.969700	2.972200	-8.825200	28.086217	0.000249	20.774434
2557.671129	-3.006100	2.970000	-8.927100	28.114496	0.000247	20.760702
2558.673910	-2.983300	2.969600	-8.858400	28.128406	0.000248	20.789404
2559.670071	-2.994000	2.966200	-8.879800	28.146028	0.000249	20.773954
2560.671398	-2.997500	2.965400	-8.887400	28.142316	0.000247	20.791079
2561.668781	-2.989600	2.964800	-8.862500	28.105578	0.000248	20.768320
2562.670956	-2.988600	2.963700	-8.855200	28.104580	0.000249	20.793868
2563.670474	-3.019000	2.960100	-8.933700	28.122167	0.000247	20.790236
2564.671187	-3.004000	2.959200	-8.888600	28.144402	0.000248	20.797447
2565.670423	-3.004700	2.958700	-8.889000	28.156801	0.000248	20.785273
2566.671677	-3.028400	2.956700	-8.952200	28.163848	0.000247	20.787626
2567.669760	-2.997200	2.955500	-8.856900	28.125091	0.000247	20.784170
2568.670204	-2.981200	2.953500	-8.804400	28.110546	0.000249	20.789916
2569.673326	-3.027700	2.950300	-8.931100	28.118633	0.000248	20.784307
2570.670751	-2.997500	2.951000	-8.844500	28.126731	0.000248	20.792933
2571.671813	-2.999200	2.948600	-8.841800	28.139828	0.000247	20.808489
2572.673184	-3.007900	2.947700	-8.865600	28.192553	0.000248	20.787127
2573.672107	-2.999800	2.945800	-8.836100	28.218334	0.000248	20.799806
2574.671810	-2.998700	2.944200	-8.827500	28.229759	0.000249	20.778118
2575.677180	-2.990200	2.944400	-8.803300	28.200909	0.000248	20.793168
2576.676814	-2.993100	2.941600	-8.803100	28.152673	0.000246	20.804351
2577.672700	-2.975200	2.941200	-8.749200	28.107115	0.000246	20.808748
2578.673162	-3.014600	2.936600	-8.851500	28.065170	0.000247	20.797344
2579.673725	-2.988400	2.937300	-8.775900	28.019382	0.000246	20.796771
2580.672293	-2.995700	2.934400	-8.789500	27.993620	0.000248	20.789332
2581.674572	-3.005200	2.933200	-8.813800	28.008541	0.000247	20.806248
2582.675333	-2.994300	2.932500	-8.779200	28.029947	0.000246	20.810725
2583.674148	-3.008200	2.929900	-8.812900	28.081112	0.000248	20.800589
2584.675065	-3.021000	2.928100	-8.843800	28.046946	0.000249	20.782792
2585.673793	-2.986900	2.927400	-8.742800	28.086537	0.000249	20.783765
2586.676059	-2.995300	2.925700	-8.762900	28.089883	0.000245	20.801833
2587.676650	-3.016500	2.922700	-8.813300	28.089021	0.000247	20.802387
2588.674377	-2.999000	2.922100	-8.762400	28.074890	0.000247	20.834629
2589.675841	-2.999300	2.921900	-8.762700	28.066192	0.000247	20.807856
2590.676799	-3.008300	2.918200	-8.777400	28.071911	0.000245	20.804129
2591.675357	-2.992800	2.917800	-8.731500	28.093131	0.000247	20.806999
2592.675801	-3.002100	2.916800	-8.755800	28.121936	0.000247	20.818452
2593.680737	-2.986300	2.915100	-8.704700	28.104711	0.000248	20.825294
2594.676116	-3.032600	2.910800	-8.825800	28.083491	0.000246	20.819579
2595.676750	-3.002900	2.911600	-8.742400	28.054783	0.000246	20.791155
2596.679775	-2.970600	2.910700	-8.645300	28.043827	0.000246	20.818533
2597.678659	-3.005600	2.908200	-8.739900	28.015344	0.000247	20.821630
2598.678078	-2.979600	2.904800	-8.653600	28.010016	0.000248	20.814845
2599.678367	-3.003400	2.903500	-8.719300	27.940622	0.000246	20.817542
2600.678713	-2.996100	2.903200	-8.696100	27.954699	0.000247	20.817012
2601.680183	-3.015400	2.900100	-8.743900	27.996624	0.000245	20.810374
2602.680408	-2.993400	2.900200	-8.680400	28.015882	0.000245	20.811740
2603.683007	-3.001600	2.897400	-8.695700	28.039943	0.000245	20.807511
2604.677737	-2.994100	2.895600	-8.668500	28.065861	0.000247	20.824117
2605.683077	-2.986900	2.893000	-8.639800	28.123007	0.000246	20.809573
2606.678651	-2.989900	2.892700	-8.647900	28.159329	0.000246	20.828121
2607.680391	-3.003600	2.889700	-8.678000	28.165072	0.000246	20.811143
2608.681101	-2.982600	2.889000	-8.615100	28.232250	0.000247	20.826618
2609.682016	-3.024200	2.884500	-8.722700	28.262195	0.000247	20.819309
2610.683642	-3.042500	2.882200	-8.768100	28.289111	0.000247	20.803736
2611.691905	-3.016900	2.881400	-8.692200	28.280824	0.000245	20.813883
2612.684102	-3.007100	2.881000	-8.662300	28.296922	0.000245	20.822031
2613.681717	-3.001800	2.879800	-8.643400	28.283785	0.000246	20.813071
2614.682204	-2.994300	2.876100	-8.610100	28.274983	0.000245	20.811322
2615.684536	-2.999200	2.876300	-8.624600	28.311098	0.000247	20.812597
2616.683478	-2.995000	2.873500	-8.604500	28.363938	0.000246	20.811273
2617.685356	-3.012200	2.869800	-8.642300	28.425599	0.000245	20.827369
2618.685354	-2.988900	2.870100	-8.577700	28.423293	0.000245	20.803711
2619.685264	-3.004000	2.866800	-8.610700	28.448524	0.000247	20.826273
2620.685349	-2.977500	2.865800	-8.532100	28.468496	0.000244	20.797547
2621.683761	-3.004500	2.864000	-8.604200	28.474623	0.000245	20.812253
2622.685497	-2.969500	2.862200	-8.498400	28.465224	0.000246	20.781925
2623.685575	-3.011700	2.859500	-8.610800	28.469071	0.000245	20.793385
2624.686387	-2.991600	2.858100	-8.549200	28.451545	0.000246	20.815565
2625.687187	-2.987200	2.856100	-8.530600	28.406837	0.000245	20.782399
2626.685401	-2.991300	2.853600	-8.534800	28.389568	0.000245	20.786821
2627.685518	-3.016000	2.850600	-8.596000	28.404532	0.000245	20.799043
2628.687317	-2.967100	2.851500	-8.459600	28.442916	0.000246	20.786962
2629.686194	-3.002400	2.849100	-8.552900	28.412188	0.000247	20.787787
2630.692593	-3.013400	2.846200	-8.575300	28.408518	0.000246	20.805429
2631.688049	-3.015500	2.843700	-8.574200	28.419324	0.000247	20.796395
2632.687708	-3.007400	2.841900	-8.545900	28.451863	0.000246	20.798341
2633.687764	-3.005300	2.839200	-8.530600	28.448860	0.000248	20.804326
2634.688937	-3.016300	2.835500	-8.550300	28.453966	0.000248	20.794769
2635.688269	-3.011400	2.833700	-8.532400	28.492722	0.000246	20.783063
2636.689101	-2.993300	2.834000	-8.481600	28.463310	0.000247	20.781893
2637.689487	-3.002800	2.829300	-8.494000	28.427842	0.000245	20.788851
2638.689204	-2.992000	2.828000	-8.460800	28.423886	0.000246	20.795774
2639.689292	-3.004300	2.826300	-8.490000	28.436440	0.000248	20.809363
2640.689506	-2.985800	2.823600	-8.430000	28.404891	0.000249	20.785181
2641.689402	-2.971100	2.822800	-8.384900	28.365441	0.000247	20.790502
2642.688868	-2.981700	2.819400	-8.404500	28.348036	0.000247	20.793839
2643.690983	-2.989800	2.817800	-8.422800	28.299068	0.000247	20.770138
2644.690320	-3.007000	2.814500	-8.461800	28.325415	0.000246	20.784812
2645.690386	-2.975800	2.813300	-8.370900	28.328338	0.000246	20.772582
2646.691086	-3.019000	2.809200	-8.479300	28.312595	0.000245	20.796087
2647.689867	-3.012900	2.808000	-8.459400	28.319935	0.000246	20.781665
2648.691326	-2.970400	2.806000	-8.334500	28.342849	0.000247	20.781504
2649.691348	-3.007400	2.802900	-8.428400	28.390367	0.000247	20.771030
2650.689590	-3.017500	2.799500	-8.446200	28.387615	0.000246	20.786751
2651.690755	-2.959400	2.798700	-8.280700	28.362554	0.000247	20.764835
2652.690787	-2.977800	2.794300	-8.318900	28.375488	0.000245	20.776910
2653.691050	-2.999300	2.792000	-8.373500	28.389015	0.000246	20.762082
2654.690952	-3.015700	2.789800	-8.411800	28.453817	0.000247	20.781818
2655.691302	-2.995400	2.788100	-8.351100	28.494830	0.000249	20.775703
2656.691466	-3.003300	2.783700	-8.359400	28.509468	0.000245	20.777168
2657.694084	-2.977000	2.782900	-8.283400	28.538304	0.000247	20.775862
2658.692558	-3.005400	2.778500	-8.349600	28.506776	0.000246	20.768293
2659.704095	-2.996200	2.776300	-8.317900	28.516370	0.000246	20.768946
2660.694104	-2.994000	2.774300	-8.304400	28.550343	0.000246	20.782770
2661.694654	-2.995300	2.772000	-8.301600	28.602295	0.000247	20.785781
2662.695653	-2.968300	2.768100	-8.215400	28.577863	0.000248	20.769235
2663.699582	-2.985300	2.764300	-8.250700	28.613801	0.000246	20.767497
2664.696034	-2.981100	2.762200	-8.233700	28.616846	0.000247	20.770089
2665.697732	-3.006700	2.759100	-8.294800	28.643558	0.000245	20.763802
2666.700124	-2.979100	2.757400	-8.213700	28.608023	0.000246	20.766419
2667.697881	-2.983200	2.753300	-8.212800	28.625411	0.000245	20.776345
2668.699752	-2.999900	2.751300	-8.252700	28.634087	0.000245	20.766117
2669.697106	-3.004300	2.746700	-8.249900	28.662620	0.000249	20.781579
2670.696826	-3.013200	2.742800	-8.262200	28.688096	0.000245	20.752236
2671.696933	-2.992200	2.740800	-8.200100	28.685858	0.000245	20.784596
2672.695658	-2.987600	2.737800	-8.179000	28.716010	0.000245	20.763283
2673.696208	-3.036900	2.732300	-8.296700	28.760032	0.000247	20.753572
2674.698364	-3.013700	2.731300	-8.230600	28.787382	0.000244	20.773062
2675.697052	-3.025400	2.727600	-8.251100	28.821126	0.000246	20.767699
2676.700061	-3.012900	2.724700	-8.208300	28.841010	0.000245	20.762125
2677.697507	-3.037200	2.720900	-8.262500	28.874055	0.000243	20.760801
2678.697587	-3.018200	2.717500	-8.201000	28.893011	0.000245	20.763301
2679.697874	-3.000700	2.714500	-8.143200	28.852160	0.000246	20.763874
2680.696563	-3.011700	2.711400	-8.163900	28.857344	0.000244	20.732111
2681.696763	-2.988800	2.706200	-8.087200	28.858627	0.000244	20.766596
2682.697241	-3.030500	2.702900	-8.190300	28.839880	0.000245	20.753874
2683.697154	-2.981100	2.699800	-8.046900	28.785335	0.000246	20.765310
2684.698971	-2.994100	2.696900	-8.074600	28.723890	0.000245	20.780704
2685.701103	-2.995900	2.693200	-8.067000	28.666605	0.000245	20.756196
2686.697839	-3.004800	2.687000	-8.072900	28.629372	0.000246	20.753782
2687.697982	-2.966400	2.686000	-7.966400	28.633738	0.000244	20.764818
2688.699165	-3.000200	2.681500	-8.044400	28.634722	0.000246	20.762489
2689.698392	-3.004700	2.677400	-8.043400	28.604232	0.000246	20.750747
2690.697866	-2.973400	2.674000	-7.950100	28.636270	0.000243	20.764522
2691.698712	-2.988300	2.669500	-7.976600	28.681536	0.000245	20.752268
2692.699788	-2.986800	2.665800	-7.961700	28.701070	0.000246	20.764831
2693.701982	-3.007600	2.661200	-8.003300	28.732934	0.000247	20.752829
2694.700807	-2.996200	2.658300	-7.964100	28.790306	0.000246	20.755144
2695.700547	-3.020900	2.652000	-8.009600	28.788632	0.000245	20.781907
2696.702310	-2.999600	2.648900	-7.944200	28.821703	0.000245	20.761167
2697.700807	-3.016100	2.643700	-7.973000	28.830628	0.000247	20.738389
2698.701483	-2.998200	2.640200	-7.914500	28.824307	0.000246	20.747669
2699.701330	-2.999800	2.635800	-7.904900	28.776253	0.000246	20.764696
2700.701774	-2.978300	2.630700	-7.834100	28.718752	0.000246	20.761303
2701.701858	-3.027500	2.626500	-7.950900	28.770312	0.000246	20.761556
2702.704540	-2.981400	2.622000	-7.815800	28.787313	0.000245	20.746913
2703.707637	-2.986800	2.618000	-7.818300	28.823012	0.000246	20.755374
2704.702342	-2.987300	2.610900	-7.798000	28.833123	0.000247	20.737584
2705.702856	-2.977100	2.608300	-7.764000	28.820268	0.000247	20.760670
2706.702765	-2.986200	2.603100	-7.771900	28.785485	0.000246	20.758349
2707.704919	-2.999600	2.597500	-7.790500	28.790419	0.000244	20.746248
2708.705199	-3.010600	2.591800	-7.802000	28.784575	0.000246	20.733249
2709.706038	-2.999900	2.586300	-7.757300	28.776793	0.000248	20.760024
2710.707962	-3.017000	2.580700	-7.785600	28.764707	0.000246	20.747850
2711.706721	-3.008300	2.576000	-7.748400	28.748776	0.000247	20.736543
2712.714821	-2.997500	2.569300	-7.701200	28.724298	0.000245	20.753614
2713.708426	-3.020500	2.564400	-7.744500	28.688448	0.000246	20.738840
2714.709848	-3.007500	2.558700	-7.694300	28.683301	0.000246	20.744562
2715.709764	-2.996300	2.552900	-7.648200	28.704558	0.000245	20.731833
2716.708850	-3.016900	2.547700	-7.685100	28.697399	0.000246	20.738847
2717.710236	-2.990300	2.542000	-7.599900	28.662190	0.000247	20.738471
2718.707658	-2.995200	2.536200	-7.595700	28.641330	0.000247	20.741643
2719.707663	-3.006700	2.529100	-7.603500	28.628252	0.000246	20.743171
2720.708133	-2.982000	2.523900	-7.525100	28.645762	0.000246	20.745633
2721.708493	-2.986800	2.518000	-7.519100	28.675176	0.000246	20.734481
2722.710144	-2.988900	2.511400	-7.505100	28.700419	0.000246	20.728138
2723.713232	-3.005200	2.504400	-7.524900	28.699777	0.000247	20.752149
2724.711819	-3.004600	2.499400	-7.508800	28.711846	0.000246	20.738225
