LabVIEW Measurement	
Writer_Version	2
Reader_Version	2
Separator	Tab
Decimal_Separator	.
Multi_Headings	No
X_Columns	One
Time_Pref	Absolute
Operator	admin
Description	Clolumns are: time, Current, Voltage, Power, Battery Temp, and Chamber Temp
Date	2024/08/16
Time	13:06:06.104549407958984375
***End_of_Header***	
	
Channels	6						
Samples	1	1	1	1	1	1	
Date	2024/09/05	2024/09/05	2024/09/05	2024/09/05	2024/09/05	2024/09/05	
Time	04:30:49.1284503936767578125	04:30:49.1334185600280761719	04:30:49.1374154090881347656	04:30:49.1124167442321777344	04:30:49.1124167442321777344	04:30:49.1124167442321777344	
X_Dimension	Time	Time	Time	Time	Time	Time	
X0	0.0000000000000000E+0	0.0000000000000000E+0	0.0000000000000000E+0	0.0000000000000000E+0	0.0000000000000000E+0	0.0000000000000000E+0	
Delta_X	1.000000	1.000000	1.000000	1.000000	1.000000	1.000000	
***End_of_Header***							
X_Value	Untitled	Untitled 1	Untitled 2	Untitled 3	Untitled 4	Untitled 5	Comment
0.000000	0.031059	4.096900	0.127050	21.013116	0.000920	20.783172
0.998082	-2.999800	3.927800	-11.781000	21.020077	0.000921	20.773065
1.997402	-3.015200	3.920900	-11.820000	21.021325	0.000917	20.803710
2.997924	-3.015800	3.915600	-11.806000	21.036569	0.000921	20.786715
4.001488	-2.976400	3.913900	-11.649000	21.024369	0.000918	20.789211
4.997469	-3.003200	3.909700	-11.740000	21.020152	0.000916	20.791631
5.998682	-3.011300	3.905600	-11.761000	21.021574	0.000916	20.806804
7.004262	-3.020100	3.904300	-11.790000	21.029159	0.000915	20.780726
7.999406	-3.017500	3.901900	-11.773000	21.027014	0.000917	20.800865
9.001859	-2.982300	3.900800	-11.632000	21.055681	0.000912	20.770269
10.005626	-3.001000	3.896700	-11.692000	21.023270	0.000912	20.799492
11.001666	-2.990900	3.896400	-11.651000	21.046149	0.000913	20.792978
12.000933	-2.992800	3.894700	-11.656000	21.041160	0.000910	20.783720
13.000933	-2.995100	3.894900	-11.664000	21.047197	0.000910	20.789759
14.001030	-3.000300	3.894300	-11.683000	21.057078	0.000910	20.802012
15.001781	-2.975800	3.890900	-11.576000	21.063564	0.000910	20.785267
16.001988	-3.022200	3.889700	-11.754000	21.084896	0.000908	20.798542
17.002989	-2.970800	3.891900	-11.561000	21.081427	0.000906	20.795073
18.003389	-2.996500	3.888300	-11.650000	21.068828	0.000909	20.788635
19.002957	-3.002200	3.885900	-11.665000	21.090384	0.000906	20.808774
20.004107	-3.002100	3.886900	-11.667000	21.071971	0.000907	20.800314
21.003074	-3.021300	3.883000	-11.730000	21.093278	0.000908	20.810246
22.003458	-3.015400	3.884600	-11.712000	21.081602	0.000906	20.797619
23.006226	-2.991500	3.883100	-11.615000	21.096596	0.000907	20.793650
24.005818	-2.999300	3.882500	-11.644000	21.111988	0.000906	20.800512
25.004966	-2.996600	3.882300	-11.633000	21.127482	0.000906	20.803208
26.007610	-3.014200	3.881400	-11.698000	21.130276	0.000905	20.814537
27.007793	-2.988600	3.880700	-11.597000	21.128430	0.000902	20.815536
28.005486	-2.979700	3.879800	-11.559000	21.121469	0.000903	20.800986
29.005484	-2.999500	3.879700	-11.636000	21.144421	0.000904	20.815410
30.005485	-3.023500	3.879800	-11.729000	21.147240	0.000904	20.816808
31.008538	-3.021700	3.877200	-11.714000	21.168819	0.000901	20.794298
32.006582	-2.993300	3.878000	-11.606000	21.175855	0.000901	20.810344
33.009585	-3.002700	3.877600	-11.643000	21.157718	0.000901	20.795994
34.007028	-2.976900	3.876900	-11.538000	21.167098	0.000900	20.816757
35.007969	-3.008600	3.874600	-11.655000	21.189251	0.000899	20.809994
36.010899	-3.003300	3.876500	-11.641000	21.165176	0.000901	20.804878
37.009898	-3.002800	3.874400	-11.633000	21.185732	0.000902	20.824492
38.009899	-3.001300	3.874000	-11.627000	21.202522	0.000903	20.828011
39.011042	-2.995500	3.874200	-11.604000	21.226769	0.000898	20.811964
40.014552	-2.990100	3.874900	-11.584000	21.216691	0.000901	20.820374
41.011010	-2.982500	3.874200	-11.554000	21.219709	0.000898	20.800160
42.010903	-2.978200	3.874200	-11.537000	21.222828	0.000900	20.809444
43.014509	-3.022900	3.871900	-11.703000	21.216990	0.000898	20.806923
44.011596	-2.982100	3.872300	-11.545000	21.252937	0.000899	20.794520
45.011458	-2.992700	3.872200	-11.587000	21.258426	0.000902	20.811390
46.015099	-3.004100	3.870500	-11.626000	21.251091	0.000898	20.814958
47.015316	-3.010900	3.868900	-11.648000	21.260720	0.000900	20.818901
48.013316	-2.985300	3.870700	-11.554000	21.263065	0.000899	20.823618
49.013356	-3.016800	3.869900	-11.672000	21.266308	0.000898	20.815482
50.016020	-2.993400	3.869800	-11.582000	21.291726	0.000899	20.843282
51.016019	-3.021900	3.869400	-11.691000	21.293023	0.000897	20.817553
52.015476	-2.996800	3.869200	-11.594000	21.325302	0.000898	20.828034
53.014478	-3.007100	3.868300	-11.632000	21.298586	0.000897	20.814584
54.015603	-3.012000	3.867300	-11.646000	21.297613	0.000899	20.808394
55.016118	-3.014700	3.866500	-11.655000	21.320786	0.000897	20.823991
56.019116	-2.993100	3.868300	-11.576000	21.312680	0.000896	20.815881
57.019031	-2.996800	3.868100	-11.591000	21.333807	0.000897	20.840337
58.018031	-2.997100	3.866200	-11.585000	21.331587	0.000898	20.830529
59.020037	-2.987600	3.865600	-11.546000	21.344158	0.000893	20.803752
60.018036	-2.987500	3.867000	-11.552000	21.371871	0.000896	20.821995
61.019036	-3.001300	3.867400	-11.607000	21.365162	0.000896	20.824291
62.027256	-2.999600	3.867200	-11.599000	21.368578	0.000898	20.835296
63.019255	-2.993000	3.865100	-11.567000	21.368029	0.000897	20.826686
64.019366	-3.012400	3.865100	-11.642000	21.371447	0.000896	20.820622
65.021576	-3.000800	3.864200	-11.593000	21.398460	0.000894	20.836269
66.020739	-3.006800	3.864400	-11.618000	21.387410	0.000894	20.843705
67.021838	-3.013500	3.863400	-11.640000	21.403548	0.000897	20.857480
68.025801	-3.003800	3.864300	-11.606000	21.433055	0.000895	20.824415
69.022099	-3.010700	3.863900	-11.632000	21.433030	0.000896	20.833873
70.022159	-3.020100	3.863900	-11.668000	21.439838	0.000897	20.836892
71.025262	-3.017300	3.862300	-11.652000	21.455227	0.000896	20.832376
72.022240	-2.997300	3.862100	-11.574000	21.440487	0.000894	20.839912
73.023666	-2.982100	3.862700	-11.517000	21.465279	0.000896	20.838166
74.025664	-3.018400	3.861700	-11.654000	21.457946	0.000896	20.828932
75.023720	-3.017800	3.861900	-11.653000	21.470217	0.000897	20.851641
76.023732	-3.020400	3.860000	-11.657000	21.482862	0.000896	20.847698
77.028761	-3.007600	3.861900	-11.614000	21.498200	0.000898	20.847872
78.025290	-3.026300	3.860100	-11.680000	21.478746	0.000897	20.828882
79.026344	-3.007900	3.860600	-11.611000	21.508625	0.000896	20.845502
80.025998	-3.004900	3.860200	-11.599000	21.507727	0.000897	20.857879
81.026006	-3.023500	3.859200	-11.666000	21.514237	0.000897	20.829306
82.028757	-3.012800	3.860400	-11.630000	21.533191	0.000895	20.842582
83.025843	-3.027500	3.858200	-11.679000	21.535460	0.000896	20.850068
84.026186	-3.027400	3.858200	-11.679000	21.539201	0.000894	20.852863
85.030418	-3.001800	3.859700	-11.584000	21.554364	0.000897	20.860923
86.026451	-2.988100	3.859400	-11.529000	21.557481	0.000898	20.881111
87.026815	-3.014000	3.858700	-11.630000	21.558753	0.000895	20.861048
88.028001	-2.994300	3.858000	-11.552000	21.573143	0.000895	20.848895
89.025994	-3.013000	3.858200	-11.624000	21.564265	0.000896	20.860399
90.027997	-2.997500	3.858100	-11.563000	21.570524	0.000896	20.851016
91.027994	-3.005700	3.857600	-11.594000	21.577233	0.000897	20.850617
92.025487	-2.994300	3.858600	-11.552000	21.583393	0.000895	20.868634
93.026485	-2.999700	3.857700	-11.571000	21.597059	0.000898	20.853861
94.025757	-2.997400	3.857600	-11.562000	21.601073	0.000897	20.870680
95.027755	-2.996200	3.855900	-11.551000	21.615787	0.000898	20.854584
96.029766	-2.996200	3.858300	-11.559000	21.611996	0.000900	20.860274
97.027987	-3.015300	3.856400	-11.628000	21.621249	0.000898	20.863368
98.032020	-2.982600	3.857700	-11.505000	21.632021	0.000898	20.878890
99.028106	-2.984500	3.857600	-11.513000	21.610425	0.000898	20.869606
100.031373	-2.997900	3.856100	-11.559000	21.657582	0.000897	20.879813
101.028595	-2.999600	3.856500	-11.567000	21.660949	0.000899	20.876544
102.029562	-3.012900	3.854400	-11.612000	21.657632	0.000900	20.887449
103.030335	-3.001200	3.854700	-11.567000	21.660175	0.000898	20.883356
104.034335	-2.985200	3.855400	-11.509000	21.680723	0.000899	20.858402
105.033578	-3.002700	3.855500	-11.576000	21.684663	0.000899	20.871828
106.030607	-3.004600	3.853900	-11.578000	21.665113	0.000899	20.873599
107.036806	-2.999300	3.854300	-11.560000	21.682294	0.000901	20.872301
108.030309	-2.992100	3.854600	-11.533000	21.696058	0.000902	20.878490
109.030311	-2.985100	3.854700	-11.505000	21.691246	0.000900	20.875570
110.030525	-2.998400	3.853200	-11.553000	21.717778	0.000901	20.880312
111.034639	-2.988700	3.854100	-11.517000	21.723812	0.000897	20.876394
112.030638	-2.989100	3.854200	-11.520000	21.741168	0.000901	20.875271
113.030924	-2.996300	3.853100	-11.544000	21.737352	0.000899	20.892314
114.033451	-3.009400	3.851600	-11.590000	21.751340	0.000900	20.873599
115.031809	-2.972900	3.853300	-11.454000	21.770690	0.000901	20.888222
116.031805	-3.015500	3.851600	-11.613000	21.776574	0.000903	20.891740
117.032857	-2.982800	3.852200	-11.489000	21.762636	0.000900	20.881110
118.035004	-2.989800	3.853700	-11.520000	21.780339	0.000902	20.888396
119.035969	-2.991400	3.853400	-11.526000	21.802506	0.000900	20.872651
120.034970	-2.993100	3.851700	-11.528000	21.784852	0.000902	20.867784
121.036563	-3.009300	3.850000	-11.584000	21.795474	0.000904	20.858502
122.036737	-2.994600	3.852600	-11.537000	21.796147	0.000904	20.878615
123.036737	-3.009800	3.850400	-11.588000	21.817092	0.000903	20.899102
124.040739	-2.997000	3.850900	-11.540000	21.839955	0.000903	20.897330
125.041140	-3.005500	3.851700	-11.575000	21.842797	0.000905	20.875520
126.038189	-2.980300	3.851300	-11.477000	21.840878	0.000905	20.876918
127.041162	-3.000500	3.850000	-11.551000	21.841027	0.000904	20.885602
128.038555	-2.972000	3.850400	-11.442000	21.855987	0.000903	20.898677
129.037901	-3.006100	3.849400	-11.571000	21.866732	0.000906	20.921758
130.038437	-2.983200	3.850900	-11.487000	21.852920	0.000904	20.868583
131.041544	-2.991000	3.848700	-11.510000	21.864290	0.000904	20.889919
132.043020	-2.989300	3.848800	-11.504000	21.867930	0.000906	20.876020
133.038701	-3.006500	3.847700	-11.567000	21.893385	0.000904	20.911927
134.041683	-3.015600	3.849100	-11.606000	21.892014	0.000907	20.891117
135.043683	-3.007100	3.847400	-11.569000	21.884658	0.000909	20.896081
136.039720	-3.001800	3.847500	-11.548000	21.896352	0.000905	20.891665
137.039683	-3.003200	3.848200	-11.556000	21.889919	0.000909	20.900399
138.041287	-3.009300	3.847200	-11.576000	21.907222	0.000906	20.905864
139.041348	-3.006000	3.846600	-11.562000	21.933674	0.000908	20.884928
140.041551	-2.984500	3.846700	-11.479000	21.930807	0.000911	20.864990
141.042762	-2.995700	3.846700	-11.523000	21.941353	0.000908	20.886450
142.045025	-2.994500	3.847000	-11.518000	21.941452	0.000907	20.886075
143.044967	-2.992400	3.845600	-11.506000	21.933050	0.000909	20.870080
144.048434	-3.012100	3.845600	-11.581000	21.958305	0.000909	20.873549
145.047431	-2.999500	3.845100	-11.532000	21.962643	0.000912	20.866512
146.045434	-3.008900	3.846800	-11.574000	21.967804	0.000911	20.884004
147.046092	-3.017600	3.845900	-11.603000	21.987573	0.000910	20.858751
148.045718	-3.009800	3.844800	-11.571000	21.956835	0.000911	20.884404
149.051422	-2.998800	3.846000	-11.532000	21.966931	0.000911	20.873174
150.047169	-3.011900	3.844800	-11.579000	21.995626	0.000911	20.881509
151.049621	-3.010700	3.845200	-11.576000	21.998991	0.000913	20.867335
152.051623	-2.984600	3.845400	-11.475000	21.990191	0.000913	20.867061
153.048355	-2.997800	3.843900	-11.521000	22.003628	0.000912	20.862969
154.049743	-2.978900	3.844800	-11.452000	21.986800	0.000913	20.877417
155.051910	-2.988200	3.845600	-11.490000	22.014946	0.000914	20.850591
156.049842	-3.002300	3.844200	-11.540000	22.007093	0.000912	20.866912
157.050874	-3.003600	3.844400	-11.546000	21.994005	0.000915	20.851440
158.048888	-2.989000	3.844600	-11.489000	22.027884	0.000915	20.854534
159.049109	-3.020900	3.841800	-11.604000	22.030152	0.000914	20.879563
160.050303	-2.996200	3.842500	-11.511000	22.043190	0.000916	20.866537
161.048305	-2.978300	3.844100	-11.448000	22.038304	0.000918	20.864017
162.049361	-2.999400	3.842000	-11.523000	22.045509	0.000916	20.865539
163.052361	-2.988200	3.843300	-11.483000	22.051217	0.000918	20.847073
164.050495	-3.002700	3.841500	-11.533000	22.040199	0.000917	20.851215
165.051286	-2.991400	3.842800	-11.493000	22.037955	0.000916	20.868409
166.053213	-3.007000	3.841200	-11.549000	22.050345	0.000916	20.854260
167.051216	-2.997500	3.841500	-11.514000	22.050868	0.000915	20.872801
168.051217	-3.006500	3.841400	-11.548000	22.076669	0.000921	20.866387
169.050966	-3.009800	3.840300	-11.556000	22.080333	0.000917	20.846349
170.054272	-2.989500	3.841700	-11.484000	22.081131	0.000919	20.858527
171.052386	-3.001500	3.841800	-11.530000	22.109872	0.000919	20.855058
172.051302	-3.000200	3.840100	-11.519000	22.117799	0.000919	20.870580
173.054246	-3.020100	3.840200	-11.596000	22.110694	0.000922	20.847821
174.053249	-3.003500	3.841500	-11.537000	22.129265	0.000922	20.863568
175.053268	-3.006900	3.840000	-11.546000	22.125351	0.000919	20.862495
176.056638	-2.996200	3.841000	-11.507000	22.150028	0.000919	20.846898
177.055327	-2.998100	3.838800	-11.508000	22.137440	0.000920	20.848046
178.052314	-2.990300	3.840600	-11.483000	22.146240	0.000923	20.872975
179.057319	-3.003700	3.840700	-11.535000	22.144445	0.000923	20.849842
180.053320	-3.003800	3.838600	-11.530000	22.161195	0.000922	20.847172
181.054356	-3.011600	3.838300	-11.558000	22.147959	0.000923	20.850042
182.054319	-3.005600	3.837500	-11.534000	22.134399	0.000923	20.846423
183.054043	-3.023900	3.837900	-11.605000	22.157381	0.000927	20.825811
184.054523	-3.012300	3.838100	-11.560000	22.173159	0.000925	20.846349
185.055398	-3.015600	3.836800	-11.569000	22.199904	0.000926	20.846099
186.056624	-3.007000	3.837700	-11.539000	22.198284	0.000925	20.846374
187.055669	-2.995200	3.837200	-11.492000	22.197311	0.000926	20.837339
188.055898	-3.004300	3.837600	-11.528000	22.196813	0.000930	20.848694
189.056883	-2.995500	3.836900	-11.492000	22.196713	0.000928	20.838163
190.056094	-3.003700	3.836800	-11.523000	22.208578	0.000926	20.838662
191.056239	-3.014800	3.835600	-11.563000	22.208179	0.000924	20.844428
192.057237	-2.985200	3.836500	-11.451000	22.219046	0.000928	20.831600
193.055591	-2.995100	3.836200	-11.489000	22.215208	0.000929	20.824912
194.056978	-3.007700	3.836100	-11.537000	22.223557	0.000930	20.818574
195.058974	-3.003000	3.835300	-11.516000	22.265554	0.000928	20.855881
196.059973	-3.008500	3.835000	-11.536000	22.254738	0.000929	20.849793
197.058976	-3.004800	3.837000	-11.528000	22.249105	0.000929	20.830403
198.061355	-3.019600	3.834400	-11.578000	22.274178	0.000928	20.824688
199.058460	-2.991800	3.834600	-11.471000	22.261318	0.000930	20.850691
200.058631	-2.991900	3.835400	-11.473000	22.270390	0.000930	20.829430
201.060870	-2.991300	3.834100	-11.468000	22.265481	0.000931	20.815031
202.058465	-3.005800	3.835300	-11.526000	22.280235	0.000931	20.834546
203.059207	-2.952600	3.836100	-11.326000	22.295189	0.000932	20.840984
204.060246	-3.001800	3.833400	-11.507000	22.299726	0.000931	20.848372
205.060223	-3.004800	3.833100	-11.517000	22.314978	0.000932	20.827135
206.060223	-3.008800	3.831700	-11.528000	22.333944	0.000932	20.853238
207.060145	-3.008400	3.833900	-11.533000	22.310941	0.000932	20.849170
208.060473	-2.959000	3.834100	-11.344000	22.328935	0.000932	20.840162
209.060009	-2.997100	3.834300	-11.490000	22.325995	0.000935	20.844330
210.061181	-3.006000	3.833500	-11.523000	22.310867	0.000934	20.832976
211.063572	-3.011400	3.832600	-11.540000	22.304238	0.000938	20.837718
212.063668	-3.007900	3.832400	-11.526000	22.319391	0.000935	20.808321
213.063143	-3.015000	3.830900	-11.549000	22.299553	0.000936	20.844405
214.064292	-2.998700	3.832300	-11.491000	22.295815	0.000934	20.825490
215.068259	-3.009400	3.832700	-11.533000	22.316102	0.000938	20.835372
216.062563	-3.005600	3.831500	-11.515000	22.299404	0.000938	20.824817
217.066928	-3.001400	3.830200	-11.492000	22.329236	0.000938	20.838567
218.063927	-2.999100	3.832400	-11.492000	22.335318	0.000938	20.840389
219.063304	-3.000200	3.831400	-11.494000	22.340477	0.000939	20.821374
220.066742	-3.015000	3.829500	-11.544000	22.332327	0.000940	20.815110
221.064460	-2.990200	3.830000	-11.451000	22.362309	0.000941	20.846553
222.064418	-2.993400	3.829700	-11.463000	22.370658	0.000942	20.844483
223.064453	-3.008500	3.829600	-11.520000	22.402407	0.000941	20.822223
224.065668	-3.014400	3.830000	-11.543000	22.395180	0.000942	20.833952
225.064705	-2.993600	3.829100	-11.462000	22.428125	0.000941	20.832804
226.063346	-3.009000	3.828900	-11.521000	22.428000	0.000946	20.828412
227.065542	-2.981800	3.829600	-11.419000	22.433109	0.000942	20.842536
228.065794	-2.994800	3.829400	-11.467000	22.413373	0.000945	20.834152
229.064525	-2.991900	3.829800	-11.458000	22.431041	0.000947	20.843785
230.067255	-2.992600	3.827700	-11.454000	22.447313	0.000945	20.826890
231.065647	-2.994300	3.828500	-11.463000	22.462465	0.000944	20.834951
232.065066	-2.991200	3.829900	-11.454000	22.469267	0.000946	20.832755
233.064353	-2.999300	3.827800	-11.479000	22.450903	0.000946	20.826691
234.065609	-3.007600	3.826800	-11.508000	22.477342	0.000949	20.833729
235.066615	-3.000100	3.828100	-11.483000	22.464434	0.000947	20.821277
236.066300	-3.031900	3.825500	-11.597000	22.468048	0.000948	20.832008
237.066473	-3.006000	3.826200	-11.501000	22.479884	0.000948	20.830585
238.066773	-2.988100	3.827400	-11.435000	22.461469	0.000946	20.833006
239.067733	-2.979300	3.826500	-11.400000	22.464734	0.000948	20.839594
240.070740	-2.986400	3.826400	-11.424000	22.455389	0.000949	20.818382
241.067843	-2.998300	3.825600	-11.469000	22.453121	0.000948	20.827491
242.069845	-3.016800	3.824900	-11.538000	22.435603	0.000948	20.820853
243.073068	-2.998700	3.824800	-11.469000	22.467799	0.000950	20.823698
244.069590	-3.010400	3.824700	-11.513000	22.481978	0.000952	20.818931
245.069588	-3.010900	3.824000	-11.512000	22.492918	0.000949	20.817560
246.073584	-3.002900	3.824400	-11.483000	22.510311	0.000952	20.843986
247.069462	-3.010300	3.823500	-11.509000	22.509588	0.000952	20.822401
248.069463	-3.000900	3.825100	-11.478000	22.496506	0.000953	20.837274
249.074462	-3.004800	3.824500	-11.491000	22.516191	0.000953	20.830436
250.070461	-3.027400	3.821400	-11.568000	22.520577	0.000952	20.810647
251.072025	-3.003700	3.823200	-11.482000	22.533709	0.000953	20.811471
252.079026	-3.007300	3.822500	-11.495000	22.536424	0.000955	20.825095
253.074123	-2.985500	3.822500	-11.411000	22.550677	0.000956	20.809024
254.071505	-3.021200	3.821800	-11.546000	22.553492	0.000955	20.820379
255.072535	-3.027400	3.821600	-11.569000	22.553219	0.000955	20.825320
256.071935	-3.009900	3.821300	-11.501000	22.552745	0.000955	20.812992
257.073193	-3.003200	3.820700	-11.473000	22.575868	0.000955	20.810547
258.073184	-3.014800	3.821300	-11.519000	22.564505	0.000961	20.831408
259.075216	-2.972200	3.823200	-11.362000	22.573026	0.000958	20.811020
260.072244	-3.022500	3.819600	-11.543000	22.557130	0.000959	20.800314
261.073295	-2.992700	3.820800	-11.434000	22.590842	0.000956	20.796621
262.073345	-3.028200	3.821100	-11.570000	22.611149	0.000957	20.828339
263.075346	-2.988700	3.821300	-11.419000	22.614212	0.000960	20.832830
264.072660	-3.013600	3.820400	-11.511000	22.608830	0.000959	20.816060
265.074172	-3.006800	3.820300	-11.487000	22.633547	0.000962	20.801935
266.078294	-3.007400	3.820100	-11.487000	22.625498	0.000961	20.823271
267.073311	-3.006600	3.818400	-11.480000	22.622808	0.000961	20.819628
268.076917	-3.015200	3.819600	-11.516000	22.644110	0.000963	20.815834
269.074133	-2.987000	3.819900	-11.409000	22.617649	0.000962	20.807349
270.074131	-2.999700	3.818800	-11.455000	22.610748	0.000961	20.827463
271.077089	-3.015600	3.818600	-11.514000	22.604145	0.000964	20.808996
272.075378	-3.023700	3.817200	-11.540000	22.617076	0.000965	20.821948
273.074937	-3.017600	3.817900	-11.519000	22.624600	0.000966	20.805777
274.077945	-3.020200	3.816900	-11.527000	22.650412	0.000964	20.823569
275.076149	-2.985700	3.818300	-11.399000	22.658509	0.000965	20.809394
276.075766	-3.004500	3.817000	-11.467000	22.661274	0.000965	20.812164
277.076181	-3.015800	3.815800	-11.506000	22.694710	0.000967	20.805826
278.078184	-2.990400	3.817700	-11.415000	22.703429	0.000965	20.797964
279.075406	-2.994100	3.816400	-11.425000	22.681132	0.000967	20.805501
280.077144	-2.991000	3.817300	-11.417000	22.716658	0.000968	20.816905
281.078241	-3.006400	3.816000	-11.471000	22.735417	0.000968	20.806299
282.076314	-3.019200	3.815600	-11.518000	22.746579	0.000967	20.804677
283.076322	-2.999100	3.816700	-11.445000	22.743439	0.000969	20.792523
284.076343	-2.987200	3.816300	-11.399000	22.775751	0.000970	20.809717
285.076348	-2.974900	3.816800	-11.354000	22.737610	0.000970	20.810391
286.076194	-2.988900	3.815300	-11.402000	22.741744	0.000972	20.803153
287.080218	-3.002800	3.814100	-11.452000	22.709855	0.000971	20.799659
288.077633	-3.009600	3.813900	-11.477000	22.704748	0.000971	20.796914
289.076637	-3.009000	3.814100	-11.475000	22.718225	0.000973	20.811837
290.078636	-2.976400	3.816000	-11.357000	22.736985	0.000974	20.788429
291.080711	-3.005100	3.815300	-11.464000	22.734693	0.000973	20.788503
292.078345	-3.004700	3.814400	-11.460000	22.769621	0.000975	20.804525
293.078344	-3.006900	3.813700	-11.465000	22.754025	0.000975	20.794118
294.077374	-2.993800	3.814400	-11.418000	22.781852	0.000973	20.793544
295.077870	-2.993600	3.814000	-11.417000	22.761548	0.000975	20.792171
296.078598	-3.010600	3.811600	-11.475000	22.776969	0.000972	20.814731
297.081753	-2.997000	3.813700	-11.429000	22.786187	0.000976	20.795515
298.079533	-2.981800	3.813600	-11.369000	22.760153	0.000978	20.785558
299.079535	-2.993100	3.812000	-11.408000	22.769346	0.000973	20.793344
300.082959	-2.995500	3.811600	-11.416000	22.775898	0.000976	20.796588
301.079650	-3.004200	3.811500	-11.450000	22.794706	0.000975	20.801205
302.082831	-2.988500	3.812800	-11.393000	22.797347	0.000979	20.776349
303.083890	-3.015600	3.810600	-11.490000	22.804721	0.000980	20.784210
304.079888	-2.991500	3.811000	-11.400000	22.826244	0.000980	20.801504
305.084018	-3.016400	3.809100	-11.488000	22.824326	0.000979	20.803375
306.085242	-2.991400	3.809600	-11.395000	22.835112	0.000979	20.791422
307.084048	-2.980900	3.811000	-11.359000	22.839297	0.000982	20.787079
308.082026	-2.990500	3.810400	-11.394000	22.854119	0.000979	20.795764
309.084988	-2.983500	3.810900	-11.368000	22.879727	0.000983	20.777796
310.084986	-2.992300	3.809100	-11.396000	22.884908	0.000979	20.775400
311.082493	-2.993600	3.808400	-11.400000	22.902519	0.000984	20.796363
312.084832	-2.986700	3.809900	-11.378000	22.900153	0.000984	20.780716
313.083394	-3.001900	3.808300	-11.431000	22.906928	0.000982	20.794142
314.082403	-2.991900	3.808500	-11.394000	22.894199	0.000986	20.769061
315.087913	-3.026300	3.806500	-11.518000	22.883289	0.000984	20.780417
316.083934	-3.002400	3.808400	-11.433000	22.873424	0.000985	20.790923
317.084135	-2.999200	3.809100	-11.424000	22.879627	0.000987	20.780541
318.092138	-3.024200	3.806600	-11.510000	22.890164	0.000986	20.779718
319.088141	-3.019200	3.807500	-11.495000	22.888570	0.000986	20.784285
320.085654	-2.985700	3.808800	-11.371000	22.902419	0.000985	20.798160
321.086863	-3.003500	3.807000	-11.433000	22.928126	0.000983	20.778395
322.089107	-2.999200	3.807700	-11.420000	22.933133	0.000987	20.775825
323.088027	-3.000400	3.805600	-11.418000	22.927952	0.000989	20.763047
324.089116	-2.991900	3.806600	-11.388000	22.948651	0.000988	20.769561
325.093727	-3.009500	3.804800	-11.449000	22.950693	0.000989	20.759279
326.090146	-3.000300	3.805400	-11.416000	22.912010	0.000987	20.770784
327.088851	-2.977800	3.806200	-11.333000	22.944715	0.000989	20.777946
328.093312	-2.998000	3.804200	-11.404000	22.954405	0.000990	20.779593
329.092569	-3.005500	3.803700	-11.431000	22.955351	0.000990	20.775799
330.095073	-2.982000	3.804900	-11.346000	22.973359	0.000989	20.776298
331.090604	-2.989500	3.805400	-11.374000	22.957393	0.000989	20.761250
332.093969	-3.004500	3.803500	-11.427000	22.980333	0.000991	20.755785
333.092217	-2.997500	3.803800	-11.400000	22.990196	0.000989	20.759503
334.093390	-3.001900	3.803000	-11.414000	23.004742	0.000992	20.768861
335.096138	-3.013100	3.802800	-11.457000	23.011916	0.000991	20.767988
336.097138	-3.018000	3.803300	-11.478000	23.009375	0.000991	20.765443
337.093215	-2.983200	3.802200	-11.342000	22.981578	0.000993	20.760825
338.104074	-2.995300	3.802700	-11.389000	23.010296	0.000991	20.740760
339.098222	-3.005700	3.802300	-11.428000	22.988826	0.000991	20.796062
340.092884	-3.018500	3.801900	-11.475000	22.992512	0.000993	20.769884
341.093469	-2.996200	3.801600	-11.389000	23.002325	0.000994	20.749844
342.096894	-2.990100	3.802300	-11.368000	23.013408	0.000993	20.759526
343.093972	-3.012000	3.800100	-11.445000	22.975101	0.000994	20.766664
344.094061	-2.986600	3.802400	-11.355000	22.974080	0.000996	20.762796
345.098104	-2.994000	3.801000	-11.379000	22.960779	0.000997	20.767013
346.096672	-3.001400	3.801000	-11.406000	22.974677	0.000995	20.763868
347.095931	-3.002100	3.800500	-11.409000	23.001677	0.000998	20.771954
348.097187	-3.014400	3.798200	-11.446000	22.981029	0.000998	20.753636
349.095694	-3.010000	3.797200	-11.429000	22.998987	0.000997	20.764992
350.098694	-2.986400	3.798700	-11.343000	22.990518	0.000999	20.760773
351.097766	-3.015200	3.797400	-11.448000	23.014330	0.000999	20.762820
352.098862	-3.016800	3.797400	-11.454000	23.033184	0.000997	20.741407
353.096082	-3.002600	3.798600	-11.403000	23.032660	0.001002	20.765540
354.096849	-3.017300	3.797900	-11.458000	23.030942	0.001000	20.767137
355.097710	-2.988100	3.797900	-11.347000	23.068401	0.000999	20.764841
356.097763	-3.001200	3.796300	-11.392000	23.073058	0.001000	20.762395
357.096993	-3.005900	3.796100	-11.410000	23.072809	0.000998	20.746024
358.096419	-2.973600	3.798400	-11.294000	23.088474	0.001002	20.754608
359.099491	-3.008000	3.797000	-11.418000	23.082372	0.001002	20.755132
360.098348	-2.986600	3.797300	-11.340000	23.113728	0.001002	20.739135
361.097351	-3.011500	3.795700	-11.429000	23.123441	0.001002	20.740334
362.100618	-3.015800	3.795300	-11.444000	23.134822	0.001002	20.748893
363.099839	-3.019300	3.794000	-11.455000	23.134224	0.001004	20.762993
364.101813	-3.008300	3.795700	-11.418000	23.153176	0.001002	20.745474
365.102563	-3.028900	3.795300	-11.494000	23.138234	0.001003	20.748519
366.100200	-3.025500	3.792700	-11.473000	23.149515	0.001001	20.765514
367.101198	-2.994400	3.794200	-11.360000	23.151433	0.001004	20.733295
368.103676	-2.977300	3.795600	-11.300000	23.178353	0.001004	20.726133
369.102649	-3.002100	3.793700	-11.388000	23.179026	0.001003	20.741980
370.104551	-2.984500	3.794900	-11.324000	23.162938	0.001004	20.726807
371.105003	-2.994700	3.793400	-11.358000	23.178901	0.001007	20.730475
372.104036	-2.993800	3.793300	-11.356000	23.176211	0.001007	20.728727
373.104019	-2.993200	3.793000	-11.351000	23.170085	0.001004	20.733020
374.105040	-3.001800	3.792200	-11.382000	23.154171	0.001008	20.754058
375.105229	-2.988600	3.792500	-11.333000	23.147223	0.001006	20.739983
376.103846	-3.007200	3.792400	-11.403000	23.187168	0.001007	20.738286
377.105996	-3.006400	3.792300	-11.399000	23.136439	0.001007	20.735814
378.104290	-3.027800	3.790700	-11.476000	23.189559	0.001008	20.734517
379.106208	-3.004100	3.792100	-11.391000	23.184528	0.001009	20.747020
380.105209	-3.016900	3.792100	-11.440000	23.174218	0.001008	20.729575
381.107140	-3.011800	3.790500	-11.415000	23.201486	0.001011	20.727503
382.109272	-2.993500	3.790600	-11.346000	23.205371	0.001007	20.714800
383.107907	-3.007600	3.789000	-11.395000	23.205919	0.001008	20.721988
384.111251	-3.010200	3.791400	-11.411000	23.201287	0.001009	20.718294
385.112002	-2.994100	3.789500	-11.345000	23.166696	0.001012	20.723934
386.108002	-3.005600	3.791000	-11.393000	23.163086	0.001013	20.721264
387.112155	-2.994900	3.790000	-11.350000	23.171627	0.001008	20.718444
388.111915	-2.993900	3.790400	-11.347000	23.164704	0.001012	20.704393
389.107878	-3.011700	3.789100	-11.411000	23.173470	0.001011	20.724558
390.109876	-2.978200	3.790500	-11.287000	23.196879	0.001011	20.732844
391.108920	-3.012300	3.789000	-11.413000	23.223525	0.001012	20.720191
392.109582	-2.986900	3.788000	-11.314000	23.186445	0.001011	20.714800
393.110585	-2.994600	3.787100	-11.339000	23.194936	0.001012	20.732794
394.108584	-3.005100	3.787600	-11.380000	23.238590	0.001011	20.731022
395.108584	-3.001100	3.787300	-11.364000	23.247107	0.001011	20.717744
396.110716	-2.996400	3.788600	-11.350000	23.249597	0.001014	20.723560
397.108914	-2.999200	3.786500	-11.356000	23.267700	0.001011	20.727478
398.114915	-2.982300	3.788400	-11.297000	23.288393	0.001012	20.715024
399.110150	-2.991400	3.785100	-11.321000	23.277238	0.001015	20.720914
400.109066	-3.005500	3.785400	-11.376000	23.302238	0.001014	20.704243
401.109592	-2.986800	3.785800	-11.306000	23.284508	0.001016	20.714924
402.110364	-2.995100	3.785300	-11.336000	23.264837	0.001015	20.717021
403.110167	-2.996600	3.785900	-11.345000	23.301989	0.001013	20.713951
404.109299	-2.995800	3.785500	-11.340000	23.304280	0.001016	20.733318
405.110336	-3.000500	3.783800	-11.353000	23.308090	0.001012	20.729075
406.113334	-3.013000	3.783000	-11.397000	23.326266	0.001014	20.707462
407.113560	-2.996000	3.783800	-11.336000	23.337820	0.001016	20.712404
408.110356	-2.978300	3.783100	-11.266000	23.325570	0.001017	20.713876
409.115761	-3.008100	3.782300	-11.376000	23.342451	0.001016	20.734591
410.112949	-3.001400	3.782300	-11.351000	23.365608	0.001019	20.720815
411.112896	-2.986000	3.782800	-11.294000	23.357118	0.001021	20.708037
412.113210	-2.989000	3.781500	-11.301000	23.360205	0.001017	20.697380
413.113210	-2.996700	3.782000	-11.333000	23.377186	0.001017	20.715349
414.113150	-2.984800	3.782000	-11.288000	23.378307	0.001017	20.719792
415.115334	-2.998500	3.781100	-11.337000	23.373252	0.001018	20.716148
416.112398	-2.973200	3.782200	-11.245000	23.398773	0.001019	20.712329
417.112759	-3.007600	3.780200	-11.367000	23.393047	0.001021	20.744998
418.114894	-2.978500	3.781100	-11.262000	23.404102	0.001019	20.718619
419.115191	-2.993700	3.781700	-11.321000	23.378656	0.001020	20.711132
420.114573	-2.998800	3.779900	-11.334000	23.388416	0.001020	20.732295
421.117999	-2.995500	3.779300	-11.320000	23.427481	0.001018	20.729724
422.117549	-3.000200	3.779300	-11.338000	23.410326	0.001019	20.738135
423.115551	-2.994800	3.777600	-11.312000	23.406168	0.001022	20.720216
424.116549	-3.001300	3.777300	-11.336000	23.412891	0.001020	20.722687
425.118994	-3.003700	3.777500	-11.345000	23.435722	0.001019	20.719492
426.116994	-2.981800	3.778400	-11.266000	23.446055	0.001020	20.725108
427.118274	-3.001800	3.777100	-11.337000	23.461964	0.001025	20.728252
428.120942	-3.003100	3.776900	-11.341000	23.471748	0.001023	20.718619
429.117002	-2.986900	3.777700	-11.281000	23.456163	0.001021	20.743301
430.117239	-2.969600	3.778200	-11.219000	23.491043	0.001022	20.720890
431.120571	-3.005300	3.777600	-11.352000	23.486935	0.001024	20.718669
432.118143	-2.984200	3.776100	-11.268000	23.501947	0.001021	20.728027
433.118116	-2.999000	3.776000	-11.323000	23.471225	0.001022	20.728052
434.121146	-2.976800	3.776800	-11.241000	23.482229	0.001023	20.722013
435.119689	-3.010400	3.774700	-11.362000	23.465150	0.001021	20.728127
436.119689	-3.017800	3.774600	-11.390000	23.457034	0.001023	20.717146
437.122866	-2.997500	3.774400	-11.313000	23.468959	0.001025	20.729574
438.121074	-2.998900	3.773200	-11.314000	23.465797	0.001023	20.720240
439.119221	-3.028300	3.772500	-11.422000	23.449739	0.001023	20.723110
440.124294	-3.005400	3.773000	-11.338000	23.443489	0.001023	20.720639
441.120359	-3.001400	3.772100	-11.320000	23.425364	0.001024	20.729025
442.122364	-2.978500	3.773700	-11.238000	23.446726	0.001024	20.719142
443.121362	-2.994200	3.772800	-11.296000	23.465896	0.001025	20.725082
444.124113	-2.970300	3.774700	-11.211000	23.494104	0.001023	20.732968
445.126165	-2.991300	3.771900	-11.282000	23.511058	0.001024	20.718193
446.123417	-2.996700	3.773300	-11.307000	23.510809	0.001026	20.715098
447.125685	-3.010500	3.771700	-11.354000	23.531846	0.001024	20.713900
448.127046	-2.971500	3.772300	-11.209000	23.539114	0.001026	20.722610
449.126169	-3.001000	3.769900	-11.312000	23.557835	0.001026	20.729523
450.125190	-3.005100	3.769800	-11.328000	23.558284	0.001026	20.742301
451.127042	-3.004500	3.770200	-11.325000	23.570731	0.001024	20.732018
452.124885	-2.995700	3.770900	-11.295000	23.572473	0.001027	20.735662
453.130886	-3.014800	3.768500	-11.359000	23.565279	0.001027	20.712802
454.126546	-2.982800	3.770400	-11.246000	23.560922	0.001028	20.725504
455.128094	-3.001500	3.768400	-11.311000	23.565851	0.001025	20.714798
456.128333	-2.983000	3.771100	-11.248000	23.562216	0.001027	20.704515
457.125518	-2.977900	3.769500	-11.224000	23.567718	0.001025	20.734215
458.125753	-2.987200	3.769000	-11.258000	23.568988	0.001029	20.721736
459.129791	-2.971000	3.768000	-11.193000	23.579145	0.001026	20.727650
460.127635	-3.000900	3.768000	-11.306000	23.615141	0.001024	20.729597
461.126597	-2.994900	3.767000	-11.281000	23.621265	0.001029	20.718191
462.128794	-2.997400	3.767100	-11.290000	23.611930	0.001029	20.733490
463.127981	-2.983400	3.768000	-11.241000	23.632118	0.001028	20.709631
464.128499	-3.029200	3.766200	-11.408000	23.648124	0.001029	20.742275
465.127710	-2.996900	3.766600	-11.287000	23.640756	0.001029	20.738681
466.129263	-3.015200	3.764800	-11.351000	23.655891	0.001028	20.731094
467.126266	-3.010000	3.766200	-11.334000	23.683596	0.001027	20.725678
468.128474	-3.004600	3.765800	-11.314000	23.689246	0.001029	20.700047
469.130078	-2.969300	3.766300	-11.182000	23.694050	0.001030	20.740428
470.132505	-2.997000	3.765500	-11.284000	23.704953	0.001029	20.728598
471.128868	-2.984500	3.765100	-11.235000	23.697834	0.001027	20.747066
472.129874	-2.994000	3.765200	-11.271000	23.692706	0.001029	20.729597
473.131870	-2.972800	3.764900	-11.192000	23.727405	0.001030	20.728349
474.131951	-2.975100	3.764600	-11.199000	23.745101	0.001028	20.733290
475.131106	-2.989400	3.763800	-11.250000	23.709781	0.001031	20.743872
476.131537	-2.978600	3.763500	-11.208000	23.710578	0.001030	20.741825
477.131714	-2.984200	3.763400	-11.229000	23.687180	0.001031	20.745868
478.131735	-2.994200	3.762400	-11.264000	23.687279	0.001029	20.742648
479.132212	-3.007100	3.762800	-11.314000	23.705848	0.001031	20.739928
480.132594	-2.988300	3.762600	-11.242000	23.675555	0.001030	20.750809
481.132146	-3.010500	3.762000	-11.324000	23.698481	0.001031	20.746767
482.133119	-3.021200	3.760800	-11.362000	23.690714	0.001029	20.724754
483.134779	-2.986000	3.761700	-11.232000	23.665847	0.001031	20.744395
484.137865	-2.988500	3.761400	-11.240000	23.674037	0.001029	20.756399
485.136894	-3.018500	3.760300	-11.349000	23.662486	0.001030	20.732017
486.134645	-3.003400	3.760100	-11.292000	23.649567	0.001030	20.723332
487.133814	-3.000300	3.760400	-11.281000	23.635527	0.001032	20.739604
488.138815	-3.007600	3.758200	-11.302000	23.646157	0.001033	20.744096
489.135848	-3.007800	3.757900	-11.302000	23.659300	0.001031	20.736883
490.139674	-3.021100	3.758600	-11.354000	23.692954	0.001032	20.753554
491.137660	-3.010700	3.758600	-11.315000	23.698330	0.001030	20.733339
492.135977	-2.980400	3.759500	-11.204000	23.672194	0.001033	20.761665
493.138057	-3.004800	3.758500	-11.293000	23.666046	0.001030	20.727524
494.136093	-3.018100	3.758100	-11.341000	23.642248	0.001030	20.752980
495.136221	-2.990100	3.757200	-11.233000	23.660893	0.001031	20.746541
496.138431	-3.012300	3.756400	-11.314000	23.658379	0.001032	20.768203
497.138445	-3.008100	3.755900	-11.297000	23.668062	0.001033	20.760841
498.137707	-2.990200	3.757000	-11.233000	23.646754	0.001033	20.753703
499.138956	-2.963800	3.758100	-11.137000	23.627860	0.001033	20.742822
500.137416	-2.992700	3.755300	-11.238000	23.616260	0.001033	20.739728
501.139583	-3.004700	3.754700	-11.281000	23.606825	0.001032	20.758246
502.142583	-3.007700	3.755200	-11.293000	23.640780	0.001032	20.758620
503.140618	-2.985900	3.754500	-11.209000	23.651608	0.001035	20.731542
504.141871	-3.000500	3.755000	-11.265000	23.634481	0.001031	20.756099
505.140065	-2.996500	3.754000	-11.248000	23.651982	0.001033	20.759419
506.141590	-2.996700	3.755100	-11.252000	23.647575	0.001032	20.745992
507.141807	-2.992600	3.753500	-11.232000	23.662859	0.001029	20.766057
508.143842	-2.989300	3.752800	-11.217000	23.638166	0.001033	20.767854
509.143734	-3.002200	3.752800	-11.266000	23.658379	0.001032	20.763936
510.141702	-2.991700	3.752900	-11.227000	23.694497	0.001032	20.767430
511.144340	-3.003600	3.752300	-11.270000	23.719762	0.001032	20.761465
512.144854	-3.007700	3.750900	-11.281000	23.715605	0.001032	20.768203
513.142862	-3.004600	3.752100	-11.272000	23.730789	0.001031	20.759244
514.145896	-2.971300	3.752900	-11.150000	23.750702	0.001033	20.764036
515.146235	-2.986600	3.752000	-11.205000	23.725263	0.001033	20.779783
516.143943	-3.021700	3.750900	-11.332000	23.718642	0.001035	20.763662
517.145388	-3.004000	3.750600	-11.266000	23.743260	0.001031	20.768903
518.156390	-2.999400	3.751900	-11.252000	23.751374	0.001033	20.778461
519.144274	-3.033100	3.748200	-11.367000	23.781217	0.001032	20.760018
520.146241	-3.006800	3.747700	-11.268000	23.792617	0.001035	20.768129
521.148335	-2.990300	3.748900	-11.209000	23.808720	0.001033	20.776689
522.144302	-2.991300	3.749300	-11.215000	23.796798	0.001036	20.750510
523.148305	-2.974800	3.750100	-11.154000	23.797894	0.001033	20.781481
524.147810	-2.995500	3.748900	-11.229000	23.800109	0.001034	20.749562
525.148042	-2.995700	3.748600	-11.229000	23.810786	0.001033	20.760743
526.146623	-2.956700	3.747900	-11.080000	23.811135	0.001034	20.757773
527.151035	-3.011700	3.747000	-11.284000	23.814146	0.001034	20.759370
528.147805	-2.988100	3.747800	-11.198000	23.832390	0.001036	20.754429
529.148554	-3.006000	3.746600	-11.261000	23.849787	0.001034	20.766183
530.155076	-2.996500	3.746100	-11.223000	23.822409	0.001033	20.780458
531.156281	-3.037900	3.744800	-11.375000	23.818527	0.001034	20.769927
532.153282	-2.988700	3.747100	-11.198000	23.812454	0.001035	20.760518
533.151470	-3.001100	3.746800	-11.243000	23.813973	0.001035	20.771998
534.152351	-3.002700	3.745400	-11.245000	23.811260	0.001035	20.788719
535.149333	-3.015600	3.743600	-11.288000	23.827139	0.001034	20.767182
536.152592	-3.029700	3.743000	-11.340000	23.854765	0.001036	20.763589
537.155974	-2.990300	3.745000	-11.197000	23.863850	0.001031	20.766059
538.149971	-2.997400	3.744400	-11.223000	23.884656	0.001035	20.762266
539.152458	-2.988800	3.744100	-11.189000	23.890977	0.001036	20.793735
540.153459	-3.012100	3.743300	-11.274000	23.889733	0.001034	20.772099
541.151460	-3.019600	3.742400	-11.299000	23.896701	0.001036	20.796630
542.153675	-3.004300	3.742000	-11.241000	23.875522	0.001036	20.796730
543.154630	-2.999800	3.743500	-11.227000	23.863750	0.001034	20.791091
544.152796	-3.009000	3.741200	-11.257000	23.887095	0.001036	20.778937
545.151575	-3.021700	3.741400	-11.305000	23.900335	0.001036	20.784153
546.152639	-3.028500	3.740400	-11.327000	23.912604	0.001036	20.769903
547.152799	-2.992400	3.741100	-11.194000	23.923878	0.001038	20.796855
548.155300	-3.015700	3.740500	-11.279000	23.964591	0.001035	20.791689
549.152314	-3.034500	3.739900	-11.347000	23.961107	0.001036	20.785825
550.151878	-3.010100	3.740100	-11.256000	23.942592	0.001035	20.789543
551.152945	-2.994500	3.741100	-11.202000	23.939979	0.001033	20.788820
552.153570	-3.018300	3.738600	-11.284000	23.924127	0.001033	20.786200
553.154197	-3.003800	3.739900	-11.233000	23.946774	0.001034	20.789469
554.152689	-3.009200	3.738500	-11.248000	23.909618	0.001037	20.782082
555.155724	-3.009700	3.737600	-11.248000	23.918677	0.001033	20.787846
556.155031	-2.993100	3.738500	-11.188000	23.916437	0.001034	20.784178
557.154621	-3.001100	3.738500	-11.218000	23.901505	0.001036	20.802870
558.154677	-3.017000	3.737100	-11.274000	23.910614	0.001035	20.820064
559.154938	-3.018400	3.736700	-11.278000	23.942767	0.001033	20.796357
560.156966	-2.984900	3.737600	-11.155000	23.964692	0.001036	20.770927
561.155024	-3.000700	3.737500	-11.214000	23.980221	0.001037	20.789819
562.162543	-2.968400	3.737900	-11.095000	23.984525	0.001034	20.815473
563.155545	-2.995100	3.736900	-11.192000	23.982635	0.001036	20.808835
564.155545	-3.005100	3.736700	-11.228000	24.003961	0.001035	20.800824
565.155434	-3.021500	3.734700	-11.282000	23.995848	0.001033	20.790792
566.158459	-3.037900	3.733900	-11.342000	24.009361	0.001034	20.812878
567.157940	-3.019900	3.734700	-11.276000	24.035490	0.001034	20.803994
568.159460	-2.997800	3.734800	-11.194000	24.008814	0.001036	20.807113
569.157301	-3.013300	3.735100	-11.254000	24.011004	0.001033	20.789869
570.159540	-3.005000	3.734000	-11.220000	24.033001	0.001034	20.808136
571.158540	-3.016100	3.734000	-11.261000	24.026482	0.001035	20.786899
572.160771	-2.996700	3.733900	-11.188000	24.025960	0.001033	20.808187
573.159800	-3.001600	3.732400	-11.203000	24.013940	0.001035	20.801349
574.158150	-2.995600	3.732000	-11.179000	23.991420	0.001034	20.826179
575.167948	-3.001600	3.731600	-11.199000	23.976364	0.001034	20.803969
576.158969	-3.006300	3.730400	-11.213000	23.934606	0.001033	20.794337
577.157707	-3.051200	3.730800	-11.382000	23.900162	0.001034	20.799153
578.157706	-2.989600	3.733300	-11.160000	23.899615	0.001033	20.807139
579.160846	-3.005800	3.730200	-11.210000	23.884036	0.001032	20.810957
580.158897	-3.022400	3.729500	-11.271000	23.890506	0.001035	20.806540
581.158359	-2.994900	3.731100	-11.173000	23.873956	0.001034	20.809859
582.160364	-3.023400	3.729400	-11.274000	23.885877	0.001033	20.819916
583.161970	-2.995900	3.730000	-11.173000	23.893667	0.001032	20.826304
584.160070	-2.987600	3.731100	-11.146000	23.903572	0.001036	20.821537
585.162316	-2.987900	3.730600	-11.145000	23.932465	0.001033	20.805466
586.160946	-3.033200	3.728000	-11.307000	23.953320	0.001034	20.831594
587.161009	-2.995800	3.729600	-11.173000	23.967529	0.001033	20.807437
588.164837	-3.003100	3.728400	-11.196000	23.974124	0.001035	20.822586
589.161836	-3.000200	3.727800	-11.183000	23.981390	0.001031	20.810432
590.162544	-2.988200	3.726700	-11.135000	23.991121	0.001032	20.823983
591.162640	-3.003800	3.727900	-11.197000	23.993833	0.001033	20.803944
592.163265	-2.999200	3.728400	-11.180000	23.975144	0.001035	20.815074
593.163266	-2.995700	3.727500	-11.165000	23.966982	0.001033	20.814949
594.165710	-2.999900	3.727900	-11.182000	23.992390	0.001035	20.813876
595.167772	-2.986400	3.727000	-11.129000	23.994480	0.001034	20.826403
596.163320	-2.980800	3.727500	-11.110000	24.018942	0.001034	20.823908
597.164235	-2.982700	3.726200	-11.113000	24.011601	0.001034	20.814650
598.167601	-2.970100	3.727000	-11.068000	24.032105	0.001034	20.818618
599.168107	-3.001500	3.725000	-11.178000	24.022898	0.001033	20.828824
600.167115	-2.993500	3.725200	-11.150000	24.005131	0.001034	20.836610
601.168140	-2.984400	3.726600	-11.121000	24.030538	0.001033	20.836960
602.166682	-2.993700	3.725000	-11.150000	24.025610	0.001035	20.831070
603.166955	-2.980500	3.725000	-11.102000	24.023197	0.001034	20.823908
604.169005	-2.987100	3.724500	-11.125000	24.037281	0.001032	20.824756
605.168958	-3.008600	3.724200	-11.204000	24.045045	0.001035	20.818792
606.167983	-2.983800	3.724100	-11.111000	24.040517	0.001033	20.837958
607.168008	-3.006200	3.722900	-11.191000	24.041039	0.001034	20.813353
608.168263	-3.005800	3.722200	-11.187000	24.030563	0.001032	20.842674
609.171262	-3.015600	3.722900	-11.225000	24.042259	0.001034	20.830223
610.167486	-3.002500	3.723900	-11.180000	24.051242	0.001034	20.824533
611.181621	-2.984400	3.722900	-11.107000	24.079087	0.001035	20.831121
612.171288	-2.992300	3.723200	-11.140000	24.077395	0.001035	20.836062
613.167803	-3.002700	3.721700	-11.174000	24.062067	0.001031	20.835863
614.169337	-2.974100	3.721900	-11.068000	24.041961	0.001032	20.836561
615.169569	-3.007500	3.721900	-11.193000	24.056245	0.001034	20.870325
616.168725	-2.983700	3.720700	-11.101000	24.056941	0.001034	20.863912
617.170167	-3.003600	3.720300	-11.174000	24.067542	0.001031	20.846569
618.169169	-2.999500	3.720400	-11.159000	24.078316	0.001032	20.847891
619.168169	-3.022800	3.719400	-11.241000	24.060674	0.001032	20.844897
620.168355	-3.004100	3.719900	-11.174000	24.074734	0.001030	20.840505
621.168728	-2.991800	3.720100	-11.129000	24.112232	0.001033	20.834966
622.169915	-2.989700	3.719900	-11.120000	24.104518	0.001031	20.845247
623.169979	-2.986000	3.719300	-11.105000	24.136367	0.001033	20.826930
624.171278	-2.987400	3.719600	-11.111000	24.148236	0.001030	20.860170
625.173793	-3.011700	3.717800	-11.195000	24.167470	0.001031	20.848641
626.172846	-2.979200	3.718300	-11.077000	24.175034	0.001030	20.852435
627.170532	-3.010300	3.717700	-11.191000	24.142339	0.001029	20.843825
628.170742	-3.007000	3.717300	-11.177000	24.148187	0.001029	20.860595
629.172137	-3.002600	3.715800	-11.156000	24.128506	0.001030	20.842753
630.171391	-2.993100	3.717900	-11.127000	24.137563	0.001028	20.860370
631.170389	-3.004600	3.717300	-11.168000	24.146371	0.001030	20.851187
632.173715	-2.983600	3.716900	-11.088000	24.190808	0.001028	20.837437
633.172347	-3.006700	3.716600	-11.174000	24.196954	0.001028	20.881057
634.177330	-3.009300	3.713900	-11.175000	24.196804	0.001029	20.848667
635.174367	-3.001100	3.715100	-11.148000	24.242459	0.001030	20.877863
636.176481	-2.985600	3.713700	-11.085000	24.234323	0.001030	20.868755
637.178421	-2.988400	3.714000	-11.098000	24.255147	0.001028	20.864039
638.176605	-3.007900	3.713700	-11.168000	24.259825	0.001029	20.859247
639.178606	-3.008800	3.713000	-11.170000	24.267238	0.001030	20.860520
640.180608	-2.997200	3.713000	-11.127000	24.285275	0.001029	20.856802
641.178291	-3.019500	3.713500	-11.210000	24.291346	0.001026	20.860994
642.178939	-3.006200	3.714500	-11.164000	24.267139	0.001028	20.868954
643.179522	-2.994700	3.713300	-11.118000	24.290376	0.001029	20.877090
644.182521	-3.006300	3.712200	-11.159000	24.266890	0.001026	20.867283
645.179573	-3.001000	3.713500	-11.143000	24.261367	0.001028	20.873596
646.179570	-3.017800	3.712100	-11.200000	24.245867	0.001027	20.894083
647.182469	-3.004600	3.711300	-11.150000	24.260421	0.001027	20.866010
648.179388	-3.002100	3.711300	-11.140000	24.253579	0.001028	20.872897
649.183386	-2.953600	3.712700	-10.964000	24.280822	0.001027	20.888368
650.183385	-3.000800	3.711400	-11.136000	24.305177	0.001026	20.863015
651.182385	-2.979200	3.709900	-11.052000	24.313088	0.001027	20.882803
652.183391	-3.007000	3.709900	-11.154000	24.331000	0.001025	20.895080
653.186905	-2.995900	3.711200	-11.117000	24.327318	0.001028	20.875741
654.184905	-2.990000	3.710100	-11.092000	24.336374	0.001027	20.889566
655.183418	-2.983500	3.710500	-11.069000	24.325900	0.001026	20.898025
656.187416	-3.030100	3.708800	-11.236000	24.330677	0.001027	20.889541
657.185417	-2.997900	3.708600	-11.116000	24.325477	0.001026	20.890014
658.183418	-2.999700	3.708200	-11.123000	24.318910	0.001026	20.881531
659.188448	-2.970300	3.708400	-11.014000	24.304754	0.001026	20.890089
660.186449	-2.987800	3.708700	-11.079000	24.301520	0.001028	20.896802
661.186448	-2.999400	3.707200	-11.119000	24.264053	0.001024	20.899047
662.187448	-3.005000	3.707800	-11.141000	24.287464	0.001026	20.885074
663.186450	-2.987500	3.707500	-11.075000	24.302963	0.001025	20.900620
664.187964	-2.996000	3.706900	-11.104000	24.311023	0.001026	20.884999
665.189470	-3.005200	3.705600	-11.135000	24.316522	0.001025	20.898574
666.192694	-3.022100	3.706700	-11.200000	24.336548	0.001025	20.898275
667.191691	-3.013800	3.705900	-11.168000	24.343240	0.001023	20.898824
668.191692	-2.994500	3.705700	-11.095000	24.366525	0.001023	20.892785
669.197769	-3.008300	3.707000	-11.151000	24.347345	0.001023	20.892984
670.195826	-2.978100	3.706200	-11.037000	24.358191	0.001025	20.898649
671.194122	-2.980400	3.706200	-11.045000	24.377122	0.001022	20.895830
672.196340	-3.003400	3.704800	-11.126000	24.332692	0.001023	20.901044
673.196826	-3.006200	3.704600	-11.136000	24.331772	0.001024	20.901544
674.194134	-3.012700	3.703500	-11.156000	24.361525	0.001020	20.878761
675.197177	-3.010000	3.704300	-11.148000	24.309581	0.001022	20.896354
676.197180	-3.019700	3.703400	-11.182000	24.337568	0.001021	20.897875
677.194252	-3.015400	3.701800	-11.161000	24.343589	0.001022	20.895855
678.198255	-3.012700	3.702500	-11.153000	24.320901	0.001023	20.916241
679.197373	-3.002400	3.702900	-11.116000	24.334857	0.001023	20.911750
680.194841	-2.994800	3.702500	-11.087000	24.308089	0.001022	20.896753
681.198840	-3.011500	3.702000	-11.147000	24.342569	0.001022	20.891987
682.198843	-3.011800	3.701100	-11.145000	24.337544	0.001019	20.881257
683.195348	-2.985600	3.700800	-11.049000	24.357918	0.001023	20.907384
684.197222	-2.987200	3.701600	-11.056000	24.369635	0.001020	20.894957
685.198222	-3.014200	3.700200	-11.152000	24.402720	0.001021	20.885475
686.198264	-2.991300	3.700800	-11.069000	24.403790	0.001021	20.899349
687.196320	-3.009500	3.700000	-11.134000	24.434038	0.001019	20.921158
688.197672	-3.003100	3.699500	-11.108000	24.425880	0.001022	20.906810
689.196673	-3.015700	3.699200	-11.155000	24.416079	0.001018	20.883704
690.197802	-3.000800	3.700100	-11.103000	24.409338	0.001021	20.891164
691.198433	-3.006600	3.699300	-11.122000	24.394388	0.001020	20.896555
692.202010	-3.018200	3.699700	-11.165000	24.412248	0.001020	20.883654
693.198337	-3.010000	3.699100	-11.133000	24.398965	0.001020	20.881234
694.200581	-2.997600	3.699600	-11.089000	24.395507	0.001020	20.890566
695.200037	-2.984100	3.697000	-11.031000	24.392249	0.001019	20.875444
696.201040	-2.991600	3.697800	-11.061000	24.369362	0.001021	20.879037
697.201723	-3.001500	3.697300	-11.097000	24.402497	0.001018	20.873398
698.200724	-3.001700	3.697100	-11.097000	24.414860	0.001021	20.875369
699.202725	-2.984300	3.697400	-11.033000	24.430308	0.001019	20.879486
700.202781	-3.003000	3.695600	-11.096000	24.443318	0.001018	20.858401
701.203050	-2.995900	3.697200	-11.075000	24.467296	0.001019	20.883878
702.206311	-3.008900	3.695100	-11.118000	24.434337	0.001016	20.860771
703.203289	-3.004200	3.695000	-11.100000	24.417472	0.001022	20.873248
704.206153	-3.013500	3.693800	-11.130000	24.402895	0.001020	20.888021
705.203568	-3.002100	3.694700	-11.090000	24.423591	0.001018	20.871326
706.205028	-2.981600	3.696300	-11.020000	24.440930	0.001016	20.858850
707.203289	-2.989500	3.694300	-11.042000	24.462496	0.001015	20.869580
708.203472	-3.003500	3.693800	-11.092000	24.447521	0.001017	20.882057
709.204514	-2.992400	3.693400	-11.051000	24.427970	0.001017	20.861969
710.204987	-2.992300	3.693300	-11.050000	24.409487	0.001017	20.849117
711.207933	-2.988600	3.693100	-11.037000	24.428889	0.001016	20.867159
712.205462	-2.996500	3.692000	-11.062000	24.436402	0.001016	20.859049
713.204442	-2.992600	3.692400	-11.048000	24.449461	0.001015	20.862667
714.206652	-3.008600	3.691400	-11.104000	24.470231	0.001019	20.860746
715.204607	-3.026800	3.690300	-11.169000	24.461874	0.001018	20.884128
716.205008	-2.999500	3.692500	-11.074000	24.461550	0.001016	20.860571
717.208063	-3.006100	3.691700	-11.096000	24.461053	0.001017	20.855805
718.207943	-3.007000	3.691800	-11.099000	24.484037	0.001014	20.869380
719.205064	-3.016000	3.691700	-11.133000	24.493638	0.001015	20.849616
720.209209	-3.016600	3.689600	-11.129000	24.476226	0.001014	20.855381
721.209207	-3.019600	3.690800	-11.144000	24.473988	0.001014	20.855981
722.206429	-2.996500	3.690900	-11.059000	24.478615	0.001016	20.871527
723.209679	-2.972500	3.690800	-10.970000	24.467545	0.001012	20.853310
724.206284	-3.021200	3.687600	-11.139000	24.453840	0.001013	20.843827
725.205605	-2.997400	3.689000	-11.057000	24.447024	0.001014	20.841257
726.206466	-2.987300	3.689100	-11.020000	24.447223	0.001012	20.838138
727.207466	-3.004800	3.689100	-11.084000	24.433393	0.001013	20.857927
728.206301	-3.011800	3.688600	-11.108000	24.415533	0.001011	20.843803
729.207199	-3.001300	3.687500	-11.066000	24.424140	0.001014	20.842955
730.207531	-2.980800	3.688300	-10.992000	24.427896	0.001013	20.854783
731.208971	-3.010300	3.687400	-11.098000	24.440035	0.001012	20.822867
732.208970	-2.995800	3.687500	-11.046000	24.433493	0.001014	20.840485
733.211093	-3.017800	3.686500	-11.123000	24.450259	0.001013	20.844503
734.208377	-3.017600	3.685600	-11.120000	24.470830	0.001012	20.813459
735.209524	-3.000800	3.686100	-11.060000	24.474586	0.001011	20.859425
736.211998	-3.024500	3.684900	-11.143000	24.483814	0.001010	20.854933
737.209105	-2.987300	3.685400	-11.008000	24.500853	0.001012	20.843580
738.209216	-3.041200	3.684500	-11.203000	24.508514	0.001012	20.835619
739.211267	-3.010900	3.685300	-11.094000	24.461403	0.001009	20.819174
740.210267	-2.980700	3.685400	-10.984000	24.477696	0.001011	20.850218
741.210196	-3.006000	3.684500	-11.074000	24.494286	0.001009	20.842681
742.212722	-3.005400	3.684700	-11.072000	24.493764	0.001009	20.844054
743.209724	-3.009400	3.685400	-11.090000	24.533039	0.001010	20.813285
744.210911	-3.016200	3.683300	-11.109000	24.540998	0.001010	20.835969
745.215018	-3.002300	3.684400	-11.061000	24.555051	0.001007	20.825413
746.209882	-3.009400	3.683700	-11.084000	24.562712	0.001008	20.832625
747.209882	-3.001300	3.683800	-11.055000	24.564875	0.001009	20.839063
748.211897	-3.004800	3.682200	-11.063000	24.572959	0.001007	20.832001
749.211504	-3.023400	3.681900	-11.131000	24.590320	0.001007	20.860324
750.212502	-2.995000	3.683100	-11.030000	24.599795	0.001008	20.832849
751.213502	-2.989600	3.681600	-11.006000	24.581838	0.001004	20.834746
752.213632	-3.001500	3.681700	-11.050000	24.592284	0.001005	20.807295
753.213851	-2.989500	3.681200	-11.004000	24.600715	0.001007	20.828083
754.214735	-3.006500	3.679900	-11.062000	24.574426	0.001005	20.825887
755.213737	-2.991100	3.680500	-11.008000	24.579823	0.001008	20.830353
756.213880	-2.989600	3.680900	-11.003000	24.584623	0.001005	20.845126
757.213329	-2.987700	3.681400	-10.998000	24.586737	0.001002	20.830653
758.214325	-2.999000	3.679400	-11.033000	24.576639	0.001006	20.814831
759.218216	-3.006100	3.679700	-11.061000	24.618174	0.001003	20.843229
760.216350	-2.990700	3.679700	-11.004000	24.579201	0.001004	20.823091
761.219579	-2.988100	3.680100	-10.995000	24.547961	0.001004	20.836791
762.216546	-3.017200	3.678100	-11.097000	24.526645	0.001003	20.802603
763.216434	-2.985100	3.678900	-10.981000	24.542414	0.001002	20.825062
764.217113	-3.014800	3.677700	-11.085000	24.530053	0.001002	20.809814
765.219113	-3.001400	3.678200	-11.039000	24.543881	0.001003	20.818947
766.218111	-2.989200	3.678600	-10.995000	24.527018	0.001003	20.812933
767.219113	-3.016100	3.677000	-11.089000	24.539031	0.001003	20.818822
768.223304	-2.973100	3.679200	-10.937000	24.546567	0.001002	20.810262
769.220131	-3.004900	3.677800	-11.051000	24.535772	0.001002	20.807018
770.219862	-3.003500	3.677400	-11.045000	24.558033	0.001001	20.814180
771.221352	-3.019400	3.677100	-11.101000	24.536493	0.001001	20.816750
772.221383	-3.017800	3.676600	-11.094000	24.519032	0.000999	20.824835
773.221384	-3.001600	3.675800	-11.033000	24.498711	0.001003	20.808714
774.222288	-3.027600	3.674700	-11.124000	24.520127	0.000999	20.803649
775.222287	-3.027800	3.674800	-11.124000	24.525474	0.000999	20.817548
776.221494	-2.987300	3.675100	-10.978000	24.546243	0.000999	20.816101
777.221770	-2.998200	3.675500	-11.019000	24.554997	0.001000	20.812082
778.224240	-2.992800	3.675700	-10.999000	24.545894	0.001000	20.819544
779.222920	-2.978200	3.676300	-10.948000	24.537811	0.001001	20.815227
780.223078	-2.998100	3.673700	-11.012000	24.557459	0.000999	20.813604
781.227155	-2.974700	3.674200	-10.929000	24.545297	0.001000	20.829376
782.223425	-2.989600	3.674000	-10.983000	24.547958	0.001000	20.791269
783.225754	-2.981100	3.674400	-10.951000	24.564498	0.000998	20.796011
784.228796	-3.007500	3.673600	-11.048000	24.570069	0.000999	20.822464
785.225148	-2.995700	3.673900	-11.005000	24.607028	0.000997	20.817347
786.224445	-3.011400	3.671400	-11.054000	24.603571	0.001001	20.831422
787.230019	-3.009100	3.671500	-11.046000	24.584395	0.000997	20.800802
788.227985	-3.023200	3.671500	-11.098000	24.549872	0.000997	20.803622
789.225255	-2.999900	3.671200	-11.012000	24.548156	0.000997	20.800003
790.226781	-2.995000	3.672600	-10.999000	24.524851	0.000997	20.792741
791.224705	-2.976600	3.671000	-10.925000	24.492167	0.000996	20.804046
792.225702	-3.005800	3.671100	-11.034000	24.502962	0.000997	20.814876
793.230269	-2.992000	3.670200	-10.979000	24.466248	0.000997	20.807914
794.228633	-3.003100	3.670700	-11.023000	24.489530	0.000996	20.836487
795.225975	-3.013200	3.670900	-11.061000	24.461845	0.000995	20.812031
796.225461	-2.992000	3.671600	-10.984000	24.466795	0.000999	20.813204
797.225676	-2.995200	3.670200	-10.991000	24.500723	0.000994	20.828750
798.227972	-2.981700	3.670900	-10.945000	24.493460	0.000996	20.802498
799.227174	-3.008800	3.669500	-11.040000	24.504404	0.000994	20.807314
800.229309	-3.012500	3.669600	-11.053000	24.508782	0.000994	20.809335
801.227526	-2.987100	3.670000	-10.961000	24.540469	0.000994	20.805093
802.228931	-3.022900	3.666800	-11.084000	24.566486	0.000992	20.802747
803.229933	-2.981100	3.668200	-10.935000	24.536539	0.000996	20.800675
804.229267	-3.018400	3.668300	-11.071000	24.542384	0.000994	20.802272
805.229268	-3.017200	3.667100	-11.063000	24.560043	0.000995	20.796757
806.229497	-2.985200	3.669400	-10.953000	24.580041	0.000992	20.806864
807.230498	-3.005900	3.666000	-11.018000	24.567579	0.000991	20.800525
808.229497	-3.020500	3.665000	-11.069000	24.568873	0.000992	20.809410
809.231837	-2.991900	3.667300	-10.971000	24.564172	0.000991	20.790943
810.230469	-3.004600	3.665800	-11.013000	24.535047	0.000992	20.803920
811.232790	-3.004700	3.664500	-11.009000	24.539648	0.000991	20.782458
812.236389	-2.997500	3.665100	-10.985000	24.546438	0.000990	20.786899
813.232437	-2.994500	3.664300	-10.971000	24.550816	0.000990	20.800775
814.233620	-3.003600	3.664000	-11.003000	24.577080	0.000990	20.801523
815.234638	-3.023200	3.662600	-11.071000	24.588322	0.000989	20.793363
816.235675	-3.007800	3.663800	-11.018000	24.605782	0.000990	20.785277
817.235937	-2.970800	3.664700	-10.886000	24.614064	0.000990	20.786001
818.241345	-3.004700	3.664000	-11.008000	24.620381	0.000989	20.785702
819.236980	-2.974900	3.663700	-10.899000	24.614785	0.000989	20.781509
820.237780	-3.015500	3.662600	-11.044000	24.646918	0.000989	20.790518
821.237954	-3.014200	3.662100	-11.037000	24.661218	0.000987	20.784005
822.238428	-3.011400	3.663400	-11.029000	24.684820	0.000989	20.791567
823.238834	-3.021400	3.661100	-11.060000	24.684745	0.000986	20.785802
824.239610	-2.988400	3.664500	-10.950000	24.660646	0.000988	20.789120
825.239643	-3.004700	3.662600	-11.003000	24.641421	0.000986	20.790219
826.239953	-2.997700	3.660300	-10.971000	24.610010	0.000989	20.784304
827.239434	-2.992300	3.661400	-10.955000	24.632270	0.000987	20.772974
828.244647	-2.995800	3.661400	-10.968000	24.646470	0.000988	20.791491
829.244015	-2.975400	3.661500	-10.893000	24.661069	0.000987	20.796183
830.241356	-3.001300	3.661000	-10.987000	24.698273	0.000983	20.790368
831.245113	-2.961300	3.661400	-10.842000	24.718989	0.000988	20.795035
832.241815	-2.997000	3.659400	-10.966000	24.750845	0.000986	20.801398
833.242429	-2.999200	3.659000	-10.972000	24.776359	0.000986	20.792389
834.244683	-3.001000	3.659800	-10.982000	24.765467	0.000984	20.783356
835.241683	-3.002900	3.659700	-10.988000	24.758280	0.000983	20.786101
836.241687	-2.992700	3.660900	-10.955000	24.729259	0.000985	20.792065
837.241689	-3.000700	3.659000	-10.978000	24.704789	0.000987	20.783630
838.246143	-2.995800	3.658100	-10.958000	24.709166	0.000985	20.774746
839.241509	-2.993500	3.660500	-10.956000	24.710459	0.000983	20.773672
840.243441	-3.009900	3.657800	-11.008000	24.705534	0.000986	20.808086
841.246808	-2.991900	3.657600	-10.942000	24.731149	0.000983	20.786849
842.246344	-3.005100	3.656500	-10.986000	24.745722	0.000985	20.769230
843.245675	-2.975300	3.658400	-10.883000	24.761413	0.000982	20.769330
844.251002	-2.971900	3.658300	-10.871000	24.767008	0.000981	20.767358
845.246888	-2.973900	3.657000	-10.875000	24.748009	0.000983	20.777690
846.247905	-2.982700	3.658000	-10.909000	24.782152	0.000982	20.788720
847.248268	-3.001000	3.656000	-10.971000	24.811544	0.000981	20.775544
848.249154	-2.999500	3.655500	-10.964000	24.820372	0.000981	20.786300
849.249185	-3.010300	3.654400	-10.999000	24.820074	0.000980	20.776517
850.251186	-2.994600	3.654400	-10.942000	24.825519	0.000978	20.777241
851.251799	-3.005600	3.653900	-10.981000	24.838922	0.000979	20.775519
852.248794	-3.003300	3.654600	-10.975000	24.821267	0.000978	20.772499
853.250398	-3.021800	3.652800	-11.037000	24.814852	0.000979	20.782182
854.249943	-3.003000	3.653300	-10.969000	24.809356	0.000979	20.787573
855.251387	-3.019800	3.653400	-11.032000	24.792049	0.000976	20.765461
856.250598	-2.993500	3.654000	-10.937000	24.831910	0.000978	20.760420
857.251626	-2.976400	3.653700	-10.874000	24.798241	0.000976	20.758873
858.253223	-2.968600	3.654200	-10.847000	24.778870	0.000978	20.768356
859.252375	-3.005600	3.654100	-10.982000	24.724832	0.000978	20.776243
860.254377	-2.994600	3.651300	-10.933000	24.716253	0.000975	20.754357
861.254230	-2.983700	3.652800	-10.898000	24.699242	0.000977	20.759098
862.253749	-3.016400	3.651300	-11.013000	24.705734	0.000976	20.773198
863.254416	-3.001900	3.650700	-10.959000	24.710185	0.000975	20.755379
864.254414	-2.996800	3.651600	-10.942000	24.709015	0.000974	20.769853
865.253626	-2.991600	3.650700	-10.920000	24.717297	0.000975	20.753033
866.257061	-2.981500	3.652100	-10.888000	24.757285	0.000974	20.749065
867.254058	-2.966400	3.653000	-10.835000	24.746542	0.000975	20.752035
868.254062	-2.980000	3.651100	-10.880000	24.746144	0.000975	20.763016
869.258059	-2.980300	3.651400	-10.880000	24.755420	0.000976	20.757151
870.253610	-2.990200	3.651100	-10.917000	24.745523	0.000976	20.757651
871.254000	-2.987600	3.649600	-10.903000	24.773225	0.000975	20.763640
872.257313	-2.994800	3.648700	-10.926000	24.791378	0.000972	20.754357
873.254854	-2.983600	3.650100	-10.889000	24.818731	0.000973	20.768057
874.254311	-3.003100	3.647400	-10.953000	24.792298	0.000975	20.746271
875.257311	-2.996200	3.648400	-10.929000	24.796675	0.000970	20.744025
876.257624	-3.000200	3.649100	-10.948000	24.813012	0.000972	20.763740
877.255300	-2.994900	3.648300	-10.926000	24.790359	0.000971	20.769929
878.258299	-2.973500	3.648000	-10.845000	24.784416	0.000973	20.754481
879.258755	-3.004800	3.647100	-10.957000	24.787250	0.000971	20.742627
880.257773	-3.001600	3.647400	-10.947000	24.740425	0.000968	20.768182
881.259299	-3.020000	3.647800	-11.015000	24.735004	0.000972	20.754207
882.257286	-3.011500	3.647200	-10.982000	24.720829	0.000973	20.743775
883.258044	-2.981900	3.647100	-10.875000	24.737516	0.000969	20.741080
884.257633	-3.003400	3.645500	-10.948000	24.748358	0.000969	20.740581
885.259070	-2.990300	3.645700	-10.900000	24.783247	0.000968	20.755205
886.258073	-2.995700	3.646100	-10.922000	24.752711	0.000970	20.734991
887.258621	-2.998500	3.646300	-10.932000	24.730603	0.000969	20.752635
888.258684	-3.009500	3.644900	-10.968000	24.764474	0.000970	20.756280
889.258438	-3.007600	3.645900	-10.964000	24.747912	0.000968	20.762419
890.258437	-2.986900	3.645400	-10.888000	24.758729	0.000967	20.708313
891.259587	-2.982600	3.645000	-10.870000	24.799287	0.000968	20.775096
892.259805	-3.001200	3.644100	-10.936000	24.828505	0.000966	20.764116
893.259800	-2.988100	3.643100	-10.884000	24.789093	0.000966	20.747795
894.260242	-2.980400	3.643800	-10.859000	24.787824	0.000965	20.751738
895.260447	-2.987500	3.643000	-10.882000	24.787948	0.000966	20.752337
896.260489	-3.027700	3.641900	-11.025000	24.788049	0.000963	20.752911
897.261487	-3.013100	3.642200	-10.974000	24.791679	0.000963	20.771255
898.261490	-2.995200	3.642800	-10.910000	24.802347	0.000965	20.752089
899.262152	-3.005800	3.641500	-10.945000	24.824852	0.000964	20.762346
900.261343	-3.008700	3.641400	-10.955000	24.840293	0.000965	20.757928
901.261901	-3.008900	3.640800	-10.954000	24.860982	0.000964	20.748346
902.261691	-2.988100	3.640900	-10.879000	24.856283	0.000963	20.759751
903.262563	-3.001500	3.640200	-10.926000	24.890099	0.000961	20.749594
904.265184	-3.002200	3.640000	-10.927000	24.914815	0.000963	20.744054
905.263183	-3.005600	3.639400	-10.937000	24.914790	0.000960	20.743081
906.265047	-2.995700	3.639900	-10.904000	24.884804	0.000962	20.769884
907.267122	-2.994700	3.639600	-10.898000	24.908798	0.000961	20.734222
908.266782	-2.988100	3.640800	-10.877000	24.894850	0.000961	20.749146
909.265254	-3.001200	3.639700	-10.923000	24.897187	0.000960	20.757183
910.264474	-2.992900	3.638900	-10.889000	24.892413	0.000961	20.759978
911.265029	-3.009300	3.637400	-10.946000	24.889330	0.000959	20.752142
912.268252	-3.018200	3.636600	-10.975000	24.919839	0.000957	20.741985
913.265477	-3.011300	3.636400	-10.949000	24.891444	0.000958	20.752841
914.266064	-2.998900	3.637000	-10.905000	24.859916	0.000958	20.750595
915.265463	-3.004100	3.637300	-10.926000	24.885004	0.000959	20.770086
916.265670	-3.021900	3.636900	-10.988000	24.851536	0.000957	20.743133
917.265668	-3.013700	3.635900	-10.956000	24.839402	0.000955	20.759405
918.267945	-3.023200	3.635700	-10.989000	24.826546	0.000957	20.741760
919.267118	-3.006600	3.635700	-10.930000	24.805062	0.000955	20.742484
920.268627	-3.000400	3.636000	-10.908000	24.794071	0.000955	20.764172
921.268076	-2.994800	3.636200	-10.888000	24.802551	0.000957	20.762251
922.267991	-2.990300	3.635700	-10.871000	24.810757	0.000956	20.755313
923.270391	-3.012600	3.633500	-10.946000	24.814214	0.000953	20.745505
924.267835	-3.007800	3.634700	-10.931000	24.872946	0.000952	20.753241
925.268147	-3.007300	3.634400	-10.929000	24.885254	0.000955	20.756111
926.271307	-3.006800	3.634400	-10.925000	24.923794	0.000953	20.742635
927.269268	-3.003300	3.632900	-10.909000	24.910417	0.000952	20.763823
928.268572	-2.996900	3.633600	-10.888000	24.889979	0.000952	20.750422
929.270451	-2.997300	3.632900	-10.887000	24.851861	0.000953	20.756736
930.272310	-3.000600	3.633000	-10.900000	24.840199	0.000954	20.753092
931.268308	-3.009100	3.631200	-10.926000	24.816900	0.000953	20.733976
932.269917	-3.021800	3.631400	-10.971000	24.840423	0.000950	20.748101
933.269881	-3.013000	3.631200	-10.940000	24.863374	0.000953	20.757859
934.270101	-3.002900	3.630200	-10.900000	24.894008	0.000952	20.756362
935.270103	-3.023500	3.631500	-10.977000	24.877970	0.000952	20.751645
936.272384	-2.998300	3.631200	-10.886000	24.832467	0.000952	20.764298
937.275105	-2.983600	3.631100	-10.832000	24.837788	0.000950	20.773907
938.273594	-2.992000	3.630600	-10.861000	24.825803	0.000951	20.757136
939.275599	-2.988200	3.630500	-10.847000	24.821252	0.000949	20.761104
940.272560	-2.988200	3.629600	-10.845000	24.873445	0.000949	20.762752
941.275063	-3.027000	3.628200	-10.980000	24.878766	0.000948	20.751496
942.274289	-3.000800	3.627900	-10.886000	24.902736	0.000951	20.765597
943.274467	-3.004900	3.629500	-10.905000	24.875111	0.000949	20.747828
944.274695	-3.013700	3.629000	-10.936000	24.878344	0.000949	20.757711
945.277825	-3.018100	3.628300	-10.949000	24.874091	0.000948	20.750597
946.277202	-3.001600	3.629100	-10.892000	24.856288	0.000947	20.759282
947.275202	-3.014400	3.627500	-10.933000	24.865016	0.000947	20.767094
948.275150	-3.017500	3.626900	-10.943000	24.889484	0.000946	20.763675
949.275887	-3.030800	3.626500	-10.990000	24.883840	0.000948	20.749950
950.274495	-3.017700	3.625900	-10.941000	24.919817	0.000947	20.768516
951.275070	-3.007000	3.625900	-10.903000	24.935979	0.000944	20.748228
952.275815	-3.007300	3.626700	-10.906000	24.963105	0.000946	20.760755
953.274872	-3.008400	3.626900	-10.910000	24.975810	0.000947	20.761180
954.274871	-2.995700	3.626200	-10.862000	24.994058	0.000945	20.777126
955.277819	-2.988600	3.625900	-10.835000	25.023072	0.000945	20.764524
956.275055	-2.989800	3.626400	-10.841000	25.026330	0.000944	20.778225
957.275054	-3.009400	3.624900	-10.908000	25.060513	0.000944	20.782193
958.274354	-2.999300	3.625200	-10.871000	25.074063	0.000942	20.769241
959.274599	-3.004800	3.623600	-10.886000	25.049003	0.000940	20.765423
960.274359	-2.975700	3.625000	-10.786000	25.021507	0.000942	20.769117
961.274524	-3.005200	3.623700	-10.889000	24.991822	0.000940	20.769666
962.277183	-3.027100	3.622300	-10.964000	24.966437	0.000941	20.773109
963.277303	-3.008900	3.623600	-10.901000	24.952166	0.000942	20.759733
964.277642	-3.025900	3.621300	-10.957000	24.986277	0.000940	20.765049
965.281470	-2.994800	3.622100	-10.847000	24.993562	0.000939	20.769042
966.277935	-3.013900	3.622700	-10.916000	24.991350	0.000940	20.780097
967.279121	-3.001200	3.622900	-10.872000	25.023049	0.000941	20.779199
968.283346	-3.015900	3.621000	-10.920000	25.011239	0.000939	20.780621
969.280866	-3.028400	3.619400	-10.959000	25.030731	0.000941	20.784066
970.281622	-3.006800	3.620600	-10.884000	24.993015	0.000939	20.772286
971.281291	-3.001300	3.621100	-10.867000	25.012284	0.000939	20.755591
972.279288	-2.983500	3.620600	-10.801000	25.010767	0.000938	20.766871
973.279316	-2.989900	3.621100	-10.825000	25.027027	0.000939	20.779400
974.279537	-2.992500	3.619200	-10.830000	25.017231	0.000936	20.787584
975.282175	-2.979600	3.621200	-10.788000	25.000102	0.000936	20.777976
976.282578	-2.999200	3.620400	-10.857000	25.034062	0.000937	20.780771
977.281014	-3.011900	3.619100	-10.899000	24.989361	0.000936	20.757712
978.283235	-3.008800	3.619400	-10.888000	24.983792	0.000937	20.783417
979.280591	-2.992000	3.618500	-10.826000	24.965294	0.000937	20.792351
980.281044	-3.000800	3.618100	-10.856000	24.952118	0.000932	20.765849
981.281343	-2.999300	3.617700	-10.849000	24.950104	0.000934	20.768569
982.281559	-3.024300	3.617000	-10.937000	24.972828	0.000936	20.779999
983.283559	-2.981500	3.618500	-10.788000	24.991226	0.000935	20.790405
984.280557	-3.004100	3.616900	-10.865000	24.990331	0.000932	20.774808
985.285005	-3.012200	3.617000	-10.894000	24.985881	0.000934	20.770815
986.284051	-3.008700	3.616400	-10.880000	25.001146	0.000932	20.784241
987.281426	-3.008400	3.617500	-10.882000	25.014324	0.000932	20.789882
988.285860	-2.999200	3.616800	-10.847000	25.026406	0.000931	20.776405
989.286621	-2.993100	3.615200	-10.820000	25.075855	0.000929	20.783368
990.281502	-3.000600	3.616000	-10.850000	25.088832	0.000930	20.781222
991.283503	-2.991400	3.615100	-10.814000	25.110261	0.000930	20.797044
992.286529	-2.981000	3.617600	-10.783000	25.082865	0.000930	20.793251
993.282922	-2.995300	3.614400	-10.824000	25.102181	0.000930	20.792252
994.286149	-3.003700	3.614000	-10.855000	25.121895	0.000929	20.787861
995.282489	-2.983200	3.614800	-10.783000	25.140738	0.000929	20.784966
996.283634	-3.010200	3.614400	-10.879000	25.128284	0.000927	20.797119
997.286941	-2.998600	3.614000	-10.836000	25.157717	0.000928	20.782096
998.283942	-3.009200	3.614200	-10.875000	25.165424	0.000927	20.793626
999.284940	-3.000400	3.613100	-10.840000	25.147251	0.000927	20.787711
1000.289954	-2.996700	3.613400	-10.827000	25.144816	0.000925	20.761083
1001.284952	-2.995600	3.612700	-10.820000	25.160253	0.000924	20.797444
1002.284302	-2.995200	3.612900	-10.820000	25.131393	0.000926	20.808300
1003.287101	-2.994200	3.612300	-10.815000	25.166766	0.000925	20.816310
1004.285776	-2.994800	3.610700	-10.812000	25.167313	0.000925	20.777505
1005.285263	-3.000600	3.611500	-10.836000	25.147998	0.000925	20.790831
1006.290258	-2.986000	3.612700	-10.785000	25.154486	0.000924	20.829586
1007.286329	-3.020100	3.609900	-10.902000	25.145786	0.000923	20.786714
1008.285866	-2.993200	3.611400	-10.808000	25.153343	0.000925	20.779127
1009.287055	-2.979600	3.611700	-10.760000	25.151254	0.000924	20.798842
1010.290205	-2.998200	3.609400	-10.821000	25.142977	0.000922	20.787213
1011.289138	-2.998300	3.609000	-10.820000	25.141212	0.000922	20.817209
1012.285635	-2.990700	3.609900	-10.795000	25.181731	0.000923	20.789134
1013.285957	-2.982100	3.608900	-10.761000	25.144542	0.000920	20.793526
1014.287259	-2.998100	3.608800	-10.818000	25.170694	0.000922	20.789434
1015.291132	-2.985800	3.608600	-10.773000	25.175043	0.000921	20.819404
1016.287133	-2.980300	3.608300	-10.753000	25.172558	0.000921	20.813590
1017.287130	-2.979400	3.607500	-10.748000	25.186975	0.000920	20.794874
1018.286376	-2.988100	3.607100	-10.777000	25.201269	0.000920	20.795473
1019.286831	-3.000000	3.606600	-10.819000	25.174049	0.000921	20.811294
1020.291256	-3.016300	3.607400	-10.880000	25.175441	0.000919	20.810321
1021.289639	-2.986700	3.605800	-10.768000	25.179270	0.000921	20.784293
1022.289254	-3.007900	3.607200	-10.848000	25.172732	0.000921	20.796222
1023.290607	-2.994000	3.606100	-10.796000	25.183495	0.000917	20.814139
1024.290957	-3.015600	3.603900	-10.868000	25.198261	0.000917	20.822798
1025.289733	-3.010700	3.603700	-10.847000	25.223714	0.000917	20.788135
1026.291777	-3.003400	3.606500	-10.831000	25.217226	0.000915	20.822399
1027.291226	-3.008800	3.605000	-10.846000	25.189163	0.000916	20.794699
1028.292522	-3.014900	3.602600	-10.860000	25.184216	0.000915	20.831931
1029.293553	-3.002100	3.604400	-10.819000	25.210863	0.000916	20.820751
1030.291583	-2.990100	3.604600	-10.778000	25.211758	0.000913	20.813116
1031.291548	-3.005800	3.604700	-10.834000	25.232538	0.000916	20.806952
1032.291548	-3.026400	3.602600	-10.902000	25.234775	0.000914	20.812991
1033.291583	-2.987900	3.603500	-10.765000	25.227815	0.000912	20.829236
1034.291938	-3.015200	3.603400	-10.863000	25.183768	0.000914	20.828163
1035.292717	-3.005600	3.604100	-10.831000	25.166218	0.000914	20.830459
1036.292921	-2.993000	3.601400	-10.778000	25.155703	0.000913	20.819902
1037.293717	-3.015800	3.600900	-10.859000	25.135020	0.000913	20.816209
1038.294858	-3.008900	3.601300	-10.835000	25.137804	0.000910	20.800986
1039.294909	-2.986300	3.600900	-10.752000	25.118862	0.000912	20.811842
1040.296909	-3.006700	3.601500	-10.828000	25.153615	0.000912	20.812591
1041.298128	-3.016000	3.599000	-10.854000	25.183444	0.000910	20.812665
1042.297144	-3.003400	3.599800	-10.810000	25.231344	0.000911	20.814762
1043.299189	-3.019600	3.599100	-10.866000	25.248471	0.000911	20.828637
1044.296672	-3.010700	3.598900	-10.834000	25.285157	0.000906	20.811417
1045.299841	-2.986000	3.599200	-10.747000	25.283914	0.000908	20.824393
1046.297369	-2.991600	3.599600	-10.768000	25.309093	0.000909	20.827389
1047.297449	-2.977200	3.599700	-10.716000	25.298331	0.000905	20.830808
1048.301106	-3.002200	3.597900	-10.800000	25.317419	0.000908	20.835748
1049.298876	-2.990900	3.598100	-10.760000	25.304992	0.000905	20.811417
1050.300449	-3.004600	3.597500	-10.807000	25.337675	0.000907	20.847077
1051.303222	-3.010200	3.597700	-10.829000	25.353606	0.000908	20.831306
1052.301254	-3.006900	3.596500	-10.813000	25.329498	0.000906	20.842660
1053.301746	-3.026700	3.596600	-10.885000	25.337973	0.000904	20.838842
1054.302654	-3.011000	3.596800	-10.829000	25.334767	0.000906	20.819502
1055.304905	-2.974700	3.596400	-10.696000	25.314486	0.000905	20.821898
1056.302446	-2.971500	3.598200	-10.690000	25.320153	0.000905	20.824268
1057.304566	-2.977200	3.595000	-10.702000	25.327012	0.000903	20.850595
1058.303654	-2.996000	3.593900	-10.766000	25.322563	0.000903	20.824792
1059.304279	-3.003700	3.595100	-10.798000	25.282944	0.000902	20.821049
1060.304508	-3.007400	3.594200	-10.807000	25.232610	0.000903	20.831679
1061.304612	-3.000000	3.594200	-10.781000	25.227241	0.000902	20.818703
1062.304315	-3.017700	3.593800	-10.843000	25.232685	0.000899	20.830806
1063.305580	-2.994300	3.594500	-10.761000	25.237830	0.000901	20.815583
1064.304796	-3.013400	3.592400	-10.824000	25.260996	0.000901	20.829833
1065.308279	-3.004800	3.592600	-10.792000	25.262115	0.000899	20.835223
1066.307046	-2.987300	3.593600	-10.734000	25.274493	0.000900	20.834849
1067.309957	-3.013800	3.592500	-10.825000	25.274618	0.000901	20.845879
1068.310898	-2.999600	3.592100	-10.773000	25.279290	0.000897	20.834450
1069.307644	-3.004000	3.591200	-10.786000	25.251303	0.000900	20.847601
1070.311914	-3.000700	3.591500	-10.777000	25.222270	0.000896	20.835997
1071.314244	-3.003300	3.591700	-10.786000	25.235096	0.000899	20.833701
1072.308706	-2.993000	3.592800	-10.752000	25.253788	0.000897	20.828760
1073.312702	-3.012500	3.589600	-10.812000	25.266689	0.000896	20.839816
1074.315738	-2.992300	3.590100	-10.742000	25.292762	0.000896	20.836122
1075.311473	-3.015200	3.589000	-10.820000	25.312945	0.000896	20.857334
1076.315120	-2.995000	3.588800	-10.748000	25.341975	0.000895	20.848550
1077.313645	-3.006700	3.588000	-10.788000	25.337154	0.000895	20.830433
1078.311687	-3.018200	3.587700	-10.827000	25.332232	0.000895	20.850621
1079.314721	-2.984400	3.588800	-10.709000	25.336483	0.000893	20.851095
1080.316474	-3.007600	3.589300	-10.794000	25.367649	0.000893	20.854414
1081.312993	-2.991500	3.588700	-10.734000	25.354279	0.000891	20.858058
1082.313912	-3.005200	3.588600	-10.783000	25.362952	0.000891	20.842112
1083.314621	-2.984500	3.587100	-10.705000	25.359871	0.000891	20.849923
1084.312677	-3.000000	3.586400	-10.758000	25.384103	0.000890	20.854814
1085.317294	-3.003700	3.586700	-10.773000	25.396728	0.000890	20.858008
1086.313397	-3.019100	3.586200	-10.826000	25.393970	0.000890	20.851445
1087.315549	-3.010600	3.586300	-10.795000	25.398518	0.000889	20.855538
1088.315945	-3.022100	3.583500	-10.828000	25.399288	0.000888	20.858682
1089.317932	-2.993200	3.585900	-10.732000	25.413355	0.000887	20.851470
1090.316505	-2.982800	3.587000	-10.698000	25.420587	0.000892	20.856836
1091.316607	-2.995100	3.584900	-10.736000	25.415318	0.000889	20.865769
1092.316545	-2.986100	3.585400	-10.705000	25.411714	0.000887	20.857409
1093.317106	-2.992900	3.584500	-10.727000	25.407913	0.000887	20.877772
1094.317313	-2.990200	3.585400	-10.721000	25.430577	0.000888	20.862125
1095.316376	-3.007000	3.582800	-10.773000	25.434728	0.000886	20.865819
1096.317944	-2.979300	3.583400	-10.675000	25.445638	0.000885	20.879619
1097.319888	-2.998600	3.583700	-10.745000	25.452622	0.000886	20.866244
1098.318244	-2.991100	3.583400	-10.716000	25.420985	0.000886	20.875726
1099.320394	-2.997100	3.581800	-10.734000	25.420836	0.000885	20.867990
1100.318845	-2.986800	3.582000	-10.698000	25.432790	0.000883	20.879519
1101.319912	-3.000100	3.583000	-10.748000	25.441165	0.000882	20.867541
1102.319915	-3.014400	3.582000	-10.796000	25.470764	0.000884	20.870711
1103.321978	-2.995600	3.582200	-10.730000	25.441663	0.000881	20.877523
1104.320442	-3.010200	3.581100	-10.779000	25.411070	0.000881	20.866244
1105.321038	-2.989300	3.581900	-10.706000	25.374486	0.000880	20.873606
1106.322319	-3.005900	3.580500	-10.761000	25.355548	0.000880	20.868815
1107.321319	-3.005800	3.579600	-10.758000	25.309145	0.000880	20.868691
1108.321863	-2.999200	3.580400	-10.737000	25.309469	0.000880	20.880868
1109.321903	-2.998200	3.580600	-10.734000	25.329477	0.000878	20.887681
1110.323171	-2.991800	3.579600	-10.708000	25.338747	0.000877	20.879446
1111.322321	-3.003800	3.578300	-10.748000	25.375978	0.000879	20.870837
1112.323462	-3.019400	3.577600	-10.801000	25.360619	0.000877	20.864898
1113.323431	-3.018300	3.577700	-10.798000	25.364049	0.000878	20.886833
1114.325456	-2.994400	3.577700	-10.712000	25.387560	0.000876	20.870139
1115.324180	-3.006500	3.578700	-10.759000	25.398074	0.000876	20.868842
1116.326031	-2.989400	3.578300	-10.695000	25.404138	0.000875	20.884413
1117.326054	-3.009800	3.577000	-10.764000	25.403914	0.000875	20.894144
1118.325175	-2.997300	3.575100	-10.714000	25.454489	0.000876	20.897514
1119.325788	-2.972400	3.576900	-10.631000	25.413856	0.000875	20.898437
1120.325726	-3.009700	3.575400	-10.759000	25.410402	0.000873	20.913459
1121.325753	-2.993500	3.576200	-10.704000	25.383386	0.000875	20.891549
1122.327072	-2.986900	3.576000	-10.680000	25.356867	0.000872	20.871087
1123.327075	-2.999700	3.574400	-10.721000	25.366884	0.000874	20.895842
1124.328191	-2.996400	3.575400	-10.712000	25.359426	0.000873	20.894044
1125.326613	-2.992700	3.574200	-10.696000	25.340587	0.000872	20.890776
1126.332886	-3.007600	3.574800	-10.750000	25.343694	0.000872	20.883465
1127.329886	-2.979000	3.574800	-10.648000	25.349535	0.000872	20.890277
1128.329113	-2.988900	3.573000	-10.678000	25.385275	0.000870	20.886335
1129.331060	-3.004500	3.572800	-10.734000	25.361067	0.000869	20.888580
1130.329655	-2.997900	3.573600	-10.713000	25.337556	0.000869	20.893422
1131.328833	-2.970500	3.573300	-10.614000	25.351424	0.000870	20.882691
1132.329110	-3.003000	3.572200	-10.727000	25.334896	0.000871	20.929628
1133.328933	-2.988000	3.571200	-10.670000	25.359527	0.000870	20.903627
1134.328935	-2.993400	3.571100	-10.689000	25.342800	0.000870	20.929030
1135.328771	-2.985300	3.571400	-10.661000	25.398621	0.000868	20.908743
1136.331907	-2.996600	3.571200	-10.700000	25.395590	0.000869	20.885312
1137.329577	-2.993400	3.570600	-10.688000	25.376775	0.000866	20.901032
1138.329556	-2.997500	3.570800	-10.703000	25.351972	0.000867	20.918799
1139.328554	-3.006800	3.569300	-10.731000	25.364547	0.000868	20.907720
1140.328844	-3.015700	3.568400	-10.760000	25.363479	0.000866	20.914233
1141.328382	-2.991000	3.568500	-10.671000	25.345833	0.000865	20.896042
1142.328887	-2.982400	3.569100	-10.644000	25.353661	0.000865	20.896316
1143.332323	-3.007000	3.567600	-10.726000	25.386071	0.000864	20.908469
1144.331518	-3.003700	3.569900	-10.721000	25.382815	0.000862	20.908518
1145.338531	-2.984600	3.568700	-10.649000	25.393427	0.000862	20.911588
1146.333667	-3.003000	3.567000	-10.710000	25.404586	0.000865	20.889130
1147.330863	-3.005500	3.568000	-10.723000	25.390047	0.000863	20.906772
1148.331330	-3.010700	3.568200	-10.742000	25.364423	0.000861	20.908069
1149.333760	-3.002900	3.567400	-10.712000	25.397006	0.000862	20.896691
1150.335005	-2.988000	3.565800	-10.653000	25.402920	0.000861	20.890302
1151.332273	-2.968700	3.568300	-10.591000	25.436496	0.000862	20.894145
1152.334786	-3.015300	3.565300	-10.749000	25.410675	0.000862	20.896665
1153.335753	-2.994100	3.566500	-10.677000	25.376999	0.000859	20.894619
1154.335787	-3.002200	3.564500	-10.701000	25.384604	0.000860	20.896565
1155.335517	-3.015200	3.564600	-10.746000	25.402672	0.000858	20.895268
1156.335368	-2.999400	3.564000	-10.689000	25.396285	0.000858	20.913508
1157.335638	-2.963400	3.566200	-10.567000	25.415148	0.000857	20.899735
1158.335139	-2.998400	3.563800	-10.684000	25.443033	0.000855	20.901182
1159.335452	-3.001600	3.563100	-10.693000	25.393029	0.000856	20.874207
1160.336453	-2.990400	3.566500	-10.663000	25.394818	0.000856	20.888805
1161.337898	-3.011200	3.564000	-10.730000	25.404884	0.000856	20.883265
1162.341500	-2.980400	3.563200	-10.618000	25.431079	0.000854	20.885387
1163.336982	-3.027400	3.562800	-10.784000	25.452376	0.000856	20.885910
1164.338156	-3.012800	3.560700	-10.726000	25.468530	0.000855	20.886485
1165.338547	-2.994500	3.562800	-10.668000	25.484186	0.000855	20.869017
1166.336556	-3.014700	3.562500	-10.739000	25.499867	0.000853	20.885711
1167.337054	-3.012700	3.562300	-10.731000	25.530582	0.000852	20.883365
1168.337707	-3.006500	3.561500	-10.707000	25.553146	0.000852	20.885636
1169.336782	-2.998800	3.561400	-10.679000	25.536123	0.000852	20.875180
1170.337749	-2.994500	3.559900	-10.660000	25.543727	0.000854	20.894669
1171.337749	-2.976400	3.561800	-10.600000	25.548300	0.000852	20.896890
1172.340783	-3.009200	3.558800	-10.708000	25.557071	0.000850	20.872510
1173.340579	-2.994500	3.559200	-10.657000	25.531725	0.000849	20.861755
1174.337902	-3.000300	3.558100	-10.674000	25.497681	0.000850	20.876878
1175.340901	-2.983400	3.559300	-10.618000	25.512939	0.000848	20.882243
1176.342112	-2.996700	3.558600	-10.663000	25.523277	0.000851	20.864651
1177.338338	-2.996500	3.558200	-10.662000	25.520022	0.000848	20.878924
1178.341468	-3.021700	3.557700	-10.750000	25.543206	0.000845	20.887982
1179.341509	-3.013700	3.556700	-10.718000	25.557570	0.000848	20.871114
1180.340676	-2.993000	3.557100	-10.644000	25.547182	0.000845	20.874907
1181.344244	-2.997900	3.558100	-10.665000	25.560377	0.000845	20.887209
1182.342086	-2.993100	3.557600	-10.647000	25.546188	0.000847	20.865848
1183.342706	-2.979900	3.556200	-10.597000	25.550736	0.000843	20.874208
1184.351716	-2.975000	3.556100	-10.579000	25.557718	0.000844	20.842816
1185.343308	-3.006300	3.556900	-10.692000	25.535453	0.000844	20.850800
1186.348118	-2.996600	3.556200	-10.655000	25.534931	0.000845	20.849803
1187.342358	-2.996800	3.555600	-10.654000	25.500737	0.000843	20.848181
1188.344538	-3.003400	3.554500	-10.675000	25.507173	0.000843	20.848954
1189.342812	-2.986500	3.554300	-10.613000	25.518232	0.000842	20.853896
1190.343793	-2.990100	3.554300	-10.627000	25.518903	0.000842	20.857888
1191.347073	-3.013100	3.554000	-10.706000	25.548350	0.000841	20.858536
1192.345502	-3.011900	3.552400	-10.697000	25.541839	0.000842	20.847257
1193.345571	-3.004700	3.553600	-10.676000	25.565024	0.000839	20.867695
1194.348541	-3.016600	3.552400	-10.715000	25.568502	0.000839	20.857438
1195.345582	-3.014000	3.553100	-10.708000	25.569247	0.000836	20.851549
1196.346452	-2.999200	3.552000	-10.653000	25.580927	0.000837	20.842890
1197.347700	-2.999500	3.551300	-10.651000	25.558811	0.000835	20.863827
1198.349735	-3.006500	3.551300	-10.676000	25.532843	0.000836	20.865723
1199.347714	-2.992600	3.551000	-10.625000	25.478048	0.000834	20.840569
1200.349501	-2.986300	3.551800	-10.606000	25.470866	0.000836	20.840944
1201.348640	-3.027300	3.549600	-10.744000	25.471139	0.000835	20.839795
1202.348046	-3.011100	3.550300	-10.689000	25.485479	0.000834	20.864151
1203.350315	-3.012400	3.549900	-10.691000	25.512392	0.000834	20.853246
1204.350533	-2.975000	3.549800	-10.560000	25.530433	0.000833	20.850975
1205.350567	-2.988800	3.550900	-10.612000	25.539454	0.000833	20.868568
1206.353730	-2.993300	3.547300	-10.616000	25.529214	0.000831	20.846907
1207.349759	-2.997900	3.548600	-10.636000	25.506030	0.000831	20.846383
1208.350062	-2.986400	3.549200	-10.599000	25.458714	0.000830	20.841068
1209.351064	-3.015600	3.548400	-10.700000	25.494723	0.000831	20.851150
1210.350841	-2.997500	3.547100	-10.632000	25.468953	0.000830	20.855143
1211.351871	-3.017000	3.547400	-10.700000	25.543677	0.000830	20.852896
1212.352976	-2.998900	3.548100	-10.640000	25.555233	0.000828	20.868293
1213.353302	-2.998200	3.546800	-10.632000	25.570987	0.000827	20.855666
1214.353736	-3.015200	3.547000	-10.694000	25.565321	0.000826	20.848554
1215.353266	-2.993400	3.546200	-10.615000	25.575534	0.000826	20.818509
1216.357439	-3.009600	3.546200	-10.671000	25.563084	0.000826	20.849153
1217.353691	-2.992200	3.545000	-10.606000	25.616559	0.000824	20.832683
1218.354669	-3.018300	3.546000	-10.702000	25.619242	0.000826	20.851499
1219.359103	-2.991000	3.545200	-10.602000	25.633902	0.000822	20.855791
1220.357581	-3.031700	3.543900	-10.742000	25.632337	0.000823	20.846633
1221.354907	-3.008400	3.542600	-10.657000	25.630771	0.000823	20.847905
1222.358001	-2.992400	3.543100	-10.601000	25.599165	0.000823	20.830861
1223.356049	-2.994400	3.542000	-10.605000	25.596729	0.000824	20.853071
1224.356050	-3.019200	3.542400	-10.694000	25.609899	0.000821	20.838797
1225.355478	-2.982500	3.542900	-10.566000	25.594393	0.000823	20.836974
1226.359144	-3.018400	3.541100	-10.687000	25.609924	0.000822	20.829813
1227.359144	-3.001800	3.541900	-10.630000	25.619291	0.000819	20.842066
1228.357145	-2.995700	3.541100	-10.606000	25.604383	0.000819	20.833731
1229.360166	-2.995100	3.541300	-10.606000	25.614297	0.000819	20.806704
1230.361166	-2.991600	3.541400	-10.593000	25.602792	0.000819	20.825970
1231.359188	-2.988900	3.541900	-10.585000	25.643170	0.000820	20.812470
1232.360423	-2.986200	3.541800	-10.574000	25.644238	0.000819	20.837723
1233.359423	-2.993400	3.539900	-10.595000	25.684118	0.000817	20.844586
1234.372656	-2.998200	3.541400	-10.617000	25.688117	0.000818	20.827741
1235.361877	-2.989900	3.540700	-10.586000	25.680937	0.000816	20.823848
1236.360878	-3.003200	3.539400	-10.629000	25.697136	0.000815	20.841067
1237.360400	-3.001500	3.538400	-10.619000	25.684191	0.000813	20.823798
1238.360262	-3.004500	3.540000	-10.635000	25.674104	0.000815	20.815563
1239.361264	-2.994900	3.540100	-10.600000	25.694229	0.000812	20.823449
1240.361262	-3.010700	3.537200	-10.648000	25.683619	0.000813	20.832232
1241.361640	-2.993000	3.538300	-10.589000	25.670450	0.000813	20.815687
1242.362771	-3.001600	3.537900	-10.619000	25.646697	0.000813	20.814589
1243.364204	-3.018100	3.536300	-10.671000	25.645678	0.000812	20.811195
1244.364866	-3.000400	3.536400	-10.608000	25.649156	0.000813	20.821800
1245.369867	-2.992000	3.536200	-10.579000	25.644609	0.000812	20.811070
1246.372026	-3.007600	3.537000	-10.637000	25.621873	0.000811	20.811469
1247.366614	-3.001800	3.535700	-10.613000	25.639266	0.000808	20.818031
1248.369713	-3.011800	3.535500	-10.647000	25.658423	0.000809	20.817358
1249.368092	-3.013200	3.535500	-10.652000	25.682723	0.000810	20.831806
1250.369970	-2.991200	3.534700	-10.571000	25.657404	0.000810	20.822972
1251.368969	-2.975900	3.535700	-10.521000	25.661429	0.000809	20.829859
1252.371380	-2.985300	3.534400	-10.551000	25.676014	0.000808	20.828861
1253.373465	-2.997500	3.534300	-10.593000	25.665379	0.000805	20.811542
1254.370000	-2.983300	3.533800	-10.540000	25.682498	0.000809	20.820675
1255.371603	-3.015200	3.532600	-10.650000	25.678423	0.000806	20.823695
1256.370403	-3.018800	3.531900	-10.660000	25.691244	0.000807	20.823769
1257.369800	-2.977400	3.534200	-10.521000	25.694250	0.000806	20.827263
1258.371789	-3.008400	3.533500	-10.628000	25.706847	0.000807	20.800561
1259.369898	-3.015900	3.532700	-10.653000	25.681553	0.000803	20.796493
1260.373045	-3.004300	3.532900	-10.611000	25.711592	0.000806	20.817181
1261.374042	-2.989700	3.531800	-10.558000	25.737555	0.000801	20.800585
1262.373075	-2.997200	3.530600	-10.581000	25.731990	0.000805	20.806849
1263.371364	-2.984200	3.531700	-10.538000	25.709207	0.000802	20.828061
1264.375418	-3.014300	3.529700	-10.639000	25.698398	0.000803	20.824317
1265.372471	-2.997200	3.530500	-10.580000	25.627486	0.000803	20.815209
1266.372487	-3.011500	3.529700	-10.629000	25.576223	0.000803	20.805451
1267.378049	-3.007900	3.529400	-10.615000	25.579056	0.000803	20.802606
1268.378048	-2.975800	3.529900	-10.502000	25.548840	0.000800	20.807822
1269.375103	-3.005300	3.527400	-10.600000	25.565911	0.000800	20.812163
1270.376773	-2.980800	3.528000	-10.514000	25.598860	0.000799	20.818228
1271.374985	-3.014300	3.526200	-10.627000	25.595953	0.000799	20.808670
1272.374983	-2.998500	3.527200	-10.575000	25.605643	0.000798	20.817454
1273.374983	-2.982600	3.527700	-10.520000	25.613719	0.000799	20.807547
1274.375908	-3.016400	3.525800	-10.635000	25.599407	0.000799	20.799811
1275.376130	-2.987300	3.527900	-10.538000	25.603109	0.000797	20.812537
1276.380086	-3.016100	3.526200	-10.634000	25.611035	0.000796	20.811963
1277.377216	-3.006400	3.525200	-10.597000	25.630790	0.000797	20.798139
1278.378937	-2.990400	3.526100	-10.543000	25.633051	0.000794	20.795668
1279.376090	-3.002300	3.525600	-10.583000	25.662693	0.000797	20.813112
1280.379881	-2.989100	3.526100	-10.538000	25.681651	0.000794	20.801333
1281.376843	-2.998700	3.525100	-10.569000	25.683068	0.000793	20.790428
1282.376649	-2.963200	3.525600	-10.446000	25.688285	0.000794	20.793771
1283.377405	-2.975400	3.524500	-10.486000	25.714001	0.000793	20.801108
1284.378407	-3.012900	3.523400	-10.615000	25.729082	0.000793	20.811988
1285.379405	-2.999000	3.523900	-10.567000	25.724908	0.000793	20.780295
1286.388407	-3.004500	3.522900	-10.583000	25.695789	0.000792	20.792774
1287.380408	-3.012300	3.521700	-10.607000	25.695987	0.000792	20.807671
1288.381405	-3.016500	3.521600	-10.622000	25.652432	0.000789	20.802331
1289.381406	-2.985300	3.522000	-10.514000	25.639063	0.000789	20.805500
1290.382923	-3.020600	3.521100	-10.633000	25.631361	0.000788	20.784488
1291.383435	-3.001600	3.521000	-10.567000	25.611160	0.000789	20.807347
1292.384434	-2.957400	3.523300	-10.418000	25.596002	0.000787	20.788804
1293.384434	-2.995600	3.520300	-10.543000	25.562431	0.000788	20.813885
1294.386993	-2.984600	3.522000	-10.510000	25.532364	0.000788	20.800285
1295.384990	-2.988700	3.520800	-10.522000	25.490019	0.000788	20.795692
1296.389990	-3.001200	3.519000	-10.560000	25.524187	0.000788	20.808195
1297.389991	-3.016700	3.518200	-10.612000	25.531941	0.000787	20.801756
1298.387996	-3.000200	3.519300	-10.558000	25.520038	0.000784	20.806872
1299.388543	-2.997700	3.519000	-10.548000	25.570208	0.000784	20.788979
1300.390543	-3.022300	3.516500	-10.627000	25.615010	0.000784	20.778497
1301.385544	-3.004000	3.515900	-10.560000	25.624452	0.000784	20.800783
1302.390545	-2.993000	3.518400	-10.530000	25.691340	0.000781	20.793994
1303.388544	-3.006900	3.515900	-10.571000	25.671611	0.000780	20.789352
1304.387547	-2.991000	3.518700	-10.523000	25.720310	0.000781	20.780892
1305.387544	-3.000100	3.515800	-10.547000	25.705974	0.000782	20.795416
1306.390544	-3.007200	3.517300	-10.576000	25.701402	0.000781	20.797937
1307.388545	-3.006000	3.515900	-10.568000	25.659486	0.000779	20.791398
1308.388544	-3.009800	3.515300	-10.579000	25.611803	0.000780	20.798984
1309.392545	-3.013800	3.513700	-10.588000	25.565262	0.000775	20.784485
1310.390070	-2.999700	3.515300	-10.543000	25.546327	0.000777	20.778745
1311.393068	-2.998800	3.514100	-10.536000	25.504529	0.000780	20.783237
1312.389068	-3.003000	3.513200	-10.549000	25.501621	0.000778	20.787904
1313.389068	-2.988300	3.513500	-10.499000	25.527515	0.000778	20.786880
1314.390068	-3.008100	3.513200	-10.567000	25.525452	0.000776	20.783387
1315.397069	-3.004300	3.514100	-10.555000	25.510169	0.000774	20.796487
1316.391067	-3.003500	3.512400	-10.547000	25.491457	0.000775	20.779593
1317.391069	-2.984600	3.512300	-10.481000	25.499633	0.000775	20.799657
1318.390102	-3.010400	3.510500	-10.567000	25.464916	0.000773	20.789450
1319.394103	-2.999600	3.512400	-10.534000	25.482733	0.000773	20.776522
1320.390103	-2.991400	3.511900	-10.504000	25.512181	0.000773	20.764369
1321.391099	-2.983200	3.512100	-10.476000	25.523637	0.000771	20.769235
1322.393100	-2.963400	3.510500	-10.402000	25.465387	0.000771	20.775224
1323.391099	-3.010100	3.510200	-10.564000	25.528010	0.000772	20.773626
1324.392103	-3.007400	3.508300	-10.550000	25.567719	0.000770	20.784108
1325.392101	-2.997900	3.508900	-10.518000	25.568464	0.000770	20.782960
1326.392658	-3.015400	3.508300	-10.578000	25.585386	0.000769	20.772927
1327.393170	-3.031800	3.508300	-10.634000	25.573583	0.000771	20.780514
1328.406170	-3.029600	3.506900	-10.622000	25.572241	0.000769	20.765889
1329.397168	-2.981700	3.508300	-10.459000	25.538645	0.000767	20.764392
1330.393686	-2.996600	3.507200	-10.509000	25.520504	0.000769	20.772253
1331.393716	-3.006500	3.507100	-10.542000	25.487353	0.000767	20.776895
1332.397715	-2.984600	3.505600	-10.461000	25.505295	0.000768	20.784006
1333.394718	-2.958000	3.506400	-10.369000	25.533475	0.000765	20.773426
1334.395235	-2.997300	3.505200	-10.506000	25.557604	0.000765	20.775372
1335.397233	-2.978900	3.507000	-10.445000	25.591771	0.000766	20.769856
1336.396753	-3.003200	3.503800	-10.521000	25.637317	0.000765	20.755382
1337.394758	-2.990000	3.506500	-10.483000	25.678587	0.000764	20.765539
1338.399754	-2.979800	3.507200	-10.449000	25.685519	0.000763	20.796683
1339.397754	-2.987000	3.506000	-10.471000	25.696327	0.000764	20.752536
1340.401753	-2.978900	3.504900	-10.440000	25.647429	0.000764	20.775496
1341.399753	-2.993200	3.503600	-10.485000	25.675779	0.000763	20.767460
1342.399755	-3.001500	3.504100	-10.517000	25.691308	0.000761	20.772626
1343.397753	-3.010800	3.503100	-10.545000	25.715582	0.000759	20.765713
1344.400757	-2.994500	3.501900	-10.485000	25.743459	0.000762	20.766212
1345.406757	-2.988600	3.503600	-10.469000	25.721521	0.000760	20.766936
1346.398753	-2.990700	3.501500	-10.471000	25.714464	0.000760	20.783082
1347.397755	-3.018100	3.501300	-10.566000	25.722241	0.000760	20.761495
1348.398753	-2.999300	3.501300	-10.501000	25.681370	0.000760	20.790145
1349.399756	-2.995900	3.500300	-10.485000	25.698663	0.000760	20.776219
1350.398752	-2.988600	3.501900	-10.464000	25.730366	0.000756	20.756853
1351.400754	-2.991700	3.500900	-10.472000	25.709271	0.000758	20.752735
1352.400752	-3.017500	3.499500	-10.558000	25.683407	0.000758	20.766586
1353.400752	-3.024700	3.498500	-10.581000	25.682537	0.000757	20.747694
1354.401269	-3.000900	3.500500	-10.503000	25.684227	0.000756	20.764564
1355.401532	-3.012000	3.499300	-10.539000	25.722092	0.000755	20.758500
1356.409115	-2.994300	3.497700	-10.473000	25.712104	0.000757	20.748468
1357.405755	-2.987500	3.498300	-10.450000	25.688997	0.000754	20.737587
1358.402252	-2.989700	3.498500	-10.458000	25.667928	0.000755	20.755306
1359.403869	-2.993900	3.498000	-10.471000	25.639999	0.000755	20.758075
1360.407875	-3.005300	3.496800	-10.507000	25.644919	0.000753	20.773923
1361.404381	-3.010700	3.496600	-10.525000	25.676301	0.000753	20.763716
1362.403383	-3.004000	3.495800	-10.501000	25.672300	0.000752	20.776768
1363.404384	-3.008600	3.496700	-10.519000	25.639229	0.000751	20.773424
1364.405202	-3.021400	3.495800	-10.560000	25.634508	0.000752	20.760147
1365.406203	-3.016000	3.495500	-10.542000	25.614158	0.000752	20.736863
1366.408391	-3.006900	3.494700	-10.506000	25.624047	0.000751	20.749167
1367.404488	-2.994100	3.493900	-10.459000	25.600541	0.000748	20.758749
1368.405727	-2.984800	3.494300	-10.429000	25.601659	0.000749	20.742802
1369.407845	-2.975600	3.495500	-10.400000	25.581929	0.000749	20.758550
1370.407197	-3.000700	3.494100	-10.483000	25.574351	0.000749	20.766586
1371.406457	-3.020500	3.491900	-10.546000	25.564286	0.000748	20.752685
1372.411237	-2.998500	3.492100	-10.470000	25.542692	0.000744	20.736688
1373.407278	-2.977000	3.493000	-10.397000	25.576636	0.000745	20.746595
1374.407371	-3.018800	3.492400	-10.542000	25.577779	0.000745	20.747743
1375.406811	-3.015600	3.490300	-10.524000	25.616841	0.000746	20.737661
1376.407251	-2.997900	3.491000	-10.465000	25.637787	0.000745	20.738784
1377.409991	-3.001500	3.490000	-10.474000	25.689890	0.000742	20.754131
1378.408993	-3.006700	3.489400	-10.490000	25.682834	0.000744	20.751786
1379.408649	-2.994400	3.490400	-10.451000	25.654409	0.000742	20.723235
1380.408695	-3.033500	3.488600	-10.581000	25.611249	0.000745	20.747218
1381.410695	-3.006700	3.488000	-10.486000	25.582102	0.000743	20.749714
1382.412694	-2.977500	3.489900	-10.391000	25.561030	0.000741	20.744672
1383.413860	-2.976600	3.491000	-10.390000	25.558768	0.000741	20.754255
1384.411117	-2.998000	3.488300	-10.456000	25.566173	0.000738	20.736561
1385.414313	-2.983600	3.489500	-10.410000	25.553972	0.000744	20.753232
1386.412318	-2.989200	3.487500	-10.424000	25.561974	0.000739	20.753207
1387.413335	-3.010800	3.487100	-10.497000	25.619026	0.000740	20.752184
1388.413534	-3.012200	3.487000	-10.502000	25.634182	0.000741	20.732792
1389.416911	-2.989900	3.486600	-10.423000	25.668794	0.000741	20.752857
1390.415424	-3.001100	3.485700	-10.460000	25.681664	0.000737	20.749662
1391.414737	-2.989600	3.486600	-10.422000	25.662110	0.000739	20.735712
1392.419279	-2.982400	3.486600	-10.397000	25.693988	0.000737	20.738332
1393.417881	-2.995000	3.484300	-10.434000	25.674359	0.000735	20.732841
1394.419045	-2.993900	3.484700	-10.432000	25.645835	0.000738	20.748764
1395.426169	-3.007800	3.484200	-10.479000	25.639722	0.000737	20.745469
1396.419170	-2.980600	3.484200	-10.385000	25.638182	0.000737	20.760044
1397.417597	-3.006000	3.481800	-10.465000	25.676346	0.000735	20.744795
1398.418632	-2.991900	3.484200	-10.423000	25.689391	0.000735	20.736085
1399.420565	-2.992300	3.482200	-10.419000	25.715951	0.000733	20.725778
1400.419641	-2.996100	3.482400	-10.433000	25.692845	0.000738	20.728174
1401.419045	-3.031800	3.479300	-10.547000	25.680894	0.000734	20.734189
1402.425113	-3.033200	3.480200	-10.555000	25.673142	0.000734	20.751534
1403.421116	-3.009800	3.481900	-10.478000	25.676993	0.000735	20.747341
1404.422146	-2.999400	3.480300	-10.438000	25.701789	0.000734	20.745220
1405.425113	-3.016500	3.479500	-10.495000	25.686211	0.000730	20.742375
1406.421932	-2.999300	3.480900	-10.440000	25.708572	0.000732	20.737333
1407.422165	-2.973000	3.481500	-10.348000	25.699876	0.000731	20.756101
1408.425168	-2.979700	3.479300	-10.367000	25.680446	0.000728	20.747016
1409.424527	-2.987600	3.479900	-10.395000	25.646034	0.000730	20.751334
1410.423755	-2.994600	3.479200	-10.417000	25.614751	0.000729	20.740303
1411.425752	-2.991100	3.480200	-10.408000	25.634902	0.000727	20.748214
1412.426655	-3.006100	3.478100	-10.454000	25.653612	0.000727	20.749936
1413.423444	-2.998700	3.477400	-10.427000	25.665514	0.000727	20.755727
1414.428290	-3.025300	3.477000	-10.518000	25.674782	0.000729	20.745120
1415.425143	-2.994600	3.477200	-10.412000	25.643002	0.000727	20.753505
1416.424222	-2.999200	3.476400	-10.424000	25.632617	0.000728	20.742126
1417.425343	-3.023800	3.475400	-10.508000	25.623473	0.000727	20.746218
1418.425738	-3.014200	3.475100	-10.473000	25.643773	0.000725	20.744322
1419.424602	-3.005800	3.474800	-10.444000	25.621286	0.000728	20.738332
1420.424870	-3.003900	3.475000	-10.437000	25.646183	0.000722	20.750536
1421.426706	-3.000500	3.473600	-10.422000	25.661464	0.000722	20.752133
1422.425207	-2.987800	3.474100	-10.379000	25.703007	0.000725	20.757349
1423.427880	-2.994100	3.474400	-10.401000	25.738164	0.000723	20.735762
1424.431554	-3.015800	3.472600	-10.472000	25.755952	0.000723	20.736560
1425.426429	-2.979900	3.473600	-10.350000	25.758412	0.000723	20.742350
1426.428522	-3.014200	3.473300	-10.468000	25.759083	0.000723	20.757723
1427.427644	-3.017500	3.471500	-10.474000	25.773120	0.000720	20.755228
1428.427724	-2.991700	3.472600	-10.386000	25.763531	0.000720	20.741328
1429.432969	-2.979900	3.470900	-10.342000	25.788325	0.000719	20.762440
1430.429100	-3.012500	3.471000	-10.455000	25.804722	0.000719	20.732443
1431.432670	-2.986200	3.471100	-10.364000	25.808299	0.000719	20.761642
1432.432098	-2.970900	3.469800	-10.307000	25.795455	0.000719	20.749687
1433.429680	-2.980300	3.469000	-10.338000	25.768450	0.000717	20.760020
1434.431554	-2.988300	3.469800	-10.368000	25.723381	0.000718	20.765485
1435.430144	-3.005100	3.468500	-10.423000	25.702287	0.000717	20.758522
1436.429980	-3.021200	3.468000	-10.476000	25.679627	0.000715	20.755203
1437.434813	-2.993000	3.468400	-10.379000	25.650532	0.000717	20.761542
1438.429674	-2.976300	3.467600	-10.319000	25.661638	0.000716	20.744247
1439.431220	-2.988600	3.468600	-10.364000	25.689218	0.000716	20.767681
1440.434512	-2.990000	3.465800	-10.362000	25.695031	0.000717	20.783952
1441.430668	-2.988500	3.467200	-10.361000	25.723828	0.000714	20.771624
1442.431069	-3.007700	3.465900	-10.423000	25.755928	0.000716	20.736061
1443.435955	-3.019800	3.464300	-10.460000	25.739157	0.000714	20.762365
1444.436411	-3.008700	3.465400	-10.425000	25.699777	0.000716	20.776865
1445.432054	-2.987100	3.465500	-10.351000	25.645289	0.000716	20.751534
1446.437527	-2.998900	3.465300	-10.391000	25.646357	0.000715	20.762565
1447.436539	-3.007900	3.463700	-10.417000	25.634033	0.000713	20.761567
1448.434988	-2.990900	3.464100	-10.359000	25.615199	0.000713	20.756875
1449.434350	-3.008000	3.463600	-10.417000	25.589977	0.000715	20.786073
1450.435152	-3.012400	3.463800	-10.433000	25.613012	0.000712	20.740454
1451.434010	-3.010100	3.462000	-10.420000	25.643599	0.000712	20.755527
1452.433891	-3.011100	3.463400	-10.427000	25.653165	0.000711	20.750436
1453.433997	-2.973900	3.462700	-10.296000	25.719579	0.000711	20.779685
1454.434547	-3.005800	3.462000	-10.405000	25.760176	0.000709	20.766408
1455.435797	-2.996000	3.462200	-10.371000	25.757692	0.000710	20.762964
1456.436753	-3.036000	3.459700	-10.502000	25.788052	0.000709	20.773072
1457.436408	-3.001800	3.461200	-10.389000	25.830310	0.000711	20.758622
1458.437775	-2.995200	3.459600	-10.362000	25.801070	0.000707	20.788994
1459.438205	-2.998300	3.460500	-10.374000	25.763406	0.000708	20.769178
1460.438141	-2.992800	3.461100	-10.357000	25.741021	0.000708	20.768979
1461.438260	-3.016000	3.458700	-10.431000	25.729170	0.000709	20.767506
1462.438822	-3.010400	3.458000	-10.409000	25.681814	0.000707	20.773521
1463.439459	-3.017000	3.458200	-10.432000	25.652495	0.000709	20.790067
1464.439130	-3.007900	3.457400	-10.398000	25.669962	0.000706	20.779635
1465.440236	-3.016100	3.456600	-10.424000	25.671254	0.000707	20.771924
1466.441076	-2.998500	3.456900	-10.364000	25.642109	0.000706	20.783429
1467.438579	-2.989400	3.457600	-10.335000	25.649812	0.000708	20.771724
1468.441265	-3.004100	3.455500	-10.380000	25.679007	0.000704	20.776866
1469.441318	-3.022500	3.456000	-10.444000	25.685194	0.000703	20.773597
1470.440458	-3.018500	3.455600	-10.429000	25.690262	0.000702	20.785800
1471.442039	-2.997600	3.456000	-10.358000	25.731208	0.000705	20.739207
1472.442354	-2.998600	3.454700	-10.358000	25.750215	0.000703	20.763041
1473.443382	-2.982600	3.455300	-10.305000	25.754463	0.000702	20.775843
1474.445391	-2.975100	3.454300	-10.276000	25.764177	0.000701	20.774221
1475.444913	-3.008000	3.453900	-10.388000	25.773792	0.000703	20.763015
1476.445027	-2.984600	3.453500	-10.306000	25.800549	0.000701	20.780410
1477.447101	-2.995700	3.453900	-10.345000	25.795605	0.000702	20.790617
1478.444895	-2.999500	3.452900	-10.355000	25.805046	0.000700	20.782556
1479.446187	-2.993100	3.452000	-10.331000	25.803034	0.000698	20.793337
1480.443688	-2.992800	3.452500	-10.332000	25.861887	0.000701	20.782282
1481.454222	-2.996000	3.451500	-10.340000	25.842982	0.000700	20.789843
1482.449009	-3.002700	3.450300	-10.359000	25.867128	0.000698	20.788021
1483.446936	-3.023400	3.450400	-10.431000	25.883077	0.000696	20.766110
1484.445677	-2.997800	3.450000	-10.342000	25.894082	0.000699	20.775269
1485.446654	-2.976200	3.449400	-10.264000	25.895324	0.000699	20.770827
1486.449531	-2.993500	3.450100	-10.327000	25.862855	0.000696	20.770453
1487.445350	-3.011500	3.449600	-10.386000	25.856670	0.000697	20.783679
1488.446724	-2.974100	3.450700	-10.261000	25.868122	0.000696	20.792339
1489.449580	-2.979900	3.448700	-10.276000	25.881711	0.000695	20.778014
1490.446166	-3.001600	3.447400	-10.347000	25.892095	0.000695	20.781334
1491.446117	-3.001600	3.446800	-10.345000	25.902727	0.000693	20.792015
1492.445779	-3.008700	3.446200	-10.367000	25.907844	0.000694	20.799527
1493.445509	-3.001300	3.446000	-10.341000	25.885810	0.000696	20.782132
1494.448725	-2.989500	3.446400	-10.301000	25.881115	0.000693	20.799702
1495.446556	-2.997200	3.445400	-10.326000	25.852696	0.000692	20.778265
1496.452455	-2.986900	3.446800	-10.294000	25.860396	0.000692	20.803070
1497.448858	-2.986700	3.444500	-10.286000	25.902827	0.000693	20.804917
1498.447774	-2.993300	3.445300	-10.312000	25.924438	0.000690	20.806240
1499.451566	-2.992800	3.444000	-10.306000	25.956607	0.000691	20.790194
1500.449258	-2.972300	3.446700	-10.243000	25.949179	0.000692	20.773249
1501.448461	-2.971000	3.445500	-10.235000	25.908789	0.000690	20.810433
1502.450623	-2.997500	3.443100	-10.319000	25.886332	0.000690	20.792614
1503.456758	-2.999400	3.444100	-10.328000	25.860595	0.000689	20.782881
1504.449850	-3.002300	3.442100	-10.331000	25.844522	0.000688	20.796607
1505.455545	-2.976800	3.441400	-10.243000	25.870483	0.000687	20.802297
1506.452485	-3.002100	3.442600	-10.333000	25.824698	0.000687	20.809883
1507.450626	-2.983100	3.443200	-10.271000	25.819407	0.000684	20.817844
1508.450217	-2.979200	3.441800	-10.253000	25.820102	0.000688	20.815224
1509.450828	-2.977000	3.442400	-10.247000	25.834685	0.000688	20.802846
1510.451866	-3.011300	3.440300	-10.358000	25.865365	0.000685	20.814225
1511.451573	-2.999100	3.440100	-10.315000	25.881637	0.000686	20.814450
1512.454316	-2.986400	3.440000	-10.270000	25.930201	0.000684	20.815348
1513.451305	-3.007900	3.438800	-10.342000	25.904590	0.000682	20.797680
1514.452810	-2.980800	3.439500	-10.252000	25.884121	0.000685	20.811730
1515.452202	-2.989500	3.439300	-10.281000	25.855354	0.000682	20.812229
1516.454257	-2.984400	3.437900	-10.259000	25.849193	0.000682	20.823109
1517.452064	-3.011900	3.438400	-10.354000	25.873513	0.000685	20.824781
1518.453058	-3.004400	3.438400	-10.329000	25.861962	0.000684	20.806065
1519.454546	-3.007300	3.437000	-10.335000	25.881463	0.000682	20.822810
1520.455364	-3.010900	3.436000	-10.344000	25.879475	0.000682	20.831718
1521.476233	-3.024800	3.436300	-10.392000	25.876296	0.000680	20.830895
1522.455852	-3.014200	3.435500	-10.354000	25.893486	0.000681	20.820664
1523.455250	-3.022600	3.434800	-10.381000	25.891996	0.000680	20.831020
1524.454042	-3.013800	3.436100	-10.354000	25.862086	0.000677	20.822785
1525.454134	-3.036700	3.434800	-10.428000	25.827952	0.000680	20.825954
1526.456444	-2.978400	3.435500	-10.231000	25.843305	0.000679	20.842799
1527.455558	-3.000000	3.435800	-10.305000	25.853466	0.000679	20.811281
1528.454969	-2.987100	3.434400	-10.258000	25.855130	0.000678	20.802996
1529.455492	-3.025400	3.432500	-10.383000	25.874110	0.000680	20.831544
1530.456494	-2.997700	3.431900	-10.287000	25.887201	0.000678	20.833316
1531.455065	-2.999700	3.432700	-10.296000	25.838535	0.000678	20.826154
1532.454445	-2.975300	3.432900	-10.213000	25.850137	0.000677	20.810307
1533.453348	-2.980600	3.432500	-10.230000	25.863552	0.000676	20.850335
1534.455243	-2.997000	3.432500	-10.287000	25.886257	0.000675	20.821462
1535.455745	-3.009500	3.431300	-10.325000	25.856472	0.000672	20.809559
1536.457154	-3.001000	3.429900	-10.292000	25.883922	0.000675	20.814849
1537.456859	-2.991000	3.429900	-10.257000	25.887226	0.000673	20.830970
1538.456545	-2.987700	3.429400	-10.245000	25.890554	0.000675	20.837633
1539.457310	-2.983600	3.429400	-10.231000	25.915470	0.000673	20.842748
1540.456280	-3.005100	3.430100	-10.307000	25.915296	0.000673	20.836884
1541.454561	-3.003900	3.430300	-10.303000	25.902950	0.000670	20.843921
1542.459354	-3.010000	3.428400	-10.319000	25.874134	0.000672	20.844845
1543.457194	-3.011300	3.427300	-10.320000	25.878854	0.000671	20.828724
1544.458333	-3.007700	3.428200	-10.310000	25.870407	0.000671	20.813127
1545.458103	-2.996000	3.428000	-10.269000	25.870333	0.000670	20.836759
1546.461173	-3.003200	3.427200	-10.292000	25.842311	0.000670	20.844645
1547.461984	-3.000600	3.426600	-10.281000	25.862483	0.000671	20.828399
1548.462866	-3.027700	3.425700	-10.372000	25.882357	0.000669	20.828923
1549.465109	-2.986800	3.426600	-10.234000	25.854385	0.000668	20.838282
1550.469127	-3.032000	3.425700	-10.385000	25.866532	0.000668	20.841950
1551.462028	-2.977200	3.424000	-10.193000	25.831480	0.000667	20.834239
1552.465103	-3.010200	3.424200	-10.307000	25.821468	0.000668	20.851208
1553.465181	-3.010300	3.424700	-10.308000	25.788948	0.000667	20.847939
1554.463501	-2.997400	3.423700	-10.261000	25.788451	0.000667	20.833690
1555.467763	-2.972800	3.423900	-10.177000	25.808127	0.000665	20.851083
1556.465805	-2.991000	3.424400	-10.241000	25.824598	0.000665	20.839654
1557.464432	-2.987000	3.424100	-10.227000	25.824971	0.000664	20.837658
1558.463303	-3.008900	3.421600	-10.294000	25.812723	0.000664	20.856173
1559.466892	-2.988300	3.422500	-10.226000	25.813915	0.000664	20.858794
1560.464611	-3.008700	3.422700	-10.296000	25.860446	0.000665	20.856697
1561.463593	-3.010500	3.422700	-10.303000	25.859179	0.000663	20.843098
1562.466607	-3.000300	3.421400	-10.264000	25.889114	0.000660	20.843297
1563.464269	-3.012100	3.421600	-10.305000	25.915296	0.000663	20.847314
1564.465731	-3.002100	3.419800	-10.265000	25.958518	0.000658	20.840003
1565.469402	-3.018500	3.419000	-10.319000	25.938100	0.000661	20.854576
1566.469310	-3.017300	3.420100	-10.319000	25.970590	0.000659	20.867777
1567.464520	-2.996100	3.421100	-10.249000	25.960903	0.000660	20.852355
1568.468952	-3.014100	3.418900	-10.304000	25.960605	0.000659	20.837357
1569.466137	-3.006300	3.419200	-10.279000	25.922102	0.000659	20.846091
1570.466092	-2.997500	3.417900	-10.245000	25.919518	0.000660	20.863883
1571.469376	-2.990100	3.419200	-10.223000	25.919668	0.000659	20.862611
1572.466388	-3.010400	3.416100	-10.282000	25.926126	0.000659	20.863883
1573.466940	-2.992200	3.418200	-10.226000	25.919816	0.000656	20.869399
1574.467235	-2.991500	3.417400	-10.223000	25.909333	0.000657	20.865506
1575.467341	-2.985200	3.418300	-10.203000	25.869165	0.000658	20.872093
1576.466881	-3.005900	3.416700	-10.270000	25.865463	0.000655	20.854152
1577.467472	-2.993800	3.417500	-10.230000	25.870506	0.000656	20.859691
1578.467987	-2.994800	3.415600	-10.229000	25.868642	0.000654	20.872991
1579.470244	-2.995600	3.416800	-10.235000	25.865488	0.000655	20.869822
1580.468165	-2.981200	3.415200	-10.181000	25.896565	0.000653	20.874963
1581.469610	-3.012400	3.414500	-10.285000	25.944806	0.000653	20.860365
1582.469726	-2.980600	3.414600	-10.175000	25.954940	0.000652	20.875287
1583.471433	-2.998000	3.414300	-10.235000	25.957971	0.000653	20.875961
1584.469040	-2.993400	3.414000	-10.218000	25.966392	0.000652	20.878257
1585.470114	-3.012400	3.412300	-10.278000	25.964528	0.000653	20.869747
1586.469119	-2.993400	3.413700	-10.218000	25.971161	0.000649	20.879729
1587.467846	-2.994300	3.413800	-10.221000	25.977221	0.000651	20.873964
1588.470496	-3.005200	3.411800	-10.251000	26.011151	0.000651	20.871543
1589.467864	-3.000100	3.413000	-10.239000	26.005165	0.000648	20.897295
1590.475213	-3.002800	3.411700	-10.244000	26.011846	0.000649	20.869397
1591.468650	-3.013900	3.410300	-10.278000	25.991305	0.000650	20.876260
1592.468253	-2.982700	3.411700	-10.175000	25.962938	0.000649	20.878580
1593.470654	-3.001900	3.411200	-10.239000	25.950468	0.000647	20.875535
1594.470213	-3.006300	3.410300	-10.252000	25.900215	0.000648	20.862509
1595.471509	-2.998100	3.410400	-10.224000	25.929454	0.000648	20.871019
1596.469218	-3.001800	3.409800	-10.234000	25.937874	0.000647	20.873788
1597.470211	-3.004800	3.407800	-10.239000	25.933303	0.000645	20.880576
1598.474337	-2.998200	3.407900	-10.216000	25.938818	0.000646	20.878056
1599.471309	-3.009900	3.407100	-10.254000	25.958938	0.000646	20.888786
1600.469692	-3.025000	3.405900	-10.302000	25.942096	0.000647	20.894624
1601.469532	-2.979500	3.407900	-10.153000	25.926472	0.000645	20.884144
1602.470250	-3.011800	3.406900	-10.260000	25.907542	0.000647	20.883619
1603.471278	-2.987900	3.406600	-10.177000	25.931216	0.000645	20.909297
1604.476961	-2.997000	3.406800	-10.209000	25.944555	0.000644	20.874336
1605.473765	-2.993200	3.406300	-10.195000	25.933153	0.000643	20.874262
1606.476839	-3.002800	3.405800	-10.226000	25.942940	0.000641	20.875085
1607.475276	-2.990600	3.405700	-10.184000	25.938419	0.000642	20.880974
1608.472042	-3.001200	3.404800	-10.217000	25.909529	0.000642	20.899364
1609.475472	-2.986200	3.403500	-10.162000	25.895891	0.000642	20.885191
1610.475395	-2.994600	3.403900	-10.192000	25.920434	0.000641	20.868596
1611.475108	-3.012300	3.404100	-10.254000	25.953919	0.000641	20.869520
1612.474663	-3.031400	3.402700	-10.314000	25.941722	0.000639	20.875284
1613.478241	-3.005300	3.403200	-10.227000	25.998679	0.000639	20.867548
1614.474765	-2.996200	3.402800	-10.194000	26.000741	0.000637	20.868671
1615.475254	-2.976300	3.403300	-10.128000	25.994282	0.000639	20.879251
1616.477511	-3.021300	3.400400	-10.272000	25.976100	0.000638	20.876631
1617.475838	-2.986400	3.402700	-10.161000	25.976100	0.000637	20.860037
1618.475248	-2.993200	3.401500	-10.180000	25.964847	0.000637	20.868645
1619.479521	-2.978700	3.401600	-10.131000	25.955954	0.000636	20.867772
1620.477323	-2.985200	3.401500	-10.153000	25.983402	0.000636	20.875907
1621.477234	-3.005100	3.400600	-10.218000	25.973640	0.000634	20.859936
1622.478668	-2.987900	3.400500	-10.160000	25.952203	0.000635	20.863055
1623.477525	-3.000900	3.400400	-10.204000	25.937199	0.000635	20.847982
1624.481845	-2.973200	3.400600	-10.109000	25.912086	0.000634	20.847883
1625.478426	-2.990200	3.398900	-10.162000	25.886051	0.000634	20.868669
1626.479084	-3.004800	3.397800	-10.209000	25.873258	0.000635	20.853447
1627.476970	-3.003200	3.397300	-10.201000	25.889777	0.000633	20.844912
1628.477488	-2.992600	3.399100	-10.171000	25.894621	0.000633	20.849778
1629.480470	-3.016500	3.396800	-10.246000	25.907563	0.000634	20.840495
1630.478224	-3.011900	3.396600	-10.230000	25.929721	0.000635	20.832884
1631.477927	-3.010300	3.396100	-10.223000	25.929771	0.000630	20.853321
1632.478590	-3.002900	3.397600	-10.202000	25.954387	0.000632	20.844862
1633.477625	-2.984700	3.396700	-10.137000	25.913624	0.000630	20.843738
1634.479361	-2.996800	3.395900	-10.175000	25.943184	0.000631	20.849727
1635.481131	-3.017800	3.395200	-10.244000	25.978183	0.000630	20.848380
1636.477680	-2.998500	3.394400	-10.176000	26.006848	0.000630	20.841617
1637.484275	-3.010100	3.395100	-10.219000	26.030792	0.000629	20.833906
1638.485518	-2.997200	3.394900	-10.173000	26.087248	0.000628	20.858860
1639.480470	-2.991700	3.394500	-10.154000	26.107713	0.000629	20.832483
1640.483366	-3.006400	3.392900	-10.199000	26.139603	0.000628	20.826119
1641.481414	-2.993700	3.394200	-10.160000	26.155100	0.000630	20.838846
1642.483829	-3.012600	3.392800	-10.220000	26.139031	0.000627	20.832657
1643.481303	-2.991800	3.393600	-10.152000	26.132400	0.000629	20.833580
1644.481275	-3.011700	3.392800	-10.216000	26.098920	0.000624	20.819381
1645.482253	-2.994800	3.392600	-10.159000	26.075424	0.000626	20.850300
1646.487225	-3.003000	3.391200	-10.183000	26.034964	0.000626	20.831459
1647.483586	-3.008800	3.390900	-10.202000	26.024208	0.000626	20.838670
1648.484665	-2.995100	3.392500	-10.159000	26.014049	0.000622	20.846007
1649.487724	-3.010900	3.390100	-10.206000	26.009031	0.000625	20.837173
1650.485887	-3.005900	3.389900	-10.189000	26.048823	0.000622	20.832581
1651.489841	-3.004000	3.389200	-10.180000	26.037322	0.000624	20.807277
1652.486562	-3.004400	3.388900	-10.181000	26.036950	0.000621	20.794100
1653.488705	-3.008800	3.388100	-10.194000	26.056398	0.000624	20.831183
1654.487996	-2.996700	3.389200	-10.156000	26.070182	0.000622	20.810895
1655.487814	-3.017100	3.389100	-10.224000	26.103265	0.000620	20.821376
1656.489424	-3.018300	3.389600	-10.229000	26.119905	0.000619	20.814388
1657.491127	-2.995600	3.388600	-10.150000	26.122215	0.000621	20.824295
1658.487175	-2.994700	3.388700	-10.146000	26.115211	0.000620	20.810620
1659.488567	-3.013400	3.386500	-10.204000	26.127629	0.000618	20.814563
1660.488419	-2.990900	3.386700	-10.128000	26.156364	0.000618	20.817358
1661.488495	-2.994400	3.385700	-10.138000	26.164062	0.000617	20.808498
1662.488190	-2.982500	3.387000	-10.101000	26.177995	0.000619	20.846205
1663.488690	-2.990400	3.386000	-10.124000	26.172432	0.000617	20.812641
1664.492296	-3.028700	3.384400	-10.249000	26.176505	0.000616	20.825268
1665.489878	-3.001200	3.384800	-10.158000	26.164261	0.000617	20.815336
1666.490568	-2.998500	3.385100	-10.149000	26.169327	0.000615	20.809995
1667.491714	-3.003800	3.384200	-10.164000	26.142554	0.000613	20.819603
1668.491562	-3.027800	3.382300	-10.239000	26.136768	0.000616	20.800038
1669.490658	-3.017900	3.381700	-10.204000	26.152315	0.000612	20.802858
1670.491057	-2.999200	3.382600	-10.144000	26.125442	0.000614	20.798615
1671.491448	-2.994000	3.384200	-10.131000	26.177174	0.000613	20.789431
1672.492065	-2.998500	3.382800	-10.143000	26.162895	0.000611	20.819652
1673.495820	-3.001100	3.383800	-10.154000	26.136370	0.000611	20.806276
1674.492149	-3.015400	3.381900	-10.196000	26.110863	0.000614	20.798190
1675.495306	-2.998300	3.381600	-10.138000	26.051378	0.000610	20.789631
1676.494423	-3.019000	3.379800	-10.202000	26.051527	0.000612	20.794996
1677.498205	-3.030900	3.379900	-10.242000	26.063673	0.000612	20.802458
1678.499677	-2.985000	3.381900	-10.094000	26.082301	0.000611	20.806476
1679.495579	-3.003200	3.380100	-10.150000	26.118959	0.000607	20.800636
1680.501781	-2.993300	3.380400	-10.118000	26.115159	0.000610	20.813413
1681.497968	-2.990200	3.381600	-10.111000	26.084163	0.000607	20.800286
1682.497750	-3.001400	3.379100	-10.142000	26.054532	0.000608	20.795644
1683.500600	-3.015800	3.379100	-10.189000	26.092931	0.000609	20.804354
1684.499159	-3.014600	3.378100	-10.183000	26.089875	0.000607	20.779473
1685.500223	-2.996500	3.378900	-10.124000	26.114141	0.000606	20.795794
1686.500250	-2.988800	3.378600	-10.096000	26.120499	0.000607	20.799338
1687.499894	-3.041400	3.377500	-10.271000	26.097103	0.000606	20.788158
1688.500751	-3.020500	3.376400	-10.198000	26.060369	0.000606	20.787758
1689.502424	-2.995600	3.377300	-10.116000	26.052818	0.000603	20.798664
1690.504789	-2.991300	3.377800	-10.102000	26.041840	0.000604	20.801858
1691.500628	-3.007200	3.375500	-10.150000	26.049987	0.000604	20.803406
1692.501577	-2.989600	3.375400	-10.090000	26.041194	0.000605	20.763751
1693.501394	-2.979500	3.376000	-10.057000	26.081158	0.000603	20.804379
1694.508764	-2.988200	3.376800	-10.090000	26.098444	0.000604	20.786660
1695.504303	-2.993100	3.374900	-10.101000	26.103039	0.000601	20.795071
1696.505517	-2.985300	3.374300	-10.072000	26.109199	0.000599	20.783242
1697.504665	-2.990500	3.374900	-10.090000	26.090720	0.000599	20.787908
1698.502981	-2.982500	3.374500	-10.063000	26.046832	0.000601	20.783641
1699.503368	-2.997100	3.373700	-10.109000	26.004632	0.000601	20.800985
1700.505179	-3.006000	3.373100	-10.139000	26.008681	0.000599	20.806001
1701.504874	-3.009500	3.372200	-10.148000	26.018145	0.000600	20.783741
1702.508268	-2.995200	3.373100	-10.103000	26.028503	0.000599	20.802683
1703.504206	-2.975100	3.373100	-10.033000	26.029223	0.000597	20.793449
1704.504063	-2.994700	3.373100	-10.100000	26.014444	0.000597	20.798515
1705.507006	-2.964400	3.372700	-9.997000	26.001354	0.000596	20.794373
1706.505421	-2.993000	3.371500	-10.090000	25.983718	0.000595	20.788508
1707.505110	-2.991800	3.371100	-10.084000	26.001677	0.000597	20.811767
1708.504180	-3.022800	3.370200	-10.185000	26.033918	0.000596	20.784416
1709.504987	-2.991100	3.372100	-10.085000	26.075496	0.000596	20.788733
1710.506365	-2.995900	3.369900	-10.095000	26.088163	0.000593	20.783442
1711.505142	-3.000800	3.369900	-10.112000	26.119110	0.000595	20.766173
1712.506461	-3.010100	3.370200	-10.144000	26.086400	0.000593	20.785464
1713.505170	-3.016300	3.369000	-10.161000	26.073882	0.000594	20.779999
1714.506459	-2.985000	3.370600	-10.059000	26.062283	0.000590	20.776880
1715.508756	-2.978300	3.369600	-10.035000	26.094895	0.000593	20.796844
1716.508839	-2.988300	3.368300	-10.065000	26.114093	0.000594	20.771564
1717.508111	-3.015700	3.368100	-10.156000	26.163840	0.000590	20.768919
1718.508113	-3.013000	3.367000	-10.144000	26.166671	0.000589	20.788359
1719.507173	-3.005200	3.367600	-10.118000	26.217358	0.000590	20.786189
1720.507853	-3.012600	3.365300	-10.138000	26.227913	0.000589	20.769293
1721.511706	-3.003700	3.365300	-10.107000	26.263126	0.000588	20.780025
1722.508899	-3.002300	3.364900	-10.101000	26.265982	0.000589	20.795697
1723.512269	-2.983400	3.367100	-10.045000	26.274798	0.000588	20.793650
1724.507446	-3.004700	3.364500	-10.109000	26.263400	0.000588	20.784567
1725.508111	-3.004300	3.365900	-10.111000	26.292727	0.000584	20.800763
1726.510961	-3.000400	3.364800	-10.094000	26.262059	0.000584	20.789383
1727.511670	-3.029300	3.364000	-10.189000	26.287041	0.000586	20.784143
1728.511011	-2.998000	3.363600	-10.082000	26.269558	0.000584	20.786963
1729.510419	-3.023700	3.363500	-10.169000	26.289375	0.000585	20.795024
1730.513072	-2.990600	3.362200	-10.054000	26.279417	0.000582	20.794500
1731.511636	-2.984300	3.363600	-10.037000	26.299780	0.000583	20.811644
1732.511555	-2.983600	3.362800	-10.033000	26.283093	0.000582	20.783494
1733.510694	-3.004800	3.362300	-10.102000	26.278573	0.000584	20.781797
1734.515316	-2.992400	3.362800	-10.062000	26.248153	0.000579	20.789159
1735.510695	-3.010600	3.362100	-10.121000	26.268715	0.000580	20.801762
1736.512398	-3.010500	3.360400	-10.116000	26.264940	0.000581	20.770468
1737.517564	-3.001500	3.362900	-10.093000	26.274153	0.000577	20.780200
1738.513341	-2.996400	3.361100	-10.070000	26.245670	0.000578	20.777655
1739.512746	-2.998800	3.360100	-10.075000	26.182914	0.000579	20.788086
1740.511617	-2.991000	3.361400	-10.053000	26.182020	0.000578	20.771541
1741.512202	-2.997300	3.360000	-10.070000	26.181027	0.000576	20.780026
1742.514665	-2.989600	3.358600	-10.040000	26.218477	0.000580	20.790158
1743.515462	-2.970000	3.359900	-9.978200	26.219446	0.000573	20.749879
1744.514793	-2.983500	3.358800	-10.020000	26.244130	0.000575	20.778005
1745.515678	-3.000500	3.357800	-10.075000	26.233527	0.000578	20.774461
1746.516728	-3.026400	3.357300	-10.159000	26.236606	0.000574	20.786090
1747.517175	-3.011300	3.357200	-10.109000	26.215274	0.000575	20.766076
1748.520354	-3.021100	3.357300	-10.141000	26.197641	0.000575	20.760685
1749.517422	-3.030500	3.355900	-10.168000	26.202062	0.000573	20.785991
1750.519988	-3.026100	3.356100	-10.155000	26.202261	0.000575	20.783820
1751.516899	-2.991400	3.357500	-10.041000	26.214628	0.000574	20.768746
1752.518992	-2.997300	3.356200	-10.058000	26.209165	0.000573	20.777007
1753.520118	-2.998900	3.356300	-10.063000	26.243137	0.000572	20.766575
1754.523329	-2.997600	3.354800	-10.056000	26.223593	0.000572	20.764479
1755.518210	-2.984400	3.355300	-10.013000	26.192700	0.000572	20.771841
1756.519756	-2.986800	3.355700	-10.022000	26.151499	0.000571	20.778330
1757.519757	-3.004000	3.353800	-10.074000	26.131059	0.000571	20.771068
1758.519640	-2.995600	3.355200	-10.049000	26.140894	0.000570	20.758664
1759.519602	-2.991200	3.355400	-10.036000	26.155050	0.000569	20.772415
1760.524687	-3.009200	3.352900	-10.088000	26.148618	0.000568	20.772116
1761.521885	-3.002000	3.353400	-10.066000	26.160216	0.000568	20.766700
1762.526206	-3.015400	3.353100	-10.111000	26.166102	0.000569	20.769770
1763.525842	-3.010800	3.352600	-10.093000	26.131233	0.000566	20.761285
1764.525042	-3.017800	3.351300	-10.111000	26.146283	0.000567	20.781624
1765.527222	-3.008200	3.351100	-10.080000	26.180283	0.000565	20.773114
1766.523911	-3.008500	3.351000	-10.081000	26.191210	0.000562	20.764180
1767.524601	-2.991700	3.350800	-10.024000	26.212369	0.000565	20.747983
1768.526487	-3.010100	3.350400	-10.084000	26.230051	0.000565	20.781399
1769.525765	-2.974200	3.351600	-9.966400	26.271994	0.000567	20.753374
1770.523784	-3.007900	3.351300	-10.079000	26.268269	0.000564	20.782822
1771.522633	-3.009700	3.349200	-10.078000	26.279121	0.000563	20.770494
1772.523220	-3.015400	3.349800	-10.100000	26.238568	0.000562	20.764354
1773.524795	-2.997200	3.349100	-10.037000	26.185175	0.000562	20.767125
1774.526565	-3.007500	3.350200	-10.075000	26.139230	0.000562	20.763157
1775.525695	-3.006500	3.348900	-10.067000	26.119038	0.000561	20.754721
1776.530190	-3.002700	3.347200	-10.049000	26.129394	0.000561	20.749006
1777.525243	-2.993100	3.347200	-10.017000	26.146780	0.000559	20.758889
1778.525807	-3.006600	3.346700	-10.061000	26.156590	0.000558	20.739348
1779.525520	-2.981500	3.348200	-9.981500	26.122962	0.000559	20.755819
1780.525363	-3.005200	3.346000	-10.054000	26.135653	0.000558	20.741544
1781.524194	-3.017500	3.344700	-10.092000	26.107464	0.000558	20.746885
1782.525398	-2.982100	3.345400	-9.974800	26.144098	0.000555	20.761884
1783.525250	-3.002600	3.344200	-10.040000	26.143377	0.000558	20.745038
1784.530451	-3.011500	3.344900	-10.072000	26.148096	0.000556	20.749305
1785.531214	-3.019900	3.343700	-10.096000	26.181971	0.000554	20.754422
1786.528796	-3.028500	3.344100	-10.127000	26.234074	0.000556	20.754622
1787.530011	-3.014500	3.344400	-10.081000	26.236904	0.000554	20.754621
1788.530094	-3.016500	3.342800	-10.083000	26.214107	0.000554	20.744040
1789.531044	-2.984900	3.344700	-9.982500	26.230647	0.000553	20.750703
1790.532920	-2.998000	3.343700	-10.022000	26.260918	0.000555	20.741769
1791.533934	-3.007500	3.343300	-10.054000	26.271571	0.000553	20.738250
1792.532765	-3.020500	3.342100	-10.093000	26.257541	0.000554	20.758290
1793.532608	-3.005300	3.343200	-10.047000	26.223842	0.000553	20.754771
1794.530646	-3.008700	3.342700	-10.055000	26.199082	0.000551	20.745537
1795.533025	-2.996300	3.342000	-10.013000	26.165828	0.000551	20.753373
1796.531499	-2.985800	3.341800	-9.977100	26.154578	0.000550	20.760087
1797.532935	-2.991900	3.340900	-9.994800	26.135330	0.000552	20.751177
1798.530535	-2.987700	3.341100	-9.981200	26.105999	0.000549	20.750154
1799.531859	-2.991900	3.339900	-9.991600	26.108359	0.000550	20.758689
1800.533701	-2.995800	3.339200	-10.002000	26.063950	0.000552	20.725447
1801.535119	-2.993000	3.339800	-9.994500	26.086452	0.000548	20.756119
1802.533279	-3.018300	3.336900	-10.069000	26.126191	0.000550	20.729191
1803.538212	-3.014900	3.338100	-10.063000	26.149735	0.000548	20.722028
1804.532366	-3.012700	3.337800	-10.055000	26.148916	0.000547	20.757242
1805.532942	-3.012700	3.336800	-10.052000	26.207526	0.000546	20.728891
1806.539639	-3.004700	3.337400	-10.027000	26.201541	0.000546	20.737576
1807.532744	-2.999100	3.338400	-10.012000	26.191359	0.000547	20.742992
1808.533524	-3.003900	3.337300	-10.024000	26.191185	0.000544	20.740446
1809.533793	-2.998500	3.337500	-10.005000	26.231889	0.000546	20.741520
1810.534410	-2.999400	3.336100	-10.003000	26.237401	0.000543	20.732360
1811.534958	-3.003300	3.335900	-10.017000	26.229182	0.000545	20.736903
1812.538041	-2.991300	3.337300	-9.981900	26.184803	0.000544	20.738300
1813.539692	-3.010000	3.335500	-10.038000	26.148767	0.000544	20.752825
1814.538249	-3.003500	3.336600	-10.021000	26.166152	0.000542	20.727145
1815.537167	-3.014600	3.333800	-10.049000	26.178023	0.000541	20.750454
1816.535704	-3.015300	3.334900	-10.055000	26.174547	0.000541	20.724200
1817.540923	-3.013100	3.334800	-10.047000	26.222626	0.000540	20.753075
1818.536983	-2.996800	3.333600	-9.989300	26.266109	0.000539	20.726596
1819.539596	-2.983800	3.334200	-9.947700	26.266804	0.000538	20.737252
1820.537104	-3.000300	3.332800	-9.997900	26.248056	0.000538	20.750180
1821.538373	-2.982900	3.332200	-9.937500	26.210383	0.000538	20.754049
1822.540180	-2.995600	3.333800	-9.986000	26.191235	0.000538	20.719159
1823.538998	-3.020000	3.331300	-10.060000	26.177428	0.000538	20.747959
1824.539761	-3.016800	3.332100	-10.051000	26.181774	0.000538	20.738575
1825.545281	-3.007500	3.331900	-10.020000	26.166450	0.000537	20.724599
1826.540453	-3.014700	3.331600	-10.043000	26.164091	0.000534	20.731712
1827.539045	-3.003400	3.330000	-10.001000	26.133419	0.000536	20.733609
1828.540398	-3.009100	3.330500	-10.022000	26.127235	0.000536	20.743517
1829.539247	-2.982100	3.330800	-9.931900	26.166699	0.000532	20.751403
1830.545239	-2.985800	3.329400	-9.940000	26.186219	0.000533	20.742094
1831.541439	-3.008300	3.330400	-10.018000	26.238370	0.000533	20.742818
1832.538229	-3.000300	3.328800	-9.986300	26.255903	0.000533	20.723925
1833.541185	-3.019300	3.327700	-10.045000	26.288111	0.000532	20.732111
1834.540746	-3.018900	3.327900	-10.045000	26.332460	0.000531	20.737327
1835.539706	-2.990300	3.328700	-9.952300	26.344404	0.000530	20.738899
1836.539775	-2.995700	3.327300	-9.966800	26.329679	0.000529	20.717935
1837.539165	-3.017600	3.327600	-10.041000	26.298937	0.000529	20.767649
1838.538229	-3.019600	3.326800	-10.044000	26.280387	0.000530	20.748532
1839.542796	-2.991400	3.326100	-9.948500	26.264544	0.000528	20.730713
1840.539541	-3.005300	3.325500	-9.993600	26.234198	0.000527	20.747159
1841.538779	-3.005200	3.325800	-9.993700	26.267276	0.000526	20.740571
1842.539847	-3.020500	3.324500	-10.040000	26.306163	0.000526	20.749306
1843.539988	-2.983500	3.325300	-9.919700	26.281629	0.000528	20.741245
1844.543646	-2.989000	3.324400	-9.935800	26.278400	0.000525	20.739897
1845.541887	-2.970000	3.324900	-9.873000	26.312321	0.000524	20.739847
1846.541310	-3.005600	3.324000	-9.989300	26.322427	0.000525	20.743365
1847.543795	-3.007400	3.324900	-9.998200	26.303779	0.000523	20.750229
1848.541846	-3.019300	3.323700	-10.034000	26.320664	0.000525	20.738748
1849.543867	-3.015900	3.324000	-10.024000	26.333303	0.000523	20.725845
1850.542266	-3.031400	3.323400	-10.072000	26.339212	0.000524	20.748381
1851.543622	-3.019400	3.322800	-10.032000	26.378519	0.000520	20.756117
1852.543713	-3.008900	3.321300	-9.991800	26.359499	0.000521	20.734630
1853.545013	-2.984400	3.322500	-9.914100	26.369009	0.000518	20.730911
1854.545417	-3.013800	3.321900	-10.010000	26.393938	0.000520	20.747906
1855.547466	-3.006300	3.321600	-9.984900	26.386439	0.000518	20.748904
1856.546881	-2.995900	3.321400	-9.949100	26.353042	0.000520	20.728140
1857.548305	-2.994200	3.320800	-9.941600	26.336133	0.000519	20.736276
1858.547692	-2.984200	3.321600	-9.911100	26.289349	0.000519	20.734779
1859.547543	-3.006500	3.321200	-9.984600	26.253590	0.000520	20.738197
1860.550074	-3.000400	3.319700	-9.959600	26.235089	0.000518	20.746633
1861.548131	-3.015000	3.318900	-10.005000	26.211820	0.000518	20.738896
1862.549367	-2.991100	3.320500	-9.930900	26.191455	0.000516	20.717483
1863.550070	-2.987500	3.319600	-9.916700	26.215073	0.000516	20.744062
1864.549587	-3.000200	3.318400	-9.954700	26.257463	0.000515	20.735926
1865.551842	-2.991300	3.317600	-9.923100	26.262405	0.000515	20.731883
1866.553790	-2.996900	3.317900	-9.941700	26.265459	0.000513	20.731159
1867.549804	-3.000200	3.318800	-9.955300	26.295656	0.000514	20.736375
1868.551624	-2.983100	3.317200	-9.894800	26.322449	0.000513	20.759984
1869.551424	-3.006700	3.316600	-9.971500	26.358156	0.000511	20.729961
1870.551363	-2.994000	3.316500	-9.928600	26.369529	0.000513	20.748504
1871.554333	-2.985800	3.315500	-9.898400	26.357958	0.000513	20.752522
1872.553262	-2.978700	3.317000	-9.879500	26.351800	0.000510	20.747281
1873.558378	-3.000100	3.315300	-9.945500	26.356220	0.000512	20.758361
1874.554198	-3.012600	3.316000	-9.989100	26.382739	0.000511	20.743288
1875.555649	-2.993700	3.314800	-9.922300	26.418319	0.000510	20.747281
1876.559507	-3.004200	3.314100	-9.954100	26.410622	0.000508	20.750924
1877.555242	-3.012500	3.314300	-9.983200	26.427680	0.000509	20.753370
1878.553982	-3.020400	3.314000	-10.007000	26.434359	0.000508	20.754393
1879.555172	-3.009200	3.312900	-9.968200	26.432224	0.000509	20.756989
1880.555243	-2.993300	3.313700	-9.917500	26.461447	0.000506	20.750325
1881.555067	-2.990300	3.312900	-9.905300	26.445631	0.000504	20.755766
1882.558327	-2.989300	3.312900	-9.902600	26.451392	0.000508	20.751124
1883.556396	-3.004300	3.312100	-9.949800	26.450895	0.000506	20.749202
1884.557656	-2.993600	3.311700	-9.912900	26.481533	0.000504	20.742065
1885.556785	-3.027400	3.311800	-10.025000	26.508918	0.000501	20.761057
1886.556122	-3.013700	3.310500	-9.976200	26.507503	0.000505	20.765324
1887.561098	-3.007400	3.310300	-9.954500	26.485382	0.000505	20.768219
1888.557271	-3.016800	3.310900	-9.987000	26.482353	0.000502	20.754743
1889.558636	-3.003600	3.310300	-9.941800	26.464576	0.000502	20.757738
1890.557442	-3.009300	3.308800	-9.955900	26.483867	0.000499	20.751049
1891.556271	-3.001300	3.309900	-9.932500	26.459933	0.000500	20.752123
1892.561142	-2.986700	3.309700	-9.883700	26.451020	0.000500	20.756440
1893.562945	-2.982100	3.308100	-9.863600	26.464749	0.000500	20.737523
1894.556539	-3.012400	3.307200	-9.962200	26.467257	0.000498	20.754269
1895.558733	-2.992800	3.308800	-9.901800	26.498242	0.000500	20.772611
1896.561702	-3.011100	3.307500	-9.958500	26.504375	0.000499	20.776405
1897.562811	-3.003900	3.307600	-9.935000	26.524162	0.000495	20.749352
1898.560640	-2.991000	3.306800	-9.889600	26.522275	0.000497	20.774009
1899.559648	-2.993900	3.305900	-9.896600	26.539629	0.000496	20.765848
1900.561168	-2.983100	3.306500	-9.862800	26.586624	0.000496	20.790804
1901.560393	-3.001500	3.306000	-9.921300	26.564504	0.000496	20.759085
1902.563043	-2.995600	3.305400	-9.900800	26.559812	0.000497	20.772387
1903.563234	-2.994800	3.305400	-9.897800	26.556262	0.000494	20.762179
1904.561059	-2.992600	3.304200	-9.887100	26.574534	0.000494	20.759210
1905.559781	-2.995900	3.303800	-9.896600	26.593625	0.000495	20.786936
1906.560361	-3.010300	3.302600	-9.940700	26.575452	0.000493	20.773410
1907.558640	-2.998000	3.302600	-9.899700	26.588536	0.000494	20.795570
1908.560225	-2.992700	3.303600	-9.884500	26.589007	0.000493	20.787035
1909.563372	-2.993900	3.302300	-9.885400	26.579003	0.000491	20.799738
1910.561191	-3.003800	3.302200	-9.917700	26.585432	0.000492	20.777278
1911.562908	-2.996800	3.303100	-9.897100	26.566614	0.000490	20.761680
1912.563314	-2.970400	3.302600	-9.808100	26.567657	0.000490	20.783591
1913.563624	-2.983700	3.302100	-9.851400	26.541515	0.000488	20.787185
1914.567315	-2.991100	3.301000	-9.873000	26.554052	0.000487	20.772286
1915.563213	-2.989400	3.301200	-9.867300	26.572945	0.000489	20.778001
1916.565184	-3.001800	3.301000	-9.907800	26.618251	0.000487	20.780872
1917.562845	-2.990000	3.300800	-9.868800	26.598813	0.000488	20.776029
1918.578875	-2.994100	3.300700	-9.882200	26.618176	0.000488	20.785064
1919.565244	-2.989800	3.300000	-9.865400	26.593351	0.000486	20.795670
1920.565593	-2.970100	3.300200	-9.800600	26.616488	0.000486	20.785738
1921.565211	-3.022200	3.299800	-9.971000	26.575601	0.000488	20.788732
1922.564956	-2.995900	3.299600	-9.884400	26.556237	0.000486	20.778275
1923.564492	-2.993600	3.299000	-9.874500	26.570736	0.000484	20.780522
1924.568233	-2.989700	3.297200	-9.856600	26.597001	0.000483	20.801235
1925.566110	-2.985400	3.298200	-9.844500	26.549335	0.000483	20.784614
1926.568140	-2.972200	3.297900	-9.801300	26.503430	0.000482	20.781620
1927.572113	-3.005400	3.296100	-9.905400	26.470484	0.000483	20.785962
1928.566998	-2.996800	3.297500	-9.881300	26.486821	0.000481	20.786736
1929.568611	-2.995600	3.295700	-9.871700	26.482501	0.000481	20.776229
1930.570678	-3.005500	3.295000	-9.901500	26.462316	0.000482	20.793399
1931.567241	-3.012500	3.295200	-9.925700	26.421670	0.000480	20.797591
1932.567745	-3.006600	3.293500	-9.901000	26.418666	0.000480	20.783666
1933.567473	-2.976200	3.295300	-9.806200	26.413253	0.000480	20.795295
1934.570603	-2.995900	3.292900	-9.864000	26.437164	0.000478	20.793249
1935.570199	-2.994500	3.292900	-9.858900	26.457647	0.000477	20.797716
1936.571279	-2.984800	3.293700	-9.830000	26.494765	0.000480	20.770539
1937.570788	-3.007000	3.294000	-9.904700	26.462265	0.000478	20.794297
1938.571005	-3.007200	3.293500	-9.903000	26.522695	0.000476	20.774432
1939.570765	-3.006100	3.293300	-9.899500	26.547696	0.000474	20.784389
1940.570628	-2.993800	3.291600	-9.854000	26.589329	0.000474	20.789255
1941.573746	-2.980400	3.291300	-9.808200	26.625052	0.000473	20.782966
1942.569951	-3.011200	3.291000	-9.909500	26.662213	0.000475	20.786660
1943.580709	-2.976800	3.290800	-9.795100	26.714367	0.000473	20.792624
1944.570149	-3.016300	3.290300	-9.923800	26.692398	0.000473	20.808471
1945.571723	-2.966000	3.291000	-9.759800	26.702824	0.000472	20.801882
1946.576087	-2.986900	3.289900	-9.826400	26.714515	0.000471	20.791351
1947.576766	-2.995300	3.290700	-9.856100	26.703841	0.000469	20.801957
1948.572872	-2.989400	3.289100	-9.831300	26.715011	0.000470	20.798014
1949.571443	-2.987200	3.290200	-9.827600	26.749812	0.000469	20.812613
1950.572868	-2.973400	3.288700	-9.778100	26.788781	0.000468	20.806274
1951.572733	-2.996900	3.287900	-9.852300	26.786299	0.000468	20.808046
1952.575745	-2.987300	3.288600	-9.822900	26.797419	0.000467	20.786983
1953.573744	-3.013600	3.287400	-9.905100	26.783072	0.000467	20.801482
1954.576338	-2.983600	3.287500	-9.807900	26.713546	0.000467	20.798438
1955.574950	-2.987300	3.287700	-9.820700	26.707564	0.000466	20.786259
1956.574784	-2.993900	3.287300	-9.840600	26.629196	0.000467	20.796616
1957.578085	-3.008100	3.286100	-9.883100	26.606705	0.000463	20.792024
1958.575695	-2.972800	3.287200	-9.770100	26.623710	0.000463	20.785411
1959.576914	-2.981500	3.286700	-9.798600	26.649477	0.000466	20.800883
1960.574561	-2.999100	3.284800	-9.850100	26.666655	0.000463	20.821945
1961.575692	-3.012700	3.284800	-9.894600	26.651662	0.000461	20.809243
1962.577941	-2.994500	3.282400	-9.828300	26.646970	0.000461	20.796466
1963.579778	-3.018500	3.283700	-9.910000	26.688599	0.000462	20.827410
1964.574284	-2.989300	3.284800	-9.818000	26.667747	0.000460	20.820672
1965.575157	-3.001400	3.283700	-9.854100	26.638157	0.000460	20.817952
1966.574473	-2.989900	3.283500	-9.814700	26.605811	0.000458	20.801082
1967.574329	-3.024900	3.281400	-9.925100	26.636816	0.000457	20.812337
1968.577435	-3.005500	3.283000	-9.866300	26.670428	0.000458	20.808194
1969.575374	-3.011200	3.280900	-9.878600	26.696318	0.000457	20.806722
1970.578981	-3.004100	3.281200	-9.856300	26.650296	0.000455	20.830155
1971.576015	-2.989700	3.281000	-9.808400	26.648756	0.000459	20.812486
1972.577914	-3.014000	3.281700	-9.889400	26.662261	0.000456	20.832700
1973.580410	-3.017800	3.279100	-9.895300	26.671718	0.000454	20.813285
1974.579597	-2.991800	3.279900	-9.812000	26.687705	0.000455	20.815131
1975.583274	-2.978600	3.279400	-9.766800	26.674846	0.000456	20.823067
1976.580027	-2.979200	3.279000	-9.768000	26.645901	0.000452	20.821944
1977.579838	-3.001000	3.278400	-9.836900	26.637387	0.000453	20.826660
1978.579643	-3.003700	3.278100	-9.845800	26.639745	0.000453	20.818600
1979.580973	-2.988700	3.278200	-9.796100	26.639199	0.000451	20.808568
1980.580190	-3.008000	3.277900	-9.858300	26.646348	0.000453	20.817177
1981.582188	-3.010300	3.277500	-9.865700	26.643940	0.000449	20.830877
1982.584611	-3.023500	3.276400	-9.905300	26.683311	0.000450	20.804550
1983.582703	-2.995100	3.277200	-9.814700	26.738118	0.000450	20.810339
1984.579687	-2.981800	3.276800	-9.769300	26.777113	0.000448	20.840535
1985.595679	-3.003700	3.276600	-9.841100	26.821889	0.000449	20.814432
1986.579915	-2.985200	3.276000	-9.778500	26.833653	0.000446	20.820571
1987.583270	-3.005400	3.274300	-9.839200	26.854080	0.000447	20.833522
1988.585791	-3.043600	3.274200	-9.964600	26.827200	0.000445	20.820721
1989.579762	-2.998100	3.274200	-9.815300	26.806774	0.000444	20.836692
1990.579947	-2.991600	3.275400	-9.798000	26.785899	0.000445	20.822817
1991.579302	-3.004400	3.274300	-9.836000	26.775301	0.000443	20.842506
1992.580707	-3.005100	3.274300	-9.838200	26.727097	0.000444	20.822492
1993.587143	-2.994100	3.274100	-9.802200	26.718558	0.000446	20.832873
1994.580820	-2.993600	3.273200	-9.797500	26.780836	0.000444	20.824364
1995.584054	-3.008200	3.272500	-9.843700	26.819630	0.000441	20.817851
1996.581330	-2.996600	3.272600	-9.805100	26.835887	0.000444	20.845101
1997.582093	-2.988800	3.272700	-9.780600	26.850506	0.000441	20.826610
1998.581643	-2.991200	3.273600	-9.789100	26.872421	0.000440	20.846748
1999.582333	-3.021500	3.271600	-9.884300	26.873488	0.000441	20.816528
2000.583065	-3.007700	3.270100	-9.834400	26.922305	0.000440	20.837165
2001.582568	-3.013800	3.270000	-9.854000	26.952632	0.000440	20.828306
2002.585928	-3.012400	3.270100	-9.849600	26.964122	0.000435	20.845076
2003.584992	-2.991600	3.271100	-9.784200	26.998542	0.000439	20.824214
2004.585169	-3.016700	3.269800	-9.862500	26.990651	0.000440	20.841882
2005.585393	-3.009700	3.268100	-9.834900	27.004126	0.000436	20.838837
2006.585987	-2.963600	3.270500	-9.690900	26.986060	0.000434	20.850067
2007.587264	-2.985800	3.269200	-9.759000	26.949580	0.000435	20.829978
2008.587804	-3.034900	3.266800	-9.913000	26.964445	0.000434	20.850616
2009.586422	-3.011400	3.268000	-9.839400	26.946725	0.000435	20.834221
2010.589070	-2.996500	3.267600	-9.790400	26.977598	0.000432	20.856730
2011.586565	-3.011600	3.268200	-9.840900	26.962832	0.000430	20.854209
2012.590034	-3.019600	3.265000	-9.857400	26.947222	0.000432	20.829030
2013.590365	-3.003400	3.267900	-9.814000	26.959878	0.000432	20.853610
2014.591463	-2.980500	3.266700	-9.735900	26.947892	0.000430	20.834445
2015.598022	-2.996300	3.264700	-9.781000	26.994373	0.000427	20.859375
2016.595833	-2.996100	3.266000	-9.784000	27.002811	0.000427	20.854109
2017.596337	-3.003400	3.265900	-9.809400	27.044128	0.000428	20.854883
2018.596020	-3.012700	3.262900	-9.828700	27.046708	0.000428	20.867909
2019.595501	-3.009800	3.264300	-9.824300	27.051423	0.000427	20.867435
2020.593597	-3.008400	3.262300	-9.813500	27.049860	0.000426	20.855432
2021.595690	-3.037300	3.261600	-9.905500	27.044301	0.000425	20.858376
2022.595589	-2.998400	3.264500	-9.786900	26.977076	0.000425	20.869955
2023.594266	-3.017800	3.262800	-9.845900	26.974123	0.000425	20.862244
2024.599012	-3.005900	3.261000	-9.800800	26.988194	0.000423	20.852212
2025.600846	-3.013000	3.260200	-9.821800	27.019511	0.000422	20.864739
2026.597097	-3.006100	3.260700	-9.801200	27.040902	0.000424	20.855431
2027.600337	-2.997000	3.261600	-9.773600	27.054426	0.000422	20.859075
2028.598070	-2.978900	3.262100	-9.714900	27.078396	0.000423	20.862793
2029.593295	-2.998900	3.260900	-9.777800	27.079240	0.000420	20.867434
2030.593512	-3.018900	3.260300	-9.841600	27.095741	0.000418	20.870279
2031.594787	-2.974400	3.260700	-9.697800	27.084054	0.000419	20.849517
2032.592790	-3.030400	3.258000	-9.871200	27.127031	0.000421	20.874247
2033.593096	-3.018400	3.257000	-9.828200	27.123805	0.000418	20.884278
2034.602072	-2.986700	3.257200	-9.726800	27.112291	0.000416	20.843303
2035.596045	-3.004600	3.258700	-9.790000	27.139015	0.000416	20.889618
2036.597969	-2.985100	3.258400	-9.724800	27.122986	0.000416	20.873972
2037.596358	-3.004400	3.257000	-9.784000	27.124425	0.000414	20.870678
2038.594625	-2.994400	3.258000	-9.754600	27.138469	0.000417	20.884802
2039.598162	-3.000100	3.256000	-9.767100	27.153282	0.000413	20.891639
2040.601563	-3.014800	3.255600	-9.813600	27.143010	0.000414	20.886998
2041.597478	-2.984100	3.256000	-9.715600	27.121621	0.000414	20.895357
2042.594119	-3.017600	3.255500	-9.822500	27.107081	0.000412	20.887846
2043.597403	-2.987300	3.255900	-9.724800	27.055716	0.000411	20.866536
2044.596335	-3.004700	3.254300	-9.777100	27.071895	0.000412	20.888969
2045.598004	-3.016700	3.252700	-9.811200	27.044649	0.000412	20.880535
2046.595871	-3.017700	3.252800	-9.815400	27.045616	0.000411	20.888620
2047.597657	-2.982300	3.253600	-9.701800	27.050902	0.000409	20.882557
2048.600652	-2.999800	3.253900	-9.760400	27.072987	0.000410	20.891490
2049.601688	-3.000500	3.252700	-9.756800	27.097056	0.000409	20.895782
2050.600659	-3.014200	3.252100	-9.801300	27.140082	0.000405	20.880735
2051.599566	-3.024000	3.253000	-9.835600	27.148643	0.000405	20.886025
2052.598899	-3.000500	3.252500	-9.758000	27.133283	0.000407	20.877216
2053.600101	-3.001500	3.249500	-9.753200	27.128395	0.000407	20.878938
2054.598006	-2.993100	3.250300	-9.728000	27.145367	0.000404	20.908333
2055.598838	-2.993500	3.252000	-9.733800	27.131993	0.000404	20.910055
2056.598261	-2.999900	3.250200	-9.748400	27.137874	0.000401	20.872350
2057.603333	-2.991500	3.251300	-9.724900	27.159808	0.000402	20.907210
2058.599306	-3.022100	3.247800	-9.814300	27.126683	0.000400	20.895707
2059.599729	-3.011900	3.246200	-9.776300	27.098645	0.000401	20.916343
2060.603748	-3.009900	3.247900	-9.774800	27.111572	0.000399	20.884778
2061.603467	-3.013000	3.246800	-9.781900	27.144499	0.000400	20.896081
2062.602231	-2.994300	3.248800	-9.727000	27.163480	0.000399	20.895258
2063.601228	-3.018000	3.245100	-9.793200	27.189557	0.000399	20.889718
2064.606140	-3.003300	3.247200	-9.751100	27.171246	0.000398	20.897379
2065.602330	-2.990900	3.245600	-9.706500	27.153283	0.000398	20.910604
2066.602934	-3.012000	3.244700	-9.772800	27.126510	0.000397	20.888895
2067.603504	-3.042300	3.244100	-9.866500	27.166656	0.000396	20.900348
2068.603169	-2.969200	3.246800	-9.639400	27.180724	0.000395	20.903118
2069.604524	-3.009700	3.243100	-9.760100	27.180501	0.000395	20.904790
2070.603859	-3.007400	3.243300	-9.753100	27.189806	0.000393	20.908932
2071.603966	-3.008300	3.243300	-9.755700	27.255206	0.000393	20.896006
2072.607271	-2.995200	3.243900	-9.715000	27.232778	0.000391	20.910903
2073.604818	-2.984300	3.243200	-9.678100	27.221092	0.000391	20.906262
2074.604375	-2.975800	3.242400	-9.648100	27.205412	0.000392	20.889069
2075.602494	-3.010500	3.242600	-9.761000	27.182709	0.000390	20.908907
2076.603930	-3.009500	3.241200	-9.753200	27.199631	0.000390	20.892264
2077.602003	-3.007300	3.241400	-9.747000	27.208860	0.000389	20.890167
2078.603709	-3.017400	3.241000	-9.777700	27.231190	0.000389	20.909780
2079.604872	-3.011900	3.240600	-9.759200	27.242504	0.000389	20.897928
2080.604087	-3.009500	3.240600	-9.751400	27.238782	0.000387	20.895133
2081.606630	-2.999900	3.240200	-9.718600	27.230793	0.000386	20.894684
2082.605329	-3.011900	3.238200	-9.752800	27.213376	0.000386	20.893761
2083.606359	-2.995200	3.239700	-9.702400	27.212383	0.000385	20.885651
2084.605798	-3.004400	3.239600	-9.731400	27.198068	0.000384	20.904441
2085.606994	-2.996700	3.239600	-9.707600	27.236102	0.000384	20.907135
2086.606668	-2.990400	3.239100	-9.685500	27.226153	0.000382	20.871053
2087.607358	-3.001300	3.238000	-9.716400	27.270836	0.000382	20.882332
2088.606146	-3.020400	3.236300	-9.773600	27.286913	0.000382	20.889019
2089.604805	-3.009500	3.237300	-9.742000	27.276716	0.000382	20.878763
2090.610619	-3.023300	3.235500	-9.780400	27.271357	0.000379	20.883330
2091.608458	-3.003500	3.235400	-9.716100	27.274334	0.000381	20.883954
2092.609002	-2.956900	3.236800	-9.569600	27.267537	0.000380	20.883754
2093.608744	-2.993500	3.233600	-9.678900	27.194668	0.000380	20.891065
2094.608806	-3.009600	3.235200	-9.735200	27.154944	0.000378	20.889992
2095.608920	-2.983100	3.234200	-9.647200	27.096684	0.000378	20.877865
2096.615778	-3.012400	3.233300	-9.737900	27.075567	0.000378	20.877965
2097.609599	-2.989000	3.234200	-9.665900	27.064302	0.000375	20.856205
2098.611674	-3.004200	3.233800	-9.713100	27.090853	0.000377	20.870578
2099.614908	-3.003100	3.232000	-9.704000	27.138271	0.000375	20.882706
2100.610932	-3.004900	3.231100	-9.708200	27.180848	0.000374	20.871477
2101.609944	-2.995000	3.232400	-9.680900	27.198886	0.000371	20.880136
2102.615240	-3.009000	3.231400	-9.721900	27.145764	0.000374	20.880759
2103.613823	-2.984500	3.232500	-9.646300	27.148270	0.000373	20.864315
2104.615703	-3.015300	3.229500	-9.736500	27.138072	0.000372	20.866386
2105.617765	-3.027400	3.228300	-9.772700	27.137253	0.000369	20.854184
2106.614545	-3.027000	3.229000	-9.772800	27.132514	0.000368	20.851788
2107.614402	-3.007900	3.229500	-9.713200	27.127800	0.000368	20.852736
2108.615789	-3.002000	3.229600	-9.694900	27.084525	0.000367	20.871801
2109.616694	-2.993100	3.229600	-9.664700	27.091349	0.000368	20.853061
2110.614361	-3.002800	3.228200	-9.693200	27.137625	0.000366	20.862144
2111.616419	-2.991700	3.230500	-9.663600	27.166358	0.000368	20.855955
2112.617820	-2.992300	3.228800	-9.660100	27.179657	0.000366	20.846572
2113.617175	-3.014900	3.226300	-9.726100	27.207644	0.000365	20.861445
2114.617689	-3.010200	3.226500	-9.711700	27.242503	0.000365	20.862842
2115.615199	-3.012500	3.225100	-9.714600	27.265229	0.000364	20.849192
2116.618136	-3.013700	3.224800	-9.717500	27.247638	0.000365	20.885076
2117.613746	-3.016000	3.226700	-9.731000	27.242577	0.000362	20.855805
2118.616537	-3.009400	3.224300	-9.701800	27.305643	0.000363	20.847645
2119.617598	-2.991100	3.225300	-9.646500	27.261805	0.000361	20.873248
2120.615810	-3.015300	3.221700	-9.713300	27.218164	0.000363	20.864913
2121.616338	-3.005200	3.224100	-9.688700	27.163876	0.000360	20.867209
2122.616140	-3.006100	3.222500	-9.685900	27.197223	0.000358	20.851438
2123.617167	-2.996800	3.222700	-9.657200	27.218263	0.000358	20.861694
2124.623958	-2.995400	3.223800	-9.655300	27.256471	0.000355	20.855081
2125.616518	-2.975600	3.223000	-9.589600	27.282223	0.000356	20.862019
2126.617656	-3.002900	3.222200	-9.675400	27.256446	0.000355	20.856005
2127.621759	-3.009300	3.220200	-9.689200	27.183527	0.000354	20.857102
2128.619561	-3.019000	3.220600	-9.720900	27.176828	0.000353	20.845149
2129.619385	-3.005800	3.221800	-9.683500	27.174471	0.000353	20.841830
2130.620672	-3.006500	3.221600	-9.684500	27.224664	0.000350	20.870503
2131.618535	-2.990700	3.220700	-9.630400	27.250268	0.000352	20.837937
2132.618470	-2.991800	3.218100	-9.626900	27.245058	0.000350	20.866834
2133.621621	-2.998100	3.218800	-9.649400	27.261556	0.000351	20.845024
2134.619659	-2.995900	3.221700	-9.651200	27.291377	0.000350	20.832347
2135.619223	-2.984700	3.217600	-9.602500	27.320800	0.000349	20.863840
2136.622852	-2.997400	3.215000	-9.634900	27.324844	0.000348	20.840882
2137.620526	-3.009700	3.217000	-9.681000	27.329086	0.000345	20.882131
2138.620897	-3.030500	3.216400	-9.746200	27.329210	0.000344	20.848593
2139.625002	-3.016800	3.215400	-9.698700	27.358186	0.000345	20.845498
2140.622441	-2.971300	3.218100	-9.560900	27.352381	0.000345	20.846297
2141.624997	-2.998200	3.214600	-9.636500	27.361931	0.000344	20.844999
2142.626483	-2.997500	3.213500	-9.631300	27.343474	0.000345	20.850140
2143.624187	-3.001300	3.215600	-9.649600	27.298472	0.000343	20.822415
2144.625290	-2.999600	3.213800	-9.638300	27.278178	0.000342	20.854631
2145.627718	-3.012000	3.213800	-9.678300	27.254758	0.000341	20.832023
2146.630285	-3.009900	3.214300	-9.673700	27.270710	0.000341	20.841904
2147.625828	-3.008800	3.211100	-9.660800	27.313655	0.000341	20.836265
2148.632210	-3.013500	3.212500	-9.679200	27.338463	0.000338	20.824711
2149.625247	-2.994600	3.212000	-9.617600	27.323528	0.000338	20.835291
2150.625521	-3.000100	3.210000	-9.629600	27.269743	0.000336	20.858474
2151.633859	-2.976600	3.211100	-9.557600	27.265773	0.000336	20.818447
2152.628613	-2.981700	3.210400	-9.572000	27.269767	0.000337	20.834792
2153.627057	-3.004000	3.209600	-9.641100	27.310529	0.000337	20.852086
2154.627140	-2.994200	3.209100	-9.606300	27.370514	0.000335	20.850788
2155.629887	-2.998900	3.208000	-9.619600	27.380412	0.000337	20.818546
2156.626769	-2.992800	3.207000	-9.597200	27.348708	0.000334	20.851611
2157.628053	-2.994900	3.207800	-9.605800	27.349403	0.000334	20.840457
2158.634054	-3.011300	3.207100	-9.656500	27.329333	0.000334	20.838285
2159.627825	-2.995000	3.205100	-9.598500	27.267881	0.000333	20.812507
2160.627244	-2.998800	3.205900	-9.611700	27.244287	0.000335	20.858948
2161.633518	-2.992100	3.205400	-9.590200	27.232701	0.000328	20.822639
2162.634163	-2.979500	3.207000	-9.554400	27.237043	0.000329	20.831747
2163.629776	-3.009300	3.206100	-9.646300	27.229922	0.000330	20.830275
2164.628787	-2.991500	3.204100	-9.583800	27.249547	0.000329	20.837212
2165.633893	-2.987500	3.207000	-9.579400	27.263068	0.000329	20.841804
2166.630917	-3.004100	3.204600	-9.626400	27.293832	0.000327	20.838610
2167.630524	-3.007400	3.204000	-9.634400	27.300704	0.000328	20.837462
2168.637209	-2.978400	3.203300	-9.540000	27.331665	0.000327	20.833993
2169.631351	-2.993900	3.202800	-9.588000	27.381577	0.000326	20.817822
2170.631811	-2.979400	3.203200	-9.543200	27.399736	0.000326	20.819968
2171.635194	-2.993300	3.200200	-9.578200	27.400579	0.000328	20.813230
2172.634108	-2.992900	3.200800	-9.578600	27.429280	0.000325	20.824560
2173.633455	-2.998900	3.199900	-9.595200	27.457260	0.000324	20.829002
2174.636058	-2.987700	3.199700	-9.558300	27.470333	0.000323	20.820817
2175.634893	-2.990300	3.199800	-9.567300	27.460460	0.000325	20.830799
2176.637890	-2.986900	3.202500	-9.563900	27.470308	0.000322	20.832645
2177.635644	-2.998600	3.198400	-9.589900	27.468199	0.000323	20.828153
2178.635097	-3.001700	3.200000	-9.604000	27.462693	0.000321	20.813605
2179.637135	-2.975700	3.197800	-9.514700	27.501512	0.000318	20.834642
2180.636081	-2.986700	3.196800	-9.546700	27.499800	0.000320	20.819170
2181.638834	-2.992800	3.196600	-9.566200	27.529590	0.000319	20.846769
2182.637169	-2.992000	3.196800	-9.564600	27.541694	0.000319	20.820068
2183.636420	-2.998300	3.197800	-9.586500	27.570639	0.000316	20.807940
2184.640307	-3.003700	3.196100	-9.596700	27.595763	0.000317	20.812831
2185.636066	-3.052600	3.193300	-9.746800	27.574458	0.000317	20.821740
2186.636442	-2.985100	3.193900	-9.533100	27.594449	0.000317	20.814353
2187.639293	-2.983300	3.195300	-9.532100	27.595267	0.000315	20.843625
2188.636000	-2.995400	3.193300	-9.564200	27.605015	0.000314	20.827355
2189.637455	-3.007900	3.192500	-9.602000	27.644945	0.000314	20.809213
2190.637502	-3.015100	3.191700	-9.623000	27.653724	0.000310	20.805719
2191.638813	-2.999800	3.191600	-9.573600	27.645416	0.000312	20.810161
2192.640324	-3.000300	3.190900	-9.573300	27.578253	0.000310	20.824136
2193.637942	-2.991400	3.191600	-9.546600	27.556055	0.000310	20.818870
2194.640309	-3.023100	3.191000	-9.646500	27.525448	0.000311	20.798507
2195.639192	-2.991900	3.190500	-9.544900	27.515998	0.000309	20.837362
2196.640484	-3.005500	3.190600	-9.587300	27.546407	0.000311	20.836663
2197.643482	-3.001000	3.188400	-9.566800	27.573268	0.000307	20.807266
2198.641634	-2.990900	3.188400	-9.535200	27.608289	0.000307	20.822589
2199.644030	-3.000300	3.188900	-9.565500	27.615432	0.000306	20.830724
2200.642221	-3.008700	3.186500	-9.586900	27.586017	0.000308	20.841904
2201.642694	-3.008600	3.187200	-9.587800	27.563397	0.000304	20.826732
2202.639594	-3.001300	3.186700	-9.563200	27.533906	0.000304	20.821716
2203.643921	-3.016500	3.185700	-9.608500	27.538222	0.000304	20.815152
2204.645409	-2.998200	3.186300	-9.552300	27.567366	0.000304	20.819819
2205.641876	-3.010200	3.184700	-9.585600	27.558957	0.000301	20.808989
2206.645172	-3.006400	3.184500	-9.572900	27.564563	0.000301	20.805145
2207.643084	-3.007000	3.184300	-9.574400	27.550152	0.000302	20.816725
2208.642557	-2.983200	3.185000	-9.500600	27.547871	0.000300	20.798308
2209.646469	-2.987000	3.184300	-9.509900	27.575972	0.000299	20.831323
2210.644587	-3.020100	3.182800	-9.611200	27.562083	0.000299	20.830625
2211.641945	-2.986700	3.184100	-9.508600	27.512104	0.000299	20.817324
2212.649958	-2.989400	3.181300	-9.508900	27.488267	0.000297	20.802825
2213.648238	-3.002600	3.181000	-9.551000	27.494841	0.000297	20.834094
2214.643544	-3.002200	3.180400	-9.546800	27.465968	0.000295	20.839184
2215.644657	-2.997300	3.179300	-9.527400	27.501637	0.000296	20.834293
2216.645433	-2.994900	3.181600	-9.527500	27.539736	0.000295	20.822365
2217.644085	-2.994900	3.179900	-9.522000	27.529318	0.000292	20.810462
2218.643450	-2.996300	3.178100	-9.521700	27.507863	0.000294	20.812109
2219.644004	-2.982700	3.177500	-9.475500	27.488193	0.000292	20.822665
2220.644470	-3.012300	3.176600	-9.568200	27.486879	0.000294	20.809014
2221.643838	-2.977400	3.178700	-9.464000	27.528103	0.000291	20.829627
2222.648558	-2.996800	3.176100	-9.517300	27.524159	0.000292	20.811435
2223.645406	-3.001000	3.175900	-9.530300	27.548095	0.000291	20.796637
2224.645681	-2.979700	3.175700	-9.461800	27.527359	0.000291	20.839310
2225.645260	-2.992200	3.175500	-9.500100	27.524904	0.000291	20.833046
2226.646865	-3.000800	3.173400	-9.521500	27.507392	0.000289	20.807842
2227.645082	-2.999000	3.172900	-9.515000	27.539166	0.000287	20.809464
2228.649212	-2.985600	3.173200	-9.472900	27.581256	0.000289	20.809140
2229.648916	-2.978300	3.173200	-9.449500	27.610374	0.000288	20.806195
2230.650322	-2.992400	3.173000	-9.493300	27.588920	0.000286	20.837239
2231.653196	-2.988600	3.171600	-9.477700	27.579198	0.000286	20.831250
2232.648337	-3.035000	3.169500	-9.617800	27.602586	0.000287	20.809265
2233.648798	-3.012700	3.170100	-9.549800	27.587730	0.000288	20.801429
2234.648626	-3.018600	3.169400	-9.566600	27.552337	0.000285	20.814655
2235.653408	-2.993300	3.170000	-9.487300	27.568607	0.000282	20.819646
2236.646935	-2.988100	3.169400	-9.469800	27.601867	0.000284	20.821817
2237.648951	-3.017200	3.168200	-9.557800	27.633812	0.000283	20.828356
2238.652962	-2.998100	3.170600	-9.505300	27.675923	0.000281	20.812410
2239.649095	-2.995900	3.169100	-9.493100	27.670988	0.000285	20.813607
2240.648285	-3.028600	3.167400	-9.591500	27.718281	0.000283	20.809515
2241.649447	-3.014900	3.166700	-9.545900	27.756818	0.000283	20.818424
2242.650001	-3.004900	3.165700	-9.512000	27.779310	0.000283	20.804075
2243.649056	-3.012100	3.165700	-9.534700	27.772515	0.000280	20.786332
2244.647475	-3.008100	3.164800	-9.518100	27.721778	0.000282	20.803551
2245.651238	-2.999000	3.165000	-9.490300	27.706204	0.000280	20.829130
2246.648291	-3.041700	3.163300	-9.620300	27.732888	0.000280	20.817576
2247.649653	-2.967500	3.163700	-9.386600	27.755950	0.000276	20.802852
2248.649432	-2.969500	3.163600	-9.391900	27.807604	0.000276	20.824014
2249.650308	-3.021100	3.162600	-9.552800	27.851146	0.000279	20.800506
2250.652413	-2.992300	3.163100	-9.464100	27.821267	0.000277	20.809790
2251.649634	-2.987400	3.160900	-9.442500	27.825829	0.000275	20.808218
2252.653917	-2.997900	3.159900	-9.471900	27.806885	0.000275	20.808118
2253.652036	-2.988400	3.162400	-9.448400	27.848369	0.000275	20.798660
2254.654153	-2.977300	3.162600	-9.415200	27.837285	0.000273	20.815006
2255.654023	-2.978700	3.157800	-9.405000	27.836541	0.000276	20.794817
2256.653025	-3.026400	3.156600	-9.551600	27.811323	0.000272	20.800257
2257.654173	-3.011900	3.158000	-9.510500	27.800413	0.000273	20.798286
2258.653225	-2.982800	3.158400	-9.420300	27.789725	0.000270	20.797961
2259.654101	-3.005100	3.155500	-9.481700	27.767110	0.000271	20.794642
2260.656801	-2.999900	3.155900	-9.466000	27.780897	0.000271	20.779594
2261.658733	-3.001100	3.155100	-9.468000	27.801752	0.000269	20.796314
2262.654988	-3.007100	3.155100	-9.486500	27.755355	0.000271	20.786606
2263.662203	-3.017600	3.152800	-9.512100	27.740600	0.000268	20.794043
2264.654253	-3.009700	3.151900	-9.484900	27.707543	0.000267	20.808193
2265.656976	-3.001100	3.154200	-9.464100	27.745064	0.000268	20.807070
2266.656270	-2.992700	3.152300	-9.433200	27.765746	0.000266	20.793744
2267.655119	-3.018700	3.151200	-9.512000	27.767407	0.000265	20.803950
2268.653881	-3.012400	3.151000	-9.490800	27.778269	0.000265	20.786906
2269.657043	-2.991500	3.149700	-9.421800	27.792403	0.000266	20.805872
2270.655533	-3.006000	3.150100	-9.468100	27.793817	0.000263	20.812984
2271.655887	-2.959100	3.151100	-9.322900	27.799297	0.000263	20.784361
2272.661090	-2.993400	3.148600	-9.424300	27.808844	0.000263	20.806770
2273.655827	-2.991800	3.147400	-9.415200	27.834855	0.000261	20.790749
2274.656562	-2.986000	3.146600	-9.394600	27.801578	0.000261	20.789501
2275.660470	-3.004600	3.147600	-9.455900	27.772367	0.000260	20.795191
2276.656423	-2.998200	3.145800	-9.430500	27.725052	0.000259	20.792621
2277.657486	-3.002700	3.145600	-9.444100	27.683438	0.000260	20.777772
2278.657985	-3.003600	3.144300	-9.441800	27.656828	0.000259	20.803626
2279.656534	-2.980300	3.144800	-9.371200	27.696260	0.000259	20.787355
2280.656236	-2.973100	3.145200	-9.348800	27.747792	0.000259	20.801754
2281.658805	-2.972900	3.142600	-9.341600	27.781641	0.000256	20.783662
2282.658031	-2.997000	3.140600	-9.411200	27.787419	0.000256	20.789002
2283.656937	-3.003100	3.142000	-9.435100	27.826995	0.000256	20.773355
2284.656343	-3.031800	3.139500	-9.517000	27.834756	0.000257	20.791124
2285.656501	-3.015400	3.139000	-9.464800	27.878918	0.000256	20.766342
2286.657056	-2.974300	3.140000	-9.338200	27.865776	0.000255	20.785359
2287.657828	-3.002600	3.138100	-9.421900	27.864809	0.000254	20.784860
2288.660438	-3.016000	3.137100	-9.460900	27.843633	0.000255	20.810963
2289.657785	-3.005400	3.137200	-9.428000	27.867239	0.000254	20.786831
2290.656635	-2.986000	3.136100	-9.361900	27.876538	0.000253	20.784810
2291.661089	-3.004300	3.135300	-9.418100	27.828855	0.000254	20.798461
2292.658523	-3.013500	3.133600	-9.442900	27.787320	0.000252	20.789851
2293.658059	-3.028700	3.133600	-9.489600	27.743204	0.000250	20.763947
2294.656703	-2.970700	3.134300	-9.309900	27.774475	0.000251	20.792571
2295.664254	-3.021100	3.132900	-9.462600	27.777277	0.000250	20.784960
2296.657231	-3.010700	3.131700	-9.427200	27.793247	0.000250	20.770685
2297.657746	-2.991400	3.131100	-9.364300	27.828607	0.000249	20.765020
2298.658474	-2.980200	3.130300	-9.327500	27.836840	0.000249	20.772831
2299.659742	-2.990600	3.131000	-9.362600	27.879116	0.000250	20.767965
2300.657644	-2.989200	3.130300	-9.356000	27.907085	0.000248	20.768614
2301.658201	-2.998700	3.127600	-9.376500	27.915664	0.000249	20.773455
2302.661501	-2.976300	3.129100	-9.311900	27.938896	0.000249	20.774553
2303.657204	-2.986300	3.128600	-9.341800	27.970805	0.000246	20.748823
2304.659894	-3.001100	3.126100	-9.380400	27.927094	0.000246	20.760303
2305.661582	-2.999700	3.126900	-9.379000	27.871182	0.000246	20.782739
2306.658585	-2.988200	3.125300	-9.338300	27.836220	0.000246	20.760828
2307.658112	-2.994400	3.125500	-9.358300	27.815812	0.000247	20.769213
2308.659823	-2.983700	3.123300	-9.317600	27.793793	0.000246	20.764596
2309.656895	-2.987600	3.123100	-9.329800	27.815192	0.000247	20.771908
2310.657800	-2.994600	3.122900	-9.349900	27.820301	0.000245	20.758082
2311.658601	-3.008900	3.121100	-9.390400	27.867289	0.000247	20.758432
2312.657909	-2.990800	3.120700	-9.331900	27.905598	0.000244	20.770435
2313.659056	-2.989400	3.119900	-9.325200	27.902449	0.000247	20.759680
2314.657668	-2.999400	3.118600	-9.353000	27.918987	0.000243	20.759255
2315.661283	-3.018800	3.118600	-9.413400	27.923202	0.000246	20.740264
2316.662184	-2.986100	3.118300	-9.310400	27.904705	0.000245	20.763373
2317.658672	-3.003500	3.117600	-9.361300	27.852238	0.000244	20.754189
2318.661246	-2.990100	3.115700	-9.315300	27.817176	0.000242	20.769163
2319.663077	-2.977800	3.115500	-9.276000	27.799223	0.000242	20.752043
2320.658952	-2.987800	3.115300	-9.306800	27.777699	0.000243	20.748874
2321.662881	-2.982000	3.114300	-9.285400	27.756447	0.000243	20.750246
2322.666258	-2.988800	3.114200	-9.307100	27.740700	0.000244	20.737244
2323.661396	-2.974400	3.112800	-9.257200	27.749008	0.000242	20.769313
2324.667679	-3.014200	3.112200	-9.379500	27.784320	0.000242	20.752692
2325.662522	-3.004300	3.111500	-9.346900	27.829947	0.000240	20.746927
2326.661999	-2.970300	3.111200	-9.240100	27.851916	0.000239	20.761926
2327.662613	-2.998500	3.109100	-9.321300	27.863967	0.000240	20.736121
2328.666775	-3.016700	3.108100	-9.375600	27.849858	0.000240	20.756536
2329.663910	-2.976200	3.108300	-9.248600	27.861363	0.000239	20.745829
2330.663511	-3.002400	3.106700	-9.326700	27.893077	0.000238	20.746927
2331.667299	-2.998200	3.105800	-9.310300	27.877728	0.000237	20.769887
2332.666307	-3.009400	3.105600	-9.345300	27.834608	0.000238	20.753516
2333.663920	-2.986100	3.105500	-9.271800	27.811523	0.000238	20.761576
2334.667620	-3.011500	3.103400	-9.344300	27.750620	0.000238	20.765719
2335.666748	-3.000700	3.101400	-9.304900	27.769218	0.000237	20.764995
2336.670735	-3.008900	3.102100	-9.332900	27.791784	0.000238	20.761626
2337.667870	-2.991100	3.101900	-9.277700	27.772789	0.000236	20.757209
2338.670155	-2.994700	3.101200	-9.284800	27.762796	0.000236	20.770386
2339.668547	-2.994700	3.100000	-9.282800	27.774649	0.000236	20.751020
2340.671733	-3.004100	3.098100	-9.306400	27.785585	0.000236	20.760603
2341.669572	-3.007400	3.097500	-9.314200	27.789453	0.000235	20.737468
2342.667665	-2.983500	3.096200	-9.236200	27.781444	0.000232	20.752168
2343.668859	-2.983900	3.095700	-9.236600	27.809192	0.000236	20.749747
2344.668336	-2.992900	3.096100	-9.264500	27.804009	0.000235	20.752592
2345.680016	-2.990600	3.094300	-9.252000	27.800191	0.000232	20.765345
2346.670004	-2.989700	3.094200	-9.249800	27.838080	0.000234	20.742785
2347.669657	-2.990100	3.092800	-9.246300	27.892705	0.000233	20.756037
2348.670341	-2.989500	3.091600	-9.241600	27.936071	0.000235	20.757010
2349.673823	-2.998000	3.091500	-9.266000	27.997608	0.000233	20.749723
2350.674127	-2.998900	3.090200	-9.266200	28.041737	0.000231	20.750047
2351.671380	-2.994000	3.089600	-9.248500	28.091394	0.000232	20.773007
2352.672868	-2.992900	3.089200	-9.244700	28.136412	0.000230	20.747677
2353.677778	-2.981800	3.087500	-9.204700	28.128728	0.000232	20.745156
2354.673967	-3.013400	3.085600	-9.296800	28.129620	0.000231	20.754590
2355.672210	-3.020500	3.085700	-9.319500	28.150394	0.000232	20.748002
2356.671146	-3.016700	3.083800	-9.300500	28.134479	0.000230	20.745731
2357.677419	-3.010500	3.084100	-9.283300	28.145436	0.000231	20.768142
2358.676005	-3.012100	3.083600	-9.286800	28.184206	0.000230	20.758808
2359.675225	-3.002300	3.081800	-9.251500	28.211621	0.000230	20.743260
2360.674363	-3.007700	3.080200	-9.262700	28.200938	0.000230	20.760480
2361.675212	-2.974400	3.081900	-9.164500	28.198955	0.000231	20.765596
2362.676631	-2.993700	3.079900	-9.219800	28.218463	0.000227	20.756313
2363.677966	-2.998400	3.079700	-9.232900	28.237376	0.000230	20.759707
2364.676410	-3.009600	3.077700	-9.261700	28.252595	0.000228	20.765547
2365.674539	-3.026900	3.074700	-9.305900	28.258147	0.000227	20.758335
2366.676050	-2.979800	3.075500	-9.162500	28.250116	0.000227	20.765422
2367.675837	-2.990700	3.073900	-9.192400	28.246696	0.000229	20.779997
2368.675914	-2.985100	3.073500	-9.173400	28.252496	0.000227	20.752645
2369.675370	-2.994600	3.073300	-9.202700	28.228576	0.000228	20.739942
2370.677130	-2.965200	3.071700	-9.107100	28.191495	0.000226	20.758560
2371.676142	-3.004700	3.070700	-9.225200	28.179819	0.000226	20.739692
2372.674298	-3.016600	3.069100	-9.257400	28.159691	0.000226	20.754517
2373.675239	-2.999900	3.068500	-9.204300	28.143306	0.000226	20.759358
2374.675098	-3.013000	3.066600	-9.238200	28.174044	0.000225	20.760906
2375.676834	-2.991500	3.067000	-9.174400	28.114476	0.000224	20.758784
2376.680042	-2.973600	3.066100	-9.116000	28.079720	0.000223	20.760781
2377.683970	-3.010400	3.063600	-9.221500	28.040005	0.000226	20.771063
2378.679148	-3.020200	3.062600	-9.249100	27.987346	0.000223	20.761205
2379.683897	-3.004500	3.061700	-9.198200	27.954247	0.000223	20.777202
2380.676650	-2.978900	3.060700	-9.116600	27.923627	0.000224	20.759184
2381.679234	-3.009600	3.059100	-9.205300	27.923850	0.000223	20.776004
2382.681670	-3.027100	3.059300	-9.258800	27.969867	0.000222	20.739818
2383.680856	-3.015700	3.057500	-9.219100	27.999371	0.000224	20.769990
2384.677924	-3.013900	3.057800	-9.214100	28.039881	0.000224	20.755765
2385.680850	-3.003200	3.055300	-9.174300	28.067077	0.000224	20.763701
2386.676959	-3.035300	3.054400	-9.269200	28.109543	0.000223	20.752870
2387.677660	-2.974300	3.054700	-9.083600	28.146331	0.000224	20.740592
2388.678946	-2.987000	3.052800	-9.117300	28.114005	0.000224	20.776803
2389.681262	-2.997600	3.052600	-9.149100	28.053591	0.000222	20.772885
2390.679040	-3.017500	3.049000	-9.198700	28.025626	0.000221	20.767969
2391.677979	-2.987000	3.050600	-9.110700	27.943165	0.000221	20.782169
2392.681784	-2.992900	3.047700	-9.120300	27.888692	0.000221	20.767645
2393.680899	-2.986200	3.048500	-9.102900	27.872897	0.000221	20.785414
2394.679851	-2.994200	3.046200	-9.118900	27.848771	0.000218	20.776305
2395.682522	-2.995900	3.045900	-9.123000	27.879171	0.000221	20.776080
2396.680038	-3.006900	3.044200	-9.153100	27.898313	0.000219	20.781596
2397.680447	-2.978400	3.044500	-9.065700	27.872550	0.000220	20.778426
2398.686159	-2.991200	3.042500	-9.099800	27.916735	0.000221	20.761731
2399.686063	-3.018200	3.040600	-9.175100	27.957646	0.000220	20.769717
2400.686421	-2.965900	3.040800	-9.017400	28.001653	0.000218	20.785090
2401.683959	-2.994300	3.039600	-9.100900	28.044295	0.000217	20.773012
2402.687251	-2.982400	3.037300	-9.057300	28.070475	0.000221	20.759535
2403.686418	-3.010700	3.036500	-9.140800	28.111602	0.000221	20.773436
2404.684408	-3.017400	3.034600	-9.156000	28.136665	0.000221	20.779226
2405.685811	-2.944900	3.037200	-8.942500	28.193778	0.000219	20.773661
2406.685655	-3.007100	3.033900	-9.122100	28.231801	0.000219	20.789657
2407.685830	-2.998300	3.033100	-9.093600	28.258671	0.000222	20.790157
2408.685297	-3.028800	3.030000	-9.175800	28.275848	0.000219	20.770467
2409.687572	-2.999400	3.028900	-9.083700	28.263380	0.000218	20.777828
2410.689912	-2.990500	3.029600	-9.058100	28.243303	0.000220	20.786064
2411.686517	-3.001600	3.026600	-9.084000	28.255919	0.000220	20.789283
2412.685234	-3.010800	3.024300	-9.104600	28.302591	0.000222	20.784117
2413.688787	-2.998400	3.024400	-9.067000	28.294214	0.000220	20.789907
2414.687306	-3.001900	3.024100	-9.077100	28.285266	0.000217	20.788011
2415.687163	-2.996400	3.022400	-9.055500	28.245509	0.000220	20.788759
2416.689435	-3.010700	3.021300	-9.095200	28.205428	0.000220	20.781597
2417.686359	-3.001400	3.020000	-9.062500	28.207585	0.000220	20.782820
2418.686303	-2.997800	3.018600	-9.048200	28.186936	0.000218	20.793800
2419.688947	-3.010900	3.018200	-9.086500	28.159173	0.000219	20.788135
2420.687565	-3.018200	3.015600	-9.101200	28.088622	0.000218	20.783968
2421.687697	-3.014200	3.014700	-9.086300	28.078608	0.000217	20.789534
2422.687076	-2.998100	3.014300	-9.035700	28.047717	0.000217	20.774560
2423.687719	-2.984300	3.014000	-8.993900	28.017943	0.000217	20.796271
2424.686938	-2.995200	3.012900	-9.023700	27.996919	0.000218	20.802610
2425.687335	-2.995700	3.011400	-9.020200	27.945795	0.000217	20.780075
2426.687579	-3.012500	3.008600	-9.062700	27.930696	0.000216	20.799016
2427.689755	-2.991700	3.008200	-8.998500	27.904414	0.000217	20.794849
2428.688173	-3.030800	3.005300	-9.107700	27.912472	0.000218	20.810071
2429.688598	-3.000600	3.006100	-9.018800	27.900868	0.000215	20.791754
2430.688410	-2.997100	3.003600	-9.002000	27.885421	0.000218	20.776207
2431.691244	-2.975200	3.002600	-8.932400	27.904315	0.000218	20.788111
2432.689914	-2.986900	3.000800	-8.962000	27.943589	0.000218	20.774535
2433.693161	-3.026400	2.998800	-9.075000	27.994093	0.000219	20.791705
2434.689054	-2.983800	2.999900	-8.949600	27.977903	0.000216	20.801961
2435.689218	-2.981700	2.999600	-8.942800	28.004456	0.000216	20.804981
2436.692585	-3.024300	2.995900	-9.059400	28.046329	0.000214	20.793551
2437.689067	-2.999100	2.995800	-8.983400	28.065295	0.000216	20.798892
2438.692911	-2.974100	2.995300	-8.907100	28.149630	0.000215	20.810296
2439.690239	-3.024400	2.990500	-9.043400	28.188276	0.000215	20.803209
2440.688288	-3.033800	2.988700	-9.064900	28.189268	0.000214	20.798992
2441.688941	-3.020700	2.990200	-9.031600	28.169090	0.000214	20.796696
2442.691943	-2.972900	2.988900	-8.885200	28.220723	0.000213	20.797943
2443.690453	-2.998900	2.987300	-8.957700	28.238743	0.000214	20.808025
2444.692642	-2.985700	2.986500	-8.916400	28.220103	0.000213	20.793527
2445.690304	-3.015300	2.983700	-8.995100	28.227019	0.000214	20.812343
2446.690507	-2.983200	2.984600	-8.902300	28.221516	0.000215	20.784044
2447.693897	-3.017300	2.981300	-8.993800	28.225780	0.000214	20.794974
2448.694491	-3.012000	2.979100	-8.972200	28.281574	0.000215	20.794250
2449.692763	-3.007300	2.976600	-8.950200	28.338084	0.000214	20.815113
2450.694346	-3.000600	2.977300	-8.932100	28.382745	0.000215	20.821202
2451.693265	-2.995700	2.976100	-8.913900	28.425174	0.000215	20.813191
2452.694748	-2.990000	2.974000	-8.891900	28.450129	0.000214	20.786164
2453.694937	-3.001400	2.972900	-8.921400	28.463140	0.000213	20.786938
2454.694754	-2.997000	2.972800	-8.908500	28.414988	0.000213	20.800564
2455.691887	-3.006400	2.969400	-8.926000	28.378878	0.000215	20.794075
2456.695553	-2.987400	2.968900	-8.867700	28.327253	0.000213	20.824596
2457.695671	-2.978600	2.969100	-8.842100	28.336349	0.000213	20.804831
2458.698768	-3.011000	2.966000	-8.929700	28.337539	0.000214	20.797494
2459.695694	-2.991600	2.965900	-8.871800	28.329087	0.000214	20.801786
2460.697128	-3.008800	2.962800	-8.913600	28.324130	0.000214	20.810545
2461.695460	-3.002000	2.961300	-8.889100	28.350972	0.000211	20.819554
2462.694309	-3.023100	2.959400	-8.945300	28.351442	0.000212	20.804381
2463.699857	-3.002100	2.959200	-8.883100	28.343363	0.000211	20.806677
2464.694601	-3.011900	2.955700	-8.901100	28.297535	0.000214	20.797993
2465.696747	-2.992000	2.954900	-8.839800	28.321354	0.000214	20.807750
2466.695909	-3.008500	2.951900	-8.880000	28.358406	0.000215	20.808074
2467.697001	-2.986500	2.953500	-8.818700	28.401480	0.000213	20.814463
2468.696424	-2.991100	2.951500	-8.827100	28.436275	0.000213	20.810619
2469.696520	-3.005000	2.948400	-8.858400	28.490720	0.000214	20.825617
2470.700287	-3.006500	2.948000	-8.863000	28.553984	0.000214	20.827688
2471.698690	-2.994900	2.946200	-8.822700	28.586544	0.000213	20.829660
2472.697522	-3.041100	2.942800	-8.947800	28.602526	0.000211	20.811143
2473.699996	-3.044300	2.941800	-8.953900	28.589467	0.000213	20.819328
2474.700714	-3.015200	2.942000	-8.869800	28.605350	0.000214	20.811617
2475.698337	-2.994600	2.940900	-8.805300	28.600518	0.000212	20.820501
2476.701258	-2.982000	2.939600	-8.764600	28.628765	0.000214	20.801061
2477.699551	-3.003100	2.937500	-8.820300	28.665559	0.000211	20.850920
2478.698737	-3.026000	2.934600	-8.879100	28.637487	0.000212	20.829759
2479.704302	-2.978600	2.934200	-8.738300	28.573757	0.000212	20.821523
2480.699416	-3.004500	2.931600	-8.806900	28.509255	0.000213	20.828636
2481.698696	-3.009500	2.930400	-8.817600	28.457512	0.000212	20.813513
2482.699965	-3.000200	2.929500	-8.788600	28.484375	0.000214	20.814486
2483.703806	-3.002800	2.927400	-8.789000	28.493544	0.000212	20.825142
2484.701729	-2.977100	2.926700	-8.710400	28.476816	0.000212	20.817306
2485.701772	-3.007200	2.922300	-8.787300	28.484151	0.000211	20.825166
2486.703252	-2.980100	2.922800	-8.708600	28.447970	0.000212	20.831405
2487.703258	-2.974400	2.922800	-8.691100	28.411565	0.000211	20.814186
2488.702585	-3.016800	2.918800	-8.804100	28.415431	0.000212	20.817131
2489.706633	-2.990400	2.917100	-8.721700	28.387921	0.000210	20.824991
2490.703263	-2.987500	2.916400	-8.711600	28.400437	0.000212	20.835697
2491.702986	-2.999100	2.915300	-8.741200	28.412779	0.000212	20.831055
2492.705051	-3.004300	2.912500	-8.749000	28.479666	0.000211	20.851468
2493.702626	-2.988800	2.912500	-8.704100	28.500432	0.000213	20.830656
2494.703300	-3.000500	2.909800	-8.729400	28.483928	0.000211	20.825416
2495.705294	-2.984700	2.908900	-8.681300	28.490594	0.000213	20.806525
2496.703556	-2.998900	2.905800	-8.713400	28.455503	0.000210	20.845629
2497.702825	-2.997100	2.903300	-8.700500	28.445417	0.000212	20.833576
2498.707261	-2.984800	2.902600	-8.662400	28.452034	0.000211	20.830756
2499.708673	-2.988700	2.902900	-8.674800	28.467795	0.000212	20.830980
2500.703478	-3.010100	2.899200	-8.725900	28.509973	0.000212	20.825091
2501.707558	-2.979300	2.898100	-8.633300	28.526699	0.000213	20.834823
2502.704219	-2.967800	2.897300	-8.596700	28.485440	0.000213	20.828360
2503.703812	-2.991800	2.894300	-8.658500	28.449457	0.000213	20.831954
2504.718413	-3.005200	2.891100	-8.686600	28.456866	0.000212	20.828510
2505.706135	-2.996000	2.890900	-8.660200	28.459444	0.000209	20.839166
2506.708726	-2.985300	2.888000	-8.621200	28.464128	0.000212	20.850520
2507.708992	-2.990800	2.886300	-8.631700	28.461327	0.000214	20.853390
2508.709529	-2.989200	2.884500	-8.621500	28.393076	0.000211	20.846303
2509.707466	-2.976500	2.882600	-8.579700	28.394167	0.000211	20.848823
2510.706216	-2.971600	2.881800	-8.562100	28.421180	0.000212	20.839041
2511.708894	-3.007900	2.878800	-8.657900	28.463062	0.000212	20.855136
2512.715916	-3.004200	2.878200	-8.645800	28.514978	0.000211	20.829184
2513.707881	-2.984200	2.876600	-8.583500	28.531581	0.000211	20.839740
2514.711360	-2.994800	2.873800	-8.604800	28.554552	0.000213	20.850071
2515.711783	-3.006100	2.871700	-8.630700	28.559186	0.000212	20.840987
2516.706874	-2.978600	2.869700	-8.546400	28.600120	0.000212	20.859453
2517.714696	-3.004000	2.867300	-8.612400	28.659141	0.000213	20.834973
2518.708016	-2.992700	2.865800	-8.575100	28.664046	0.000213	20.838017
2519.710763	-2.995300	2.863900	-8.577800	28.689145	0.000211	20.843383
2520.714861	-2.994100	2.860600	-8.564100	28.701112	0.000213	20.859228
2521.710058	-2.982100	2.860800	-8.530300	28.727003	0.000212	20.866814
2522.712168	-2.986900	2.857600	-8.534000	28.755618	0.000211	20.861973
2523.709431	-2.988000	2.855600	-8.531000	28.731239	0.000213	20.873926
2524.715641	-2.975700	2.855100	-8.494800	28.732156	0.000213	20.861574
2525.711977	-3.035300	2.851100	-8.651900	28.748681	0.000213	20.841710
2526.711483	-2.999300	2.850300	-8.546900	28.764611	0.000212	20.859653
2527.711192	-2.997400	2.848300	-8.536500	28.786363	0.000212	20.863545
2528.711184	-3.014100	2.846800	-8.579900	28.786214	0.000213	20.848697
2529.712142	-3.007400	2.844100	-8.552300	28.829790	0.000212	20.856083
2530.711222	-2.961300	2.842600	-8.416100	28.858180	0.000212	20.851492
2531.712550	-3.011800	2.840000	-8.552400	28.878320	0.000212	20.865142
2532.712735	-3.003100	2.836800	-8.518300	28.833432	0.000210	20.852165
2533.713161	-2.994000	2.835400	-8.488600	28.799690	0.000215	20.857056
2534.713263	-2.995700	2.832700	-8.484500	28.777294	0.000212	20.874324
2535.714266	-2.993200	2.830500	-8.470600	28.797089	0.000214	20.853013
2536.715579	-2.988400	2.829200	-8.454600	28.794364	0.000212	20.855958
2537.718367	-3.002500	2.826800	-8.485900	28.836998	0.000211	20.867611
2538.718532	-3.000700	2.822900	-8.469700	28.833357	0.000212	20.887649
2539.718254	-2.962600	2.823300	-8.363200	28.770753	0.000212	20.873900
2540.718345	-3.003100	2.819600	-8.466500	28.698087	0.000214	20.882259
2541.713625	-2.901000	2.821100	-8.182500	28.726976	0.000210	20.853037
2542.714390	-2.982200	2.816400	-8.398400	28.723111	0.000213	20.874747
2543.715698	-2.984600	2.813900	-8.397200	28.662037	0.000211	20.871553
2544.718418	-3.018400	2.810100	-8.480400	28.617239	0.000212	20.848246
2545.716489	-2.958700	2.808600	-8.308500	28.632948	0.000209	20.859800
2546.717124	-2.999100	2.806700	-8.416800	28.640307	0.000214	20.854884
2547.723492	-2.998800	2.803400	-8.405200	28.687507	0.000210	20.856905
2548.724461	-3.033200	2.800800	-8.493300	28.761338	0.000211	20.872950
2549.720129	-3.014500	2.797800	-8.433400	28.782223	0.000211	20.878340
2550.723855	-3.009400	2.794000	-8.407100	28.790423	0.000210	20.847247
2551.722220	-3.002400	2.794000	-8.387900	28.757894	0.000210	20.869955
2552.719951	-3.007600	2.791300	-8.394100	28.727024	0.000212	20.860672
2553.725225	-3.005500	2.787900	-8.377700	28.716742	0.000213	20.881608
2554.722311	-3.030700	2.785400	-8.441100	28.719368	0.000210	20.883779
2555.719403	-3.004700	2.782700	-8.360000	28.753831	0.000210	20.880086
2556.721068	-2.979900	2.780600	-8.284300	28.729947	0.000208	20.881633
2557.720257	-3.011500	2.777900	-8.364400	28.760297	0.000211	20.866212
2558.722380	-2.996900	2.774700	-8.314900	28.775037	0.000211	20.871103
2559.721714	-3.017100	2.771200	-8.359600	28.786532	0.000212	20.846173
2560.725590	-3.011800	2.767300	-8.333300	28.814502	0.000209	20.876243
2561.726494	-2.991900	2.767900	-8.279400	28.820225	0.000210	20.881533
2562.723834	-2.997200	2.762700	-8.279400	28.825923	0.000211	20.876368
2563.724210	-2.978800	2.762500	-8.226900	28.856071	0.000210	20.903891
2564.725902	-3.001500	2.756300	-8.271000	28.906407	0.000211	20.893910
2565.725424	-3.042500	2.752400	-8.372900	28.930237	0.000210	20.902269
2566.725240	-2.993000	2.752000	-8.235000	28.950623	0.000212	20.874920
2567.726227	-3.005500	2.748300	-8.259000	28.954858	0.000209	20.872549
2568.729026	-2.983900	2.745900	-8.192600	28.980693	0.000210	20.888145
2569.728144	-2.990200	2.741500	-8.196200	28.999468	0.000208	20.879087
2570.726552	-3.000500	2.740300	-8.220900	29.032485	0.000212	20.874895
2571.727627	-2.970500	2.737200	-8.129400	29.024039	0.000209	20.869704
2572.728137	-3.010100	2.731700	-8.220400	29.016905	0.000210	20.890490
2573.726936	-2.982400	2.730300	-8.141500	28.934075	0.000210	20.882905
2574.727219	-3.003000	2.724800	-8.181800	28.897414	0.000210	20.886273
2575.726802	-2.993700	2.722900	-8.150600	28.849629	0.000210	20.878912
2576.727430	-2.987400	2.719200	-8.122200	28.811800	0.000210	20.880159
2577.730353	-2.989600	2.716500	-8.120700	28.783781	0.000210	20.887970
2578.730056	-3.003900	2.711900	-8.145200	28.755959	0.000210	20.879386
2579.731328	-3.005600	2.708100	-8.139300	28.765200	0.000211	20.877314
2580.728855	-3.018600	2.705100	-8.165300	28.795202	0.000210	20.899947
2581.730205	-2.989400	2.701700	-8.075000	28.832610	0.000210	20.890689
2582.730983	-3.005000	2.697600	-8.105600	28.829860	0.000210	20.892187
2583.730592	-3.023200	2.693200	-8.141300	28.807836	0.000208	20.888493
2584.732047	-3.017400	2.691100	-8.119200	28.798719	0.000211	20.892112
2585.731595	-3.003300	2.686500	-8.067900	28.856267	0.000210	20.874220
2586.733525	-3.018600	2.682800	-8.097600	28.887133	0.000211	20.883028
2587.730357	-2.980700	2.680400	-7.988900	28.963749	0.000210	20.888618
2588.728803	-3.000700	2.675100	-8.026500	29.009474	0.000209	20.898175
2589.732182	-3.041400	2.670900	-8.122700	29.072137	0.000210	20.880233
2590.732037	-3.012600	2.666900	-8.033600	29.135440	0.000211	20.886646
2591.732275	-3.024800	2.663500	-8.055200	29.143018	0.000210	20.882429
2592.738475	-2.982400	2.661600	-7.936800	29.145693	0.000210	20.888917
2593.732364	-2.995900	2.655800	-7.955600	29.135787	0.000210	20.870875
2594.732615	-3.009500	2.651500	-7.978900	29.139601	0.000209	20.857176
2595.738507	-3.001100	2.647100	-7.942900	29.150918	0.000210	20.878536
2596.737021	-2.983200	2.644900	-7.888700	29.172291	0.000210	20.863090
2597.734939	-3.019600	2.637900	-7.964000	29.209141	0.000211	20.853757
2598.743666	-3.038200	2.632200	-7.995800	29.150770	0.000211	20.856576
2599.735939	-3.000300	2.629600	-7.888700	29.136653	0.000212	20.879334
2600.734829	-2.990700	2.624500	-7.847700	29.158298	0.000209	20.868904
2601.735775	-3.004100	2.619800	-7.868800	29.146956	0.000210	20.877388
2602.740576	-2.993600	2.616800	-7.832800	29.155277	0.000212	20.857799
2603.737697	-3.005100	2.609700	-7.841500	29.164242	0.000210	20.865410
2604.737195	-2.980700	2.605900	-7.766300	29.200522	0.000209	20.853132
2605.739747	-2.982700	2.601400	-7.759000	29.225261	0.000212	20.851510
2606.738883	-2.983700	2.595100	-7.741400	29.246434	0.000214	20.825907
2607.735278	-2.983300	2.592000	-7.731800	29.263744	0.000212	20.879858
2608.741673	-2.961300	2.586300	-7.657900	29.187421	0.000212	20.837561
2609.742590	-2.984300	2.581000	-7.701400	29.125681	0.000210	20.848366
2610.735630	-2.968900	2.576100	-7.647300	29.048804	0.000213	20.847717
2611.737454	-2.985200	2.568900	-7.667600	29.037510	0.000211	20.834915
2612.736400	-2.984300	2.564100	-7.651500	29.003329	0.000213	20.840780
2613.736610	-3.001700	2.557200	-7.674500	28.988815	0.000214	20.839432
2614.738669	-3.002500	2.552100	-7.661400	29.005905	0.000211	20.850487
2615.735197	-3.008200	2.545600	-7.656500	29.075751	0.000211	20.825083
2616.736023	-3.011500	2.538700	-7.644500	29.103713	0.000211	20.857998
2617.737609	-3.001800	2.534100	-7.604200	29.172290	0.000210	20.872097
2618.735919	-2.984700	2.528400	-7.545600	29.156143	0.000210	20.849189
2619.738090	-3.018300	2.521000	-7.608100	29.134894	0.000212	20.831571
2620.740215	-3.030100	2.513700	-7.615500	29.093584	0.000211	20.820766
2621.737235	-2.999000	2.509400	-7.523800	29.076445	0.000211	20.818195
2622.738726	-2.989700	2.502900	-7.482700	29.062005	0.000213	20.840155
2623.739614	-2.982600	2.498000	-7.449600	29.101236	0.000213	20.836063
