LabVIEW Measurement	
Writer_Version	2
Reader_Version	2
Separator	Tab
Decimal_Separator	.
Multi_Headings	No
X_Columns	One
Time_Pref	Absolute
Operator	admin
Description	Clolumns are: time, Current, Voltage, Power, Battery Temp, and Chamber Temp
Date	2024/08/16
Time	13:06:06.104549407958984375
***End_of_Header***	
	
Channels	6						
Samples	1	1	1	1	1	1	
Date	2024/08/27	2024/08/27	2024/08/27	2024/08/27	2024/08/27	2024/08/27	
Time	15:31:31.0268425941467285156	15:31:31.0318417549133300781	15:31:31.037841796875	15:31:31.011432647705078125	15:31:31.011432647705078125	15:31:31.011432647705078125	
X_Dimension	Time	Time	Time	Time	Time	Time	
X0	0.0000000000000000E+0	0.0000000000000000E+0	0.0000000000000000E+0	0.0000000000000000E+0	0.0000000000000000E+0	0.0000000000000000E+0	
Delta_X	1.000000	1.000000	1.000000	1.000000	1.000000	1.000000	
***End_of_Header***							
X_Value	Untitled	Untitled 1	Untitled 2	Untitled 3	Untitled 4	Untitled 5	Comment
0.000000	0.017251	4.104000	0.070735	21.048985	0.000954	20.777323
1.013434	-2.994900	3.946300	-11.817000	21.051004	0.000954	20.766540
1.999553	-2.972400	3.939300	-11.708000	21.061655	0.000952	20.779089
3.003707	-2.997800	3.933100	-11.789000	21.049403	0.000952	20.772050
4.001208	-3.006200	3.928500	-11.809000	21.065946	0.000950	20.762044
5.001083	-2.998100	3.926100	-11.770000	21.044090	0.000948	20.745399
6.001764	-2.989100	3.924100	-11.728000	21.047981	0.000950	20.774421
7.001873	-3.014400	3.920200	-11.816000	21.061058	0.000949	20.760948
8.004656	-2.976900	3.920500	-11.669000	21.071912	0.000947	20.771330
9.002721	-3.004500	3.916700	-11.767000	21.064769	0.000948	20.755651
10.005107	-2.997500	3.915900	-11.736000	21.065162	0.000945	20.778804
11.003897	-2.998700	3.913300	-11.733000	21.073965	0.000946	20.757263
12.008172	-3.022800	3.910900	-11.820000	21.075517	0.000945	20.759290
13.007477	-2.992500	3.909300	-11.698000	21.072698	0.000943	20.762159
14.003836	-3.012700	3.908400	-11.774000	21.090458	0.000944	20.769967
15.003328	-2.985700	3.908700	-11.669000	21.076613	0.000945	20.743315
16.005968	-3.020100	3.905900	-11.795000	21.089601	0.000944	20.742082
17.004736	-2.998100	3.905600	-11.708000	21.089380	0.000943	20.737119
18.005007	-2.992800	3.904700	-11.685000	21.098460	0.000942	20.749522
19.005502	-2.971500	3.904000	-11.599000	21.101958	0.000942	20.750649
20.012706	-3.012800	3.902700	-11.758000	21.115877	0.000940	20.760779
21.005718	-3.035200	3.900000	-11.836000	21.121484	0.000939	20.730825
22.006960	-3.008500	3.899300	-11.729000	21.100293	0.000940	20.758467
23.006750	-3.002700	3.899900	-11.709000	21.099883	0.000938	20.748573
24.009819	-3.006800	3.898700	-11.721000	21.132902	0.000938	20.746989
25.006969	-3.001500	3.897500	-11.698000	21.110370	0.000938	20.754323
26.010853	-3.006300	3.897200	-11.715000	21.131905	0.000939	20.763536
27.007404	-3.007000	3.896600	-11.715000	21.142800	0.000937	20.760209
28.008389	-2.996400	3.898200	-11.679000	21.142997	0.000934	20.737171
29.036300	-3.000000	3.896400	-11.688000	21.143095	0.000936	20.758133
30.009400	-3.002800	3.894300	-11.692000	21.160061	0.000936	20.735275
31.008033	-3.020200	3.893900	-11.759000	21.162849	0.000936	20.757979
32.007819	-3.019800	3.893200	-11.755000	21.155314	0.000936	20.757554
33.008621	-2.994100	3.894300	-11.659000	21.158534	0.000934	20.733272
34.010230	-2.983100	3.892400	-11.610000	21.179161	0.000933	20.753908
35.011913	-2.985200	3.892800	-11.619000	21.187318	0.000933	20.749264
36.011496	-2.992700	3.893700	-11.652000	21.178582	0.000933	20.732939
37.012310	-2.986600	3.891300	-11.621000	21.195744	0.000933	20.751530
38.009827	-2.998500	3.893100	-11.672000	21.200140	0.000933	20.748815
39.010946	-2.993000	3.890200	-11.642000	21.205477	0.000931	20.748463
40.013037	-2.991000	3.890300	-11.635000	21.215978	0.000933	20.733364
41.014305	-2.974700	3.891200	-11.573000	21.198784	0.000932	20.732759
42.009436	-2.988400	3.888500	-11.618000	21.216705	0.000930	20.733617
43.009964	-2.987300	3.889600	-11.618000	21.231791	0.000931	20.733536
44.012146	-3.001500	3.888100	-11.668000	21.241067	0.000929	20.744712
45.011114	-3.011400	3.888900	-11.709000	21.241320	0.000930	20.740223
46.016120	-3.020300	3.887300	-11.739000	21.258253	0.000931	20.708323
47.011724	-3.030700	3.885800	-11.776000	21.250522	0.000930	20.737101
48.013888	-3.017500	3.886700	-11.727000	21.251322	0.000929	20.737427
49.011851	-2.989700	3.887300	-11.621000	21.261497	0.000930	20.743813
50.011841	-3.021400	3.886300	-11.741000	21.267111	0.000929	20.728565
51.015562	-2.984700	3.885100	-11.593000	21.261342	0.000929	20.743658
52.014482	-2.994100	3.885100	-11.631000	21.286339	0.000928	20.746855
53.015237	-3.010700	3.883800	-11.692000	21.277864	0.000928	20.737902
54.013747	-3.006100	3.883600	-11.673000	21.298834	0.000927	20.743233
55.013153	-3.007500	3.884000	-11.679000	21.289534	0.000927	20.727290
56.016894	-2.992300	3.883800	-11.619000	21.302854	0.000926	20.729236
57.014781	-2.987700	3.883000	-11.601000	21.306891	0.000927	20.743233
58.020346	-2.996200	3.883800	-11.635000	21.316100	0.000927	20.742963
59.016897	-2.986700	3.883600	-11.598000	21.333210	0.000925	20.739693
60.017169	-3.002500	3.881800	-11.654000	21.317644	0.000927	20.737870
61.022092	-2.992500	3.880900	-11.613000	21.347558	0.000925	20.722752
62.017588	-2.999200	3.881900	-11.642000	21.337778	0.000927	20.738098
63.017353	-2.988000	3.882800	-11.600000	21.336152	0.000927	20.726988
64.016841	-2.999500	3.881100	-11.640000	21.341243	0.000927	20.723072
65.017833	-3.008100	3.880100	-11.671000	21.329051	0.000924	20.721779
66.018552	-2.994800	3.881500	-11.623000	21.321215	0.000925	20.719630
67.023101	-2.995300	3.882200	-11.627000	21.351318	0.000925	20.729359
68.018344	-3.005700	3.880700	-11.663000	21.358599	0.000925	20.731428
69.020561	-3.003500	3.879900	-11.653000	21.379901	0.000923	20.724765
70.021132	-3.003600	3.879800	-11.651000	21.360698	0.000924	20.747754
71.026068	-2.971600	3.879700	-11.527000	21.392173	0.000924	20.732303
72.024930	-3.000000	3.878300	-11.634000	21.381796	0.000924	20.735671
73.023505	-2.952600	3.879700	-11.453000	21.417641	0.000923	20.734076
74.024832	-3.008100	3.879200	-11.668000	21.401873	0.000925	20.725411
75.026056	-2.986500	3.878600	-11.581000	21.408205	0.000924	20.735541
76.025975	-2.984000	3.877100	-11.568000	21.405959	0.000923	20.719542
77.029775	-2.978800	3.878100	-11.551000	21.427014	0.000924	20.715952
78.024906	-2.973800	3.878300	-11.531000	21.425217	0.000924	20.728379
79.025919	-2.987000	3.878100	-11.583000	21.446191	0.000924	20.713802
80.053790	-3.015900	3.875600	-11.688000	21.441452	0.000923	20.728028
81.044320	-2.998100	3.876400	-11.621000	21.448985	0.000924	20.711382
82.052668	-2.997300	3.875400	-11.615000	21.449181	0.000926	20.731494
83.055162	-2.981300	3.875100	-11.552000	21.471127	0.000923	20.719313
84.053502	-3.015900	3.875000	-11.686000	21.490352	0.000926	20.715790
85.029456	-3.022400	3.874000	-11.708000	21.489977	0.000925	20.717785
86.028048	-2.999400	3.875400	-11.622000	21.480801	0.000925	20.712397
87.031757	-3.008500	3.874200	-11.654000	21.485312	0.000922	20.701736
88.059349	-2.995500	3.874500	-11.605000	21.485115	0.000923	20.726672
89.058429	-3.006800	3.873200	-11.643000	21.472819	0.000924	20.725748
90.034092	-2.999200	3.874500	-11.620000	21.503989	0.000923	20.724694
91.032848	-2.994400	3.874700	-11.601000	21.490451	0.000924	20.723475
92.031730	-3.017100	3.872400	-11.683000	21.507552	0.000924	20.721146
93.033325	-2.995200	3.873300	-11.600000	21.494136	0.000924	20.718154
94.034064	-3.001300	3.874400	-11.627000	21.504610	0.000924	20.720100
95.057922	-3.010000	3.872700	-11.656000	21.533452	0.000925	20.706759
96.053445	-3.021600	3.872800	-11.701000	21.521588	0.000926	20.709587
97.053761	-3.007300	3.872200	-11.644000	21.533108	0.000927	20.711631
98.056556	-2.995400	3.871600	-11.595000	21.547194	0.000925	20.714346
99.035416	-3.018300	3.871900	-11.685000	21.541932	0.000925	20.708132
100.051766	-3.018200	3.871600	-11.684000	21.571711	0.000923	20.720387
101.054945	-3.005100	3.871200	-11.632000	21.567471	0.000923	20.702393
102.033433	-2.996400	3.871400	-11.599000	21.568941	0.000925	20.692010
103.037801	-3.018200	3.872000	-11.685000	21.552627	0.000924	20.698919
104.035561	-3.006400	3.870200	-11.634000	21.579734	0.000924	20.707553
105.035199	-3.008900	3.869700	-11.642000	21.580977	0.000925	20.694096
106.035822	-2.999300	3.870400	-11.607000	21.604162	0.000926	20.705919
107.053159	-3.007000	3.869900	-11.636000	21.590446	0.000927	20.698831
108.059649	-3.012400	3.869200	-11.654000	21.614186	0.000927	20.722115
109.059164	-3.019900	3.868300	-11.681000	21.609669	0.000924	20.689617
110.036522	-3.005800	3.870300	-11.632000	21.622659	0.000927	20.712575
111.034844	-3.017900	3.869700	-11.677000	21.649985	0.000925	20.709101
112.038746	-2.993200	3.869300	-11.579000	21.647005	0.000925	20.685254
113.036327	-3.015800	3.868900	-11.667000	21.639621	0.000924	20.710109
114.034774	-2.992900	3.868600	-11.577000	21.667470	0.000927	20.702891
115.037921	-3.004500	3.870000	-11.627000	21.686285	0.000926	20.690425
116.037686	-3.005200	3.868200	-11.623000	21.645489	0.000926	20.709817
117.037116	-3.006700	3.868400	-11.629000	21.649844	0.000928	20.725082
118.035944	-3.004300	3.868400	-11.621000	21.686091	0.000926	20.698767
119.037391	-3.001400	3.867000	-11.605000	21.683838	0.000926	20.695089
120.036478	-2.993900	3.868800	-11.582000	21.701835	0.000927	20.705040
121.062186	-3.019200	3.867100	-11.675000	21.675320	0.000926	20.700315
122.054941	-3.034500	3.866000	-11.730000	21.692117	0.000926	20.672078
123.037799	-3.025500	3.866300	-11.696000	21.704723	0.000928	20.704137
124.037303	-3.031800	3.865900	-11.719000	21.703368	0.000927	20.694245
125.067581	-3.004000	3.866200	-11.613000	21.719199	0.000926	20.676897
126.068609	-3.001800	3.866400	-11.605000	21.744400	0.000926	20.698801
127.055422	-2.995400	3.865700	-11.579000	21.726815	0.000927	20.690684
128.071215	-3.014000	3.865400	-11.647000	21.744042	0.000929	20.697020
129.055303	-3.016900	3.865800	-11.661000	21.708071	0.000927	20.679510
130.057069	-2.993500	3.865800	-11.571000	21.738694	0.000928	20.691667
131.059409	-3.017300	3.865000	-11.660000	21.730780	0.000928	20.685643
132.057696	-2.979800	3.866400	-11.520000	21.747934	0.000927	20.704709
133.062809	-3.014400	3.865100	-11.649000	21.762933	0.000928	20.696960
134.062237	-3.006500	3.865300	-11.620000	21.773510	0.000929	20.701857
135.043346	-3.006300	3.864900	-11.617000	21.785371	0.000929	20.701874
136.037066	-3.000400	3.864800	-11.595000	21.789684	0.000929	20.702398
137.039370	-3.016200	3.862600	-11.649000	21.793548	0.000927	20.702946
138.038657	-3.011600	3.862600	-11.631000	21.816859	0.000929	20.701622
139.038969	-3.024900	3.863000	-11.684000	21.801268	0.000930	20.695025
140.061913	-3.012200	3.862500	-11.634000	21.824579	0.000930	20.698917
141.059841	-3.012200	3.863600	-11.637000	21.790961	0.000930	20.691822
142.067367	-2.979900	3.863300	-11.511000	21.810687	0.000930	20.700659
143.061832	-2.985500	3.862800	-11.531000	21.819958	0.000930	20.702352
144.054496	-2.996200	3.862500	-11.571000	21.824695	0.000931	20.718475
145.058132	-2.989800	3.863800	-11.550000	21.824948	0.000932	20.700708
146.058602	-3.014300	3.861300	-11.638000	21.848227	0.000931	20.687972
147.043560	-2.992800	3.863700	-11.563000	21.851936	0.000931	20.697375
148.042677	-3.016700	3.861600	-11.648000	21.815957	0.000933	20.688864
149.064043	-3.008600	3.861900	-11.618000	21.838272	0.000933	20.687491
150.044178	-3.000400	3.862500	-11.587000	21.863298	0.000933	20.699265
151.067812	-3.017900	3.861000	-11.651000	21.854403	0.000933	20.702689
152.059358	-2.995500	3.862800	-11.570000	21.855515	0.000931	20.696690
153.076830	-3.000200	3.860200	-11.580000	21.861200	0.000933	20.690525
154.047524	-3.004600	3.860500	-11.598000	21.868207	0.000934	20.716033
155.059967	-3.014600	3.860800	-11.638000	21.865365	0.000933	20.679995
156.083747	-3.009100	3.860300	-11.615000	21.872446	0.000934	20.718380
157.044508	-3.014000	3.860000	-11.633000	21.896279	0.000933	20.697189
158.045393	-3.012700	3.858900	-11.624000	21.885949	0.000933	20.706290
159.073427	-3.013000	3.858900	-11.625000	21.912704	0.000934	20.697508
160.065442	-2.997400	3.860200	-11.570000	21.914297	0.000936	20.702897
161.043844	-2.998200	3.860100	-11.571000	21.931522	0.000935	20.713975
162.073645	-3.010500	3.858000	-11.613000	21.921925	0.000935	20.689194
163.064834	-2.997100	3.859400	-11.564000	21.947350	0.000935	20.728397
164.059989	-3.000400	3.859200	-11.578000	21.924188	0.000936	20.699995
165.067497	-3.004100	3.858300	-11.590000	21.945536	0.000939	20.709985
166.045787	-2.998800	3.858200	-11.567000	21.959518	0.000936	20.697428
167.044724	-3.025400	3.857000	-11.668000	21.963283	0.000938	20.693135
168.052894	-2.983100	3.859400	-11.512000	21.963528	0.000938	20.693381
169.048130	-2.994100	3.859100	-11.553000	21.974097	0.000938	20.712496
170.049554	-2.996000	3.857500	-11.556000	21.965318	0.000937	20.687585
171.047700	-2.993400	3.857400	-11.545000	21.990201	0.000937	20.692580
172.047689	-3.004900	3.858000	-11.591000	21.983538	0.000938	20.700610
173.053833	-3.010600	3.856900	-11.610000	21.994261	0.000938	20.688583
174.049624	-2.983500	3.858200	-11.510000	22.006078	0.000938	20.714165
175.047080	-3.011600	3.856900	-11.614000	22.018091	0.000938	20.700111
176.062001	-3.007500	3.856000	-11.597000	22.025989	0.000939	20.700905
177.047914	-2.985900	3.856600	-11.515000	22.042843	0.000939	20.722047
178.071717	-3.016600	3.857000	-11.633000	22.024796	0.000940	20.705401
179.068040	-2.991400	3.856400	-11.535000	22.039601	0.000940	20.690824
180.070711	-2.991200	3.855900	-11.534000	22.026813	0.000940	20.716905
181.067439	-3.005300	3.854600	-11.583000	22.039454	0.000941	20.709170
182.051671	-2.999000	3.856400	-11.564000	22.039177	0.000942	20.712686
183.050581	-2.998300	3.855200	-11.557000	22.061561	0.000943	20.707119
184.057878	-3.013500	3.855600	-11.617000	22.074096	0.000942	20.699753
185.051220	-2.992600	3.855200	-11.536000	22.077731	0.000945	20.698176
186.050445	-3.006300	3.856500	-11.593000	22.060108	0.000944	20.713726
187.067837	-2.983100	3.856100	-11.503000	22.059284	0.000941	20.704839
188.082703	-2.982500	3.854500	-11.495000	22.063571	0.000942	20.713873
189.051694	-2.997400	3.853500	-11.550000	22.078703	0.000943	20.718591
190.057467	-2.985300	3.855100	-11.507000	22.067034	0.000944	20.695527
191.052149	-3.006900	3.853300	-11.584000	22.060108	0.000945	20.699974
192.052057	-2.960000	3.855000	-11.409000	22.070816	0.000943	20.715436
193.051330	-2.970800	3.852800	-11.445000	22.116855	0.000943	20.717906
194.050962	-2.973500	3.854000	-11.459000	22.088635	0.000944	20.726164
195.056133	-3.009100	3.852300	-11.591000	22.124335	0.000946	20.705953
196.053000	-2.996400	3.853700	-11.546000	22.130165	0.000945	20.706574
197.070194	-3.012200	3.852400	-11.604000	22.124131	0.000946	20.703378
198.053259	-2.998900	3.852900	-11.554000	22.125226	0.000947	20.722967
199.052646	-2.982800	3.852400	-11.489000	22.132926	0.000947	20.723564
200.053685	-3.004100	3.851300	-11.569000	22.148425	0.000945	20.701148
201.053379	-2.988900	3.852600	-11.514000	22.145184	0.000948	20.696005
202.054211	-3.006800	3.851200	-11.578000	22.158364	0.000949	20.702563
203.051788	-3.009800	3.850400	-11.588000	22.150786	0.000946	20.722005
204.052476	-3.000900	3.851500	-11.557000	22.154035	0.000948	20.725257
205.075483	-2.999400	3.851000	-11.550000	22.169109	0.000949	20.711425
206.071350	-2.996500	3.849400	-11.533000	22.161679	0.000947	20.712047
207.074742	-2.992400	3.850700	-11.522000	22.184165	0.000949	20.722707
208.078322	-3.003200	3.849700	-11.560000	22.175259	0.000950	20.734653
209.084391	-3.007100	3.851900	-11.583000	22.212082	0.000949	20.732641
210.053485	-2.994700	3.850300	-11.529000	22.188631	0.000950	20.715324
211.055342	-2.996200	3.851000	-11.538000	22.209886	0.000951	20.723329
212.053309	-3.001000	3.850300	-11.554000	22.215495	0.000952	20.725626
213.052261	-2.999400	3.849200	-11.544000	22.229481	0.000953	20.721137
214.053892	-3.006000	3.848300	-11.567000	22.235287	0.000952	20.716518
215.052730	-3.001700	3.849300	-11.553000	22.233694	0.000954	20.718243
216.051770	-2.992300	3.849000	-11.516000	22.250300	0.000953	20.730603
217.056218	-3.006600	3.847600	-11.567000	22.243940	0.000954	20.726132
218.053194	-2.998600	3.848500	-11.538000	22.276068	0.000954	20.718471
219.068120	-2.995400	3.847900	-11.525000	22.295760	0.000953	20.734871
220.055251	-3.005700	3.848000	-11.565000	22.300741	0.000954	20.718046
221.079167	-3.010600	3.846800	-11.580000	22.298089	0.000955	20.739574
222.072660	-3.009300	3.846300	-11.573000	22.302439	0.000955	20.720220
223.072263	-2.991200	3.848800	-11.512000	22.310692	0.000956	20.737021
224.073246	-2.981800	3.847500	-11.471000	22.347325	0.000956	20.728183
225.055887	-2.996700	3.847400	-11.529000	22.331191	0.000957	20.729571
226.074226	-3.003200	3.847400	-11.553000	22.345610	0.000957	20.747804
227.082783	-2.982600	3.846700	-11.471000	22.374796	0.000959	20.734829
228.074409	-2.984500	3.846400	-11.479000	22.371734	0.000960	20.733185
229.074811	-3.019100	3.846900	-11.614000	22.376297	0.000958	20.743445
230.085813	-3.019100	3.846000	-11.610000	22.362491	0.000962	20.719662
231.077414	-3.000300	3.846300	-11.539000	22.390060	0.000962	20.720241
232.081770	-2.982800	3.844800	-11.467000	22.382761	0.000961	20.730477
233.061946	-2.991100	3.845500	-11.500000	22.388737	0.000963	20.716072
234.091938	-2.996500	3.845300	-11.522000	22.422811	0.000963	20.743083
235.075215	-3.008800	3.844900	-11.567000	22.421840	0.000961	20.740687
236.080528	-3.013700	3.844100	-11.584000	22.437840	0.000963	20.719251
237.082753	-3.001300	3.844700	-11.538000	22.438036	0.000961	20.728457
238.080130	-2.998900	3.844000	-11.527000	22.420328	0.000962	20.750554
239.062583	-2.994600	3.844100	-11.511000	22.411283	0.000964	20.728692
240.064950	-3.007100	3.844100	-11.558000	22.434557	0.000965	20.725447
241.064927	-3.001400	3.843200	-11.534000	22.439144	0.000964	20.745215
242.064861	-2.995200	3.844600	-11.515000	22.444794	0.000967	20.744235
243.068622	-3.020400	3.842600	-11.604000	22.441862	0.000965	20.711899
244.068434	-3.017800	3.843300	-11.596000	22.417347	0.000969	20.739981
245.074737	-3.011900	3.842200	-11.572000	22.438180	0.000967	20.733817
246.070513	-2.991100	3.841900	-11.490000	22.440954	0.000966	20.735173
247.068788	-3.010700	3.841700	-11.566000	22.464073	0.000968	20.748369
248.070412	-3.005500	3.842200	-11.547000	22.445492	0.000969	20.733554
249.072396	-2.988600	3.842500	-11.483000	22.419647	0.000968	20.740863
250.090989	-2.992800	3.841700	-11.496000	22.471778	0.000970	20.725738
251.072157	-2.976100	3.841100	-11.431000	22.446618	0.000967	20.751751
252.093405	-2.988600	3.842200	-11.482000	22.472031	0.000970	20.749700
253.089395	-2.992300	3.841400	-11.494000	22.486936	0.000972	20.723374
254.101495	-3.001300	3.841500	-11.529000	22.466812	0.000971	20.748267
255.093018	-3.006200	3.840700	-11.545000	22.473385	0.000972	20.724976
256.090328	-2.999000	3.840300	-11.516000	22.496689	0.000973	20.736936
257.092898	-3.011600	3.839700	-11.563000	22.480813	0.000973	20.738580
258.073704	-3.008300	3.840600	-11.552000	22.483064	0.000974	20.740361
259.076385	-2.974400	3.841400	-11.425000	22.521470	0.000974	20.736149
260.092869	-3.001000	3.838800	-11.519000	22.511527	0.000973	20.728562
261.104719	-2.984100	3.840600	-11.460000	22.531787	0.000975	20.755018
262.098221	-3.004800	3.839400	-11.535000	22.540193	0.000974	20.748738
263.099891	-3.001000	3.839900	-11.523000	22.519583	0.000976	20.767452
264.096376	-3.000200	3.838100	-11.514000	22.538570	0.000977	20.757543
265.074713	-3.006700	3.838200	-11.540000	22.560729	0.000977	20.727105
266.097925	-2.990700	3.839700	-11.481000	22.563724	0.000976	20.754761
267.078924	-2.983200	3.838000	-11.448000	22.560466	0.000977	20.723996
268.096346	-3.002700	3.838400	-11.525000	22.599164	0.000976	20.757066
269.082183	-2.992400	3.837600	-11.483000	22.582472	0.000979	20.736079
270.094960	-3.001400	3.836800	-11.515000	22.595033	0.000979	20.755773
271.102692	-2.998500	3.837400	-11.505000	22.602264	0.000980	20.753058
272.079496	-2.997700	3.836200	-11.499000	22.591719	0.000980	20.752454
273.077606	-2.986800	3.837300	-11.460000	22.577892	0.000980	20.749985
274.078295	-2.994000	3.836600	-11.485000	22.562153	0.000980	20.771681
275.079131	-3.000500	3.835200	-11.505000	22.587700	0.000979	20.750325
276.079406	-3.002000	3.834700	-11.511000	22.584208	0.000982	20.758207
277.077479	-3.014900	3.835600	-11.563000	22.564584	0.000982	20.747087
278.077713	-3.006000	3.834600	-11.525000	22.590197	0.000983	20.758991
279.079589	-2.998200	3.835800	-11.500000	22.597200	0.000983	20.778807
280.079737	-3.005100	3.835600	-11.525000	22.607640	0.000983	20.741372
281.080004	-2.995600	3.835400	-11.488000	22.612055	0.000984	20.742001
282.079327	-3.010600	3.833900	-11.541000	22.633259	0.000984	20.759447
283.096087	-2.987200	3.834500	-11.453000	22.651101	0.000985	20.749816
284.092505	-2.993700	3.833000	-11.475000	22.665057	0.000987	20.768063
285.098081	-2.982700	3.834900	-11.437000	22.665685	0.000986	20.744035
286.097366	-2.989600	3.834800	-11.463000	22.686243	0.000987	20.763205
287.109530	-3.012400	3.833600	-11.548000	22.690128	0.000987	20.780848
288.109998	-2.984400	3.833800	-11.440000	22.699122	0.000989	20.765675
289.099954	-2.986800	3.832800	-11.446000	22.680121	0.000987	20.764660
290.080654	-3.008000	3.834300	-11.532000	22.663553	0.000990	20.770824
291.080556	-2.993100	3.832700	-11.471000	22.688396	0.000988	20.778165
292.081013	-3.025400	3.831400	-11.590000	22.685254	0.000990	20.770750
293.081192	-2.997900	3.832500	-11.487000	22.727447	0.000991	20.755640
294.081877	-3.004800	3.831600	-11.511000	22.724004	0.000992	20.760726
295.080759	-2.990700	3.830800	-11.454000	22.728997	0.000992	20.747235
296.106626	-3.001500	3.831300	-11.499000	22.735403	0.000992	20.771671
297.086549	-2.976600	3.830800	-11.402000	22.758285	0.000992	20.781315
298.101827	-2.994500	3.831100	-11.470000	22.750557	0.000994	20.765988
299.098064	-3.023400	3.831700	-11.584000	22.751535	0.000993	20.789727
300.082010	-2.996800	3.830700	-11.479000	22.776180	0.000993	20.756093
301.102878	-3.029000	3.829600	-11.598000	22.786243	0.000994	20.777554
302.110101	-2.993200	3.831200	-11.466000	22.787165	0.000995	20.759511
303.103194	-3.008200	3.830100	-11.521000	22.779052	0.000995	20.772721
304.115018	-3.004300	3.828900	-11.502000	22.785279	0.000994	20.782752
305.111095	-2.995400	3.830600	-11.474000	22.776693	0.000996	20.792169
306.108080	-3.001200	3.829200	-11.492000	22.788322	0.000996	20.774421
307.103695	-3.020900	3.828100	-11.564000	22.804878	0.000996	20.759237
308.102582	-2.995800	3.830200	-11.474000	22.806200	0.000998	20.786166
309.100367	-2.996800	3.828800	-11.473000	22.819706	0.000997	20.778359
310.083606	-3.037200	3.827600	-11.623000	22.824046	0.000998	20.774172
311.084613	-3.005700	3.828200	-11.506000	22.832110	0.000999	20.772293
312.106959	-2.999100	3.828700	-11.482000	22.836482	0.000999	20.779518
313.107454	-3.003800	3.827800	-11.497000	22.859853	0.001002	20.773533
314.104319	-2.983100	3.829000	-11.420000	22.869964	0.001000	20.770860
315.087888	-2.981000	3.827000	-11.407000	22.859460	0.001000	20.775036
316.089145	-2.987900	3.827300	-11.435000	22.864144	0.001002	20.783522
317.086864	-2.979100	3.827400	-11.401000	22.850296	0.001002	20.772019
318.088922	-2.996300	3.826800	-11.466000	22.880415	0.001001	20.793184
319.089722	-2.995400	3.825500	-11.458000	22.863604	0.001004	20.764489
320.093830	-2.997100	3.827500	-11.470000	22.873494	0.001003	20.790993
321.092392	-2.987700	3.826900	-11.432000	22.879451	0.001005	20.803124
322.108325	-3.008900	3.825500	-11.509000	22.886803	0.001004	20.787730
323.106120	-2.993400	3.826700	-11.454000	22.864264	0.001004	20.781745
324.114135	-3.005800	3.825100	-11.496000	22.887553	0.001004	20.762877
325.122558	-3.004700	3.826000	-11.495000	22.882378	0.001004	20.797997
326.115668	-3.020000	3.824500	-11.549000	22.896479	0.001003	20.777984
327.119783	-3.027400	3.824000	-11.576000	22.897923	0.001006	20.792707
328.111818	-2.980000	3.825600	-11.397000	22.915564	0.001006	20.780509
329.095212	-3.019700	3.823400	-11.543000	22.901962	0.001008	20.793434
330.095037	-3.009300	3.824200	-11.507000	22.902516	0.001006	20.788774
331.095438	-2.987800	3.824800	-11.427000	22.932038	0.001008	20.809341
332.115183	-3.023400	3.823600	-11.559000	22.925787	0.001007	20.793122
333.125127	-3.005700	3.823500	-11.491000	22.930625	0.001009	20.790382
334.116235	-3.013100	3.822400	-11.516000	22.937423	0.001008	20.803831
335.112404	-2.977700	3.823800	-11.384000	22.985432	0.001011	20.789343
336.113432	-2.999000	3.823100	-11.464000	22.972034	0.001009	20.802465
337.123899	-3.005300	3.823000	-11.488000	22.994007	0.001010	20.809314
338.117456	-3.010600	3.822000	-11.505000	22.976048	0.001009	20.804123
339.118180	-3.033200	3.820800	-11.588000	22.995255	0.001011	20.787805
340.116487	-2.987900	3.822900	-11.422000	22.992864	0.001011	20.805324
341.122554	-3.005100	3.821100	-11.481000	22.992692	0.001012	20.798514
342.120245	-3.005900	3.822100	-11.487000	22.980542	0.001011	20.808626
343.126517	-2.999600	3.821100	-11.461000	22.991378	0.001012	20.797671
344.116704	-2.988700	3.822500	-11.423000	22.990912	0.001012	20.805265
345.121088	-2.986900	3.819900	-11.409000	22.981994	0.001012	20.819563
346.121798	-2.984100	3.820700	-11.400000	22.990715	0.001013	20.818344
347.123678	-2.996600	3.819500	-11.445000	23.000678	0.001015	20.811731
348.117659	-2.989600	3.819900	-11.419000	23.020561	0.001014	20.801781
349.120452	-3.005200	3.819400	-11.477000	23.030972	0.001016	20.791823
350.123947	-3.018600	3.819800	-11.530000	23.005775	0.001014	20.810200
351.135009	-3.000400	3.819200	-11.458000	23.002512	0.001015	20.812145
352.102129	-3.008200	3.819800	-11.490000	23.003115	0.001016	20.817965
353.101819	-3.010500	3.818100	-11.493000	23.011037	0.001016	20.786074
354.105193	-3.004200	3.817900	-11.468000	23.020722	0.001019	20.806210
355.102922	-2.997900	3.817700	-11.444000	22.989626	0.001019	20.800657
356.106792	-2.986200	3.819200	-11.404000	23.004019	0.001017	20.809863
357.103970	-2.984000	3.819500	-11.397000	23.012212	0.001019	20.817123
358.119153	-2.990200	3.818400	-11.417000	23.027502	0.001018	20.798778
359.126307	-2.995200	3.817800	-11.434000	23.068140	0.001020	20.809150
360.106284	-2.989700	3.816300	-11.408000	23.078322	0.001021	20.816034
361.122108	-2.988700	3.818400	-11.411000	23.063758	0.001018	20.805234
362.102968	-3.001400	3.817000	-11.455000	23.080517	0.001020	20.801163
363.123492	-2.976900	3.817400	-11.362000	23.075245	0.001021	20.816270
364.122998	-3.012400	3.814400	-11.489000	23.079209	0.001020	20.823087
365.101052	-2.988900	3.815700	-11.404000	23.099680	0.001023	20.826055
366.127530	-3.010000	3.814800	-11.482000	23.100202	0.001021	20.797181
367.103590	-3.012400	3.815500	-11.493000	23.102070	0.001023	20.816122
368.119293	-3.012800	3.815700	-11.494000	23.098944	0.001023	20.815360
369.123918	-2.992500	3.815600	-11.416000	23.093315	0.001026	20.825367
370.127069	-3.006600	3.814700	-11.468000	23.070054	0.001024	20.821026
371.122111	-2.998300	3.814900	-11.436000	23.078228	0.001025	20.819733
372.104434	-3.004400	3.813400	-11.456000	23.075642	0.001024	20.817141
373.101518	-3.007900	3.812800	-11.467000	23.077338	0.001024	20.811729
374.122982	-3.004800	3.813400	-11.458000	23.103862	0.001025	20.822659
375.123625	-2.991200	3.814500	-11.409000	23.107304	0.001025	20.816151
376.122313	-2.994300	3.812600	-11.414000	23.101658	0.001027	20.813338
377.108213	-2.986700	3.813100	-11.388000	23.114809	0.001026	20.811817
378.104364	-2.983900	3.812800	-11.376000	23.104497	0.001025	20.819028
379.103348	-3.013600	3.811600	-11.485000	23.096877	0.001029	20.799539
380.106003	-2.996600	3.812600	-11.424000	23.102366	0.001028	20.804565
381.128216	-3.006000	3.811600	-11.457000	23.121048	0.001027	20.825182
382.136888	-3.009500	3.811400	-11.468000	23.128122	0.001027	20.801450
383.106705	-3.007400	3.811400	-11.460000	23.129892	0.001027	20.800379
384.104105	-2.996300	3.812000	-11.421000	23.095324	0.001028	20.798932
385.109071	-3.009000	3.811300	-11.468000	23.101150	0.001029	20.813303
386.108396	-3.003100	3.809900	-11.439000	23.100659	0.001029	20.800010
387.105928	-3.004200	3.810600	-11.446000	23.104354	0.001030	20.806083
388.105156	-2.987700	3.810900	-11.385000	23.120492	0.001031	20.799020
389.120001	-2.983800	3.810300	-11.368000	23.136580	0.001032	20.794278
390.106076	-2.980600	3.809900	-11.355000	23.145823	0.001031	20.797376
391.107379	-3.001700	3.808600	-11.431000	23.155907	0.001032	20.807007
392.107790	-3.009800	3.808700	-11.462000	23.160393	0.001033	20.788269
393.110355	-2.996100	3.808700	-11.411000	23.139412	0.001031	20.780046
394.113783	-3.009200	3.809700	-11.463000	23.139875	0.001033	20.789045
395.125156	-3.015300	3.807300	-11.478000	23.176228	0.001034	20.781852
396.143930	-3.019300	3.807400	-11.495000	23.172418	0.001034	20.801742
397.136261	-2.993900	3.808000	-11.398000	23.161837	0.001036	20.782129
398.110875	-2.990100	3.806700	-11.382000	23.188727	0.001035	20.785842
399.110071	-2.987500	3.807100	-11.372000	23.212286	0.001034	20.797597
400.109492	-2.999400	3.805800	-11.414000	23.214775	0.001036	20.791082
401.110451	-2.984400	3.807800	-11.363000	23.213804	0.001036	20.780626
402.108993	-2.983900	3.805900	-11.355000	23.223151	0.001037	20.772924
403.111367	-2.989600	3.805700	-11.375000	23.198964	0.001037	20.794679
404.109510	-2.996100	3.806500	-11.403000	23.217018	0.001036	20.791433
405.114078	-2.976600	3.805400	-11.325000	23.238505	0.001036	20.772664
406.133835	-3.001100	3.805200	-11.419000	23.263238	0.001037	20.771845
407.133551	-3.013400	3.804000	-11.461000	23.264682	0.001038	20.788466
408.133501	-2.994500	3.805500	-11.394000	23.268957	0.001040	20.774732
409.128769	-2.997600	3.804400	-11.404000	23.289480	0.001040	20.780601
410.142788	-3.000300	3.804700	-11.415000	23.283680	0.001039	20.774314
411.126789	-3.004100	3.803100	-11.423000	23.285614	0.001039	20.782891
412.130636	-3.010500	3.804100	-11.451000	23.301511	0.001040	20.803565
413.145545	-3.014300	3.802700	-11.461000	23.277473	0.001041	20.778525
414.116449	-3.014500	3.803100	-11.461000	23.271649	0.001038	20.766524
415.140164	-3.020300	3.801800	-11.482000	23.270124	0.001042	20.780169
416.128823	-3.011400	3.801500	-11.447000	23.274610	0.001041	20.776604
417.138306	-2.994000	3.802600	-11.384000	23.295248	0.001042	20.787331
418.137522	-3.000500	3.802900	-11.410000	23.286406	0.001040	20.786530
419.142289	-2.982000	3.801300	-11.334000	23.311807	0.001042	20.771683
420.131133	-2.979300	3.801200	-11.323000	23.300957	0.001044	20.772664
421.137404	-2.991900	3.802400	-11.375000	23.290819	0.001044	20.771037
422.135931	-3.009100	3.802300	-11.439000	23.294979	0.001043	20.762878
423.136347	-3.008300	3.800300	-11.431000	23.309996	0.001045	20.747108
424.151940	-2.999200	3.801200	-11.400000	23.323039	0.001044	20.759232
425.138951	-3.007500	3.799100	-11.425000	23.324042	0.001048	20.783945
426.120034	-3.025700	3.800000	-11.497000	23.336009	0.001045	20.760851
427.119957	-2.995200	3.799700	-11.379000	23.329049	0.001046	20.779955
428.119161	-3.005700	3.800100	-11.421000	23.347941	0.001044	20.771388
429.121385	-3.000900	3.799100	-11.400000	23.353545	0.001047	20.767047
430.121242	-3.010600	3.799500	-11.438000	23.364321	0.001044	20.765045
431.120572	-3.003600	3.799500	-11.411000	23.365568	0.001046	20.766296
432.120296	-3.001400	3.798900	-11.400000	23.339458	0.001047	20.764308
433.121308	-2.992300	3.798600	-11.364000	23.305892	0.001047	20.776661
434.121719	-3.024400	3.798700	-11.488000	23.317523	0.001046	20.782628
435.126104	-3.011600	3.797400	-11.435000	23.322500	0.001047	20.764382
436.122801	-3.002000	3.796100	-11.394000	23.353503	0.001048	20.761790
437.124865	-2.988700	3.797500	-11.348000	23.349221	0.001048	20.775042
438.124461	-2.982600	3.796500	-11.322000	23.364465	0.001048	20.773725
439.151094	-3.009600	3.796400	-11.423000	23.354285	0.001047	20.778221
440.145123	-2.998700	3.796500	-11.383000	23.360729	0.001049	20.758126
441.135790	-2.999300	3.796100	-11.385000	23.351822	0.001048	20.755362
442.141080	-2.995300	3.796100	-11.369000	23.342115	0.001048	20.747530
443.139657	-3.002900	3.794800	-11.394000	23.370402	0.001050	20.771614
444.123364	-2.998100	3.796100	-11.381000	23.384952	0.001048	20.758222
445.129478	-3.010300	3.795800	-11.424000	23.372529	0.001050	20.744348
446.123511	-2.992400	3.794300	-11.354000	23.377586	0.001050	20.766487
447.127896	-3.009800	3.794600	-11.420000	23.369347	0.001050	20.739262
448.123857	-2.994100	3.793500	-11.358000	23.382944	0.001050	20.747200
449.124041	-3.007600	3.794200	-11.408000	23.358467	0.001050	20.747797
450.148374	-2.983500	3.793500	-11.316000	23.352765	0.001051	20.769585
451.128689	-3.015300	3.793000	-11.435000	23.339852	0.001049	20.726769
452.127626	-3.002600	3.792600	-11.387000	23.318317	0.001052	20.766828
453.140948	-2.995400	3.791700	-11.356000	23.326392	0.001048	20.758799
454.142058	-3.003100	3.791700	-11.385000	23.344818	0.001049	20.742653
455.126230	-3.008300	3.792700	-11.408000	23.364190	0.001050	20.746896
456.128681	-3.001600	3.790800	-11.377000	23.377573	0.001051	20.761258
457.127919	-3.006500	3.791400	-11.398000	23.405460	0.001049	20.744638
458.125742	-3.012000	3.790800	-11.417000	23.426348	0.001052	20.741866
459.126756	-2.990600	3.790600	-11.336000	23.422123	0.001054	20.745692
460.127354	-3.004800	3.790500	-11.388000	23.436388	0.001051	20.748610
461.150809	-2.995400	3.790000	-11.351000	23.458874	0.001051	20.740802
462.149014	-2.997400	3.791100	-11.362000	23.449886	0.001052	20.751708
463.129378	-3.013400	3.788800	-11.416000	23.477753	0.001051	20.756408
464.128999	-3.020300	3.789500	-11.443000	23.491356	0.001055	20.739697
465.143769	-2.987700	3.790500	-11.324000	23.492155	0.001055	20.754723
466.128333	-3.002300	3.789200	-11.375000	23.477523	0.001052	20.745271
467.130711	-3.004800	3.788600	-11.382000	23.434459	0.001052	20.737193
468.125979	-2.983400	3.788900	-11.302000	23.437094	0.001051	20.721815
469.128787	-2.990700	3.788400	-11.329000	23.407046	0.001054	20.731053
470.127353	-3.011800	3.786900	-11.405000	23.406002	0.001054	20.742335
471.151064	-2.996600	3.787900	-11.349000	23.393114	0.001053	20.741272
472.148110	-3.005900	3.788000	-11.384000	23.419760	0.001054	20.730520
473.141537	-2.991400	3.787000	-11.328000	23.427851	0.001053	20.731518
474.147677	-3.006600	3.786400	-11.383000	23.454243	0.001055	20.747541
475.130247	-3.014300	3.785600	-11.409000	23.478922	0.001055	20.739562
476.129734	-2.992800	3.785600	-11.329000	23.464633	0.001056	20.744679
477.150908	-3.004600	3.786400	-11.376000	23.503552	0.001055	20.740542
478.148844	-3.004700	3.785500	-11.374000	23.523166	0.001055	20.748824
479.145770	-3.015900	3.785000	-11.414000	23.543814	0.001055	20.716415
480.131390	-3.005700	3.785600	-11.377000	23.544214	0.001054	20.725351
481.131325	-3.007400	3.784500	-11.380000	23.542998	0.001056	20.742151
482.149667	-2.990800	3.785700	-11.321000	23.488454	0.001055	20.732520
483.160766	-2.990300	3.786100	-11.320000	23.502123	0.001055	20.744800
484.131903	-2.999700	3.783400	-11.349000	23.479817	0.001056	20.725285
485.135126	-2.987600	3.783400	-11.302000	23.480518	0.001057	20.743532
486.152254	-2.998300	3.783700	-11.344000	23.499316	0.001057	20.741512
487.157370	-3.008900	3.781600	-11.378000	23.527053	0.001057	20.724744
488.151777	-2.990100	3.783000	-11.311000	23.520340	0.001059	20.745517
489.167093	-3.004000	3.782900	-11.363000	23.540925	0.001058	20.738176
490.136658	-2.993000	3.781500	-11.317000	23.533308	0.001058	20.725798
491.136204	-3.030000	3.780700	-11.453000	23.561271	0.001059	20.724432
492.158128	-2.980200	3.782500	-11.272000	23.561075	0.001056	20.745099
493.161153	-2.987100	3.781400	-11.295000	23.589886	0.001057	20.694320
494.144252	-2.989400	3.780300	-11.300000	23.567982	0.001057	20.737798
495.135368	-2.995000	3.780900	-11.322000	23.599174	0.001059	20.719754
496.143233	-2.988600	3.780100	-11.296000	23.582644	0.001060	20.723098
497.137397	-3.019200	3.778000	-11.405000	23.586085	0.001059	20.730341
498.140983	-3.000200	3.780000	-11.340000	23.568266	0.001059	20.725754
499.169211	-3.001100	3.778900	-11.339000	23.590202	0.001062	20.725459
500.143126	-3.012200	3.778800	-11.381000	23.605166	0.001061	20.718649
501.142370	-3.003100	3.778400	-11.346000	23.588538	0.001061	20.712410
502.139373	-3.029200	3.777000	-11.440000	23.598626	0.001062	20.714462
503.141499	-3.015100	3.777700	-11.389000	23.598626	0.001062	20.724420
504.140627	-2.998700	3.778100	-11.327000	23.591220	0.001062	20.723634
505.143049	-3.000900	3.776700	-11.332000	23.589923	0.001061	20.702418
506.143481	-3.015500	3.775200	-11.383000	23.610497	0.001059	20.721622
507.165024	-3.016700	3.776000	-11.391000	23.627997	0.001062	20.717828
508.141936	-2.977100	3.777000	-11.244000	23.616547	0.001061	20.702556
509.141937	-3.002500	3.776500	-11.338000	23.637660	0.001060	20.700487
510.146090	-2.977200	3.777000	-11.242000	23.646443	0.001060	20.703128
511.144221	-2.992200	3.776100	-11.298000	23.633484	0.001060	20.714794
512.165695	-3.016900	3.775200	-11.389000	23.659374	0.001062	20.707558
513.157936	-2.992000	3.775500	-11.294000	23.660426	0.001062	20.710983
514.165130	-3.000400	3.775900	-11.327000	23.664339	0.001061	20.696414
515.165730	-2.990900	3.775700	-11.291000	23.669020	0.001060	20.721497
516.165281	-3.020600	3.773100	-11.395000	23.675200	0.001061	20.710622
517.146475	-2.970500	3.775400	-11.214000	23.687847	0.001060	20.719983
518.147803	-2.993300	3.773300	-11.293000	23.703055	0.001062	20.719108
519.182276	-3.005300	3.774300	-11.341000	23.689315	0.001063	20.721929
520.151235	-3.014000	3.772700	-11.368000	23.686705	0.001062	20.713148
521.149545	-2.988000	3.772100	-11.270000	23.678200	0.001062	20.703197
522.163013	-2.987900	3.772700	-11.271000	23.678151	0.001063	20.712158
523.165015	-3.004400	3.771600	-11.329000	23.676389	0.001064	20.702804
524.172949	-2.998000	3.771200	-11.305000	23.684853	0.001064	20.715084
525.155426	-2.977700	3.771300	-11.228000	23.669897	0.001063	20.705780
526.150733	-3.017000	3.771700	-11.378000	23.668226	0.001062	20.724020
527.178741	-3.004200	3.771200	-11.328000	23.677496	0.001063	20.716718
528.168374	-2.986400	3.770100	-11.258000	23.657608	0.001064	20.697252
529.148174	-2.997000	3.770800	-11.300000	23.638714	0.001064	20.697276
530.148913	-3.008100	3.770000	-11.339000	23.640613	0.001062	20.712932
531.154562	-3.005100	3.769600	-11.327000	23.656799	0.001063	20.713038
532.150649	-3.020700	3.768800	-11.383000	23.640393	0.001062	20.701331
533.169317	-3.012200	3.768600	-11.350000	23.655479	0.001062	20.703652
534.171356	-2.986500	3.769500	-11.257000	23.650104	0.001063	20.692100
535.153518	-2.979800	3.769600	-11.231000	23.691423	0.001063	20.681365
536.156457	-2.995700	3.768200	-11.287000	23.689318	0.001061	20.697274
537.174471	-3.010100	3.767700	-11.340000	23.679957	0.001061	20.695476
538.151904	-2.980000	3.768100	-11.227000	23.705153	0.001062	20.705564
539.153575	-2.987800	3.768500	-11.258000	23.705087	0.001064	20.691746
540.154284	-3.023600	3.766500	-11.387000	23.694731	0.001063	20.694166
541.161280	-3.025900	3.767000	-11.397000	23.708373	0.001064	20.699783
542.157218	-3.002300	3.766400	-11.307000	23.695334	0.001063	20.689555
543.177821	-2.991500	3.766500	-11.266000	23.699321	0.001062	20.683120
544.170485	-3.001500	3.766100	-11.302000	23.720741	0.001066	20.681361
545.175038	-3.012700	3.766100	-11.345000	23.723953	0.001064	20.698808
546.174567	-2.988700	3.765200	-11.252000	23.707229	0.001066	20.693420
547.160155	-2.990300	3.764500	-11.256000	23.722167	0.001064	20.688481
548.158556	-2.987800	3.765500	-11.250000	23.751692	0.001065	20.686315
549.156949	-2.985800	3.764400	-11.238000	23.751064	0.001062	20.667192
550.173100	-3.012700	3.764200	-11.339000	23.746318	0.001062	20.658639
551.176421	-2.982500	3.763300	-11.221000	23.741645	0.001062	20.679086
552.177721	-3.013100	3.762100	-11.334000	23.737470	0.001064	20.692919
553.157218	-2.992400	3.762800	-11.258000	23.750386	0.001065	20.673150
554.159088	-2.979200	3.763300	-11.211000	23.750166	0.001065	20.689052
555.160065	-2.973300	3.763500	-11.189000	23.758009	0.001064	20.675578
556.160711	-3.005700	3.761900	-11.306000	23.732307	0.001064	20.688217
557.162360	-2.999000	3.761500	-11.280000	23.706647	0.001065	20.659642
558.162691	-2.984400	3.762100	-11.226000	23.720582	0.001064	20.684996
559.160314	-2.983500	3.761100	-11.220000	23.751371	0.001065	20.693106
560.160858	-3.006500	3.761200	-11.306000	23.734435	0.001064	20.668536
561.160786	-3.024500	3.759600	-11.369000	23.742548	0.001066	20.667662
562.188082	-3.007500	3.759200	-11.304000	23.724030	0.001064	20.674701
563.160634	-3.001700	3.759300	-11.281000	23.730186	0.001066	20.682770
564.161450	-3.035200	3.758300	-11.404000	23.731703	0.001064	20.674333
565.168127	-2.992700	3.760000	-11.251000	23.760208	0.001066	20.678731
566.186692	-3.007800	3.759000	-11.305000	23.753790	0.001065	20.668502
567.189044	-3.005900	3.758800	-11.297000	23.768360	0.001066	20.674576
568.170900	-3.005300	3.759400	-11.297000	23.776074	0.001066	20.688476
569.181282	-2.995100	3.759200	-11.258000	23.789732	0.001066	20.686048
570.191033	-2.995900	3.759100	-11.262000	23.796335	0.001065	20.657104
571.163757	-3.022800	3.757100	-11.357000	23.803804	0.001067	20.677871
572.163991	-2.997500	3.757500	-11.262000	23.776505	0.001065	20.687011
573.164102	-3.015000	3.758200	-11.329000	23.789747	0.001066	20.673260
574.166533	-3.000500	3.756200	-11.269000	23.764976	0.001066	20.642731
575.162905	-3.010900	3.756700	-11.310000	23.748677	0.001066	20.684714
576.172446	-2.994000	3.756800	-11.247000	23.718768	0.001065	20.661837
577.165143	-2.985300	3.755800	-11.212000	23.742390	0.001066	20.669400
578.164980	-3.004600	3.755600	-11.283000	23.735141	0.001064	20.655493
579.169824	-3.008300	3.754300	-11.293000	23.733225	0.001065	20.646458
580.192990	-2.976300	3.754900	-11.174000	23.744632	0.001065	20.675442
581.182219	-2.971100	3.755400	-11.157000	23.758917	0.001064	20.661314
582.187095	-3.000300	3.755400	-11.267000	23.754930	0.001066	20.667274
583.185564	-2.998300	3.754300	-11.255000	23.759838	0.001065	20.664609
584.195714	-3.023200	3.753200	-11.345000	23.749491	0.001065	20.665614
585.186752	-3.005600	3.754200	-11.282000	23.750682	0.001064	20.657324
586.172544	-2.964200	3.754700	-11.130000	23.754538	0.001065	20.679211
587.166893	-2.982900	3.754000	-11.196000	23.748016	0.001065	20.659867
588.168927	-2.989300	3.754600	-11.222000	23.762480	0.001065	20.670103
589.170913	-3.024200	3.749600	-11.337000	23.735156	0.001064	20.655034
590.172110	-3.008900	3.752700	-11.290000	23.724524	0.001065	20.656702
591.169220	-3.002100	3.751400	-11.260000	23.722282	0.001065	20.674370
592.167653	-2.978200	3.751200	-11.170000	23.710164	0.001066	20.654633
593.167318	-2.992600	3.752300	-11.228000	23.733044	0.001063	20.659555
594.169400	-2.985200	3.752900	-11.201000	23.747134	0.001066	20.653766
595.170110	-3.008500	3.750600	-11.283000	23.734666	0.001064	20.666872
596.172079	-2.995300	3.751600	-11.236000	23.760897	0.001066	20.648125
597.169737	-2.975200	3.751600	-11.160000	23.760302	0.001065	20.661754
598.169713	-2.996400	3.750300	-11.237000	23.797392	0.001064	20.654845
599.184560	-2.969100	3.749100	-11.130000	23.776967	0.001061	20.644321
600.170638	-3.004100	3.749000	-11.261000	23.760937	0.001062	20.662865
601.171510	-2.994200	3.748800	-11.224000	23.751927	0.001064	20.658098
602.171777	-2.986600	3.750600	-11.201000	23.726267	0.001064	20.675047
603.175924	-3.008200	3.748800	-11.276000	23.740031	0.001062	20.662292
604.178002	-2.998300	3.747400	-11.235000	23.765046	0.001062	20.640430
605.174075	-3.015400	3.747100	-11.298000	23.782730	0.001065	20.659111
606.192830	-2.985500	3.747000	-11.186000	23.818646	0.001062	20.636798
607.172732	-3.012100	3.748000	-11.289000	23.852669	0.001062	20.645784
608.174194	-2.994400	3.747100	-11.220000	23.868698	0.001065	20.644786
609.173031	-3.005300	3.745600	-11.255000	23.891199	0.001062	20.660239
610.181138	-2.996000	3.746300	-11.222000	23.912159	0.001063	20.637632
611.176618	-3.021300	3.744700	-11.313000	23.907284	0.001062	20.653607
612.176976	-2.992800	3.744800	-11.207000	23.923238	0.001063	20.642104
613.176509	-2.984800	3.746100	-11.180000	23.951486	0.001063	20.663320
614.197416	-3.005700	3.744700	-11.255000	23.953858	0.001062	20.653369
615.194120	-2.999600	3.744400	-11.231000	23.963290	0.001064	20.641015
616.176189	-3.007600	3.744400	-11.260000	23.950320	0.001063	20.639389
617.203537	-3.011200	3.743700	-11.271000	23.963101	0.001064	20.647940
618.180713	-3.003900	3.744400	-11.246000	23.975819	0.001062	20.645520
619.178097	-3.017100	3.742800	-11.291000	23.993061	0.001064	20.650957
620.179941	-2.985100	3.744800	-11.177000	23.994511	0.001062	20.651463
621.179568	-2.995600	3.743300	-11.212000	24.016057	0.001061	20.644146
622.195012	-3.000300	3.744300	-11.233000	24.017221	0.001062	20.638675
623.205146	-2.988400	3.742800	-11.184000	23.985143	0.001063	20.672417
624.200499	-2.995200	3.741500	-11.206000	23.975410	0.001064	20.640367
625.180997	-3.014500	3.742700	-11.282000	23.939304	0.001062	20.661061
626.184136	-3.003600	3.741700	-11.238000	23.928037	0.001062	20.666359
627.208610	-2.989000	3.741300	-11.181000	23.909571	0.001062	20.642149
628.199303	-3.013700	3.741200	-11.273000	23.929154	0.001063	20.675066
629.199242	-2.984100	3.741400	-11.164000	23.948067	0.001064	20.635707
630.185849	-2.977100	3.739900	-11.133000	23.962284	0.001064	20.670830
631.200725	-2.996900	3.739900	-11.207000	23.947879	0.001062	20.678671
632.207498	-3.025400	3.738000	-11.307000	23.967101	0.001064	20.655745
633.184806	-2.992800	3.739200	-11.188000	23.993873	0.001061	20.662204
634.201140	-2.981500	3.740200	-11.150000	23.977471	0.001061	20.675629
635.186092	-3.003600	3.740000	-11.232000	23.991769	0.001063	20.669578
636.188441	-2.989000	3.738500	-11.173000	23.992658	0.001063	20.664779
637.184757	-3.000800	3.737800	-11.215000	24.017325	0.001061	20.666757
638.190896	-2.985300	3.738400	-11.159000	24.008773	0.001063	20.682839
639.186981	-3.009300	3.737500	-11.246000	24.029951	0.001062	20.627258
640.188228	-2.997400	3.738100	-11.202000	24.026617	0.001061	20.656635
641.191430	-3.006000	3.736800	-11.230000	24.011919	0.001062	20.665129
642.189782	-2.992600	3.737000	-11.182000	23.986811	0.001061	20.652276
643.208513	-2.999200	3.735900	-11.203000	23.978773	0.001061	20.669822
644.207020	-2.976400	3.736400	-11.120000	24.015310	0.001060	20.664262
645.188151	-3.019600	3.735700	-11.278000	24.012204	0.001061	20.651662
646.211268	-2.971500	3.736100	-11.101000	24.046025	0.001060	20.663297
647.195604	-3.029600	3.734200	-11.311000	24.036716	0.001060	20.676722
648.187150	-3.020800	3.735000	-11.282000	24.057575	0.001060	20.668717
649.203569	-3.020400	3.735100	-11.279000	24.092316	0.001062	20.685069
650.204965	-2.991400	3.735900	-11.175000	24.104331	0.001059	20.665823
651.204925	-2.989000	3.734800	-11.162000	24.078035	0.001060	20.666476
652.191039	-2.983000	3.733600	-11.136000	24.095258	0.001061	20.663835
653.204720	-2.984500	3.734600	-11.145000	24.103278	0.001059	20.679467
654.190451	-2.995000	3.733900	-11.183000	24.114747	0.001061	20.687177
655.190433	-3.032500	3.731800	-11.315000	24.152599	0.001059	20.672983
656.192198	-3.004500	3.733100	-11.216000	24.146625	0.001059	20.669836
657.191413	-3.000700	3.732200	-11.198000	24.159943	0.001059	20.674659
658.190711	-2.984700	3.732600	-11.140000	24.172242	0.001060	20.667080
659.189336	-3.024900	3.730400	-11.283000	24.180923	0.001060	20.669148
660.191066	-3.012400	3.731000	-11.239000	24.180083	0.001060	20.683480
661.191477	-3.000600	3.731000	-11.194000	24.162510	0.001057	20.662060
662.193253	-3.011200	3.730800	-11.233000	24.179536	0.001057	20.674397
663.195747	-2.986000	3.729800	-11.136000	24.161401	0.001057	20.644824
664.194802	-2.986000	3.730200	-11.138000	24.151050	0.001059	20.662893
665.217983	-2.989000	3.729600	-11.146000	24.127053	0.001057	20.671542
666.213325	-3.006100	3.729600	-11.209000	24.094082	0.001058	20.668820
667.224169	-2.991200	3.729900	-11.155000	24.071217	0.001058	20.683348
668.200393	-3.006900	3.729300	-11.213000	24.107099	0.001056	20.664805
669.214246	-2.998700	3.729600	-11.182000	24.087487	0.001058	20.678803
670.211439	-3.010800	3.728600	-11.224000	24.083036	0.001058	20.680029
671.215561	-3.010500	3.728300	-11.224000	24.089533	0.001057	20.669474
672.214997	-3.001500	3.728000	-11.188000	24.047561	0.001058	20.678589
673.206509	-2.994900	3.728400	-11.165000	24.078936	0.001057	20.672597
674.195452	-2.997200	3.727000	-11.170000	24.069562	0.001055	20.679791
675.206538	-2.978900	3.727400	-11.103000	24.096086	0.001057	20.677943
676.199415	-2.989900	3.727600	-11.144000	24.100047	0.001057	20.667216
677.196139	-3.006800	3.726200	-11.203000	24.100757	0.001058	20.678361
678.219394	-2.997900	3.727100	-11.172000	24.060677	0.001056	20.676570
679.225868	-3.020200	3.727000	-11.255000	24.069407	0.001057	20.685326
680.200552	-2.993400	3.726800	-11.155000	24.033727	0.001055	20.675147
681.195133	-2.989000	3.725600	-11.134000	24.048889	0.001058	20.678499
682.195972	-3.021800	3.723600	-11.251000	24.061818	0.001054	20.659221
683.199189	-3.025200	3.724500	-11.266000	24.077322	0.001054	20.677142
684.199400	-3.004800	3.724800	-11.191000	24.118974	0.001056	20.679088
685.200201	-2.994700	3.725000	-11.155000	24.124696	0.001056	20.675818
686.199773	-3.013000	3.723600	-11.219000	24.116929	0.001054	20.688891
687.201224	-2.996600	3.723000	-11.156000	24.139205	0.001054	20.682784
688.215958	-3.019200	3.723200	-11.241000	24.127810	0.001053	20.692693
689.224638	-3.008500	3.724100	-11.203000	24.131494	0.001054	20.683585
690.216226	-2.997100	3.724000	-11.161000	24.105965	0.001054	20.695914
691.221426	-2.992700	3.722600	-11.139000	24.101759	0.001055	20.673675
692.222752	-2.986600	3.722700	-11.117000	24.087510	0.001055	20.703010
693.222605	-2.990400	3.722700	-11.130000	24.068819	0.001055	20.684737
694.231549	-3.009500	3.720700	-11.197000	24.060513	0.001053	20.704383
695.201060	-3.020200	3.720100	-11.234000	24.066912	0.001053	20.704162
696.201461	-3.018800	3.721300	-11.233000	24.056184	0.001051	20.698619
697.202912	-3.004400	3.721600	-11.180000	24.070596	0.001054	20.692683
698.222032	-2.996700	3.721100	-11.150000	24.093639	0.001053	20.686870
699.204722	-3.022300	3.719700	-11.241000	24.048620	0.001053	20.698145
700.201327	-3.020300	3.719700	-11.233000	24.063952	0.001051	20.722533
701.204996	-2.998700	3.720000	-11.153000	24.071223	0.001053	20.699951
702.205365	-3.017200	3.718800	-11.219000	24.081803	0.001053	20.701079
703.205033	-3.024000	3.719100	-11.245000	24.112077	0.001052	20.687819
704.208536	-3.033800	3.717400	-11.277000	24.106355	0.001052	20.693934
705.206315	-3.018100	3.718600	-11.221000	24.112207	0.001052	20.692691
706.204409	-3.011400	3.718800	-11.198000	24.139660	0.001050	20.716907
707.205036	-3.007000	3.717800	-11.179000	24.173241	0.001053	20.717872
708.208690	-3.003700	3.716900	-11.163000	24.171154	0.001050	20.711511
709.206352	-3.004400	3.717500	-11.168000	24.152546	0.001050	20.710391
710.206544	-3.000000	3.717100	-11.150000	24.164095	0.001052	20.699215
711.209733	-3.004800	3.715900	-11.165000	24.173550	0.001051	20.695421
712.212245	-3.001000	3.716700	-11.152000	24.161357	0.001050	20.690778
713.206738	-3.022800	3.716400	-11.233000	24.137727	0.001050	20.705011
714.208001	-2.983600	3.717200	-11.088000	24.132894	0.001048	20.694473
715.213905	-2.984400	3.717100	-11.092000	24.173729	0.001050	20.707930
716.226406	-2.993000	3.715400	-11.120000	24.167037	0.001052	20.710701
717.207592	-3.023400	3.714700	-11.230000	24.151804	0.001050	20.703483
718.208401	-3.000900	3.715600	-11.149000	24.166663	0.001049	20.710800
719.211252	-3.013200	3.714000	-11.190000	24.177291	0.001051	20.733789
720.213582	-2.997500	3.713800	-11.130000	24.207171	0.001049	20.683623
721.218209	-2.984900	3.717100	-11.093000	24.233618	0.001050	20.712050
722.211820	-3.000000	3.715100	-11.144000	24.243447	0.001047	20.709107
723.210429	-3.005300	3.713400	-11.159000	24.260945	0.001047	20.710063
724.210725	-2.985800	3.713500	-11.087000	24.276047	0.001049	20.703400
725.209925	-2.952700	3.715600	-10.969000	24.271450	0.001049	20.704004
726.213423	-3.012500	3.712100	-11.182000	24.252632	0.001047	20.702672
727.212106	-3.008400	3.712100	-11.164000	24.270301	0.001048	20.724190
728.210730	-3.002000	3.712600	-11.144000	24.220373	0.001047	20.715835
729.231534	-2.980600	3.712200	-11.064000	24.229730	0.001048	20.711469
730.231978	-2.994800	3.711400	-11.114000	24.212565	0.001048	20.716063
731.232452	-3.000900	3.712200	-11.139000	24.202508	0.001046	20.728262
732.218572	-3.006900	3.712600	-11.162000	24.174201	0.001047	20.716464
733.213732	-3.028500	3.709800	-11.234000	24.175342	0.001046	20.722825
734.212700	-3.006700	3.709500	-11.152000	24.173336	0.001046	20.726503
735.217176	-3.015900	3.710200	-11.188000	24.164045	0.001046	20.710545
736.212885	-2.990800	3.711200	-11.098000	24.180941	0.001047	20.726544
737.214923	-3.017400	3.709400	-11.192000	24.167558	0.001048	20.719284
738.230907	-2.989400	3.711000	-11.092000	24.177135	0.001044	20.710872
739.218048	-3.017400	3.707900	-11.186000	24.183183	0.001048	20.708403
740.212489	-3.003100	3.709500	-11.138000	24.187820	0.001046	20.738186
741.212053	-2.989700	3.708300	-11.085000	24.185081	0.001047	20.717420
742.218437	-3.039900	3.708000	-11.271000	24.210437	0.001045	20.732896
743.214599	-3.002600	3.707200	-11.130000	24.195155	0.001044	20.722309
744.237857	-3.006800	3.707900	-11.148000	24.191871	0.001045	20.728972
745.235380	-3.023600	3.707500	-11.209000	24.205783	0.001043	20.722064
746.243831	-3.004500	3.707500	-11.137000	24.200885	0.001043	20.716202
747.235153	-3.009300	3.706400	-11.153000	24.206150	0.001042	20.753253
748.219025	-2.984700	3.706700	-11.062000	24.206680	0.001044	20.730076
749.233368	-3.023200	3.706600	-11.204000	24.227903	0.001042	20.719594
750.240100	-3.022000	3.705600	-11.198000	24.222223	0.001042	20.730967
751.235157	-3.006100	3.704900	-11.137000	24.219117	0.001041	20.737810
752.237103	-2.987700	3.706500	-11.072000	24.206452	0.001042	20.737908
753.224442	-2.996000	3.707200	-11.105000	24.194161	0.001041	20.722734
754.235675	-3.005900	3.704100	-11.131000	24.228621	0.001042	20.723159
755.217488	-3.001300	3.704800	-11.119000	24.230830	0.001042	20.720633
756.217257	-2.990900	3.705200	-11.081000	24.255989	0.001041	20.744448
757.244988	-3.007200	3.705300	-11.142000	24.269574	0.001041	20.739584
758.219654	-2.987100	3.704100	-11.063000	24.307389	0.001040	20.739110
759.237706	-2.990000	3.704500	-11.075000	24.294309	0.001042	20.739739
760.236928	-3.002900	3.704100	-11.122000	24.298311	0.001041	20.729054
761.246877	-2.986000	3.704400	-11.060000	24.295124	0.001040	20.750988
762.236701	-2.999900	3.703100	-11.108000	24.268930	0.001039	20.739886
763.237737	-3.007900	3.701300	-11.133000	24.283046	0.001039	20.757365
764.243829	-2.983300	3.703900	-11.048000	24.263192	0.001039	20.736501
765.244473	-3.012800	3.702400	-11.153000	24.238555	0.001040	20.760627
766.243482	-3.017000	3.701700	-11.167000	24.267594	0.001039	20.758934
767.240841	-3.014600	3.700600	-11.154000	24.265801	0.001038	20.759981
768.242700	-3.001300	3.700900	-11.106000	24.283567	0.001038	20.744611
769.225420	-2.988900	3.702500	-11.065000	24.263038	0.001037	20.742510
770.242004	-2.992800	3.701000	-11.076000	24.274439	0.001039	20.755844
771.240696	-2.999500	3.699900	-11.096000	24.284407	0.001037	20.751618
772.241536	-3.000400	3.699200	-11.097000	24.309491	0.001036	20.757814
773.250449	-2.988100	3.701000	-11.058000	24.322653	0.001039	20.746835
774.247860	-2.998400	3.699900	-11.093000	24.305816	0.001037	20.747014
775.250613	-2.999800	3.699900	-11.098000	24.280902	0.001036	20.750473
776.251220	-2.994300	3.700500	-11.079000	24.280242	0.001036	20.741275
777.226933	-3.004500	3.698500	-11.110000	24.303102	0.001036	20.761836
778.226755	-2.992700	3.699500	-11.070000	24.306834	0.001035	20.728121
779.228855	-2.995200	3.700300	-11.082000	24.310493	0.001035	20.758819
780.242085	-3.023500	3.698300	-11.181000	24.294944	0.001034	20.767403
781.227190	-3.009600	3.697600	-11.127000	24.308529	0.001036	20.760168
782.254755	-3.002300	3.698300	-11.102000	24.322815	0.001035	20.755532
783.247977	-2.990400	3.697400	-11.056000	24.322734	0.001034	20.755451
784.248035	-2.992000	3.697300	-11.062000	24.330794	0.001034	20.755476
785.250328	-2.995600	3.696900	-11.073000	24.347842	0.001034	20.759775
786.258524	-2.980000	3.698600	-11.021000	24.375525	0.001034	20.754355
787.251207	-3.012200	3.695700	-11.131000	24.411870	0.001035	20.749565
788.233249	-2.984700	3.696700	-11.032000	24.408757	0.001034	20.773469
789.232093	-3.003000	3.694600	-11.093000	24.439885	0.001033	20.748273
790.234632	-2.994200	3.696200	-11.067000	24.447846	0.001035	20.759579
791.233409	-2.979000	3.697100	-11.012000	24.436381	0.001034	20.758982
792.255740	-3.017400	3.694900	-11.148000	24.485133	0.001034	20.775652
793.247618	-3.021000	3.694900	-11.161000	24.461812	0.001033	20.760788
794.257348	-3.013700	3.694500	-11.133000	24.465112	0.001033	20.755565
795.259729	-3.007100	3.694900	-11.110000	24.474792	0.001033	20.757690
796.234810	-3.008100	3.693000	-11.108000	24.457730	0.001032	20.789410
797.232559	-2.993800	3.695100	-11.060000	24.444675	0.001034	20.787219
798.231530	-2.988000	3.695600	-11.040000	24.423106	0.001032	20.783123
799.234055	-3.027800	3.692600	-11.179000	24.426047	0.001031	20.773746
800.232979	-2.991900	3.693800	-11.051000	24.467214	0.001031	20.782330
801.258301	-3.010000	3.692800	-11.113000	24.448008	0.001031	20.793407
802.233194	-2.991500	3.693200	-11.047000	24.472836	0.001030	20.783229
803.236107	-3.003200	3.691800	-11.086000	24.482370	0.001029	20.775724
804.258974	-3.004300	3.692500	-11.093000	24.480178	0.001031	20.771628
805.257764	-2.979700	3.691400	-10.997000	24.471377	0.001030	20.785084
806.236168	-2.988000	3.692900	-11.032000	24.482370	0.001030	20.781888
807.235319	-3.005900	3.691100	-11.094000	24.497370	0.001031	20.767540
808.235765	-3.004200	3.691200	-11.089000	24.480829	0.001030	20.775127
809.234968	-2.994200	3.691900	-11.054000	24.494812	0.001029	20.784888
810.234521	-2.979100	3.691800	-10.997000	24.514115	0.001027	20.781021
811.255580	-2.999500	3.689700	-11.066000	24.501281	0.001029	20.768619
812.255892	-2.998600	3.690100	-11.064000	24.514986	0.001028	20.775732
813.257947	-2.981700	3.690700	-11.003000	24.528023	0.001027	20.784070
814.254578	-3.007800	3.689600	-11.097000	24.535894	0.001028	20.784380
815.236878	-2.998200	3.689100	-11.060000	24.534492	0.001028	20.785820
816.235642	-3.001600	3.688800	-11.070000	24.500368	0.001028	20.778609
817.240292	-3.007600	3.689000	-11.093000	24.476804	0.001026	20.789581
818.237848	-2.992300	3.688900	-11.037000	24.449579	0.001029	20.772698
819.241700	-3.001000	3.688500	-11.067000	24.459798	0.001028	20.789114
820.238700	-2.992100	3.688900	-11.037000	24.463733	0.001027	20.808709
821.238150	-2.979100	3.688200	-10.986000	24.489124	0.001026	20.782501
822.241333	-2.994600	3.686500	-11.039000	24.470056	0.001026	20.778069
823.243854	-3.025600	3.686200	-11.151000	24.520046	0.001027	20.800723
824.242390	-3.004800	3.687500	-11.079000	24.516167	0.001026	20.814849
825.238934	-2.999000	3.686700	-11.055000	24.491592	0.001025	20.783555
826.238981	-2.958100	3.688000	-10.907000	24.494355	0.001024	20.795809
827.241257	-2.995500	3.686000	-11.040000	24.503880	0.001023	20.801573
828.242797	-2.991300	3.687100	-11.028000	24.511059	0.001023	20.798344
829.242106	-2.992300	3.685700	-11.027000	24.499977	0.001021	20.799553
830.244197	-2.985700	3.686600	-11.006000	24.522213	0.001025	20.810483
831.241109	-2.999400	3.684400	-11.050000	24.510464	0.001025	20.791109
832.241247	-2.995600	3.684600	-11.036000	24.529546	0.001023	20.803142
833.241078	-2.990500	3.686200	-11.023000	24.530190	0.001023	20.786719
834.248945	-2.994800	3.684500	-11.033000	24.533824	0.001022	20.819288
835.243906	-3.001100	3.683900	-11.055000	24.522010	0.001022	20.792261
836.268083	-2.997900	3.684400	-11.044000	24.507131	0.001020	20.797723
837.259550	-3.020000	3.683900	-11.125000	24.531689	0.001022	20.813353
838.256478	-2.977900	3.682900	-10.966000	24.502014	0.001020	20.797330
839.256717	-2.999700	3.681800	-11.043000	24.518880	0.001021	20.801450
840.264752	-2.977700	3.683000	-10.966000	24.503586	0.001021	20.817873
841.242861	-2.994300	3.682800	-11.027000	24.542436	0.001020	20.818446
842.264904	-3.007400	3.682100	-11.072000	24.544327	0.001019	20.820816
843.267049	-3.002200	3.682800	-11.055000	24.553851	0.001020	20.797657
844.262221	-3.013300	3.680800	-11.091000	24.556337	0.001020	20.813426
845.262632	-2.983200	3.679900	-10.977000	24.602606	0.001018	20.802006
846.267026	-3.005300	3.681100	-11.061000	24.622722	0.001019	20.813655
847.262402	-3.002200	3.680200	-11.048000	24.624922	0.001018	20.804956
848.264921	-3.003200	3.679500	-11.049000	24.626388	0.001019	20.827290
849.264232	-3.001100	3.680200	-11.043000	24.632034	0.001019	20.819205
850.258143	-2.997500	3.680200	-11.030000	24.594108	0.001018	20.814815
851.248702	-3.002700	3.680300	-11.049000	24.567645	0.001018	20.804384
852.245708	-2.997600	3.679700	-11.030000	24.561901	0.001018	20.825647
853.245675	-3.013100	3.679300	-11.085000	24.565787	0.001016	20.812477
854.248728	-3.008200	3.679700	-11.069000	24.547878	0.001017	20.822483
855.244952	-3.007700	3.676800	-11.057000	24.588494	0.001016	20.809657
856.244601	-3.037200	3.676900	-11.167000	24.602125	0.001015	20.799626
857.246942	-2.998700	3.678000	-11.027000	24.599020	0.001017	20.816899
858.270479	-3.010100	3.678400	-11.070000	24.616554	0.001017	20.804621
859.247602	-2.992500	3.678500	-11.007000	24.618322	0.001013	20.800230
860.250360	-3.006000	3.676700	-11.051000	24.639121	0.001014	20.805928
861.247138	-2.997500	3.677900	-11.023000	24.658764	0.001015	20.815681
862.249255	-2.981100	3.678700	-10.965000	24.647700	0.001013	20.813114
863.249990	-3.004100	3.676500	-11.043000	24.619926	0.001015	20.802789
864.253157	-2.991900	3.676800	-11.000000	24.581185	0.001012	20.813702
865.255122	-2.987400	3.676100	-10.981000	24.624879	0.001013	20.780258
866.253808	-3.009700	3.676100	-11.063000	24.595459	0.001012	20.782506
867.253637	-2.983100	3.675500	-10.963000	24.593993	0.001015	20.799527
868.271936	-2.999900	3.675400	-11.025000	24.603598	0.001014	20.797785
869.274829	-3.000500	3.676000	-11.029000	24.592803	0.001014	20.796910
870.269765	-2.992700	3.675400	-10.999000	24.600241	0.001012	20.786830
871.279384	-3.015800	3.675000	-11.082000	24.570487	0.001012	20.796330
872.276273	-2.980400	3.675200	-10.952000	24.583205	0.001011	20.787754
873.273233	-3.014000	3.673500	-11.071000	24.567725	0.001011	20.790240
874.270397	-3.011600	3.673500	-11.062000	24.554175	0.001011	20.781386
875.252817	-3.001400	3.672900	-11.022000	24.558102	0.001010	20.814724
876.254116	-3.027800	3.671600	-11.115000	24.537488	0.001009	20.809688
877.253717	-2.985600	3.672500	-10.963000	24.563048	0.001011	20.781754
878.294086	-3.009700	3.672500	-11.052000	24.544471	0.001010	20.781607
879.268339	-3.016500	3.671400	-11.074000	24.576060	0.001009	20.797180
880.254315	-2.987200	3.673100	-10.971000	24.528061	0.001010	20.768935
881.266804	-3.008200	3.671100	-11.043000	24.537603	0.001007	20.794156
882.254381	-2.991900	3.671700	-10.984000	24.522186	0.001005	20.783430
883.257846	-3.003700	3.671700	-11.027000	24.513924	0.001008	20.761864
884.256896	-3.024900	3.670900	-11.103000	24.523898	0.001006	20.794630
885.255533	-2.973200	3.672700	-10.919000	24.541432	0.001007	20.775238
886.261096	-3.007400	3.670600	-11.038000	24.540984	0.001006	20.786169
887.258222	-3.031900	3.669200	-11.123000	24.533724	0.001006	20.779359
888.260665	-3.017600	3.669300	-11.071000	24.519302	0.001005	20.793812
889.275793	-2.981800	3.670800	-10.945000	24.525543	0.001005	20.780634
890.279639	-2.975100	3.669600	-10.916000	24.537032	0.001007	20.760392
891.278884	-3.006500	3.669100	-11.030000	24.552659	0.001006	20.780814
892.261609	-2.979000	3.670900	-10.934000	24.588721	0.001004	20.769107
893.259176	-3.026400	3.668900	-11.103000	24.600983	0.001004	20.773824
894.260919	-2.989200	3.669300	-10.968000	24.623437	0.001004	20.786872
895.260812	-2.987900	3.669600	-10.963000	24.654535	0.001005	20.766392
896.261858	-2.978300	3.669000	-10.927000	24.661378	0.001005	20.778949
897.262422	-2.989200	3.668400	-10.964000	24.691301	0.001003	20.782898
898.259620	-2.985600	3.668400	-10.952000	24.680254	0.001004	20.778925
899.260198	-3.002400	3.667300	-11.010000	24.675179	0.001003	20.760555
900.259870	-3.004100	3.667000	-11.015000	24.699855	0.001001	20.761135
901.261064	-3.013300	3.665200	-11.043000	24.677101	0.001001	20.762958
902.263127	-2.978800	3.667300	-10.923000	24.720768	0.001002	20.750352
903.286290	-2.987100	3.666100	-10.951000	24.689012	0.000999	20.748831
904.277725	-2.992900	3.666300	-10.971000	24.654330	0.001002	20.795111
905.261625	-2.983300	3.666800	-10.937000	24.655495	0.000999	20.755028
906.280499	-3.002600	3.666200	-11.007000	24.663186	0.001001	20.752313
907.261702	-2.966400	3.666200	-10.872000	24.670648	0.001000	20.772130
908.265726	-3.002800	3.663900	-11.000000	24.668839	0.001000	20.766522
909.261087	-2.979500	3.665200	-10.920000	24.684205	0.001000	20.755861
910.293319	-2.997600	3.664400	-10.983000	24.695276	0.001001	20.756066
911.265791	-3.008400	3.663500	-11.020000	24.679691	0.000999	20.769824
912.262059	-2.996000	3.662900	-10.973000	24.679894	0.000999	20.769080
913.299793	-2.977500	3.664900	-10.910000	24.700905	0.000999	20.746541
914.282568	-2.999000	3.662300	-10.982000	24.733491	0.000997	20.760275
915.291286	-2.997600	3.662400	-10.977000	24.697980	0.000999	20.733174
916.283561	-3.009500	3.662300	-11.020000	24.694444	0.000996	20.742428
917.288150	-3.012300	3.662300	-11.031000	24.648446	0.000998	20.764550
918.282260	-3.013200	3.662300	-11.034000	24.670403	0.000999	20.760978
919.280485	-2.994800	3.663400	-10.970000	24.657872	0.000998	20.758362
920.290482	-2.994500	3.661700	-10.964000	24.691226	0.000996	20.730663
921.288765	-2.986800	3.662000	-10.936000	24.679518	0.000995	20.762065
922.264955	-2.976200	3.662000	-10.897000	24.697743	0.000996	20.748584
923.264831	-2.999200	3.660500	-10.978000	24.682533	0.000997	20.745174
924.269053	-3.002300	3.660500	-10.989000	24.711584	0.000994	20.751093
925.265184	-3.013100	3.659800	-11.026000	24.711038	0.000997	20.759555
926.268978	-3.005900	3.659700	-10.999000	24.700251	0.000997	20.740669
927.266349	-3.000400	3.659000	-10.978000	24.721734	0.000995	20.748477
928.295949	-2.976100	3.659700	-10.891000	24.748796	0.000994	20.761410
929.268979	-3.005200	3.659400	-10.996000	24.774783	0.000994	20.739598
930.267498	-3.003000	3.659200	-10.987000	24.784061	0.000994	20.750332
931.283496	-2.995800	3.658800	-10.960000	24.761292	0.000994	20.750716
932.286705	-3.000100	3.659700	-10.979000	24.741497	0.000993	20.718521
933.267133	-3.011400	3.656800	-11.012000	24.726100	0.000994	20.739581
934.266630	-3.004100	3.657800	-10.987000	24.705937	0.000992	20.751591
935.270723	-3.003700	3.658500	-10.988000	24.711509	0.000993	20.741535
936.271042	-3.010900	3.658000	-11.012000	24.722931	0.000994	20.737349
937.267878	-3.010600	3.656700	-11.007000	24.704332	0.000992	20.742867
938.284880	-3.012200	3.656800	-11.014000	24.695330	0.000993	20.738101
939.287499	-2.993700	3.657400	-10.948000	24.716299	0.000992	20.725952
940.272339	-2.998800	3.657500	-10.966000	24.731997	0.000989	20.724635
941.269732	-2.984300	3.656400	-10.909000	24.713170	0.000992	20.738934
942.270484	-3.009700	3.656900	-11.005000	24.716853	0.000990	20.729353
943.270010	-2.988900	3.655500	-10.924000	24.713350	0.000991	20.731527
944.270462	-2.992500	3.655300	-10.938000	24.709993	0.000989	20.744281
945.271728	-3.002900	3.655300	-10.976000	24.701610	0.000988	20.723066
946.270230	-3.013000	3.653800	-11.008000	24.706270	0.000988	20.732484
947.270443	-3.000600	3.655100	-10.964000	24.726025	0.000988	20.728600
948.272882	-2.995300	3.654000	-10.944000	24.743304	0.000987	20.734560
949.271427	-3.011600	3.653000	-11.000000	24.777029	0.000986	20.742326
950.277601	-2.991400	3.655300	-10.934000	24.771661	0.000986	20.737887
951.272498	-2.998400	3.655500	-10.960000	24.765021	0.000986	20.735966
952.272721	-2.996500	3.653900	-10.947000	24.784369	0.000986	20.733096
953.273216	-2.995900	3.654200	-10.947000	24.776508	0.000987	20.718568
954.271883	-2.999400	3.653100	-10.956000	24.796612	0.000986	20.734478
955.273489	-3.002400	3.651600	-10.962000	24.776198	0.000984	20.732483
956.272780	-3.016800	3.651700	-11.014000	24.775806	0.000986	20.727348
957.272118	-3.003000	3.652100	-10.967000	24.792734	0.000984	20.731534
958.276619	-2.986100	3.652500	-10.906000	24.808456	0.000986	20.719810
959.273583	-2.986000	3.651500	-10.903000	24.772198	0.000984	20.727520
960.273920	-3.024200	3.649800	-11.036000	24.746692	0.000985	20.722786
961.279376	-3.008600	3.650100	-10.980000	24.763978	0.000984	20.732073
962.274914	-2.993600	3.651600	-10.930000	24.784148	0.000982	20.733823
963.274335	-3.003700	3.651200	-10.966000	24.795707	0.000982	20.718396
964.274237	-2.982100	3.651500	-10.889000	24.803103	0.000982	20.729138
965.274977	-2.988700	3.649500	-10.907000	24.820210	0.000982	20.727340
966.276081	-3.003200	3.650300	-10.961000	24.846870	0.000981	20.713792
967.288826	-3.004500	3.649300	-10.964000	24.839564	0.000979	20.721159
968.296093	-2.974400	3.649900	-10.854000	24.834318	0.000980	20.712574
969.289814	-3.007100	3.647800	-10.968000	24.820967	0.000980	20.700122
970.291939	-2.999600	3.647800	-10.940000	24.828933	0.000979	20.719973
971.295422	-3.009700	3.648600	-10.981000	24.836207	0.000980	20.716842
972.275076	-3.015500	3.646700	-10.996000	24.832321	0.000977	20.727167
973.273914	-2.992300	3.648100	-10.916000	24.800447	0.000978	20.705608
974.288551	-3.004700	3.648500	-10.962000	24.799803	0.000977	20.713497
975.292937	-3.003800	3.647100	-10.953000	24.793539	0.000977	20.729497
976.295253	-2.985400	3.647800	-10.889000	24.805823	0.000976	20.716694
977.282463	-2.979800	3.647300	-10.867000	24.839228	0.000976	20.711339
978.275198	-2.985600	3.645900	-10.884000	24.853907	0.000976	20.714690
979.276866	-3.010600	3.645700	-10.975000	24.861588	0.000976	20.726193
980.278182	-3.018000	3.644100	-10.997000	24.843342	0.000974	20.685119
981.277854	-3.004200	3.645000	-10.950000	24.819051	0.000977	20.699148
982.300529	-3.015600	3.644100	-10.988000	24.801423	0.000974	20.737884
983.310661	-3.003000	3.644400	-10.943000	24.837810	0.000972	20.702802
984.280237	-2.987100	3.644800	-10.886000	24.840156	0.000975	20.698518
985.296703	-2.999100	3.645900	-10.933000	24.810123	0.000974	20.705361
986.301385	-2.997000	3.644900	-10.922000	24.824867	0.000973	20.692182
987.281558	-2.991100	3.644100	-10.899000	24.739284	0.000972	20.693539
988.288126	-3.019300	3.642000	-10.995000	24.773799	0.000974	20.695934
989.281786	-2.990600	3.642900	-10.894000	24.759836	0.000973	20.712269
990.284069	-3.004300	3.642800	-10.943000	24.766500	0.000974	20.714689
991.280896	-2.995700	3.642100	-10.910000	24.785431	0.000973	20.715196
992.281732	-3.010500	3.642000	-10.962000	24.804575	0.000972	20.705009
993.284718	-2.998400	3.642400	-10.920000	24.804615	0.000971	20.712162
994.284564	-2.974900	3.643000	-10.836000	24.822194	0.000970	20.723167
995.302837	-3.000400	3.641500	-10.923000	24.837614	0.000969	20.699286
996.300149	-2.994000	3.642900	-10.905000	24.836294	0.000968	20.700806
997.301849	-2.997300	3.641300	-10.913000	24.824344	0.000970	20.706832
998.312745	-3.013800	3.641100	-10.972000	24.832261	0.000967	20.699130
999.319777	-2.972300	3.640900	-10.821000	24.841295	0.000967	20.703455
1000.311747	-3.008100	3.641200	-10.952000	24.838762	0.000969	20.691902
1001.299341	-3.019100	3.638400	-10.983000	24.846500	0.000967	20.689711
1002.298821	-3.001400	3.639800	-10.923000	24.864998	0.000967	20.704959
1003.307600	-3.003400	3.638100	-10.926000	24.872101	0.000965	20.695965
1004.308624	-3.009100	3.639200	-10.950000	24.883586	0.000968	20.691845
1005.304553	-2.983300	3.640600	-10.859000	24.894509	0.000964	20.696644
1006.305943	-2.991500	3.638600	-10.883000	24.898687	0.000964	20.675705
1007.285359	-2.994700	3.640000	-10.899000	24.908771	0.000965	20.697682
1008.286660	-3.001200	3.637200	-10.914000	24.859605	0.000965	20.691485
1009.287661	-2.978600	3.639000	-10.838000	24.859988	0.000963	20.691395
1010.288477	-3.020700	3.636400	-10.983000	24.834012	0.000964	20.673383
1011.285481	-2.996200	3.637400	-10.897000	24.847419	0.000966	20.693953
1012.286612	-3.019100	3.635900	-10.976000	24.838247	0.000964	20.692809
1013.285771	-2.996500	3.635800	-10.893000	24.850189	0.000964	20.695785
1014.287188	-3.004600	3.635800	-10.922000	24.847207	0.000961	20.672876
1015.289724	-3.000500	3.636000	-10.908000	24.832008	0.000963	20.684175
1016.289749	-3.025200	3.635100	-10.996000	24.817695	0.000961	20.704426
1017.291144	-3.019400	3.634000	-10.971000	24.821296	0.000961	20.684804
1018.288336	-2.988500	3.635000	-10.861000	24.845252	0.000961	20.689881
1019.289071	-3.007700	3.634700	-10.931000	24.885735	0.000960	20.673611
1020.316156	-2.979300	3.634300	-10.827000	24.903093	0.000961	20.682024
1021.304015	-3.000300	3.634700	-10.904000	24.927854	0.000962	20.684117
1022.314141	-2.989600	3.635800	-10.868000	24.946131	0.000960	20.671641
1023.306669	-3.000300	3.634300	-10.903000	24.959138	0.000958	20.669523
1024.309453	-2.999900	3.632900	-10.897000	24.945259	0.000959	20.684992
1025.289226	-2.994600	3.633200	-10.878000	24.967991	0.000961	20.671772
1026.294030	-2.988300	3.634600	-10.861000	24.976861	0.000957	20.687314
1027.292363	-2.998000	3.633100	-10.891000	24.971551	0.000960	20.676767
1028.292366	-3.006800	3.632200	-10.921000	24.963569	0.000959	20.690094
1029.294100	-3.000300	3.632200	-10.897000	24.946677	0.000957	20.671240
1030.291202	-2.990900	3.631300	-10.860000	24.891070	0.000958	20.679441
1031.295537	-2.992400	3.631500	-10.867000	24.870373	0.000957	20.665779
1032.292483	-3.014500	3.632500	-10.949000	24.888504	0.000957	20.677339
1033.295975	-3.002700	3.631500	-10.903000	24.863221	0.000956	20.666187
1034.292264	-3.004900	3.632000	-10.912000	24.863164	0.000958	20.671821
1035.291741	-3.005500	3.630400	-10.910000	24.879064	0.000956	20.658379
1036.291302	-2.983600	3.629800	-10.829000	24.898181	0.000956	20.676620
1037.292805	-2.999400	3.629700	-10.886000	24.906660	0.000955	20.662843
1038.290455	-3.019500	3.630300	-10.959000	24.924441	0.000954	20.672156
1039.290569	-2.992300	3.629800	-10.860000	24.946497	0.000954	20.650669
1040.307985	-2.995500	3.629100	-10.870000	24.954056	0.000955	20.690028
1041.291054	-2.988900	3.629700	-10.847000	24.981560	0.000951	20.674960
1042.291121	-3.010200	3.628300	-10.920000	24.977301	0.000953	20.662623
1043.290868	-3.011400	3.628600	-10.925000	24.941130	0.000953	20.681795
1044.295116	-3.017400	3.629200	-10.949000	24.926379	0.000953	20.671731
1045.291529	-2.995400	3.628400	-10.868000	24.889930	0.000952	20.673080
1046.291177	-2.996100	3.626700	-10.866000	24.853829	0.000951	20.680945
1047.293477	-2.988400	3.626900	-10.837000	24.832602	0.000950	20.675287
1048.295166	-3.014000	3.626800	-10.930000	24.829816	0.000949	20.672017
1049.291269	-3.002300	3.625500	-10.882000	24.807855	0.000951	20.662304
1050.295940	-3.021300	3.625800	-10.952000	24.792239	0.000951	20.660857
1051.294960	-3.016300	3.626600	-10.938000	24.803782	0.000949	20.665803
1052.296961	-2.993400	3.624800	-10.848000	24.790707	0.000947	20.650784
1053.318468	-2.982800	3.627300	-10.818000	24.776248	0.000950	20.650972
1054.320404	-2.978900	3.627300	-10.804000	24.789762	0.000949	20.661216
1055.311099	-2.994700	3.626000	-10.858000	24.786724	0.000947	20.659589
1056.296097	-2.973500	3.625300	-10.778000	24.840283	0.000949	20.670668
1057.295280	-2.994200	3.624200	-10.851000	24.887706	0.000949	20.666580
1058.294357	-3.009000	3.623200	-10.901000	24.879056	0.000946	20.667855
1059.295588	-2.982400	3.623400	-10.805000	24.910561	0.000947	20.670553
1060.295250	-3.006700	3.622900	-10.892000	24.928790	0.000947	20.691222
1061.293894	-3.011100	3.622400	-10.906000	24.947759	0.000943	20.650514
1062.296136	-2.950700	3.624100	-10.693000	24.952361	0.000943	20.656556
1063.295808	-2.979800	3.621700	-10.791000	24.941154	0.000944	20.657635
1064.293666	-3.005000	3.622300	-10.884000	24.937220	0.000943	20.653686
1065.295805	-2.997000	3.622100	-10.854000	24.925019	0.000943	20.675107
1066.294841	-2.999700	3.622800	-10.866000	24.914055	0.000942	20.663154
1067.294122	-3.010500	3.621500	-10.900000	24.884635	0.000942	20.649271
1068.297832	-3.001000	3.620700	-10.865000	24.899036	0.000945	20.659932
1069.296278	-2.997600	3.619900	-10.850000	24.900551	0.000943	20.663350
1070.298133	-2.984200	3.621700	-10.807000	24.923976	0.000942	20.669318
1071.314644	-2.978300	3.620600	-10.782000	24.936405	0.000943	20.642436
1072.316669	-2.994900	3.621600	-10.845000	24.934906	0.000940	20.657528
1073.315311	-2.994200	3.619900	-10.837000	24.969164	0.000940	20.662516
1074.321896	-2.995400	3.620100	-10.841000	24.922722	0.000941	20.644349
1075.316385	-2.990000	3.618000	-10.817000	24.915489	0.000940	20.646098
1076.302015	-2.984200	3.620500	-10.803000	24.906733	0.000939	20.675246
1077.324328	-2.982600	3.619400	-10.794000	24.901544	0.000938	20.659605
1078.318566	-3.008000	3.619200	-10.885000	24.905674	0.000936	20.655215
1079.320214	-2.983600	3.619600	-10.799000	24.917867	0.000940	20.665557
1080.327991	-3.015600	3.616600	-10.905000	24.940640	0.000936	20.642419
1081.325502	-2.995200	3.619100	-10.838000	24.940689	0.000939	20.656694
1082.303682	-3.008600	3.617300	-10.881000	24.962021	0.000936	20.673365
1083.303673	-2.988000	3.617400	-10.808000	25.008917	0.000936	20.659744
1084.305366	-2.994300	3.617400	-10.830000	25.022518	0.000935	20.640203
1085.300984	-2.993800	3.617100	-10.828000	25.029383	0.000935	20.667487
1086.303557	-3.002000	3.615700	-10.853000	25.017159	0.000935	20.642411
1087.324440	-2.993200	3.614000	-10.817000	24.974197	0.000933	20.637219
1088.322541	-2.979200	3.616200	-10.773000	24.962542	0.000934	20.665353
1089.319287	-2.998200	3.615100	-10.837000	24.995161	0.000934	20.666325
1090.322981	-3.019100	3.614600	-10.912000	25.003175	0.000934	20.657773
1091.320272	-3.004900	3.615500	-10.863000	24.998728	0.000934	20.657103
1092.310519	-3.001500	3.613600	-10.845000	24.995096	0.000931	20.651085
1093.307807	-2.991300	3.615000	-10.812000	24.949103	0.000932	20.640955
1094.302536	-2.995200	3.614400	-10.825000	24.958860	0.000932	20.656915
1095.306326	-3.009900	3.612100	-10.871000	24.987032	0.000932	20.653424
1096.322404	-3.009300	3.612500	-10.870000	25.000243	0.000931	20.656252
1097.306706	-2.988700	3.613200	-10.798000	24.975394	0.000930	20.646008
1098.309604	-2.997700	3.613200	-10.830000	24.984776	0.000931	20.634087
1099.303722	-3.005400	3.611100	-10.851000	24.991593	0.000931	20.657528
1100.320263	-3.012300	3.611200	-10.877000	25.013241	0.000930	20.664559
1101.325757	-3.014100	3.612100	-10.886000	24.987586	0.000931	20.652557
1102.322033	-3.000800	3.611700	-10.836000	24.984882	0.000927	20.668811
1103.307231	-3.012800	3.611500	-10.878000	24.982797	0.000928	20.656759
1104.328001	-3.004100	3.609900	-10.844000	24.979344	0.000926	20.660880
1105.304710	-2.999700	3.609900	-10.827000	24.971020	0.000926	20.668173
1106.313459	-3.020800	3.608700	-10.901000	25.005251	0.000926	20.639467
1107.304994	-3.005100	3.610300	-10.848000	25.028031	0.000926	20.647635
1108.306512	-3.003000	3.609400	-10.838000	25.037804	0.000925	20.657920
1109.324961	-2.998000	3.610900	-10.824000	25.064924	0.000925	20.662859
1110.323449	-2.978300	3.609400	-10.749000	25.058832	0.000927	20.655320
1111.326272	-2.985500	3.609100	-10.774000	25.060233	0.000927	20.661943
1112.305669	-2.990600	3.607900	-10.788000	25.068581	0.000924	20.661787
1113.306741	-2.987000	3.607600	-10.775000	25.089013	0.000924	20.670920
1114.319908	-3.027000	3.606900	-10.918000	25.103509	0.000923	20.648011
1115.325715	-3.023500	3.607100	-10.905000	25.124398	0.000921	20.650962
1116.306065	-3.010600	3.606300	-10.856000	25.120619	0.000922	20.648591
1117.308394	-3.021300	3.605700	-10.893000	25.134455	0.000922	20.663431
1118.306079	-2.998100	3.606000	-10.810000	25.131662	0.000921	20.657781
1119.304517	-2.996800	3.605600	-10.805000	25.140481	0.000923	20.689397
1120.308690	-2.999900	3.605600	-10.815000	25.149659	0.000921	20.662572
1121.307458	-2.984800	3.606300	-10.764000	25.151222	0.000921	20.664142
1122.310256	-2.995600	3.605400	-10.800000	25.151817	0.000922	20.660471
1123.306111	-2.977700	3.604700	-10.733000	25.140334	0.000920	20.661747
1124.307493	-3.003200	3.606500	-10.830000	25.148787	0.000921	20.665491
1125.313552	-2.988700	3.605600	-10.773000	25.122191	0.000919	20.659179
1126.312048	-2.997200	3.604100	-10.801000	25.112598	0.000920	20.656187
1127.308804	-3.016800	3.603500	-10.870000	25.113868	0.000919	20.666472
1128.326368	-3.002000	3.603200	-10.815000	25.122769	0.000919	20.664976
1129.330640	-2.984400	3.603400	-10.752000	25.124943	0.000917	20.691818
1130.312900	-3.005200	3.602300	-10.824000	25.102288	0.000916	20.689937
1131.313144	-3.001300	3.602500	-10.811000	25.072970	0.000915	20.678998
1132.315501	-2.987200	3.603100	-10.761000	25.038236	0.000913	20.669260
1133.334178	-2.991200	3.600800	-10.769000	25.058726	0.000916	20.678450
1134.311837	-3.008600	3.602500	-10.835000	25.043261	0.000917	20.666718
1135.315794	-2.991000	3.600500	-10.768000	25.047496	0.000913	20.674288
1136.312185	-2.994900	3.601100	-10.783000	25.052838	0.000914	20.678229
1137.317132	-3.000100	3.600000	-10.800000	25.071748	0.000912	20.685359
1138.316596	-3.012200	3.599900	-10.842000	25.045403	0.000913	20.682620
1139.313444	-3.027000	3.600600	-10.898000	25.034066	0.000913	20.682145
1140.318026	-2.986600	3.599500	-10.749000	25.026402	0.000911	20.661174
1141.312597	-3.014000	3.598400	-10.844000	25.070983	0.000912	20.662777
1142.313551	-2.996500	3.599700	-10.785000	25.057790	0.000910	20.695055
1143.328144	-3.002800	3.598000	-10.801000	25.062106	0.000908	20.660504
1144.331963	-2.998400	3.597500	-10.785000	25.075706	0.000910	20.676054
1145.333059	-3.003100	3.599100	-10.807000	25.079192	0.000908	20.670070
1146.336082	-3.011100	3.598000	-10.833000	25.083785	0.000908	20.692226
1147.333207	-2.995900	3.598700	-10.780000	25.093435	0.000910	20.687689
1148.331266	-3.019400	3.596200	-10.857000	25.099250	0.000909	20.684516
1149.332461	-2.971900	3.598000	-10.691000	25.111441	0.000909	20.663562
1150.333566	-2.992600	3.597900	-10.766000	25.125839	0.000907	20.670429
1151.333526	-2.978800	3.597300	-10.715000	25.127891	0.000908	20.672964
1152.314500	-2.972600	3.596800	-10.689000	25.116515	0.000908	20.676242
1153.338140	-2.978200	3.595400	-10.707000	25.103338	0.000907	20.711856
1154.341174	-2.995200	3.594900	-10.766000	25.087425	0.000905	20.693036
1155.315917	-2.994200	3.595400	-10.764000	25.099812	0.000904	20.678442
1156.320220	-3.021900	3.594300	-10.860000	25.034701	0.000907	20.689896
1157.319522	-2.998000	3.595800	-10.779000	25.055355	0.000906	20.701620
1158.319230	-3.016100	3.593900	-10.839000	25.053074	0.000904	20.675621
1159.336639	-2.989000	3.595300	-10.745000	25.045671	0.000903	20.705177
1160.337974	-2.985900	3.594600	-10.732000	25.046917	0.000901	20.694573
1161.317899	-3.006200	3.594400	-10.804000	25.073019	0.000903	20.682840
1162.321335	-2.987200	3.592900	-10.732000	25.082743	0.000904	20.677902
1163.319284	-2.997600	3.591900	-10.765000	25.074126	0.000901	20.690591
1164.321146	-2.984100	3.592300	-10.718000	25.081879	0.000900	20.676561
1165.350395	-2.989100	3.592400	-10.737000	25.078842	0.000900	20.684893
1166.353254	-2.990800	3.592300	-10.742000	25.087694	0.000902	20.706583
1167.322441	-2.989500	3.591300	-10.735000	25.090935	0.000899	20.697508
1168.318706	-2.990900	3.591700	-10.742000	25.099950	0.000899	20.712723
1169.338721	-3.003300	3.590300	-10.782000	25.076545	0.000900	20.679742
1170.328221	-3.005100	3.591100	-10.791000	25.103713	0.000899	20.697058
1171.323226	-2.996200	3.590400	-10.755000	25.114112	0.000899	20.679521
1172.325899	-3.025400	3.589900	-10.859000	25.127231	0.000896	20.705970
1173.341113	-3.003200	3.590200	-10.780000	25.153087	0.000897	20.702053
1174.342261	-3.003200	3.591100	-10.782000	25.165644	0.000898	20.710867
1175.348272	-3.018400	3.588300	-10.831000	25.152566	0.000897	20.698685
1176.345149	-3.023500	3.587800	-10.846000	25.153014	0.000897	20.692970
1177.344302	-3.010200	3.588000	-10.799000	25.170342	0.000894	20.698039
1178.346941	-3.009200	3.587500	-10.794000	25.167883	0.000894	20.682767
1179.351528	-2.999800	3.588300	-10.762000	25.147997	0.000897	20.709747
1180.325058	-3.004600	3.585900	-10.773000	25.136963	0.000893	20.701514
1181.328173	-2.995800	3.585500	-10.741000	25.119634	0.000893	20.704032
1182.324629	-2.983200	3.587200	-10.699000	25.116515	0.000894	20.699478
1183.350274	-3.001600	3.588400	-10.769000	25.112858	0.000892	20.701972
1184.325224	-3.014600	3.584600	-10.804000	25.119511	0.000893	20.695848
1185.328808	-2.985500	3.585300	-10.704000	25.121555	0.000892	20.712126
1186.327276	-2.985400	3.585200	-10.702000	25.094567	0.000890	20.683609
1187.327637	-3.004400	3.585300	-10.770000	25.063947	0.000891	20.695071
1188.359309	-2.997000	3.584600	-10.742000	25.066520	0.000888	20.694810
1189.343654	-3.004300	3.584000	-10.767000	25.049817	0.000890	20.712657
1190.328595	-3.002800	3.585600	-10.765000	25.090365	0.000888	20.709264
1191.327435	-3.007300	3.584300	-10.778000	25.113461	0.000889	20.720122
1192.327656	-3.001000	3.583000	-10.751000	25.135294	0.000889	20.692251
1193.329386	-3.000500	3.583100	-10.750000	25.182451	0.000886	20.701661
1194.331143	-2.979800	3.583500	-10.677000	25.189682	0.000886	20.702282
1195.329370	-2.997700	3.583500	-10.741000	25.188045	0.000886	20.680249
1196.327531	-3.017900	3.580400	-10.804000	25.188615	0.000887	20.712118
1197.329056	-2.990300	3.581100	-10.708000	25.216529	0.000884	20.702209
1198.349611	-3.003000	3.581600	-10.755000	25.213704	0.000885	20.733039
1199.359495	-3.003400	3.581800	-10.756000	25.212434	0.000883	20.709951
1200.361893	-2.999700	3.581500	-10.742000	25.205300	0.000883	20.707531
1201.359727	-2.991100	3.581900	-10.713000	25.183103	0.000883	20.710376
1202.350869	-3.000500	3.580700	-10.744000	25.150864	0.000882	20.704089
1203.356569	-3.003700	3.579500	-10.750000	25.119259	0.000884	20.705553
1204.373453	-3.010200	3.579200	-10.773000	25.098314	0.000881	20.726253
1205.331459	-2.991600	3.580000	-10.709000	25.093240	0.000882	20.711202
1206.354101	-3.002300	3.578900	-10.743000	25.114267	0.000881	20.720457
1207.350176	-3.000000	3.577700	-10.732000	25.130253	0.000881	20.725599
1208.352831	-2.974900	3.580400	-10.650000	25.180912	0.000879	20.717187
1209.352716	-3.001300	3.578500	-10.739000	25.197508	0.000882	20.714407
1210.353438	-2.993400	3.579100	-10.712000	25.215911	0.000879	20.718658
1211.353116	-2.954500	3.580000	-10.575000	25.223044	0.000878	20.713491
1212.346368	-2.997600	3.578100	-10.724000	25.234802	0.000878	20.701113
1213.352656	-3.019700	3.577300	-10.801000	25.222001	0.000879	20.717661
1214.355669	-2.995400	3.577800	-10.715000	25.211831	0.000877	20.719778
1215.364509	-3.004800	3.578700	-10.752000	25.131890	0.000876	20.741942
1216.357460	-3.015700	3.575500	-10.782000	25.105008	0.000877	20.737241
1217.359059	-2.983900	3.577300	-10.673000	25.083581	0.000874	20.716206
1218.356863	-3.003900	3.576000	-10.741000	25.073809	0.000873	20.716353
1219.334300	-2.980200	3.576700	-10.659000	25.079379	0.000875	20.734274
1220.337555	-2.992400	3.576500	-10.701000	25.121319	0.000872	20.713786
1221.355784	-3.012900	3.574800	-10.769000	25.147215	0.000873	20.719394
1222.355913	-2.990100	3.575300	-10.690000	25.167557	0.000873	20.724169
1223.361007	-2.991400	3.574700	-10.693000	25.130025	0.000873	20.740070
1224.359724	-2.990700	3.575400	-10.691000	25.153510	0.000872	20.715282
1225.363110	-3.002500	3.574200	-10.730000	25.129048	0.000873	20.722967
1226.364353	-3.007200	3.573300	-10.745000	25.127158	0.000872	20.743357
1227.342350	-3.005800	3.572100	-10.736000	25.121140	0.000873	20.738263
1228.355680	-2.987700	3.573600	-10.675000	25.134593	0.000869	20.724741
1229.358378	-2.985300	3.572700	-10.665000	25.156059	0.000870	20.733015
1230.337199	-2.989600	3.572100	-10.678000	25.144031	0.000870	20.752235
1231.343404	-3.009600	3.571800	-10.749000	25.099128	0.000867	20.744616
1232.340812	-2.975400	3.573400	-10.632000	25.075218	0.000869	20.722509
1233.338989	-2.973900	3.572600	-10.624000	25.053156	0.000868	20.743038
1234.340225	-2.985800	3.571300	-10.662000	25.059948	0.000868	20.733260
1235.356752	-3.003800	3.570200	-10.723000	25.107899	0.000868	20.731134
1236.343000	-3.012300	3.569400	-10.749000	25.145587	0.000866	20.736252
1237.363303	-2.989000	3.570600	-10.672000	25.172753	0.000867	20.755464
1238.358822	-2.993300	3.570800	-10.687000	25.176450	0.000867	20.743528
1239.358563	-2.994500	3.569000	-10.687000	25.236088	0.000866	20.734175
1240.372433	-2.979300	3.571500	-10.638000	25.240998	0.000864	20.751434
1241.342408	-2.992000	3.569000	-10.677000	25.234313	0.000865	20.749938
1242.342483	-3.014100	3.568300	-10.754000	25.234851	0.000862	20.749055
1243.341627	-2.984000	3.567900	-10.646000	25.223817	0.000862	20.744141
1244.342953	-2.986200	3.567800	-10.653000	25.202035	0.000863	20.736971
1245.369698	-2.991100	3.568200	-10.672000	25.190928	0.000862	20.750003
1246.368364	-3.010700	3.568000	-10.742000	25.179169	0.000862	20.751949
1247.367474	-3.005900	3.566700	-10.720000	25.177174	0.000861	20.756584
1248.360506	-3.001800	3.567200	-10.707000	25.209185	0.000860	20.765961
1249.377672	-3.003500	3.566200	-10.711000	25.221317	0.000861	20.746847
1250.344651	-2.990100	3.566600	-10.663000	25.268642	0.000859	20.757851
1251.350909	-3.007000	3.566000	-10.722000	25.276500	0.000860	20.749145
1252.363737	-3.008400	3.565200	-10.724000	25.294893	0.000859	20.740111
1253.372398	-2.985600	3.565100	-10.642000	25.327755	0.000857	20.745131
1254.369509	-2.972500	3.565200	-10.596000	25.369506	0.000859	20.764768
1255.348898	-3.001600	3.565700	-10.702000	25.370573	0.000858	20.758726
1256.351590	-3.009700	3.563700	-10.725000	25.352400	0.000857	20.777938
1257.353750	-2.988300	3.563100	-10.646000	25.401836	0.000857	20.767359
1258.372648	-2.990200	3.563700	-10.654000	25.377062	0.000855	20.758604
1259.370159	-2.978500	3.564700	-10.616000	25.393833	0.000856	20.760271
1260.369693	-2.994300	3.563900	-10.670000	25.363188	0.000856	20.751311
1261.371984	-3.010500	3.562000	-10.722000	25.344747	0.000854	20.761244
1262.370572	-2.994900	3.562600	-10.668000	25.323497	0.000854	20.747019
1263.372694	-3.005000	3.560800	-10.699000	25.301725	0.000854	20.768308
1264.369765	-3.010500	3.559900	-10.715000	25.326680	0.000853	20.763967
1265.381148	-3.005400	3.561700	-10.703000	25.318155	0.000853	20.772951
1266.380566	-2.994700	3.561100	-10.664000	25.279781	0.000851	20.777570
1267.354100	-2.994500	3.560600	-10.662000	25.241593	0.000851	20.753927
1268.368725	-2.987700	3.559500	-10.634000	25.264913	0.000852	20.786350
1269.352305	-3.011300	3.560100	-10.718000	25.296049	0.000849	20.773989
1270.352071	-2.994500	3.560400	-10.660000	25.298688	0.000848	20.774267
1271.385725	-2.982700	3.559000	-10.614000	25.315591	0.000848	20.784601
1272.371544	-2.998700	3.560600	-10.676000	25.347279	0.000848	20.762838
1273.373493	-2.972100	3.559600	-10.579000	25.355160	0.000849	20.772649
1274.377315	-3.008500	3.558100	-10.703000	25.346734	0.000848	20.781257
1275.371752	-2.994700	3.558600	-10.656000	25.340937	0.000847	20.773540
1276.354541	-3.016900	3.558100	-10.732000	25.344201	0.000847	20.773025
1277.354740	-3.010000	3.556800	-10.705000	25.369449	0.000847	20.769926
1278.357564	-2.994300	3.556800	-10.649000	25.362740	0.000847	20.757500
1279.370889	-2.998000	3.557100	-10.664000	25.385578	0.000847	20.783277
1280.372629	-3.005900	3.556000	-10.687000	25.391293	0.000845	20.772420
1281.371547	-2.987000	3.557000	-10.623000	25.404539	0.000845	20.767703
1282.383780	-3.004300	3.556100	-10.683000	25.425316	0.000843	20.780505
1283.388590	-3.023700	3.554500	-10.746000	25.416955	0.000844	20.767368
1284.360049	-3.004500	3.555200	-10.681000	25.446686	0.000843	20.784421
1285.358222	-3.003300	3.555600	-10.678000	25.440402	0.000842	20.789490
1286.358218	-3.014000	3.555400	-10.714000	25.485942	0.000842	20.767891
1287.361313	-3.005000	3.555900	-10.684000	25.458857	0.000842	20.775780
1288.382797	-2.972400	3.556100	-10.569000	25.471403	0.000842	20.805447
1289.378826	-2.985900	3.552900	-10.608000	25.476092	0.000841	20.769379
1290.383187	-3.002700	3.553800	-10.670000	25.472119	0.000842	20.790994
1291.380372	-3.005400	3.552500	-10.675000	25.486699	0.000840	20.762961
1292.382114	-3.022000	3.552600	-10.734000	25.487448	0.000840	20.787421
1293.363537	-2.987400	3.552600	-10.612000	25.484908	0.000838	20.781077
1294.366503	-2.990000	3.554200	-10.626000	25.465191	0.000838	20.816279
1295.375750	-2.987600	3.552700	-10.613000	25.431699	0.000840	20.795924
1296.384537	-3.010400	3.550300	-10.687000	25.437935	0.000837	20.798867
1297.377693	-2.971900	3.552800	-10.558000	25.439001	0.000838	20.789506
1298.383890	-3.004600	3.549800	-10.665000	25.468325	0.000837	20.792874
1299.361168	-3.000100	3.551000	-10.652000	25.456293	0.000838	20.814930
1300.365763	-3.027500	3.548700	-10.741000	25.517846	0.000837	20.797084
1301.363801	-2.999500	3.549800	-10.647000	25.485543	0.000834	20.802578
1302.362594	-2.987800	3.550100	-10.605000	25.487310	0.000836	20.794395
1303.381659	-3.006200	3.549200	-10.669000	25.451343	0.000835	20.812805
1304.387741	-3.003500	3.550000	-10.661000	25.483028	0.000831	20.809535
1305.382785	-2.983500	3.548100	-10.585000	25.464467	0.000835	20.823138
1306.365023	-2.997800	3.549700	-10.640000	25.456830	0.000833	20.803142
1307.366963	-3.012000	3.547800	-10.684000	25.487318	0.000834	20.799145
1308.365015	-2.992200	3.548400	-10.616000	25.485625	0.000834	20.829212
1309.367873	-2.987200	3.547500	-10.596000	25.496582	0.000831	20.816034
1310.373094	-2.986900	3.546400	-10.592000	25.491861	0.000832	20.804655
1311.369211	-2.987100	3.547300	-10.595000	25.471826	0.000831	20.804924
1312.389612	-2.983200	3.545800	-10.577000	25.455797	0.000829	20.804475
1313.382604	-3.006000	3.545900	-10.658000	25.490908	0.000832	20.805595
1314.382678	-2.982700	3.546300	-10.576000	25.473511	0.000830	20.795237
1315.394404	-2.997500	3.545800	-10.628000	25.452092	0.000829	20.803600
1316.388397	-3.012600	3.544600	-10.678000	25.464809	0.000829	20.825378
1317.391772	-2.981200	3.544800	-10.567000	25.495744	0.000829	20.849804
1318.386999	-3.010700	3.545100	-10.672000	25.475766	0.000830	20.810778
1319.369777	-3.009200	3.543300	-10.661000	25.457775	0.000826	20.812151
1320.372673	-3.024500	3.543200	-10.716000	25.430852	0.000826	20.822100
1321.376315	-3.016000	3.542400	-10.683000	25.428101	0.000825	20.798000
1322.387033	-3.001400	3.544000	-10.635000	25.384007	0.000826	20.823424
1323.375924	-3.020100	3.542400	-10.697000	25.383339	0.000823	20.818961
1324.370398	-2.992300	3.543500	-10.600000	25.350007	0.000824	20.843338
1325.372729	-2.988300	3.543600	-10.589000	25.356415	0.000825	20.799039
1326.374794	-2.994800	3.540900	-10.604000	25.337599	0.000824	20.807647
1327.378406	-2.979900	3.542500	-10.555000	25.303793	0.000822	20.815904
1328.372968	-2.992900	3.542700	-10.602000	25.309468	0.000821	20.814489
1329.375136	-2.972800	3.543800	-10.533000	25.321372	0.000822	20.812217
1330.373943	-3.009300	3.542100	-10.658000	25.338503	0.000822	20.811873
1331.373409	-2.987600	3.540900	-10.577000	25.375906	0.000822	20.828566
1332.374367	-2.982400	3.540800	-10.559000	25.386197	0.000822	20.837951
1333.377062	-2.981100	3.540400	-10.553000	25.415294	0.000820	20.808374
1334.373861	-3.006200	3.539400	-10.638000	25.433767	0.000821	20.828346
1335.378457	-2.997400	3.538700	-10.606000	25.448478	0.000821	20.813721
1336.412256	-2.988800	3.539800	-10.579000	25.434972	0.000817	20.828607
1337.389484	-2.999800	3.538000	-10.612000	25.480431	0.000819	20.817833
1338.396858	-3.002400	3.538400	-10.622000	25.485804	0.000819	20.800469
1339.392209	-3.012800	3.537500	-10.657000	25.513214	0.000818	20.803813
1340.394912	-3.009500	3.537800	-10.646000	25.473357	0.000818	20.817841
1341.404736	-2.993500	3.538400	-10.591000	25.459265	0.000816	20.804164
1342.395061	-3.007600	3.536900	-10.637000	25.464727	0.000816	20.797796
1343.395390	-2.998900	3.536900	-10.606000	25.461056	0.000816	20.818765
1344.401863	-3.020100	3.536000	-10.678000	25.463466	0.000815	20.801270
1345.393560	-3.012300	3.537200	-10.654000	25.482898	0.000814	20.783326
1346.395033	-2.993800	3.536000	-10.585000	25.478103	0.000814	20.798899
1347.393436	-3.020400	3.535600	-10.678000	25.492447	0.000813	20.817571
1348.380193	-2.995000	3.535400	-10.588000	25.484493	0.000812	20.810058
1349.384644	-3.002100	3.535200	-10.612000	25.492821	0.000812	20.803723
1350.401803	-2.999700	3.534600	-10.603000	25.480667	0.000810	20.799578
1351.408843	-2.995300	3.532800	-10.580000	25.450619	0.000811	20.786948
1352.413931	-3.001500	3.534300	-10.607000	25.467300	0.000811	20.809388
1353.404044	-3.025500	3.533500	-10.689000	25.464247	0.000810	20.777873
1354.405749	-3.004600	3.533300	-10.615000	25.467723	0.000811	20.794640
1355.383025	-3.000300	3.533300	-10.600000	25.467625	0.000809	20.776998
1356.380496	-3.022100	3.530400	-10.668000	25.474757	0.000809	20.780841
1357.384602	-3.007600	3.532100	-10.621000	25.502216	0.000809	20.787552
1358.401738	-3.003800	3.531500	-10.607000	25.520784	0.000808	20.781544
1359.402606	-2.993000	3.531400	-10.568000	25.530773	0.000808	20.776401
1360.389070	-2.995400	3.531300	-10.577000	25.532043	0.000806	20.788582
1361.384509	-2.998900	3.532000	-10.591000	25.493082	0.000807	20.799717
1362.383342	-2.997400	3.532700	-10.587000	25.454087	0.000808	20.793275
1363.387812	-2.990800	3.530200	-10.558000	25.409921	0.000806	20.776900
1364.385093	-3.012300	3.530100	-10.632000	25.404678	0.000804	20.765471
1365.388674	-2.978500	3.531000	-10.516000	25.383258	0.000806	20.761506
1366.383216	-2.994900	3.528900	-10.567000	25.410694	0.000806	20.773883
1367.383057	-2.995900	3.528700	-10.570000	25.393565	0.000804	20.793193
1368.385198	-2.994500	3.530000	-10.569000	25.400330	0.000802	20.788607
1369.390890	-3.001500	3.528600	-10.589000	25.397806	0.000802	20.765684
1370.405409	-3.003300	3.529900	-10.600000	25.354583	0.000802	20.769698
1371.408139	-3.011600	3.527300	-10.622000	25.376321	0.000801	20.765921
1372.407238	-2.975200	3.527900	-10.495000	25.390390	0.000802	20.782418
1373.386865	-3.002100	3.527500	-10.588000	25.380172	0.000799	20.772159
1374.392610	-2.980800	3.526900	-10.512000	25.421645	0.000800	20.772077
1375.384760	-2.995600	3.526400	-10.563000	25.425634	0.000798	20.773712
1376.389709	-3.018500	3.525500	-10.640000	25.384479	0.000799	20.763207
1377.388852	-3.012500	3.525600	-10.620000	25.393492	0.000799	20.774153
1378.411329	-2.984200	3.525200	-10.519000	25.396300	0.000797	20.758481
1379.417754	-3.000500	3.525100	-10.576000	25.430575	0.000797	20.773933
1380.409326	-3.009900	3.525400	-10.610000	25.402113	0.000796	20.765741
1381.386970	-2.991400	3.525200	-10.544000	25.421620	0.000797	20.759250
1382.388770	-3.023500	3.524300	-10.654000	25.421229	0.000795	20.795842
1383.388097	-2.990000	3.524800	-10.538000	25.419056	0.000796	20.771374
1384.387186	-2.991800	3.522600	-10.537000	25.432831	0.000795	20.760076
1385.391267	-2.995700	3.523700	-10.555000	25.467056	0.000794	20.767417
1386.409367	-3.007500	3.523200	-10.594000	25.436462	0.000795	20.770360
1387.406540	-2.995500	3.522300	-10.550000	25.438098	0.000794	20.772952
1388.390339	-2.996400	3.521100	-10.550000	25.400396	0.000795	20.773973
1389.389891	-3.002000	3.521800	-10.572000	25.405834	0.000793	20.743872
1390.394221	-2.985300	3.521400	-10.512000	25.369279	0.000792	20.761694
1391.391241	-2.984400	3.522200	-10.511000	25.370549	0.000792	20.753012
1392.390125	-2.985000	3.521500	-10.510000	25.407185	0.000793	20.755187
1393.391158	-2.994600	3.520600	-10.540000	25.410483	0.000790	20.737160
1394.395308	-2.984400	3.521500	-10.509000	25.434272	0.000791	20.737340
1395.412639	-3.013500	3.518600	-10.601000	25.439930	0.000789	20.759144
1396.412962	-2.994800	3.518700	-10.537000	25.462570	0.000789	20.745368
1397.412019	-2.992600	3.519800	-10.532000	25.447664	0.000791	20.768807
1398.416582	-2.979500	3.521000	-10.490000	25.439742	0.000789	20.744730
1399.392770	-3.016300	3.517500	-10.608000	25.409587	0.000786	20.759969
1400.420297	-2.977500	3.519300	-10.477000	25.447908	0.000787	20.742973
1401.415316	-3.020400	3.518700	-10.627000	25.451067	0.000788	20.757999
1402.393676	-3.010800	3.518200	-10.591000	25.448356	0.000786	20.753380
1403.424760	-2.997000	3.516600	-10.537000	25.446117	0.000785	20.758244
1404.418152	-2.993400	3.516800	-10.526000	25.458622	0.000785	20.751835
1405.421479	-2.972300	3.517700	-10.454000	25.439759	0.000782	20.754230
1406.397399	-3.008300	3.515900	-10.576000	25.478893	0.000784	20.746112
1407.396286	-2.986000	3.516100	-10.497000	25.481831	0.000781	20.749063
1408.397534	-3.039300	3.514900	-10.682000	25.496754	0.000782	20.730383
1409.397334	-3.000200	3.516200	-10.548000	25.519075	0.000782	20.765128
1410.398354	-3.007200	3.514700	-10.567000	25.494743	0.000782	20.738795
1411.421504	-2.995000	3.514900	-10.526000	25.487611	0.000780	20.753920
1412.398124	-3.014600	3.513500	-10.592000	25.483500	0.000781	20.741730
1413.403661	-3.019600	3.513500	-10.608000	25.507589	0.000780	20.734151
1414.402144	-3.003400	3.514100	-10.553000	25.490567	0.000781	20.739817
1415.401737	-3.004200	3.513400	-10.554000	25.517830	0.000781	20.754394
1416.403888	-3.001700	3.513200	-10.545000	25.524016	0.000780	20.744959
1417.402834	-3.012900	3.512100	-10.580000	25.546907	0.000777	20.748033
1418.400539	-2.985400	3.511800	-10.483000	25.547046	0.000779	20.743431
1419.405092	-3.011500	3.512900	-10.578000	25.532059	0.000777	20.737389
1420.403562	-3.018400	3.510900	-10.597000	25.535259	0.000779	20.742973
1421.401552	-2.994500	3.511800	-10.516000	25.526890	0.000777	20.743578
1422.407887	-3.004600	3.510100	-10.545000	25.515729	0.000776	20.734740
1423.404404	-2.999500	3.510900	-10.530000	25.536602	0.000777	20.737209
1424.406533	-2.992800	3.510900	-10.506000	25.566371	0.000776	20.747666
1425.405221	-3.020900	3.509200	-10.599000	25.543236	0.000774	20.759994
1426.409418	-2.983900	3.510100	-10.473000	25.552622	0.000774	20.732435
1427.405912	-3.000200	3.508800	-10.526000	25.565817	0.000774	20.747110
1428.405178	-2.993800	3.509300	-10.505000	25.533679	0.000772	20.718626
1429.404147	-2.997700	3.507900	-10.514000	25.559802	0.000774	20.728739
1430.422464	-3.007600	3.508700	-10.552000	25.518546	0.000772	20.740414
1431.424154	-2.991500	3.507500	-10.492000	25.513027	0.000773	20.743406
1432.431755	-2.983800	3.508000	-10.466000	25.477362	0.000773	20.745050
1433.433713	-2.969800	3.506400	-10.412000	25.471648	0.000772	20.738836
1434.429229	-3.022100	3.507400	-10.598000	25.446093	0.000772	20.747314
1435.423102	-3.008200	3.505900	-10.544000	25.436023	0.000770	20.732460
1436.436609	-3.006300	3.506500	-10.541000	25.456172	0.000770	20.734201
1437.429482	-2.998200	3.505600	-10.509000	25.429729	0.000771	20.739417
1438.427933	-3.002900	3.504400	-10.523000	25.402415	0.000768	20.737594
1439.427708	-3.017600	3.504600	-10.574000	25.376713	0.000769	20.727432
1440.413073	-2.990500	3.503800	-10.477000	25.399965	0.000770	20.713795
1441.410546	-2.981100	3.503800	-10.444000	25.409165	0.000770	20.728249
1442.408698	-3.014500	3.503700	-10.561000	25.447681	0.000768	20.725674
1443.411785	-2.998900	3.503200	-10.503000	25.462441	0.000767	20.749980
1444.414449	-3.012400	3.501800	-10.547000	25.451182	0.000765	20.726819
1445.409865	-3.000000	3.501400	-10.503000	25.439988	0.000766	20.733122
1446.410668	-2.993800	3.501800	-10.483000	25.486188	0.000765	20.731152
1447.410771	-2.985500	3.502000	-10.454000	25.507533	0.000766	20.737414
1448.410812	-3.006100	3.501800	-10.526000	25.509788	0.000766	20.727825
1449.413794	-3.000000	3.500300	-10.500000	25.490397	0.000764	20.727318
1450.427089	-2.994100	3.501500	-10.483000	25.510000	0.000763	20.720925
1451.437041	-2.981800	3.501300	-10.439000	25.517025	0.000763	20.736990
1452.427314	-2.966700	3.500600	-10.384000	25.526077	0.000761	20.713836
1453.432379	-2.994300	3.500400	-10.480000	25.536977	0.000760	20.725732
1454.416740	-2.979300	3.500900	-10.429000	25.562440	0.000762	20.723803
1455.412119	-2.988500	3.499900	-10.458000	25.594301	0.000761	20.706487
1456.412016	-2.971300	3.500200	-10.399000	25.598249	0.000759	20.731790
1457.436181	-2.990000	3.500200	-10.464000	25.590117	0.000761	20.735477
1458.434471	-2.985300	3.499600	-10.446000	25.603532	0.000760	20.721922
1459.412127	-2.999300	3.497400	-10.488000	25.599234	0.000760	20.726615
1460.450933	-2.979500	3.499400	-10.426000	25.570605	0.000757	20.715407
1461.443336	-2.976400	3.498100	-10.411000	25.528862	0.000757	20.718530
1462.442737	-3.002800	3.497700	-10.501000	25.494337	0.000757	20.719421
1463.439183	-2.995200	3.496100	-10.470000	25.487426	0.000758	20.724809
1464.418911	-3.003100	3.496100	-10.498000	25.477283	0.000757	20.709406
1465.418184	-2.999000	3.497000	-10.485000	25.474450	0.000756	20.728373
1466.418297	-2.996700	3.495500	-10.474000	25.502185	0.000757	20.737260
1467.420809	-3.005600	3.495100	-10.504000	25.510106	0.000754	20.703961
1468.415617	-2.997800	3.495300	-10.476000	25.519248	0.000756	20.731161
1469.418181	-2.999400	3.495600	-10.483000	25.492881	0.000755	20.725545
1470.417455	-2.974700	3.494200	-10.393000	25.467033	0.000754	20.717606
1471.417998	-2.994900	3.494000	-10.463000	25.468271	0.000753	20.719797
1472.419211	-2.988200	3.492800	-10.436000	25.433427	0.000754	20.727482
1473.420038	-2.978500	3.493500	-10.405000	25.410656	0.000753	20.715522
1474.423133	-3.012700	3.490800	-10.515000	25.407627	0.000750	20.734767
1475.419646	-2.979000	3.493200	-10.405000	25.420499	0.000752	20.730148
1476.458536	-3.007500	3.491300	-10.499000	25.376503	0.000751	20.705883
1477.441540	-2.971900	3.491100	-10.374000	25.352143	0.000752	20.731211
1478.437801	-3.024500	3.489300	-10.553000	25.339409	0.000749	20.706570
1479.418081	-2.989600	3.490800	-10.435000	25.321806	0.000748	20.694110
1480.438804	-2.988900	3.491400	-10.434000	25.352868	0.000750	20.701591
1481.422012	-3.014600	3.489300	-10.517000	25.367743	0.000749	20.710363
1482.431622	-2.997000	3.490100	-10.459000	25.369998	0.000748	20.730173
1483.423877	-3.007600	3.488900	-10.492000	25.418082	0.000749	20.712072
1484.439474	-2.984100	3.489500	-10.413000	25.384580	0.000750	20.725374
1485.421332	-3.000800	3.490600	-10.473000	25.395831	0.000745	20.711067
1486.423128	-3.001900	3.488400	-10.470000	25.403957	0.000748	20.699784
1487.428778	-3.015000	3.486800	-10.512000	25.405593	0.000744	20.704747
1488.425256	-3.008800	3.486400	-10.489000	25.432199	0.000747	20.717240
1489.436577	-2.979500	3.487400	-10.389000	25.447342	0.000745	20.712056
1490.441849	-2.989700	3.487800	-10.426000	25.474272	0.000742	20.728669
1491.423810	-2.999600	3.487500	-10.460000	25.450964	0.000743	20.700520
1492.450129	-3.022900	3.485200	-10.534000	25.448067	0.000744	20.706146
1493.444647	-2.986800	3.485000	-10.408000	25.412335	0.000745	20.710569
1494.451186	-3.018000	3.484300	-10.514000	25.429920	0.000743	20.728702
1495.427601	-3.011800	3.484400	-10.492000	25.419898	0.000741	20.705835
1496.447578	-3.016400	3.484000	-10.508000	25.424124	0.000741	20.728572
1497.445376	-2.989900	3.485000	-10.420000	25.448034	0.000741	20.685249
1498.443328	-2.978600	3.484400	-10.378000	25.467133	0.000742	20.708223
1499.449421	-2.980900	3.484300	-10.385000	25.496058	0.000740	20.710242
1500.442128	-2.989900	3.483700	-10.415000	25.504850	0.000739	20.713856
1501.442805	-3.001200	3.481500	-10.448000	25.506201	0.000739	20.699565
1502.455436	-3.004300	3.482200	-10.461000	25.541132	0.000739	20.708092
1503.455844	-2.985600	3.482600	-10.397000	25.537925	0.000740	20.700603
1504.445297	-2.988500	3.481100	-10.402000	25.528775	0.000739	20.697104
1505.429851	-3.013000	3.480200	-10.485000	25.542638	0.000738	20.725253
1506.442530	-2.992700	3.481200	-10.416000	25.537811	0.000737	20.696221
1507.452475	-3.000300	3.480200	-10.440000	25.545064	0.000736	20.703032
1508.433928	-3.013400	3.479900	-10.485000	25.547995	0.000738	20.710717
1509.427256	-2.997800	3.481900	-10.437000	25.536794	0.000737	20.701838
1510.429894	-2.990300	3.481000	-10.408000	25.531389	0.000736	20.698307
1511.428368	-3.009000	3.478100	-10.465000	25.550974	0.000736	20.699484
1512.439462	-2.973800	3.480500	-10.349000	25.533579	0.000736	20.700980
1513.446665	-2.997600	3.478600	-10.427000	25.522565	0.000732	20.712680
1514.450155	-2.990400	3.478400	-10.401000	25.486754	0.000734	20.697579
1515.449343	-2.996700	3.479100	-10.425000	25.484116	0.000731	20.673591
1516.454201	-3.010500	3.476400	-10.464000	25.523208	0.000734	20.690564
1517.432398	-2.988600	3.477900	-10.393000	25.501163	0.000733	20.695453
1518.432873	-3.003400	3.478700	-10.447000	25.490303	0.000733	20.709679
1519.437276	-2.997900	3.476100	-10.420000	25.444177	0.000730	20.684220
1520.447530	-2.990600	3.476100	-10.395000	25.418532	0.000729	20.694031
1521.450889	-2.985500	3.476900	-10.379000	25.447360	0.000730	20.685520
1522.454844	-3.016000	3.474500	-10.477000	25.467289	0.000730	20.714070
1523.434539	-3.004500	3.474900	-10.440000	25.510672	0.000730	20.674654
1524.436658	-3.011700	3.473900	-10.462000	25.511046	0.000729	20.693050
1525.455906	-3.007700	3.473800	-10.447000	25.505649	0.000728	20.693320
1526.456156	-2.980600	3.475800	-10.359000	25.497223	0.000728	20.700032
1527.454293	-3.002800	3.472500	-10.426000	25.512161	0.000731	20.698438
1528.452599	-2.980200	3.473800	-10.352000	25.516207	0.000728	20.683059
1529.453176	-2.984700	3.472900	-10.364000	25.516028	0.000728	20.681457
1530.433396	-3.014800	3.470500	-10.462000	25.540580	0.000726	20.681457
1531.435124	-2.994200	3.473300	-10.399000	25.543413	0.000726	20.688570
1532.434555	-2.988600	3.472500	-10.376000	25.516028	0.000726	20.696631
1533.436848	-2.998700	3.471400	-10.408000	25.475016	0.000723	20.676307
1534.435102	-2.974000	3.472000	-10.324000	25.470717	0.000726	20.687164
1535.456366	-2.973300	3.471500	-10.321000	25.422872	0.000723	20.695070
1536.452609	-2.991400	3.470900	-10.380000	25.403683	0.000722	20.688129
1537.462071	-2.988000	3.471000	-10.369000	25.381881	0.000725	20.682357
1538.435791	-2.992000	3.471300	-10.385000	25.359865	0.000723	20.666414
1539.434377	-2.987100	3.469900	-10.363000	25.322714	0.000725	20.670363
1540.437821	-3.012900	3.468100	-10.446000	25.311665	0.000725	20.703843
1541.435079	-2.993800	3.468000	-10.382000	25.340716	0.000723	20.695079
1542.438869	-2.980400	3.469800	-10.340000	25.359589	0.000723	20.685104
1543.437890	-3.008300	3.467300	-10.429000	25.398823	0.000721	20.702691
1544.437341	-2.998600	3.467100	-10.396000	25.431600	0.000720	20.674435
1545.436743	-3.017900	3.467000	-10.462000	25.478118	0.000721	20.693648
1546.459111	-3.023200	3.466300	-10.478000	25.507238	0.000721	20.674525
1547.457158	-3.000200	3.466200	-10.398000	25.503485	0.000721	20.710115
1548.435001	-2.993600	3.466100	-10.376000	25.517520	0.000719	20.684852
1549.436636	-3.003400	3.464100	-10.402000	25.505643	0.000718	20.661542
1550.437381	-2.991200	3.465900	-10.366000	25.505618	0.000719	20.688073
1551.454533	-2.985200	3.466700	-10.347000	25.499749	0.000719	20.684549
1552.437428	-2.990100	3.465900	-10.363000	25.521981	0.000715	20.673684
1553.437125	-3.004200	3.465600	-10.410000	25.562187	0.000718	20.696519
1554.437222	-3.004300	3.463700	-10.404000	25.566110	0.000717	20.691924
1555.437676	-2.991500	3.463600	-10.361000	25.570132	0.000713	20.697386
1556.462792	-2.982500	3.464300	-10.331000	25.586949	0.000716	20.702422
1557.438408	-3.007500	3.462500	-10.412000	25.579737	0.000715	20.685695
1558.462129	-2.992000	3.461500	-10.356000	25.535243	0.000713	20.674674
1559.460069	-3.011600	3.461800	-10.424000	25.498147	0.000714	20.703805
1560.458471	-2.996000	3.462300	-10.372000	25.462482	0.000714	20.688851
1561.461018	-2.998200	3.462100	-10.379000	25.458965	0.000715	20.688165
1562.445245	-2.985200	3.461500	-10.332000	25.442691	0.000712	20.677037
1563.464066	-2.993800	3.460000	-10.358000	25.479220	0.000711	20.681003
1564.460682	-3.006300	3.460000	-10.400000	25.503740	0.000712	20.681919
1565.458292	-3.001100	3.459000	-10.379000	25.540495	0.000713	20.663351
1566.462868	-2.995900	3.461500	-10.369000	25.557190	0.000710	20.692924
1567.461133	-2.986600	3.458400	-10.327000	25.548562	0.000711	20.679515
1568.457735	-2.994100	3.459500	-10.357000	25.570028	0.000709	20.676417
1569.461511	-2.988300	3.459100	-10.334000	25.570899	0.000710	20.686776
1570.440770	-3.007300	3.456500	-10.394000	25.581481	0.000709	20.691240
1571.466653	-3.012500	3.457600	-10.415000	25.577476	0.000707	20.707608
1572.448339	-3.001000	3.457000	-10.373000	25.572454	0.000709	20.679328
1573.440208	-2.988200	3.456600	-10.328000	25.567879	0.000707	20.692279
1574.457892	-3.012600	3.457000	-10.414000	25.588376	0.000707	20.682043
1575.459795	-3.005500	3.456000	-10.386000	25.624078	0.000708	20.697986
1576.465801	-2.996000	3.455200	-10.351000	25.627041	0.000706	20.703806
1577.469240	-3.015500	3.454100	-10.414000	25.605015	0.000704	20.711083
1578.444771	-2.987200	3.454700	-10.319000	25.551119	0.000706	20.689197
1579.467510	-3.001600	3.454800	-10.369000	25.520772	0.000703	20.697602
1580.444612	-3.021300	3.452800	-10.431000	25.504726	0.000705	20.688600
1581.445410	-2.994300	3.453900	-10.341000	25.554343	0.000704	20.706660
1582.446238	-3.000300	3.454100	-10.362000	25.557225	0.000705	20.695329
1583.445260	-3.016200	3.452900	-10.414000	25.585528	0.000705	20.709056
1584.458653	-2.991400	3.451600	-10.324000	25.586171	0.000704	20.710176
1585.449774	-2.999200	3.452400	-10.352000	25.625056	0.000702	20.713193
1586.466177	-2.974100	3.454200	-10.272000	25.629329	0.000702	20.703734
1587.477278	-3.031600	3.450400	-10.458000	25.584503	0.000701	20.684316
1588.464684	-3.008700	3.452000	-10.385000	25.556664	0.000702	20.680539
1589.465734	-2.980500	3.452000	-10.288000	25.546952	0.000701	20.706824
1590.485312	-3.008600	3.451000	-10.382000	25.527993	0.000700	20.695844
1591.469364	-3.004800	3.449800	-10.365000	25.559228	0.000700	20.695444
1592.466300	-3.006200	3.450900	-10.374000	25.583233	0.000700	20.699638
1593.469013	-2.985300	3.449900	-10.298000	25.596477	0.000699	20.701559
1594.468351	-2.997400	3.450000	-10.339000	25.590405	0.000700	20.695461
1595.449019	-2.994700	3.449600	-10.330000	25.564837	0.000697	20.709613
1596.447454	-3.030700	3.448400	-10.450000	25.546895	0.000698	20.703448
1597.449432	-3.025400	3.449000	-10.433000	25.522270	0.000696	20.691045
1598.447418	-2.982900	3.449300	-10.288000	25.493640	0.000699	20.713030
1599.468183	-2.984000	3.447600	-10.285000	25.485060	0.000697	20.702517
1600.467577	-2.972400	3.448600	-10.250000	25.490954	0.000696	20.692313
1601.468794	-3.017500	3.446400	-10.398000	25.468404	0.000694	20.701912
1602.470775	-3.023100	3.445100	-10.414000	25.467117	0.000694	20.698249
1603.468173	-3.000300	3.446100	-10.339000	25.457519	0.000694	20.709948
1604.479870	-3.027000	3.445600	-10.429000	25.436141	0.000694	20.700808
1605.452597	-2.989500	3.446400	-10.302000	25.424344	0.000694	20.713145
1606.470095	-2.996700	3.446200	-10.326000	25.429661	0.000693	20.695723
1607.475022	-3.007100	3.444400	-10.357000	25.444641	0.000692	20.710766
1608.451873	-2.991300	3.445500	-10.305000	25.443591	0.000690	20.700228
1609.450981	-2.991000	3.444500	-10.302000	25.484792	0.000691	20.724060
1610.454873	-3.003000	3.443400	-10.340000	25.536037	0.000691	20.693965
1611.470828	-2.999000	3.443400	-10.326000	25.576885	0.000691	20.707488
1612.481306	-2.999500	3.442200	-10.324000	25.574101	0.000690	20.719392
1613.452848	-3.010600	3.442600	-10.363000	25.608940	0.000689	20.722613
1614.453612	-3.017500	3.442600	-10.387000	25.623568	0.000689	20.715018
1615.460741	-2.977200	3.443600	-10.251000	25.636714	0.000690	20.679380
1616.453906	-3.035000	3.439200	-10.436000	25.620817	0.000688	20.714626
1617.478415	-2.982100	3.441900	-10.263000	25.589796	0.000689	20.712868
1618.468812	-3.000200	3.441900	-10.326000	25.581892	0.000689	20.705404
1619.453958	-2.994400	3.443000	-10.309000	25.580223	0.000687	20.706573
1620.458951	-2.993100	3.440900	-10.298000	25.577643	0.000687	20.720104
1621.453838	-3.003600	3.440100	-10.331000	25.569511	0.000686	20.709566
1622.480804	-2.992600	3.440000	-10.293000	25.601990	0.000688	20.712313
1623.456366	-2.999800	3.440300	-10.318000	25.643039	0.000687	20.705649
1624.456335	-3.008000	3.439100	-10.344000	25.634753	0.000686	20.711553
1625.459413	-2.983500	3.440300	-10.263000	25.621436	0.000687	20.722835
1626.465141	-3.013100	3.437700	-10.357000	25.590228	0.000685	20.713302
1627.461409	-3.011500	3.437600	-10.352000	25.529119	0.000685	20.723056
1628.458618	-3.010000	3.436100	-10.341000	25.505137	0.000685	20.724103
1629.475634	-3.006800	3.437300	-10.334000	25.477150	0.000683	20.745784
1630.479105	-3.004900	3.437700	-10.328000	25.503249	0.000683	20.698496
1631.480792	-3.034000	3.435400	-10.421000	25.513083	0.000684	20.712641
1632.476822	-3.007700	3.436300	-10.334000	25.530577	0.000682	20.734004
1633.487783	-2.998000	3.435500	-10.298000	25.551180	0.000683	20.735728
1634.474586	-3.012500	3.433600	-10.342000	25.595797	0.000680	20.715102
1635.489956	-3.008300	3.436600	-10.337000	25.647973	0.000680	20.735737
1636.486460	-2.986500	3.434000	-10.255000	25.656951	0.000678	20.735271
1637.458972	-3.005900	3.433300	-10.318000	25.671707	0.000681	20.716426
1638.464421	-2.995000	3.434100	-10.284000	25.718785	0.000679	20.721038
1639.461403	-2.984800	3.433200	-10.246000	25.729960	0.000676	20.732737
1640.460948	-2.999000	3.432700	-10.293000	25.676421	0.000678	20.725428
1641.463562	-3.017900	3.432300	-10.357000	25.677951	0.000678	20.727440
1642.469059	-3.008100	3.431200	-10.320000	25.661127	0.000678	20.727612
1643.461752	-2.976600	3.432600	-10.216000	25.697876	0.000676	20.722796
1644.464778	-2.992300	3.432300	-10.269000	25.693758	0.000677	20.741420
1645.461236	-2.987700	3.430100	-10.246000	25.706293	0.000675	20.733147
1646.466893	-2.993200	3.430000	-10.266000	25.694971	0.000676	20.738845
1647.465808	-2.999000	3.430500	-10.287000	25.673068	0.000675	20.739132
1648.476597	-3.003100	3.429500	-10.297000	25.680451	0.000676	20.722838
1649.477982	-2.988800	3.431100	-10.254000	25.674932	0.000672	20.717769
1650.488024	-3.013500	3.429800	-10.335000	25.652597	0.000673	20.732795
1651.482869	-2.981900	3.430600	-10.228000	25.612860	0.000673	20.735559
1652.483684	-3.006000	3.427400	-10.302000	25.577492	0.000672	20.743661
1653.467554	-2.991400	3.428300	-10.254000	25.572470	0.000673	20.743833
1654.492141	-3.018900	3.428600	-10.350000	25.552990	0.000673	20.729485
1655.485966	-3.000300	3.427000	-10.282000	25.565803	0.000671	20.740457
1656.486030	-2.995000	3.426900	-10.263000	25.589515	0.000672	20.728234
1657.468696	-3.021800	3.425600	-10.350000	25.584843	0.000670	20.743457
1658.487104	-3.004500	3.426000	-10.292000	25.614733	0.000670	20.731276
1659.469243	-3.013700	3.425800	-10.323000	25.635718	0.000669	20.750930
1660.476033	-2.980300	3.426600	-10.210000	25.612837	0.000670	20.743123
1661.469267	-3.024300	3.424400	-10.355000	25.575287	0.000669	20.733860
1662.485558	-2.995800	3.425700	-10.261000	25.582760	0.000670	20.753694
1663.489351	-2.983300	3.425500	-10.218000	25.553911	0.000667	20.752222
1664.467738	-3.000800	3.424300	-10.274000	25.578430	0.000668	20.745077
1665.469753	-3.014400	3.424400	-10.321000	25.610493	0.000667	20.756416
1666.468934	-2.987900	3.424700	-10.232000	25.632796	0.000665	20.775024
1667.493752	-3.000500	3.424500	-10.273000	25.687437	0.000666	20.753089
1668.468169	-3.020200	3.423700	-10.340000	25.722044	0.000664	20.740434
1669.472878	-3.011100	3.421900	-10.302000	25.709242	0.000664	20.761715
1670.469386	-2.992000	3.422600	-10.239000	25.703203	0.000666	20.761339
1671.470317	-2.986900	3.422800	-10.222000	25.644990	0.000664	20.750760
1672.470409	-2.995300	3.421300	-10.246000	25.632260	0.000663	20.719007
1673.474160	-3.010600	3.420500	-10.296000	25.665950	0.000665	20.760432
1674.472861	-3.000800	3.422600	-10.270000	25.663866	0.000663	20.763080
1675.469716	-3.014200	3.419900	-10.306000	25.679909	0.000664	20.755012
1676.473606	-3.014200	3.419300	-10.305000	25.691662	0.000663	20.746428
1677.472633	-2.982400	3.420400	-10.200000	25.710391	0.000663	20.752437
1678.471342	-2.985200	3.418400	-10.204000	25.736932	0.000662	20.750172
1679.472965	-3.027400	3.419300	-10.351000	25.751435	0.000660	20.757154
1680.473629	-3.009100	3.418800	-10.287000	25.786961	0.000660	20.771976
1681.478963	-3.001400	3.419700	-10.262000	25.807681	0.000660	20.758176
1682.496946	-2.995900	3.418000	-10.239000	25.799657	0.000663	20.774772
1683.497940	-3.005500	3.418500	-10.274000	25.805142	0.000661	20.767480
1684.477226	-2.996600	3.418500	-10.243000	25.799803	0.000659	20.754056
1685.500977	-3.020000	3.414600	-10.310000	25.805240	0.000658	20.750982
1686.510422	-2.996500	3.417400	-10.239000	25.810335	0.000660	20.764161
1687.491693	-3.000200	3.415300	-10.246000	25.831201	0.000656	20.742447
1688.474957	-3.003900	3.414600	-10.256000	25.839404	0.000656	20.778189
1689.474494	-2.999700	3.415700	-10.245000	25.806884	0.000657	20.780135
1690.479261	-2.988100	3.416000	-10.206000	25.837687	0.000655	20.755127
1691.475020	-2.993000	3.414700	-10.219000	25.813565	0.000655	20.762664
1692.473829	-2.970900	3.416500	-10.149000	25.797509	0.000656	20.798219
1693.478014	-2.998000	3.415200	-10.238000	25.765190	0.000657	20.772867
1694.475136	-3.006300	3.413000	-10.260000	25.743892	0.000654	20.770914
1695.496759	-3.008500	3.413700	-10.270000	25.750190	0.000653	20.769654
1696.491985	-3.022400	3.413600	-10.316000	25.750565	0.000654	20.752960
1697.474804	-3.008400	3.412600	-10.265000	25.769935	0.000655	20.772418
1698.494708	-2.982700	3.413000	-10.179000	25.809439	0.000653	20.772745
1699.473332	-2.985400	3.412700	-10.188000	25.801513	0.000655	20.749609
1700.479312	-2.990700	3.413600	-10.208000	25.765589	0.000651	20.783225
1701.502358	-3.002100	3.411200	-10.239000	25.760828	0.000650	20.781287
1702.481693	-3.012000	3.412200	-10.277000	25.789272	0.000652	20.776194
1703.477336	-3.016900	3.410900	-10.289000	25.796507	0.000652	20.756434
1704.475609	-3.013700	3.412300	-10.283000	25.793594	0.000650	20.784329
1705.484996	-3.002000	3.411700	-10.241000	25.820174	0.000649	20.782579
1706.480912	-3.004800	3.410700	-10.247000	25.852124	0.000649	20.786225
1707.476129	-3.029300	3.408800	-10.325000	25.880989	0.000647	20.777764
1708.478607	-2.999800	3.408700	-10.224000	25.857194	0.000648	20.758127
1709.477005	-3.008600	3.409500	-10.256000	25.839705	0.000647	20.788923
1710.506957	-2.989400	3.409300	-10.191000	25.858382	0.000648	20.805788
1711.483237	-2.984100	3.409300	-10.172000	25.841887	0.000646	20.802020
1712.480188	-3.008900	3.408000	-10.253000	25.849243	0.000648	20.780012
1713.481713	-3.018500	3.407600	-10.285000	25.844702	0.000645	20.785882
1714.495986	-2.987300	3.407000	-10.176000	25.838037	0.000646	20.769229
1715.483760	-2.970100	3.407600	-10.120000	25.828304	0.000645	20.792168
1716.500925	-2.977700	3.408600	-10.148000	25.831608	0.000645	20.792168
1717.504977	-3.028200	3.405000	-10.310000	25.875154	0.000644	20.798929
1718.485043	-2.998500	3.405500	-10.211000	25.871704	0.000644	20.800204
1719.486741	-2.993000	3.405500	-10.191000	25.857813	0.000646	20.799526
1720.507613	-3.000100	3.404900	-10.214000	25.875675	0.000642	20.803720
1721.485563	-2.980500	3.404300	-10.144000	25.861963	0.000642	20.797531
1722.502321	-2.996500	3.404000	-10.197000	25.844792	0.000643	20.781705
1723.508220	-3.019800	3.404000	-10.277000	25.843506	0.000643	20.797956
1724.483874	-3.007600	3.403800	-10.236000	25.847225	0.000642	20.794581
1725.485202	-3.021500	3.401800	-10.278000	25.846289	0.000642	20.767561
1726.485845	-2.988600	3.404800	-10.174000	25.836474	0.000641	20.781410
1727.504873	-2.984100	3.403700	-10.156000	25.835498	0.000641	20.781378
1728.505521	-2.985200	3.403100	-10.158000	25.826855	0.000640	20.803516
1729.509098	-3.006600	3.401100	-10.225000	25.803181	0.000639	20.794433
1730.504905	-3.019700	3.401900	-10.271000	25.785244	0.000640	20.796804
1731.511298	-2.992500	3.402000	-10.180000	25.812793	0.000640	20.799821
1732.509872	-3.000500	3.402000	-10.207000	25.818709	0.000638	20.792488
1733.490794	-2.989200	3.401900	-10.168000	25.785684	0.000638	20.810522
1734.519564	-2.997600	3.400400	-10.191000	25.833781	0.000638	20.793878
1735.518697	-2.992600	3.401200	-10.177000	25.825447	0.000638	20.792618
1736.493183	-3.004600	3.401000	-10.217000	25.832145	0.000636	20.783225
1737.498128	-2.995500	3.399200	-10.181000	25.844564	0.000637	20.809451
1738.493823	-2.991800	3.400900	-10.174000	25.831421	0.000637	20.803835
1739.492196	-3.007100	3.400200	-10.223000	25.797737	0.000634	20.796551
1740.494911	-3.003000	3.399000	-10.207000	25.763953	0.000634	20.783479
1741.493761	-3.006000	3.398400	-10.215000	25.766403	0.000636	20.798742
1742.519325	-2.999700	3.397700	-10.191000	25.756417	0.000635	20.824272
1743.509405	-3.013700	3.398000	-10.240000	25.752095	0.000634	20.814242
1744.507878	-2.998100	3.397900	-10.186000	25.790208	0.000633	20.812696
1745.515801	-2.993900	3.396700	-10.168000	25.808691	0.000634	20.795701
1746.514418	-2.981200	3.396400	-10.124000	25.823690	0.000633	20.815509
1747.518162	-2.954600	3.398800	-10.041000	25.849651	0.000631	20.817406
1748.493395	-3.017500	3.395900	-10.245000	25.839389	0.000630	20.808994
1749.492895	-2.997800	3.396000	-10.179000	25.849407	0.000630	20.801513
1750.494660	-3.009000	3.395800	-10.218000	25.818229	0.000633	20.802911
1751.512478	-2.986000	3.396600	-10.140000	25.786970	0.000631	20.823194
1752.510292	-3.016700	3.393600	-10.237000	25.763994	0.000631	20.820978
1753.493554	-2.979900	3.395800	-10.118000	25.750720	0.000629	20.813809
1754.496992	-2.974900	3.396000	-10.102000	25.707787	0.000628	20.811937
1755.511756	-3.004500	3.392900	-10.192000	25.680456	0.000632	20.816727
1756.495662	-2.977200	3.394600	-10.104000	25.699095	0.000628	20.829758
1757.493601	-3.006300	3.394500	-10.204000	25.688335	0.000627	20.823692
1758.498856	-2.952400	3.394400	-10.020000	25.672137	0.000627	20.807898
1759.496660	-2.997700	3.392200	-10.168000	25.687838	0.000625	20.812762
1760.497564	-2.995900	3.393300	-10.165000	25.726254	0.000625	20.804881
1761.498305	-3.006200	3.392400	-10.197000	25.733230	0.000625	20.824216
1762.496851	-2.984200	3.393100	-10.125000	25.743273	0.000625	20.832406
1763.521228	-3.009000	3.392000	-10.205000	25.769162	0.000625	20.817634
1764.512710	-2.993300	3.391100	-10.150000	25.804386	0.000624	20.818403
1765.519184	-3.033000	3.389300	-10.279000	25.818050	0.000624	20.837818
1766.520864	-2.992100	3.391100	-10.146000	25.856878	0.000623	20.834622
1767.497584	-2.987300	3.390700	-10.128000	25.874268	0.000623	20.830281
1768.497959	-3.002400	3.390500	-10.179000	25.895557	0.000624	20.818003
1769.496927	-2.969800	3.390700	-10.069000	25.897119	0.000623	20.825736
1770.499918	-3.014200	3.388300	-10.212000	25.910384	0.000622	20.830527
1771.495689	-3.026900	3.389300	-10.258000	25.915282	0.000623	20.815059
1772.497401	-3.006100	3.387700	-10.182000	25.910091	0.000621	20.806999
1773.513586	-2.965700	3.389200	-10.050000	25.876954	0.000622	20.825867
1774.538721	-3.011100	3.388000	-10.200000	25.827092	0.000621	20.816556
1775.518500	-3.007600	3.386800	-10.185000	25.764776	0.000619	20.823186
1776.519312	-3.006900	3.386400	-10.182000	25.802490	0.000618	20.830723
1777.526469	-3.009200	3.387200	-10.191000	25.832032	0.000619	20.828156
1778.498538	-3.015200	3.386200	-10.209000	25.832179	0.000618	20.835415
1779.524319	-3.006700	3.386700	-10.182000	25.793546	0.000618	20.802773
1780.502878	-3.014300	3.384700	-10.202000	25.817644	0.000616	20.814177
1781.521493	-3.005600	3.385900	-10.176000	25.781136	0.000618	20.819704
1782.516835	-3.010900	3.385400	-10.192000	25.761545	0.000616	20.813777
1783.514131	-2.997400	3.385000	-10.145000	25.789762	0.000614	20.825998
1784.522258	-3.003200	3.385300	-10.166000	25.796297	0.000615	20.794631
1785.521777	-3.018300	3.384300	-10.212000	25.801759	0.000614	20.790634
1786.500530	-2.986900	3.383900	-10.106000	25.811916	0.000614	20.818854
1787.507229	-3.009200	3.382700	-10.178000	25.835484	0.000613	20.822141
1788.501161	-2.994200	3.383800	-10.130000	25.856464	0.000613	20.808128
1789.500909	-3.009500	3.381600	-10.177000	25.898146	0.000614	20.819655
1790.506217	-2.998100	3.384100	-10.145000	25.894191	0.000614	20.798139
1791.500636	-2.991500	3.382800	-10.119000	25.888405	0.000613	20.801335
1792.501648	-3.021100	3.381400	-10.214000	25.859882	0.000612	20.788329
1793.503549	-2.992500	3.382700	-10.122000	25.856610	0.000612	20.787887
1794.504583	-2.988000	3.382200	-10.106000	25.833621	0.000610	20.812208
1795.522661	-3.015200	3.381500	-10.195000	25.802247	0.000609	20.792073
1796.534432	-2.998100	3.381100	-10.136000	25.734322	0.000609	20.811088
1797.532951	-3.023000	3.378800	-10.212000	25.708611	0.000610	20.797591
1798.530030	-2.996900	3.381500	-10.133000	25.679741	0.000611	20.797517
1799.524107	-3.016700	3.379200	-10.193000	25.695865	0.000607	20.774831
1800.526370	-2.985700	3.379500	-10.089000	25.712575	0.000607	20.786874
1801.539109	-2.987800	3.378900	-10.094000	25.753204	0.000609	20.806821
1802.537271	-3.016200	3.377900	-10.187000	25.803143	0.000608	20.774954
1803.510525	-2.993400	3.377700	-10.108000	25.836062	0.000607	20.801858
1804.529660	-3.014200	3.377000	-10.178000	25.861624	0.000608	20.778698
1805.508563	-3.017700	3.377400	-10.190000	25.893646	0.000605	20.803755
1806.511883	-3.007800	3.376500	-10.155000	25.890814	0.000606	20.778625
1807.513469	-3.000400	3.378100	-10.135000	25.927027	0.000604	20.797837
1808.510320	-3.011900	3.377100	-10.170000	25.934765	0.000606	20.804760
1809.512027	-2.993300	3.376700	-10.106000	25.913518	0.000604	20.801907
1810.512220	-2.980800	3.378100	-10.068000	25.907146	0.000604	20.770849
1811.515752	-2.987100	3.377600	-10.088000	25.889577	0.000602	20.777856
1812.510942	-2.991700	3.376500	-10.100000	25.884206	0.000602	20.801384
1813.530479	-3.001500	3.375200	-10.130000	25.895493	0.000602	20.781428
1814.529768	-2.994700	3.376100	-10.109000	25.850491	0.000603	20.786955
1815.538402	-2.996900	3.376500	-10.118000	25.829762	0.000600	20.785393
1816.534112	-3.017100	3.373700	-10.178000	25.820241	0.000600	20.776483
1817.538447	-3.019800	3.373000	-10.184000	25.832538	0.000603	20.784094
1818.517097	-3.009600	3.374100	-10.154000	25.883717	0.000600	20.799945
1819.515786	-3.004000	3.373900	-10.133000	25.861061	0.000601	20.772444
1820.513897	-3.004000	3.372600	-10.130000	25.878143	0.000601	20.779173
1821.535879	-2.985700	3.374500	-10.074000	25.889496	0.000602	20.776826
1822.530572	-3.004900	3.371300	-10.129000	25.885158	0.000600	20.766778
1823.537631	-2.987400	3.372000	-10.073000	25.935456	0.000598	20.767997
1824.545283	-3.005300	3.372000	-10.132000	25.961789	0.000598	20.787339
1825.533829	-3.002100	3.371500	-10.120000	25.970406	0.000598	20.756167
1826.533736	-3.009200	3.371700	-10.145000	25.962481	0.000595	20.788034
1827.538837	-3.007800	3.369800	-10.135000	25.969910	0.000596	20.769419
1828.536154	-3.001700	3.369700	-10.114000	25.950087	0.000596	20.777006
1829.537124	-3.001900	3.370400	-10.117000	25.935595	0.000594	20.764817
1830.534095	-3.003800	3.370000	-10.122000	25.887657	0.000594	20.764073
1831.518426	-3.008900	3.370900	-10.141000	25.860281	0.000592	20.769763
1832.537543	-2.986600	3.370500	-10.065000	25.859540	0.000594	20.772812
1833.538714	-2.995000	3.368500	-10.087000	25.841547	0.000591	20.749047
1834.547009	-2.983400	3.369400	-10.051000	25.828705	0.000592	20.778821
1835.546183	-2.978700	3.369100	-10.035000	25.874587	0.000592	20.743831
1836.520986	-3.001500	3.368300	-10.109000	25.867483	0.000592	20.760877
1837.520333	-3.015600	3.366500	-10.151000	25.862739	0.000588	20.773654
1838.527725	-3.009000	3.367500	-10.132000	25.860249	0.000590	20.741280
1839.518632	-3.018100	3.366100	-10.158000	25.871552	0.000591	20.764490
1840.521418	-2.999200	3.365700	-10.093000	25.845722	0.000590	20.769837
1841.523103	-3.003500	3.366700	-10.111000	25.817946	0.000590	20.740986
1842.522399	-3.020600	3.365800	-10.166000	25.857091	0.000589	20.756127
1843.521015	-3.024000	3.363900	-10.171000	25.865270	0.000588	20.771930
1844.525108	-2.978200	3.366300	-10.023000	25.876133	0.000586	20.751548
1845.521307	-2.989200	3.365800	-10.061000	25.838788	0.000587	20.748646
1846.521987	-2.960300	3.366800	-9.965700	25.841173	0.000588	20.774750
1847.522256	-2.985300	3.364800	-10.044000	25.816139	0.000586	20.762405
1848.529644	-3.000200	3.363800	-10.091000	25.815195	0.000585	20.743912
1849.540840	-3.012700	3.364100	-10.134000	25.822919	0.000585	20.762103
1850.523373	-2.996700	3.364400	-10.081000	25.894533	0.000583	20.762446
1851.544846	-2.995000	3.362900	-10.071000	25.910581	0.000584	20.764343
1852.549942	-3.017100	3.362100	-10.143000	25.929761	0.000583	20.766542
1853.524134	-3.010200	3.362400	-10.120000	25.959120	0.000583	20.756683
1854.525464	-3.004900	3.362900	-10.104000	25.972384	0.000582	20.740610
1855.526369	-2.991800	3.363200	-10.061000	25.976534	0.000581	20.759953
1856.524754	-3.008200	3.362000	-10.112000	25.947199	0.000581	20.771733
1857.522953	-2.991900	3.362100	-10.057000	25.921038	0.000579	20.748295
1858.545742	-2.974800	3.362700	-10.002000	25.887828	0.000580	20.730104
1859.547544	-3.015700	3.361100	-10.135000	25.891083	0.000579	20.737168
1860.528244	-2.996800	3.360500	-10.070000	25.894680	0.000580	20.725608
1861.545533	-2.999100	3.360300	-10.078000	25.907504	0.000579	20.772632
1862.551153	-3.011200	3.359100	-10.114000	25.894883	0.000580	20.744779
1863.555665	-2.990500	3.360400	-10.047000	25.904005	0.000577	20.741141
1864.559678	-3.004400	3.360900	-10.097000	25.874962	0.000579	20.739465
1865.549873	-2.989400	3.359700	-10.042000	25.834695	0.000579	20.748801
1866.561367	-2.994400	3.358300	-10.055000	25.818150	0.000577	20.741664
1867.529283	-3.011400	3.358300	-10.112000	25.785173	0.000576	20.755481
1868.531577	-3.017100	3.357900	-10.129000	25.841026	0.000577	20.758007
1869.529932	-2.997800	3.357700	-10.065000	25.844998	0.000576	20.749668
1870.535145	-2.985300	3.358100	-10.025000	25.903200	0.000576	20.744126
1871.530894	-2.975500	3.357300	-9.989000	25.948143	0.000574	20.759879
1872.537498	-3.000200	3.356100	-10.068000	25.979309	0.000576	20.767008
1873.533680	-3.003700	3.357500	-10.084000	25.953831	0.000572	20.745204
1874.552810	-3.010800	3.356500	-10.105000	25.947793	0.000572	20.733922
1875.555764	-2.999200	3.356000	-10.064000	25.917636	0.000573	20.741084
1876.535035	-2.988200	3.356900	-10.030000	25.908546	0.000572	20.737168
1877.550732	-3.007000	3.354200	-10.085000	25.935246	0.000573	20.756879
1878.554156	-2.999100	3.353500	-10.057000	25.923569	0.000573	20.751312
1879.558566	-2.985500	3.354600	-10.014000	25.936694	0.000571	20.731306
1880.528085	-2.980600	3.356200	-10.003000	25.969332	0.000570	20.734225
1881.572822	-3.010600	3.352500	-10.092000	25.994028	0.000570	20.746708
1882.531799	-2.990400	3.354100	-10.030000	26.009130	0.000570	20.748605
1883.534336	-2.978900	3.354600	-9.991200	26.024623	0.000569	20.735721
1884.529927	-3.021700	3.351300	-10.125000	26.025274	0.000570	20.732581
1885.534648	-3.003100	3.352600	-10.068000	26.022589	0.000570	20.733203
1886.545405	-3.008500	3.351700	-10.083000	26.031905	0.000567	20.721225
1887.532728	-3.012400	3.352600	-10.098000	26.058007	0.000568	20.737021
1888.550981	-3.007600	3.350800	-10.077000	26.085540	0.000568	20.730545
1889.551579	-2.986600	3.352500	-10.011000	26.101951	0.000565	20.747509
1890.534481	-3.018500	3.350000	-10.111000	26.108257	0.000567	20.760958
1891.538722	-3.004700	3.350800	-10.067000	26.109306	0.000567	20.725975
1892.567579	-2.992000	3.351700	-10.027000	26.138490	0.000566	20.723530
1893.560988	-3.008900	3.350100	-10.079000	26.180413	0.000563	20.731992
1894.539423	-3.002100	3.350000	-10.056000	26.176719	0.000565	20.730651
1895.536393	-2.990100	3.349500	-10.014000	26.173115	0.000562	20.721339
1896.539122	-2.999900	3.349000	-10.046000	26.168421	0.000564	20.727528
1897.542044	-2.987100	3.350100	-10.006000	26.182829	0.000562	20.744851
1898.540540	-2.991600	3.349200	-10.018000	26.173758	0.000562	20.728624
1899.552220	-2.998000	3.348400	-10.037000	26.187750	0.000563	20.712337
1900.541533	-2.998600	3.349300	-10.042000	26.165345	0.000560	20.711634
1901.541553	-2.974900	3.349100	-9.962100	26.128189	0.000561	20.713654
1902.541241	-2.988100	3.347700	-10.001000	26.119573	0.000560	20.726334
1903.539985	-2.991900	3.347700	-10.015000	26.119849	0.000562	20.722818
1904.557033	-3.013400	3.346300	-10.082000	26.111673	0.000561	20.723137
1905.574340	-3.000900	3.347200	-10.044000	26.124991	0.000559	20.709018
1906.568729	-2.996800	3.346900	-10.028000	26.162661	0.000557	20.728378
1907.562411	-2.987400	3.346300	-9.995300	26.176027	0.000557	20.729481
1908.562270	-2.992200	3.345800	-10.011000	26.183259	0.000556	20.727266
1909.561217	-3.004900	3.345600	-10.053000	26.204119	0.000557	20.713612
1910.563655	-2.978300	3.346900	-9.966800	26.165605	0.000558	20.730388
1911.542977	-3.011700	3.346200	-10.077000	26.128847	0.000556	20.729015
1912.540576	-2.997400	3.346000	-10.028000	26.094375	0.000555	20.713342
1913.548353	-2.992700	3.345400	-10.011000	26.128180	0.000553	20.701316
1914.542195	-3.004800	3.343900	-10.047000	26.146364	0.000553	20.711527
1915.553718	-3.016100	3.344100	-10.085000	26.153141	0.000552	20.729244
1916.540228	-3.018200	3.342000	-10.086000	26.143589	0.000551	20.704471
1917.541844	-2.991900	3.342900	-9.999900	26.143508	0.000550	20.706760
1918.541689	-3.001000	3.343300	-10.032000	26.122379	0.000553	20.721092
1919.541830	-2.984400	3.342900	-9.975500	26.147689	0.000553	20.706220
1920.540568	-3.013200	3.341400	-10.067000	26.136616	0.000553	20.720225
1921.560097	-3.013400	3.342000	-10.070000	26.151147	0.000549	20.723446
1922.565130	-3.014400	3.341200	-10.071000	26.157362	0.000552	20.721157
1923.567568	-2.999500	3.342300	-10.024000	26.163643	0.000549	20.720830
1924.564101	-3.016200	3.340400	-10.075000	26.185918	0.000549	20.728041
1925.561560	-3.000900	3.340200	-10.023000	26.170509	0.000548	20.712555
1926.541241	-2.975400	3.341000	-9.939600	26.167002	0.000550	20.698125
1927.570116	-3.008900	3.338800	-10.045000	26.183518	0.000549	20.695755
1928.567297	-3.026000	3.339100	-10.102000	26.181442	0.000548	20.725914
1929.568422	-3.012700	3.339100	-10.058000	26.160250	0.000545	20.710781
1930.554032	-3.019700	3.336800	-10.074000	26.114111	0.000545	20.716103
1931.548123	-2.998100	3.339400	-10.011000	26.088856	0.000546	20.707797
1932.544757	-2.993000	3.339200	-9.991900	26.084560	0.000545	20.705851
1933.548277	-3.012900	3.338400	-10.057000	26.092020	0.000545	20.711925
1934.550041	-2.985400	3.338200	-9.965300	26.083306	0.000544	20.696530
1935.546891	-2.984000	3.337000	-9.955200	26.110872	0.000545	20.721858
1936.548387	-3.017200	3.335900	-10.063000	26.099530	0.000542	20.706193
1937.552242	-3.011300	3.336000	-10.045000	26.115322	0.000545	20.680808
1938.550932	-3.019000	3.335600	-10.068000	26.125036	0.000542	20.678714
1939.571153	-3.008000	3.335900	-10.034000	26.130210	0.000541	20.695295
1940.570297	-2.993000	3.335000	-9.980600	26.100131	0.000540	20.719601
1941.555970	-2.994700	3.334600	-9.985200	26.081385	0.000541	20.702661
1942.551474	-2.986900	3.335400	-9.960700	26.083419	0.000539	20.699963
1943.552156	-3.004600	3.334300	-10.017000	26.104191	0.000541	20.672467
1944.559147	-2.993800	3.334400	-9.981600	26.118103	0.000537	20.692138
1945.553412	-2.998700	3.334200	-9.996600	26.164763	0.000538	20.682123
1946.550421	-3.002900	3.332800	-10.006000	26.158441	0.000539	20.697583
1947.572694	-2.977600	3.333900	-9.925200	26.136881	0.000537	20.691091
1948.572744	-3.008500	3.333100	-10.027000	26.114808	0.000537	20.670807
1949.566461	-2.988300	3.332700	-9.957000	26.076819	0.000535	20.685743
1950.577723	-3.033200	3.330500	-10.101000	26.074183	0.000536	20.663652
1951.553716	-3.020700	3.330400	-10.059000	26.023744	0.000534	20.672719
1952.569153	-3.013000	3.329800	-10.032000	25.999578	0.000535	20.680682
1953.574383	-3.029900	3.330100	-10.088000	26.000310	0.000533	20.678098
1954.551801	-2.983700	3.332100	-9.941100	25.985126	0.000533	20.678965
1955.558521	-2.970200	3.332000	-9.895200	25.990480	0.000532	20.676757
1956.556829	-3.006400	3.330000	-10.010000	25.994931	0.000534	20.671271
1957.572367	-3.032800	3.327800	-10.092000	25.970812	0.000532	20.703941
1958.575560	-3.011000	3.330200	-10.026000	25.946498	0.000532	20.669079
1959.573106	-3.010500	3.329200	-10.021000	25.903459	0.000530	20.694596
1960.571652	-2.994400	3.330300	-9.971300	25.906779	0.000530	20.660470
1961.576804	-3.013800	3.329000	-10.032000	25.960657	0.000528	20.672399
1962.556604	-2.985700	3.329800	-9.940500	25.982326	0.000529	20.670935
1963.554162	-2.994700	3.328200	-9.965500	26.016680	0.000530	20.682692
1964.557850	-2.989100	3.327900	-9.946800	26.059006	0.000527	20.681596
1965.559062	-2.985800	3.328300	-9.936700	26.059828	0.000529	20.684319
1966.556466	-3.013200	3.327100	-10.024000	26.043221	0.000526	20.674270
1967.558715	-3.000200	3.326000	-9.977400	26.070064	0.000527	20.662832
1968.562216	-2.987100	3.327600	-9.939000	26.114699	0.000529	20.670697
1969.560515	-3.003800	3.326000	-9.989500	26.115902	0.000526	20.662897
1970.559044	-3.000000	3.326200	-9.976700	26.142125	0.000527	20.672651
1971.564749	-3.003800	3.326300	-9.990600	26.168582	0.000526	20.672683
1972.561433	-2.985400	3.325400	-9.926900	26.171315	0.000526	20.684440
1973.559459	-2.992400	3.325300	-9.950100	26.158851	0.000525	20.660059
1974.563532	-3.020900	3.323300	-10.038000	26.154653	0.000525	20.678602
1975.562860	-3.001300	3.324600	-9.978100	26.097937	0.000523	20.662863
1976.572360	-3.008900	3.324300	-10.002000	26.080428	0.000523	20.651433
1977.564131	-2.994200	3.323000	-9.947800	26.110280	0.000523	20.672421
1978.562984	-2.983100	3.324800	-9.917500	26.147290	0.000525	20.666461
1979.590715	-3.004300	3.322300	-9.980500	26.085578	0.000522	20.675102
1980.585192	-2.980300	3.322900	-9.902900	26.086896	0.000520	20.658881
1981.585690	-2.990000	3.322800	-9.934600	26.088735	0.000522	20.661203
1982.584692	-3.004300	3.320600	-9.975400	26.126168	0.000522	20.665626
1983.581002	-3.010900	3.321400	-9.999200	26.153066	0.000518	20.657565
1984.586718	-2.996800	3.321800	-9.954200	26.141269	0.000518	20.680801
1985.581313	-3.011000	3.322200	-10.002000	26.159997	0.000519	20.646036
1986.583746	-2.983600	3.322000	-9.910600	26.153521	0.000519	20.655177
1987.592121	-3.015700	3.320100	-10.009000	26.153814	0.000516	20.666378
1988.581131	-2.987800	3.321100	-9.920800	26.145450	0.000517	20.665086
1989.593276	-2.995300	3.319000	-9.940000	26.146101	0.000516	20.665266
1990.583279	-3.007800	3.321000	-9.988300	26.150438	0.000516	20.660140
1991.570369	-2.991400	3.318900	-9.927600	26.152113	0.000516	20.676050
1992.586645	-3.034000	3.317800	-10.066000	26.119497	0.000517	20.650386
1993.585876	-2.997500	3.319200	-9.948400	26.127193	0.000516	20.663811
1994.571346	-3.018500	3.318500	-10.016000	26.143668	0.000514	20.660924
1995.575505	-2.993000	3.317700	-9.928300	26.161795	0.000512	20.665863
1996.567913	-3.014800	3.318000	-10.002000	26.177122	0.000513	20.648546
1997.571352	-2.997000	3.317200	-9.940700	26.191953	0.000511	20.651121
1998.574455	-3.003100	3.315900	-9.956800	26.193711	0.000513	20.658578
1999.568281	-2.999000	3.315600	-9.942400	26.203448	0.000512	20.660303
2000.572405	-2.986500	3.316600	-9.903300	26.193987	0.000510	20.680195
2001.590324	-3.002600	3.316300	-9.956500	26.185770	0.000510	20.663876
2002.604143	-3.035700	3.313400	-10.058000	26.168157	0.000511	20.648071
2003.592522	-2.996500	3.314100	-9.928600	26.209135	0.000510	20.657482
2004.590767	-3.024600	3.315000	-10.025000	26.232361	0.000507	20.653320
2005.578282	-2.983600	3.315500	-9.891400	26.233280	0.000508	20.650450
2006.572363	-2.985800	3.313900	-9.893500	26.235070	0.000509	20.675011
2007.576491	-2.996700	3.314200	-9.930900	26.207402	0.000506	20.664750
2008.575386	-3.008000	3.313700	-9.967200	26.200300	0.000508	20.666148
2009.598913	-3.007600	3.313200	-9.963800	26.186779	0.000508	20.654457
2010.577239	-2.978700	3.313800	-9.869800	26.129397	0.000503	20.655593
2011.589724	-3.014500	3.311500	-9.981700	26.110074	0.000504	20.663679
2012.593874	-3.008100	3.311600	-9.959300	26.088294	0.000505	20.650802
2013.589372	-3.016400	3.310300	-9.983500	26.100116	0.000504	20.656991
2014.601069	-2.976300	3.313000	-9.858500	26.117674	0.000505	20.635750
2015.590753	-2.997400	3.310200	-9.921300	26.139999	0.000505	20.645381
2016.601359	-2.994000	3.311400	-9.911900	26.125744	0.000505	20.649551
2017.604204	-2.983700	3.310100	-9.874500	26.112035	0.000502	20.656165
2018.576093	-3.001300	3.309800	-9.932300	26.162632	0.000502	20.646313
2019.582302	-2.995200	3.310000	-9.912100	26.160021	0.000502	20.664080
2020.600165	-2.983700	3.310900	-9.875600	26.171126	0.000500	20.638251
2021.579124	-2.978500	3.310100	-9.858200	26.175893	0.000500	20.672444
2022.596236	-2.991900	3.309600	-9.900000	26.199071	0.000499	20.651161
2023.610154	-3.013000	3.309000	-9.968300	26.242505	0.000499	20.676319
2024.603526	-2.994300	3.308200	-9.904600	26.261874	0.000499	20.642674
2025.598657	-3.003700	3.308400	-9.935500	26.238681	0.000499	20.652085
2026.596748	-3.020200	3.307600	-9.988300	26.289541	0.000498	20.662420
2027.575718	-3.004700	3.306100	-9.933500	26.313701	0.000497	20.673899
2028.598711	-3.003600	3.306200	-9.929600	26.315994	0.000497	20.663400
2029.611070	-3.016900	3.306100	-9.972900	26.307893	0.000494	20.653835
2030.596172	-2.989500	3.306000	-9.882800	26.308267	0.000497	20.657056
2031.602721	-3.017200	3.304900	-9.969800	26.305916	0.000495	20.662280
2032.610230	-2.974200	3.305300	-9.829900	26.257017	0.000494	20.648226
2033.595833	-3.001400	3.304200	-9.916300	26.233946	0.000495	20.665346
2034.608304	-3.031700	3.304000	-10.015000	26.256969	0.000493	20.667145
2035.582959	-3.029600	3.303900	-10.008000	26.276964	0.000492	20.652150
2036.582876	-3.011500	3.303700	-9.948200	26.272986	0.000492	20.657162
2037.579799	-2.996400	3.304800	-9.902100	26.276736	0.000494	20.653818
2038.603732	-2.991400	3.302400	-9.877300	26.290989	0.000492	20.668617
2039.585454	-3.018000	3.302400	-9.965900	26.310902	0.000491	20.665870
2040.601348	-3.009300	3.302700	-9.936400	26.315026	0.000491	20.679025
2041.605673	-3.002300	3.303300	-9.917400	26.349370	0.000490	20.648103
2042.595764	-2.990900	3.302600	-9.876000	26.352152	0.000488	20.636673
2043.603296	-3.001800	3.301400	-9.909600	26.375269	0.000489	20.659435
2044.608969	-2.999900	3.301600	-9.903400	26.354193	0.000488	20.643467
2045.625192	-2.964300	3.303100	-9.790400	26.349573	0.000487	20.648781
2046.603457	-3.019900	3.299800	-9.963800	26.338567	0.000487	20.663801
2047.601553	-3.031700	3.298700	-9.999500	26.321485	0.000486	20.661806
2048.606142	-2.996800	3.301200	-9.891600	26.336712	0.000486	20.648659
2049.585228	-2.996100	3.300000	-9.886500	26.383614	0.000486	20.666875
2050.591878	-2.982900	3.300200	-9.842100	26.390967	0.000487	20.668575
2051.584069	-3.018200	3.297600	-9.951000	26.424560	0.000485	20.672467
2052.616913	-3.018100	3.297800	-9.951300	26.402843	0.000485	20.666760
2053.617109	-2.992800	3.299300	-9.872800	26.399410	0.000482	20.674217
2054.585446	-2.997600	3.298600	-9.886400	26.413685	0.000483	20.677659
2055.624373	-3.000200	3.298400	-9.894900	26.430904	0.000484	20.677896
2056.590049	-3.002200	3.297100	-9.897500	26.464178	0.000480	20.677675
2057.589408	-3.000000	3.297300	-9.890800	26.489847	0.000481	20.658903
2058.585830	-3.000800	3.295300	-9.887000	26.490018	0.000480	20.685156
2059.589970	-2.993400	3.295800	-9.865200	26.496508	0.000482	20.684567
2060.588284	-2.986400	3.295900	-9.841400	26.517588	0.000478	20.672564
2061.593438	-2.963200	3.298100	-9.771700	26.499688	0.000482	20.672589
2062.588696	-3.015500	3.294200	-9.932600	26.471685	0.000477	20.668624
2063.594890	-3.011600	3.294700	-9.920400	26.469602	0.000479	20.648510
2064.607209	-3.004000	3.294700	-9.895500	26.477370	0.000478	20.657741
2065.611684	-2.990700	3.294600	-9.852400	26.434271	0.000477	20.677960
2066.631240	-3.005800	3.293600	-9.898600	26.399962	0.000475	20.660545
2067.592640	-3.006800	3.294200	-9.903700	26.334987	0.000476	20.656408
2068.592405	-2.988000	3.295000	-9.844600	26.326169	0.000474	20.684533
2069.591251	-3.000700	3.292500	-9.879000	26.311177	0.000474	20.673259
2070.591589	-2.978300	3.293300	-9.807600	26.326998	0.000474	20.675409
2071.589956	-2.988300	3.292700	-9.837800	26.346269	0.000474	20.664903
2072.592389	-2.990800	3.292200	-9.845200	26.376519	0.000473	20.664960
2073.589910	-2.989500	3.292700	-9.842700	26.385475	0.000472	20.660684
2074.599189	-2.992700	3.290900	-9.848200	26.395586	0.000472	20.660888
2075.592427	-2.981300	3.291400	-9.811700	26.346301	0.000472	20.684852
2076.589662	-2.990600	3.290900	-9.840100	26.332074	0.000470	20.689046
2077.619381	-3.012400	3.290100	-9.910200	26.371606	0.000469	20.676144
2078.592574	-2.984600	3.289400	-9.816800	26.407013	0.000466	20.678066
2079.617311	-3.015000	3.289500	-9.915700	26.449471	0.000470	20.673324
2080.610377	-3.009600	3.287800	-9.893100	26.465315	0.000469	20.674076
2081.617510	-2.998300	3.289300	-9.861300	26.442403	0.000466	20.676651
2082.613362	-3.022400	3.288300	-9.937100	26.417351	0.000467	20.668066
2083.590812	-2.994800	3.287600	-9.844700	26.411438	0.000467	20.683462
2084.595389	-2.990200	3.288100	-9.830000	26.466193	0.000466	20.675907
2085.590924	-3.008700	3.287800	-9.890300	26.462273	0.000466	20.686666
2086.623074	-2.983800	3.286800	-9.805900	26.462143	0.000463	20.695545
2087.616103	-3.010500	3.285600	-9.890700	26.389899	0.000463	20.689315
2088.591465	-3.002500	3.285300	-9.863200	26.343445	0.000462	20.686249
2089.596553	-2.999700	3.285100	-9.852800	26.348724	0.000461	20.674484
2090.594139	-2.982000	3.285700	-9.797100	26.334497	0.000461	20.668246
2091.596140	-2.990600	3.285200	-9.823800	26.309768	0.000462	20.691285
2092.598485	-2.988600	3.285800	-9.819200	26.373411	0.000461	20.683649
2093.595464	-3.028900	3.284500	-9.947200	26.399855	0.000458	20.673241
2094.596020	-3.006900	3.284000	-9.873900	26.440825	0.000458	20.677435
2095.609371	-2.983000	3.284800	-9.796600	26.444224	0.000457	20.684647
2096.619297	-3.006200	3.283500	-9.868100	26.489169	0.000461	20.669129
2097.617845	-3.003900	3.283900	-9.864200	26.521092	0.000457	20.695529
2098.624495	-3.001900	3.281800	-9.851300	26.549028	0.000457	20.696109
2099.605295	-3.011700	3.282800	-9.885400	26.545677	0.000458	20.697008
2100.601132	-3.009300	3.281700	-9.874600	26.546816	0.000458	20.703843
2101.619151	-2.991000	3.281700	-9.814100	26.567896	0.000456	20.688522
2102.626058	-2.982200	3.281900	-9.785300	26.596473	0.000454	20.677893
2103.599623	-3.008200	3.281700	-9.871300	26.621919	0.000455	20.687352
2104.600952	-2.983400	3.281900	-9.790000	26.641201	0.000453	20.692986
2105.600112	-2.998700	3.281400	-9.839500	26.626636	0.000453	20.701578
2106.599495	-3.002200	3.281400	-9.849700	26.611917	0.000454	20.681564
2107.600964	-3.000100	3.280300	-9.840400	26.559560	0.000454	20.697212
2108.599196	-3.004600	3.280300	-9.855100	26.532876	0.000453	20.704055
2109.602407	-3.018100	3.279400	-9.897200	26.489462	0.000452	20.698823
2110.602138	-3.012800	3.277300	-9.873000	26.484639	0.000451	20.703458
2111.631351	-2.998700	3.279400	-9.833500	26.476790	0.000450	20.707898
2112.617103	-2.995800	3.279000	-9.822100	26.468258	0.000450	20.709279
2113.598325	-3.022900	3.277800	-9.907000	26.449234	0.000449	20.701063
2114.601634	-2.979400	3.279000	-9.767400	26.458726	0.000449	20.719139
2115.618396	-3.018400	3.276600	-9.889300	26.469795	0.000448	20.719360
2116.615998	-2.990800	3.278100	-9.803100	26.413194	0.000447	20.696607
2117.615288	-2.990800	3.276000	-9.797200	26.401871	0.000449	20.697555
2118.601687	-2.987200	3.276700	-9.787300	26.465907	0.000445	20.712607
2119.602655	-2.998500	3.276000	-9.822100	26.475269	0.000445	20.724388
2120.601352	-2.997800	3.274800	-9.816300	26.510201	0.000445	20.701177
2121.602500	-3.005300	3.274900	-9.841200	26.551987	0.000444	20.706197
2122.601974	-2.984800	3.274500	-9.772600	26.590316	0.000443	20.720071
2123.602626	-3.001200	3.275000	-9.827800	26.631311	0.000443	20.696794
2124.605097	-2.994700	3.275000	-9.807100	26.655610	0.000443	20.705101
2125.603526	-2.997600	3.274400	-9.813700	26.669661	0.000443	20.726816
2126.601989	-3.007300	3.272900	-9.841600	26.652039	0.000440	20.708625
2127.601389	-3.004100	3.272200	-9.829100	26.632352	0.000440	20.724870
2128.624541	-2.981600	3.273200	-9.758700	26.615412	0.000440	20.713056
2129.603322	-3.016000	3.271300	-9.865200	26.603612	0.000438	20.722057
2130.605936	-2.989000	3.271500	-9.777500	26.572392	0.000438	20.709164
2131.604547	-3.004500	3.271100	-9.826000	26.618364	0.000435	20.699901
2132.609896	-2.998200	3.272300	-9.810000	26.611411	0.000436	20.719465
2133.606864	-2.985100	3.272800	-9.767800	26.627179	0.000436	20.698331
2134.605973	-2.982500	3.270100	-9.751800	26.663424	0.000436	20.709638
2135.615217	-2.985300	3.270900	-9.763600	26.680980	0.000437	20.696467
2136.605799	-2.979200	3.270600	-9.742600	26.699545	0.000435	20.736944
2137.642355	-2.973900	3.269800	-9.723300	26.743129	0.000434	20.703474
2138.610629	-2.984600	3.270600	-9.761000	26.732038	0.000433	20.710815
2139.611297	-3.016000	3.268100	-9.855300	26.744007	0.000433	20.717159
2140.634457	-2.995800	3.267400	-9.788100	26.774036	0.000432	20.724591
2141.639115	-2.995000	3.266900	-9.783200	26.797599	0.000430	20.740697
2142.613750	-2.989800	3.267900	-9.769100	26.832521	0.000433	20.731712
2143.610841	-3.000600	3.267500	-9.803000	26.858709	0.000431	20.714420
2144.628057	-2.990400	3.266800	-9.768200	26.871864	0.000428	20.731916
2145.611210	-3.023600	3.265700	-9.872400	26.862530	0.000428	20.722531
2146.614136	-3.002500	3.266300	-9.805900	26.840748	0.000429	20.733821
2147.613801	-3.014700	3.264500	-9.840400	26.756025	0.000428	20.714543
2148.619464	-2.986600	3.266300	-9.754400	26.696340	0.000427	20.703375
2149.628375	-3.003900	3.263800	-9.802800	26.666871	0.000427	20.728752
2150.648760	-2.986400	3.264200	-9.747600	26.637384	0.000426	20.724239
2151.619905	-2.989600	3.265500	-9.761400	26.615216	0.000425	20.732300
2152.616482	-2.996000	3.262900	-9.773900	26.619616	0.000426	20.723446
2153.618686	-3.023700	3.263300	-9.866100	26.592039	0.000423	20.740770
2154.618601	-3.001900	3.262600	-9.793300	26.613614	0.000423	20.737802
2155.614520	-2.999100	3.262700	-9.783200	26.650111	0.000422	20.735611
2156.640660	-2.991500	3.261300	-9.755600	26.668229	0.000420	20.761887
2157.644372	-3.006100	3.263600	-9.808900	26.659072	0.000420	20.732291
2158.640060	-3.018600	3.261800	-9.845000	26.639815	0.000422	20.733796
2159.615584	-3.008800	3.261100	-9.811500	26.639872	0.000419	20.729111
2160.615125	-3.013100	3.260900	-9.824500	26.663178	0.000419	20.734997
2161.622581	-3.004900	3.260700	-9.797300	26.694835	0.000418	20.727467
2162.616821	-3.012200	3.259200	-9.816200	26.683467	0.000418	20.737850
2163.644037	-3.014700	3.258700	-9.822500	26.732077	0.000417	20.734564
2164.643265	-2.999300	3.260300	-9.777800	26.773953	0.000415	20.732569
2165.633929	-3.003400	3.258600	-9.785400	26.787377	0.000416	20.753179
2166.636179	-2.984800	3.261000	-9.732000	26.828088	0.000414	20.747644
2167.619663	-3.012000	3.258000	-9.811800	26.843682	0.000414	20.752419
2168.619240	-3.018400	3.257700	-9.832300	26.850243	0.000414	20.727246
2169.639775	-3.004200	3.256300	-9.781800	26.872130	0.000413	20.752574
2170.623962	-2.987200	3.256600	-9.727500	26.884391	0.000414	20.746884
2171.634480	-2.993400	3.257000	-9.748300	26.922073	0.000412	20.746368
2172.620329	-2.978200	3.255800	-9.694100	26.933138	0.000412	20.739477
2173.619790	-3.010600	3.255100	-9.798800	26.939666	0.000411	20.756947
2174.620882	-2.975200	3.255900	-9.686100	26.948406	0.000409	20.747243
2175.617795	-3.008800	3.254800	-9.792200	26.970096	0.000409	20.742501
2176.618365	-2.966800	3.255800	-9.658300	26.945040	0.000409	20.764248
2177.624749	-2.995000	3.255100	-9.747400	26.898456	0.000409	20.735895
2178.619450	-2.975900	3.254600	-9.684500	26.863983	0.000409	20.743433
2179.656958	-3.022800	3.251100	-9.826300	26.901984	0.000407	20.751298
2180.618424	-2.993100	3.253100	-9.735900	26.881114	0.000407	20.745959
2181.621793	-2.983300	3.252600	-9.702200	26.905593	0.000407	20.760618
2182.620740	-3.011300	3.251300	-9.789100	26.884675	0.000406	20.736737
2183.619750	-2.982700	3.251900	-9.697700	26.854324	0.000404	20.761697
2184.623116	-3.001400	3.251600	-9.758300	26.847478	0.000404	20.756235
2185.621319	-2.987800	3.251300	-9.713900	26.842933	0.000403	20.745501
2186.641706	-2.996700	3.251400	-9.742800	26.827428	0.000402	20.739868
2187.624319	-2.994700	3.250500	-9.732800	26.849494	0.000401	20.763004
2188.625523	-3.008400	3.249300	-9.774100	26.863251	0.000403	20.769250
2189.623414	-2.987000	3.249300	-9.704300	26.892512	0.000402	20.740825
2190.647353	-3.002800	3.248500	-9.752900	26.905520	0.000401	20.753905
2191.622992	-2.996300	3.248500	-9.732900	26.905073	0.000399	20.769577
2192.626598	-2.997800	3.249600	-9.740800	26.933917	0.000398	20.760650
2193.629344	-3.001500	3.248100	-9.746600	26.942259	0.000401	20.762873
2194.635401	-3.007100	3.247200	-9.763700	26.926974	0.000397	20.757935
2195.628260	-3.024100	3.245600	-9.813400	26.921771	0.000396	20.755074
2196.626673	-3.000400	3.246100	-9.738600	26.929804	0.000397	20.784014
2197.625114	-2.998700	3.246500	-9.734400	26.943161	0.000396	20.775635
2198.626720	-2.980400	3.245400	-9.671000	26.944429	0.000394	20.759840
2199.644023	-3.006300	3.246200	-9.757800	26.912544	0.000396	20.764287
2200.644672	-3.008200	3.245100	-9.760600	26.896487	0.000395	20.752409
2201.653546	-3.025100	3.244500	-9.813900	26.884397	0.000394	20.761590
2202.641715	-3.019000	3.243500	-9.791100	26.889267	0.000393	20.776444
2203.624146	-2.992100	3.244700	-9.707900	26.895625	0.000392	20.754861
2204.626915	-2.995900	3.243000	-9.714000	26.954745	0.000390	20.768318
2205.628435	-3.008600	3.242700	-9.754600	26.959265	0.000391	20.772389
2206.630440	-2.978400	3.242200	-9.655700	26.989889	0.000387	20.779002
2207.651519	-2.998700	3.241700	-9.719500	27.010586	0.000391	20.772789
2208.655599	-2.998400	3.242400	-9.720900	27.046501	0.000389	20.761017
2209.658057	-3.030000	3.239900	-9.815000	27.061442	0.000388	20.771775
2210.641295	-3.010000	3.239500	-9.749700	27.068668	0.000386	20.779991
2211.627148	-2.997500	3.239900	-9.711300	27.051971	0.000386	20.764622
2212.626132	-3.030300	3.239100	-9.814000	27.054930	0.000387	20.782771
2213.626957	-3.010300	3.238700	-9.748600	27.067416	0.000386	20.768775
2214.632696	-2.987200	3.239900	-9.677100	27.047858	0.000383	20.775184
2215.627611	-3.011600	3.238000	-9.750500	27.074439	0.000383	20.786270
2216.630285	-3.013900	3.238300	-9.758900	27.058645	0.000385	20.793145
2217.629271	-3.032100	3.235100	-9.807900	27.026609	0.000384	20.790799
2218.634880	-2.985300	3.238400	-9.666600	26.995043	0.000382	20.795565
2219.649750	-3.016500	3.236400	-9.761100	27.011448	0.000383	20.778871
2220.651520	-2.997300	3.238000	-9.703500	27.018374	0.000382	20.787259
2221.630454	-2.976600	3.237700	-9.636900	27.046175	0.000381	20.793881
2222.629391	-3.009800	3.234600	-9.732300	27.080389	0.000379	20.768546
2223.632993	-3.002500	3.235500	-9.713600	27.071911	0.000381	20.769028
2224.633637	-3.015400	3.234500	-9.751000	27.078390	0.000380	20.764164
2225.630996	-3.007300	3.234400	-9.725700	27.011691	0.000380	20.793341
2226.651379	-3.021800	3.232700	-9.767600	26.976572	0.000378	20.778887
2227.655190	-3.007800	3.234400	-9.727200	26.938013	0.000375	20.790847
2228.630130	-3.001600	3.233400	-9.704600	26.882095	0.000376	20.782035
2229.653352	-2.988100	3.234400	-9.661900	26.880388	0.000378	20.802129
2230.635106	-3.024000	3.232100	-9.771700	26.881884	0.000375	20.811694
2231.629108	-2.977300	3.232200	-9.621400	26.901039	0.000374	20.801083
2232.630922	-2.986900	3.231700	-9.651800	26.960354	0.000373	20.816157
2233.634704	-2.985800	3.230400	-9.643100	26.971321	0.000375	20.782615
2234.630336	-2.970000	3.232400	-9.599900	27.007188	0.000375	20.811571
2235.635122	-3.012700	3.230300	-9.731100	27.015203	0.000371	20.794502
2236.645163	-3.011400	3.230600	-9.726100	27.069375	0.000372	20.790659
2237.630805	-3.018200	3.229100	-9.743900	27.080251	0.000371	20.802072
2238.633845	-3.002300	3.227800	-9.690000	27.050694	0.000370	20.797477
2239.629846	-3.018600	3.228200	-9.743800	27.016747	0.000369	20.800322
2240.631671	-3.029500	3.227400	-9.774500	27.008342	0.000370	20.812732
2241.629941	-3.005900	3.227400	-9.699200	27.026974	0.000369	20.814874
2242.654438	-2.984600	3.227100	-9.630800	27.016999	0.000369	20.806265
2243.656146	-3.018500	3.226200	-9.737700	27.027551	0.000367	20.823989
2244.662199	-3.007600	3.225800	-9.701400	27.012187	0.000366	20.800003
2245.640761	-2.995800	3.227600	-9.666400	27.050483	0.000366	20.812437
2246.636751	-3.022300	3.224600	-9.744200	27.028965	0.000366	20.813557
2247.636741	-2.983000	3.226000	-9.622200	27.045167	0.000365	20.799979
2248.654780	-2.993200	3.225600	-9.651500	27.035387	0.000365	20.796782
2249.638405	-2.999200	3.225300	-9.672200	27.089875	0.000364	20.816492
2250.636875	-2.980800	3.225300	-9.613200	27.098028	0.000363	20.809993
2251.660415	-2.997800	3.224600	-9.665800	27.125624	0.000363	20.816410
2252.655484	-3.013500	3.222000	-9.708200	27.108140	0.000362	20.845766
2253.657154	-2.977800	3.222900	-9.595900	27.070301	0.000363	20.823359
2254.645077	-2.987800	3.222600	-9.627300	27.007797	0.000360	20.809813
2255.641819	-2.986300	3.222200	-9.621000	26.969231	0.000359	20.820817
2256.646096	-3.023300	3.220500	-9.736100	26.991246	0.000359	20.825411
2257.641512	-3.005600	3.221400	-9.680600	27.013235	0.000358	20.803903
2258.649319	-2.977200	3.223700	-9.597300	27.047329	0.000357	20.803101
2259.640116	-3.011300	3.220400	-9.696400	27.068326	0.000359	20.810941
2260.642492	-3.002300	3.218100	-9.660300	27.098353	0.000356	20.801785
2261.642001	-2.977600	3.217900	-9.580700	27.139792	0.000355	20.821650
2262.645347	-2.999900	3.218800	-9.654500	27.195696	0.000356	20.803436
2263.643062	-2.985700	3.218400	-9.608100	27.206986	0.000353	20.820481
2264.642512	-2.992800	3.217900	-9.629200	27.225224	0.000355	20.810851
2265.643244	-2.991800	3.218800	-9.629300	27.270128	0.000353	20.807181
2266.645105	-3.010800	3.215900	-9.680900	27.280003	0.000352	20.804785
2267.646772	-2.990100	3.216900	-9.617000	27.234473	0.000351	20.791705
2268.643582	-3.009100	3.215500	-9.674300	27.206124	0.000352	20.799700
2269.652284	-2.986600	3.216400	-9.604700	27.172003	0.000349	20.787193
2270.662439	-2.990400	3.216500	-9.617000	27.168459	0.000349	20.788370
2271.660520	-3.023600	3.213600	-9.715300	27.151683	0.000349	20.782402
2272.671602	-3.005800	3.214000	-9.660200	27.156926	0.000347	20.806167
2273.661418	-2.979800	3.214200	-9.576600	27.107246	0.000348	20.814522
2274.664823	-3.035200	3.211400	-9.746200	27.064424	0.000350	20.793267
2275.663634	-3.032400	3.211500	-9.737700	27.103555	0.000347	20.797060
2276.644893	-3.008500	3.211500	-9.659700	27.128908	0.000348	20.802643
2277.643324	-2.993300	3.211500	-9.610800	27.134719	0.000347	20.796635
2278.670752	-2.992900	3.211700	-9.611400	27.151943	0.000346	20.790250
2279.664140	-2.998700	3.212300	-9.631800	27.190567	0.000343	20.803020
2280.648336	-3.016800	3.209800	-9.681600	27.223721	0.000344	20.788950
2281.668830	-3.020800	3.209700	-9.694300	27.197224	0.000344	20.798335
2282.648380	-3.028900	3.208700	-9.718000	27.215333	0.000344	20.788574
2283.650436	-2.983800	3.209200	-9.574800	27.179310	0.000342	20.793594
2284.646453	-3.031600	3.207600	-9.722800	27.145124	0.000343	20.793823
2285.651201	-2.995300	3.208000	-9.606900	27.141401	0.000342	20.777276
2286.647230	-3.020500	3.208300	-9.687900	27.161697	0.000341	20.770662
2287.667322	-2.995300	3.207000	-9.604400	27.193363	0.000340	20.771218
2288.667100	-3.011300	3.206100	-9.653700	27.195916	0.000338	20.775208
2289.664246	-2.978300	3.207800	-9.553000	27.187528	0.000340	20.769142
2290.666204	-2.987200	3.206900	-9.578100	27.167931	0.000337	20.766027
2291.665196	-2.982800	3.204700	-9.557500	27.179936	0.000337	20.780947
2292.670281	-3.006100	3.205900	-9.635800	27.184577	0.000337	20.792253
2293.668806	-2.996300	3.205900	-9.605000	27.185626	0.000336	20.785721
2294.673080	-3.016400	3.203200	-9.660600	27.191055	0.000336	20.762732
2295.647892	-2.979100	3.204000	-9.544100	27.205498	0.000336	20.769673
2296.654702	-3.001600	3.203300	-9.613300	27.220990	0.000335	20.794738
2297.653782	-2.996400	3.202800	-9.595900	27.258376	0.000333	20.770703
2298.649528	-3.010900	3.201800	-9.639100	27.287447	0.000334	20.770548
2299.658712	-3.003800	3.201300	-9.614500	27.274330	0.000331	20.759250
2300.675873	-2.993900	3.200900	-9.582600	27.264732	0.000333	20.767139
2301.676428	-2.999500	3.200900	-9.599900	27.296167	0.000334	20.742809
2302.667457	-2.966600	3.203000	-9.501200	27.280490	0.000334	20.775878
2303.676809	-2.989300	3.200500	-9.566100	27.280141	0.000335	20.758457
2304.673071	-3.012500	3.198300	-9.633200	27.224200	0.000332	20.763354
2305.652921	-3.000000	3.197200	-9.590400	27.191023	0.000329	20.764122
2306.652454	-3.000000	3.198900	-9.595800	27.147180	0.000328	20.762699
2307.651415	-3.002200	3.198300	-9.600300	27.149269	0.000329	20.785190
2308.680589	-2.987700	3.197400	-9.551500	27.145473	0.000328	20.749128
2309.679470	-3.000500	3.197100	-9.591700	27.129021	0.000330	20.748229
2310.675931	-2.986000	3.196800	-9.544800	27.084071	0.000327	20.769403
2311.659681	-2.982300	3.195800	-9.530000	27.050669	0.000327	20.767106
2312.655692	-2.988000	3.196700	-9.550600	27.049743	0.000327	20.738198
2313.669854	-2.991600	3.195000	-9.556900	27.074341	0.000326	20.761040
2314.680412	-2.983200	3.194900	-9.530300	27.089379	0.000326	20.782802
2315.679132	-3.012800	3.193600	-9.620100	27.118072	0.000324	20.755710
2316.653850	-3.016000	3.193600	-9.631300	27.121616	0.000325	20.750265
2317.654743	-3.018200	3.193600	-9.637600	27.116878	0.000325	20.745973
2318.656531	-2.992400	3.194000	-9.556300	27.135118	0.000324	20.737765
2319.683613	-3.002000	3.190900	-9.578600	27.134670	0.000323	20.751540
2320.663661	-3.003200	3.191800	-9.583200	27.154227	0.000322	20.752243
2321.656537	-3.004700	3.191400	-9.588400	27.186032	0.000324	20.752464
2322.653522	-2.996500	3.190000	-9.557700	27.206953	0.000323	20.746954
2323.655389	-3.001600	3.188800	-9.570900	27.240000	0.000322	20.731355
2324.658647	-3.002600	3.189400	-9.575100	27.268437	0.000320	20.738623
2325.678574	-3.001600	3.188400	-9.569600	27.249655	0.000319	20.744861
2326.684164	-3.017900	3.186900	-9.617200	27.204571	0.000319	20.750723
2327.675850	-3.019400	3.187100	-9.622100	27.204864	0.000318	20.748646
2328.685591	-2.998800	3.188500	-9.560600	27.203230	0.000319	20.743684
2329.657697	-2.978900	3.188900	-9.498500	27.222257	0.000317	20.740062
2330.660900	-3.011000	3.186300	-9.592500	27.233733	0.000317	20.741648
2331.680218	-3.020500	3.185400	-9.620300	27.239285	0.000315	20.748654
2332.695642	-3.001400	3.186100	-9.561200	27.243747	0.000317	20.709518
2333.678710	-3.008000	3.185100	-9.579400	27.264390	0.000314	20.763950
2334.682244	-2.996800	3.184200	-9.541200	27.320662	0.000314	20.739473
2335.662937	-2.979800	3.183800	-9.485600	27.352389	0.000313	20.737724
2336.661025	-2.999200	3.182100	-9.543000	27.346489	0.000315	20.753126
2337.682696	-3.000500	3.183500	-9.551700	27.280149	0.000314	20.734282
2338.674128	-3.021300	3.182000	-9.613800	27.280555	0.000311	20.748442
2339.658922	-2.988200	3.182900	-9.510100	27.300068	0.000313	20.748630
2340.661791	-3.010300	3.179900	-9.570300	27.326993	0.000312	20.726875
2341.669799	-3.009300	3.180900	-9.570800	27.329789	0.000310	20.739645
2342.663658	-2.972900	3.181200	-9.456400	27.339719	0.000310	20.747739
2343.665565	-2.995400	3.180600	-9.526500	27.301686	0.000310	20.723703
2344.662616	-2.982900	3.179700	-9.484300	27.314705	0.000309	20.742964
2345.666553	-2.999200	3.178600	-9.531400	27.321475	0.000309	20.718953
2346.667770	-3.030100	3.177200	-9.626000	27.357273	0.000309	20.744060
2347.663841	-2.998900	3.178600	-9.530900	27.355274	0.000306	20.740626
2348.666375	-2.998900	3.177100	-9.527100	27.339971	0.000308	20.743250
2349.664083	-3.025200	3.176700	-9.609200	27.319597	0.000307	20.738876
2350.666730	-2.977800	3.177200	-9.459600	27.356859	0.000307	20.742694
2351.668782	-3.001800	3.175800	-9.531700	27.378963	0.000306	20.725575
2352.667669	-2.977000	3.175900	-9.453500	27.393354	0.000305	20.727251
2353.682402	-2.985000	3.175700	-9.479200	27.373973	0.000306	20.732884
2354.684771	-2.988500	3.174400	-9.485900	27.336022	0.000307	20.719836
2355.688962	-2.975100	3.174600	-9.444500	27.294770	0.000305	20.703942
2356.683001	-2.985100	3.174000	-9.473700	27.250850	0.000304	20.735631
2357.668454	-2.973200	3.174600	-9.437100	27.252914	0.000303	20.738656
2358.670902	-3.036200	3.170800	-9.626000	27.279239	0.000304	20.718666
2359.666172	-2.999700	3.170500	-9.509600	27.313397	0.000304	20.718887
2360.689815	-2.992000	3.170700	-9.485500	27.303083	0.000302	20.731273
2361.692391	-3.010300	3.171400	-9.545900	27.335209	0.000299	20.732295
2362.696296	-2.989500	3.171100	-9.478800	27.363904	0.000300	20.731289
2363.690994	-2.999200	3.168400	-9.502000	27.363961	0.000300	20.719966
2364.687429	-3.010400	3.169500	-9.538600	27.396077	0.000299	20.744215
2365.697450	-3.016000	3.167100	-9.550900	27.432839	0.000299	20.723351
2366.697815	-2.992900	3.168500	-9.482300	27.466798	0.000299	20.732385
2367.693017	-3.020100	3.166300	-9.561700	27.458956	0.000300	20.717383
2368.694473	-3.005700	3.166700	-9.515400	27.442420	0.000299	20.732042
2369.695745	-3.001700	3.164500	-9.498100	27.398458	0.000297	20.728117
2370.689570	-2.984500	3.165100	-9.445600	27.386845	0.000296	20.731608
2371.692582	-3.000300	3.164800	-9.494700	27.349650	0.000298	20.736865
2372.710703	-3.000800	3.163600	-9.491800	27.358882	0.000295	20.728134
2373.692902	-2.995100	3.164400	-9.475200	27.349707	0.000295	20.716533
2374.696427	-3.002200	3.161600	-9.491100	27.344319	0.000294	20.740037
2375.688802	-2.997100	3.162800	-9.478700	27.330699	0.000294	20.714481
2376.699816	-3.004500	3.160800	-9.495700	27.295322	0.000293	20.704498
2377.696252	-2.994200	3.162000	-9.465200	27.277678	0.000295	20.723261
2378.674445	-3.006600	3.158600	-9.495400	27.286236	0.000292	20.718119
2379.695135	-2.994100	3.160600	-9.462000	27.267503	0.000291	20.739105
2380.674778	-2.996400	3.159900	-9.467100	27.199321	0.000292	20.708455
2381.674643	-2.980200	3.159000	-9.413700	27.162258	0.000293	20.719067
2382.673543	-2.992500	3.159000	-9.452100	27.098011	0.000291	20.711349
2383.675296	-2.991200	3.156300	-9.439900	27.100816	0.000289	20.724602
2384.671613	-2.988500	3.157700	-9.435600	27.145920	0.000292	20.710695
2385.674687	-2.991900	3.155300	-9.438400	27.159201	0.000291	20.732589
2386.680591	-2.993800	3.155200	-9.444800	27.158551	0.000290	20.722452
2387.675460	-2.984800	3.155100	-9.415300	27.189413	0.000288	20.733105
2388.673403	-3.009300	3.153400	-9.488100	27.217104	0.000289	20.718282
2389.677794	-3.000700	3.153600	-9.461100	27.285553	0.000289	20.704155
2390.675434	-3.025100	3.151800	-9.532700	27.315469	0.000287	20.705798
2391.693622	-2.995900	3.154100	-9.448300	27.339459	0.000286	20.723768
2392.686767	-3.019700	3.151800	-9.515700	27.394777	0.000288	20.689324
2393.693328	-2.985400	3.151000	-9.405300	27.392867	0.000286	20.728183
2394.694106	-3.004400	3.149600	-9.462400	27.415287	0.000285	20.715650
2395.693150	-3.007200	3.150600	-9.474000	27.402318	0.000287	20.702601
2396.674317	-2.991400	3.150200	-9.422500	27.429475	0.000284	20.710957
2397.675083	-2.982500	3.149200	-9.390800	27.388593	0.000286	20.707286
2398.697308	-2.978800	3.148400	-9.377800	27.432230	0.000285	20.704719
2399.676479	-2.993500	3.146700	-9.419000	27.424193	0.000283	20.690943
2400.694337	-3.013300	3.146900	-9.481600	27.446296	0.000281	20.689945
2401.689076	-2.980500	3.146400	-9.377400	27.478962	0.000284	20.709534
2402.694098	-3.016100	3.145300	-9.484800	27.492385	0.000281	20.704073
2403.699512	-3.013500	3.143600	-9.472400	27.483325	0.000283	20.714873
2404.675173	-3.001900	3.144300	-9.436300	27.451050	0.000281	20.715118
2405.677045	-3.012200	3.140800	-9.459300	27.431361	0.000281	20.718070
2406.674664	-3.001200	3.142200	-9.429200	27.386528	0.000282	20.709477
2407.694676	-2.999400	3.142000	-9.423100	27.408981	0.000281	20.698873
2408.675046	-2.994900	3.140700	-9.405100	27.349325	0.000279	20.705716
2409.675918	-2.999000	3.140500	-9.417700	27.342848	0.000281	20.721487
2410.694431	-2.980600	3.138700	-9.353800	27.321190	0.000281	20.694009
2411.676674	-2.990000	3.140200	-9.388100	27.357785	0.000280	20.705218
2412.680352	-2.992000	3.138000	-9.388700	27.360963	0.000280	20.703198
2413.679430	-2.984300	3.137800	-9.362800	27.345530	0.000278	20.700476
2414.705048	-3.005100	3.136100	-9.422600	27.279491	0.000280	20.709436
2415.698328	-2.991300	3.134900	-9.376800	27.264008	0.000278	20.701449
2416.684723	-2.997100	3.134900	-9.394200	27.269462	0.000278	20.687493
2417.680021	-2.980100	3.136400	-9.346300	27.305164	0.000278	20.690215
2418.704546	-2.975900	3.134500	-9.325800	27.330065	0.000277	20.691082
2419.701562	-3.016900	3.132500	-9.449100	27.373583	0.000276	20.697402
2420.682325	-2.977400	3.132700	-9.326200	27.416100	0.000276	20.686593
2421.685494	-2.967700	3.133500	-9.297500	27.454471	0.000276	20.706706
2422.684241	-2.974400	3.130400	-9.310300	27.492117	0.000278	20.681990
2423.706355	-3.016000	3.129600	-9.438000	27.498398	0.000278	20.690681
2424.680798	-3.012800	3.129100	-9.426500	27.503038	0.000277	20.701988
2425.703972	-3.013300	3.127100	-9.422500	27.502835	0.000276	20.677126
2426.680637	-3.008400	3.127000	-9.406700	27.508222	0.000277	20.667846
2427.683114	-3.020000	3.125700	-9.437900	27.531558	0.000277	20.685637
2428.680197	-3.005500	3.124900	-9.391500	27.563628	0.000274	20.692774
2429.682614	-3.021000	3.124500	-9.437700	27.594974	0.000276	20.703452
2430.685760	-3.005500	3.123700	-9.387500	27.614221	0.000272	20.685833
2431.706584	-3.008800	3.124200	-9.398600	27.638855	0.000273	20.690231
2432.716963	-2.999300	3.122600	-9.364100	27.645598	0.000273	20.694172
2433.721309	-3.004400	3.122300	-9.378200	27.625579	0.000272	20.662646
2434.703864	-2.981200	3.122000	-9.306400	27.683839	0.000273	20.681442
2435.704975	-3.008100	3.120500	-9.384800	27.663472	0.000272	20.666162
2436.684248	-3.040400	3.119500	-9.483800	27.701216	0.000272	20.683282
2437.690286	-2.980900	3.118400	-9.295000	27.668111	0.000270	20.678892
2438.686182	-3.009000	3.116800	-9.377700	27.625848	0.000272	20.684729
2439.689394	-3.005700	3.116300	-9.365700	27.617244	0.000272	20.679390
2440.683868	-3.034400	3.114900	-9.450500	27.605658	0.000272	20.672474
2441.713445	-3.037900	3.115200	-9.462400	27.633639	0.000270	20.681663
2442.686676	-2.999300	3.115400	-9.343300	27.654218	0.000269	20.674395
2443.688399	-3.029300	3.113600	-9.430900	27.660368	0.000271	20.673945
2444.704303	-2.954300	3.115200	-9.202100	27.614831	0.000271	20.681704
2445.703359	-2.985800	3.112700	-9.292700	27.594365	0.000270	20.684819
2446.714134	-2.988100	3.111200	-9.295600	27.556088	0.000269	20.665745
2447.714000	-2.995400	3.111900	-9.320600	27.512691	0.000269	20.669023
2448.693897	-2.997400	3.109400	-9.319400	27.467562	0.000268	20.664870
2449.693402	-3.004400	3.108000	-9.336500	27.435091	0.000268	20.678671
2450.693456	-2.963400	3.109000	-9.211900	27.399100	0.000267	20.669015
2451.690790	-3.019400	3.106200	-9.377200	27.365408	0.000268	20.686332
2452.693618	-3.033700	3.106200	-9.421500	27.361987	0.000268	20.665344
2453.694823	-2.998000	3.105700	-9.309900	27.392404	0.000266	20.686463
2454.691074	-2.994600	3.104200	-9.294800	27.393818	0.000267	20.675556
2455.692182	-2.993100	3.104600	-9.291800	27.469496	0.000267	20.676774
2456.691496	-2.979800	3.103300	-9.245600	27.490874	0.000265	20.675523
2457.694042	-3.011400	3.101500	-9.338600	27.540017	0.000264	20.666170
2458.691732	-3.009200	3.100300	-9.328600	27.584712	0.000265	20.677951
2459.696192	-3.009800	3.098800	-9.326100	27.615464	0.000267	20.664322
2460.690501	-3.007300	3.099100	-9.318300	27.577814	0.000266	20.673855
2461.695369	-2.987400	3.099000	-9.255900	27.528657	0.000267	20.683666
2462.693039	-2.997400	3.098000	-9.285000	27.524067	0.000263	20.687583
2463.697833	-2.999100	3.096600	-9.286100	27.539415	0.000267	20.665091
2464.696285	-3.016100	3.094600	-9.333000	27.544429	0.000266	20.657332
2465.695441	-2.998600	3.094600	-9.279300	27.570989	0.000267	20.659400
2466.730258	-2.983700	3.093400	-9.229200	27.576555	0.000265	20.668320
2467.715198	-3.032000	3.091100	-9.371000	27.615278	0.000266	20.657970
2468.697375	-2.979700	3.093000	-9.215100	27.623223	0.000265	20.668337
2469.697932	-3.008300	3.091500	-9.299600	27.620599	0.000262	20.688932
2470.696431	-2.988900	3.090900	-9.237500	27.660076	0.000265	20.655157
2471.697255	-3.020000	3.088500	-9.326600	27.676243	0.000264	20.658624
2472.698982	-3.023200	3.088700	-9.335700	27.729715	0.000263	20.661224
2473.698471	-3.005700	3.086900	-9.277600	27.744118	0.000263	20.672400
2474.696113	-3.010800	3.086100	-9.290500	27.740820	0.000262	20.655803
2475.713194	-3.009800	3.085400	-9.285400	27.739130	0.000263	20.665957
2476.715891	-3.023800	3.083800	-9.323500	27.783525	0.000264	20.644250
2477.720334	-3.034000	3.082800	-9.351800	27.749228	0.000264	20.662368
2478.696658	-3.018500	3.081000	-9.299500	27.732916	0.000262	20.657806
2479.699604	-3.033800	3.080600	-9.343800	27.743151	0.000262	20.659572
2480.716010	-3.020000	3.079500	-9.299300	27.725994	0.000262	20.665066
2481.721622	-3.017200	3.079700	-9.291000	27.691297	0.000261	20.644847
2482.702505	-2.959500	3.079400	-9.111300	27.639115	0.000262	20.671525
2483.721637	-2.977900	3.079600	-9.170000	27.651367	0.000262	20.665361
2484.718251	-2.976000	3.079000	-9.162100	27.651562	0.000262	20.651331
2485.700549	-2.993300	3.076900	-9.209200	27.614148	0.000260	20.663472
2486.720044	-2.986500	3.075300	-9.183300	27.627359	0.000263	20.678189
2487.723608	-2.992400	3.074600	-9.200000	27.648767	0.000261	20.670806
2488.698829	-3.025700	3.072000	-9.293900	27.671905	0.000261	20.650464
2489.699543	-3.009500	3.072200	-9.244400	27.675252	0.000261	20.672327
2490.702285	-3.022600	3.070400	-9.278800	27.683555	0.000260	20.667879
2491.704885	-3.006700	3.068900	-9.225400	27.699405	0.000261	20.671501
2492.699861	-3.029700	3.068900	-9.296500	27.719544	0.000261	20.661894
2493.707954	-2.999400	3.068600	-9.203200	27.734995	0.000262	20.649941
2494.698527	-3.010800	3.066500	-9.231400	27.727010	0.000263	20.641429
2495.708761	-2.993800	3.065800	-9.176700	27.745930	0.000260	20.628699
2496.704383	-3.002600	3.065000	-9.201600	27.778050	0.000259	20.649646
2497.702460	-3.008900	3.063400	-9.216300	27.823670	0.000258	20.649090
2498.720975	-2.975400	3.062500	-9.111800	27.844871	0.000260	20.670904
2499.702683	-2.978300	3.062900	-9.121100	27.858533	0.000259	20.656203
2500.702914	-2.990900	3.059900	-9.150500	27.852750	0.000260	20.662237
2501.708641	-3.012200	3.058900	-9.213300	27.830664	0.000261	20.678418
2502.703244	-3.013300	3.058200	-9.214500	27.798504	0.000259	20.667862
2503.699017	-3.023300	3.055900	-9.236600	27.783379	0.000259	20.659278
2504.736618	-3.023700	3.056900	-9.242000	27.769764	0.000259	20.668811
2505.703192	-2.985500	3.055700	-9.122000	27.817902	0.000257	20.675057
2506.704942	-3.003900	3.055400	-9.177100	27.796864	0.000260	20.667159
2507.721618	-3.006600	3.052100	-9.175400	27.775166	0.000259	20.652909
2508.716811	-2.972100	3.052600	-9.072000	27.783281	0.000259	20.665344
2509.721623	-2.971300	3.051600	-9.066700	27.791665	0.000258	20.675679
2510.721135	-2.953200	3.051300	-9.009700	27.772250	0.000257	20.667519
2511.727966	-2.990200	3.049500	-9.117900	27.730162	0.000258	20.673054
2512.720739	-2.989400	3.049300	-9.114600	27.724239	0.000258	20.642909
2513.723019	-3.008100	3.046900	-9.164900	27.734378	0.000259	20.655958
2514.723292	-3.005700	3.046400	-9.155300	27.762372	0.000258	20.668484
2515.727232	-2.982300	3.044800	-9.079100	27.761056	0.000258	20.676643
2516.728189	-3.011600	3.043200	-9.163300	27.748001	0.000256	20.648330
2517.728702	-2.997200	3.041800	-9.116200	27.745897	0.000258	20.666129
2518.729875	-2.999500	3.040100	-9.118300	27.712387	0.000255	20.651846
2519.735729	-2.984200	3.040300	-9.072000	27.632355	0.000257	20.662352
2520.731442	-3.003200	3.038900	-9.124800	27.592943	0.000259	20.666791
2521.727425	-2.998000	3.037700	-9.105600	27.582551	0.000258	20.672457
2522.736965	-2.997800	3.037200	-9.103000	27.594755	0.000256	20.656285
2523.734783	-3.006900	3.034500	-9.123000	27.598354	0.000256	20.692153
2524.727905	-2.982700	3.034400	-9.048900	27.626871	0.000258	20.660152
2525.730120	-2.994300	3.033100	-9.081100	27.680313	0.000257	20.679791
2526.712576	-2.959700	3.034300	-8.979200	27.741990	0.000256	20.665990
2527.712445	-3.016500	3.028500	-9.134600	27.803240	0.000255	20.665042
2528.715774	-3.010000	3.029600	-9.117600	27.827398	0.000256	20.657585
2529.712162	-3.009000	3.028300	-9.111500	27.898716	0.000257	20.671043
2530.714795	-3.002800	3.027900	-9.090900	27.902477	0.000256	20.660128
2531.721338	-2.967100	3.027900	-8.983500	27.909299	0.000258	20.669841
2532.715767	-2.988900	3.025600	-9.042500	27.942081	0.000257	20.661109
2533.726148	-2.988200	3.024600	-9.037600	27.933081	0.000254	20.671967
2534.731753	-3.000900	3.022000	-9.067900	27.950211	0.000255	20.664077
2535.740178	-2.998600	3.022500	-9.062500	27.929207	0.000257	20.663799
2536.736677	-2.981600	3.020800	-9.004900	27.895962	0.000255	20.664478
2537.737307	-2.994100	3.019200	-9.039200	27.894248	0.000255	20.672237
2538.742632	-3.004900	3.016200	-9.062400	27.861401	0.000257	20.688964
2539.733938	-2.991900	3.016300	-9.024000	27.814085	0.000255	20.684018
2540.716802	-2.982500	3.015100	-8.991300	27.752030	0.000253	20.665663
2541.722145	-3.004500	3.014400	-9.056100	27.717082	0.000255	20.680756
2542.738821	-3.002200	3.013000	-9.044700	27.700891	0.000255	20.668729
2543.736494	-2.999700	3.011500	-9.033200	27.719991	0.000255	20.690796
2544.745035	-2.998300	3.010800	-9.025800	27.752794	0.000254	20.675916
2545.719951	-3.007700	3.007400	-9.045000	27.803931	0.000254	20.671427
2546.717104	-3.016900	3.007600	-9.071900	27.837852	0.000256	20.675221
2547.741741	-2.966100	3.008200	-8.921600	27.898115	0.000255	20.661902
2548.738317	-2.987700	3.005900	-8.980200	27.930693	0.000255	20.688057
2549.721499	-3.002700	3.003600	-9.017500	27.960323	0.000253	20.680895
2550.725482	-3.001800	3.003200	-9.013700	27.901096	0.000255	20.672964
2551.738490	-2.984500	3.002400	-8.960100	27.848022	0.000254	20.689250
2552.743437	-3.004200	2.999400	-9.009400	27.841435	0.000253	20.697794
2553.720807	-2.999800	2.999400	-8.995800	27.820843	0.000254	20.692717
2554.738616	-2.962700	2.999100	-8.884200	27.855300	0.000255	20.683298
2555.721012	-2.992800	2.997000	-8.968600	27.857339	0.000255	20.690567
2556.721466	-2.989200	2.994900	-8.951700	27.839566	0.000254	20.674100
2557.725844	-2.997500	2.994700	-8.976500	27.847689	0.000253	20.679431
2558.745057	-3.014100	2.991200	-9.014700	27.849923	0.000253	20.692586
2559.723300	-2.989400	2.991200	-8.939700	27.863894	0.000255	20.692423
2560.754462	-3.006700	2.989500	-8.987400	27.890715	0.000255	20.697132
2561.738646	-2.976900	2.989600	-8.898900	27.912418	0.000256	20.690052
2562.724417	-2.992500	2.987000	-8.937900	27.877857	0.000253	20.698890
2563.723703	-2.964700	2.987000	-8.852900	27.903175	0.000255	20.702560
2564.722391	-3.007200	2.983500	-8.971300	27.909868	0.000255	20.678949
2565.725522	-3.014700	2.982000	-8.988700	27.928695	0.000252	20.683674
2566.752480	-2.980700	2.982800	-8.889000	27.942430	0.000255	20.689438
2567.729228	-2.994400	2.982000	-8.928600	27.963011	0.000254	20.686920
2568.729879	-2.999300	2.978400	-8.931400	27.987799	0.000254	20.677731
2569.726622	-2.980100	2.979200	-8.877200	28.018198	0.000253	20.693632
2570.724135	-2.959600	2.977600	-8.810300	28.055134	0.000255	20.695726
2571.729566	-2.994800	2.974900	-8.908200	28.044154	0.000252	20.684198
2572.727398	-2.989600	2.973300	-8.887500	28.100255	0.000254	20.698473
2573.752671	-2.975200	2.972200	-8.841100	28.090120	0.000254	20.697279
2574.745383	-2.994500	2.970600	-8.893800	28.085312	0.000254	20.710932
2575.723911	-3.002300	2.970300	-8.916900	28.098704	0.000254	20.695014
2576.731770	-2.982400	2.968500	-8.852700	28.103958	0.000253	20.695562
2577.747113	-3.000200	2.964900	-8.894900	28.115831	0.000252	20.707515
2578.730489	-3.018000	2.964300	-8.944900	28.117268	0.000252	20.690468
2579.726578	-3.000100	2.964900	-8.894600	28.143750	0.000253	20.701955
2580.754429	-2.986500	2.961900	-8.844600	28.142580	0.000251	20.699356
2581.730993	-3.019600	2.959200	-8.934600	28.171481	0.000253	20.673921
2582.729259	-2.981000	2.958800	-8.819200	28.154509	0.000253	20.706150
2583.749345	-2.990800	2.956900	-8.841900	28.110455	0.000253	20.708741
2584.727677	-3.011600	2.955300	-8.899600	28.104153	0.000255	20.705242
2585.726234	-3.002500	2.953200	-8.864700	28.134330	0.000253	20.687255
2586.748194	-2.980800	2.952500	-8.799400	28.123870	0.000253	20.701857
2587.749324	-2.995000	2.950700	-8.836200	28.139511	0.000254	20.705275
2588.731576	-2.984300	2.950300	-8.803800	28.165302	0.000251	20.686667
2589.750991	-2.989300	2.949000	-8.814500	28.130473	0.000254	20.713720
2590.749136	-2.995800	2.946500	-8.826800	28.089763	0.000253	20.688384
2591.729146	-2.985400	2.946500	-8.795500	28.009784	0.000254	20.702708
2592.754136	-2.982400	2.946500	-8.785400	28.036041	0.000252	20.717285
2593.747858	-3.005500	2.942400	-8.842300	28.057660	0.000255	20.707278
2594.753719	-3.012100	2.940500	-8.855700	28.052089	0.000251	20.729646
2595.748318	-2.990000	2.940500	-8.791000	28.083778	0.000252	20.717448
2596.752689	-3.010000	2.937000	-8.839800	28.079977	0.000253	20.704138
2597.757882	-3.011400	2.935800	-8.839500	28.144878	0.000254	20.703092
2598.738369	-3.032000	2.932500	-8.889800	28.157620	0.000253	20.714497
2599.737537	-2.989000	2.934300	-8.768900	28.203897	0.000253	20.702291
2600.736454	-3.010400	2.930000	-8.818700	28.251017	0.000253	20.681925
2601.735146	-2.964600	2.931200	-8.688600	28.239487	0.000253	20.716786
2602.736702	-3.014100	2.928700	-8.826200	28.278803	0.000253	20.710376
2603.735889	-3.000400	2.926900	-8.781000	28.257740	0.000251	20.701023
2604.733389	-3.011600	2.925200	-8.808900	28.200755	0.000252	20.707662
2605.735052	-3.026600	2.923200	-8.846100	28.162135	0.000253	20.715723
2606.734461	-2.965800	2.923800	-8.670000	28.111145	0.000253	20.726033
2607.733937	-2.982600	2.919900	-8.707600	28.143839	0.000254	20.731445
2608.739521	-2.979700	2.919600	-8.698400	28.180527	0.000253	20.708635
2609.735148	-3.019800	2.916100	-8.805100	28.182882	0.000254	20.714325
2610.757576	-2.972300	2.917300	-8.670500	28.211782	0.000253	20.731093
2611.760116	-3.011700	2.915200	-8.779000	28.251366	0.000253	20.711676
2612.764228	-3.002400	2.914100	-8.747100	28.202614	0.000253	20.728027
2613.762516	-2.992000	2.911700	-8.710500	28.197385	0.000254	20.719917
2614.758607	-3.007600	2.908000	-8.745100	28.209873	0.000252	20.732965
2615.757247	-3.024700	2.905900	-8.787400	28.195541	0.000252	20.721855
2616.740532	-2.998600	2.905300	-8.710800	28.187884	0.000252	20.708455
2617.764781	-2.977500	2.905800	-8.650800	28.171627	0.000254	20.729074
2618.764411	-2.983300	2.901800	-8.655500	28.193235	0.000254	20.709101
2619.740705	-3.014800	2.899400	-8.739500	28.204449	0.000252	20.724185
2620.761299	-2.966300	2.899300	-8.599300	28.189914	0.000252	20.740847
2621.768175	-3.021300	2.895900	-8.748800	28.191952	0.000253	20.709706
2622.742973	-2.974500	2.896100	-8.612700	28.155192	0.000254	20.738607
2623.744473	-2.972400	2.893600	-8.599600	28.100872	0.000253	20.742719
2624.746060	-2.980900	2.892700	-8.622100	28.075364	0.000251	20.730317
2625.745729	-3.014300	2.890200	-8.711100	28.049035	0.000253	20.734633
2626.743443	-3.000700	2.887000	-8.662100	28.066342	0.000253	20.734985
2627.746752	-2.987100	2.888000	-8.625900	28.107125	0.000254	20.747117
2628.766576	-2.996000	2.885300	-8.643100	28.138609	0.000254	20.716222
2629.767055	-3.020500	2.882600	-8.704600	28.166446	0.000253	20.725755
2630.762157	-3.004200	2.880700	-8.652600	28.188152	0.000252	20.755194
2631.743589	-3.005900	2.878200	-8.651200	28.178968	0.000251	20.736465
2632.753016	-3.022400	2.876100	-8.691800	28.165521	0.000252	20.746161
2633.743676	-3.002200	2.874000	-8.626200	28.132633	0.000254	20.735336
2634.743387	-2.995800	2.873300	-8.607200	28.153023	0.000253	20.718879
2635.746616	-3.001500	2.870300	-8.614300	28.171920	0.000252	20.736955
2636.756218	-2.956700	2.870500	-8.486200	28.223012	0.000251	20.755203
2637.762850	-2.973200	2.869700	-8.531000	28.291834	0.000250	20.745310
2638.767866	-2.999100	2.866800	-8.596700	28.324823	0.000251	20.736800
2639.744240	-3.020600	2.862400	-8.645400	28.365548	0.000254	20.733709
2640.750892	-2.991000	2.861200	-8.557100	28.400045	0.000253	20.740471
2641.747335	-3.012500	2.860000	-8.615000	28.446807	0.000254	20.756740
2642.764847	-3.024000	2.856900	-8.638400	28.448715	0.000252	20.740168
2643.743473	-2.992400	2.854400	-8.540000	28.453147	0.000253	20.759331
2644.745502	-3.011300	2.853300	-8.591700	28.447278	0.000250	20.740144
2645.749915	-3.004000	2.850700	-8.562100	28.425561	0.000251	20.743406
2646.747594	-3.027100	2.849000	-8.623500	28.397390	0.000252	20.748703
2647.748193	-3.009500	2.847300	-8.568000	28.333843	0.000252	20.747305
2648.747617	-3.006300	2.843400	-8.546000	28.279882	0.000253	20.743708
2649.748794	-3.026900	2.842500	-8.603200	28.230263	0.000252	20.741165
2650.748025	-3.004000	2.839000	-8.527100	28.143449	0.000251	20.743381
2651.750412	-3.029600	2.837800	-8.595700	28.084435	0.000251	20.757467
2652.770479	-3.009500	2.836600	-8.534700	28.087546	0.000252	20.741632
2653.765323	-3.023800	2.833200	-8.566100	28.108019	0.000252	20.771725
2654.774337	-2.986900	2.832600	-8.459700	28.131203	0.000252	20.751916
2655.757337	-2.992800	2.830100	-8.467300	28.184750	0.000252	20.737070
2656.749022	-2.984100	2.828800	-8.439600	28.210304	0.000252	20.750469
2657.749898	-3.018700	2.824900	-8.526500	28.258812	0.000251	20.761849
2658.750132	-2.989800	2.823400	-8.440200	28.292841	0.000250	20.755808
2659.747270	-3.005300	2.819900	-8.473100	28.327446	0.000251	20.761252
2660.749629	-2.995900	2.819000	-8.444300	28.372173	0.000252	20.747493
2661.775960	-3.002000	2.816000	-8.452400	28.413781	0.000253	20.762838
2662.771621	-3.006400	2.816000	-8.464600	28.443105	0.000251	20.765814
2663.769176	-3.001000	2.812000	-8.437900	28.468750	0.000250	20.763664
2664.785205	-2.999000	2.810900	-8.428600	28.445475	0.000253	20.766779
2665.750864	-2.975900	2.808900	-8.358000	28.426722	0.000252	20.758326
2666.757018	-3.001200	2.804900	-8.417900	28.427355	0.000252	20.776507
2667.749572	-2.963400	2.802800	-8.303600	28.417248	0.000254	20.791460
2668.749948	-2.991700	2.800800	-8.377200	28.393209	0.000252	20.752554
2669.749784	-2.965200	2.798600	-8.297100	28.382452	0.000250	20.773017
2670.754484	-3.035200	2.794900	-8.482500	28.413660	0.000252	20.766509
2671.752308	-2.996100	2.793000	-8.367600	28.416485	0.000250	20.755129
2672.753236	-3.019300	2.788800	-8.419500	28.456135	0.000252	20.774194
2673.753863	-2.998900	2.786700	-8.356100	28.467257	0.000252	20.776385
2674.753993	-3.031100	2.784400	-8.438500	28.429783	0.000252	20.789383
2675.751080	-2.969300	2.783700	-8.264500	28.373805	0.000250	20.764310
2676.753267	-3.016700	2.778100	-8.379400	28.359418	0.000253	20.764997
2677.753840	-2.993900	2.777500	-8.313300	28.350999	0.000252	20.763157
2678.755328	-2.975500	2.774300	-8.253800	28.377564	0.000251	20.766199
2679.756938	-3.003000	2.769600	-8.315800	28.411078	0.000251	20.783350
2680.772789	-3.032000	2.765500	-8.384200	28.409389	0.000252	20.766476
2681.772798	-2.970100	2.766000	-8.212900	28.434126	0.000252	20.768152
2682.792525	-2.967100	2.762900	-8.196300	28.438120	0.000251	20.777390
2683.774230	-3.006000	2.757100	-8.287500	28.462223	0.000250	20.786489
2684.781562	-3.018400	2.756300	-8.317800	28.486391	0.000250	20.789015
2685.751926	-2.995100	2.753500	-8.246100	28.531452	0.000251	20.805472
2686.755342	-3.016200	2.748600	-8.289200	28.546364	0.000252	20.783980
2687.756794	-2.997300	2.746300	-8.231100	28.548694	0.000250	20.775420
2688.789210	-3.019300	2.742400	-8.278700	28.559450	0.000253	20.804744
2689.758276	-3.009500	2.739800	-8.245400	28.532914	0.000250	20.793667
2690.780682	-3.020900	2.735600	-8.262700	28.520274	0.000252	20.795637
2691.775323	-3.014800	2.735500	-8.245600	28.470764	0.000251	20.791770
2692.758623	-2.987200	2.731000	-8.157100	28.464074	0.000250	20.802104
2693.760919	-3.009100	2.726000	-8.201500	28.505111	0.000250	20.796487
2694.758274	-3.014000	2.723500	-8.207500	28.511256	0.000251	20.798409
2695.764476	-3.003700	2.720600	-8.170400	28.534610	0.000249	20.804385
2696.759974	-2.972800	2.718200	-8.080400	28.552599	0.000253	20.786939
2697.786376	-2.987000	2.713800	-8.104800	28.537110	0.000252	20.797894
2698.790399	-2.991600	2.710200	-8.107100	28.505265	0.000252	20.810867
2699.761654	-3.015700	2.706600	-8.159800	28.473158	0.000252	20.794656
2700.786078	-3.021000	2.701600	-8.159700	28.423191	0.000252	20.790332
2701.760143	-3.009900	2.700000	-8.125800	28.424416	0.000252	20.797256
2702.761355	-2.990200	2.694500	-8.056200	28.427542	0.000249	20.793291
2703.759080	-2.974000	2.693000	-8.007300	28.433095	0.000250	20.804573
2704.760489	-2.983700	2.689400	-8.023600	28.398859	0.000251	20.806134
2705.760050	-2.991100	2.685100	-8.030200	28.435766	0.000249	20.797779
2706.762221	-2.972500	2.680600	-7.967900	28.472931	0.000250	20.802488
2707.760456	-2.991000	2.676600	-8.003400	28.484710	0.000251	20.805341
2708.760612	-3.002900	2.672600	-8.024600	28.503990	0.000251	20.798204
2709.762347	-3.002300	2.667900	-8.009000	28.506141	0.000249	20.802741
2710.760901	-2.993300	2.664900	-7.975900	28.527085	0.000249	20.810557
2711.762985	-2.998400	2.660200	-7.975100	28.575011	0.000252	20.806191
2712.780789	-3.000700	2.657700	-7.974300	28.627788	0.000251	20.828525
2713.791015	-2.993600	2.652800	-7.940700	28.675595	0.000251	20.806502
2714.785076	-3.001600	2.647200	-7.943900	28.711153	0.000251	20.814342
2715.780103	-2.978500	2.644000	-7.873500	28.725161	0.000251	20.816124
2716.784347	-2.984900	2.639200	-7.877400	28.737206	0.000251	20.812134
2717.777956	-2.998300	2.634600	-7.898500	28.757146	0.000253	20.799504
2718.791682	-3.055000	2.628000	-8.026400	28.792369	0.000252	20.805586
2719.766079	-3.020000	2.624400	-7.924000	28.735071	0.000251	20.818519
2720.781068	-2.997600	2.620800	-7.854700	28.761359	0.000251	20.817497
2721.788665	-2.998700	2.616600	-7.845500	28.787670	0.000252	20.802750
2722.790248	-3.000300	2.611500	-7.833800	28.843772	0.000251	20.799046
2723.794374	-2.988000	2.606600	-7.787600	28.883730	0.000252	20.800420
2724.767844	-3.015400	2.601700	-7.843500	28.909771	0.000252	20.792989
2725.771476	-2.996500	2.597700	-7.783000	28.933765	0.000253	20.787765
2726.772486	-3.004000	2.592400	-7.786200	28.928962	0.000251	20.784822
2727.790703	-3.024600	2.584600	-7.816500	28.887504	0.000251	20.802324
2728.770482	-3.019700	2.579800	-7.788900	28.871322	0.000253	20.787446
2729.769953	-2.967500	2.576700	-7.645500	28.875980	0.000251	20.797354
2730.774423	-2.976900	2.571300	-7.653400	28.926414	0.000252	20.782255
2731.777221	-2.996200	2.564700	-7.683100	28.944817	0.000252	20.788468
2732.771604	-3.013000	2.555900	-7.699100	28.990046	0.000253	20.794207
2733.772631	-2.991100	2.552400	-7.633600	29.028466	0.000253	20.792612
2734.771976	-2.982800	2.547000	-7.596700	29.027516	0.000250	20.788337
2735.773316	-2.997700	2.541100	-7.616200	29.039216	0.000253	20.788746
2736.774204	-3.013200	2.534600	-7.636600	29.037358	0.000252	20.784503
2737.796865	-3.005500	2.528300	-7.598400	29.064523	0.000252	20.766828
2738.798707	-3.012700	2.522900	-7.599000	29.075744	0.000253	20.784773
2739.787928	-2.955200	2.518700	-7.441500	29.074502	0.000253	20.793953
2740.797373	-2.986700	2.510700	-7.497600	29.077204	0.000252	20.783399
2741.773942	-2.975200	2.505500	-7.453300	29.066657	0.000252	20.795531
2742.791464	-2.989700	2.499100	-7.471000	29.096449	0.000253	20.783350
