LabVIEW Measurement	
Writer_Version	2
Reader_Version	2
Separator	Tab
Decimal_Separator	.
Multi_Headings	No
X_Columns	One
Time_Pref	Absolute
Operator	admin
Description	Clolumns are: time, Current, Voltage, Power, Battery Temp, and Chamber Temp
Date	2024/08/16
Time	13:06:06.104549407958984375
***End_of_Header***	
	
Channels	6						
Samples	1	1	1	1	1	1	
Date	2024/09/14	2024/09/14	2024/09/14	2024/09/14	2024/09/14	2024/09/14	
Time	23:59:02.7742071151733398438	23:59:02.7812066078186035156	23:59:02.7881960868835449219	23:59:02.7522521018981933594	23:59:02.7522521018981933594	23:59:02.7522521018981933594	
X_Dimension	Time	Time	Time	Time	Time	Time	
X0	0.0000000000000000E+0	0.0000000000000000E+0	0.0000000000000000E+0	0.0000000000000000E+0	0.0000000000000000E+0	0.0000000000000000E+0	
Delta_X	1.000000	1.000000	1.000000	1.000000	1.000000	1.000000	
***End_of_Header***							
X_Value	Untitled	Untitled 1	Untitled 2	Untitled 3	Untitled 4	Untitled 5	Comment
0.000000	0.025654	4.093600	0.105030	21.067506	0.000936	20.870761
0.997349	-3.003900	3.911400	-11.747000	21.053534	0.000935	20.875752
1.999073	-2.997700	3.906700	-11.709000	21.060295	0.000936	20.855963
2.997927	-2.976100	3.900300	-11.607000	21.071148	0.000936	20.889102
4.000559	-3.002800	3.896200	-11.699000	21.066208	0.000934	20.891273
4.993910	-2.998500	3.893500	-11.674000	21.070050	0.000934	20.892271
5.998969	-3.000400	3.891500	-11.675000	21.073393	0.000931	20.879494
7.001178	-2.978900	3.888200	-11.582000	21.077584	0.000931	20.869937
8.000402	-2.999700	3.887000	-11.659000	21.075140	0.000931	20.879344
9.003505	-2.986900	3.882700	-11.595000	21.090134	0.000930	20.884385
9.997382	-3.018200	3.880100	-11.710000	21.088038	0.000927	20.893667
10.999704	-2.994400	3.880400	-11.618000	21.078283	0.000928	20.891496
12.003751	-2.967000	3.880500	-11.512000	21.100088	0.000927	20.904771
12.999090	-3.013500	3.876300	-11.680000	21.100238	0.000928	20.902551
13.999850	-3.005100	3.875800	-11.645000	21.104479	0.000926	20.888302
14.999351	-2.990500	3.873900	-11.583000	21.118051	0.000927	20.882438
15.998223	-3.014000	3.873400	-11.673000	21.128405	0.000927	20.903698
17.003801	-2.995000	3.871800	-11.595000	21.121444	0.000924	20.901477
18.005212	-3.007900	3.869000	-11.636000	21.122691	0.000923	20.893242
19.008270	-2.981200	3.869600	-11.535000	21.152903	0.000924	20.879842
20.002082	-2.990300	3.868900	-11.569000	21.163107	0.000920	20.897160
21.009302	-2.990200	3.867100	-11.562000	21.169592	0.000922	20.909336
22.005049	-3.008700	3.867700	-11.636000	21.137435	0.000922	20.898507
23.006317	-2.980900	3.865800	-11.523000	21.152978	0.000922	20.901726
24.009430	-3.010800	3.864900	-11.636000	21.193991	0.000921	20.927103
25.004223	-2.975000	3.864100	-11.494000	21.179422	0.000919	20.872231
26.013532	-3.015700	3.863400	-11.650000	21.159987	0.000921	20.913953
27.011585	-2.999700	3.863200	-11.587000	21.175580	0.000920	20.905369
28.004423	-3.010700	3.861900	-11.627000	21.188702	0.000920	20.909486
29.015350	-3.005200	3.861700	-11.604000	21.180344	0.000919	20.898282
30.009782	-3.002600	3.860800	-11.590000	21.214197	0.000917	20.904171
31.008258	-2.997600	3.860600	-11.572000	21.208559	0.000918	20.886679
32.010098	-2.990200	3.859900	-11.540000	21.226945	0.000917	20.889423
33.013004	-2.996800	3.859300	-11.565000	21.219411	0.000919	20.893266
34.007838	-3.003200	3.857100	-11.583000	21.213873	0.000918	20.916173
35.008528	-2.998000	3.857300	-11.563000	21.242835	0.000917	20.908163
36.011495	-2.985900	3.857400	-11.516000	21.254135	0.000919	20.916148
37.022688	-2.985400	3.857500	-11.514000	21.244531	0.000918	20.909386
38.011268	-2.994000	3.857400	-11.547000	21.269976	0.000917	20.884108
39.012527	-2.987100	3.854600	-11.513000	21.256555	0.000916	20.884906
40.011599	-3.015900	3.855300	-11.626000	21.264887	0.000919	20.888025
41.013332	-2.995900	3.855600	-11.550000	21.299710	0.000917	20.898681
42.015399	-3.008700	3.853700	-11.593000	21.278607	0.000917	20.890371
43.013471	-3.005300	3.854300	-11.583000	21.296043	0.000915	20.886478
44.011167	-2.998400	3.855300	-11.557000	21.311334	0.000917	20.887552
45.014439	-2.989200	3.853700	-11.518000	21.315725	0.000919	20.879142
46.015186	-2.998000	3.853100	-11.550000	21.316123	0.000916	20.887601
47.017135	-3.017100	3.852700	-11.622000	21.319117	0.000917	20.872105
48.014314	-3.021400	3.850100	-11.632000	21.327648	0.000915	20.885855
49.023686	-3.021200	3.851300	-11.634000	21.328321	0.000915	20.874201
50.012011	-3.006100	3.850700	-11.575000	21.328346	0.000915	20.861899
51.016712	-2.994100	3.850700	-11.528000	21.349773	0.000913	20.873852
52.012890	-2.986500	3.850700	-11.498000	21.356133	0.000915	20.880215
53.013140	-2.981200	3.850100	-11.477000	21.365163	0.000914	20.901575
54.018550	-3.010300	3.849300	-11.585000	21.349997	0.000915	20.887826
55.016413	-2.989700	3.850400	-11.510000	21.362793	0.000915	20.882136
56.016319	-3.013300	3.850400	-11.602000	21.364963	0.000915	20.861549
57.021541	-3.024200	3.848600	-11.637000	21.364739	0.000913	20.871755
58.018808	-2.983300	3.850300	-11.486000	21.358677	0.000916	20.887501
59.016660	-3.006800	3.846900	-11.566000	21.375663	0.000914	20.876047
60.025508	-2.995100	3.848300	-11.523000	21.407316	0.000917	20.883059
61.024502	-2.997300	3.846200	-11.527000	21.386913	0.000913	20.873078
62.018897	-3.009400	3.846500	-11.575000	21.403899	0.000914	20.877270
63.022685	-3.018700	3.845300	-11.607000	21.403225	0.000915	20.853364
64.022386	-2.998400	3.844500	-11.526000	21.418265	0.000918	20.856558
65.018445	-2.990100	3.846300	-11.500000	21.437820	0.000916	20.868062
66.028009	-2.983700	3.845800	-11.474000	21.419313	0.000916	20.859503
67.023338	-2.996500	3.844900	-11.520000	21.443357	0.000914	20.856059
68.021643	-3.007700	3.845700	-11.565000	21.456451	0.000914	20.882435
69.022557	-3.005900	3.843100	-11.551000	21.452011	0.000914	20.858554
70.032873	-2.992300	3.844100	-11.501000	21.468522	0.000914	20.867488
71.023372	-2.980600	3.844000	-11.455000	21.480244	0.000915	20.859777
72.024351	-3.005100	3.842900	-11.546000	21.475306	0.000916	20.851043
73.026657	-3.026800	3.841000	-11.624000	21.487776	0.000912	20.849296
74.025100	-2.992600	3.843000	-11.500000	21.497678	0.000916	20.854462
75.025333	-3.023700	3.842600	-11.618000	21.499648	0.000914	20.882510
76.023122	-2.986800	3.842100	-11.475000	21.514288	0.000915	20.850694
77.023968	-2.989400	3.841400	-11.483000	21.528553	0.000913	20.865916
78.031550	-3.019400	3.841800	-11.598000	21.521944	0.000915	20.858828
79.023814	-2.986300	3.842200	-11.473000	21.546460	0.000913	20.851592
80.030166	-3.011200	3.842400	-11.568000	21.543068	0.000914	20.852939
81.028102	-3.021300	3.840500	-11.602000	21.535611	0.000915	20.855435
82.028734	-3.030300	3.838500	-11.630000	21.559852	0.000916	20.865466
83.031699	-3.000400	3.840200	-11.521000	21.560127	0.000916	20.871430
84.025967	-3.007800	3.839200	-11.545000	21.555114	0.000917	20.841760
85.024323	-2.993900	3.839700	-11.495000	21.557408	0.000917	20.860650
86.026268	-2.998400	3.839600	-11.511000	21.578656	0.000916	20.856308
87.036821	-3.013100	3.838200	-11.564000	21.582297	0.000918	20.831503
88.026413	-3.014900	3.838100	-11.571000	21.604492	0.000916	20.858928
89.028261	-2.995500	3.839900	-11.501000	21.596736	0.000917	20.859702
90.032660	-2.996500	3.839400	-11.503000	21.615938	0.000918	20.845727
91.027412	-2.992800	3.838100	-11.486000	21.619380	0.000920	20.833999
92.026380	-3.009000	3.838200	-11.548000	21.637285	0.000917	20.843382
93.028437	-2.991900	3.839100	-11.485000	21.627485	0.000920	20.848747
94.032321	-2.962500	3.837700	-11.367000	21.630228	0.000918	20.837268
95.027841	-2.979800	3.836500	-11.431000	21.660002	0.000919	20.863270
96.027969	-2.974600	3.837600	-11.413000	21.654566	0.000920	20.841710
97.031556	-2.995100	3.836200	-11.489000	21.679902	0.000920	20.840512
98.028471	-2.995500	3.836000	-11.490000	21.691423	0.000917	20.847300
99.033276	-3.001500	3.836400	-11.514000	21.710523	0.000921	20.817104
100.037989	-2.997300	3.836700	-11.498000	21.672795	0.000918	20.844779
101.029222	-2.998400	3.835300	-11.499000	21.704015	0.000920	20.831927
102.037848	-2.999800	3.835100	-11.504000	21.697756	0.000920	20.825189
103.035902	-3.010300	3.835100	-11.544000	21.708454	0.000919	20.843007
104.038202	-2.995100	3.836100	-11.487000	21.744585	0.000918	20.838865
105.027412	-3.009100	3.833900	-11.534000	21.755057	0.000919	20.851242
106.031611	-3.005300	3.834400	-11.522000	21.739024	0.000919	20.815756
107.030396	-2.988100	3.835600	-11.460000	21.751866	0.000919	20.837143
108.036551	-2.987900	3.835000	-11.456000	21.745058	0.000922	20.833649
109.035988	-3.018200	3.834100	-11.572000	21.764308	0.000922	20.851965
110.037886	-2.990800	3.834100	-11.467000	21.792633	0.000920	20.849021
111.039494	-2.981000	3.834100	-11.426000	21.775054	0.000923	20.851815
112.037481	-3.001900	3.832800	-11.503000	21.796149	0.000922	20.827884
113.033082	-2.987500	3.834100	-11.454000	21.765405	0.000925	20.819873
114.037907	-2.975500	3.834500	-11.408000	21.776949	0.000921	20.839014
115.033851	-2.993300	3.831800	-11.468000	21.771065	0.000923	20.843555
116.033354	-2.992200	3.832200	-11.464000	21.796273	0.000924	20.819948
117.031990	-3.008900	3.830700	-11.525000	21.805174	0.000923	20.819848
118.035038	-2.986100	3.832400	-11.442000	21.806371	0.000924	20.849020
119.036231	-2.986600	3.831400	-11.442000	21.814973	0.000924	20.835819
120.034503	-3.004400	3.831500	-11.510000	21.811158	0.000924	20.824889
121.033643	-3.008400	3.830500	-11.522000	21.841726	0.000924	20.819449
122.041404	-3.006200	3.830300	-11.512000	21.806645	0.000926	20.828432
123.033785	-3.025700	3.829200	-11.585000	21.826991	0.000923	20.836942
124.036495	-3.012100	3.829800	-11.534000	21.861946	0.000924	20.842532
125.032753	-3.015400	3.828900	-11.545000	21.854591	0.000925	20.829480
126.040244	-2.994500	3.829700	-11.466000	21.867232	0.000925	20.826960
127.035076	-3.021000	3.828000	-11.564000	21.897923	0.000926	20.828282
128.032640	-2.993100	3.829000	-11.458000	21.904256	0.000928	20.823241
129.035042	-2.985800	3.829100	-11.432000	21.913605	0.000925	20.835918
130.039083	-3.013400	3.827500	-11.532000	21.903583	0.000928	20.828257
131.032411	-3.021500	3.827700	-11.565000	21.928613	0.000927	20.837191
132.035611	-3.004600	3.827400	-11.498000	21.952248	0.000928	20.826236
133.035786	-3.001100	3.828200	-11.488000	21.920411	0.000927	20.821869
134.032755	-2.969600	3.829400	-11.371000	21.914951	0.000928	20.845800
135.034295	-2.985900	3.828700	-11.431000	21.942151	0.000927	20.829879
136.034486	-2.996400	3.827800	-11.469000	21.928638	0.000932	20.822043
137.035952	-3.015100	3.825700	-11.534000	21.948732	0.000930	20.813234
138.036219	-3.025400	3.826200	-11.574000	21.963566	0.000930	20.825237
139.036289	-3.000000	3.828100	-11.484000	21.956785	0.000930	20.805648
140.037362	-3.000700	3.825200	-11.477000	21.968427	0.000930	20.813983
141.039869	-3.012000	3.824500	-11.518000	21.966956	0.000930	20.830528
142.041614	-2.974900	3.827800	-11.385000	21.967305	0.000930	20.803851
143.045319	-2.985800	3.826200	-11.424000	21.986053	0.000932	20.821669
144.041420	-2.978200	3.826200	-11.394000	21.994454	0.000931	20.823915
145.041635	-2.995200	3.825600	-11.458000	22.023721	0.000933	20.833772
146.058299	-2.975200	3.824800	-11.379000	22.022100	0.000931	20.821244
147.038718	-3.000900	3.825100	-11.477000	22.032122	0.000931	20.811836
148.041949	-3.005300	3.824000	-11.491000	22.048300	0.000933	20.807170
149.042633	-2.998600	3.825100	-11.469000	22.051267	0.000934	20.815829
150.044579	-2.994400	3.823700	-11.448000	22.079236	0.000932	20.822018
151.042636	-3.023300	3.822600	-11.556000	22.061413	0.000934	20.809391
152.043666	-3.012500	3.822600	-11.514000	22.069439	0.000936	20.813633
153.044276	-3.007700	3.823500	-11.499000	22.097632	0.000937	20.815305
154.042459	-3.035000	3.822800	-11.600000	22.096361	0.000935	20.819248
155.044905	-3.010500	3.822700	-11.507000	22.092647	0.000938	20.806521
156.042268	-3.014900	3.822000	-11.522000	22.106855	0.000935	20.815530
157.044135	-2.974000	3.822000	-11.365000	22.105061	0.000937	20.804250
158.044092	-2.984500	3.821100	-11.403000	22.116676	0.000938	20.815879
159.044448	-2.995400	3.821100	-11.445000	22.091550	0.000937	20.812535
160.044617	-2.995400	3.820000	-11.442000	22.097383	0.000937	20.818849
161.046434	-2.977800	3.820200	-11.375000	22.099477	0.000940	20.815255
162.048075	-3.018800	3.820900	-11.532000	22.126797	0.000937	20.800407
163.049735	-2.999500	3.820900	-11.460000	22.127519	0.000939	20.800656
164.050215	-3.023800	3.820100	-11.549000	22.133801	0.000940	20.769961
165.049582	-2.987600	3.821700	-11.417000	22.146713	0.000939	20.818449
166.050566	-3.000900	3.819000	-11.460000	22.148782	0.000940	20.789227
167.050045	-2.992400	3.819200	-11.427000	22.155711	0.000941	20.838363
168.049565	-2.996700	3.820300	-11.446000	22.138786	0.000944	20.809091
169.050329	-3.008600	3.819100	-11.489000	22.150776	0.000938	20.817775
170.052268	-3.001800	3.819800	-11.465000	22.158179	0.000941	20.807170
171.055930	-2.978200	3.820300	-11.376000	22.181036	0.000942	20.809665
172.051679	-2.992900	3.818300	-11.426000	22.178393	0.000942	20.791847
173.053542	-2.998800	3.818200	-11.448000	22.190881	0.000942	20.792970
174.053638	-3.004300	3.819000	-11.472000	22.193049	0.000943	20.780442
175.055045	-2.988800	3.818100	-11.411000	22.204515	0.000945	20.807095
176.052417	-2.996500	3.817800	-11.438000	22.201698	0.000945	20.802378
177.051530	-3.003100	3.817200	-11.462000	22.209824	0.000945	20.800556
178.054825	-2.993300	3.816700	-11.423000	22.231533	0.000944	20.810438
179.055770	-3.014600	3.817400	-11.507000	22.230736	0.000944	20.799683
180.057006	-2.991500	3.816900	-11.417000	22.233078	0.000945	20.799658
181.052374	-2.999700	3.817700	-11.450000	22.242450	0.000945	20.795291
182.060602	-2.996500	3.816400	-11.435000	22.265380	0.000946	20.799758
183.054201	-3.000300	3.815100	-11.445000	22.257753	0.000946	20.783112
184.054936	-2.990300	3.814700	-11.406000	22.268919	0.000947	20.799508
185.059209	-3.002500	3.814400	-11.452000	22.248805	0.000947	20.805447
186.059863	-2.983400	3.815900	-11.384000	22.263610	0.000951	20.797512
187.056356	-2.999300	3.815400	-11.443000	22.281156	0.000949	20.806546
188.056621	-3.018900	3.815200	-11.517000	22.286315	0.000947	20.797012
189.061055	-3.003100	3.815600	-11.458000	22.305905	0.000949	20.805248
190.065163	-3.015700	3.814700	-11.503000	22.281679	0.000950	20.783836
191.063056	-2.987100	3.813900	-11.391000	22.298004	0.000951	20.785957
192.069007	-3.005000	3.812600	-11.456000	22.294589	0.000951	20.793918
193.062255	-2.994500	3.812600	-11.416000	22.284371	0.000952	20.777048
194.064715	-3.009200	3.812900	-11.473000	22.283175	0.000953	20.777746
195.063208	-3.001800	3.813100	-11.445000	22.287137	0.000953	20.791672
196.062529	-3.015100	3.812100	-11.493000	22.310465	0.000952	20.794167
197.064639	-3.017900	3.812000	-11.503000	22.321655	0.000952	20.793993
198.064834	-3.009900	3.812600	-11.475000	22.316696	0.000955	20.787130
199.062861	-2.998400	3.812100	-11.429000	22.310789	0.000954	20.787379
200.065513	-2.997200	3.813300	-11.428000	22.351437	0.000955	20.790624
201.066855	-3.002900	3.811200	-11.444000	22.336260	0.000954	20.783012
202.066039	-3.016000	3.812600	-11.498000	22.330552	0.000955	20.791048
203.066595	-2.980700	3.812500	-11.363000	22.365618	0.000958	20.775426
204.065958	-3.009400	3.810900	-11.467000	22.364845	0.000956	20.783661
205.067577	-3.002200	3.809800	-11.437000	22.415534	0.000956	20.778470
206.064905	-2.987200	3.809900	-11.380000	22.368683	0.000960	20.766167
207.067149	-3.001700	3.809400	-11.433000	22.402799	0.000959	20.762873
208.066634	-3.010500	3.809100	-11.467000	22.377355	0.000960	20.753514
209.079135	-2.997900	3.811400	-11.424000	22.381642	0.000959	20.797162
210.072043	-2.996300	3.810000	-11.415000	22.401304	0.000959	20.759953
211.066952	-3.018800	3.810800	-11.503000	22.400806	0.000959	20.801180
212.066975	-3.011200	3.809700	-11.471000	22.415957	0.000962	20.789800
213.070523	-2.996500	3.810300	-11.416000	22.437189	0.000961	20.784510
214.067879	-3.003400	3.809600	-11.440000	22.438311	0.000960	20.763347
215.070070	-3.000400	3.808200	-11.424000	22.429464	0.000961	20.775825
216.070222	-2.997500	3.808300	-11.415000	22.453611	0.000963	20.776299
217.064610	-3.002500	3.809100	-11.434000	22.468712	0.000963	20.774827
218.068005	-3.004100	3.806800	-11.435000	22.509903	0.000962	20.786207
219.071329	-3.004800	3.805700	-11.434000	22.483415	0.000964	20.772481
220.066315	-3.008100	3.806300	-11.449000	22.487825	0.000965	20.773579
221.070935	-2.998500	3.807400	-11.414000	22.500808	0.000965	20.760028
222.071394	-3.008200	3.805500	-11.447000	22.502303	0.000967	20.772431
223.070318	-2.999400	3.807500	-11.420000	22.521415	0.000966	20.766441
224.068508	-2.988000	3.806300	-11.371000	22.542271	0.000966	20.762673
225.071202	-2.994200	3.806300	-11.396000	22.541922	0.000968	20.756160
226.068464	-3.003200	3.804600	-11.425000	22.513192	0.000969	20.779543
227.071395	-3.000800	3.806000	-11.419000	22.532080	0.000970	20.774278
228.073205	-3.011900	3.804300	-11.456000	22.535693	0.000969	20.763197
229.069466	-2.999200	3.804900	-11.410000	22.541922	0.000970	20.764220
230.072856	-2.996100	3.804900	-11.398000	22.551814	0.000969	20.776024
231.073057	-2.983500	3.805100	-11.351000	22.541025	0.000969	20.775176
232.075162	-2.995700	3.805400	-11.398000	22.545386	0.000972	20.757257
233.077919	-2.981900	3.805100	-11.346000	22.550419	0.000972	20.762773
234.074436	-2.995200	3.804300	-11.392000	22.554979	0.000972	20.780616
235.072999	-2.991800	3.803500	-11.377000	22.601523	0.000969	20.753738
236.076015	-3.002100	3.803100	-11.417000	22.573915	0.000972	20.748847
237.079214	-2.979200	3.804000	-11.332000	22.551814	0.000972	20.776024
238.074866	-2.985400	3.804100	-11.355000	22.569530	0.000972	20.767689
239.080567	-2.973500	3.803700	-11.309000	22.574289	0.000974	20.763920
240.076415	-2.990600	3.805100	-11.378000	22.568309	0.000974	20.752715
241.077303	-2.989500	3.802300	-11.366000	22.604263	0.000975	20.778295
242.078056	-2.992400	3.802600	-11.377000	22.591431	0.000975	20.759752
243.078148	-3.009400	3.802000	-11.439000	22.598183	0.000974	20.747548
244.079748	-3.005500	3.801000	-11.423000	22.619113	0.000977	20.772305
245.079982	-2.992900	3.802400	-11.378000	22.617020	0.000976	20.764993
246.080658	-2.994000	3.800900	-11.378000	22.639792	0.000979	20.744179
247.079510	-2.999100	3.800400	-11.397000	22.652051	0.000980	20.762622
248.080560	-2.986800	3.801500	-11.352000	22.660472	0.000980	20.769160
249.081611	-3.007400	3.799500	-11.426000	22.703648	0.000980	20.763570
250.082918	-2.998800	3.800100	-11.395000	22.697196	0.000977	20.754736
251.082960	-3.013500	3.798800	-11.446000	22.702676	0.000980	20.761174
252.083311	-3.007600	3.799300	-11.427000	22.717450	0.000981	20.761274
253.086345	-3.004600	3.799800	-11.415000	22.744008	0.000980	20.757530
254.086180	-2.996900	3.798600	-11.382000	22.722707	0.000983	20.750418
255.081529	-3.003600	3.799900	-11.411000	22.721262	0.000983	20.761299
256.082554	-3.033900	3.798500	-11.523000	22.722258	0.000983	20.741907
257.085845	-3.018000	3.798200	-11.462000	22.724276	0.000983	20.741558
258.084435	-2.971100	3.799200	-11.288000	22.767052	0.000983	20.753587
259.085719	-2.981500	3.798900	-11.325000	22.738751	0.000983	20.737565
260.087142	-3.002000	3.797500	-11.398000	22.752826	0.000985	20.757355
261.088625	-2.997200	3.797900	-11.381000	22.735487	0.000985	20.765591
262.085573	-2.997800	3.796400	-11.379000	22.747520	0.000986	20.739711
263.089293	-3.001400	3.796800	-11.395000	22.747570	0.000985	20.754934
264.086228	-2.993900	3.796600	-11.365000	22.757510	0.000985	20.743554
265.086412	-2.986200	3.797200	-11.337000	22.760873	0.000990	20.740285
266.085831	-2.998500	3.796500	-11.382000	22.777514	0.000989	20.773077
267.088016	-2.983500	3.796700	-11.325000	22.762866	0.000987	20.738962
268.087492	-2.989500	3.796600	-11.348000	22.784091	0.000987	20.761647
269.089783	-2.988400	3.796800	-11.345000	22.812540	0.000988	20.749369
270.090319	-3.004300	3.795300	-11.401000	22.778760	0.000989	20.760100
271.086178	-3.014500	3.795100	-11.438000	22.767773	0.000989	20.748620
272.092582	-2.994900	3.795900	-11.367000	22.765208	0.000989	20.742730
273.092610	-3.017200	3.792600	-11.442000	22.783618	0.000991	20.749793
274.091768	-3.007200	3.793800	-11.407000	22.763837	0.000991	20.761747
275.092036	-3.021000	3.794400	-11.461000	22.792063	0.000992	20.772004
276.090870	-3.013500	3.794300	-11.433000	22.808081	0.000993	20.740634
277.092262	-3.011500	3.793500	-11.424000	22.812465	0.000990	20.757355
278.091443	-2.990100	3.793500	-11.341000	22.823900	0.000991	20.735143
279.095748	-2.991400	3.792500	-11.343000	22.830825	0.000994	20.750616
280.089979	-2.984300	3.792200	-11.316000	22.837576	0.000992	20.752164
281.089334	-3.016700	3.791500	-11.436000	22.844900	0.000993	20.745750
282.091146	-3.000200	3.790900	-11.372000	22.861191	0.000996	20.737414
283.090650	-2.990000	3.790900	-11.333000	22.876909	0.000995	20.750791
284.093402	-3.009800	3.790600	-11.407000	22.866547	0.000996	20.731874
285.090135	-3.003300	3.791600	-11.386000	22.844326	0.000997	20.743753
286.094355	-2.997100	3.790400	-11.359000	22.864728	0.000994	20.742855
287.091438	-2.994000	3.791400	-11.350000	22.853494	0.000995	20.734444
288.093221	-3.008200	3.789700	-11.399000	22.868838	0.000997	20.751714
289.094434	-3.005700	3.790300	-11.392000	22.911409	0.000996	20.740783
290.094819	-3.008700	3.789300	-11.399000	22.896214	0.000998	20.755907
291.091269	-3.018600	3.790300	-11.439000	22.928223	0.000997	20.747197
292.092006	-2.995700	3.787900	-11.346000	22.916740	0.000997	20.734270
293.091654	-2.998500	3.790200	-11.364000	22.946555	0.000998	20.776471
294.093662	-3.005300	3.789000	-11.386000	22.959782	0.000997	20.742306
295.093349	-3.024000	3.786900	-11.450000	22.983345	0.001000	20.760224
296.095325	-2.986100	3.788500	-11.311000	22.962671	0.000998	20.773651
297.093662	-3.007200	3.787300	-11.388000	22.965137	0.001001	20.743878
298.093283	-2.993900	3.787100	-11.336000	22.953106	0.001001	20.761697
299.096243	-2.985000	3.787800	-11.305000	22.962920	0.001000	20.744976
300.097663	-3.000400	3.786900	-11.362000	22.972410	0.001002	20.762071
301.097304	-2.985300	3.787100	-11.305000	23.006384	0.001002	20.770032
302.093395	-2.994100	3.785800	-11.335000	23.018937	0.001005	20.753212
303.097977	-2.998000	3.785000	-11.346000	23.030967	0.001003	20.767636
304.097264	-3.022700	3.785200	-11.440000	23.037393	0.001006	20.752263
305.096638	-2.995000	3.786200	-11.338000	23.020606	0.001004	20.759625
306.103045	-3.006500	3.786200	-11.383000	23.033034	0.001003	20.768285
307.098136	-3.008300	3.785200	-11.386000	23.053931	0.001005	20.767412
308.098538	-2.999300	3.785000	-11.350000	23.036172	0.001004	20.751040
309.103411	-3.016300	3.784500	-11.413000	23.058837	0.001006	20.749094
310.105446	-3.016900	3.784000	-11.415000	23.023047	0.001003	20.748794
311.094630	-3.025300	3.782600	-11.441000	23.054578	0.001006	20.764267
312.104260	-3.011400	3.783000	-11.391000	23.052909	0.001009	20.770656
313.099475	-3.006300	3.782600	-11.371000	23.053358	0.001007	20.765889
314.102586	-3.006400	3.782600	-11.370000	23.045014	0.001007	20.751365
315.108142	-2.985700	3.784300	-11.297000	23.013607	0.001006	20.750716
316.100523	-2.990000	3.782700	-11.309000	23.005213	0.001008	20.758902
317.103237	-2.997500	3.781200	-11.333000	23.035325	0.001009	20.779116
318.102405	-3.017000	3.781400	-11.407000	23.016969	0.001010	20.777319
319.105528	-3.002900	3.781400	-11.354000	23.039634	0.001011	20.768734
320.101005	-3.011700	3.781800	-11.389000	23.053656	0.001010	20.745799
321.106942	-3.012700	3.780100	-11.387000	23.062398	0.001010	20.765939
322.105416	-2.991400	3.781800	-11.312000	23.063420	0.001011	20.771230
323.102255	-2.996600	3.781600	-11.330000	23.088151	0.001012	20.757604
324.106452	-3.024000	3.779000	-11.426000	23.088250	0.001008	20.768609
325.104548	-3.006900	3.780400	-11.367000	23.076620	0.001013	20.772128
326.103012	-3.012600	3.779400	-11.384000	23.091513	0.001013	20.771404
327.106745	-2.987200	3.781200	-11.293000	23.113977	0.001012	20.767836
328.117694	-2.987200	3.781200	-11.294000	23.128696	0.001015	20.786378
329.109579	-2.985300	3.780300	-11.283000	23.157859	0.001012	20.765340
330.108448	-2.988000	3.779000	-11.290000	23.122818	0.001015	20.766738
331.108277	-3.018200	3.778200	-11.401000	23.158879	0.001014	20.792442
332.104474	-3.001700	3.779200	-11.342000	23.147125	0.001015	20.759800
333.108127	-3.012200	3.777100	-11.376000	23.196982	0.001016	20.764242
334.107020	-3.014800	3.777200	-11.387000	23.189361	0.001016	20.768934
335.105995	-2.987500	3.778000	-11.286000	23.212870	0.001015	20.782535
336.107907	-2.977200	3.779500	-11.252000	23.222233	0.001016	20.759201
337.108823	-3.005400	3.777100	-11.351000	23.231870	0.001015	20.765540
338.105777	-3.002800	3.777000	-11.341000	23.197529	0.001017	20.788025
339.106625	-3.007100	3.776000	-11.354000	23.211500	0.001016	20.775472
340.114135	-3.010400	3.776500	-11.368000	23.198600	0.001019	20.769658
341.109108	-2.989500	3.776500	-11.289000	23.195687	0.001019	20.763419
342.108474	-2.998200	3.776100	-11.321000	23.189785	0.001019	20.766987
343.110857	-3.020000	3.775200	-11.400000	23.205449	0.001019	20.757554
344.108031	-2.985800	3.776000	-11.274000	23.228234	0.001020	20.760474
345.114882	-3.019600	3.774300	-11.396000	23.198376	0.001021	20.770855
346.109357	-2.984300	3.776300	-11.268000	23.188838	0.001018	20.780264
347.113754	-2.994600	3.773900	-11.300000	23.205025	0.001021	20.793166
348.113305	-2.997000	3.773500	-11.308000	23.198003	0.001021	20.773800
349.108133	-2.984200	3.773300	-11.259000	23.232493	0.001020	20.793191
350.107655	-2.989500	3.774000	-11.281000	23.233613	0.001021	20.778667
351.110858	-2.990900	3.773600	-11.284000	23.237772	0.001022	20.770980
352.109354	-3.002100	3.772000	-11.323000	23.229230	0.001022	20.762420
353.109934	-3.018300	3.772400	-11.385000	23.250322	0.001024	20.766014
354.111878	-3.002800	3.771900	-11.326000	23.231820	0.001021	20.768335
355.114001	-3.020100	3.772400	-11.392000	23.232891	0.001025	20.773201
356.111495	-3.000000	3.773000	-11.318000	23.264740	0.001024	20.778093
357.112217	-3.039000	3.770800	-11.457000	23.246189	0.001024	20.782735
358.111458	-2.982000	3.771500	-11.246000	23.227960	0.001024	20.788175
359.115058	-3.001900	3.771000	-11.318000	23.226217	0.001024	20.786428
360.114702	-3.007500	3.769700	-11.337000	23.257295	0.001027	20.773002
361.117621	-3.000300	3.772000	-11.316000	23.246662	0.001026	20.775622
362.114626	-3.010200	3.769400	-11.344000	23.255203	0.001027	20.793665
363.118387	-2.991900	3.769700	-11.278000	23.295219	0.001024	20.786353
364.114293	-2.990200	3.771000	-11.275000	23.312550	0.001026	20.800877
365.117385	-2.996900	3.769400	-11.296000	23.316185	0.001026	20.775597
366.117449	-2.978800	3.769900	-11.228000	23.342106	0.001028	20.793041
367.116991	-3.002100	3.768100	-11.312000	23.360557	0.001027	20.799205
368.116529	-2.995600	3.769200	-11.291000	23.350099	0.001027	20.776396
369.116230	-3.009900	3.768000	-11.340000	23.373554	0.001027	20.788050
370.117326	-2.992400	3.768200	-11.275000	23.385206	0.001030	20.796410
371.116543	-3.010800	3.766700	-11.340000	23.367902	0.001030	20.799455
372.116403	-3.003000	3.766400	-11.309000	23.361851	0.001029	20.771105
373.116714	-2.970700	3.767200	-11.188000	23.348406	0.001030	20.782285
374.117371	-2.993600	3.766900	-11.275000	23.343077	0.001029	20.789273
375.120638	-2.991800	3.766100	-11.266000	23.326892	0.001029	20.805768
376.118415	-3.002700	3.765800	-11.306000	23.329108	0.001032	20.777169
377.121010	-2.992200	3.765100	-11.265000	23.357270	0.001032	20.800178
378.120534	-3.022100	3.763800	-11.374000	23.371512	0.001031	20.789323
379.119757	-3.023000	3.763800	-11.376000	23.357344	0.001031	20.800727
380.117888	-3.012100	3.763700	-11.334000	23.335084	0.001032	20.798806
381.118792	-2.992000	3.765500	-11.265000	23.362822	0.001032	20.802424
382.122394	-2.991700	3.763100	-11.257000	23.350796	0.001031	20.788000
383.121521	-2.976800	3.764000	-11.203000	23.359411	0.001032	20.800428
384.120938	-3.001800	3.764000	-11.297000	23.348306	0.001033	20.793565
385.123849	-3.001300	3.764000	-11.296000	23.358988	0.001033	20.793839
386.121919	-3.001800	3.763900	-11.297000	23.376940	0.001033	20.814203
387.123641	-3.019800	3.761500	-11.359000	23.378882	0.001033	20.815201
388.125607	-2.988800	3.762700	-11.245000	23.398626	0.001033	20.782834
389.122030	-3.007200	3.761600	-11.311000	23.369420	0.001033	20.800502
390.126903	-2.992200	3.762300	-11.255000	23.395365	0.001034	20.810859
391.129457	-2.992300	3.762400	-11.256000	23.438189	0.001033	20.792617
392.124225	-3.019400	3.760300	-11.353000	23.427757	0.001035	20.803971
393.129681	-3.004500	3.760400	-11.297000	23.442994	0.001035	20.801226
394.127250	-3.009000	3.760900	-11.316000	23.481012	0.001036	20.815151
395.124992	-3.001700	3.760600	-11.288000	23.495352	0.001037	20.829051
396.128669	-2.995100	3.759700	-11.258000	23.517659	0.001032	20.803048
397.130155	-2.999500	3.757900	-11.270000	23.510588	0.001038	20.807814
398.128951	-2.996200	3.759000	-11.262000	23.491344	0.001037	20.812231
399.125104	-3.007000	3.758900	-11.301000	23.497692	0.001038	20.804370
400.131091	-3.007800	3.758300	-11.304000	23.514248	0.001036	20.802474
401.128968	-2.999100	3.758000	-11.270000	23.533094	0.001038	20.817097
402.125308	-3.013200	3.759300	-11.326000	23.527069	0.001038	20.812955
403.127786	-2.993700	3.757700	-11.249000	23.521791	0.001039	20.817147
404.129670	-2.988700	3.756800	-11.226000	23.530903	0.001038	20.828177
405.126482	-2.985000	3.757900	-11.216000	23.544521	0.001039	20.802474
406.130242	-2.997100	3.756700	-11.259000	23.587265	0.001038	20.814976
407.128502	-3.006300	3.755800	-11.290000	23.564138	0.001040	20.820242
408.131226	-3.009100	3.754400	-11.296000	23.568768	0.001038	20.812081
409.131660	-2.995000	3.756600	-11.249000	23.574768	0.001040	20.810509
410.128998	-3.019200	3.756200	-11.341000	23.569938	0.001039	20.807090
411.126087	-3.008100	3.755200	-11.295000	23.553010	0.001040	20.815251
412.141318	-2.998800	3.756500	-11.264000	23.573822	0.001040	20.835165
413.129350	-2.990100	3.756400	-11.231000	23.552885	0.001041	20.807540
414.126340	-3.023800	3.753600	-11.350000	23.575540	0.001042	20.816498
415.130731	-2.995000	3.753700	-11.241000	23.585248	0.001039	20.839981
416.131275	-3.000500	3.754300	-11.263000	23.608325	0.001039	20.822338
417.131534	-2.986300	3.753300	-11.208000	23.603023	0.001041	20.829350
418.133183	-2.995600	3.753400	-11.243000	23.573697	0.001039	20.823660
419.130147	-2.993300	3.752400	-11.231000	23.577083	0.001040	20.839382
420.128850	-2.969500	3.754300	-11.147000	23.586792	0.001041	20.821614
421.131979	-2.973300	3.753700	-11.159000	23.594135	0.001042	20.828502
422.131210	-3.007300	3.751500	-11.281000	23.593886	0.001042	20.832045
423.128347	-2.997700	3.751300	-11.243000	23.616017	0.001042	20.860868
424.133586	-2.998700	3.752400	-11.251000	23.613826	0.001042	20.844922
425.129487	-3.001200	3.750700	-11.255000	23.613752	0.001042	20.829200
426.132885	-2.998600	3.750200	-11.245000	23.664707	0.001042	20.852782
427.132188	-3.015200	3.749600	-11.304000	23.674017	0.001044	20.823710
428.133330	-3.002200	3.750600	-11.259000	23.671652	0.001044	20.845521
429.129306	-2.993700	3.750000	-11.224000	23.659679	0.001046	20.842052
430.134257	-3.003000	3.749100	-11.257000	23.650071	0.001040	20.828626
431.129900	-2.993600	3.750400	-11.226000	23.657464	0.001043	20.828926
432.131237	-3.012000	3.747900	-11.288000	23.671080	0.001044	20.835464
433.134504	-2.998600	3.748500	-11.239000	23.685766	0.001043	20.832644
434.134407	-2.993100	3.748500	-11.219000	23.694205	0.001044	20.837311
435.135086	-2.995000	3.748100	-11.224000	23.689475	0.001044	20.859121
436.134998	-3.005100	3.747500	-11.260000	23.710309	0.001044	20.844922
437.133837	-2.985300	3.747800	-11.187000	23.752599	0.001044	20.859819
438.131939	-2.997800	3.747200	-11.232000	23.735275	0.001047	20.850512
439.134968	-3.003600	3.745900	-11.250000	23.749338	0.001046	20.839956
440.133453	-2.995300	3.746500	-11.220000	23.754789	0.001046	20.834042
441.133248	-3.008500	3.745300	-11.266000	23.761983	0.001045	20.848840
442.133859	-3.013000	3.744400	-11.281000	23.760638	0.001044	20.843699
443.135530	-2.972800	3.745400	-11.133000	23.744982	0.001046	20.856451
444.132783	-3.004600	3.746000	-11.254000	23.719868	0.001046	20.845496
445.138893	-3.005400	3.743600	-11.250000	23.706401	0.001046	20.851909
446.135719	-3.003600	3.743700	-11.243000	23.732985	0.001043	20.855328
447.135165	-2.987600	3.743700	-11.184000	23.739855	0.001048	20.851310
448.137860	-2.993800	3.743900	-11.208000	23.745679	0.001047	20.866158
449.136279	-2.999000	3.742700	-11.223000	23.751280	0.001049	20.872246
450.133435	-2.983600	3.744400	-11.171000	23.749761	0.001044	20.857449
451.136905	-2.995500	3.743600	-11.213000	23.762007	0.001048	20.849813
452.137065	-2.996900	3.742900	-11.215000	23.777265	0.001048	20.865110
453.135681	-3.001800	3.742200	-11.231000	23.778285	0.001047	20.871822
454.140323	-2.993900	3.742900	-11.205000	23.767583	0.001047	20.880531
455.138622	-3.019000	3.740100	-11.291000	23.777240	0.001047	20.864136
456.139553	-3.026800	3.740300	-11.319000	23.775000	0.001047	20.861891
457.141939	-2.986500	3.741800	-11.173000	23.764795	0.001047	20.851659
458.139537	-2.993300	3.742100	-11.199000	23.789137	0.001051	20.869427
459.138337	-3.002400	3.740900	-11.231000	23.781944	0.001051	20.869327
460.142332	-2.982900	3.740200	-11.156000	23.776966	0.001051	20.868129
461.141347	-3.009400	3.738300	-11.248000	23.787719	0.001049	20.878909
462.139603	-2.985100	3.738400	-11.158000	23.802055	0.001048	20.868154
463.151570	-2.987600	3.738600	-11.169000	23.844291	0.001048	20.869726
464.137998	-2.987800	3.739800	-11.172000	23.856163	0.001048	20.867405
465.143478	-2.989000	3.740300	-11.179000	23.887596	0.001049	20.841553
466.145543	-2.993600	3.738900	-11.190000	23.889736	0.001049	20.875466
467.141927	-2.995100	3.737200	-11.193000	23.889587	0.001049	20.865359
468.140633	-2.992900	3.738200	-11.187000	23.900562	0.001050	20.843649
469.143582	-3.001000	3.737100	-11.214000	23.901632	0.001048	20.876489
470.144143	-2.994000	3.737800	-11.190000	23.904295	0.001050	20.865883
471.140401	-3.001000	3.736900	-11.214000	23.924055	0.001049	20.877637
472.148586	-3.006900	3.736800	-11.236000	23.940854	0.001048	20.886420
473.145782	-2.992300	3.736000	-11.178000	23.961385	0.001051	20.889465
474.143968	-3.000500	3.736200	-11.209000	23.960165	0.001048	20.883027
475.153347	-3.001700	3.734700	-11.209000	23.965864	0.001050	20.872621
476.144255	-3.007200	3.735000	-11.230000	23.968626	0.001050	20.863538
477.145751	-3.005100	3.735300	-11.224000	23.945159	0.001049	20.886470
478.148106	-2.996100	3.734800	-11.189000	23.925872	0.001050	20.891311
479.147151	-3.015200	3.733900	-11.257000	23.930501	0.001051	20.875091
480.144640	-3.004900	3.733800	-11.219000	23.952127	0.001049	20.871648
481.148149	-2.993300	3.734400	-11.177000	23.970144	0.001052	20.861267
482.145296	-3.029100	3.731600	-11.302000	23.984453	0.001052	20.889839
483.146245	-3.015000	3.732400	-11.252000	23.988286	0.001050	20.896052
484.149813	-2.978000	3.733500	-11.117000	23.983159	0.001051	20.869102
485.146982	-2.982700	3.733500	-11.134000	24.019715	0.001052	20.878735
486.148300	-3.011300	3.730600	-11.232000	23.995229	0.001051	20.912022
487.152312	-3.002200	3.730900	-11.200000	24.007795	0.001052	20.880531
488.152259	-3.022700	3.730400	-11.275000	23.997294	0.001053	20.879483
489.149882	-3.007900	3.731400	-11.222000	24.004436	0.001050	20.906558
490.155107	-3.015700	3.729700	-11.247000	24.028524	0.001052	20.880456
491.149405	-2.996500	3.729700	-11.175000	24.047934	0.001050	20.894231
492.150776	-3.015100	3.729400	-11.243000	24.047884	0.001051	20.878061
493.169525	-2.982700	3.729700	-11.123000	24.060550	0.001054	20.914942
494.155585	-3.018100	3.727900	-11.250000	24.051069	0.001054	20.874617
495.154250	-2.980000	3.729000	-11.111000	24.057066	0.001052	20.904337
496.156658	-2.988300	3.728000	-11.139000	24.044351	0.001051	20.900594
497.156223	-3.008500	3.727400	-11.212000	24.062963	0.001053	20.900295
498.152154	-3.002000	3.727300	-11.188000	24.046565	0.001052	20.904711
499.157981	-3.002200	3.728000	-11.191000	24.047287	0.001052	20.925347
500.155372	-3.017300	3.726700	-11.244000	24.065377	0.001053	20.897500
501.155922	-3.000400	3.727100	-11.182000	24.065651	0.001052	20.905834
502.156998	-3.008700	3.725200	-11.206000	24.073962	0.001053	20.906583
503.155581	-2.996200	3.726500	-11.165000	24.060202	0.001053	20.903688
504.154943	-3.008400	3.725900	-11.207000	24.093744	0.001052	20.908879
505.156091	-2.999100	3.725900	-11.174000	24.094789	0.001051	20.903289
506.153870	-3.032800	3.724800	-11.295000	24.111809	0.001052	20.912297
507.152766	-3.018200	3.725300	-11.243000	24.110913	0.001052	20.916614
508.159975	-3.017000	3.724500	-11.236000	24.099467	0.001052	20.908455
509.151844	-2.999200	3.724600	-11.169000	24.141966	0.001050	20.896078
510.158143	-3.011800	3.724900	-11.216000	24.138159	0.001054	20.895105
511.160409	-3.004800	3.724500	-11.190000	24.169758	0.001051	20.904986
512.152747	-3.022500	3.721800	-11.248000	24.163538	0.001051	20.929091
513.157001	-3.005000	3.723500	-11.187000	24.155078	0.001052	20.912073
514.155811	-3.007200	3.722700	-11.193000	24.146544	0.001051	20.922478
515.161155	-3.021900	3.722500	-11.248000	24.131590	0.001051	20.910800
516.161911	-2.992700	3.722100	-11.138000	24.139926	0.001052	20.939072
517.155495	-3.008800	3.721900	-11.197000	24.156397	0.001049	20.913396
518.154731	-2.976600	3.723100	-11.080000	24.156347	0.001053	20.919983
519.156842	-2.996000	3.721600	-11.149000	24.180507	0.001052	20.920981
520.153998	-3.007900	3.721200	-11.192000	24.182298	0.001051	20.917563
521.156552	-2.994300	3.720500	-11.140000	24.200013	0.001051	20.919684
522.156958	-2.985600	3.721500	-11.108000	24.199839	0.001049	20.916190
523.154921	-2.982300	3.719900	-11.093000	24.170555	0.001052	20.919060
524.156866	-3.006800	3.719900	-11.184000	24.148584	0.001050	20.910776
525.160315	-2.996400	3.719000	-11.143000	24.161125	0.001051	20.920507
526.156372	-2.994900	3.719500	-11.139000	24.204691	0.001050	20.903514
527.157033	-2.969700	3.720400	-11.048000	24.214021	0.001054	20.902916
528.157466	-3.013700	3.717500	-11.201000	24.215066	0.001050	20.913920
529.156731	-3.010400	3.718100	-11.192000	24.196256	0.001051	20.906434
530.157340	-3.011900	3.717900	-11.197000	24.226087	0.001051	20.920233
531.156566	-3.023900	3.717200	-11.239000	24.219345	0.001049	20.917264
532.158778	-2.994200	3.717700	-11.131000	24.221385	0.001049	20.919310
533.158970	-2.998800	3.716600	-11.145000	24.197326	0.001051	20.923626
534.160707	-3.022000	3.715600	-11.228000	24.177496	0.001049	20.912747
535.163641	-2.996700	3.715900	-11.134000	24.148410	0.001050	20.910127
536.159885	-2.988300	3.715300	-11.101000	24.165554	0.001049	20.896977
537.163918	-2.997500	3.716000	-11.138000	24.169933	0.001051	20.882878
538.166475	-3.000300	3.714500	-11.144000	24.187275	0.001053	20.896952
539.162769	-2.993200	3.714500	-11.118000	24.191654	0.001051	20.925997
540.163321	-3.006900	3.713900	-11.166000	24.210787	0.001050	20.905361
541.167292	-2.975800	3.715200	-11.054000	24.227182	0.001052	20.900944
542.170074	-3.010800	3.713700	-11.180000	24.209742	0.001052	20.902417
543.164857	-3.019500	3.714300	-11.214000	24.213424	0.001051	20.887619
544.164593	-3.006900	3.713200	-11.164000	24.181055	0.001049	20.911101
545.168058	-2.998800	3.713600	-11.136000	24.177497	0.001051	20.886197
546.164996	-2.991600	3.713100	-11.106000	24.169212	0.001050	20.882155
547.167862	-3.009200	3.711600	-11.169000	24.151944	0.001053	20.892336
548.170336	-3.022000	3.711500	-11.215000	24.192326	0.001051	20.903440
549.169615	-3.009700	3.713200	-11.174000	24.203373	0.001052	20.907407
550.169470	-2.995900	3.711800	-11.119000	24.207627	0.001050	20.885124
551.173995	-2.998700	3.712400	-11.131000	24.187698	0.001051	20.885998
552.172182	-2.995300	3.711300	-11.115000	24.213175	0.001052	20.894482
553.169306	-3.002300	3.711800	-11.143000	24.207503	0.001052	20.884526
554.172116	-2.989600	3.710600	-11.092000	24.228924	0.001051	20.898899
555.169149	-2.986300	3.709100	-11.075000	24.234771	0.001053	20.892436
556.169961	-2.974900	3.710600	-11.037000	24.256565	0.001052	20.880159
557.173246	-3.006800	3.710600	-11.156000	24.261865	0.001051	20.865561
558.173739	-2.991600	3.710400	-11.100000	24.258282	0.001049	20.863864
559.170118	-2.996200	3.709600	-11.113000	24.262437	0.001049	20.899323
560.170524	-2.989800	3.707900	-11.085000	24.289778	0.001050	20.867956
561.168633	-2.991500	3.709300	-11.095000	24.299282	0.001049	20.856627
562.169108	-3.009500	3.707200	-11.156000	24.322045	0.001048	20.876141
563.172670	-3.002400	3.708300	-11.133000	24.336897	0.001049	20.890564
564.168787	-3.001800	3.706900	-11.125000	24.294256	0.001050	20.859172
565.169886	-2.999900	3.707100	-11.119000	24.278359	0.001049	20.874045
566.169989	-2.998100	3.706900	-11.113000	24.257983	0.001050	20.867831
567.169224	-3.012700	3.705600	-11.163000	24.207055	0.001047	20.861318
568.167655	-3.003100	3.706400	-11.129000	24.215191	0.001049	20.874694
569.171883	-3.002200	3.706600	-11.127000	24.205040	0.001048	20.853608
570.172029	-3.011400	3.706300	-11.160000	24.205562	0.001048	20.869778
571.169460	-3.001300	3.705600	-11.120000	24.197551	0.001050	20.852734
572.172446	-3.009300	3.704000	-11.146000	24.191231	0.001049	20.869154
573.173351	-2.968300	3.705900	-10.998000	24.203821	0.001051	20.855704
574.172841	-3.018700	3.705000	-11.183000	24.208772	0.001048	20.866359
575.174584	-3.027200	3.702500	-11.207000	24.254973	0.001049	20.851536
576.171340	-3.003200	3.703500	-11.121000	24.271045	0.001048	20.869553
577.172029	-3.001000	3.702500	-11.110000	24.281270	0.001049	20.852310
578.172815	-3.007100	3.702900	-11.135000	24.301446	0.001050	20.853583
579.171498	-3.010000	3.702700	-11.144000	24.316945	0.001048	20.864862
580.172593	-3.049000	3.701200	-11.283000	24.297913	0.001050	20.866160
581.174644	-3.019700	3.701700	-11.177000	24.313985	0.001048	20.851462
582.173014	-3.002900	3.701600	-11.114000	24.316547	0.001050	20.858773
583.172891	-3.014700	3.701400	-11.158000	24.311969	0.001047	20.857026
584.173772	-3.026200	3.699200	-11.194000	24.317443	0.001049	20.843551
585.172101	-3.003500	3.701800	-11.117000	24.284404	0.001049	20.845497
586.172884	-3.013200	3.700200	-11.149000	24.290873	0.001048	20.849141
587.180318	-3.025900	3.698600	-11.191000	24.302740	0.001049	20.849191
588.174762	-3.001000	3.700600	-11.103000	24.306273	0.001049	20.855105
589.172708	-2.998500	3.698800	-11.089000	24.292291	0.001047	20.852934
590.175077	-3.014400	3.698500	-11.147000	24.336449	0.001051	20.845073
591.177032	-2.973300	3.699500	-10.998000	24.376003	0.001046	20.863889
592.173854	-2.992000	3.699100	-11.066000	24.395879	0.001046	20.852535
593.179605	-3.006800	3.697500	-11.117000	24.439311	0.001046	20.852011
594.175726	-2.992500	3.698100	-11.066000	24.459236	0.001049	20.835491
595.177734	-3.005400	3.698000	-11.112000	24.451972	0.001048	20.838161
596.177482	-3.021800	3.697800	-11.173000	24.424137	0.001048	20.832047
597.177930	-3.012100	3.696500	-11.133000	24.452594	0.001047	20.856328
598.180114	-3.010100	3.696500	-11.126000	24.421451	0.001047	20.854481
599.179364	-3.014300	3.696600	-11.141000	24.416351	0.001048	20.853633
600.178982	-2.999200	3.697100	-11.087000	24.398541	0.001045	20.843826
601.180076	-2.996300	3.694900	-11.070000	24.390356	0.001044	20.852210
602.185864	-3.023300	3.695600	-11.173000	24.387098	0.001046	20.847519
603.179050	-2.990000	3.694900	-11.046000	24.366450	0.001047	20.834867
604.185158	-3.001500	3.694900	-11.089000	24.385232	0.001046	20.861768
605.187075	-2.964700	3.696200	-10.957000	24.405779	0.001043	20.859148
606.182095	-2.994500	3.694700	-11.062000	24.435804	0.001045	20.859397
607.183844	-2.993300	3.694300	-11.057000	24.430232	0.001045	20.838161
608.187562	-2.982300	3.695200	-11.020000	24.404113	0.001046	20.865062
609.182976	-2.997300	3.692900	-11.068000	24.385829	0.001045	20.851462
610.186723	-2.988800	3.693000	-11.036000	24.367446	0.001045	20.849141
611.186119	-2.979400	3.693100	-11.002000	24.311597	0.001046	20.845747
612.185316	-2.991800	3.693400	-11.050000	24.318040	0.001043	20.848418
613.182337	-3.000700	3.692000	-11.077000	24.269254	0.001044	20.840732
614.186769	-3.001200	3.692500	-11.082000	24.297118	0.001044	20.843551
615.183570	-2.997400	3.692200	-11.066000	24.341449	0.001045	20.851038
616.187513	-3.016900	3.690500	-11.133000	24.310826	0.001046	20.842129
617.187649	-3.032000	3.690100	-11.186000	24.326672	0.001044	20.831473
618.187001	-2.998900	3.691100	-11.067000	24.329608	0.001044	20.844375
619.188959	-3.026100	3.688500	-11.161000	24.371177	0.001044	20.836290
620.189187	-2.980300	3.690400	-10.997000	24.397919	0.001045	20.858374
621.185516	-3.000600	3.689300	-11.068000	24.418466	0.001043	20.834892
622.184263	-3.018900	3.688400	-11.134000	24.442147	0.001042	20.847744
623.187962	-2.973600	3.691000	-10.974000	24.427396	0.001041	20.849541
624.184411	-3.027100	3.687400	-11.161000	24.402546	0.001043	20.844525
625.185470	-2.975800	3.688900	-10.976000	24.424312	0.001046	20.817049
626.189115	-3.002100	3.687100	-11.068000	24.404959	0.001042	20.821342
627.187044	-2.987400	3.688600	-11.017000	24.401228	0.001040	20.824237
628.185330	-3.001500	3.686300	-11.063000	24.402645	0.001041	20.844624
629.187879	-2.984900	3.687500	-11.006000	24.424461	0.001041	20.833320
630.187159	-3.000500	3.686700	-11.061000	24.428192	0.001041	20.825684
631.188604	-2.977700	3.686400	-10.976000	24.444436	0.001043	20.843876
632.191596	-2.974600	3.685700	-10.963000	24.469285	0.001039	20.818073
633.187630	-2.997700	3.685600	-11.046000	24.497716	0.001043	20.846122
634.185138	-2.999000	3.686300	-11.052000	24.487941	0.001042	20.802176
635.193259	-2.999100	3.685500	-11.051000	24.490950	0.001039	20.829377
636.193810	-2.984900	3.685200	-10.999000	24.478488	0.001041	20.820194
637.184422	-3.009200	3.683800	-11.084000	24.468788	0.001040	20.825160
638.187783	-2.994900	3.684100	-11.032000	24.442545	0.001041	20.821117
639.188835	-2.998900	3.684100	-11.048000	24.450057	0.001041	20.836240
640.187882	-3.003500	3.684000	-11.064000	24.425133	0.001041	20.812183
641.190421	-3.003000	3.682900	-11.059000	24.410506	0.001040	20.806518
642.192048	-2.994600	3.684100	-11.032000	24.398242	0.001043	20.819819
643.186182	-3.001300	3.682500	-11.052000	24.429759	0.001040	20.834842
644.191566	-3.000800	3.680500	-11.043000	24.440605	0.001040	20.814903
645.186722	-2.984200	3.683000	-10.987000	24.449361	0.001039	20.823214
646.189299	-2.991100	3.682600	-11.013000	24.487468	0.001039	20.832521
647.188179	-3.001700	3.680600	-11.046000	24.479708	0.001039	20.818572
648.188090	-2.992000	3.682400	-11.016000	24.488911	0.001039	20.838236
649.193017	-2.978900	3.681100	-10.965000	24.489632	0.001038	20.825684
650.193415	-2.982600	3.682900	-10.984000	24.514182	0.001040	20.810012
651.188504	-2.992900	3.679600	-11.012000	24.499432	0.001040	20.827930
652.190968	-3.009900	3.680400	-11.077000	24.523485	0.001040	20.826932
653.191017	-2.996900	3.680600	-11.030000	24.554775	0.001038	20.832721
654.189713	-3.021800	3.679000	-11.115000	24.554302	0.001039	20.821342
655.188675	-2.998500	3.678900	-11.031000	24.573901	0.001037	20.810187
656.188232	-2.993900	3.678500	-11.012000	24.582581	0.001036	20.808939
657.188892	-2.997200	3.679000	-11.025000	24.582457	0.001037	20.815453
658.191291	-3.008500	3.678700	-11.066000	24.586984	0.001036	20.814305
659.195205	-2.992400	3.677400	-11.003000	24.575170	0.001038	20.828529
660.190144	-3.000100	3.676900	-11.030000	24.574200	0.001036	20.819970
661.192857	-2.986900	3.678100	-10.985000	24.582184	0.001036	20.807118
662.192892	-2.999900	3.676500	-11.028000	24.607876	0.001037	20.814879
663.190602	-3.004200	3.676900	-11.045000	24.626653	0.001035	20.820918
664.191316	-3.020500	3.674700	-11.098000	24.624390	0.001037	20.813906
665.191029	-3.012400	3.675500	-11.069000	24.621207	0.001039	20.821617
666.193645	-2.971100	3.677000	-10.924000	24.603548	0.001035	20.801528
667.195259	-2.999500	3.676300	-11.026000	24.600514	0.001036	20.816501
668.193926	-3.005500	3.674100	-11.042000	24.598524	0.001035	20.817350
669.193855	-3.015300	3.673800	-11.075000	24.630036	0.001035	20.819097
670.195166	-3.008800	3.674900	-11.056000	24.636577	0.001035	20.825186
671.194587	-2.985500	3.674600	-10.970000	24.655677	0.001034	20.804997
672.196133	-3.006700	3.674400	-11.046000	24.645804	0.001034	20.813582
673.196823	-2.987900	3.674900	-10.978000	24.667018	0.001035	20.810687
674.194535	-3.009200	3.672500	-11.050000	24.690196	0.001032	20.809290
675.194391	-3.009900	3.672800	-11.054000	24.691788	0.001034	20.795714
676.196775	-2.993800	3.673700	-10.997000	24.676394	0.001035	20.805871
677.199728	-3.007500	3.672800	-11.045000	24.685222	0.001034	20.812359
678.198339	-3.001500	3.672500	-11.022000	24.658513	0.001032	20.802153
679.196562	-3.001400	3.672000	-11.020000	24.659955	0.001032	20.800755
680.196811	-2.991200	3.672400	-10.983000	24.654359	0.001030	20.814106
681.201499	-3.000100	3.670900	-11.012000	24.675126	0.001033	20.806969
682.198824	-2.977200	3.671400	-10.930000	24.640283	0.001031	20.807568
683.202822	-3.006300	3.670500	-11.033000	24.640333	0.001031	20.818523
684.198969	-3.018800	3.667700	-11.071000	24.664954	0.001031	20.803401
685.201546	-2.999400	3.669700	-11.006000	24.700194	0.001030	20.806520
686.198571	-2.975700	3.671000	-10.922000	24.682139	0.001032	20.821119
687.199891	-2.982900	3.669600	-10.945000	24.666422	0.001031	20.830003
688.198423	-3.004200	3.670100	-11.024000	24.693255	0.001033	20.781540
689.198749	-3.005800	3.668600	-11.026000	24.693703	0.001032	20.790050
690.204381	-2.990500	3.668200	-10.969000	24.706262	0.001030	20.800281
691.201238	-3.008300	3.668900	-11.037000	24.701686	0.001028	20.795216
692.201875	-2.993800	3.668500	-10.982000	24.730733	0.001030	20.803975
693.201545	-3.004800	3.667200	-11.018000	24.735731	0.001026	20.803775
694.200510	-2.996500	3.667200	-10.987000	24.764702	0.001029	20.802977
695.202487	-2.991900	3.667900	-10.972000	24.744087	0.001031	20.778496
696.209750	-2.991800	3.666900	-10.970000	24.756173	0.001029	20.787779
697.203004	-3.001700	3.667100	-11.006000	24.728818	0.001029	20.812959
698.209071	-3.009600	3.666000	-11.032000	24.706387	0.001028	20.800407
699.207304	-2.997100	3.666800	-10.988000	24.696489	0.001027	20.796165
700.206127	-3.005600	3.666800	-11.020000	24.675226	0.001028	20.792371
701.209610	-3.001700	3.665500	-11.002000	24.658439	0.001031	20.807295
702.206887	-3.000100	3.666100	-10.997000	24.668139	0.001027	20.801381
703.204460	-3.001900	3.665300	-11.001000	24.675823	0.001025	20.792022
704.208580	-3.026500	3.664400	-11.089000	24.673287	0.001030	20.794693
705.208406	-3.018100	3.662700	-11.054000	24.642498	0.001027	20.782290
706.205094	-3.006000	3.664500	-11.014000	24.654485	0.001026	20.792422
707.204317	-3.019600	3.662000	-11.057000	24.663762	0.001027	20.804575
708.205263	-3.004200	3.664200	-11.007000	24.693058	0.001026	20.786084
709.220705	-2.993100	3.662900	-10.963000	24.667020	0.001025	20.826336
710.209636	-2.978000	3.664400	-10.911000	24.691019	0.001026	20.790201
711.212364	-3.000000	3.663000	-10.988000	24.645856	0.001025	20.789453
712.212923	-2.979700	3.662200	-10.911000	24.660554	0.001025	20.783813
713.211108	-2.994500	3.661900	-10.964000	24.673710	0.001024	20.766668
714.207210	-2.996200	3.661100	-10.968000	24.684952	0.001025	20.792647
715.206147	-3.016500	3.659400	-11.036000	24.684007	0.001025	20.777949
716.214641	-3.025000	3.660800	-11.072000	24.695745	0.001023	20.785460
717.207636	-3.000000	3.660600	-10.981000	24.680699	0.001024	20.787906
718.207638	-3.013900	3.660600	-11.032000	24.693731	0.001022	20.783913
719.212278	-3.002900	3.659700	-10.988000	24.706165	0.001023	20.794969
720.209440	-2.991700	3.660900	-10.952000	24.705991	0.001024	20.789104
721.208407	-3.013600	3.658600	-11.025000	24.734839	0.001021	20.786758
722.212477	-3.000400	3.660300	-10.981000	24.748193	0.001023	20.766968
723.209163	-3.009300	3.658200	-11.008000	24.731382	0.001022	20.778074
724.211913	-2.993300	3.658400	-10.950000	24.777363	0.001021	20.781069
725.209699	-3.013000	3.658400	-11.022000	24.810386	0.001020	20.795244
726.209876	-3.000700	3.658400	-10.976000	24.806009	0.001021	20.792748
727.213307	-3.013300	3.658000	-11.021000	24.827817	0.001022	20.776702
728.225953	-3.004900	3.657600	-10.989000	24.826947	0.001021	20.782467
729.213672	-2.984100	3.658000	-10.916000	24.789026	0.001021	20.757211
730.212055	-3.020200	3.654900	-11.036000	24.758439	0.001020	20.788157
731.217712	-2.999600	3.657600	-10.970000	24.742673	0.001020	20.788931
732.212419	-2.983200	3.657200	-10.910000	24.750954	0.001020	20.777800
733.212693	-3.001400	3.654200	-10.967000	24.716860	0.001020	20.778674
734.215440	-3.004200	3.654900	-10.980000	24.759683	0.001019	20.778499
735.221377	-3.019800	3.653800	-11.033000	24.721859	0.001018	20.768517
736.215923	-3.018000	3.654900	-11.029000	24.687216	0.001018	20.780695
737.213566	-2.990100	3.655300	-10.929000	24.676149	0.001018	20.782866
738.215306	-3.001400	3.654900	-10.969000	24.678935	0.001018	20.763376
739.214596	-2.995600	3.652400	-10.941000	24.710842	0.001014	20.793972
740.218079	-3.008400	3.652400	-10.987000	24.709375	0.001018	20.782542
741.215315	-3.007700	3.652700	-10.985000	24.761175	0.001018	20.791850
742.215866	-2.977900	3.654000	-10.880000	24.767441	0.001017	20.788656
743.215964	-3.006400	3.651800	-10.978000	24.800739	0.001015	20.760431
744.216303	-3.010000	3.650700	-10.987000	24.820681	0.001015	20.768118
745.221014	-2.990300	3.652100	-10.920000	24.836969	0.001018	20.770239
746.216691	-2.994800	3.651900	-10.936000	24.833388	0.001018	20.777077
747.213539	-2.996600	3.652000	-10.943000	24.859248	0.001014	20.786435
748.219624	-2.972500	3.652100	-10.855000	24.882298	0.001015	20.770688
749.218984	-3.003300	3.650500	-10.962000	24.898335	0.001014	20.772560
750.217199	-3.005100	3.650700	-10.970000	24.899330	0.001015	20.780671
751.214233	-2.992200	3.650000	-10.921000	24.862182	0.001015	20.761404
752.218166	-2.993400	3.649400	-10.923000	24.831175	0.001015	20.768218
753.220254	-2.999900	3.649800	-10.948000	24.806706	0.001015	20.771162
754.221559	-3.001400	3.648300	-10.949000	24.779801	0.001013	20.779248
755.219828	-2.986200	3.651300	-10.903000	24.766198	0.001014	20.776029
756.221247	-2.997700	3.649500	-10.937000	24.760728	0.001011	20.775754
757.219369	-2.993900	3.648100	-10.921000	24.772018	0.001014	20.770489
758.215569	-3.015300	3.648700	-11.000000	24.772142	0.001011	20.747854
759.219791	-3.014200	3.649000	-10.997000	24.779353	0.001012	20.761255
760.218859	-3.004500	3.648600	-10.961000	24.782188	0.001013	20.786860
761.217001	-2.973500	3.648500	-10.848000	24.828415	0.001011	20.752645
762.220054	-3.005700	3.649200	-10.967000	24.834582	0.001009	20.768318
763.217990	-2.990500	3.647300	-10.905000	24.865589	0.001011	20.763876
764.220869	-3.005000	3.645700	-10.954000	24.877823	0.001010	20.779948
765.221570	-3.008600	3.645700	-10.968000	24.902190	0.001008	20.767894
766.220559	-3.002700	3.645000	-10.943000	24.912583	0.001010	20.784489
767.224794	-2.999800	3.645200	-10.934000	24.899430	0.001010	20.762753
768.218609	-3.022500	3.644000	-11.014000	24.845995	0.001009	20.745158
769.222116	-3.015200	3.644900	-10.989000	24.841395	0.001010	20.768992
770.229448	-3.000700	3.645800	-10.939000	24.855221	0.001011	20.788557
771.224667	-2.987900	3.645700	-10.892000	24.858975	0.001009	20.795171
772.220407	-2.984000	3.645100	-10.876000	24.832120	0.001007	20.762054
773.230753	-3.003600	3.645200	-10.947000	24.857011	0.001006	20.767120
774.221246	-2.998200	3.644800	-10.927000	24.827371	0.001009	20.775780
775.224883	-3.010000	3.643600	-10.966000	24.832767	0.001005	20.770290
776.225777	-3.015800	3.643800	-10.988000	24.809144	0.001007	20.771238
777.225209	-2.997600	3.643400	-10.921000	24.795841	0.001007	20.756938
778.225021	-2.998700	3.643100	-10.922000	24.790544	0.001006	20.767745
779.225577	-3.033900	3.641600	-11.046000	24.797407	0.001007	20.780322
780.231142	-3.008100	3.642200	-10.954000	24.791588	0.001006	20.764999
781.234886	-2.998800	3.641400	-10.919000	24.755382	0.001008	20.776554
782.229914	-2.982500	3.642700	-10.864000	24.796239	0.001006	20.776304
783.230381	-2.990300	3.641200	-10.887000	24.805663	0.001006	20.774857
784.238334	-3.006800	3.640000	-10.943000	24.832221	0.001006	20.756939
785.224826	-2.996500	3.640500	-10.907000	24.861686	0.001005	20.776080
786.240033	-2.997600	3.639200	-10.908000	24.881876	0.001004	20.770265
787.240757	-3.003200	3.640000	-10.929000	24.903260	0.001003	20.783667
788.235087	-3.004300	3.639500	-10.933000	24.950924	0.001005	20.780298
789.226240	-2.996700	3.640300	-10.908000	24.988541	0.001002	20.752147
790.231810	-3.001900	3.638500	-10.921000	24.999480	0.001003	20.763128
791.231122	-3.003900	3.637200	-10.925000	24.973649	0.001002	20.784615
792.235431	-2.993900	3.637600	-10.890000	24.953286	0.001002	20.776031
793.240127	-3.008300	3.638100	-10.944000	24.946225	0.001000	20.767995
794.230739	-2.990500	3.636900	-10.874000	24.938368	0.001002	20.768169
795.233959	-3.009600	3.636100	-10.941000	24.954330	0.001004	20.762854
796.237515	-2.986500	3.637500	-10.862000	24.940705	0.001002	20.778576
797.237578	-2.978000	3.638500	-10.834000	24.953634	0.001000	20.784915
798.238762	-3.022200	3.635900	-10.988000	24.937299	0.001001	20.790805
799.239542	-2.988100	3.638500	-10.871000	24.941600	0.001000	20.786587
800.238742	-2.996200	3.636200	-10.893000	24.935783	0.001002	20.781696
801.236210	-2.991900	3.636300	-10.878000	24.920367	0.001001	20.768594
802.236743	-3.013100	3.636100	-10.954000	24.920491	0.001002	20.768719
803.235507	-2.993100	3.635800	-10.882000	24.920467	0.001000	20.800463
804.233348	-3.016400	3.634800	-10.963000	24.925912	0.000998	20.804505
805.230914	-3.001400	3.634000	-10.905000	24.926658	0.001000	20.783917
806.234634	-2.983500	3.635500	-10.844000	24.906568	0.000999	20.790780
807.236051	-3.004200	3.634200	-10.916000	24.921114	0.001001	20.783094
808.241768	-3.011700	3.634500	-10.944000	24.945281	0.000997	20.770366
809.238040	-2.986400	3.634400	-10.851000	24.946873	0.000998	20.790930
810.239682	-3.001600	3.633800	-10.906000	24.957265	0.000998	20.774809
811.236622	-2.980700	3.634400	-10.833000	24.942273	0.000996	20.802435
812.238760	-3.016100	3.631200	-10.950000	24.976882	0.000995	20.760834
813.239393	-2.982500	3.633000	-10.835000	24.999010	0.000998	20.787312
814.237278	-2.996500	3.633000	-10.886000	25.008457	0.000995	20.778777
815.236314	-2.994100	3.633300	-10.878000	24.984963	0.000994	20.780325
816.236271	-3.012500	3.631500	-10.939000	25.021386	0.000996	20.780375
817.234485	-2.984800	3.631800	-10.840000	25.048410	0.000994	20.798967
818.243740	-3.013600	3.630000	-10.938000	25.023276	0.000992	20.787962
819.239153	-3.004900	3.632500	-10.914000	25.049455	0.000993	20.811395
820.242007	-3.010600	3.631400	-10.931000	25.064769	0.000993	20.806379
821.239655	-2.987100	3.630900	-10.845000	25.066609	0.000995	20.787363
822.241918	-2.999300	3.630000	-10.886000	25.080034	0.000995	20.794201
823.243307	-3.022900	3.629700	-10.970000	25.091345	0.000994	20.804608
824.245732	-3.010100	3.629900	-10.925000	25.100568	0.000995	20.778779
825.242522	-3.008800	3.628600	-10.917000	25.108001	0.000993	20.778654
826.239639	-3.004000	3.630200	-10.904000	25.064247	0.000993	20.806804
827.238500	-2.989500	3.629300	-10.849000	25.021859	0.000993	20.794127
828.239499	-2.997200	3.629400	-10.877000	25.006247	0.000992	20.791257
829.239622	-2.998400	3.628800	-10.879000	25.006247	0.000992	20.804059
830.240963	-2.995900	3.628200	-10.869000	25.051445	0.000994	20.821453
831.247263	-3.027200	3.626700	-10.978000	25.034539	0.000992	20.789311
832.241858	-3.016300	3.627000	-10.939000	25.108723	0.000991	20.809724
833.245291	-3.001600	3.626600	-10.885000	25.121501	0.000989	20.811172
834.245257	-3.020900	3.625400	-10.951000	25.111209	0.000991	20.799418
835.241348	-3.009100	3.625100	-10.907000	25.144545	0.000988	20.795899
836.240827	-3.032800	3.625600	-10.994000	25.152724	0.000991	20.813119
837.243145	-3.005500	3.626200	-10.896000	25.121824	0.000987	20.799643
838.242134	-2.991400	3.626800	-10.848000	25.105914	0.000990	20.826819
839.242579	-3.008800	3.626100	-10.910000	25.096044	0.000988	20.812644
840.246091	-2.977200	3.626300	-10.796000	25.083714	0.000991	20.796474
841.248502	-2.965700	3.626200	-10.754000	25.140394	0.000988	20.802164
842.246709	-3.002100	3.624200	-10.877000	25.140693	0.000987	20.800093
843.246785	-2.968200	3.625300	-10.760000	25.146037	0.000989	20.821105
844.246411	-3.001200	3.624100	-10.874000	25.164432	0.000986	20.817761
845.246951	-2.974800	3.624900	-10.782000	25.159983	0.000986	20.804759
846.249479	-3.009300	3.623700	-10.904000	25.163637	0.000987	20.825497
847.250374	-3.014300	3.622700	-10.917000	25.174973	0.000986	20.829291
848.247499	-3.000400	3.621700	-10.866000	25.176315	0.000987	20.786542
849.251970	-3.005000	3.622600	-10.885000	25.201372	0.000987	20.801266
850.255639	-2.995800	3.621900	-10.850000	25.221208	0.000985	20.815017
851.250836	-3.013100	3.620800	-10.909000	25.200104	0.000983	20.813270
852.250181	-3.010300	3.621900	-10.901000	25.174153	0.000983	20.830838
853.250759	-3.012600	3.621000	-10.907000	25.145666	0.000986	20.809827
854.251527	-3.023400	3.620700	-10.946000	25.150762	0.000983	20.819684
855.257034	-2.975300	3.621800	-10.775000	25.142335	0.000984	20.820707
856.251737	-2.987500	3.620400	-10.815000	25.131621	0.000986	20.823702
857.255670	-2.990900	3.619900	-10.825000	25.133510	0.000986	20.818487
858.254274	-2.982600	3.619000	-10.792000	25.145866	0.000982	20.838002
859.258979	-2.976200	3.620300	-10.773000	25.120485	0.000984	20.828170
860.260651	-2.991700	3.619900	-10.828000	25.134282	0.000981	20.817838
861.257567	-2.990900	3.619200	-10.824000	25.180742	0.000979	20.822281
862.251450	-2.992300	3.618600	-10.827000	25.202716	0.000978	20.822530
863.253812	-3.004800	3.617900	-10.870000	25.203785	0.000980	20.844939
864.253743	-2.998400	3.617700	-10.846000	25.207165	0.000982	20.821307
865.252756	-3.013300	3.616200	-10.895000	25.214698	0.000979	20.836929
866.254024	-3.020700	3.616000	-10.921000	25.214374	0.000979	20.818587
867.253550	-3.016100	3.615100	-10.902000	25.218923	0.000979	20.807981
868.253079	-3.007300	3.616300	-10.874000	25.223024	0.000978	20.820159
869.253219	-2.985700	3.616300	-10.796000	25.232172	0.000978	20.840722
870.253489	-3.011400	3.614800	-10.883000	25.198441	0.000978	20.817290
871.252366	-3.016100	3.615100	-10.903000	25.236820	0.000975	20.844914
872.256051	-2.984100	3.616200	-10.790000	25.181438	0.000977	20.839100
873.253186	-3.000000	3.614900	-10.843000	25.172067	0.000976	20.844865
874.254318	-2.988800	3.614700	-10.801000	25.177063	0.000978	20.842294
875.254313	-2.997200	3.614900	-10.833000	25.166424	0.000976	20.822605
876.252087	-3.006100	3.613000	-10.860000	25.159091	0.000973	20.833735
877.261033	-3.000100	3.613700	-10.840000	25.172092	0.000975	20.832088
878.251848	-3.011200	3.612500	-10.876000	25.185092	0.000975	20.830441
879.255783	-3.007300	3.612400	-10.863000	25.200902	0.000971	20.827347
880.254866	-2.988000	3.612600	-10.792000	25.159911	0.000974	20.849257
881.255379	-3.031500	3.610100	-10.943000	25.184297	0.000973	20.842919
882.253894	-3.007200	3.611600	-10.860000	25.194688	0.000972	20.834384
883.257439	-3.017600	3.612500	-10.900000	25.226157	0.000973	20.829943
884.254500	-3.010800	3.611500	-10.871000	25.218079	0.000971	20.831789
885.253406	-3.008900	3.611600	-10.865000	25.179227	0.000971	20.842095
886.252977	-3.008200	3.609900	-10.859000	25.158395	0.000972	20.851054
887.257434	-2.998000	3.612000	-10.828000	25.147806	0.000971	20.829518
888.256577	-3.022800	3.608300	-10.906000	25.128068	0.000970	20.855696
889.256417	-3.027700	3.608900	-10.925000	25.144798	0.000972	20.861110
890.256098	-2.992900	3.610100	-10.803000	25.135700	0.000971	20.868098
891.255570	-2.988300	3.609400	-10.785000	25.175797	0.000969	20.868997
892.258023	-2.980700	3.610300	-10.760000	25.196056	0.000969	20.835284
893.261445	-3.003700	3.609500	-10.841000	25.198417	0.000966	20.840973
894.279850	-3.005900	3.607800	-10.843000	25.212686	0.000965	20.855771
895.255826	-2.975800	3.609500	-10.740000	25.237717	0.000969	20.866676
896.257885	-3.007300	3.607600	-10.848000	25.238587	0.000967	20.826775
897.256530	-3.010600	3.607200	-10.858000	25.260485	0.000967	20.852552
898.259966	-2.990100	3.607400	-10.785000	25.283502	0.000965	20.862385
899.261790	-2.985800	3.606800	-10.769000	25.302492	0.000966	20.845416
900.258101	-3.020000	3.605700	-10.888000	25.309352	0.000965	20.873639
901.262505	-3.003800	3.606700	-10.832000	25.315043	0.000963	20.851854
902.261273	-3.006500	3.606400	-10.842000	25.272865	0.000963	20.862610
903.260701	-3.001700	3.605700	-10.823000	25.312410	0.000962	20.868649
904.260855	-2.980500	3.606800	-10.748000	25.320860	0.000966	20.862435
905.260853	-2.989700	3.605400	-10.778000	25.347752	0.000965	20.850083
906.256673	-3.011800	3.604400	-10.855000	25.335275	0.000963	20.847986
907.257918	-2.990100	3.603800	-10.775000	25.338358	0.000964	20.863883
908.259010	-2.995700	3.605200	-10.800000	25.309551	0.000962	20.869098
909.258731	-3.008200	3.603700	-10.840000	25.301299	0.000961	20.875037
910.262180	-3.027500	3.603300	-10.908000	25.277886	0.000961	20.868599
911.268716	-3.020200	3.603000	-10.881000	25.311714	0.000960	20.881700
912.260500	-2.978900	3.605200	-10.737000	25.318375	0.000959	20.886017
913.260214	-2.990300	3.602200	-10.770000	25.327024	0.000961	20.857719
914.260556	-3.011100	3.601900	-10.844000	25.343478	0.000959	20.868075
915.270471	-3.009900	3.602500	-10.842000	25.325831	0.000958	20.877383
916.261858	-3.001100	3.601900	-10.807000	25.363684	0.000959	20.862760
917.264578	-2.993500	3.602700	-10.784000	25.367834	0.000961	20.887788
918.264220	-3.014100	3.601600	-10.855000	25.391619	0.000956	20.872791
919.263208	-3.013800	3.601400	-10.853000	25.356302	0.000960	20.887115
920.265874	-3.018400	3.599800	-10.865000	25.321283	0.000958	20.883721
921.265656	-3.008200	3.598900	-10.826000	25.290015	0.000960	20.900215
922.263167	-2.989800	3.601700	-10.767000	25.325880	0.000959	20.870320
923.262786	-2.990200	3.600800	-10.766000	25.352773	0.000956	20.872667
924.265632	-3.006300	3.597900	-10.814000	25.382075	0.000955	20.893552
925.263069	-2.987600	3.599900	-10.754000	25.365771	0.000955	20.874812
926.265539	-2.987600	3.599400	-10.753000	25.345316	0.000954	20.873240
927.264164	-2.995300	3.597800	-10.775000	25.328117	0.000955	20.884893
928.269275	-3.007800	3.598100	-10.822000	25.335499	0.000956	20.889460
929.270484	-3.021700	3.596300	-10.865000	25.338332	0.000952	20.879977
930.266564	-3.010100	3.596700	-10.824000	25.360850	0.000954	20.877457
931.271677	-2.973100	3.600000	-10.701000	25.394352	0.000952	20.879802
932.265270	-3.023900	3.596700	-10.874000	25.387244	0.000953	20.903483
933.267120	-3.031300	3.594800	-10.896000	25.381428	0.000951	20.878205
934.271151	-2.975300	3.596700	-10.699000	25.374494	0.000951	20.878829
935.269803	-2.986100	3.595500	-10.734000	25.368976	0.000949	20.879453
936.268274	-2.998900	3.595700	-10.782000	25.378147	0.000949	20.882023
937.272048	-3.030000	3.594200	-10.890000	25.357941	0.000949	20.873588
938.267379	-2.996400	3.595300	-10.772000	25.311663	0.000949	20.900139
939.269650	-3.008600	3.595100	-10.816000	25.297669	0.000947	20.885616
940.267121	-2.999000	3.595100	-10.779000	25.266078	0.000948	20.880451
941.270409	-3.001300	3.593300	-10.783000	25.264636	0.000948	20.888960
942.269175	-3.018800	3.593800	-10.849000	25.246342	0.000948	20.905205
943.267315	-2.995500	3.595000	-10.768000	25.336617	0.000950	20.901487
944.272458	-3.019700	3.592100	-10.846000	25.342557	0.000945	20.884219
945.271485	-2.995600	3.592300	-10.760000	25.348248	0.000947	20.898467
946.268915	-2.998700	3.593300	-10.774000	25.399770	0.000947	20.889509
947.272482	-2.998400	3.592100	-10.769000	25.390450	0.000949	20.910495
948.272971	-2.993000	3.592900	-10.753000	25.403622	0.000947	20.891955
949.269434	-3.005400	3.591500	-10.794000	25.421317	0.000946	20.889809
950.271285	-2.997000	3.590800	-10.760000	25.448605	0.000946	20.889709
951.277833	-3.012700	3.590000	-10.815000	25.459590	0.000944	20.914014
952.268993	-3.016600	3.590800	-10.831000	25.483099	0.000945	20.903484
953.271464	-2.995200	3.590900	-10.755000	25.506633	0.000945	20.910521
954.271302	-2.992200	3.590200	-10.741000	25.452880	0.000942	20.889735
955.276440	-2.979000	3.589800	-10.693000	25.502160	0.000944	20.916934
956.271764	-2.974600	3.590200	-10.678000	25.515406	0.000941	20.899417
957.271674	-2.996200	3.589300	-10.752000	25.532478	0.000940	20.909449
958.278152	-2.999100	3.588800	-10.763000	25.541250	0.000942	20.912094
959.273964	-3.021800	3.587200	-10.840000	25.545450	0.000941	20.913467
960.273912	-2.993900	3.588700	-10.743000	25.557303	0.000941	20.905931
961.275533	-2.985700	3.588100	-10.711000	25.532602	0.000940	20.912893
962.277027	-2.992200	3.587300	-10.733000	25.556657	0.000941	20.906705
963.274311	-3.017700	3.586100	-10.821000	25.579220	0.000938	20.924621
964.278015	-3.010600	3.587500	-10.799000	25.583718	0.000938	20.914441
965.277222	-3.012800	3.586000	-10.802000	25.589930	0.000937	20.910248
966.273876	-3.013200	3.585600	-10.803000	25.594478	0.000938	20.930460
967.276801	-2.994600	3.585000	-10.735000	25.575592	0.000938	20.909125
968.274629	-3.003200	3.585000	-10.766000	25.583121	0.000938	20.917160
969.277196	-2.982500	3.586500	-10.696000	25.566075	0.000935	20.925644
970.278099	-2.997200	3.585100	-10.744000	25.564087	0.000936	20.924596
971.281779	-3.009900	3.584100	-10.786000	25.559217	0.000935	20.937247
972.274137	-3.022800	3.583600	-10.831000	25.575791	0.000936	20.941564
973.278503	-3.015100	3.583200	-10.803000	25.563143	0.000934	20.911795
974.277209	-2.996000	3.584300	-10.738000	25.597459	0.000937	20.939618
975.277999	-3.008500	3.583700	-10.780000	25.580438	0.000936	20.920629
976.275473	-2.984400	3.583900	-10.694000	25.580214	0.000935	20.944583
977.276681	-3.007100	3.582700	-10.773000	25.572685	0.000934	20.938445
978.276950	-3.018000	3.581400	-10.807000	25.582499	0.000934	20.919380
979.276182	-3.003200	3.584300	-10.763000	25.540207	0.000933	20.916262
980.283388	-2.994900	3.581300	-10.724000	25.527509	0.000934	20.925320
981.276495	-2.984400	3.582800	-10.691000	25.547736	0.000929	20.928563
982.282242	-2.998200	3.581500	-10.737000	25.517345	0.000931	20.936922
983.276690	-2.987600	3.581500	-10.700000	25.473235	0.000931	20.931034
984.278262	-3.001300	3.581800	-10.749000	25.481660	0.000931	20.939019
985.281996	-2.990400	3.580900	-10.708000	25.481908	0.000929	20.945432
986.278883	-2.985700	3.580700	-10.690000	25.500969	0.000928	20.919057
987.282406	-3.015400	3.579100	-10.791000	25.538542	0.000928	20.928813
988.278106	-2.992100	3.579700	-10.709000	25.533845	0.000931	20.949224
989.282794	-3.018000	3.580300	-10.804000	25.555862	0.000928	20.929612
990.278071	-2.984700	3.580100	-10.683000	25.570424	0.000928	20.934752
991.284375	-3.011500	3.579400	-10.778000	25.571890	0.000925	20.928164
992.280762	-3.003300	3.578000	-10.743000	25.555166	0.000926	20.932231
993.279622	-3.011500	3.579600	-10.779000	25.610628	0.000926	20.940042
994.280975	-3.022500	3.576300	-10.809000	25.621785	0.000927	20.913791
995.283329	-2.983500	3.577200	-10.672000	25.612616	0.000925	20.936348
996.285137	-2.982500	3.579000	-10.673000	25.637340	0.000924	20.921827
997.284335	-2.988700	3.576000	-10.686000	25.626432	0.000923	20.941689
998.287108	-2.980200	3.576600	-10.658000	25.630929	0.000923	20.937671
999.280285	-2.994200	3.575900	-10.706000	25.650956	0.000924	20.942138
1000.283170	-3.005400	3.575500	-10.745000	25.639750	0.000923	20.911446
1001.281682	-3.023500	3.576100	-10.811000	25.654435	0.000921	20.923348
1002.283694	-3.023000	3.574800	-10.804000	25.641539	0.000921	20.932681
1003.281528	-3.005000	3.576400	-10.746000	25.621686	0.000920	20.911795
1004.283275	-2.988600	3.574500	-10.682000	25.624320	0.000919	20.903536
1005.288458	-3.000800	3.573500	-10.722000	25.628419	0.000921	20.904334
1006.289780	-2.979600	3.574700	-10.650000	25.617958	0.000919	20.909000
1007.281770	-3.019400	3.573000	-10.788000	25.590178	0.000921	20.917609
1008.281796	-2.998500	3.572100	-10.710000	25.565653	0.000919	20.908152
1009.284143	-2.997500	3.572000	-10.706000	25.516351	0.000918	20.943510
1010.283669	-3.028700	3.571500	-10.815000	25.508101	0.000915	20.915788
1011.287627	-3.011900	3.571900	-10.757000	25.526788	0.000917	20.892357
1012.284806	-2.999600	3.572300	-10.714000	25.531211	0.000918	20.910548
1013.282372	-2.983500	3.571900	-10.656000	25.544431	0.000916	20.904858
1014.282848	-2.981600	3.572700	-10.651000	25.572188	0.000915	20.903810
1015.283800	-2.989200	3.571600	-10.675000	25.621884	0.000915	20.915313
1016.282611	-2.995000	3.570800	-10.693000	25.633687	0.000913	20.907253
1017.284579	-2.986100	3.571300	-10.663000	25.593657	0.000913	20.899768
1018.285614	-2.987000	3.570600	-10.665000	25.572660	0.000913	20.901914
1019.287428	-2.994000	3.568600	-10.683000	25.549078	0.000912	20.899568
1020.287435	-2.999200	3.568000	-10.700000	25.504224	0.000912	20.904783
1021.287327	-3.005200	3.568500	-10.723000	25.537548	0.000913	20.902687
1022.286485	-3.006600	3.568800	-10.728000	25.512425	0.000911	20.913966
1023.286770	-2.994500	3.569400	-10.688000	25.547165	0.000912	20.909025
1024.284372	-2.966400	3.569300	-10.586000	25.554992	0.000912	20.894603
1025.286136	-3.011900	3.568400	-10.746000	25.545276	0.000910	20.904758
1026.286782	-2.993100	3.568000	-10.678000	25.529124	0.000912	20.922200
1027.288765	-3.022200	3.565300	-10.774000	25.544034	0.000907	20.904459
1028.292062	-2.999000	3.566600	-10.695000	25.560857	0.000909	20.889113
1029.285510	-3.009400	3.564400	-10.724000	25.577183	0.000911	20.893180
1030.290481	-3.005400	3.565800	-10.716000	25.616791	0.000908	20.864684
1031.288236	-2.970800	3.567000	-10.594000	25.643229	0.000907	20.880804
1032.290246	-2.998200	3.564600	-10.686000	25.640049	0.000908	20.894678
1033.292639	-2.984100	3.564900	-10.637000	25.625215	0.000908	20.880255
1034.289038	-3.012700	3.564800	-10.739000	25.635651	0.000904	20.890261
1035.288411	-2.982700	3.565300	-10.633000	25.639080	0.000902	20.895128
1036.288583	-2.994600	3.564300	-10.673000	25.691780	0.000904	20.890686
1037.290893	-3.010400	3.563300	-10.725000	25.694662	0.000901	20.896899
1038.294030	-3.012100	3.563500	-10.733000	25.713545	0.000904	20.886469
1039.293358	-3.022100	3.561000	-10.759000	25.758092	0.000903	20.898022
1040.291218	-3.033700	3.561300	-10.802000	25.758863	0.000905	20.885995
1041.291295	-2.993600	3.563400	-10.666000	25.762887	0.000902	20.895253
1042.288905	-3.031900	3.561300	-10.796000	25.771956	0.000901	20.877811
1043.292395	-2.999200	3.562200	-10.682000	25.792974	0.000902	20.870000
1044.298253	-3.022800	3.559400	-10.757000	25.783235	0.000900	20.875864
1045.292707	-3.002500	3.562000	-10.694000	25.726689	0.000900	20.884972
1046.290862	-3.001100	3.560600	-10.684000	25.694141	0.000900	20.888790
1047.293144	-2.981400	3.560700	-10.615000	25.646013	0.000898	20.872221
1048.291976	-3.008000	3.558500	-10.702000	25.621489	0.000896	20.883151
1049.291670	-2.990500	3.559700	-10.644000	25.592765	0.000897	20.888441
1050.295854	-3.034000	3.557600	-10.792000	25.542271	0.000896	20.886096
1051.299692	-2.996000	3.559400	-10.663000	25.529723	0.000897	20.845995
1052.299029	-2.998800	3.558600	-10.670000	25.516701	0.000894	20.881280
1053.295363	-2.998400	3.559200	-10.671000	25.496299	0.000893	20.868853
1054.302953	-2.999100	3.558200	-10.670000	25.504623	0.000896	20.870100
1055.293489	-2.990800	3.559400	-10.644000	25.542793	0.000893	20.860069
1056.294785	-3.019000	3.557600	-10.739000	25.524355	0.000894	20.877586
1057.295234	-2.988700	3.558300	-10.634000	25.551888	0.000894	20.861142
1058.295406	-2.994500	3.556900	-10.650000	25.577210	0.000892	20.882303
1059.296018	-3.001700	3.557600	-10.678000	25.556187	0.000890	20.876838
1060.300320	-2.996000	3.556400	-10.655000	25.602183	0.000891	20.890313
1061.293820	-2.992700	3.555900	-10.640000	25.615998	0.000892	20.870051
1062.296196	-2.997000	3.555100	-10.654000	25.635951	0.000890	20.862589
1063.296500	-3.013800	3.555400	-10.715000	25.677793	0.000889	20.851036
1064.298286	-3.003600	3.556000	-10.680000	25.694515	0.000888	20.870675
1065.309467	-2.985600	3.555400	-10.614000	25.728007	0.000889	20.862116
1066.295786	-2.995900	3.555700	-10.651000	25.751312	0.000888	20.851860
1067.302996	-3.006100	3.553600	-10.680000	25.740206	0.000890	20.879109
1068.298678	-2.980700	3.554300	-10.593000	25.746566	0.000888	20.889765
1069.300999	-2.999000	3.552400	-10.653000	25.756455	0.000887	20.869827
1070.297959	-3.019300	3.551900	-10.724000	25.771162	0.000887	20.860419
1071.303568	-2.974000	3.555800	-10.573000	25.793821	0.000884	20.861368
1072.297253	-3.001600	3.552000	-10.660000	25.786467	0.000886	20.862515
1073.296508	-2.984300	3.553500	-10.604000	25.796976	0.000885	20.879709
1074.302975	-2.991600	3.552500	-10.626000	25.788206	0.000882	20.882279
1075.300300	-2.984300	3.553300	-10.603000	25.765523	0.000882	20.863289
1076.299635	-2.978600	3.551500	-10.578000	25.778890	0.000883	20.846845
1077.298193	-2.992000	3.549700	-10.618000	25.780306	0.000883	20.832146
1078.303482	-2.996900	3.551000	-10.641000	25.738045	0.000879	20.856077
1079.303330	-3.001600	3.548400	-10.650000	25.718914	0.000885	20.853932
1080.301497	-3.003500	3.550500	-10.663000	25.723635	0.000881	20.859621
1081.310166	-3.013300	3.548700	-10.692000	25.707287	0.000879	20.847943
1082.304978	-2.994300	3.549200	-10.626000	25.672551	0.000879	20.850987
1083.306363	-3.012100	3.550000	-10.691000	25.665322	0.000877	20.864588
1084.304137	-2.989900	3.548800	-10.609000	25.629989	0.000876	20.872248
1085.302649	-2.985600	3.549400	-10.596000	25.629665	0.000880	20.860544
1086.305297	-3.004000	3.546800	-10.654000	25.589735	0.000878	20.870701
1087.306829	-3.014500	3.547000	-10.691000	25.580144	0.000877	20.852061
1088.305899	-2.991000	3.548200	-10.612000	25.593288	0.000876	20.856253
1089.306074	-2.986300	3.547200	-10.592000	25.558227	0.000874	20.866085
1090.311018	-3.013800	3.545800	-10.685000	25.530370	0.000876	20.849015
1091.316519	-2.990400	3.547000	-10.606000	25.521300	0.000873	20.853183
1092.311112	-3.004600	3.544600	-10.649000	25.551244	0.000871	20.851960
1093.309438	-3.013600	3.545100	-10.683000	25.586504	0.000873	20.820517
1094.310513	-2.975700	3.546200	-10.551000	25.619801	0.000873	20.832146
1095.309214	-2.994600	3.544400	-10.613000	25.578677	0.000875	20.843002
1096.308486	-3.003700	3.544200	-10.644000	25.556711	0.000875	20.844175
1097.307190	-3.010600	3.544100	-10.669000	25.565036	0.000873	20.857276
1098.306442	-2.974200	3.546100	-10.545000	25.546324	0.000870	20.829951
1099.311985	-3.012600	3.542400	-10.671000	25.587896	0.000870	20.839458
1100.306314	-3.008500	3.542700	-10.658000	25.629865	0.000872	20.858848
1101.306450	-2.987300	3.542800	-10.583000	25.666142	0.000872	20.864937
1102.306569	-2.996900	3.542800	-10.617000	25.701374	0.000871	20.844849
1103.310745	-3.005100	3.540900	-10.640000	25.664427	0.000869	20.832397
1104.308110	-3.010000	3.541200	-10.659000	25.653470	0.000868	20.846995
1105.308783	-2.996700	3.541500	-10.611000	25.612894	0.000868	20.833270
1106.307411	-2.962700	3.542100	-10.492000	25.591425	0.000866	20.842528
1107.307007	-3.010100	3.539300	-10.653000	25.562899	0.000866	20.849441
1108.311029	-3.017100	3.538700	-10.675000	25.552512	0.000866	20.865561
1109.311586	-3.001000	3.539500	-10.621000	25.598929	0.000865	20.852435
1110.310729	-3.008800	3.539800	-10.649000	25.628349	0.000865	20.830774
1111.310002	-3.015700	3.537900	-10.668000	25.658588	0.000864	20.837437
1112.312548	-3.003100	3.539200	-10.628000	25.700951	0.000865	20.849166
1113.312191	-3.025500	3.537200	-10.700000	25.720555	0.000864	20.833769
1114.315223	-3.011800	3.537100	-10.652000	25.700281	0.000862	20.839958
1115.311385	-2.998600	3.537700	-10.607000	25.661967	0.000862	20.848417
1116.311314	-3.001600	3.537400	-10.616000	25.639207	0.000865	20.840257
1117.309910	-3.012000	3.537100	-10.652000	25.645493	0.000859	20.820493
1118.311499	-3.017200	3.536200	-10.668000	25.633741	0.000859	20.836664
1119.316967	-3.029300	3.534100	-10.704000	25.650413	0.000859	20.833020
1120.315343	-3.007000	3.535800	-10.631000	25.641468	0.000859	20.832571
1121.314731	-2.995500	3.536400	-10.591000	25.620547	0.000859	20.834792
1122.313103	-3.002600	3.534100	-10.610000	25.609539	0.000860	20.841280
1123.317567	-2.994900	3.536200	-10.590000	25.628920	0.000856	20.828029
1124.313222	-3.003300	3.534200	-10.613000	25.653668	0.000858	20.856677
1125.313469	-3.008100	3.534100	-10.630000	25.670887	0.000856	20.829401
1126.318291	-2.987700	3.534800	-10.560000	25.717274	0.000856	20.835690
1127.313998	-2.989100	3.534100	-10.561000	25.757722	0.000852	20.837911
1128.312029	-2.999600	3.535400	-10.604000	25.761896	0.000855	20.844948
1129.315622	-3.009500	3.533100	-10.632000	25.822192	0.000855	20.824909
1130.316086	-2.988100	3.534200	-10.560000	25.852500	0.000854	20.816948
1131.313728	-3.014800	3.530900	-10.644000	25.853021	0.000852	20.841654
1132.316401	-3.012900	3.531800	-10.640000	25.855207	0.000854	20.820142
1133.315585	-3.008000	3.532800	-10.626000	25.849692	0.000851	20.825508
1134.311213	-3.025800	3.531400	-10.684000	25.846115	0.000851	20.851311
1135.315703	-2.983500	3.531100	-10.533000	25.855381	0.000849	20.836438
1136.316657	-2.982900	3.530300	-10.530000	25.847730	0.000850	20.833019
1137.314200	-3.002000	3.530900	-10.599000	25.832004	0.000849	20.810584
1138.314581	-2.997100	3.529100	-10.575000	25.823558	0.000848	20.811583
1139.317115	-2.987100	3.531200	-10.547000	25.810862	0.000850	20.823486
1140.319060	-2.999000	3.528800	-10.582000	25.844624	0.000848	20.832270
1141.321066	-2.990400	3.528900	-10.551000	25.835382	0.000848	20.812556
1142.318853	-3.025400	3.526700	-10.669000	25.792453	0.000849	20.838184
1143.314909	-3.000300	3.529600	-10.588000	25.772255	0.000849	20.809361
1144.318087	-2.968700	3.529600	-10.477000	25.794540	0.000847	20.816099
1145.318338	-2.982600	3.527900	-10.522000	25.800652	0.000847	20.831247
1146.321423	-2.981700	3.527800	-10.518000	25.798639	0.000846	20.823062
1147.316932	-2.988100	3.528600	-10.542000	25.815682	0.000844	20.814103
1148.317490	-2.982900	3.526400	-10.518000	25.814762	0.000845	20.816498
1149.319516	-3.002800	3.526000	-10.585000	25.872373	0.000846	20.823636
1150.319285	-2.994300	3.525500	-10.555000	25.871678	0.000843	20.814403
1151.324507	-2.994500	3.527300	-10.562000	25.850586	0.000842	20.797483
1152.318607	-2.997700	3.525200	-10.567000	25.881713	0.000840	20.831596
1153.317141	-2.969500	3.526700	-10.471000	25.859778	0.000842	20.810509
1154.318369	-2.998800	3.524500	-10.568000	25.888545	0.000842	20.828976
1155.318441	-2.981300	3.525900	-10.511000	25.842562	0.000842	20.824509
1156.317037	-3.009700	3.523100	-10.602000	25.802068	0.000840	20.808488
1157.325777	-3.003600	3.524600	-10.584000	25.788851	0.000841	20.830772
1158.319982	-3.020100	3.523100	-10.639000	25.743088	0.000839	20.824634
1159.317699	-2.987000	3.524500	-10.526000	25.743038	0.000836	20.800403
1160.320812	-2.989700	3.521400	-10.527000	25.692924	0.000836	20.813604
1161.320613	-3.008900	3.522400	-10.597000	25.636174	0.000838	20.809710
1162.321985	-2.987300	3.521200	-10.518000	25.612420	0.000838	20.793914
1163.321227	-3.006500	3.520900	-10.585000	25.629167	0.000836	20.801725
1164.321342	-3.001100	3.521900	-10.569000	25.641243	0.000834	20.814327
1165.320879	-3.019200	3.518600	-10.621000	25.667954	0.000835	20.808912
1166.320876	-3.005600	3.519600	-10.577000	25.695235	0.000836	20.798381
1167.329002	-2.994000	3.520100	-10.538000	25.701546	0.000835	20.804246
1168.320532	-2.988700	3.519500	-10.518000	25.672203	0.000834	20.815550
1169.321755	-3.007000	3.518700	-10.579000	25.678887	0.000833	20.802824
1170.320455	-3.003600	3.517700	-10.564000	25.706614	0.000832	20.792741
1171.321918	-3.004600	3.519000	-10.572000	25.712702	0.000832	20.831097
1172.322652	-3.011900	3.517000	-10.592000	25.726093	0.000837	20.808987
1173.323412	-2.993900	3.517300	-10.529000	25.714739	0.000831	20.808488
1174.321490	-3.011200	3.517200	-10.588000	25.691657	0.000829	20.824185
1175.320438	-3.010400	3.519000	-10.593000	25.700179	0.000829	20.820890
1176.320097	-2.977300	3.517400	-10.472000	25.685247	0.000829	20.812057
1177.325188	-2.978800	3.517300	-10.477000	25.682638	0.000829	20.767710
1178.321533	-3.003200	3.516800	-10.560000	25.727808	0.000827	20.790795
1179.327518	-3.006300	3.516100	-10.570000	25.791360	0.000828	20.801052
1180.327845	-3.009200	3.516300	-10.580000	25.799037	0.000828	20.795487
1181.326871	-3.023100	3.515000	-10.625000	25.762988	0.000827	20.801002
1182.327063	-2.993000	3.514400	-10.518000	25.748529	0.000827	20.792168
1183.323720	-3.013100	3.513400	-10.585000	25.721448	0.000826	20.804795
1184.327038	-2.992000	3.514900	-10.516000	25.765721	0.000823	20.794264
1185.325453	-2.991500	3.513300	-10.509000	25.774417	0.000824	20.796360
1186.326252	-2.985800	3.514000	-10.491000	25.821596	0.000822	20.768360
1187.322478	-2.992200	3.511900	-10.507000	25.838985	0.000823	20.802425
1188.323789	-3.007000	3.511700	-10.559000	25.856003	0.000823	20.776845
1189.323171	-2.961300	3.513500	-10.403000	25.802367	0.000822	20.785081
1190.326487	-3.002500	3.511600	-10.542000	25.787212	0.000821	20.781237
1191.323545	-2.965200	3.511600	-10.412000	25.806715	0.000821	20.812207
1192.326522	-2.992300	3.511900	-10.507000	25.808081	0.000820	20.776596
1193.328055	-3.004500	3.510000	-10.545000	25.858711	0.000822	20.783834
1194.325564	-2.975900	3.510600	-10.446000	25.857692	0.000821	20.795612
1195.323210	-2.967000	3.510600	-10.414000	25.872797	0.000819	20.786129
1196.325939	-3.006300	3.509800	-10.551000	25.838192	0.000820	20.801627
1197.322674	-3.016200	3.509600	-10.584000	25.785623	0.000819	20.786754
1198.333401	-3.033900	3.507900	-10.641000	25.818044	0.000820	20.783759
1199.334728	-2.991800	3.508200	-10.495000	25.829398	0.000817	20.807966
1200.325585	-2.995700	3.508000	-10.508000	25.877120	0.000817	20.789050
1201.329656	-2.998300	3.506900	-10.513000	25.897713	0.000817	20.775599
1202.329906	-2.989700	3.507400	-10.485000	25.877791	0.000816	20.790672
1203.326376	-3.019900	3.507000	-10.588000	25.868525	0.000816	20.778519
1204.333338	-2.993400	3.505800	-10.493000	25.873891	0.000815	20.772056
1205.327803	-2.982700	3.507000	-10.459000	25.872301	0.000814	20.787054
1206.328070	-2.985100	3.504500	-10.461000	25.884970	0.000813	20.785082
1207.328502	-2.990400	3.505200	-10.481000	25.901465	0.000814	20.760875
1208.328349	-2.985300	3.505000	-10.461000	25.913116	0.000812	20.793443
1209.331786	-2.996600	3.504400	-10.500000	25.927946	0.000811	20.785108
1210.332257	-2.982100	3.503600	-10.447000	25.962996	0.000809	20.771008
1211.331005	-2.982800	3.504000	-10.451000	25.963046	0.000810	20.784335
1212.337097	-2.992200	3.504300	-10.485000	25.953134	0.000808	20.785757
1213.336253	-3.013500	3.502200	-10.554000	25.923177	0.000810	20.777472
1214.334723	-3.025200	3.500700	-10.588000	25.931548	0.000810	20.776399
1215.342951	-3.023000	3.501500	-10.584000	25.926655	0.000809	20.794242
1216.335041	-3.011700	3.502000	-10.546000	25.938529	0.000808	20.777247
1217.333750	-3.014400	3.502100	-10.555000	25.934405	0.000807	20.792545
1218.334101	-3.005600	3.502000	-10.524000	25.960636	0.000807	20.779543
1219.333947	-3.027000	3.500200	-10.593000	25.952390	0.000805	20.761301
1220.335399	-3.016200	3.500400	-10.557000	25.995139	0.000807	20.776748
1221.338377	-2.991400	3.500000	-10.468000	25.948390	0.000805	20.759179
1222.337433	-3.005400	3.499900	-10.518000	25.946354	0.000803	20.770884
1223.336250	-3.002200	3.500000	-10.507000	25.940317	0.000805	20.769561
1224.334991	-3.012600	3.497500	-10.535000	25.964710	0.000801	20.774153
1225.340315	-3.024600	3.498500	-10.580000	25.952464	0.000804	20.763272
1226.338263	-3.000500	3.499000	-10.498000	25.979291	0.000803	20.771258
1227.339974	-3.023000	3.497900	-10.574000	25.991711	0.000802	20.762398
1228.337511	-2.995500	3.497200	-10.475000	26.014861	0.000801	20.753414
1229.336285	-2.984900	3.498200	-10.440000	26.016574	0.000804	20.759878
1230.341597	-3.002500	3.495600	-10.495000	26.033489	0.000802	20.760751
1231.340379	-3.006200	3.495400	-10.507000	26.046132	0.000798	20.788627
1232.342598	-2.993700	3.497400	-10.469000	25.999933	0.000800	20.781091
1233.339518	-2.984400	3.496200	-10.433000	26.009172	0.000799	20.746751
1234.342301	-2.990800	3.493900	-10.449000	25.996927	0.000796	20.772855
1235.338830	-3.000400	3.494000	-10.482000	25.970646	0.000799	20.752615
1236.342860	-3.005900	3.493600	-10.500000	25.979812	0.000799	20.775101
1237.337352	-3.026900	3.494000	-10.574000	25.971740	0.000796	20.758929
1238.341324	-2.990000	3.493500	-10.444000	25.960462	0.000793	20.758505
1239.337182	-2.992900	3.495300	-10.458000	25.964610	0.000794	20.743706
1240.336682	-3.010700	3.492300	-10.512000	25.908024	0.000795	20.762723
1241.339993	-3.010600	3.493000	-10.515000	25.880078	0.000796	20.755985
1242.340100	-2.995600	3.492600	-10.462000	25.878984	0.000793	20.744929
1243.342082	-2.996400	3.493300	-10.466000	25.903652	0.000796	20.766866
1244.339201	-3.001500	3.493000	-10.483000	25.891679	0.000793	20.747250
1245.339743	-3.032700	3.489700	-10.582000	25.875507	0.000790	20.758506
1246.342610	-2.994600	3.489100	-10.446000	25.862589	0.000794	20.751218
1247.344158	-3.006300	3.488400	-10.486000	25.850963	0.000791	20.749022
1248.338604	-2.985600	3.489800	-10.418000	25.861397	0.000791	20.744330
1249.338600	-2.989400	3.489800	-10.431000	25.866887	0.000791	20.746527
1250.341739	-3.012500	3.488800	-10.510000	25.842219	0.000792	20.747825
1251.340735	-3.011200	3.486500	-10.495000	25.814420	0.000789	20.766368
1252.347640	-2.985100	3.488500	-10.413000	25.802271	0.000788	20.762699
1253.342848	-2.990600	3.487900	-10.429000	25.783341	0.000788	20.757433
1254.349102	-3.005700	3.487100	-10.480000	25.807241	0.000788	20.751569
1255.343516	-3.007800	3.486800	-10.487000	25.849548	0.000788	20.757558
1256.343172	-3.006300	3.484900	-10.476000	25.852827	0.000784	20.749473
1257.343573	-3.000500	3.486100	-10.459000	25.864304	0.000787	20.754838
1258.343328	-3.012100	3.483800	-10.492000	25.911776	0.000786	20.746578
1259.340791	-2.964300	3.485700	-10.331000	25.900698	0.000786	20.746827
1260.342221	-2.993200	3.485200	-10.431000	25.917142	0.000784	20.772832
1261.350074	-3.001800	3.486000	-10.464000	25.940046	0.000785	20.764547
1262.342757	-2.978900	3.484700	-10.379000	25.946156	0.000783	20.767367
1263.350998	-2.995500	3.483400	-10.434000	25.943251	0.000783	20.749748
1264.344016	-3.000100	3.481900	-10.445000	25.932122	0.000784	20.743784
1265.344327	-2.992500	3.483500	-10.423000	25.920894	0.000782	20.769014
1266.345196	-3.034100	3.480800	-10.560000	25.906959	0.000781	20.763549
1267.344499	-3.000300	3.483200	-10.449000	25.883955	0.000782	20.771734
1268.344658	-3.013300	3.481200	-10.489000	25.912250	0.000782	20.750373
1269.344464	-3.003400	3.481200	-10.454000	25.953560	0.000779	20.761528
1270.345207	-2.986400	3.482300	-10.398000	25.992061	0.000781	20.787881
1271.342907	-3.005600	3.479600	-10.457000	25.997154	0.000781	20.760755
1272.348495	-3.013700	3.478500	-10.482000	26.024253	0.000780	20.758583
1273.347984	-3.000300	3.480500	-10.441000	25.984361	0.000778	20.745531
1274.347137	-2.998400	3.480800	-10.436000	25.943227	0.000778	20.770588
1275.352087	-2.992400	3.478800	-10.409000	25.944419	0.000779	20.753767
1276.349255	-3.015500	3.477700	-10.486000	25.917418	0.000777	20.754616
1277.352539	-3.014900	3.479800	-10.490000	25.914611	0.000776	20.761753
1278.354482	-2.971500	3.477700	-10.332000	25.910711	0.000776	20.753094
1279.349916	-3.009700	3.476800	-10.463000	25.912300	0.000775	20.744733
1280.356166	-2.980300	3.477100	-10.362000	25.898216	0.000776	20.735324
1281.354623	-3.010600	3.475300	-10.462000	25.880752	0.000775	20.760456
1282.353756	-3.004000	3.477100	-10.445000	25.891136	0.000775	20.759508
1283.357100	-3.011300	3.476500	-10.468000	25.879486	0.000774	20.758235
1284.356279	-3.011700	3.475400	-10.465000	25.903433	0.000776	20.761430
1285.367365	-2.996900	3.475300	-10.415000	25.934385	0.000772	20.769291
1286.355768	-2.977300	3.473800	-10.342000	25.958480	0.000772	20.751298
1287.359187	-3.004800	3.473700	-10.437000	25.955847	0.000770	20.777103
1288.356337	-2.995800	3.472500	-10.402000	25.931107	0.000771	20.764101
1289.361832	-3.003800	3.474700	-10.435000	25.917593	0.000770	20.775655
1290.359751	-3.021500	3.473100	-10.493000	25.900950	0.000769	20.759409
1291.356473	-3.019800	3.472800	-10.487000	25.925244	0.000770	20.757263
1292.360743	-2.982300	3.472300	-10.354000	25.968540	0.000772	20.757138
1293.361328	-2.971800	3.472900	-10.319000	25.949786	0.000771	20.768643
1294.362839	-2.996400	3.472100	-10.403000	25.926338	0.000768	20.778750
1295.359805	-2.982100	3.471200	-10.350000	25.898814	0.000768	20.772436
1296.361181	-2.984500	3.472300	-10.363000	25.923829	0.000766	20.775281
1297.360691	-2.983300	3.469300	-10.349000	25.931927	0.000764	20.762080
1298.363341	-2.997200	3.469200	-10.396000	25.961338	0.000765	20.786887
1299.360868	-2.968000	3.470700	-10.299000	25.972516	0.000766	20.761132
1300.365698	-2.988300	3.469300	-10.366000	25.962854	0.000765	20.776555
1301.365486	-2.973400	3.468400	-10.313000	25.968642	0.000763	20.778103
1302.362512	-2.977200	3.469100	-10.326000	25.959302	0.000764	20.751175
1303.363858	-2.991000	3.467500	-10.371000	25.948049	0.000761	20.784915
1304.365676	-3.008500	3.466000	-10.426000	25.923904	0.000764	20.764926
1305.363178	-2.984400	3.468000	-10.349000	25.894219	0.000764	20.769718
1306.362977	-3.000600	3.466800	-10.401000	25.883463	0.000761	20.790206
1307.365118	-2.997500	3.467500	-10.393000	25.855764	0.000760	20.750527
1308.362795	-3.015900	3.465000	-10.449000	25.851044	0.000763	20.777554
1309.364471	-3.000100	3.464600	-10.393000	25.875539	0.000761	20.784142
1310.368412	-2.995100	3.464700	-10.376000	25.897003	0.000760	20.783419
1311.365641	-3.014000	3.465000	-10.442000	25.925445	0.000760	20.790656
1312.365403	-3.014100	3.463700	-10.439000	25.948621	0.000757	20.776007
1313.361152	-2.973200	3.463500	-10.297000	25.983695	0.000758	20.788011
1314.367919	-3.004700	3.464200	-10.407000	25.988986	0.000758	20.769618
1315.368784	-2.990300	3.462200	-10.352000	25.991743	0.000759	20.772389
1316.359889	-2.979300	3.464600	-10.321000	26.013576	0.000756	20.772513
1317.361078	-2.978300	3.463400	-10.313000	26.022270	0.000754	20.759911
1318.364489	-2.995700	3.461300	-10.367000	26.036279	0.000759	20.775408
1319.364415	-2.977100	3.463100	-10.309000	26.052722	0.000758	20.776756
1320.368621	-2.999000	3.460900	-10.378000	26.083943	0.000755	20.793427
1321.368737	-3.006900	3.459800	-10.402000	26.116007	0.000755	20.781074
1322.371569	-3.003100	3.459900	-10.390000	26.097181	0.000753	20.803883
1323.368675	-2.982200	3.461700	-10.322000	26.082030	0.000755	20.791979
1324.364661	-2.991800	3.458600	-10.347000	26.052747	0.000750	20.783894
1325.369277	-2.997200	3.459100	-10.366000	26.000562	0.000753	20.784568
1326.373119	-2.994400	3.459300	-10.358000	26.022420	0.000753	20.787563
1327.368773	-3.002900	3.459400	-10.387000	26.020556	0.000753	20.770991
1328.367678	-3.000100	3.458600	-10.375000	26.004933	0.000751	20.779951
1329.371594	-3.008600	3.456600	-10.398000	26.019291	0.000748	20.793028
1330.368407	-2.998700	3.457500	-10.367000	26.000264	0.000751	20.793277
1331.378001	-2.990400	3.456000	-10.333000	25.975375	0.000752	20.780126
1332.373910	-3.015600	3.455500	-10.419000	25.928079	0.000745	20.801837
1333.369609	-3.001400	3.455200	-10.370000	25.885800	0.000748	20.792080
1334.377099	-2.985300	3.455800	-10.315000	25.837556	0.000749	20.772065
1335.370454	-2.986700	3.455400	-10.319000	25.842997	0.000748	20.798868
1336.373172	-3.017100	3.454900	-10.423000	25.807049	0.000748	20.794526
1337.370344	-3.022900	3.453500	-10.439000	25.805583	0.000745	20.791156
1338.372381	-3.018100	3.453200	-10.421000	25.810950	0.000745	20.801289
1339.373470	-2.982400	3.454300	-10.300000	25.823669	0.000746	20.803634
1340.370041	-2.999200	3.452500	-10.354000	25.832737	0.000744	20.797096
1341.378561	-3.003300	3.452900	-10.368000	25.837854	0.000745	20.816935
1342.374951	-3.002200	3.451900	-10.362000	25.868361	0.000745	20.797795
1343.371882	-2.984900	3.453200	-10.307000	25.898295	0.000743	20.795150
1344.371982	-3.015500	3.450300	-10.403000	25.967501	0.000743	20.801139
1345.376923	-2.993600	3.452400	-10.334000	25.983622	0.000743	20.819231
1346.376402	-2.993200	3.451200	-10.329000	25.996315	0.000741	20.810173
1347.373724	-3.021600	3.448800	-10.419000	26.025451	0.000742	20.790608
1348.374204	-3.018700	3.448600	-10.410000	26.046514	0.000741	20.794700
1349.374306	-2.999700	3.450700	-10.350000	26.061068	0.000741	20.794151
1350.373868	-3.025400	3.448900	-10.433000	26.090649	0.000740	20.793053
1351.379155	-3.002400	3.449000	-10.354000	26.085508	0.000740	20.795474
1352.374759	-2.984900	3.449200	-10.294000	26.079821	0.000739	20.794026
1353.381491	-3.011000	3.448200	-10.382000	26.065142	0.000737	20.819581
1354.379410	-3.007300	3.447300	-10.367000	26.048625	0.000739	20.799193
1355.378533	-2.994000	3.447000	-10.319000	26.050785	0.000737	20.807053
1356.381283	-2.986300	3.446300	-10.290000	26.053219	0.000738	20.817085
1357.380058	-3.010200	3.444400	-10.367000	26.072320	0.000738	20.810198
1358.378884	-2.986800	3.447000	-10.294000	26.072667	0.000736	20.795848
1359.381699	-2.964800	3.447200	-10.220000	26.115983	0.000739	20.804283
1360.382249	-2.996900	3.446200	-10.327000	26.127110	0.000735	20.806929
1361.380141	-2.993900	3.445200	-10.314000	26.115661	0.000736	20.804433
1362.384857	-3.005500	3.444200	-10.350000	26.145861	0.000734	20.811071
1363.380538	-3.014600	3.442000	-10.375000	26.164835	0.000733	20.807852
1364.381580	-3.009900	3.442600	-10.361000	26.136373	0.000732	20.802960
1365.379455	-3.002900	3.443000	-10.337000	26.098746	0.000733	20.817310
1366.382303	-3.009200	3.441700	-10.355000	26.058833	0.000736	20.812294
1367.383489	-3.012300	3.441600	-10.366000	26.024905	0.000732	20.823723
1368.379695	-2.995100	3.441400	-10.307000	26.021229	0.000729	20.809126
1369.377926	-3.026000	3.440900	-10.411000	26.049619	0.000729	20.819157
1370.384698	-2.977700	3.441500	-10.247000	26.083199	0.000731	20.810223
1371.380610	-2.987700	3.441000	-10.280000	26.112829	0.000730	20.806329
1372.384875	-3.016700	3.439400	-10.375000	26.118517	0.000730	20.811571
1373.387753	-3.003300	3.439900	-10.329000	26.140298	0.000729	20.821603
1374.385068	-3.014000	3.439300	-10.364000	26.146011	0.000728	20.828765
1375.385220	-3.008400	3.438100	-10.343000	26.127036	0.000726	20.826769
1376.386961	-3.009000	3.438600	-10.345000	26.135753	0.000729	20.826993
1377.385982	-2.969900	3.438700	-10.212000	26.144794	0.000729	20.828965
1378.386940	-2.983500	3.437200	-10.252000	26.123162	0.000726	20.811023
1379.385828	-2.980600	3.437500	-10.244000	26.128452	0.000728	20.817761
1380.384827	-2.984200	3.437600	-10.258000	26.146533	0.000726	20.835927
1381.385218	-3.004200	3.435500	-10.320000	26.177802	0.000725	20.829416
1382.386074	-2.983300	3.436300	-10.251000	26.117003	0.000725	20.828542
1383.387897	-2.976700	3.436200	-10.227000	26.100189	0.000726	20.826820
1384.390355	-2.994200	3.435500	-10.284000	26.084120	0.000724	20.840071
1385.386594	-3.009200	3.433600	-10.332000	26.110523	0.000725	20.815866
1386.387897	-2.997500	3.433600	-10.292000	26.127236	0.000723	20.820332
1387.389633	-2.991100	3.435000	-10.273000	26.129373	0.000722	20.831013
1388.389471	-2.992900	3.434000	-10.276000	26.142983	0.000721	20.836628
1389.386109	-2.988000	3.433900	-10.260000	26.188035	0.000723	20.832586
1390.387301	-3.011800	3.433700	-10.340000	26.189027	0.000722	20.850652
1391.391546	-2.978600	3.433600	-10.225000	26.210038	0.000721	20.835256
1392.387437	-3.026700	3.431100	-10.384000	26.242644	0.000720	20.812073
1393.389112	-2.987800	3.432800	-10.256000	26.270160	0.000720	20.832611
1394.395557	-2.979400	3.431300	-10.221000	26.305819	0.000718	20.824351
1395.388011	-2.994000	3.430500	-10.271000	26.322854	0.000719	20.815867
1396.388917	-2.991700	3.431300	-10.264000	26.308774	0.000718	20.842968
1397.398818	-3.022900	3.429300	-10.366000	26.314908	0.000719	20.850554
1398.389472	-2.994700	3.430400	-10.272000	26.269639	0.000716	20.835406
1399.389563	-3.007300	3.428800	-10.309000	26.270160	0.000715	20.820758
1400.389343	-3.000800	3.428600	-10.288000	26.266709	0.000718	20.834833
1401.387927	-3.005400	3.426500	-10.297000	26.274432	0.000715	20.830740
1402.389816	-2.984700	3.428800	-10.232000	26.246470	0.000717	20.846262
1403.386242	-3.022600	3.426600	-10.356000	26.229608	0.000716	20.844491
1404.388550	-2.992300	3.428300	-10.258000	26.241181	0.000713	20.828620
1405.390335	-2.978700	3.427200	-10.208000	26.278505	0.000714	20.839574
1406.389798	-2.993000	3.427000	-10.256000	26.245700	0.000711	20.847385
1407.394809	-2.998700	3.424700	-10.268000	26.291418	0.000714	20.866775
1408.390108	-3.016100	3.425400	-10.330000	26.265567	0.000715	20.853599
1409.390782	-2.999900	3.425100	-10.272000	26.212697	0.000712	20.845988
1410.395812	-2.984300	3.425300	-10.221000	26.180337	0.000713	20.849981
1411.390762	-2.979200	3.424700	-10.201000	26.149939	0.000712	20.843143
1412.386993	-2.998000	3.424300	-10.265000	26.142067	0.000713	20.832863
1413.391676	-2.999100	3.423200	-10.266000	26.105607	0.000711	20.865927
1414.389418	-3.011500	3.422500	-10.306000	26.082534	0.000710	20.867399
1415.391194	-2.996200	3.422300	-10.253000	26.094927	0.000708	20.845714
1416.389302	-2.975500	3.423700	-10.187000	26.133474	0.000707	20.869745
1417.391268	-2.993300	3.423000	-10.246000	26.148822	0.000708	20.851977
1418.388425	-3.001000	3.420800	-10.265000	26.174476	0.000708	20.842195
1419.392463	-3.015500	3.421300	-10.316000	26.201423	0.000709	20.867849
1420.391825	-2.970300	3.422700	-10.165000	26.256926	0.000705	20.878105
1421.391683	-2.990100	3.420500	-10.227000	26.296882	0.000708	20.855197
1422.394886	-3.037400	3.419200	-10.384000	26.287122	0.000706	20.860088
1423.389040	-3.003900	3.420700	-10.274000	26.289134	0.000706	20.859265
1424.395573	-2.999900	3.418500	-10.255000	26.299365	0.000706	20.869546
1425.399832	-3.011300	3.418900	-10.294000	26.291319	0.000703	20.865728
1426.387756	-2.999900	3.419100	-10.256000	26.284764	0.000705	20.888061
1427.389274	-3.011800	3.416800	-10.289000	26.253897	0.000705	20.861311
1428.393959	-3.004800	3.417000	-10.266000	26.245479	0.000704	20.880825
1429.392579	-3.025000	3.416000	-10.332000	26.287124	0.000706	20.863883
1430.391636	-3.025600	3.416400	-10.336000	26.292389	0.000700	20.854001
1431.397285	-2.991400	3.417400	-10.220000	26.324397	0.000703	20.876684
1432.394108	-2.967600	3.417500	-10.141000	26.351984	0.000700	20.882598
1433.393954	-3.000700	3.415300	-10.247000	26.319456	0.000700	20.863184
1434.390613	-2.997700	3.415800	-10.238000	26.312777	0.000701	20.855998
1435.393169	-2.999500	3.414600	-10.241000	26.327626	0.000701	20.895100
1436.397514	-2.993100	3.414600	-10.217000	26.327154	0.000699	20.867602
1437.393336	-2.990500	3.414800	-10.211000	26.362365	0.000698	20.868849
1438.393022	-2.997500	3.415000	-10.234000	26.390746	0.000697	20.867503
1439.395082	-3.001300	3.415100	-10.249000	26.393974	0.000697	20.856996
1440.392025	-2.987100	3.413700	-10.196000	26.438220	0.000698	20.864483
1441.397787	-2.997700	3.413600	-10.232000	26.430499	0.000697	20.879955
1442.397623	-3.028400	3.411600	-10.331000	26.450784	0.000694	20.865731
1443.395758	-2.997500	3.413100	-10.230000	26.434248	0.000693	20.867129
1444.394493	-2.998300	3.411500	-10.228000	26.454534	0.000697	20.881827
1445.394518	-2.994000	3.411100	-10.212000	26.464291	0.000694	20.886418
1446.397193	-2.987000	3.411200	-10.188000	26.447557	0.000694	20.901366
1447.401563	-3.018000	3.409000	-10.286000	26.484576	0.000694	20.881204
1448.397996	-2.997400	3.411000	-10.223000	26.493067	0.000692	20.882152
1449.400512	-3.003500	3.409100	-10.238000	26.531549	0.000692	20.877685
1450.396865	-2.992000	3.409600	-10.201000	26.521320	0.000692	20.892532
1451.396983	-2.998100	3.411000	-10.224000	26.494955	0.000691	20.867455
1452.399450	-3.015700	3.407900	-10.275000	26.470202	0.000691	20.889988
1453.397999	-3.018100	3.407000	-10.281000	26.407508	0.000690	20.882926
1454.397375	-3.022800	3.407800	-10.300000	26.351144	0.000689	20.880805
1455.401202	-3.006800	3.408400	-10.247000	26.303741	0.000690	20.899546
1456.414912	-2.992200	3.407500	-10.195000	26.263587	0.000689	20.890487
1457.407495	-2.985700	3.406200	-10.169000	26.260260	0.000691	20.896153
1458.404168	-2.987500	3.405500	-10.173000	26.272651	0.000687	20.890113
1459.403283	-3.001100	3.405800	-10.220000	26.258745	0.000686	20.885148
1460.402877	-3.012800	3.404300	-10.256000	26.275979	0.000690	20.894405
1461.403206	-3.014600	3.404700	-10.263000	26.282410	0.000685	20.890912
1462.402675	-2.994600	3.405800	-10.198000	26.295001	0.000687	20.889814
1463.406576	-2.992300	3.404700	-10.187000	26.294578	0.000686	20.908354
1464.405527	-2.996100	3.403400	-10.195000	26.318491	0.000686	20.901567
1465.402429	-2.990500	3.403800	-10.178000	26.300836	0.000686	20.905161
1466.404917	-2.976900	3.404000	-10.132000	26.319088	0.000686	20.906907
1467.401524	-2.995400	3.402100	-10.188000	26.291847	0.000685	20.882852
1468.409338	-3.019100	3.402000	-10.270000	26.265127	0.000683	20.897251
1469.407367	-2.984500	3.402000	-10.152000	26.261626	0.000684	20.901792
1470.411026	-3.003500	3.401200	-10.214000	26.280474	0.000683	20.899396
1471.406684	-3.023700	3.400200	-10.280000	26.277991	0.000682	20.897376
1472.409135	-2.992900	3.401500	-10.179000	26.286458	0.000683	20.902091
1473.416550	-3.003800	3.399700	-10.210000	26.311365	0.000679	20.927594
1474.406147	-3.000600	3.399100	-10.199000	26.297261	0.000680	20.901094
1475.408497	-3.001700	3.399200	-10.202000	26.286260	0.000678	20.902840
1476.404775	-2.999600	3.400400	-10.199000	26.290506	0.000678	20.922753
1477.410510	-2.997300	3.399100	-10.187000	26.303369	0.000678	20.897750
1478.410561	-2.984200	3.398800	-10.142000	26.321174	0.000676	20.917063
1479.414483	-3.007800	3.397700	-10.218000	26.331901	0.000677	20.904138
1480.408836	-3.005900	3.397600	-10.211000	26.330958	0.000677	20.909353
1481.415248	-2.991000	3.397100	-10.160000	26.345708	0.000677	20.906634
1482.408027	-3.009000	3.395300	-10.215000	26.315265	0.000673	20.905436
1483.412944	-3.012700	3.396600	-10.230000	26.321125	0.000676	20.913222
1484.411858	-2.997500	3.395900	-10.179000	26.334286	0.000677	20.914594
1485.409886	-2.975100	3.397200	-10.106000	26.357205	0.000674	20.915817
1486.412133	-3.005300	3.395400	-10.202000	26.336496	0.000675	20.910177
1487.413242	-3.018800	3.394000	-10.245000	26.339923	0.000676	20.888968
1488.412162	-3.022000	3.392600	-10.252000	26.397281	0.000674	20.890190
1489.412731	-3.014700	3.394000	-10.231000	26.406320	0.000674	20.889792
1490.413278	-2.998600	3.394000	-10.176000	26.434179	0.000671	20.868956
1491.412506	-3.018100	3.393100	-10.240000	26.425861	0.000671	20.878139
1492.414446	-2.990800	3.393800	-10.149000	26.395346	0.000671	20.882082
1493.409970	-3.005900	3.392400	-10.196000	26.385886	0.000670	20.891066
1494.410689	-3.010500	3.390500	-10.205000	26.395620	0.000673	20.893736
1495.418585	-2.980700	3.392100	-10.110000	26.407786	0.000671	20.896006
1496.412820	-3.009800	3.391800	-10.207000	26.429438	0.000671	20.879363
1497.410442	-2.996800	3.391200	-10.161000	26.426384	0.000669	20.881983
1498.415679	-3.004500	3.391800	-10.189000	26.428768	0.000668	20.895284
1499.414518	-3.018300	3.389900	-10.231000	26.442424	0.000669	20.877716
1500.414284	-2.999800	3.391400	-10.172000	26.437507	0.000670	20.864241
1501.417499	-3.022900	3.388300	-10.242000	26.439991	0.000666	20.861048
1502.416337	-2.998900	3.390200	-10.166000	26.490963	0.000667	20.887623
1503.412252	-3.015400	3.388800	-10.217000	26.495706	0.000664	20.872477
1504.417962	-2.991100	3.388300	-10.134000	26.510676	0.000667	20.854335
1505.417601	-2.986900	3.388100	-10.119000	26.502931	0.000671	20.863144
1506.418318	-3.011000	3.387900	-10.199000	26.488481	0.000666	20.879439
1507.415381	-3.003600	3.388000	-10.175000	26.540544	0.000665	20.856382
1508.416650	-3.005200	3.386200	-10.175000	26.544839	0.000664	20.881087
1509.419816	-2.997400	3.386900	-10.151000	26.537813	0.000663	20.877818
1510.417152	-2.994000	3.386700	-10.139000	26.538186	0.000664	20.863495
1511.417422	-3.009300	3.385400	-10.187000	26.571999	0.000663	20.885629
1512.417720	-3.018400	3.384000	-10.213000	26.514800	0.000663	20.852790
1513.414490	-2.980700	3.385500	-10.090000	26.505986	0.000661	20.862422
1514.414664	-2.986300	3.384600	-10.106000	26.495335	0.000662	20.838441
1515.419294	-3.007000	3.384300	-10.176000	26.523142	0.000663	20.871132
1516.419057	-2.996200	3.383400	-10.136000	26.515023	0.000661	20.854911
1517.420804	-3.019400	3.382200	-10.211000	26.513832	0.000662	20.863196
1518.420775	-2.981400	3.384100	-10.089000	26.476690	0.000659	20.869485
1519.422732	-3.027400	3.381500	-10.235000	26.463010	0.000658	20.861425
1520.420687	-2.992700	3.382700	-10.122000	26.449181	0.000659	20.861750
1521.419959	-3.003200	3.382400	-10.157000	26.471825	0.000657	20.858905
1522.423206	-3.008100	3.380500	-10.167000	26.498415	0.000658	20.860502
1523.422474	-2.991200	3.383300	-10.119000	26.459113	0.000658	20.840914
1524.419714	-2.994700	3.381100	-10.125000	26.503680	0.000655	20.868638
1525.419078	-3.026400	3.380500	-10.229000	26.499210	0.000655	20.857034
1526.420375	-3.005400	3.380300	-10.157000	26.525255	0.000657	20.846704
1527.423289	-3.008500	3.378600	-10.164000	26.519395	0.000656	20.842237
1528.423990	-3.000300	3.380400	-10.140000	26.510483	0.000652	20.859356
1529.425111	-2.993800	3.379600	-10.117000	26.512370	0.000653	20.846081
1530.424691	-2.991900	3.378800	-10.109000	26.440841	0.000655	20.837721
1531.427374	-3.016400	3.378800	-10.190000	26.464081	0.000653	20.832157
1532.429036	-2.996000	3.377700	-10.119000	26.475204	0.000651	20.848551
1533.427089	-2.993300	3.379200	-10.114000	26.473838	0.000653	20.859032
1534.421413	-2.989000	3.377500	-10.094000	26.515052	0.000651	20.831233
1535.421453	-2.999300	3.377100	-10.128000	26.471207	0.000653	20.854018
1536.426755	-2.992600	3.377900	-10.108000	26.440817	0.000651	20.832956
1537.424375	-3.000300	3.377200	-10.131000	26.431109	0.000651	20.839794
1538.426914	-3.014300	3.374800	-10.171000	26.407447	0.000651	20.857262
1539.426873	-3.007800	3.375600	-10.153000	26.418893	0.000651	20.839844
1540.427053	-2.990000	3.375600	-10.091000	26.402878	0.000649	20.827541
1541.429483	-2.997200	3.374700	-10.114000	26.391482	0.000646	20.845958
1542.434380	-2.995700	3.374200	-10.107000	26.411396	0.000647	20.840368
1543.428198	-2.995700	3.372800	-10.103000	26.406703	0.000647	20.820480
1544.428807	-3.006000	3.372600	-10.137000	26.461476	0.000647	20.833806
1545.426668	-2.993300	3.372800	-10.094000	26.464480	0.000645	20.847256
1546.424522	-3.003600	3.372900	-10.129000	26.480197	0.000644	20.850725
1547.432691	-2.991000	3.372200	-10.086000	26.493927	0.000645	20.827069
1548.433122	-3.003000	3.372500	-10.125000	26.478285	0.000644	20.847855
1549.440169	-2.993500	3.371700	-10.092000	26.444048	0.000644	20.820556
1550.430337	-3.010800	3.370700	-10.148000	26.466715	0.000643	20.850925
1551.430079	-3.008900	3.369400	-10.137000	26.434886	0.000642	20.825572
1552.432401	-3.006600	3.369400	-10.129000	26.394539	0.000642	20.833858
1553.430651	-2.995900	3.370900	-10.098000	26.410232	0.000640	20.849629
1554.431165	-3.007300	3.370400	-10.135000	26.368368	0.000639	20.834108
1555.429126	-3.004400	3.369200	-10.122000	26.369063	0.000641	20.824375
1556.428511	-3.016000	3.367500	-10.155000	26.354935	0.000640	20.830564
1557.441652	-2.978200	3.370400	-10.036000	26.383937	0.000639	20.817513
1558.433330	-2.985200	3.368600	-10.055000	26.417730	0.000637	20.838674
1559.434097	-2.989200	3.368400	-10.068000	26.451051	0.000637	20.822379
1560.430686	-2.996200	3.368100	-10.091000	26.481714	0.000637	20.823802
1561.433510	-3.002500	3.366900	-10.107000	26.515603	0.000636	20.835580
1562.435541	-3.025800	3.366200	-10.184000	26.476301	0.000636	20.815516
1563.439170	-3.001400	3.367800	-10.107000	26.465153	0.000637	20.815691
1564.436787	-3.003100	3.366600	-10.109000	26.466470	0.000637	20.821282
1565.435965	-3.013000	3.365200	-10.138000	26.438736	0.000634	20.812846
1566.434682	-3.013900	3.364000	-10.137000	26.357294	0.000635	20.836254
1567.433595	-2.993200	3.365500	-10.073000	26.312896	0.000633	20.813446
1568.440474	-2.963200	3.366600	-9.974100	26.304453	0.000630	20.812547
1569.440823	-2.989600	3.365000	-10.058000	26.337975	0.000631	20.817787
1570.441708	-2.994000	3.363700	-10.069000	26.350093	0.000632	20.829966
1571.436617	-3.011700	3.363400	-10.128000	26.354761	0.000631	20.823752
1572.436362	-2.999000	3.362700	-10.084000	26.362732	0.000627	20.806158
1573.445107	-3.018100	3.363600	-10.151000	26.387140	0.000629	20.832111
1574.447746	-3.003000	3.363100	-10.098000	26.405539	0.000629	20.825948
1575.444078	-3.019000	3.361500	-10.147000	26.374128	0.000629	20.817138
1576.439693	-3.003300	3.361700	-10.095000	26.329905	0.000628	20.820108
1577.439084	-2.995100	3.362500	-10.071000	26.352402	0.000627	20.812846
1578.439868	-3.009700	3.361900	-10.117000	26.343487	0.000624	20.819060
1579.443375	-2.986100	3.360800	-10.034000	26.357914	0.000628	20.804635
1580.443910	-3.002800	3.360200	-10.088000	26.367275	0.000626	20.830638
1581.445408	-2.984300	3.361500	-10.031000	26.392775	0.000625	20.798420
1582.443698	-2.991300	3.359000	-10.046000	26.436524	0.000627	20.811572
1583.443028	-3.007600	3.359700	-10.102000	26.459615	0.000625	20.825771
1584.445979	-2.999600	3.360100	-10.078000	26.469943	0.000625	20.810548
1585.445110	-2.997700	3.359000	-10.069000	26.474958	0.000624	20.823175
1586.445130	-3.009700	3.358000	-10.105000	26.520640	0.000625	20.803660
1587.441919	-3.001100	3.359300	-10.080000	26.525879	0.000619	20.827418
1588.442330	-3.008400	3.356500	-10.096000	26.559966	0.000620	20.797671
1589.447989	-3.013500	3.357100	-10.115000	26.546907	0.000622	20.807304
1590.444261	-3.027700	3.356100	-10.160000	26.569176	0.000620	20.810723
1591.448660	-2.986400	3.356900	-10.024000	26.529726	0.000620	20.819905
1592.449782	-2.976600	3.357200	-9.990200	26.513192	0.000619	20.807553
1593.451524	-3.003300	3.355500	-10.076000	26.483970	0.000620	20.808052
1594.445230	-3.017100	3.356600	-10.127000	26.479898	0.000621	20.804433
1595.445560	-2.999900	3.354400	-10.062000	26.505221	0.000619	20.841740
1596.442468	-3.009200	3.354800	-10.095000	26.516891	0.000618	20.805581
1597.443523	-2.999400	3.354700	-10.061000	26.561702	0.000617	20.818382
1598.448185	-3.013100	3.352900	-10.101000	26.555248	0.000618	20.811421
1599.447550	-2.990700	3.353000	-10.027000	26.599561	0.000617	20.819456
1600.450751	-2.999300	3.353700	-10.058000	26.582730	0.000617	20.803010
1601.449663	-2.997300	3.354800	-10.054000	26.601598	0.000615	20.810123
1602.453515	-3.003100	3.352300	-10.067000	26.610410	0.000616	20.796223
1603.450449	-2.999700	3.352300	-10.055000	26.597526	0.000616	20.808875
1604.451180	-2.987500	3.353200	-10.017000	26.581043	0.000615	20.795625
1605.453882	-2.993500	3.351500	-10.031000	26.540824	0.000611	20.788387
1606.451379	-3.018800	3.348500	-10.108000	26.553188	0.000614	20.800815
1607.448533	-3.010200	3.351500	-10.087000	26.560958	0.000613	20.804359
1608.448174	-2.985300	3.350200	-10.001000	26.576450	0.000612	20.800491
1609.451297	-2.973800	3.350800	-9.963800	26.627391	0.000611	20.820405
1610.451387	-2.996500	3.349600	-10.036000	26.637644	0.000610	20.782823
1611.454774	-2.995100	3.349800	-10.031000	26.646258	0.000609	20.806656
1612.449990	-3.008800	3.348700	-10.074000	26.676692	0.000612	20.811172
1613.452443	-3.002900	3.347500	-10.051000	26.685901	0.000610	20.792456
1614.457604	-3.036400	3.347300	-10.163000	26.630049	0.000608	20.794628
1615.452412	-3.003000	3.347700	-10.053000	26.572057	0.000607	20.821205
1616.452026	-3.004900	3.347200	-10.057000	26.501822	0.000606	20.798021
1617.453314	-2.987800	3.348300	-10.002000	26.445538	0.000609	20.789811
1618.454829	-3.001200	3.347500	-10.045000	26.400671	0.000607	20.798770
1619.451582	-2.992600	3.346800	-10.015000	26.385972	0.000606	20.811023
1620.460425	-2.996300	3.346400	-10.026000	26.365859	0.000607	20.813569
1621.449933	-2.989500	3.346800	-10.003000	26.384979	0.000605	20.808129
1622.454370	-2.986300	3.346400	-9.992400	26.404420	0.000603	20.802064
1623.450951	-3.004900	3.344200	-10.048000	26.418201	0.000602	20.789362
1624.455154	-2.979300	3.345500	-9.966300	26.365462	0.000602	20.797048
1625.454964	-3.024500	3.344300	-10.113000	26.368739	0.000600	20.791333
1626.460062	-2.957200	3.345000	-9.891200	26.346913	0.000599	20.803537
1627.453712	-2.975700	3.344700	-9.951800	26.325410	0.000600	20.790935
1628.455894	-2.978500	3.344800	-9.962100	26.325359	0.000601	20.784720
1629.460668	-2.999700	3.343800	-10.029000	26.361588	0.000603	20.784146
1630.453761	-3.017600	3.341800	-10.082000	26.359204	0.000599	20.784121
1631.458441	-2.981000	3.342400	-9.961500	26.364270	0.000598	20.785893
1632.462270	-2.995300	3.341600	-10.008000	26.383811	0.000598	20.779454
1633.457674	-3.023600	3.340600	-10.100000	26.411471	0.000598	20.806780
1634.457762	-3.005500	3.340100	-10.037000	26.457082	0.000596	20.772491
1635.458959	-2.994400	3.340800	-10.001000	26.503188	0.000597	20.778057
1636.455243	-3.011600	3.338700	-10.054000	26.531466	0.000595	20.809800
1637.463203	-3.000700	3.338700	-10.018000	26.562349	0.000595	20.773040
1638.456350	-3.011400	3.338200	-10.052000	26.601226	0.000594	20.786042
1639.456782	-3.022900	3.338000	-10.090000	26.596534	0.000592	20.795550
1640.459461	-3.010900	3.338100	-10.050000	26.557980	0.000594	20.800890
1641.456705	-2.993500	3.338000	-9.991100	26.512572	0.000594	20.787963
1642.461723	-2.999200	3.338000	-10.011000	26.459663	0.000592	20.772241
1643.461657	-2.986400	3.337900	-9.967400	26.440595	0.000591	20.782473
1644.458963	-2.986400	3.337700	-9.966800	26.414648	0.000591	20.789585
1645.462992	-2.969700	3.338300	-9.912600	26.388776	0.000590	20.780651
1646.457422	-2.987000	3.336700	-9.965900	26.330722	0.000591	20.767823
1647.460463	-2.988800	3.335100	-9.966900	26.373133	0.000590	20.771093
1648.459361	-3.006300	3.334300	-10.023000	26.403599	0.000590	20.796023
1649.459870	-2.996400	3.336200	-9.995600	26.417355	0.000589	20.785193
1650.460650	-2.990000	3.336800	-9.976000	26.425102	0.000587	20.786815
1651.459194	-2.984600	3.334900	-9.951900	26.434213	0.000589	20.791232
1652.464780	-3.002700	3.333800	-10.009000	26.451072	0.000587	20.771192
1653.465604	-2.994000	3.334400	-9.982100	26.461674	0.000586	20.783271
1654.461559	-2.990000	3.334800	-9.970300	26.468229	0.000585	20.767574
1655.471508	-2.989800	3.333800	-9.965200	26.428329	0.000588	20.769670
1656.458643	-3.009000	3.333000	-10.028000	26.413755	0.000584	20.766875
1657.463233	-3.027300	3.331300	-10.083000	26.372487	0.000586	20.770443
1658.466850	-3.002000	3.331900	-10.002000	26.359227	0.000582	20.755220
1659.467076	-3.019400	3.330400	-10.054000	26.380432	0.000582	20.773688
1660.463341	-2.982600	3.331000	-9.934300	26.416263	0.000585	20.795001
1661.461154	-2.990500	3.331200	-9.961000	26.425647	0.000582	20.773138
1662.463952	-2.995300	3.330300	-9.974500	26.470067	0.000583	20.775585
1663.466058	-3.007000	3.329700	-10.011000	26.451246	0.000582	20.764254
1664.467804	-2.986200	3.330800	-9.946400	26.466963	0.000580	20.761085
1665.463721	-3.011700	3.328700	-10.025000	26.472400	0.000580	20.745213
1666.478265	-3.017800	3.327400	-10.041000	26.441861	0.000578	20.760985
1667.470913	-3.008000	3.328700	-10.010000	26.456659	0.000579	20.765902
1668.467486	-2.999900	3.327600	-9.981200	26.454250	0.000579	20.749730
1669.468590	-3.019000	3.327000	-10.044000	26.434562	0.000580	20.754597
1670.468107	-2.989000	3.328200	-9.946600	26.407323	0.000579	20.755669
1671.468534	-2.995100	3.328100	-9.966300	26.425374	0.000576	20.765752
1672.466123	-3.006700	3.326300	-10.000000	26.476795	0.000578	20.765278
1673.467564	-2.992800	3.325400	-9.950400	26.517412	0.000575	20.765328
1674.469665	-2.994900	3.326400	-9.961300	26.582159	0.000576	20.744589
1675.470954	-2.998600	3.326200	-9.972800	26.614779	0.000575	20.753198
1676.465909	-3.019700	3.325100	-10.039000	26.667830	0.000576	20.752951
1677.469926	-3.008200	3.324600	-9.999600	26.661251	0.000574	20.764829
1678.465809	-3.005500	3.323400	-9.987300	26.686124	0.000571	20.755695
1679.467449	-3.002600	3.322800	-9.976400	26.676543	0.000574	20.750330
1680.470558	-2.973000	3.324500	-9.882800	26.665645	0.000573	20.767350
1681.469043	-3.011500	3.324200	-10.010000	26.646953	0.000571	20.731488
1682.470427	-2.987000	3.322700	-9.923900	26.684038	0.000569	20.736528
1683.468191	-3.000500	3.322300	-9.967100	26.675724	0.000571	20.747136
1684.469206	-2.982500	3.322400	-9.908500	26.631611	0.000571	20.755895
1685.472490	-2.985100	3.322400	-9.916500	26.591396	0.000570	20.752926
1686.472281	-2.989700	3.321800	-9.930500	26.591545	0.000568	20.750705
1687.476494	-3.003100	3.320400	-9.969700	26.618877	0.000568	20.755896
1688.469975	-2.997600	3.320800	-9.954400	26.621434	0.000570	20.739974
1689.477892	-2.949500	3.323100	-9.799100	26.624290	0.000565	20.747587
1690.481930	-3.007300	3.319900	-9.983000	26.585115	0.000567	20.753725
1691.476861	-3.021800	3.319300	-10.029000	26.574813	0.000568	20.735781
1692.471189	-2.993500	3.318800	-9.933900	26.602618	0.000567	20.763259
1693.473413	-2.986300	3.318700	-9.910100	26.587872	0.000567	20.747487
1694.470877	-3.009600	3.317100	-9.982300	26.587079	0.000563	20.754277
1695.479822	-2.989400	3.319800	-9.922800	26.590902	0.000563	20.734885
1696.473633	-2.998700	3.318700	-9.950300	26.618730	0.000564	20.766654
1697.476673	-3.005200	3.316400	-9.965500	26.631838	0.000564	20.737630
1698.474845	-2.999200	3.318000	-9.950800	26.585739	0.000564	20.756248
1699.472766	-3.006600	3.317200	-9.972600	26.564787	0.000563	20.733764
1700.474243	-2.984800	3.316500	-9.898500	26.543784	0.000562	20.752481
1701.474904	-3.000100	3.315200	-9.944900	26.488743	0.000562	20.751209
1702.473701	-3.016400	3.314500	-9.996700	26.469452	0.000562	20.762639
1703.473798	-3.009400	3.314400	-9.973500	26.459968	0.000562	20.745046
1704.473112	-3.016900	3.314600	-9.998300	26.490631	0.000560	20.753107
1705.473197	-2.982600	3.315500	-9.886800	26.535916	0.000557	20.736985
1706.474740	-3.023600	3.312800	-10.015000	26.569878	0.000556	20.752158
1707.473540	-2.987900	3.314700	-9.903300	26.612007	0.000556	20.759895
1708.475722	-2.999900	3.313100	-9.937800	26.696359	0.000556	20.747966
1709.478236	-3.013100	3.311900	-9.977900	26.685312	0.000556	20.742076
1710.475038	-2.985200	3.313300	-9.890200	26.728603	0.000555	20.757624
1711.480517	-2.996200	3.312400	-9.922300	26.711997	0.000556	20.749464
1712.477125	-2.991000	3.312200	-9.906000	26.736820	0.000553	20.746445
1713.480556	-2.982600	3.312800	-9.878700	26.768789	0.000553	20.752982
1714.479642	-2.987600	3.311000	-9.890900	26.778892	0.000555	20.755079
1715.481373	-2.997500	3.311500	-9.923500	26.790930	0.000555	20.757700
1716.484862	-2.995800	3.309800	-9.913100	26.733816	0.000550	20.758598
1717.481687	-2.987400	3.309800	-9.886800	26.685313	0.000553	20.728800
1718.481551	-3.019400	3.308600	-9.987500	26.678089	0.000553	20.780335
1719.476749	-2.995600	3.310600	-9.915800	26.667291	0.000552	20.757625
1720.482591	-3.003400	3.309000	-9.936600	26.696559	0.000550	20.760022
1721.484257	-2.980600	3.308500	-9.859400	26.740767	0.000548	20.757526
1722.486484	-3.007600	3.308700	-9.950400	26.749753	0.000548	20.752809
1723.485045	-2.972000	3.308400	-9.831500	26.775319	0.000548	20.741529
1724.484380	-2.987400	3.307000	-9.877800	26.783807	0.000548	20.759073
1725.482349	-2.989500	3.306600	-9.884400	26.750547	0.000546	20.755030
1726.481433	-2.992100	3.305700	-9.889800	26.803837	0.000549	20.768307
1727.486495	-3.011200	3.305200	-9.951900	26.790980	0.000545	20.743525
1728.480875	-2.995400	3.306200	-9.902300	26.820939	0.000546	20.752785
1729.485835	-3.013000	3.305700	-9.958700	26.833423	0.000546	20.767708
1730.484495	-3.012000	3.304100	-9.950200	26.849506	0.000545	20.755904
1731.486961	-2.988600	3.303500	-9.871800	26.860079	0.000544	20.730972
1732.494474	-2.997900	3.303800	-9.903900	26.875417	0.000543	20.765836
1733.489585	-3.005400	3.304300	-9.930200	26.884973	0.000543	20.764539
1734.487687	-3.007500	3.302900	-9.932100	26.856704	0.000546	20.765987
1735.485470	-3.001100	3.303900	-9.912900	26.784031	0.000542	20.767359
1736.489085	-3.017300	3.302000	-9.961400	26.757820	0.000541	20.750963
1737.489557	-3.006000	3.302500	-9.926200	26.716516	0.000540	20.752585
1738.488887	-3.002600	3.302300	-9.914300	26.744120	0.000542	20.736240
1739.489684	-2.987500	3.301700	-9.862800	26.772441	0.000540	20.750490
1740.488787	-3.008500	3.301200	-9.930600	26.802970	0.000539	20.767909
1741.488015	-3.001600	3.301300	-9.908000	26.838140	0.000538	20.767235
1742.492074	-2.987700	3.303000	-9.867600	26.857623	0.000537	20.766911
1743.489903	-3.016200	3.298900	-9.948200	26.848068	0.000537	20.762992
1744.487743	-3.035900	3.298700	-10.013000	26.852486	0.000538	20.776918
1745.491678	-3.018200	3.299800	-9.957600	26.872069	0.000538	20.744451
1746.491530	-3.017700	3.298000	-9.950500	26.868222	0.000535	20.777093
1747.491658	-2.994600	3.299600	-9.880200	26.892593	0.000537	20.787849
1748.494742	-3.014400	3.296900	-9.936800	26.884279	0.000533	20.772377
1749.492693	-2.996000	3.297200	-9.877000	26.914235	0.000534	20.776420
1750.494937	-2.994000	3.295900	-9.866000	26.933395	0.000534	20.752063
1751.492260	-3.015600	3.296600	-9.940100	26.944861	0.000534	20.752687
1752.490422	-2.992200	3.297200	-9.864200	26.942602	0.000533	20.760373
1753.492732	-2.995900	3.297300	-9.876900	26.959354	0.000532	20.761097
1754.498971	-2.997000	3.297400	-9.879800	26.979877	0.000530	20.761348
1755.499784	-3.013300	3.295300	-9.928900	26.993601	0.000532	20.751914
1756.495159	-3.003100	3.295600	-9.895200	26.999209	0.000529	20.760399
1757.495785	-2.993500	3.294000	-9.857900	26.967717	0.000530	20.771405
1758.492514	-2.987800	3.295200	-9.844300	26.961786	0.000526	20.763543
1759.495918	-2.996500	3.295900	-9.874600	26.971664	0.000528	20.769683
1760.496447	-2.985100	3.294700	-9.833800	26.972855	0.000527	20.784632
1761.492805	-2.980500	3.294300	-9.817900	26.970473	0.000524	20.775124
1762.493648	-2.989200	3.293900	-9.844600	26.932206	0.000524	20.774576
1763.493210	-2.998700	3.293800	-9.876100	26.881404	0.000525	20.766640
1764.496809	-3.034700	3.291500	-9.988300	26.881577	0.000527	20.772030
1765.493396	-3.016800	3.292400	-9.931500	26.813523	0.000525	20.763346
1766.494975	-3.004700	3.291400	-9.888000	26.799425	0.000525	20.783311
1767.493946	-3.005600	3.291400	-9.892000	26.738538	0.000522	20.775200
1768.495454	-3.012400	3.290200	-9.909500	26.717217	0.000524	20.754238
1769.494898	-2.999900	3.290000	-9.868900	26.679784	0.000522	20.776348
1770.496769	-2.976800	3.290800	-9.795400	26.634703	0.000522	20.766116
1771.500480	-3.001900	3.288500	-9.869500	26.671245	0.000521	20.798585
1772.497152	-2.996900	3.290200	-9.859500	26.721362	0.000518	20.782113
1773.496797	-3.005700	3.288300	-9.882700	26.754524	0.000520	20.777996
1774.495995	-3.010200	3.288100	-9.896900	26.765719	0.000518	20.781191
1775.497755	-3.001400	3.287800	-9.867600	26.732632	0.000517	20.781590
1776.500436	-3.019300	3.287800	-9.925600	26.726252	0.000519	20.785607
1777.497867	-2.976000	3.288200	-9.785100	26.703715	0.000517	20.787605
1778.493733	-3.002800	3.287300	-9.870400	26.676086	0.000519	20.800606
1779.497191	-2.995900	3.287400	-9.848100	26.743778	0.000515	20.786632
1780.500539	-3.003200	3.286400	-9.868900	26.782500	0.000514	20.778148
1781.501558	-2.996000	3.286500	-9.845300	26.838345	0.000513	20.784511
1782.500596	-2.998600	3.283800	-9.845200	26.899747	0.000515	20.788404
1783.500223	-3.019600	3.285400	-9.919600	26.926750	0.000514	20.805600
1784.501293	-3.015500	3.284400	-9.903000	26.951220	0.000513	20.790851
1785.496942	-3.027000	3.285400	-9.944000	26.911091	0.000515	20.775629
1786.500627	-3.013900	3.284400	-9.897900	26.914887	0.000513	20.793197
1787.497591	-2.996300	3.284300	-9.839600	26.920148	0.000511	20.781418
1788.511455	-2.995200	3.284200	-9.836000	26.955911	0.000514	20.781818
1789.503535	-3.003900	3.282500	-9.858200	26.990629	0.000511	20.793022
1790.504726	-3.028600	3.281400	-9.936900	26.997404	0.000511	20.800784
1791.511073	-3.009200	3.283500	-9.878000	26.978817	0.000509	20.782567
1792.504803	-3.001000	3.281800	-9.847500	26.955241	0.000510	20.806749
1793.507892	-2.999700	3.282000	-9.844100	26.945513	0.000507	20.800760
1794.503663	-2.990500	3.281600	-9.812900	26.938837	0.000508	20.786460
1795.505796	-3.015600	3.279900	-9.890500	26.957103	0.000507	20.806251
1796.512709	-3.002700	3.279400	-9.846300	26.974227	0.000506	20.796918
1797.502870	-3.008400	3.280700	-9.869300	26.990606	0.000506	20.783517
1798.509737	-2.993300	3.279400	-9.814900	27.001104	0.000506	20.798815
1799.507680	-2.999400	3.279700	-9.835500	27.050386	0.000506	20.795271
1800.506351	-2.985300	3.279000	-9.788600	27.061008	0.000505	20.788409
1801.507893	-2.989100	3.279400	-9.801700	27.071802	0.000504	20.800687
1802.507499	-2.997100	3.277900	-9.823800	27.078304	0.000502	20.802958
1803.504286	-3.003300	3.276300	-9.838700	27.085400	0.000504	20.791129
1804.507068	-3.002200	3.277500	-9.838800	27.077560	0.000501	20.806003
1805.516538	-2.990300	3.278600	-9.802200	27.064284	0.000500	20.807825
1806.505712	-2.991400	3.278200	-9.804600	27.114036	0.000498	20.797169
1807.511348	-2.999500	3.276400	-9.827300	27.137558	0.000501	20.785740
1808.505319	-3.008700	3.276900	-9.858300	27.146168	0.000498	20.802933
1809.509509	-3.003600	3.275900	-9.838500	27.191277	0.000498	20.795673
1810.507177	-3.007700	3.274200	-9.846900	27.143713	0.000498	20.809473
1811.508353	-2.978600	3.275100	-9.753900	27.161949	0.000498	20.810271
1812.504778	-3.042200	3.272600	-9.955100	27.172072	0.000497	20.814763
1813.517531	-2.977200	3.274600	-9.749000	27.171056	0.000495	20.815637
1814.504772	-2.979800	3.274400	-9.756200	27.148030	0.000496	20.814764
1815.505287	-2.974400	3.272500	-9.733100	27.159295	0.000495	20.796696
1816.509827	-3.001600	3.274700	-9.829000	27.191699	0.000495	20.806054
1817.505285	-3.000900	3.272200	-9.818700	27.177358	0.000494	20.818657
1818.514337	-3.008200	3.271700	-9.839600	27.194106	0.000495	20.801363
1819.505525	-2.999500	3.272200	-9.813800	27.187011	0.000492	20.807977
1820.512705	-2.992300	3.271600	-9.789000	27.212069	0.000491	20.819904
1821.510648	-2.991200	3.272600	-9.788300	27.247449	0.000491	20.812817
1822.510885	-2.988900	3.272000	-9.777600	27.247598	0.000490	20.835726
1823.507324	-3.032400	3.268800	-9.911500	27.210830	0.000490	20.828615
1824.512435	-2.988400	3.270500	-9.772600	27.217231	0.000491	20.808975
1825.509348	-2.994100	3.269800	-9.788900	27.236657	0.000490	20.820455
1826.506716	-2.994400	3.270200	-9.790800	27.233135	0.000488	20.818808
1827.507546	-3.008500	3.268200	-9.831500	27.241521	0.000488	20.822027
1828.509941	-2.994200	3.268300	-9.785700	27.259483	0.000487	20.825396
1829.510783	-3.002800	3.268500	-9.813900	27.255935	0.000488	20.827991
1830.510252	-2.994800	3.267100	-9.782800	27.251295	0.000485	20.822376
1831.511326	-3.021100	3.266800	-9.868500	27.209590	0.000486	20.840169
1832.509765	-3.006500	3.266300	-9.819400	27.217306	0.000484	20.811896
1833.512168	-3.013000	3.266600	-9.841200	27.175103	0.000483	20.828242
1834.513684	-3.014100	3.265600	-9.841200	27.173539	0.000483	20.840893
1835.509080	-2.986300	3.265100	-9.749500	27.199195	0.000483	20.836826
1836.515079	-3.001900	3.266200	-9.802900	27.241199	0.000484	20.831661
1837.511863	-3.021400	3.263000	-9.857700	27.259733	0.000481	20.817587
1838.509527	-3.007800	3.264000	-9.816100	27.285336	0.000482	20.832435
1839.516492	-2.999700	3.265600	-9.794800	27.301537	0.000482	20.822653
1840.516901	-2.991700	3.264900	-9.767100	27.314858	0.000480	20.840320
1841.510406	-2.990100	3.262800	-9.755400	27.345448	0.000480	20.836952
1842.512724	-2.988200	3.263600	-9.750300	27.348350	0.000481	20.835605
1843.509494	-3.028700	3.262600	-9.880700	27.373233	0.000477	20.844514
1844.515961	-3.006600	3.263500	-9.811000	27.353734	0.000476	20.818262
1845.517339	-3.029100	3.260100	-9.872700	27.345746	0.000475	20.837726
1846.511175	-3.002500	3.261500	-9.789800	27.369090	0.000474	20.836554
1847.515679	-2.995800	3.261200	-9.768200	27.382040	0.000476	20.839624
1848.512501	-2.990100	3.261800	-9.751800	27.343912	0.000475	20.853425
1849.521684	-2.982300	3.261300	-9.725000	27.283304	0.000473	20.832288
1850.514879	-3.003100	3.261600	-9.793600	27.258074	0.000474	20.849582
1851.515404	-2.987400	3.259400	-9.735600	27.240632	0.000471	20.843418
1852.514067	-3.004200	3.259700	-9.792000	27.218800	0.000473	20.858441
1853.520230	-3.003200	3.259400	-9.787400	27.193121	0.000473	20.843045
1854.521684	-3.024300	3.258300	-9.852600	27.168979	0.000472	20.839152
1855.520309	-2.978700	3.259500	-9.707500	27.144564	0.000469	20.847312
1856.516913	-2.983500	3.259300	-9.723100	27.110745	0.000472	20.864033
1857.513438	-2.986100	3.257000	-9.725000	27.068785	0.000471	20.850283
1858.515175	-3.021400	3.256200	-9.837500	27.032133	0.000467	20.846614
1859.519788	-3.017500	3.256300	-9.823900	27.027122	0.000468	20.840626
1860.519203	-3.016800	3.255400	-9.820000	27.077248	0.000466	20.845043
1861.516837	-3.032700	3.254300	-9.868500	27.077818	0.000466	20.863633
1862.519228	-2.993400	3.253200	-9.737000	27.074592	0.000467	20.858493
1863.516685	-3.018700	3.254600	-9.824200	27.092210	0.000466	20.841125
1864.517434	-3.013400	3.253400	-9.803000	27.109232	0.000463	20.851132
1865.517509	-2.995900	3.254100	-9.748500	27.110846	0.000463	20.854651
1866.516867	-2.962100	3.256900	-9.645600	27.105932	0.000464	20.879105
1867.519517	-2.987600	3.254800	-9.723500	27.117620	0.000463	20.863360
1868.517271	-2.985700	3.252200	-9.709100	27.058563	0.000463	20.850908
1869.515518	-2.997100	3.252600	-9.746900	27.071442	0.000463	20.870971
1870.521646	-3.006400	3.252000	-9.776100	27.096677	0.000462	20.872643
1871.517343	-2.983500	3.253700	-9.706700	27.140547	0.000461	20.866504
1872.522442	-3.007300	3.252400	-9.780400	27.171513	0.000459	20.859243
1873.520042	-3.003300	3.251600	-9.764300	27.167642	0.000458	20.881427
1874.516795	-3.001200	3.251900	-9.758200	27.160745	0.000457	20.865482
1875.525083	-2.998000	3.250800	-9.744600	27.190345	0.000458	20.872968
1876.516930	-2.995300	3.250100	-9.734300	27.243688	0.000458	20.852181
1877.519564	-3.006200	3.248500	-9.764500	27.271078	0.000455	20.864559
1878.517075	-3.005100	3.250200	-9.766300	27.266662	0.000458	20.881926
1879.519142	-2.995100	3.248500	-9.728400	27.297301	0.000456	20.868651
1880.521543	-2.997600	3.249100	-9.737900	27.303777	0.000453	20.881802
1881.524000	-2.990600	3.249600	-9.716300	27.281299	0.000452	20.878158
1882.519967	-3.009400	3.246000	-9.767000	27.229795	0.000451	20.887516
1883.521615	-3.004000	3.245600	-9.748200	27.211832	0.000449	20.863760
1884.534357	-2.997500	3.246800	-9.730500	27.215652	0.000453	20.869973
1885.523359	-2.989200	3.246700	-9.704400	27.228951	0.000449	20.881452
1886.527321	-3.001600	3.245400	-9.739500	27.257458	0.000450	20.872195
1887.521475	-2.991300	3.245900	-9.707800	27.240066	0.000451	20.880779
1888.524744	-2.990700	3.245500	-9.705400	27.221285	0.000447	20.878957
1889.524806	-2.994800	3.244700	-9.716100	27.204263	0.000448	20.894552
1890.525579	-3.021600	3.244000	-9.798900	27.208456	0.000446	20.887865
1891.527546	-3.009700	3.244600	-9.763700	27.247807	0.000446	20.903262
1892.526599	-3.008400	3.243000	-9.755600	27.274651	0.000445	20.905608
1893.525679	-3.009300	3.242600	-9.757500	27.323128	0.000444	20.883724
1894.528090	-3.003300	3.242300	-9.737000	27.368997	0.000444	20.886717
1895.527534	-3.005100	3.241500	-9.739700	27.400254	0.000442	20.869799
1896.530725	-3.011500	3.242800	-9.764700	27.399311	0.000443	20.882600
1897.529981	-2.994800	3.242000	-9.708100	27.375918	0.000443	20.877086
1898.528740	-2.996600	3.241600	-9.712800	27.350168	0.000439	20.918034
1899.529250	-3.007000	3.241000	-9.745300	27.371751	0.000440	20.884273
1900.525116	-3.012200	3.239400	-9.756400	27.396756	0.000441	20.873393
1901.531387	-3.003100	3.240700	-9.730100	27.414840	0.000439	20.908651
1902.525679	-3.000600	3.240200	-9.722000	27.449890	0.000441	20.889388
1903.531809	-2.989500	3.240100	-9.685300	27.463334	0.000436	20.882999
1904.528837	-3.018600	3.237800	-9.772900	27.446318	0.000437	20.884846
1905.526044	-2.993000	3.238900	-9.693300	27.354534	0.000436	20.878333
1906.534409	-2.999200	3.238800	-9.712600	27.341906	0.000437	20.907827
1907.535795	-2.996100	3.237100	-9.697600	27.277206	0.000434	20.899643
1908.530152	-3.003300	3.238300	-9.724700	27.246988	0.000433	20.901016
1909.534314	-3.005500	3.236500	-9.726500	27.190643	0.000432	20.892707
1910.532245	-3.003100	3.235700	-9.715500	27.138289	0.000434	20.880354
1911.532012	-3.005900	3.235000	-9.723500	27.144368	0.000434	20.891208
1912.538912	-3.006300	3.235500	-9.725800	27.152481	0.000432	20.896997
1913.531428	-2.984600	3.236700	-9.659300	27.140100	0.000430	20.907303
1914.532093	-3.018500	3.234900	-9.763500	27.175408	0.000432	20.887340
1915.536316	-2.989100	3.236400	-9.673200	27.230762	0.000431	20.916935
1916.531768	-3.016300	3.233500	-9.752400	27.282737	0.000432	20.897621
1917.532314	-2.987600	3.234400	-9.661800	27.322902	0.000428	20.911943
1918.541758	-3.000900	3.233000	-9.701200	27.348679	0.000427	20.916062
1919.535890	-3.017300	3.232000	-9.751800	27.329130	0.000426	20.907777
1920.532167	-2.997600	3.232200	-9.687900	27.300626	0.000426	20.907079
1921.535838	-3.013600	3.232000	-9.739400	27.273782	0.000424	20.897148
1922.531694	-2.970700	3.232900	-9.602400	27.292438	0.000426	20.922075
1923.537357	-3.007400	3.230500	-9.713800	27.304247	0.000425	20.916411
1924.536273	-3.014900	3.231000	-9.740000	27.286012	0.000425	20.916086
1925.541970	-2.999700	3.230400	-9.689500	27.315361	0.000421	20.915737
1926.533534	-2.972100	3.231600	-9.602700	27.333546	0.000421	20.919805
1927.532106	-2.986700	3.230100	-9.645600	27.389115	0.000422	20.906006
1928.536360	-2.997200	3.229400	-9.678000	27.440463	0.000420	20.910248
1929.533487	-2.988000	3.229400	-9.646600	27.480548	0.000419	20.935399
1930.537115	-2.990200	3.229200	-9.655500	27.500888	0.000416	20.935001
1931.533860	-2.991800	3.228500	-9.657700	27.513860	0.000420	20.922450
1932.537557	-2.983200	3.227600	-9.627200	27.477993	0.000416	20.912443
1933.537029	-2.974600	3.226800	-9.597700	27.494241	0.000415	20.921676
1934.537393	-3.003800	3.227100	-9.691500	27.462044	0.000417	20.907777
1935.537896	-3.001900	3.225200	-9.680700	27.461524	0.000416	20.929537
1936.533841	-2.989800	3.225900	-9.643000	27.481193	0.000414	20.918033
1937.534713	-2.988400	3.226900	-9.641800	27.529859	0.000414	20.921476
1938.538114	-2.991500	3.224600	-9.645000	27.564956	0.000414	20.916961
1939.538033	-3.014900	3.224500	-9.719700	27.598636	0.000413	20.935674
1940.533353	-3.009700	3.224600	-9.704400	27.615649	0.000413	20.919130
1941.537809	-3.005400	3.222700	-9.684700	27.604713	0.000411	20.918557
1942.534064	-2.993700	3.224100	-9.650700	27.598364	0.000411	20.937771
1943.535787	-2.997700	3.223300	-9.661400	27.602307	0.000408	20.937471
1944.540985	-2.996900	3.223200	-9.657900	27.570932	0.000407	20.921550
1945.539753	-2.992400	3.221200	-9.637300	27.582689	0.000407	20.904459
1946.541113	-3.020900	3.222800	-9.734600	27.623214	0.000406	20.940963
1947.548665	-3.009700	3.222000	-9.696500	27.615129	0.000406	20.919081
1948.539213	-2.997000	3.220800	-9.651300	27.629886	0.000406	20.917333
1949.538750	-3.009700	3.220700	-9.692200	27.624231	0.000406	20.917808
1950.543383	-2.995000	3.220400	-9.643800	27.613467	0.000405	20.915986
1951.539416	-3.009400	3.219600	-9.687200	27.562003	0.000403	20.940539
1952.541278	-3.009000	3.217800	-9.680900	27.546525	0.000405	20.914538
1953.540774	-2.994900	3.218300	-9.637800	27.603793	0.000402	20.909572
1954.542556	-3.006000	3.218300	-9.672500	27.630108	0.000402	20.904283
1955.543184	-2.989000	3.219200	-9.621100	27.644964	0.000402	20.907376
1956.540442	-2.991900	3.217700	-9.625600	27.678767	0.000401	20.926216
1957.543759	-2.997700	3.216800	-9.641100	27.660043	0.000401	20.913067
1958.540194	-2.998800	3.215000	-9.639600	27.633358	0.000402	20.929835
1959.542275	-3.006600	3.215100	-9.665300	27.602058	0.000399	20.889810
1960.541968	-2.981600	3.215900	-9.587700	27.560415	0.000400	20.897221
1961.539871	-2.990700	3.215200	-9.614400	27.554265	0.000399	20.923273
1962.542793	-2.998900	3.215100	-9.640400	27.593105	0.000398	20.921101
1963.541793	-3.024100	3.213800	-9.718200	27.633804	0.000395	20.930284
1964.540510	-3.002200	3.212800	-9.644200	27.661829	0.000397	20.911544
1965.546476	-2.999000	3.212400	-9.633400	27.685836	0.000393	20.900142
1966.546460	-3.002600	3.213500	-9.647300	27.739204	0.000395	20.895525
1967.542124	-2.997900	3.211600	-9.626800	27.710785	0.000394	20.898221
1968.545520	-3.010400	3.211000	-9.665700	27.662029	0.000394	20.894204
1969.544490	-2.992900	3.212400	-9.612700	27.626639	0.000389	20.893206
1970.545683	-3.019600	3.211600	-9.696400	27.582641	0.000390	20.895876
1971.545347	-3.009300	3.209600	-9.658000	27.561460	0.000390	20.881204
1972.545714	-3.009100	3.210600	-9.659500	27.538195	0.000388	20.908054
1973.550566	-2.970300	3.209900	-9.532900	27.569347	0.000388	20.904785
1974.548929	-2.976600	3.209600	-9.552000	27.594274	0.000386	20.909477
1975.546219	-2.992400	3.208400	-9.599900	27.602434	0.000384	20.881180
1976.550856	-3.015500	3.207200	-9.670500	27.588768	0.000384	20.895877
1977.545190	-2.992400	3.208200	-9.598700	27.634751	0.000385	20.895204
1978.545186	-2.995700	3.206700	-9.605000	27.661139	0.000384	20.906583
1979.546510	-3.008600	3.207600	-9.648300	27.670217	0.000382	20.902442
1980.545951	-2.994900	3.207500	-9.603700	27.656725	0.000383	20.890289
1981.559267	-2.999900	3.206300	-9.617800	27.669225	0.000380	20.894332
1982.548739	-3.017200	3.205700	-9.670900	27.641249	0.000380	20.870925
1983.547891	-2.990200	3.206200	-9.585200	27.650649	0.000380	20.894132
1984.547390	-3.003500	3.205200	-9.625900	27.663844	0.000377	20.890340
1985.552057	-3.015400	3.204300	-9.661700	27.683238	0.000376	20.896579
1986.547576	-2.975100	3.205500	-9.535500	27.644425	0.000375	20.890714
1987.553989	-3.008600	3.204200	-9.638900	27.626593	0.000378	20.885100
1988.552474	-2.985300	3.203800	-9.563600	27.621285	0.000375	20.886871
1989.551393	-2.986200	3.201900	-9.560700	27.588721	0.000374	20.888245
1990.558033	-3.011900	3.201900	-9.642900	27.553552	0.000371	20.881782
1991.551939	-3.021500	3.202000	-9.674100	27.562926	0.000372	20.875567
1992.558356	-2.994300	3.202900	-9.589700	27.562059	0.000373	20.877066
1993.559350	-2.986800	3.202900	-9.564900	27.584777	0.000370	20.885225
1994.557003	-3.007200	3.201600	-9.627100	27.640234	0.000370	20.865637
1995.556321	-3.001100	3.202000	-9.607500	27.668681	0.000371	20.884303
1996.556550	-2.993200	3.201700	-9.582600	27.702135	0.000370	20.892836
1997.556055	-2.965500	3.200000	-9.488900	27.669525	0.000368	20.888471
1998.554839	-3.009100	3.200300	-9.628900	27.610945	0.000369	20.864140
1999.556593	-3.008000	3.198400	-9.619500	27.568261	0.000365	20.861970
2000.554917	-2.976700	3.199600	-9.523200	27.544078	0.000368	20.860872
2001.556278	-2.982200	3.197700	-9.535400	27.561192	0.000365	20.864341
2002.558202	-3.007800	3.197800	-9.617200	27.541672	0.000365	20.859873
2003.561252	-2.994600	3.198200	-9.576800	27.522103	0.000365	20.874796
2004.558635	-3.000200	3.197000	-9.589700	27.512330	0.000363	20.864491
2005.558927	-3.022400	3.195500	-9.656500	27.517959	0.000362	20.869206
2006.560756	-3.009800	3.194100	-9.612600	27.527659	0.000361	20.869956
2007.558467	-2.999200	3.194500	-9.579500	27.500449	0.000362	20.877192
2008.561232	-3.011400	3.194800	-9.619900	27.476611	0.000359	20.868383
2009.560390	-2.994500	3.193900	-9.563100	27.476711	0.000360	20.876069
2010.560173	-2.999500	3.193700	-9.577700	27.450542	0.000357	20.867285
2011.562183	-2.992200	3.194100	-9.556500	27.484400	0.000358	20.871952
2012.562326	-3.000800	3.192700	-9.579700	27.505533	0.000356	20.868083
2013.560325	-3.020600	3.191300	-9.638500	27.540085	0.000356	20.858277
2014.563087	-2.982600	3.192500	-9.520800	27.588823	0.000354	20.878390
2015.559422	-3.018100	3.190100	-9.627400	27.552214	0.000355	20.859100
2016.562286	-2.993900	3.192800	-9.558000	27.525700	0.000354	20.863243
2017.561985	-2.995400	3.191000	-9.556900	27.543756	0.000355	20.875719
2018.558314	-2.989700	3.192100	-9.541700	27.574661	0.000353	20.882632
2019.563818	-2.992100	3.190600	-9.545800	27.579323	0.000353	20.902495
2020.564770	-2.998900	3.189500	-9.564400	27.560946	0.000352	20.858403
2021.562535	-2.981400	3.188600	-9.505100	27.544153	0.000352	20.883704
2022.562807	-3.003200	3.188400	-9.573400	27.518085	0.000348	20.860323
2023.580921	-3.002200	3.188400	-9.570900	27.512554	0.000348	20.865664
2024.567355	-3.001700	3.187200	-9.565200	27.458059	0.000345	20.850667
2025.565691	-3.006900	3.188500	-9.586100	27.441142	0.000348	20.855932
2026.562505	-3.009800	3.185900	-9.588000	27.429359	0.000344	20.860674
2027.564248	-3.030300	3.185900	-9.652700	27.445185	0.000343	20.881810
2028.564862	-2.983000	3.186600	-9.505200	27.493183	0.000345	20.867985
2029.567221	-3.018100	3.184400	-9.610700	27.564666	0.000344	20.859775
2030.573704	-2.958000	3.186900	-9.425500	27.627118	0.000342	20.861448
2031.567183	-2.985600	3.185200	-9.509100	27.677017	0.000341	20.869458
2032.571476	-3.009300	3.183100	-9.578300	27.720689	0.000342	20.861249
2033.567531	-2.991100	3.183500	-9.521400	27.727311	0.000342	20.870282
2034.566184	-3.003900	3.183100	-9.561100	27.709530	0.000341	20.862821
2035.570043	-3.020700	3.182600	-9.613100	27.654921	0.000339	20.865242
2036.581296	-3.009200	3.180900	-9.571400	27.604673	0.000339	20.849770
2037.580990	-3.001000	3.182300	-9.549800	27.561591	0.000338	20.884655
2038.579132	-2.982100	3.183300	-9.491900	27.525877	0.000339	20.871481
2039.590748	-2.995300	3.179100	-9.521100	27.521586	0.000339	20.864320
2040.596610	-3.000600	3.180700	-9.543800	27.497228	0.000336	20.848823
2041.587998	-3.022100	3.179800	-9.608800	27.480609	0.000335	20.861500
2042.588521	-3.013500	3.178900	-9.578500	27.489985	0.000336	20.851493
2043.571697	-3.001200	3.179300	-9.540800	27.540263	0.000335	20.852292
2044.573270	-3.000900	3.177900	-9.536200	27.585330	0.000337	20.872506
2045.570023	-2.971300	3.176900	-9.437900	27.675631	0.000334	20.870908
2046.599094	-2.964900	3.177500	-9.419300	27.741522	0.000332	20.855187
2047.585633	-3.000700	3.176500	-9.529700	27.798063	0.000330	20.882687
2048.590156	-2.980700	3.176300	-9.466600	27.824025	0.000329	20.876100
2049.570765	-3.013800	3.174800	-9.567200	27.793599	0.000327	20.845955
2050.596734	-3.001600	3.175100	-9.528600	27.758857	0.000329	20.846554
2051.601519	-2.985600	3.174200	-9.475500	27.744451	0.000331	20.861927
2052.571326	-3.007400	3.175500	-9.549100	27.783805	0.000326	20.855538
2053.569660	-2.993200	3.173600	-9.497900	27.822166	0.000328	20.842463
2054.572807	-3.006200	3.172400	-9.535400	27.821448	0.000324	20.843162
2055.571075	-2.981000	3.173700	-9.459700	27.857452	0.000324	20.853793
2056.570344	-3.020000	3.170200	-9.571900	27.911233	0.000323	20.847704
2057.588078	-2.982300	3.172100	-9.458700	27.888645	0.000323	20.846307
2058.586514	-3.015100	3.170900	-9.559600	27.859312	0.000323	20.864199
2059.588481	-2.990200	3.169100	-9.474900	27.863677	0.000321	20.854368
2060.571271	-3.022400	3.169900	-9.579500	27.912077	0.000321	20.843812
2061.574299	-3.008900	3.168500	-9.532200	27.914284	0.000320	20.866894
2062.572938	-3.023400	3.168500	-9.578500	27.910887	0.000318	20.860632
2063.595921	-3.020500	3.170100	-9.574600	27.921003	0.000317	20.839520
2064.595298	-2.976500	3.170400	-9.435100	27.928541	0.000318	20.843787
2065.607158	-3.010000	3.168200	-9.535200	27.958590	0.000317	20.851273
2066.595378	-2.992600	3.168100	-9.479500	27.981847	0.000318	20.841017
2067.596423	-3.002000	3.168200	-9.510000	27.951476	0.000316	20.846009
2068.608540	-2.998900	3.167400	-9.495600	27.963054	0.000315	20.833955
2069.574608	-2.996000	3.165800	-9.483100	28.017622	0.000313	20.850475
2070.578220	-2.996900	3.164700	-9.483400	28.004209	0.000313	20.862103
2071.576826	-2.985500	3.165100	-9.448300	28.001557	0.000313	20.834304
2072.607537	-3.009800	3.164600	-9.523700	27.987102	0.000312	20.848203
2073.613441	-3.030100	3.162400	-9.581400	27.971086	0.000312	20.838247
2074.578695	-3.002400	3.162100	-9.492600	27.987201	0.000309	20.823174
2075.600517	-2.986700	3.162700	-9.445200	27.954573	0.000309	20.857661
2076.599709	-3.005400	3.162200	-9.502700	27.945523	0.000309	20.833854
2077.597726	-2.984700	3.162600	-9.438500	27.943763	0.000308	20.838247
2078.604682	-3.002000	3.160800	-9.488000	27.947481	0.000307	20.823497
2079.599166	-3.010500	3.159600	-9.510900	27.930845	0.000306	20.834253
2080.580876	-2.997100	3.161100	-9.472900	27.889463	0.000305	20.844759
2081.585546	-2.999100	3.159200	-9.473600	27.866800	0.000304	20.817683
2082.606531	-2.987900	3.157500	-9.433100	27.891545	0.000305	20.827889
2083.602156	-2.989200	3.158300	-9.439400	27.925266	0.000304	20.849026
2084.601427	-3.008400	3.157000	-9.496700	27.966845	0.000305	20.855314
2085.581441	-3.002500	3.156100	-9.475000	28.007033	0.000301	20.830808
2086.586851	-2.991900	3.156000	-9.441500	28.046552	0.000300	20.848301
2087.585306	-3.014300	3.157400	-9.516100	28.051287	0.000300	20.824145
2088.590291	-2.992100	3.155300	-9.439900	28.058774	0.000299	20.835949
2089.584805	-2.988900	3.155300	-9.429700	28.049154	0.000299	20.836223
2090.585507	-3.001400	3.152800	-9.461600	28.070375	0.000298	20.838619
2091.588435	-3.022600	3.154800	-9.533200	28.054137	0.000297	20.839816
2092.588081	-3.008300	3.152300	-9.482100	28.059889	0.000298	20.853666
2093.588748	-2.981400	3.152300	-9.397200	28.023446	0.000296	20.827414
2094.592561	-2.992600	3.152100	-9.431100	27.979339	0.000297	20.847976
2095.593615	-2.991400	3.151900	-9.427100	27.951496	0.000295	20.827538
2096.587225	-3.002100	3.150700	-9.457700	27.936942	0.000296	20.845606
2097.588710	-3.011700	3.148700	-9.481100	27.987817	0.000295	20.848449
2098.586692	-3.017900	3.148300	-9.500200	28.016726	0.000294	20.825866
2099.588429	-3.004100	3.147700	-9.455200	28.045708	0.000293	20.839866
2100.588450	-2.987100	3.148400	-9.403400	28.062615	0.000292	20.817057
2101.589280	-2.993100	3.148700	-9.423500	28.086266	0.000292	20.841812
2102.598530	-2.980300	3.147500	-9.379800	28.098834	0.000293	20.823171
2103.587969	-2.992600	3.144700	-9.409900	28.074367	0.000291	20.822249
2104.589754	-2.980900	3.145800	-9.376600	27.999123	0.000291	20.823320
2105.596553	-2.985600	3.144900	-9.387300	27.976687	0.000288	20.830134
2106.593839	-3.011100	3.143300	-9.463600	27.937092	0.000290	20.825368
2107.592334	-3.003500	3.142700	-9.438200	27.936620	0.000286	20.817307
2108.605103	-2.996800	3.144000	-9.420000	27.965083	0.000286	20.832679
2109.612574	-3.010900	3.143800	-9.464200	27.974827	0.000285	20.841064
2110.608770	-2.994500	3.141600	-9.405800	27.984720	0.000286	20.805029
2111.617006	-3.020300	3.139800	-9.482300	28.029693	0.000286	20.834651
2112.620582	-3.013600	3.140000	-9.461500	28.041594	0.000283	20.833354
2113.607327	-2.997700	3.140400	-9.413300	28.056617	0.000283	20.839468
2114.618192	-2.992700	3.139800	-9.394500	28.018290	0.000282	20.819854
2115.591248	-2.992700	3.140100	-9.395700	28.037404	0.000283	20.821076
2116.589540	-2.981300	3.139700	-9.360000	28.012291	0.000280	20.831358
2117.592622	-2.987600	3.139500	-9.378700	28.030214	0.000282	20.810994
2118.616420	-2.992400	3.137800	-9.386800	28.071492	0.000280	20.828838
2119.620803	-3.018800	3.138000	-9.471700	28.158629	0.000281	20.820303
2120.591554	-3.035400	3.134900	-9.514200	28.201587	0.000279	20.818981
2121.596276	-3.000500	3.135400	-9.406900	28.218195	0.000278	20.817209
2122.594111	-2.993800	3.133900	-9.380000	28.212420	0.000278	20.812818
2123.595332	-3.006100	3.133600	-9.418000	28.198266	0.000279	20.804732
2124.624845	-3.014800	3.131900	-9.441000	28.199977	0.000278	20.817835
2125.615773	-2.971000	3.133200	-9.307200	28.155283	0.000276	20.830211
2126.627671	-3.005200	3.131400	-9.408900	28.180097	0.000276	20.809200
2127.601343	-3.006700	3.132300	-9.415900	28.178163	0.000274	20.826693
2128.616750	-3.011600	3.130500	-9.426900	28.153226	0.000274	20.831460
2129.613883	-3.007900	3.130100	-9.413800	28.154094	0.000274	20.827117
2130.625371	-2.998500	3.130900	-9.387200	28.128512	0.000272	20.823175
2131.603550	-3.008700	3.129500	-9.414800	28.123629	0.000271	20.814941
2132.603405	-2.976100	3.128100	-9.308600	28.157317	0.000270	20.824673
2133.626534	-3.025100	3.127400	-9.459400	28.196310	0.000271	20.797547
2134.622049	-2.979500	3.128200	-9.319400	28.215074	0.000270	20.809326
2135.605052	-3.062000	3.125400	-9.567400	28.222634	0.000268	20.807454
2136.631133	-3.014800	3.124900	-9.419700	28.266209	0.000268	20.808652
2137.606921	-2.979700	3.126800	-9.315900	28.201788	0.000268	20.812545
2138.626271	-2.990000	3.125100	-9.342600	28.158012	0.000270	20.796449
2139.623536	-2.985000	3.125300	-9.326700	28.078933	0.000267	20.786067
2140.627192	-3.005500	3.123700	-9.386600	28.023374	0.000268	20.803161
2141.605926	-3.011800	3.124400	-9.409200	27.953881	0.000266	20.795325
2142.604434	-3.009700	3.123000	-9.397900	27.904616	0.000263	20.818286
2143.601305	-2.996200	3.121600	-9.352600	27.906549	0.000263	20.830188
2144.605963	-3.004500	3.120800	-9.375300	27.932831	0.000265	20.815864
2145.608457	-3.004600	3.118600	-9.368500	27.932930	0.000260	20.807429
2146.605924	-3.017300	3.119100	-9.409100	27.923434	0.000262	20.799768
2147.624325	-2.975600	3.120200	-9.282900	27.934739	0.000261	20.793129
2148.610826	-3.018300	3.117100	-9.407900	28.001657	0.000262	20.798370
2149.612186	-3.008500	3.117100	-9.376400	28.055779	0.000259	20.797373
2150.606973	-3.000200	3.116100	-9.347800	28.057464	0.000259	20.791957
2151.607218	-3.013900	3.115700	-9.388300	28.062769	0.000258	20.792081
2152.606423	-2.985200	3.115600	-9.299200	28.083742	0.000258	20.782848
2153.632393	-3.004700	3.114600	-9.356800	28.114778	0.000259	20.797970
2154.626067	-2.994200	3.113600	-9.321900	28.141650	0.000258	20.813168
2155.612430	-2.990800	3.114600	-9.313700	28.169315	0.000255	20.799294
2156.605882	-3.003900	3.112800	-9.348800	28.194599	0.000255	20.778755
2157.609378	-3.010200	3.111400	-9.365800	28.169737	0.000253	20.797347
2158.636220	-2.997500	3.110700	-9.324100	28.177818	0.000254	20.798370
2159.632905	-2.995500	3.110800	-9.317800	28.186196	0.000253	20.790210
2160.612020	-2.989400	3.110800	-9.298400	28.164431	0.000255	20.809076
2161.613898	-2.985400	3.108700	-9.280000	28.186221	0.000252	20.784071
2162.611794	-3.003400	3.108200	-9.334400	28.148418	0.000252	20.797696
2163.610326	-2.999900	3.108100	-9.322100	28.136816	0.000253	20.793129
2164.611181	-2.980200	3.107700	-9.260700	28.154888	0.000251	20.778605
2165.614944	-3.001800	3.105800	-9.321300	28.194574	0.000249	20.783946
2166.610744	-2.990900	3.104800	-9.285500	28.232995	0.000251	20.787540
2167.611089	-2.982000	3.104700	-9.256500	28.278032	0.000249	20.785942
2168.615390	-2.992800	3.104600	-9.290600	28.364854	0.000250	20.772841
2169.625303	-2.985300	3.103300	-9.263000	28.388621	0.000249	20.779229
2170.635183	-2.983200	3.103000	-9.256400	28.442969	0.000248	20.782273
2171.635346	-3.015000	3.100300	-9.346000	28.466412	0.000247	20.769371
2172.613678	-2.973900	3.101100	-9.221100	28.460119	0.000249	20.762558
2173.616594	-3.020100	3.098700	-9.357300	28.497934	0.000246	20.801114
2174.636038	-2.984400	3.099700	-9.249500	28.519692	0.000246	20.793154
2175.635549	-3.010600	3.097700	-9.325100	28.534015	0.000245	20.774862
2176.621936	-2.991300	3.098200	-9.266700	28.491888	0.000245	20.788861
2177.631942	-2.985200	3.097700	-9.245500	28.521328	0.000244	20.785792
2178.635750	-3.014100	3.095300	-9.328600	28.496447	0.000242	20.802936
2179.632474	-2.998600	3.094300	-9.276500	28.526159	0.000241	20.789710
2180.637124	-3.004200	3.093600	-9.293300	28.525168	0.000242	20.782073
2181.639363	-2.999400	3.092900	-9.276100	28.560504	0.000242	20.790159
2182.636023	-3.025800	3.091200	-9.352300	28.552029	0.000242	20.793952
2183.633904	-3.020900	3.091000	-9.336000	28.586025	0.000240	20.782197
2184.638642	-3.014200	3.089500	-9.311400	28.559016	0.000240	20.767323
2185.633833	-3.002300	3.089900	-9.275800	28.542638	0.000241	20.780226
2186.621579	-2.997100	3.089700	-9.258700	28.530024	0.000240	20.783644
2187.620135	-3.002000	3.087500	-9.267000	28.548485	0.000241	20.774261
2188.618696	-3.007700	3.087700	-9.284900	28.599927	0.000240	20.783870
2189.618612	-3.022900	3.086100	-9.326900	28.615636	0.000235	20.793054
2190.619555	-2.980600	3.086200	-9.197600	28.569671	0.000238	20.754346
2191.637570	-3.009300	3.085700	-9.284200	28.481331	0.000237	20.771117
2192.619154	-2.987400	3.084900	-9.215200	28.439746	0.000237	20.766700
2193.621588	-3.030200	3.082800	-9.340400	28.476969	0.000236	20.769570
2194.627969	-2.996000	3.082900	-9.236100	28.475483	0.000238	20.786091
2195.626250	-3.001400	3.083000	-9.252300	28.437913	0.000235	20.759163
2196.623394	-3.001300	3.081400	-9.247500	28.453154	0.000235	20.771192
2197.621536	-3.003500	3.081100	-9.252500	28.460911	0.000237	20.766676
2198.646491	-3.028600	3.078600	-9.322100	28.475606	0.000235	20.762981
2199.623839	-3.013700	3.079600	-9.280000	28.487005	0.000235	20.753598
2200.643630	-3.010600	3.077800	-9.264600	28.482768	0.000234	20.748856
2201.650661	-2.989700	3.077600	-9.199800	28.483265	0.000234	20.794876
2202.664691	-2.986800	3.075200	-9.184500	28.479770	0.000233	20.779029
2203.623202	-3.022300	3.074000	-9.289600	28.489980	0.000235	20.742842
2204.624777	-2.991200	3.075000	-9.197200	28.433155	0.000231	20.768123
2205.625807	-2.991600	3.074900	-9.198400	28.449141	0.000231	20.764780
2206.622490	-3.004200	3.073100	-9.229800	28.453055	0.000232	20.766825
2207.626114	-3.014400	3.070300	-9.254700	28.470230	0.000230	20.758042
2208.624762	-3.006200	3.071000	-9.230900	28.450701	0.000230	20.754972
2209.621758	-2.996400	3.068900	-9.195200	28.358708	0.000232	20.768074
2210.644672	-2.992200	3.068800	-9.181200	28.352983	0.000233	20.777009
2211.647159	-2.981300	3.068100	-9.145800	28.328892	0.000230	20.782623
2212.623015	-3.018800	3.065500	-9.252800	28.309882	0.000229	20.762060
2213.644540	-2.992100	3.067200	-9.175800	28.336873	0.000228	20.774064
2214.630291	-2.990700	3.065500	-9.167500	28.343093	0.000230	20.748558
2215.629478	-2.990900	3.064200	-9.163500	28.307900	0.000228	20.777134
2216.627055	-3.003700	3.062600	-9.197800	28.240110	0.000230	20.764357
2217.627636	-2.997600	3.062700	-9.179600	28.181116	0.000230	20.766603
2218.628201	-2.989500	3.061500	-9.151200	28.144948	0.000227	20.761486
2219.651007	-2.984200	3.062000	-9.136600	28.108978	0.000227	20.757992
2220.642863	-2.993900	3.060200	-9.160300	28.086519	0.000225	20.771893
2221.642894	-3.015300	3.057500	-9.218200	28.088824	0.000226	20.759040
2222.627951	-2.994400	3.057200	-9.153300	28.111829	0.000226	20.776983
2223.648987	-2.986700	3.056600	-9.127900	28.150525	0.000225	20.774213
2224.651014	-2.998600	3.055400	-9.161900	28.197202	0.000225	20.771893
2225.650992	-3.006700	3.054800	-9.183000	28.197846	0.000225	20.762109
2226.632653	-2.977200	3.054400	-9.093100	28.157244	0.000224	20.762484
2227.645370	-3.012000	3.052900	-9.193900	28.099533	0.000225	20.759863
2228.650609	-3.001500	3.051300	-9.157800	28.057513	0.000226	20.760238
2229.628903	-3.012200	3.049800	-9.185100	28.014796	0.000225	20.765602
2230.648305	-2.994500	3.049100	-9.128700	27.992062	0.000225	20.780177
2231.650796	-2.996100	3.049900	-9.136800	27.996450	0.000223	20.764679
2232.646436	-2.987100	3.048600	-9.105400	28.005474	0.000223	20.777082
2233.649372	-3.007200	3.045800	-9.158500	28.020771	0.000224	20.767823
2234.647412	-3.026900	3.044300	-9.213000	28.044124	0.000223	20.765726
2235.655095	-3.030000	3.043900	-9.221400	28.025035	0.000225	20.760736
2236.660299	-3.004700	3.042200	-9.139600	28.020993	0.000223	20.787014
2237.656384	-2.986400	3.042900	-9.085900	28.036836	0.000222	20.776882
2238.668360	-3.016200	3.041400	-9.171400	28.050867	0.000222	20.755919
2239.652911	-2.992200	3.041000	-9.097500	28.088376	0.000222	20.749105
2240.630423	-3.020500	3.037600	-9.174000	28.089492	0.000221	20.781998
2241.627354	-3.006300	3.037700	-9.131200	28.116415	0.000221	20.774013
2242.634773	-3.025200	3.035700	-9.182400	28.139592	0.000222	20.777906
2243.628170	-2.999600	3.036100	-9.105500	28.148269	0.000219	20.778580
2244.633665	-3.024000	3.034400	-9.174800	28.127346	0.000220	20.765577
2245.631635	-3.012600	3.033600	-9.137700	28.125686	0.000221	20.767225
2246.630470	-3.004100	3.031700	-9.105700	28.141081	0.000220	20.744790
2247.635399	-2.994300	3.030700	-9.074000	28.186890	0.000221	20.751079
2248.634492	-2.998000	3.030700	-9.085100	28.190683	0.000220	20.773864
2249.642717	-2.993800	3.028100	-9.064100	28.203746	0.000220	20.766627
2250.648343	-2.976000	3.028300	-9.011500	28.238226	0.000221	20.763409
2251.656783	-3.009600	3.026900	-9.108600	28.282843	0.000220	20.767552
2252.668457	-2.982600	3.025900	-9.023300	28.321979	0.000219	20.772818
2253.662737	-3.005400	3.025500	-9.091700	28.337643	0.000221	20.775788
2254.671498	-3.011800	3.023400	-9.104500	28.327457	0.000219	20.772170
2255.657944	-3.018900	3.021400	-9.119300	28.292486	0.000219	20.766830
2256.638506	-3.012300	3.021400	-9.100100	28.262618	0.000219	20.777536
2257.639521	-2.975500	3.022300	-8.991800	28.229430	0.000218	20.786795
2258.666238	-3.011700	3.017700	-9.087400	28.202709	0.000218	20.791662
2259.657382	-3.007100	3.018100	-9.075500	28.179533	0.000220	20.784924
2260.655557	-2.973000	3.017500	-8.969900	28.210840	0.000219	20.782303
2261.633787	-2.984100	3.016400	-8.999500	28.255581	0.000216	20.790839
2262.635849	-2.996700	3.014300	-9.032800	28.290258	0.000218	20.792088
2263.678283	-2.996400	3.013000	-9.026300	28.285845	0.000216	20.800447
2264.639833	-2.979300	3.011300	-8.970100	28.273031	0.000220	20.793709
2265.642182	-3.005100	3.010800	-9.047000	28.320075	0.000218	20.801721
2266.641227	-3.000900	3.010400	-9.032700	28.349444	0.000219	20.784825
2267.664182	-2.992800	3.008000	-9.001500	28.414031	0.000219	20.801023
2268.678028	-2.990700	3.006300	-8.989600	28.458615	0.000217	20.783804
2269.668469	-3.003500	3.005300	-9.023800	28.485775	0.000216	20.790766
2270.642258	-2.987700	3.006500	-8.981400	28.515834	0.000214	20.800175
2271.661417	-2.994500	3.003100	-8.990600	28.520393	0.000215	20.794335
2272.659388	-3.013700	3.001600	-9.045400	28.563040	0.000214	20.799825
2273.663974	-3.011400	3.001900	-9.038900	28.557639	0.000216	20.790592
2274.663001	-3.015700	2.998100	-9.039500	28.564379	0.000216	20.786475
2275.656653	-3.006600	2.998000	-9.012700	28.596221	0.000212	20.777766
2276.660454	-2.989200	2.997200	-8.957900	28.576967	0.000217	20.780660
2277.656533	-2.998900	2.995400	-8.980900	28.552980	0.000214	20.805815
2278.658178	-3.022700	2.994300	-9.049500	28.485009	0.000213	20.779089
2279.645195	-3.018300	2.992800	-9.032600	28.466052	0.000216	20.796034
2280.641078	-3.007800	2.991000	-8.995100	28.504536	0.000216	20.814401
2281.645268	-3.040100	2.988500	-9.084100	28.536701	0.000217	20.802222
2282.643423	-3.035200	2.989000	-9.071200	28.577513	0.000214	20.808711
2283.645680	-2.992100	2.988200	-8.939700	28.620480	0.000214	20.822114
2284.641887	-2.993900	2.987000	-8.941600	28.652815	0.000213	20.804894
2285.649518	-2.989300	2.984300	-8.920000	28.657448	0.000215	20.790595
2286.659472	-2.978000	2.984100	-8.886100	28.663395	0.000215	20.816025
2287.657310	-3.001500	2.983400	-8.953900	28.678211	0.000215	20.807240
2288.662414	-2.977300	2.981000	-8.873100	28.692161	0.000217	20.799480
2289.665959	-3.001400	2.979700	-8.942700	28.698033	0.000215	20.819619
2290.647279	-2.971300	2.977900	-8.847300	28.734504	0.000213	20.784283
2291.655077	-3.023600	2.976300	-8.997500	28.780757	0.000215	20.815701
2292.676691	-2.994800	2.974500	-8.907300	28.803278	0.000214	20.799032
2293.641926	-2.994700	2.974700	-8.907300	28.829042	0.000215	20.799381
2294.645357	-3.013800	2.971800	-8.955600	28.854508	0.000214	20.820293
2295.646394	-2.988400	2.971200	-8.878200	28.876036	0.000212	20.811161
2296.671445	-2.981900	2.971800	-8.860800	28.895506	0.000213	20.807067
2297.653320	-2.996900	2.968800	-8.896500	28.937468	0.000213	20.815203
2298.647823	-3.008900	2.966700	-8.925600	28.953347	0.000214	20.807967
2299.650551	-3.011900	2.965400	-8.930100	28.952331	0.000213	20.812633
2300.647514	-2.987800	2.964000	-8.854500	28.968704	0.000212	20.816800
2301.649241	-3.030100	2.961400	-8.971500	28.981510	0.000213	20.825435
2302.643312	-2.991700	2.960000	-8.853800	29.024732	0.000211	20.822515
2303.665916	-3.006900	2.958400	-8.894300	29.043506	0.000214	20.831948
2304.648755	-3.015600	2.958300	-8.919900	28.993648	0.000214	20.822965
2305.670219	-2.988400	2.955300	-8.829600	28.956444	0.000216	20.828156
2306.670515	-2.981300	2.954900	-8.808000	28.965139	0.000212	20.823165
2307.666374	-2.994700	2.952400	-8.840700	28.992856	0.000213	20.828805
2308.664186	-2.999300	2.952500	-8.854900	28.998032	0.000212	20.838288
2309.674251	-3.003300	2.950600	-8.860400	28.950128	0.000210	20.818000
2310.646561	-2.988900	2.949000	-8.813000	28.877871	0.000213	20.824863
2311.679418	-2.999600	2.946900	-8.837600	28.825527	0.000213	20.807220
2312.676323	-2.994500	2.944900	-8.817100	28.796543	0.000214	20.809317
2313.648828	-2.994200	2.943700	-8.812800	28.782075	0.000213	20.821295
2314.645847	-3.030100	2.940200	-8.908100	28.816038	0.000213	20.829903
2315.648208	-2.995700	2.941700	-8.811700	28.819978	0.000213	20.811587
2316.658429	-3.015900	2.939600	-8.864000	28.808061	0.000213	20.837515
2317.651667	-3.021200	2.937100	-8.872800	28.818615	0.000212	20.828706
2318.649247	-3.014000	2.936700	-8.849900	28.763593	0.000214	20.824489
2319.646283	-2.991000	2.935500	-8.778300	28.721376	0.000212	20.837441
2320.646900	-3.013400	2.933300	-8.837800	28.723506	0.000213	20.829629
2321.649573	-3.015000	2.930700	-8.835800	28.761908	0.000212	20.838913
2322.651811	-3.002400	2.929300	-8.793300	28.741939	0.000213	20.836342
2323.651816	-3.017400	2.927600	-8.832600	28.721599	0.000214	20.835768
2324.683291	-2.996000	2.925500	-8.764300	28.769811	0.000213	20.832649
2325.653190	-2.997900	2.925200	-8.768500	28.826494	0.000214	20.823367
2326.649002	-3.010200	2.923400	-8.799300	28.889961	0.000211	20.841783
2327.682554	-2.996600	2.921500	-8.753400	28.923079	0.000209	20.823940
2328.675775	-3.017000	2.918100	-8.801900	28.918819	0.000211	20.853785
2329.673713	-2.994700	2.918400	-8.739000	28.902744	0.000211	20.843282
2330.652918	-2.999700	2.916500	-8.747500	28.852804	0.000212	20.825688
2331.653218	-3.006600	2.914800	-8.762500	28.854662	0.000212	20.832776
2332.692808	-2.981400	2.912000	-8.681300	28.844109	0.000210	20.832102
2333.697712	-3.000800	2.912600	-8.738900	28.830335	0.000210	20.843831
2334.678815	-2.989000	2.909000	-8.693700	28.906634	0.000211	20.828234
2335.654825	-2.990300	2.908300	-8.696400	28.954022	0.000211	20.841362
2336.655043	-3.038500	2.905200	-8.825600	28.953502	0.000212	20.844157
2337.653571	-3.013100	2.904100	-8.749700	28.991029	0.000211	20.856361
2338.655999	-3.007600	2.902300	-8.727700	28.959820	0.000209	20.857160
2339.657191	-3.012500	2.901500	-8.739900	28.907925	0.000211	20.846130
2340.657980	-3.016000	2.899100	-8.742600	28.855583	0.000211	20.837022
2341.657741	-2.996500	2.896800	-8.679300	28.869779	0.000211	20.833305
2342.681703	-2.983400	2.896300	-8.640000	28.886872	0.000211	20.869490
2343.687440	-2.992400	2.893800	-8.658300	28.921080	0.000210	20.848004
2344.653973	-2.971300	2.893400	-8.596100	28.874485	0.000209	20.857012
2345.656680	-3.009900	2.887700	-8.690000	28.848551	0.000210	20.842740
2346.686118	-3.017900	2.885900	-8.707900	28.796205	0.000211	20.854020
2347.653228	-3.022200	2.885900	-8.721200	28.800317	0.000212	20.856739
2348.679971	-3.002300	2.884900	-8.660900	28.823903	0.000212	20.858213
2349.655673	-3.017100	2.881400	-8.692500	28.820113	0.000211	20.846336
2350.675860	-2.989500	2.880200	-8.609700	28.850039	0.000210	20.853248
2351.659335	-3.062900	2.877200	-8.810800	28.892919	0.000212	20.858513
2352.670006	-3.024300	2.873800	-8.690300	28.899533	0.000209	20.865176
2353.682650	-3.001100	2.875200	-8.627500	28.842980	0.000210	20.863680
2354.684793	-3.008500	2.872400	-8.640700	28.813376	0.000210	20.863730
2355.671971	-2.997000	2.870900	-8.603100	28.839736	0.000209	20.862783
2356.672610	-2.994500	2.868900	-8.589200	28.835004	0.000210	20.857542
2357.661611	-3.002100	2.865800	-8.602900	28.770073	0.000209	20.861361
2358.658399	-3.027500	2.863700	-8.668000	28.677289	0.000211	20.879328
2359.664659	-3.013000	2.862600	-8.624200	28.690594	0.000210	20.862859
2360.661508	-3.012200	2.860900	-8.616000	28.701917	0.000209	20.857668
2361.660303	-2.986300	2.859600	-8.537200	28.727709	0.000211	20.876060
2362.660532	-2.996800	2.857600	-8.562600	28.700975	0.000211	20.858143
2363.657927	-3.014100	2.854000	-8.601200	28.676299	0.000210	20.858892
2364.657910	-2.989100	2.853300	-8.527900	28.659253	0.000210	20.871120
2365.660017	-3.004600	2.849400	-8.560200	28.723622	0.000209	20.869099
2366.662994	-3.005000	2.848600	-8.559300	28.765069	0.000211	20.894725
2367.682446	-3.005600	2.846000	-8.552600	28.817095	0.000210	20.867950
2368.680124	-3.005400	2.845400	-8.550000	28.871076	0.000208	20.879654
2369.670791	-3.023200	2.841000	-8.587900	28.933401	0.000209	20.881751
2370.662395	-2.993100	2.839300	-8.497500	28.952251	0.000207	20.877509
2371.661239	-3.023800	2.838100	-8.581500	28.969541	0.000209	20.875487
2372.679633	-3.001400	2.835500	-8.509000	28.951186	0.000210	20.866005
2373.685131	-2.981000	2.833100	-8.444300	28.946233	0.000207	20.892307
2374.690063	-2.989200	2.832400	-8.465400	28.989159	0.000210	20.869175
2375.683671	-2.996700	2.828400	-8.474900	28.968823	0.000211	20.905582
2376.663385	-3.011100	2.827200	-8.511200	28.949378	0.000209	20.876511
2377.659660	-2.997700	2.824500	-8.465800	28.937760	0.000209	20.862910
2378.667389	-2.994300	2.822000	-8.449100	28.920372	0.000209	20.880479
2379.662642	-2.985400	2.818800	-8.413800	28.968548	0.000210	20.897720
2380.686086	-3.002400	2.818200	-8.460500	28.998571	0.000209	20.888140
2381.694279	-2.989700	2.814400	-8.413000	29.013258	0.000209	20.883023
2382.682335	-3.016700	2.812400	-8.482100	29.058288	0.000209	20.874340
2383.686010	-3.019400	2.810700	-8.485100	29.085754	0.000210	20.876411
2384.686818	-3.009000	2.808400	-8.449400	29.168274	0.000209	20.885119
2385.681034	-3.011100	2.805600	-8.446100	29.168176	0.000207	20.881227
2386.665063	-3.000500	2.804100	-8.413000	29.115746	0.000210	20.906155
2387.667724	-3.011100	2.799700	-8.429300	29.074014	0.000212	20.890185
2388.664443	-2.974800	2.800900	-8.330600	29.078373	0.000211	20.882249
2389.665284	-2.977100	2.798200	-8.329800	29.080404	0.000210	20.906579
2390.664362	-2.965300	2.795200	-8.286800	29.066386	0.000210	20.866853
2391.662154	-3.001600	2.791300	-8.376100	29.004391	0.000210	20.901589
2392.663194	-3.015600	2.787300	-8.404800	28.985764	0.000210	20.891831
2393.690640	-3.006200	2.785900	-8.374400	28.976006	0.000209	20.891484
2394.691004	-3.014400	2.782300	-8.385400	28.985865	0.000209	20.882924
2395.662019	-3.016200	2.781400	-8.387900	29.077631	0.000210	20.892881
2396.660758	-2.989700	2.776800	-8.301000	29.141975	0.000210	20.892757
2397.684350	-2.999600	2.773300	-8.318000	29.218079	0.000211	20.901167
2398.690066	-2.987300	2.770800	-8.276200	29.249330	0.000209	20.891410
2399.694321	-2.966200	2.768900	-8.212500	29.274811	0.000211	20.898122
2400.663882	-2.990500	2.766400	-8.272500	29.279640	0.000212	20.884498
2401.665534	-2.997700	2.763700	-8.284100	29.259014	0.000210	20.896427
2402.665925	-3.011300	2.760600	-8.310600	29.245394	0.000209	20.919684
2403.670452	-3.013200	2.756100	-8.303600	29.256043	0.000212	20.914769
2404.669319	-3.003500	2.754000	-8.270700	29.269242	0.000210	20.888243
2405.665615	-3.004200	2.750500	-8.261800	29.260055	0.000209	20.912174
2406.670733	-3.003400	2.748100	-8.252500	29.311835	0.000207	20.902718
2407.696962	-2.987500	2.747200	-8.205600	29.316490	0.000210	20.904565
2408.672512	-3.001700	2.742400	-8.231500	29.296977	0.000212	20.898176
2409.692085	-3.008000	2.738900	-8.237300	29.306461	0.000207	20.882131
2410.689185	-2.989600	2.735400	-8.177400	29.342910	0.000209	20.911277
2411.668148	-2.979800	2.733100	-8.143200	29.372599	0.000210	20.924602
2412.689095	-3.002900	2.729700	-8.195600	29.373440	0.000208	20.930665
2413.672616	-3.009500	2.727200	-8.205300	29.344199	0.000210	20.944814
2414.688990	-3.021500	2.721800	-8.223000	29.296434	0.000207	20.904741
2415.691924	-3.003400	2.719600	-8.165900	29.208773	0.000209	20.932089
2416.671320	-3.004400	2.716100	-8.158900	29.134775	0.000210	20.913001
2417.692503	-2.994600	2.714000	-8.126900	29.076870	0.000208	20.895907
2418.674897	-2.998900	2.708900	-8.123000	29.095744	0.000208	20.936731
2419.700774	-3.012400	2.705900	-8.150200	29.108696	0.000207	20.906163
2420.672535	-3.011000	2.702400	-8.135400	29.131110	0.000209	20.922583
2421.678988	-3.037000	2.695900	-8.186600	29.147035	0.000207	20.918241
2422.669490	-3.022400	2.694000	-8.141400	29.156247	0.000207	20.919937
2423.674212	-3.005400	2.692200	-8.088000	29.151442	0.000210	20.919837
2424.671626	-3.031800	2.685500	-8.141100	29.197753	0.000208	20.911978
2425.696540	-2.995200	2.684600	-8.040400	29.271648	0.000207	20.930493
2426.697414	-2.983000	2.680900	-7.996200	29.322905	0.000209	20.915771
2427.699817	-3.000200	2.676100	-8.028100	29.299951	0.000209	20.937205
2428.675889	-2.984800	2.672400	-7.975400	29.264120	0.000209	20.918166
2429.697722	-3.014500	2.667400	-8.039400	29.192453	0.000209	20.902845
2430.681633	-3.019800	2.663400	-8.042200	29.207906	0.000208	20.916045
2431.678782	-3.019500	2.659300	-8.028200	29.240669	0.000208	20.915871
2432.674026	-3.010200	2.655700	-7.992900	29.203375	0.000206	20.921435
2433.677543	-3.015400	2.651100	-7.993300	29.223087	0.000208	20.901472
2434.672296	-2.989500	2.648100	-7.915500	29.273034	0.000209	20.912926
2435.694613	-3.005600	2.643700	-7.944800	29.269394	0.000208	20.905465
2436.693957	-3.010200	2.638500	-7.941500	29.295270	0.000207	20.906412
2437.676378	-3.004900	2.634900	-7.915000	29.350810	0.000209	20.895533
2438.680742	-3.003600	2.631100	-7.902200	29.421327	0.000207	20.885526
2439.674529	-2.993000	2.625700	-7.857800	29.441555	0.000208	20.903068
2440.708862	-3.037100	2.620800	-7.958400	29.468616	0.000209	20.889095
2441.699530	-2.997100	2.616700	-7.842100	29.479286	0.000208	20.869980
2442.701126	-3.000400	2.611800	-7.835500	29.524691	0.000208	20.896306
2443.711558	-2.990000	2.607200	-7.793800	29.576381	0.000208	20.880136
2444.676505	-3.020900	2.602800	-7.862200	29.581159	0.000207	20.883056
2445.705048	-2.999800	2.597600	-7.791900	29.546204	0.000210	20.879587
2446.677246	-2.984100	2.591900	-7.733200	29.508450	0.000208	20.902693
2447.697466	-3.007400	2.586000	-7.776200	29.482132	0.000208	20.878538
2448.704273	-3.018400	2.580200	-7.787200	29.455641	0.000209	20.878862
2449.678742	-3.000600	2.574600	-7.724600	29.476289	0.000209	20.879286
2450.677480	-3.000600	2.569100	-7.708000	29.526374	0.000211	20.900847
2451.682011	-3.001200	2.563900	-7.693500	29.536598	0.000210	20.866585
2452.680991	-2.970500	2.558900	-7.600400	29.565439	0.000210	20.900398
2453.682070	-3.036500	2.550100	-7.741900	29.571950	0.000210	20.885151
2454.683106	-3.013300	2.545500	-7.669400	29.490179	0.000211	20.875744
2455.699010	-2.972800	2.540500	-7.551300	29.473195	0.000211	20.854832
2456.696909	-2.991100	2.536100	-7.584100	29.498275	0.000208	20.874895
2457.697742	-3.019500	2.527800	-7.630700	29.523551	0.000210	20.880460
2458.707953	-2.984500	2.522100	-7.526000	29.527116	0.000208	20.869829
2459.705775	-3.010800	2.514100	-7.568700	29.503103	0.000210	20.876443
2460.704756	-2.960700	2.509700	-7.429400	29.498374	0.000209	20.873573
2461.720689	-2.989500	2.504000	-7.484900	29.524543	0.000212	20.876718
2462.709544	-2.954600	2.497500	-7.378400	29.538704	0.000208	20.896207
