LabVIEW Measurement	
Writer_Version	2
Reader_Version	2
Separator	Tab
Decimal_Separator	.
Multi_Headings	No
X_Columns	One
Time_Pref	Absolute
Operator	admin
Description	Clolumns are: time, Current, Voltage, Power, Battery Temp, and Chamber Temp
Date	2024/08/16
Time	13:06:06.104549407958984375
***End_of_Header***	
	
Channels	6						
Samples	1	1	1	1	1	1	
Date	2024/09/09	2024/09/09	2024/09/09	2024/09/09	2024/09/09	2024/09/09	
Time	11:38:06.6892414093017578125	11:38:06.7003421783447265625	11:38:06.7062273025512695313	11:38:06.670948028564453125	11:38:06.670948028564453125	11:38:06.670948028564453125	
X_Dimension	Time	Time	Time	Time	Time	Time	
X0	0.0000000000000000E+0	0.0000000000000000E+0	0.0000000000000000E+0	0.0000000000000000E+0	0.0000000000000000E+0	0.0000000000000000E+0	
Delta_X	1.000000	1.000000	1.000000	1.000000	1.000000	1.000000	
***End_of_Header***							
X_Value	Untitled	Untitled 1	Untitled 2	Untitled 3	Untitled 4	Untitled 5	Comment
0.000000	0.013162	4.096700	0.053868	21.003445	0.000914	20.805267
1.000466	-2.985700	3.923400	-11.713000	20.999818	0.000912	20.764655
1.999935	-3.008400	3.915000	-11.777000	20.997041	0.000912	20.773257
3.001072	-3.002700	3.910400	-11.741000	21.014729	0.000910	20.801380
3.999518	-3.025700	3.906200	-11.818000	21.014494	0.000910	20.802568
4.998264	-3.002900	3.903400	-11.720000	21.002137	0.000909	20.784993
6.002063	-3.025500	3.901200	-11.801000	21.018551	0.000908	20.790504
6.999115	-2.995100	3.899700	-11.678000	21.006465	0.000907	20.798330
8.001721	-3.003700	3.896100	-11.702000	21.016371	0.000907	20.790694
8.999723	-3.004000	3.893600	-11.695000	21.028732	0.000906	20.800213
9.999230	-3.013900	3.891400	-11.728000	21.007221	0.000902	20.790077
11.001901	-2.990500	3.889800	-11.630000	21.006192	0.000904	20.803747
12.004976	-3.006000	3.888400	-11.687000	21.023350	0.000902	20.802417
13.008441	-2.984900	3.888600	-11.605000	21.022704	0.000902	20.793236
14.005345	-3.002800	3.886100	-11.667000	21.048684	0.000902	20.825384
15.008174	-3.000800	3.884600	-11.655000	21.065922	0.000901	20.787151
16.002021	-2.995500	3.884800	-11.635000	21.026994	0.000900	20.818389
17.004739	-2.985500	3.882200	-11.588000	21.040107	0.000898	20.806374
18.003045	-3.006200	3.881900	-11.667000	21.055122	0.000899	20.818548
19.007655	-3.016100	3.879500	-11.700000	21.051477	0.000900	20.793092
20.005130	-2.993900	3.879800	-11.614000	21.067170	0.000899	20.812107
21.006958	-2.980200	3.879600	-11.561000	21.070802	0.000896	20.813843
22.011591	-3.008500	3.877200	-11.664000	21.090803	0.000897	20.805874
23.008190	-3.017400	3.875700	-11.693000	21.091924	0.000896	20.813159
24.007195	-3.001900	3.875400	-11.631000	21.094743	0.000897	20.819772
25.007472	-3.015500	3.875500	-11.685000	21.084936	0.000896	20.835092
26.007002	-2.987600	3.876000	-11.579000	21.117687	0.000896	20.794359
27.006556	-2.986200	3.876400	-11.575000	21.112670	0.000894	20.802616
28.010044	-2.988000	3.874100	-11.575000	21.124446	0.000894	20.817241
29.006374	-2.992900	3.872100	-11.587000	21.121177	0.000893	20.823928
30.006964	-3.003200	3.872900	-11.631000	21.127881	0.000895	20.820676
31.006804	-3.006900	3.873400	-11.645000	21.143727	0.000891	20.829888
32.009950	-2.999400	3.871600	-11.612000	21.149039	0.000891	20.830461
33.010483	-2.990300	3.871700	-11.576000	21.129623	0.000893	20.824789
34.013733	-3.016400	3.869200	-11.670000	21.167741	0.000889	20.843478
35.007870	-3.021500	3.869300	-11.690000	21.189717	0.000890	20.818995
36.008776	-3.001400	3.868300	-11.609000	21.162453	0.000889	20.820171
37.008053	-3.011500	3.869600	-11.652000	21.169883	0.000890	20.851310
38.009358	-2.976000	3.869000	-11.513000	21.177910	0.000890	20.810029
39.009755	-3.007800	3.867600	-11.631000	21.190363	0.000891	20.837184
40.008566	-2.993100	3.867400	-11.575000	21.204952	0.000888	20.838502
41.008757	-3.004000	3.866800	-11.615000	21.223609	0.000888	20.827295
42.008820	-2.998800	3.866800	-11.595000	21.222053	0.000892	20.814358
43.010756	-2.993200	3.866800	-11.573000	21.219048	0.000890	20.827474
44.010174	-2.979700	3.866000	-11.519000	21.242877	0.000889	20.826181
45.011289	-3.011000	3.864300	-11.632000	21.239257	0.000889	20.839629
46.008498	-3.009400	3.863700	-11.626000	21.255249	0.000888	20.841877
47.010989	-3.007700	3.863400	-11.619000	21.255624	0.000889	20.827554
48.009920	-3.002700	3.863200	-11.599000	21.261583	0.000888	20.835885
49.011212	-2.997500	3.863400	-11.580000	21.249358	0.000888	20.832190
50.008971	-3.020900	3.861900	-11.665000	21.279488	0.000889	20.818237
51.014238	-2.981800	3.863100	-11.518000	21.291442	0.000890	20.842997
52.010286	-2.990700	3.862500	-11.551000	21.285410	0.000890	20.852135
53.011359	-2.992300	3.861100	-11.553000	21.297881	0.000891	20.843749
54.017267	-2.993800	3.861600	-11.559000	21.320230	0.000889	20.846193
55.013509	-2.997300	3.861600	-11.571000	21.303993	0.000889	20.845122
56.015029	-3.008600	3.860500	-11.614000	21.312868	0.000889	20.843096
57.016700	-2.977100	3.860300	-11.491000	21.293485	0.000890	20.834610
58.015385	-2.991700	3.859600	-11.546000	21.311415	0.000889	20.834530
59.015691	-2.985500	3.860500	-11.524000	21.324113	0.000888	20.853397
60.016409	-2.982100	3.859900	-11.510000	21.345212	0.000891	20.828040
61.013920	-3.016100	3.858700	-11.637000	21.340350	0.000888	20.838348
62.017868	-2.990300	3.857700	-11.535000	21.337001	0.000891	20.834998
63.015375	-3.002000	3.858500	-11.581000	21.360617	0.000891	20.851512
64.019849	-2.988000	3.857800	-11.525000	21.363190	0.000888	20.835121
65.017796	-3.004200	3.858200	-11.589000	21.391773	0.000889	20.855182
66.017789	-2.989700	3.858200	-11.534000	21.389323	0.000889	20.853679
67.022930	-3.024400	3.855300	-11.660000	21.412267	0.000888	20.828273
68.017906	-2.984700	3.857100	-11.510000	21.408076	0.000888	20.854898
69.019623	-2.996900	3.857100	-11.559000	21.397183	0.000887	20.860594
70.025193	-3.010700	3.857000	-11.612000	21.418231	0.000888	20.866481
71.019158	-3.025200	3.855100	-11.661000	21.443840	0.000887	20.842318
72.021067	-3.011600	3.855100	-11.609000	21.433617	0.000889	20.851056
73.021028	-2.989100	3.855400	-11.524000	21.464765	0.000888	20.844763
74.019739	-2.999600	3.855300	-11.562000	21.447975	0.000888	20.861628
75.019949	-3.015400	3.853800	-11.619000	21.466186	0.000887	20.852823
76.024343	-2.973100	3.855100	-11.460000	21.488655	0.000887	20.844486
77.019826	-2.995200	3.854900	-11.544000	21.472716	0.000887	20.849399
78.020329	-3.012900	3.853700	-11.609000	21.471319	0.000888	20.857958
79.019221	-3.004600	3.852000	-11.573000	21.494089	0.000887	20.858931
80.021626	-2.990300	3.854000	-11.521000	21.503935	0.000887	20.836068
81.025964	-2.999400	3.854400	-11.560000	21.491959	0.000887	20.856800
82.020589	-3.018400	3.852400	-11.628000	21.514360	0.000888	20.890592
83.021991	-3.014000	3.853000	-11.612000	21.524133	0.000888	20.832096
84.020305	-3.000300	3.852800	-11.558000	21.545290	0.000887	20.885507
85.021555	-2.983400	3.851700	-11.491000	21.547751	0.000888	20.854307
86.021631	-2.985400	3.852700	-11.500000	21.542988	0.000890	20.859023
87.020997	-2.978600	3.851000	-11.470000	21.574557	0.000890	20.845569
88.023999	-2.995600	3.851100	-11.535000	21.594483	0.000889	20.858869
89.028791	-3.003600	3.852200	-11.570000	21.570791	0.000889	20.878308
90.021776	-2.991600	3.851300	-11.520000	21.555450	0.000888	20.887138
91.021780	-2.990300	3.850300	-11.513000	21.593609	0.000890	20.866055
92.022157	-3.006400	3.850600	-11.574000	21.595479	0.000889	20.881202
93.023300	-3.003800	3.850200	-11.564000	21.598544	0.000889	20.881898
94.026779	-3.012400	3.849900	-11.596000	21.607768	0.000890	20.867896
95.020998	-2.993300	3.849700	-11.523000	21.626443	0.000890	20.891324
96.023984	-2.969100	3.850200	-11.430000	21.645168	0.000888	20.881614
97.026087	-3.000400	3.849600	-11.550000	21.648958	0.000891	20.872132
98.023634	-3.006100	3.849600	-11.571000	21.648404	0.000889	20.884379
99.023669	-3.011900	3.849500	-11.593000	21.656982	0.000890	20.889169
100.024910	-3.021200	3.847100	-11.621000	21.664914	0.000892	20.865340
101.024781	-3.007800	3.847700	-11.573000	21.689643	0.000889	20.866380
102.025962	-2.972000	3.849200	-11.437000	21.681638	0.000891	20.898195
103.028313	-3.000300	3.846800	-11.540000	21.694701	0.000889	20.871916
104.026366	-3.009400	3.846900	-11.575000	21.698066	0.000890	20.871965
105.027683	-3.028200	3.844900	-11.642000	21.686646	0.000890	20.875709
106.028098	-2.984400	3.848300	-11.485000	21.680284	0.000891	20.870290
107.026153	-3.003700	3.845600	-11.550000	21.715639	0.000891	20.877697
108.031190	-2.981500	3.847400	-11.471000	21.716236	0.000892	20.874501
109.028627	-2.996500	3.847100	-11.527000	21.729649	0.000893	20.861848
110.028384	-2.993200	3.846100	-11.511000	21.721613	0.000890	20.849064
111.028159	-2.989700	3.846900	-11.500000	21.725052	0.000892	20.841127
112.029648	-3.020700	3.844500	-11.610000	21.750839	0.000889	20.853658
113.030319	-3.003900	3.846900	-11.554000	21.735346	0.000892	20.875609
114.029450	-3.013100	3.845100	-11.584000	21.761508	0.000893	20.874766
115.029623	-3.000400	3.844600	-11.533000	21.778507	0.000893	20.854323
116.029632	-2.995300	3.845300	-11.516000	21.770983	0.000893	20.860542
117.030981	-3.017900	3.843200	-11.597000	21.781276	0.000893	20.859464
118.031612	-3.015600	3.843700	-11.591000	21.777886	0.000894	20.857968
119.033019	-2.996000	3.844300	-11.516000	21.785213	0.000893	20.860560
120.034432	-3.008700	3.842500	-11.560000	21.783571	0.000894	20.865554
121.034410	-2.979400	3.843900	-11.450000	21.788930	0.000892	20.855745
122.033703	-2.976500	3.845300	-11.445000	21.792123	0.000893	20.874587
123.033265	-2.996700	3.842300	-11.513000	21.817379	0.000895	20.864778
124.041224	-3.007400	3.843600	-11.559000	21.810223	0.000894	20.870892
125.033445	-3.002100	3.841900	-11.531000	21.816677	0.000894	20.882093
126.036560	-3.021200	3.842100	-11.607000	21.840388	0.000893	20.850351
127.037188	-2.973900	3.842900	-11.426000	21.827752	0.000897	20.846238
128.031113	-2.990500	3.842100	-11.489000	21.835430	0.000894	20.846810
129.036150	-3.000300	3.840900	-11.522000	21.844037	0.000897	20.863959
130.034782	-3.006400	3.842300	-11.550000	21.836205	0.000896	20.864655
131.033151	-2.998800	3.842200	-11.521000	21.844234	0.000896	20.857993
132.034966	-2.990800	3.842800	-11.492000	21.859294	0.000897	20.850308
133.034951	-3.005700	3.840000	-11.541000	21.876822	0.000898	20.829446
134.034160	-2.995300	3.841600	-11.506000	21.857350	0.000898	20.839354
135.035788	-3.012900	3.840400	-11.568000	21.889464	0.000898	20.841626
136.038004	-2.988400	3.841600	-11.479000	21.892528	0.000898	20.837580
137.038662	-3.000000	3.840800	-11.522000	21.887650	0.000898	20.848818
138.035997	-3.009200	3.839600	-11.552000	21.915468	0.000899	20.839206
139.037189	-3.000400	3.838800	-11.517000	21.907994	0.000899	20.812759
140.040559	-2.991800	3.840500	-11.489000	21.890098	0.000900	20.836571
141.037426	-2.994500	3.839300	-11.496000	21.916256	0.000899	20.837150
142.038049	-2.998000	3.839100	-11.508000	21.934127	0.000901	20.826589
143.037373	-2.993800	3.840800	-11.496000	21.947538	0.000904	20.843332
144.038311	-2.980200	3.840400	-11.442000	21.951260	0.000900	20.825247
145.038635	-2.980600	3.839800	-11.443000	21.942475	0.000899	20.843954
146.041196	-3.009000	3.837800	-11.546000	21.936674	0.000899	20.833880
147.039291	-2.982500	3.839200	-11.449000	21.937394	0.000901	20.827963
148.039483	-3.027600	3.836400	-11.615000	21.915063	0.000901	20.833111
149.039197	-3.012700	3.836500	-11.556000	21.949839	0.000901	20.835204
150.043758	-2.984300	3.837200	-11.450000	21.960863	0.000903	20.819687
151.043089	-2.996800	3.837300	-11.499000	21.967291	0.000904	20.824225
152.039757	-2.993700	3.836400	-11.482000	21.983673	0.000905	20.835408
153.038993	-2.994700	3.837900	-11.492000	21.979834	0.000905	20.825875
154.040667	-3.001700	3.836500	-11.514000	21.957800	0.000907	20.823733
155.039295	-3.009700	3.836500	-11.546000	21.958298	0.000905	20.824232
156.042784	-3.047900	3.833600	-11.683000	21.979669	0.000907	20.853209
157.044698	-2.983700	3.836900	-11.446000	21.979767	0.000906	20.813480
158.048354	-2.987900	3.836300	-11.462000	22.002152	0.000906	20.804120
159.044639	-3.002200	3.834600	-11.511000	22.037928	0.000907	20.820020
160.046750	-3.009300	3.835400	-11.539000	22.031217	0.000908	20.812827
161.050215	-2.999000	3.835700	-11.502000	22.049615	0.000909	20.811805
162.044196	-2.997700	3.833000	-11.489000	22.037381	0.000909	20.811411
163.048712	-3.023900	3.832900	-11.589000	22.029298	0.000909	20.821337
164.044936	-2.996200	3.834700	-11.489000	22.061530	0.000910	20.841750
165.048282	-2.978700	3.835400	-11.424000	22.062575	0.000911	20.828098
166.045558	-3.022600	3.833100	-11.585000	22.062772	0.000910	20.808381
167.051831	-3.014600	3.832500	-11.552000	22.080844	0.000912	20.816990
168.045807	-3.007500	3.832600	-11.526000	22.068677	0.000912	20.803387
169.047964	-3.024300	3.831600	-11.586000	22.082314	0.000911	20.828893
170.046223	-3.004300	3.832000	-11.511000	22.089682	0.000912	20.830105
171.048493	-2.974200	3.833200	-11.400000	22.082775	0.000913	20.806595
172.051471	-3.006600	3.832000	-11.520000	22.064556	0.000913	20.819650
173.045787	-2.981200	3.833400	-11.427000	22.097377	0.000914	20.804144
174.049738	-3.004900	3.830600	-11.509000	22.104383	0.000914	20.804046
175.046994	-2.970800	3.833000	-11.386000	22.110214	0.000914	20.810831
176.047003	-2.989300	3.831800	-11.454000	22.099788	0.000914	20.828842
177.048201	-2.999700	3.831100	-11.491000	22.106959	0.000915	20.823694
178.048005	-3.011800	3.829500	-11.531000	22.113369	0.000916	20.829637
179.047083	-2.985300	3.831200	-11.436000	22.127921	0.000915	20.820024
180.048539	-3.030500	3.828700	-11.602000	22.136790	0.000917	20.806145
181.049157	-3.006500	3.830900	-11.516000	22.126125	0.000917	20.815855
182.047453	-3.004500	3.829000	-11.502000	22.140653	0.000916	20.817598
183.053436	-3.008900	3.829200	-11.521000	22.166602	0.000916	20.815129
184.047050	-3.021500	3.829800	-11.571000	22.180926	0.000916	20.799599
185.049972	-2.994300	3.830600	-11.469000	22.180280	0.000918	20.819340
186.047348	-2.992700	3.829500	-11.459000	22.199488	0.000920	20.812967
187.046447	-3.013200	3.828100	-11.534000	22.218339	0.000918	20.823306
188.052536	-2.990500	3.829500	-11.452000	22.199211	0.000920	20.835923
189.046776	-2.989800	3.829100	-11.447000	22.225257	0.000918	20.809371
190.047619	-3.034300	3.828000	-11.614000	22.227250	0.000918	20.822745
191.047923	-3.015900	3.827700	-11.542000	22.222188	0.000920	20.794918
192.049685	-2.998400	3.827600	-11.474000	22.216302	0.000919	20.797086
193.050195	-2.992400	3.826900	-11.450000	22.236690	0.000919	20.802800
194.053539	-3.009000	3.827700	-11.516000	22.237760	0.000920	20.821889
195.048710	-3.023900	3.826400	-11.569000	22.234470	0.000922	20.801051
196.049572	-2.988000	3.828000	-11.437000	22.242348	0.000923	20.812258
197.049769	-2.994100	3.827500	-11.459000	22.231524	0.000922	20.815171
198.049704	-2.996800	3.826400	-11.467000	22.252041	0.000922	20.802997
199.056338	-3.018500	3.826000	-11.548000	22.287101	0.000923	20.795429
200.049549	-2.981800	3.826300	-11.408000	22.277956	0.000925	20.811876
201.052491	-2.992400	3.826200	-11.448000	22.304475	0.000923	20.792436
202.049763	-2.997700	3.826300	-11.468000	22.273098	0.000923	20.815072
203.051538	-3.016100	3.826200	-11.539000	22.276462	0.000921	20.779086
204.051727	-3.020500	3.824300	-11.550000	22.250441	0.000925	20.783852
205.050848	-2.998800	3.826900	-11.474000	22.273965	0.000924	20.802190
206.055098	-2.994600	3.824900	-11.452000	22.251210	0.000924	20.793156
207.052315	-3.002400	3.824800	-11.483000	22.279549	0.000926	20.786444
208.052612	-2.982800	3.824900	-11.408000	22.301350	0.000926	20.791204
209.054818	-2.998900	3.823400	-11.463000	22.303595	0.000928	20.795823
210.054424	-2.985300	3.824600	-11.416000	22.326429	0.000927	20.795453
211.068764	-2.994000	3.825100	-11.451000	22.354065	0.000928	20.801316
212.055248	-3.003200	3.823500	-11.481000	22.359021	0.000928	20.781148
213.056622	-2.994200	3.822900	-11.446000	22.375422	0.000928	20.795201
214.056605	-3.001300	3.823600	-11.474000	22.386841	0.000927	20.800472
215.058678	-2.970100	3.823800	-11.356000	22.391717	0.000930	20.790656
216.054856	-3.005300	3.823100	-11.488000	22.376664	0.000930	20.792177
217.056663	-2.995000	3.822800	-11.448000	22.381749	0.000930	20.790632
218.055288	-3.030500	3.820600	-11.578000	22.397633	0.000931	20.774295
219.058175	-3.013000	3.821700	-11.513000	22.382002	0.000931	20.807005
220.058064	-3.010700	3.821700	-11.505000	22.387665	0.000931	20.784702
221.058563	-2.990100	3.821600	-11.426000	22.397406	0.000933	20.782128
222.054534	-3.010800	3.820300	-11.501000	22.392296	0.000931	20.781278
223.055956	-2.990800	3.820800	-11.426000	22.415773	0.000933	20.791512
224.055283	-2.970900	3.821500	-11.352000	22.428017	0.000933	20.772953
225.056629	-3.008200	3.821200	-11.494000	22.451137	0.000932	20.787097
226.057500	-3.001900	3.821000	-11.469000	22.435217	0.000934	20.783483
227.055671	-3.014300	3.819200	-11.511000	22.454931	0.000934	20.769086
228.058162	-2.988900	3.819500	-11.415000	22.465427	0.000935	20.788606
229.053818	-2.989800	3.819300	-11.417000	22.490422	0.000934	20.778551
230.057818	-2.993600	3.819900	-11.434000	22.452828	0.000937	20.788791
231.059879	-3.010800	3.817800	-11.493000	22.452453	0.000939	20.793631
232.060375	-3.007800	3.820000	-11.488000	22.489789	0.000937	20.772701
233.061857	-3.008600	3.819300	-11.489000	22.475456	0.000937	20.770201
234.057673	-2.999700	3.818800	-11.453000	22.482687	0.000939	20.778391
235.060894	-2.998000	3.816600	-11.441000	22.489095	0.000936	20.763470
236.059799	-2.996200	3.818000	-11.438000	22.498416	0.000939	20.776125
237.058082	-3.016200	3.816800	-11.511000	22.495459	0.000937	20.778379
238.059000	-2.979900	3.819400	-11.380000	22.497297	0.000939	20.765047
239.059925	-2.995900	3.817600	-11.435000	22.508863	0.000941	20.767147
240.062083	-3.011600	3.815800	-11.491000	22.528434	0.000940	20.760669
241.061428	-3.000300	3.817100	-11.452000	22.534042	0.000939	20.791890
242.058786	-2.965900	3.818300	-11.325000	22.525096	0.000941	20.793362
243.061461	-3.009100	3.815900	-11.481000	22.530377	0.000942	20.771150
244.059690	-3.008400	3.816200	-11.479000	22.502420	0.000940	20.759745
245.058186	-3.011100	3.815400	-11.488000	22.511261	0.000941	20.768126
246.061652	-2.993000	3.815600	-11.419000	22.507431	0.000942	20.755755
247.060186	-3.011200	3.815100	-11.486000	22.499259	0.000943	20.771754
248.061945	-3.020600	3.815500	-11.524000	22.501129	0.000944	20.759875
249.060029	-3.016900	3.816000	-11.510000	22.503612	0.000944	20.773742
250.061243	-3.002200	3.814700	-11.451000	22.510019	0.000945	20.765460
251.060956	-3.010100	3.814700	-11.482000	22.528189	0.000946	20.770380
252.063031	-3.005200	3.813800	-11.461000	22.548700	0.000945	20.757732
253.060303	-3.002100	3.814200	-11.450000	22.566911	0.000945	20.769808
254.065110	-3.009100	3.814400	-11.477000	22.589033	0.000945	20.762092
255.062491	-3.001300	3.812400	-11.441000	22.571436	0.000946	20.764382
256.062531	-2.970800	3.813900	-11.329000	22.574406	0.000947	20.769727
257.064204	-2.987900	3.815300	-11.398000	22.585799	0.000947	20.750318
258.062934	-2.999900	3.812900	-11.438000	22.595783	0.000948	20.763637
259.061586	-3.011300	3.813000	-11.481000	22.604575	0.000948	20.767227
260.060857	-3.003600	3.811700	-11.447000	22.607502	0.000949	20.747399
261.062672	-2.992400	3.811700	-11.405000	22.623093	0.000950	20.758274
262.061917	-3.008200	3.812100	-11.467000	22.649800	0.000950	20.748039
263.064579	-3.003000	3.811800	-11.444000	22.626702	0.000950	20.764733
264.061619	-2.991100	3.811600	-11.399000	22.615242	0.000952	20.748513
265.061596	-3.005300	3.813200	-11.458000	22.618009	0.000955	20.758871
266.064513	-3.019300	3.809600	-11.499000	22.609266	0.000952	20.733044
267.064810	-2.985600	3.812500	-11.381000	22.609014	0.000954	20.762190
268.068552	-3.001100	3.810400	-11.435000	22.635647	0.000954	20.747614
269.065629	-2.997300	3.810800	-11.421000	22.650820	0.000955	20.751906
270.065871	-2.999900	3.809400	-11.426000	22.635672	0.000956	20.766605
271.065621	-3.011100	3.809900	-11.470000	22.636268	0.000956	20.749658
272.068517	-3.000300	3.809300	-11.427000	22.638106	0.000955	20.734903
273.066601	-3.028600	3.809400	-11.535000	22.628411	0.000958	20.744633
274.067302	-3.003400	3.809000	-11.439000	22.645902	0.000958	20.749824
275.066694	-2.999400	3.809600	-11.425000	22.667979	0.000958	20.756764
276.067743	-2.991200	3.809200	-11.392000	22.685389	0.000958	20.745754
277.066157	-2.985000	3.809100	-11.368000	22.699092	0.000957	20.758532
278.068925	-2.995400	3.808000	-11.405000	22.710950	0.000959	20.728683
279.073166	-2.995300	3.809100	-11.407000	22.686157	0.000959	20.740833
280.068684	-2.998200	3.807900	-11.417000	22.680354	0.000958	20.738339
281.072018	-3.015500	3.806600	-11.476000	22.674642	0.000960	20.757749
282.069998	-2.958700	3.808900	-11.268000	22.703641	0.000960	20.741276
283.069562	-2.998000	3.807700	-11.415000	22.701077	0.000961	20.759098
284.073498	-2.994300	3.807500	-11.400000	22.732614	0.000962	20.733314
285.070946	-2.997400	3.806800	-11.409000	22.742007	0.000961	20.746043
286.072846	-2.988500	3.806900	-11.375000	22.751720	0.000962	20.725425
287.072031	-2.991800	3.807100	-11.388000	22.754209	0.000962	20.730764
288.072767	-2.978000	3.807500	-11.337000	22.758494	0.000962	20.745962
289.076459	-2.999400	3.806000	-11.415000	22.775153	0.000963	20.733726
290.074779	-3.000400	3.804700	-11.415000	22.800940	0.000964	20.740592
291.074990	-3.000100	3.806000	-11.417000	22.810529	0.000962	20.733129
292.073604	-2.987900	3.806100	-11.371000	22.817573	0.000964	20.729280
293.074532	-2.973300	3.806400	-11.317000	22.830156	0.000964	20.749946
294.072840	-3.007000	3.804300	-11.437000	22.848019	0.000965	20.731330
295.074790	-2.970400	3.805700	-11.303000	22.858954	0.000966	20.739441
296.075067	-2.997800	3.805200	-11.407000	22.866674	0.000968	20.734847
297.081507	-3.017100	3.802000	-11.470000	22.906129	0.000966	20.737864
298.075607	-3.006000	3.802200	-11.429000	22.895366	0.000967	20.743203
299.078039	-2.983400	3.804100	-11.348000	22.872673	0.000967	20.737063
300.082517	-3.010600	3.802500	-11.445000	22.895864	0.000967	20.726632
301.078551	-2.991200	3.803100	-11.376000	22.904408	0.000967	20.724285
302.078583	-3.008100	3.801000	-11.433000	22.906670	0.000968	20.729396
303.077662	-3.002600	3.801700	-11.413000	22.927770	0.000969	20.730148
304.077653	-2.997200	3.802500	-11.395000	22.923634	0.000972	20.741177
305.085264	-3.026400	3.800700	-11.502000	22.929239	0.000971	20.723084
306.078419	-3.006000	3.802700	-11.430000	22.941317	0.000969	20.742772
307.081088	-3.016900	3.799900	-11.463000	22.939995	0.000971	20.734335
308.088432	-2.997500	3.800900	-11.392000	22.935508	0.000972	20.719882
309.087899	-3.002500	3.800400	-11.410000	22.937696	0.000973	20.740567
310.082361	-2.999900	3.800000	-11.398000	22.942908	0.000974	20.715916
311.082912	-2.992000	3.800500	-11.370000	22.920837	0.000975	20.735530
312.082027	-3.001700	3.800100	-11.405000	22.921230	0.000975	20.721698
313.078784	-2.990100	3.799400	-11.360000	22.936799	0.000975	20.726865
314.080204	-2.970000	3.800600	-11.287000	22.935102	0.000975	20.725639
315.081271	-2.998600	3.799500	-11.393000	22.938139	0.000978	20.728682
316.086015	-2.993700	3.799400	-11.373000	22.943474	0.000976	20.747778
317.080506	-2.988400	3.799000	-11.352000	22.928323	0.000976	20.749194
318.084312	-3.008400	3.797700	-11.424000	22.921648	0.000978	20.724488
319.081456	-3.003900	3.798100	-11.407000	22.944260	0.000979	20.749514
320.082956	-3.020000	3.797000	-11.466000	22.911980	0.000980	20.730449
321.086404	-3.007600	3.798200	-11.422000	22.926749	0.000977	20.726280
322.082599	-3.016000	3.797000	-11.451000	22.962588	0.000978	20.720934
323.083528	-2.992700	3.798000	-11.364000	22.950886	0.000980	20.714425
324.081150	-3.009200	3.797200	-11.426000	22.958507	0.000981	20.739606
325.085360	-3.003600	3.795700	-11.399000	22.979225	0.000981	20.719585
326.083090	-3.019400	3.795200	-11.458000	22.993103	0.000982	20.728749
327.084405	-2.988500	3.796700	-11.345000	23.016611	0.000982	20.733337
328.081992	-3.006200	3.795700	-11.409000	23.004633	0.000983	20.718489
329.082040	-3.013400	3.794600	-11.434000	23.024884	0.000982	20.727875
330.083064	-2.989200	3.795900	-11.345000	23.018332	0.000984	20.719887
331.084315	-2.985400	3.796000	-11.330000	23.036714	0.000985	20.729771
332.089989	-3.007600	3.793900	-11.410000	23.025775	0.000984	20.718809
333.084915	-3.011100	3.793600	-11.421000	23.020569	0.000985	20.713119
334.084685	-3.007000	3.795700	-11.412000	23.044003	0.000986	20.722375
335.083343	-3.010900	3.793600	-11.421000	23.049116	0.000986	20.733663
336.084950	-3.019100	3.792800	-11.450000	23.054088	0.000987	20.713513
337.085948	-3.012000	3.791900	-11.420000	23.037796	0.000987	20.724216
338.086304	-2.983100	3.791900	-11.311000	23.020163	0.000987	20.720774
339.083891	-3.013100	3.791600	-11.424000	23.006206	0.000990	20.730497
340.085722	-3.013800	3.793200	-11.431000	23.000306	0.000988	20.743553
341.086206	-2.998800	3.791500	-11.369000	23.012007	0.000987	20.726827
342.086060	-3.002900	3.791800	-11.385000	23.027968	0.000988	20.752777
343.092512	-2.999200	3.790800	-11.369000	23.015682	0.000990	20.730983
344.088241	-2.990800	3.792000	-11.340000	23.040690	0.000989	20.735651
345.092223	-3.004300	3.791500	-11.390000	23.034058	0.000989	20.741335
346.085594	-3.030300	3.789100	-11.481000	23.069525	0.000991	20.757432
347.086941	-2.991300	3.791000	-11.339000	23.076469	0.000991	20.739734
348.088495	-3.009100	3.790900	-11.405000	23.071885	0.000990	20.734666
349.085506	-2.990700	3.789200	-11.331000	23.090530	0.000992	20.719208
350.086135	-3.000400	3.789900	-11.370000	23.094217	0.000992	20.733335
351.085705	-2.994800	3.791100	-11.353000	23.107288	0.000993	20.728889
352.088684	-2.987000	3.790400	-11.321000	23.100983	0.000993	20.740590
353.096793	-2.978200	3.789900	-11.286000	23.124139	0.000993	20.734868
354.091369	-2.985800	3.789400	-11.312000	23.131931	0.000994	20.745522
355.088863	-2.993000	3.787900	-11.336000	23.174043	0.000992	20.721339
356.087870	-2.999600	3.786600	-11.358000	23.180864	0.000993	20.753306
357.088394	-2.962500	3.790200	-11.226000	23.173514	0.000995	20.736931
358.091361	-2.995100	3.787700	-11.343000	23.174461	0.000997	20.750208
359.091218	-2.984700	3.788100	-11.304000	23.188330	0.000996	20.727121
360.090852	-3.039700	3.785700	-11.507000	23.225008	0.000996	20.749654
361.091992	-3.020300	3.786600	-11.434000	23.210888	0.000997	20.748305
362.094942	-3.009700	3.786900	-11.395000	23.231927	0.000998	20.737147
363.090405	-3.010600	3.786500	-11.397000	23.227792	0.000998	20.745331
364.094887	-2.985400	3.787000	-11.305000	23.235405	0.000998	20.755331
365.093425	-2.988700	3.786900	-11.318000	23.244966	0.000998	20.738834
366.094923	-3.011600	3.785900	-11.401000	23.240609	0.001000	20.743951
367.094892	-3.001500	3.785100	-11.360000	23.270035	0.000999	20.740250
368.091953	-2.965000	3.785400	-11.222000	23.264905	0.000999	20.748385
369.091354	-3.004800	3.784500	-11.371000	23.259743	0.001001	20.724245
370.094808	-2.997200	3.784400	-11.342000	23.277820	0.001000	20.731456
371.094547	-3.013700	3.783800	-11.401000	23.276966	0.001003	20.760473
372.096799	-3.009600	3.782700	-11.384000	23.276216	0.001002	20.738384
373.099204	-2.979900	3.784100	-11.275000	23.296241	0.001003	20.757505
374.095725	-3.007000	3.783000	-11.374000	23.292419	0.001002	20.749881
375.098715	-2.977900	3.783400	-11.266000	23.271995	0.001003	20.745533
376.094714	-2.989000	3.783600	-11.309000	23.273592	0.001004	20.748083
377.099124	-2.986600	3.782000	-11.294000	23.223176	0.001002	20.744973
378.093566	-2.993300	3.781100	-11.317000	23.247054	0.001004	20.757523
379.094453	-3.010600	3.781000	-11.383000	23.267122	0.001003	20.753926
380.093971	-2.990800	3.781500	-11.307000	23.291104	0.001002	20.754727
381.098389	-3.009800	3.780500	-11.376000	23.318734	0.001003	20.752547
382.094585	-3.004700	3.781800	-11.362000	23.321069	0.001003	20.763422
383.096128	-3.012400	3.779500	-11.385000	23.357448	0.001004	20.761476
384.096404	-2.993600	3.780900	-11.318000	23.366627	0.001006	20.766883
385.095542	-3.023300	3.779700	-11.427000	23.358333	0.001004	20.748612
386.099771	-2.986300	3.780500	-11.289000	23.346579	0.001003	20.760540
387.098043	-3.004500	3.779600	-11.355000	23.359924	0.001006	20.767751
388.102302	-3.015500	3.778600	-11.393000	23.340749	0.001006	20.745212
389.097900	-3.003100	3.778000	-11.345000	23.350450	0.001006	20.776273
390.098089	-2.980200	3.780600	-11.265000	23.358443	0.001006	20.761999
391.099551	-3.002400	3.777600	-11.340000	23.382276	0.001007	20.768342
392.099504	-2.981000	3.778900	-11.264000	23.364348	0.001006	20.768865
393.098056	-3.004900	3.777300	-11.350000	23.361626	0.001008	20.771827
394.099871	-3.021000	3.777300	-11.410000	23.362818	0.001007	20.758797
395.104056	-2.984900	3.778700	-11.278000	23.355642	0.001007	20.765355
396.100777	-2.994300	3.778100	-11.311000	23.369183	0.001009	20.779402
397.102902	-3.012900	3.777300	-11.379000	23.357177	0.001008	20.770688
398.101664	-3.013600	3.776000	-11.378000	23.384739	0.001010	20.775079
399.101288	-3.013200	3.775800	-11.376000	23.394889	0.001011	20.752534
400.101249	-3.004800	3.776000	-11.343000	23.418818	0.001012	20.765614
401.102152	-2.988200	3.775200	-11.280000	23.424790	0.001013	20.761642
402.105670	-2.999200	3.774100	-11.318000	23.435240	0.001010	20.761685
403.101738	-2.998700	3.774300	-11.317000	23.456171	0.001010	20.767492
404.101967	-2.998400	3.775500	-11.318000	23.474963	0.001012	20.776846
405.105309	-2.986300	3.774500	-11.270000	23.467942	0.001011	20.769333
406.101623	-2.990400	3.774200	-11.285000	23.450261	0.001011	20.786699
407.106917	-3.011300	3.773700	-11.362000	23.452872	0.001011	20.798325
408.101911	-3.001800	3.773400	-11.326000	23.442637	0.001011	20.769573
409.104320	-3.019500	3.772200	-11.389000	23.425048	0.001014	20.787979
410.102744	-3.000200	3.773700	-11.320000	23.476806	0.001012	20.767788
411.102704	-2.977500	3.772900	-11.232000	23.497620	0.001012	20.790073
412.103175	-3.007600	3.773200	-11.347000	23.470399	0.001012	20.779857
413.105216	-3.003900	3.771800	-11.328000	23.489517	0.001015	20.793331
414.105338	-2.999100	3.772000	-11.310000	23.496606	0.001015	20.780048
415.105522	-2.980800	3.771800	-11.243000	23.485899	0.001015	20.762676
416.105771	-2.980200	3.771200	-11.238000	23.480370	0.001014	20.776575
417.107952	-2.981900	3.770000	-11.241000	23.468538	0.001016	20.771353
418.108898	-2.997800	3.770700	-11.302000	23.458831	0.001014	20.769684
419.106854	-2.974700	3.771600	-11.219000	23.441021	0.001017	20.782179
420.106559	-3.002900	3.770400	-11.321000	23.445518	0.001015	20.774358
421.106431	-2.998400	3.769900	-11.301000	23.426867	0.001016	20.782690
422.107614	-2.997200	3.770100	-11.298000	23.411827	0.001017	20.787530
423.110361	-3.008000	3.768400	-11.334000	23.446256	0.001015	20.782684
424.108378	-2.996500	3.769000	-11.292000	23.475455	0.001018	20.774494
425.110091	-2.990700	3.768800	-11.269000	23.465190	0.001018	20.783171
426.107237	-3.010100	3.768600	-11.343000	23.483786	0.001016	20.773835
427.107986	-2.997300	3.769000	-11.296000	23.488135	0.001017	20.767289
428.111167	-3.003100	3.767600	-11.313000	23.509919	0.001018	20.786755
429.110747	-3.004300	3.767600	-11.317000	23.475283	0.001018	20.789969
430.108017	-3.016100	3.766500	-11.358000	23.486753	0.001021	20.794353
431.112516	-3.012300	3.767200	-11.347000	23.460884	0.001019	20.797820
432.109286	-3.004800	3.765500	-11.314000	23.470357	0.001020	20.788350
433.108631	-3.023600	3.764700	-11.382000	23.487957	0.001018	20.794138
434.110953	-3.008100	3.766400	-11.328000	23.486213	0.001019	20.794760
435.109895	-3.000800	3.766400	-11.301000	23.530007	0.001020	20.791244
436.111466	-3.010500	3.764300	-11.330000	23.520940	0.001019	20.803018
437.109463	-2.987900	3.765400	-11.250000	23.546993	0.001021	20.792149
438.111266	-3.000000	3.764300	-11.290000	23.570944	0.001022	20.818529
439.112709	-3.002600	3.764700	-11.302000	23.564868	0.001021	20.794896
440.111895	-2.990900	3.764300	-11.259000	23.563990	0.001021	20.799231
441.119143	-3.014800	3.763000	-11.343000	23.548996	0.001019	20.811227
442.110903	-2.996600	3.764300	-11.279000	23.569734	0.001020	20.799299
443.110437	-2.992500	3.763100	-11.260000	23.573886	0.001021	20.779754
444.111516	-2.973900	3.762700	-11.187000	23.565373	0.001021	20.816738
445.118504	-2.986200	3.762000	-11.233000	23.571497	0.001020	20.797273
446.112755	-2.994700	3.761700	-11.264000	23.549211	0.001022	20.795795
447.114331	-3.003400	3.762700	-11.299000	23.572038	0.001020	20.795444
448.112788	-3.018000	3.761600	-11.351000	23.594809	0.001021	20.810211
449.113543	-2.995800	3.761900	-11.269000	23.590251	0.001022	20.799004
450.114403	-3.005100	3.760800	-11.300000	23.578697	0.001022	20.795956
451.111374	-2.997000	3.759700	-11.267000	23.579993	0.001020	20.815747
452.117080	-3.010300	3.761200	-11.322000	23.599404	0.001023	20.795377
453.118193	-3.009000	3.760200	-11.313000	23.592205	0.001021	20.812816
454.116136	-2.979100	3.760800	-11.202000	23.614834	0.001021	20.829337
455.118850	-2.994200	3.758100	-11.251000	23.603796	0.001023	20.828703
456.116811	-3.010300	3.759700	-11.317000	23.621573	0.001023	20.818075
457.117107	-2.977300	3.759400	-11.191000	23.642604	0.001024	20.808340
458.116981	-2.985900	3.759200	-11.222000	23.645092	0.001024	20.802773
459.117959	-3.005900	3.759200	-11.298000	23.685336	0.001024	20.794756
460.117314	-3.008900	3.757200	-11.304000	23.691135	0.001026	20.816690
461.118091	-2.996300	3.757000	-11.257000	23.717613	0.001024	20.819054
462.118045	-2.982600	3.757800	-11.207000	23.731353	0.001025	20.804380
463.120696	-2.999200	3.757200	-11.267000	23.735928	0.001024	20.807072
464.118282	-2.994200	3.755400	-11.243000	23.737869	0.001023	20.813759
465.118604	-3.002800	3.756000	-11.277000	23.742992	0.001025	20.804670
466.119285	-2.999700	3.755700	-11.265000	23.751001	0.001025	20.807959
467.119085	-2.992900	3.756600	-11.241000	23.771115	0.001023	20.835237
468.121844	-2.999800	3.754700	-11.262000	23.760183	0.001023	20.819535
469.118605	-2.992000	3.756200	-11.238000	23.790124	0.001024	20.798821
470.126919	-2.989000	3.754900	-11.222000	23.766699	0.001024	20.826069
471.124530	-2.992100	3.755900	-11.237000	23.783945	0.001024	20.811118
472.119859	-3.021200	3.753400	-11.339000	23.759778	0.001023	20.802534
473.124347	-3.001300	3.754100	-11.265000	23.771097	0.001025	20.822417
474.123538	-3.004200	3.753600	-11.275000	23.775378	0.001025	20.821494
475.125399	-2.986300	3.753600	-11.207000	23.794767	0.001025	20.824339
476.124074	-2.998600	3.754000	-11.255000	23.792255	0.001025	20.830829
477.128974	-3.001600	3.751600	-11.260000	23.826199	0.001024	20.820767
478.125509	-3.004700	3.752700	-11.274000	23.801209	0.001026	20.825583
479.124385	-2.998600	3.752800	-11.252000	23.812430	0.001026	20.828298
480.125825	-3.016700	3.750700	-11.313000	23.807406	0.001025	20.830373
481.125673	-3.017000	3.751600	-11.318000	23.796297	0.001027	20.832510
482.129280	-3.010300	3.751400	-11.292000	23.794479	0.001027	20.814567
483.125762	-2.990500	3.750500	-11.215000	23.840398	0.001027	20.848280
484.134637	-2.997400	3.750800	-11.242000	23.842210	0.001027	20.838243
485.125080	-3.020500	3.749300	-11.324000	23.812639	0.001026	20.850792
486.127669	-3.000200	3.750600	-11.251000	23.800215	0.001026	20.830750
487.130064	-3.010400	3.749600	-11.288000	23.803654	0.001028	20.826612
488.129143	-2.990300	3.749800	-11.211000	23.798397	0.001028	20.828927
489.128325	-3.001800	3.749300	-11.254000	23.793466	0.001027	20.845319
490.128234	-3.014900	3.749200	-11.302000	23.766031	0.001028	20.832985
491.129535	-3.016000	3.749100	-11.306000	23.801720	0.001028	20.835578
492.128352	-3.014000	3.747200	-11.293000	23.801143	0.001028	20.838318
493.135149	-3.002200	3.747300	-11.250000	23.849101	0.001028	20.830929
494.130706	-3.002000	3.747800	-11.251000	23.820606	0.001028	20.835073
495.131757	-3.000900	3.746100	-11.241000	23.842721	0.001029	20.834014
496.134432	-3.005200	3.746900	-11.258000	23.858750	0.001029	20.829698
497.133307	-2.995500	3.747000	-11.222000	23.828633	0.001029	20.853078
498.134320	-3.018400	3.745300	-11.304000	23.853886	0.001027	20.823873
499.137198	-2.994600	3.746000	-11.217000	23.872205	0.001030	20.859784
500.132959	-2.985500	3.746900	-11.184000	23.902088	0.001031	20.850868
501.132134	-3.000400	3.745500	-11.236000	23.912534	0.001029	20.843325
502.131814	-3.005500	3.744400	-11.253000	23.911287	0.001029	20.866730
503.134461	-2.991300	3.745700	-11.202000	23.927561	0.001029	20.844169
504.133423	-2.986000	3.745000	-11.182000	23.904060	0.001028	20.837673
505.134433	-2.997400	3.744800	-11.223000	23.917545	0.001030	20.860204
506.134867	-3.013800	3.743800	-11.282000	23.869210	0.001032	20.841608
507.136088	-3.020000	3.743100	-11.303000	23.917091	0.001032	20.853585
508.155814	-2.978800	3.744100	-11.152000	23.905934	0.001031	20.848087
509.154817	-2.973000	3.743700	-11.129000	23.933353	0.001031	20.836701
510.150815	-3.008100	3.742000	-11.255000	23.925106	0.001031	20.869682
511.147815	-3.014500	3.741900	-11.278000	23.941655	0.001032	20.850242
512.150816	-2.989300	3.742200	-11.186000	23.929405	0.001031	20.847915
513.137816	-3.002200	3.741400	-11.232000	23.886241	0.001032	20.839720
514.144814	-2.997900	3.742200	-11.217000	23.878946	0.001031	20.855163
515.142817	-3.013200	3.741100	-11.272000	23.865970	0.001032	20.868230
516.141815	-2.999700	3.740900	-11.219000	23.882766	0.001031	20.873218
517.137814	-3.011700	3.739900	-11.263000	23.903412	0.001031	20.890126
518.137333	-2.997900	3.740200	-11.212000	23.915578	0.001031	20.862498
519.137290	-2.999800	3.738800	-11.215000	23.922388	0.001034	20.878336
520.141709	-2.992500	3.740500	-11.192000	23.932859	0.001032	20.869395
521.137091	-2.998700	3.738000	-11.209000	23.913491	0.001031	20.866570
522.138082	-3.000200	3.739500	-11.217000	23.950047	0.001030	20.869562
523.139028	-2.975700	3.738400	-11.123000	23.955366	0.001030	20.864938
525.409368	-3.012100	3.737600	-11.257000	23.975888	0.001033	20.868449
526.415476	-3.018200	3.737300	-11.279000	23.966027	0.001031	20.859508
527.410470	-2.974400	3.738100	-11.117000	23.953776	0.001031	20.879465
528.415638	-2.980500	3.738500	-11.142000	23.939684	0.001032	20.861067
529.411640	-2.983700	3.737400	-11.150000	23.940176	0.001031	20.861086
530.413158	-3.001300	3.736600	-11.214000	23.958039	0.001030	20.872360
531.415617	-3.002900	3.737200	-11.221000	23.960170	0.001031	20.858377
532.414450	-3.001300	3.736600	-11.213000	23.987239	0.001031	20.877934
533.415603	-3.002600	3.734600	-11.213000	24.010174	0.001029	20.868218
534.416100	-3.003100	3.735800	-11.218000	23.998648	0.001032	20.874678
535.415434	-2.999800	3.735000	-11.203000	24.001829	0.001030	20.880238
536.416390	-2.993700	3.735400	-11.182000	24.010260	0.001030	20.881107
537.417090	-2.995500	3.734800	-11.186000	24.041957	0.001031	20.873065
538.416341	-3.004300	3.732800	-11.213000	24.047176	0.001030	20.905798
539.429934	-3.015200	3.733600	-11.256000	24.033306	0.001031	20.887148
540.417185	-3.005800	3.733900	-11.222000	24.028056	0.001031	20.885677
541.420295	-2.999500	3.733900	-11.199000	24.030114	0.001034	20.880154
542.418349	-2.989600	3.733600	-11.161000	24.044667	0.001031	20.890006
543.417972	-3.016800	3.731700	-11.256000	24.035180	0.001032	20.884287
544.423769	-3.020000	3.730700	-11.265000	24.068767	0.001030	20.902322
545.417966	-3.015600	3.731700	-11.251000	24.079463	0.001033	20.904514
546.419662	-3.018000	3.730200	-11.257000	24.082344	0.001031	20.895550
547.419779	-2.988600	3.732400	-11.152000	24.104632	0.001031	20.888506
548.419664	-2.986800	3.730800	-11.141000	24.079422	0.001031	20.879818
549.418547	-2.990100	3.730800	-11.154000	24.065675	0.001029	20.892109
550.420744	-2.983300	3.730200	-11.127000	24.064601	0.001032	20.884395
551.420455	-2.981000	3.731200	-11.122000	24.050718	0.001030	20.900816
552.421772	-3.005700	3.729100	-11.207000	24.044591	0.001030	20.907947
553.418412	-2.990300	3.729400	-11.151000	24.064117	0.001029	20.901451
554.424390	-3.022700	3.728300	-11.269000	24.076606	0.001030	20.910657
555.420134	-3.009500	3.730000	-11.224000	24.096279	0.001029	20.909999
556.423687	-2.988400	3.729000	-11.142000	24.083287	0.001029	20.899341
557.423779	-3.012800	3.727800	-11.231000	24.114441	0.001029	20.901662
558.422220	-2.999600	3.727800	-11.181000	24.126205	0.001029	20.900185
559.421056	-3.004200	3.727500	-11.197000	24.138841	0.001030	20.896737
560.424094	-3.000600	3.726800	-11.182000	24.130380	0.001028	20.892045
561.422276	-2.996600	3.726800	-11.166000	24.124806	0.001029	20.915375
562.423886	-2.997100	3.727400	-11.171000	24.114602	0.001031	20.896608
563.427155	-3.023900	3.725800	-11.266000	24.100591	0.001030	20.892988
564.423384	-3.016400	3.726000	-11.238000	24.108898	0.001029	20.895155
565.422343	-3.009300	3.725100	-11.208000	24.117126	0.001030	20.886813
566.424720	-2.995500	3.726000	-11.160000	24.098694	0.001030	20.912420
567.422456	-2.987700	3.724800	-11.128000	24.107849	0.001032	20.927764
568.422814	-3.017600	3.723500	-11.235000	24.123193	0.001032	20.900957
569.424111	-3.006200	3.723300	-11.192000	24.127147	0.001031	20.900181
570.422368	-2.974300	3.725000	-11.077000	24.110649	0.001031	20.895489
571.424380	-3.010300	3.724300	-11.211000	24.132366	0.001030	20.902096
572.428795	-3.013700	3.723700	-11.220000	24.160854	0.001032	20.909805
573.423142	-3.002100	3.724200	-11.179000	24.155156	0.001030	20.918315
574.423869	-3.031900	3.723000	-11.286000	24.161696	0.001032	20.874617
575.426116	-3.022300	3.722500	-11.249000	24.178605	0.001029	20.896790
576.426565	-3.011500	3.722400	-11.209000	24.197139	0.001030	20.905423
577.424428	-3.015300	3.721800	-11.221000	24.194849	0.001029	20.914979
578.429468	-2.984500	3.722400	-11.108000	24.208080	0.001029	20.898380
579.425941	-3.014400	3.722100	-11.219000	24.187275	0.001029	20.892211
580.426011	-3.015400	3.722000	-11.222000	24.220261	0.001028	20.901115
581.427998	-2.996500	3.722900	-11.155000	24.248594	0.001027	20.878801
582.428669	-2.997800	3.721100	-11.153000	24.238391	0.001029	20.880420
583.426639	-3.008000	3.720900	-11.192000	24.248569	0.001028	20.887784
584.429187	-3.012900	3.721900	-11.212000	24.267122	0.001028	20.907341
585.426615	-3.000800	3.721500	-11.165000	24.250921	0.001027	20.884454
586.426242	-3.010400	3.719700	-11.196000	24.222805	0.001028	20.894183
587.427210	-2.999100	3.719900	-11.155000	24.195958	0.001027	20.892385
588.426640	-2.987600	3.720400	-11.115000	24.193245	0.001027	20.866906
589.427256	-3.003300	3.718300	-11.166000	24.185902	0.001027	20.881826
590.426837	-3.005800	3.717100	-11.172000	24.167460	0.001027	20.876605
591.428480	-3.018700	3.716300	-11.217000	24.188580	0.001026	20.879770
592.426170	-2.988500	3.716700	-11.106000	24.202792	0.001025	20.895921
593.430229	-2.994200	3.717400	-11.129000	24.225734	0.001026	20.887639
594.426870	-3.011100	3.715800	-11.188000	24.254287	0.001026	20.873607
595.426669	-2.992700	3.716600	-11.121000	24.235674	0.001023	20.894290
596.433255	-3.003800	3.715300	-11.159000	24.226674	0.001026	20.875306
597.427720	-2.988800	3.715500	-11.104000	24.228466	0.001027	20.880897
598.431098	-2.999700	3.715600	-11.144000	24.204953	0.001026	20.883865
599.428317	-3.019000	3.713700	-11.210000	24.213137	0.001027	20.885909
600.427680	-3.014900	3.714700	-11.198000	24.216121	0.001025	20.880368
601.428353	-3.014600	3.714800	-11.198000	24.212670	0.001026	20.881648
602.429492	-3.016100	3.714500	-11.202000	24.241352	0.001026	20.874382
603.427370	-3.014800	3.715100	-11.199000	24.222001	0.001026	20.877732
604.430130	-3.002700	3.714100	-11.152000	24.252604	0.001023	20.879505
605.431488	-2.975000	3.715000	-11.051000	24.243746	0.001023	20.870146
606.431025	-3.004400	3.714300	-11.158000	24.274250	0.001024	20.858071
607.432084	-3.004500	3.713200	-11.155000	24.266515	0.001025	20.856001
608.433597	-3.000900	3.711900	-11.136000	24.271537	0.001026	20.892805
609.437380	-2.985800	3.711800	-11.082000	24.294128	0.001025	20.852880
610.434515	-2.980400	3.712800	-11.065000	24.287988	0.001024	20.864739
611.433304	-2.992200	3.711700	-11.104000	24.287172	0.001022	20.861549
612.432508	-2.987700	3.712100	-11.090000	24.257668	0.001024	20.855662
613.432982	-2.985200	3.711800	-11.079000	24.262045	0.001023	20.832552
614.433322	-3.027200	3.710600	-11.232000	24.261026	0.001024	20.870883
615.433900	-3.008800	3.709400	-11.159000	24.269559	0.001022	20.848624
616.435250	-3.023600	3.710200	-11.217000	24.318098	0.001023	20.870286
617.435814	-2.988200	3.710200	-11.086000	24.307754	0.001022	20.849479
618.436074	-2.990500	3.710400	-11.095000	24.281155	0.001023	20.847928
619.435162	-2.973800	3.709900	-11.031000	24.301259	0.001024	20.836326
620.437472	-3.013600	3.709200	-11.178000	24.314371	0.001021	20.841893
621.440524	-3.012200	3.710000	-11.175000	24.297705	0.001022	20.851726
622.437924	-3.003300	3.708800	-11.137000	24.295494	0.001021	20.856147
623.437639	-2.984000	3.709400	-11.068000	24.315224	0.001021	20.823308
624.437202	-3.011700	3.708700	-11.168000	24.298587	0.001022	20.842181
625.438151	-2.991700	3.708000	-11.092000	24.289625	0.001021	20.852157
626.440174	-3.003300	3.707400	-11.134000	24.308342	0.001021	20.840112
627.438533	-2.975900	3.707800	-11.033000	24.270355	0.001021	20.835672
628.443707	-3.011300	3.706300	-11.159000	24.252613	0.001020	20.854385
629.445235	-2.992600	3.708500	-11.098000	24.263049	0.001022	20.835456
630.441031	-2.991500	3.705900	-11.085000	24.277426	0.001020	20.847032
631.439257	-2.979400	3.706000	-11.041000	24.283872	0.001022	20.865351
632.438247	-2.983200	3.707400	-11.059000	24.285344	0.001020	20.837906
633.440878	-3.017500	3.704900	-11.179000	24.297388	0.001020	20.831970
634.441141	-3.001600	3.705300	-11.121000	24.283705	0.001020	20.839106
635.442043	-2.998600	3.704700	-11.107000	24.288689	0.001019	20.824666
636.443390	-3.005100	3.704200	-11.131000	24.311157	0.001019	20.840091
637.444082	-2.989900	3.704400	-11.075000	24.289334	0.001018	20.823416
638.443547	-2.990000	3.703100	-11.071000	24.291629	0.001017	20.817184
639.444296	-3.002000	3.703400	-11.117000	24.310015	0.001020	20.820454
640.445685	-2.983400	3.704800	-11.051000	24.318485	0.001021	20.830847
641.446948	-2.981300	3.704400	-11.043000	24.315723	0.001019	20.829972
642.447620	-3.021800	3.701300	-11.183000	24.346550	0.001018	20.832447
643.450099	-2.978500	3.701900	-11.024000	24.349981	0.001020	20.829252
644.446315	-3.003600	3.701500	-11.117000	24.376972	0.001018	20.816499
645.447104	-3.004900	3.701100	-11.121000	24.347974	0.001018	20.825341
646.445645	-2.984100	3.702800	-11.049000	24.345591	0.001018	20.822003
647.446971	-2.994400	3.700900	-11.080000	24.354247	0.001018	20.828789
648.446706	-2.996400	3.700100	-11.085000	24.382710	0.001016	20.821781
649.451150	-3.000100	3.701200	-11.103000	24.352239	0.001016	20.833887
650.445199	-2.986700	3.701100	-11.052000	24.336843	0.001016	20.802322
651.445262	-2.985700	3.701500	-11.051000	24.323412	0.001018	20.797857
652.444576	-3.004000	3.699100	-11.111000	24.302644	0.001016	20.812586
653.448667	-2.990400	3.699000	-11.060000	24.270452	0.001015	20.821072
654.445719	-2.979100	3.700600	-11.023000	24.267677	0.001015	20.817813
655.447503	-2.998200	3.700200	-11.093000	24.285308	0.001017	20.815585
656.448042	-3.004500	3.699100	-11.113000	24.287830	0.001016	20.827124
657.447558	-3.017200	3.697900	-11.156000	24.316516	0.001015	20.801372
658.447451	-2.991800	3.698800	-11.064000	24.328910	0.001017	20.809062
659.447820	-3.020900	3.698400	-11.172000	24.364985	0.001016	20.808268
660.450809	-2.981700	3.697500	-11.024000	24.369417	0.001016	20.807024
661.447323	-2.989600	3.697600	-11.054000	24.400470	0.001014	20.791708
662.447942	-2.979400	3.698000	-11.016000	24.430246	0.001016	20.814942
663.449090	-2.986100	3.696800	-11.037000	24.429951	0.001015	20.800422
664.447978	-2.976800	3.697700	-11.006000	24.476794	0.001015	20.811382
665.449385	-3.000300	3.695600	-11.087000	24.463119	0.001015	20.798136
666.451195	-3.009500	3.694400	-11.117000	24.509857	0.001014	20.798087
667.449147	-2.991700	3.695200	-11.054000	24.508716	0.001013	20.801209
668.449301	-2.991900	3.696700	-11.059000	24.515712	0.001014	20.805383
669.450714	-3.005000	3.694500	-11.101000	24.501682	0.001013	20.802212
670.451220	-3.004200	3.694700	-11.098000	24.460049	0.001015	20.811651
671.451264	-2.989900	3.695200	-11.047000	24.447012	0.001012	20.785770
672.454259	-2.994200	3.693800	-11.059000	24.437861	0.001012	20.810254
673.453054	-3.023500	3.693200	-11.166000	24.421699	0.001014	20.801152
674.452838	-2.995900	3.693200	-11.063000	24.448411	0.001012	20.787174
675.453394	-2.986200	3.693000	-11.026000	24.476025	0.001013	20.784058
676.452140	-2.988600	3.692400	-11.034000	24.479339	0.001011	20.798762
677.453146	-2.991600	3.693800	-11.047000	24.480407	0.001013	20.756211
678.453448	-2.997600	3.692300	-11.067000	24.512071	0.001013	20.791773
679.451339	-3.015400	3.691000	-11.128000	24.512175	0.001014	20.806102
680.451457	-3.021000	3.690200	-11.147000	24.528022	0.001012	20.767948
681.455887	-2.969900	3.692700	-10.967000	24.549362	0.001010	20.793626
682.454370	-2.991800	3.691700	-11.044000	24.584681	0.001012	20.801564
683.454743	-2.979700	3.691200	-10.998000	24.540063	0.001009	20.789987
684.455471	-2.979300	3.690000	-10.992000	24.521461	0.001015	20.798823
685.454926	-3.004500	3.689800	-11.085000	24.510236	0.001012	20.757214
686.456810	-3.020200	3.687800	-11.137000	24.494720	0.001012	20.766777
687.459489	-3.011400	3.691700	-11.116000	24.493498	0.001010	20.769345
688.454924	-3.022600	3.687900	-11.147000	24.502999	0.001011	20.782671
689.457042	-2.989000	3.689500	-11.026000	24.509739	0.001008	20.777579
690.463284	-2.993800	3.689100	-11.043000	24.534294	0.001010	20.790836
691.459059	-3.014300	3.688400	-11.116000	24.491436	0.001009	20.778182
692.455492	-3.003300	3.688200	-11.074000	24.522400	0.001008	20.778903
693.454768	-3.012100	3.688100	-11.108000	24.470617	0.001009	20.764407
694.457973	-3.004900	3.689200	-11.085000	24.462528	0.001009	20.774309
695.457274	-2.994100	3.687200	-11.039000	24.438577	0.001008	20.764505
696.457653	-3.002200	3.687000	-11.068000	24.438074	0.001009	20.786760
697.460125	-2.998200	3.686400	-11.052000	24.464418	0.001008	20.788060
698.455879	-3.006300	3.685400	-11.077000	24.488152	0.001006	20.782000
699.456820	-2.996700	3.686600	-11.046000	24.489663	0.001007	20.772610
700.455184	-2.986200	3.686300	-11.006000	24.506695	0.001007	20.788276
701.457639	-2.984700	3.686800	-11.003000	24.521400	0.001006	20.770787
702.455725	-3.001800	3.684900	-11.060000	24.525009	0.001009	20.779149
703.457537	-3.023200	3.682700	-11.132000	24.548607	0.001007	20.780067
704.457972	-2.978900	3.685800	-10.978000	24.559471	0.001006	20.762043
705.460032	-3.005600	3.683900	-11.071000	24.574727	0.001003	20.761704
706.457263	-2.980900	3.684200	-10.981000	24.564079	0.001005	20.761451
707.459783	-3.015000	3.683000	-11.103000	24.566038	0.001003	20.770529
708.456790	-2.997700	3.683400	-11.040000	24.583799	0.001003	20.766538
709.457162	-3.002500	3.681900	-11.054000	24.574894	0.001003	20.777518
710.462150	-2.982100	3.683100	-10.982000	24.596981	0.001005	20.772653
711.458672	-2.989200	3.683300	-11.009000	24.611728	0.001003	20.751888
712.459430	-2.981400	3.683500	-10.981000	24.599516	0.001004	20.773774
713.461128	-3.008800	3.679900	-11.069000	24.638368	0.001004	20.765818
714.459706	-2.991700	3.681800	-11.014000	24.625555	0.001002	20.776194
715.459311	-2.976500	3.680800	-10.953000	24.591083	0.001002	20.764365
716.461397	-2.998100	3.680100	-11.031000	24.582430	0.001002	20.754259
717.463500	-2.986500	3.681300	-10.993000	24.598024	0.001001	20.755682
718.461941	-3.032100	3.678500	-11.151000	24.579073	0.001005	20.767487
719.463311	-2.998500	3.680400	-11.035000	24.557753	0.001004	20.750836
720.465361	-3.016700	3.678400	-11.096000	24.550560	0.001001	20.753102
721.465100	-2.978600	3.680600	-10.962000	24.528827	0.001003	20.773497
722.463299	-3.006400	3.677400	-11.054000	24.521186	0.001001	20.768676
723.467510	-2.968300	3.680700	-10.922000	24.534419	0.001000	20.749235
724.463770	-2.984200	3.678600	-10.977000	24.550609	0.001000	20.764057
725.463630	-3.005200	3.677700	-11.051000	24.571255	0.001001	20.758694
726.466449	-3.002200	3.678100	-11.042000	24.590630	0.001000	20.746839
727.465072	-2.994900	3.677100	-11.011000	24.602241	0.001000	20.753749
728.463617	-2.981600	3.679700	-10.970000	24.628452	0.001000	20.754445
729.465885	-2.997000	3.677100	-11.018000	24.621241	0.000999	20.755270
730.464907	-2.995000	3.677400	-11.013000	24.619548	0.001000	20.764002
731.465304	-2.988300	3.678600	-10.992000	24.621990	0.000998	20.766927
732.465751	-2.994300	3.677900	-11.012000	24.648324	0.001001	20.761108
733.465227	-3.013200	3.674600	-11.071000	24.657504	0.001000	20.761785
734.467285	-3.007800	3.675900	-11.055000	24.664217	0.001000	20.759513
735.470134	-2.998700	3.674600	-11.017000	24.665236	0.000999	20.732559
736.465716	-2.996500	3.675800	-11.014000	24.674932	0.001001	20.767894
737.466264	-2.963900	3.676800	-10.896000	24.664788	0.000998	20.752025
738.472048	-3.009200	3.672600	-11.051000	24.674018	0.000999	20.757019
739.473896	-3.003100	3.674800	-11.035000	24.676994	0.000998	20.742936
740.467802	-3.006000	3.673600	-11.042000	24.691697	0.000997	20.743939
741.470096	-2.999500	3.674900	-11.022000	24.701043	0.000999	20.760905
742.469429	-2.984100	3.674000	-10.962000	24.712930	0.000998	20.746280
743.470138	-3.002300	3.673400	-11.026000	24.710647	0.000999	20.733557
744.471875	-3.013100	3.672800	-11.066000	24.720195	0.000998	20.743139
745.472248	-2.996000	3.673300	-11.004000	24.709549	0.000998	20.756638
746.473983	-2.987600	3.671800	-10.970000	24.715740	0.000999	20.724917
747.471287	-2.993200	3.672200	-10.990000	24.677289	0.000996	20.756509
748.472483	-3.002800	3.671700	-11.025000	24.649287	0.000997	20.733625
749.473472	-3.014300	3.671700	-11.067000	24.638824	0.000997	20.749204
750.477012	-2.986800	3.670800	-10.962000	24.656602	0.000996	20.740491
751.478698	-3.003300	3.671600	-11.026000	24.639266	0.000996	20.729733
752.477215	-2.987800	3.671000	-10.967000	24.640340	0.000994	20.715636
753.477046	-2.989900	3.669700	-10.971000	24.660713	0.000994	20.737504
754.477452	-2.990700	3.671000	-10.978000	24.644352	0.000994	20.730095
755.473261	-2.982800	3.670500	-10.948000	24.664138	0.000993	20.745208
756.480972	-2.998600	3.670200	-11.004000	24.650127	0.000994	20.724984
757.479319	-3.015500	3.668600	-11.061000	24.661167	0.000992	20.749339
758.479202	-2.966300	3.669800	-10.884000	24.679172	0.000995	20.730896
759.481899	-3.006400	3.669200	-11.030000	24.690340	0.000993	20.738310
760.480189	-2.994700	3.667600	-10.982000	24.705706	0.000993	20.756575
761.479473	-2.985800	3.669500	-10.956000	24.714315	0.000991	20.732971
762.481602	-2.996400	3.668300	-10.990000	24.747065	0.000991	20.740231
763.480367	-2.976700	3.669400	-10.922000	24.741775	0.000990	20.720697
764.479819	-3.007200	3.666000	-11.022000	24.754005	0.000990	20.752412
765.484238	-3.001800	3.666100	-11.004000	24.769977	0.000992	20.728136
766.481787	-2.985700	3.667500	-10.949000	24.768485	0.000991	20.737546
767.482854	-2.990900	3.666600	-10.965000	24.787734	0.000991	20.716558
768.483963	-2.994400	3.666200	-10.977000	24.778610	0.000993	20.725894
769.482566	-2.974700	3.666300	-10.905000	24.784580	0.000991	20.737576
770.481421	-2.982100	3.665800	-10.931000	24.790225	0.000988	20.725223
771.486137	-3.021800	3.664900	-11.073000	24.808007	0.000990	20.724576
772.484643	-2.999100	3.664000	-10.986000	24.804148	0.000988	20.730661
773.480623	-2.994200	3.664500	-10.971000	24.781223	0.000989	20.738475
774.484163	-2.994000	3.665400	-10.972000	24.734374	0.000989	20.732711
775.482271	-2.988000	3.663800	-10.947000	24.714830	0.000988	20.730642
776.482434	-2.990200	3.663800	-10.954000	24.694892	0.000988	20.717746
777.487671	-2.989700	3.663400	-10.950000	24.657164	0.000986	20.735365
778.482788	-2.975900	3.663400	-10.901000	24.670897	0.000989	20.735395
779.483067	-3.021000	3.661400	-11.060000	24.699691	0.000987	20.732519
780.485125	-2.963300	3.663700	-10.855000	24.720486	0.000986	20.717351
781.483873	-3.007000	3.661800	-11.010000	24.725009	0.000987	20.706716
782.487281	-2.973700	3.663700	-10.894000	24.693234	0.000986	20.707073
783.484984	-3.010400	3.660400	-11.018000	24.704574	0.000986	20.705650
784.485091	-3.006900	3.661200	-11.008000	24.707035	0.000985	20.705749
785.484000	-2.990300	3.661800	-10.948000	24.718750	0.000987	20.720824
786.483799	-3.023200	3.659100	-11.061000	24.739018	0.000985	20.717930
787.486836	-3.008900	3.659800	-11.011000	24.739318	0.000985	20.723922
788.485940	-2.991200	3.660500	-10.948000	24.754493	0.000984	20.721132
789.487475	-3.027100	3.660200	-11.078000	24.748725	0.000985	20.751855
790.491071	-3.018500	3.657900	-11.039000	24.781468	0.000984	20.722124
791.488768	-2.981700	3.660600	-10.913000	24.776000	0.000985	20.726594
792.491076	-2.998800	3.659800	-10.974000	24.768293	0.000983	20.728817
793.493240	-3.008600	3.659500	-11.009000	24.792365	0.000984	20.750605
794.487622	-3.014600	3.659400	-11.030000	24.801440	0.000983	20.731262
795.488860	-3.012700	3.658600	-11.019000	24.806121	0.000984	20.726477
796.492780	-3.015900	3.656200	-11.025000	24.791327	0.000983	20.700249
797.490418	-3.009300	3.657100	-11.005000	24.775312	0.000982	20.723533
798.490714	-3.006300	3.657300	-10.994000	24.782645	0.000982	20.732789
799.494143	-3.009200	3.657300	-11.005000	24.801347	0.000981	20.722634
800.491442	-3.005300	3.657000	-10.988000	24.810797	0.000983	20.711254
801.491107	-3.003900	3.656100	-10.982000	24.810024	0.000980	20.731342
802.493488	-3.013100	3.655500	-11.012000	24.790928	0.000981	20.715971
803.493105	-3.011100	3.655700	-11.006000	24.774711	0.000981	20.732888
804.492857	-2.989400	3.657300	-10.933000	24.774687	0.000978	20.722431
805.500505	-3.009300	3.654700	-10.997000	24.789039	0.000982	20.725929
806.494401	-3.017300	3.654800	-11.025000	24.783669	0.000980	20.716272
807.495001	-2.986200	3.655800	-10.917000	24.762340	0.000980	20.723791
808.496853	-3.026400	3.653300	-11.055000	24.739133	0.000980	20.713304
809.495585	-3.019400	3.653200	-11.029000	24.739262	0.000979	20.713907
810.496738	-3.018600	3.654100	-11.029000	24.746073	0.000980	20.715053
811.498003	-3.011800	3.653500	-11.002000	24.748441	0.000980	20.712213
812.496530	-3.000800	3.652900	-10.960000	24.767513	0.000978	20.724241
813.495706	-3.001900	3.652200	-10.963000	24.743066	0.000979	20.721519
814.497894	-2.992400	3.652800	-10.929000	24.785153	0.000979	20.706381
815.495582	-2.965900	3.654700	-10.838000	24.784932	0.000976	20.711375
816.496626	-3.019900	3.652000	-11.027000	24.802561	0.000976	20.720533
817.500121	-3.002300	3.652400	-10.964000	24.813034	0.000978	20.726303
818.496531	-3.010400	3.651300	-10.992000	24.804156	0.000978	20.724979
819.497982	-3.011400	3.650700	-10.992000	24.829349	0.000976	20.719442
820.500821	-3.006900	3.650000	-10.974000	24.847548	0.000976	20.721585
821.497826	-3.013400	3.650200	-10.999000	24.839350	0.000979	20.735170
822.500195	-2.983700	3.651500	-10.894000	24.802351	0.000978	20.717952
823.503534	-2.991300	3.650300	-10.916000	24.757491	0.000976	20.724615
824.500412	-2.995400	3.650100	-10.933000	24.751023	0.000976	20.720969
825.501098	-3.006500	3.650500	-10.974000	24.756104	0.000978	20.729387
826.503554	-3.015600	3.648200	-11.000000	24.736363	0.000975	20.710524
827.499908	-3.015700	3.649100	-11.003000	24.741487	0.000974	20.719460
828.502320	-3.013800	3.648600	-10.995000	24.731540	0.000975	20.751205
829.505555	-2.988100	3.649200	-10.902000	24.727140	0.000973	20.728771
830.503231	-2.993000	3.649200	-10.921000	24.701158	0.000973	20.722612
831.500690	-2.987800	3.648500	-10.900000	24.722342	0.000973	20.730593
832.506909	-3.014100	3.646600	-10.990000	24.714842	0.000970	20.725913
833.500864	-3.001100	3.646400	-10.942000	24.734540	0.000972	20.728136
834.503489	-3.000000	3.647000	-10.940000	24.776389	0.000971	20.714181
835.506376	-2.987400	3.647700	-10.896000	24.797055	0.000971	20.734448
836.505943	-3.002700	3.646900	-10.948000	24.819567	0.000971	20.713891
837.511195	-2.998800	3.646200	-10.932000	24.841324	0.000970	20.734306
838.508154	-3.005600	3.647100	-10.960000	24.833145	0.000971	20.735580
839.505161	-3.005700	3.646600	-10.960000	24.841103	0.000969	20.722704
840.509213	-3.011300	3.645000	-10.975000	24.849760	0.000969	20.732341
841.509171	-3.024600	3.645300	-11.025000	24.861203	0.000970	20.735765
842.505645	-3.014300	3.644100	-10.983000	24.851631	0.000968	20.736116
843.505445	-2.989600	3.645600	-10.898000	24.855711	0.000969	20.737366
844.510410	-3.027200	3.642700	-11.027000	24.844280	0.000970	20.734902
845.507779	-3.009100	3.642700	-10.961000	24.838512	0.000969	20.753296
846.512951	-2.999300	3.645000	-10.931000	24.813718	0.000967	20.725566
847.512759	-3.007100	3.643300	-10.954000	24.812159	0.000966	20.713569
848.508912	-2.989600	3.643900	-10.893000	24.827075	0.000968	20.729963
849.508129	-3.029300	3.641300	-11.028000	24.845102	0.000967	20.752323
850.512209	-3.014300	3.641200	-10.975000	24.851323	0.000967	20.727272
851.508255	-3.006500	3.642200	-10.949000	24.872510	0.000968	20.713920
852.509907	-2.987600	3.643000	-10.883000	24.855078	0.000966	20.736256
853.513628	-3.000000	3.641500	-10.923000	24.857692	0.000967	20.735560
854.510643	-3.004500	3.641800	-10.941000	24.876049	0.000966	20.716051
855.509186	-3.010000	3.641900	-10.961000	24.887136	0.000966	20.731446
856.513346	-3.009800	3.639600	-10.952000	24.910242	0.000963	20.724290
857.512843	-3.033900	3.639300	-11.041000	24.891535	0.000965	20.719740
858.510643	-3.000600	3.639700	-10.921000	24.920886	0.000964	20.727862
859.515212	-3.009000	3.641100	-10.955000	24.905444	0.000963	20.721371
860.515110	-3.019500	3.639300	-10.988000	24.958899	0.000964	20.730455
861.511759	-3.004100	3.639700	-10.933000	24.983101	0.000964	20.727246
862.512260	-3.016700	3.638000	-10.973000	25.012033	0.000962	20.752969
863.511170	-3.005300	3.638700	-10.934000	24.993690	0.000964	20.734556
864.513420	-3.032000	3.637700	-11.029000	24.989242	0.000963	20.712072
865.515663	-2.994300	3.637900	-10.892000	24.965353	0.000962	20.721759
866.513194	-3.022100	3.638500	-10.994000	24.948095	0.000962	20.761337
867.513597	-3.005000	3.638900	-10.934000	24.919210	0.000961	20.733767
868.513869	-2.978800	3.639200	-10.839000	24.901701	0.000959	20.732788
869.514340	-3.014000	3.637200	-10.962000	24.890835	0.000960	20.747487
870.515265	-3.001400	3.637800	-10.918000	24.899473	0.000961	20.732449
871.516736	-3.001500	3.636700	-10.913000	24.874134	0.000960	20.740208
872.514271	-2.982900	3.638100	-10.849000	24.868262	0.000959	20.730522
873.514874	-3.006600	3.634800	-10.927000	24.862899	0.000959	20.747425
874.514911	-3.008100	3.635800	-10.936000	24.844032	0.000959	20.718531
875.514180	-2.996500	3.635400	-10.893000	24.845075	0.000959	20.743287
876.515676	-2.999500	3.634700	-10.899000	24.868501	0.000957	20.743090
877.520175	-3.016200	3.635200	-10.962000	24.891061	0.000959	20.752456
878.515605	-3.026500	3.633500	-10.996000	24.926964	0.000958	20.750559
879.515426	-2.972900	3.637100	-10.810000	24.937658	0.000957	20.750861
880.517580	-2.993600	3.635000	-10.882000	24.961928	0.000957	20.752462
881.516959	-3.026300	3.632600	-10.992000	24.952431	0.000955	20.738661
882.517891	-2.991900	3.633900	-10.871000	24.986651	0.000955	20.742189
883.520767	-3.002000	3.635400	-10.912000	24.969615	0.000955	20.744056
884.517714	-2.999700	3.633500	-10.899000	25.008258	0.000955	20.757714
885.517942	-2.994300	3.633400	-10.879000	25.003221	0.000956	20.737010
886.521499	-2.981600	3.632600	-10.830000	25.038048	0.000953	20.745890
887.519970	-3.015700	3.631600	-10.950000	25.049041	0.000955	20.751709
888.517002	-3.012100	3.633000	-10.941000	25.062720	0.000951	20.727508
889.522528	-2.994800	3.631900	-10.875000	25.063419	0.000952	20.751918
890.518336	-3.010500	3.629900	-10.927000	25.072326	0.000951	20.732883
891.516962	-3.004400	3.632200	-10.912000	25.089410	0.000953	20.748611
892.519836	-2.992300	3.631700	-10.865000	25.098826	0.000951	20.729613
893.516737	-3.015200	3.629400	-10.941000	25.098268	0.000951	20.746597
894.519109	-2.981900	3.630600	-10.825000	25.105009	0.000953	20.756210
895.521547	-3.014500	3.630100	-10.942000	25.089864	0.000952	20.731048
896.519316	-2.994500	3.630800	-10.870000	25.077515	0.000950	20.765594
897.522178	-3.009900	3.628600	-10.921000	25.088729	0.000950	20.745082
898.520750	-2.997800	3.628500	-10.877000	25.126251	0.000950	20.755723
899.517667	-3.016300	3.628300	-10.943000	25.114467	0.000951	20.745790
900.518950	-3.008400	3.628900	-10.917000	25.125981	0.000947	20.752607
901.521497	-3.011100	3.628100	-10.923000	25.171924	0.000949	20.745149
902.520494	-3.017000	3.628100	-10.945000	25.164122	0.000949	20.743954
903.521422	-2.993800	3.627500	-10.859000	25.163435	0.000949	20.752748
904.524868	-2.998300	3.626500	-10.873000	25.138850	0.000947	20.750826
905.520270	-2.986800	3.626800	-10.832000	25.142180	0.000947	20.752273
906.522880	-2.993100	3.626800	-10.854000	25.153007	0.000948	20.763142
907.524904	-3.011000	3.625600	-10.916000	25.120791	0.000948	20.780113
908.522704	-3.000500	3.625700	-10.877000	25.153270	0.000949	20.745862
909.520236	-2.973800	3.628000	-10.788000	25.106406	0.000947	20.761405
910.526407	-2.995500	3.626300	-10.862000	25.086972	0.000946	20.721981
911.522370	-2.987300	3.626100	-10.830000	25.062490	0.000945	20.753356
912.521954	-2.981700	3.625300	-10.808000	25.066747	0.000945	20.757630
913.524581	-2.971200	3.627900	-10.778000	25.082586	0.000946	20.761676
914.524508	-2.980000	3.626300	-10.804000	25.107006	0.000945	20.746834
915.524741	-2.992500	3.624600	-10.845000	25.068152	0.000945	20.766152
916.526910	-2.985700	3.624800	-10.820000	25.085935	0.000941	20.753657
917.523940	-2.992700	3.624700	-10.847000	25.086781	0.000944	20.762568
918.525969	-2.996200	3.624200	-10.858000	25.088376	0.000944	20.767014
919.528435	-2.988900	3.625600	-10.835000	25.082045	0.000943	20.754020
920.527887	-3.018000	3.622800	-10.932000	25.094007	0.000945	20.775986
921.531091	-3.000900	3.621500	-10.866000	25.081904	0.000944	20.758146
922.529024	-2.977800	3.624200	-10.790000	25.105104	0.000941	20.779065
923.528822	-3.001800	3.621200	-10.870000	25.079180	0.000943	20.749722
924.529867	-2.999100	3.622300	-10.864000	25.104220	0.000941	20.753047
925.533402	-2.998400	3.620400	-10.854000	25.090283	0.000943	20.753755
926.530063	-3.010600	3.621700	-10.902000	25.121880	0.000943	20.765560
927.529054	-2.992000	3.621000	-10.833000	25.142343	0.000940	20.770455
928.529947	-2.995600	3.621300	-10.847000	25.132921	0.000939	20.748668
929.529727	-2.993300	3.621100	-10.839000	25.156298	0.000942	20.775930
930.538346	-2.995500	3.620700	-10.845000	25.170173	0.000939	20.764254
931.531242	-3.007600	3.619400	-10.885000	25.159193	0.000937	20.750386
932.528411	-2.974300	3.621500	-10.770000	25.174852	0.000939	20.760417
933.530266	-3.000300	3.619100	-10.858000	25.162002	0.000938	20.754629
934.528718	-3.006100	3.619200	-10.877000	25.172522	0.000938	20.756655
935.530776	-3.009000	3.618900	-10.889000	25.196983	0.000937	20.749918
936.528871	-2.999800	3.618100	-10.853000	25.178888	0.000937	20.767788
937.528358	-3.005700	3.617100	-10.871000	25.203877	0.000935	20.772487
938.528887	-2.989300	3.617400	-10.813000	25.196020	0.000936	20.767443
939.528063	-3.018900	3.617500	-10.920000	25.223468	0.000936	20.803061
940.530374	-3.001000	3.618200	-10.857000	25.212955	0.000934	20.763108
941.530397	-2.995200	3.617800	-10.835000	25.218794	0.000934	20.775609
942.533554	-2.980400	3.616800	-10.779000	25.214102	0.000935	20.764734
943.531929	-3.001300	3.617100	-10.855000	25.172908	0.000935	20.758465
944.533767	-2.999000	3.615500	-10.842000	25.161628	0.000935	20.768478
945.533184	-2.999400	3.614700	-10.841000	25.158573	0.000933	20.754505
946.534941	-3.010400	3.616000	-10.884000	25.188800	0.000932	20.767782
947.534944	-3.008100	3.614400	-10.870000	25.185427	0.000932	20.764869
948.534068	-3.025600	3.613900	-10.932000	25.167179	0.000932	20.769783
949.536045	-3.022400	3.613200	-10.918000	25.175404	0.000932	20.775670
950.533980	-3.003900	3.614400	-10.856000	25.220352	0.000930	20.779069
951.533851	-3.004900	3.613900	-10.858000	25.208771	0.000930	20.770762
952.537977	-2.981700	3.614200	-10.775000	25.192290	0.000931	20.774605
953.532089	-3.015200	3.611800	-10.889000	25.169025	0.000929	20.784913
954.534389	-3.006700	3.613200	-10.861000	25.159849	0.000930	20.784236
955.536304	-3.004400	3.612500	-10.852000	25.167835	0.000929	20.771865
956.533843	-3.016700	3.611700	-10.895000	25.173729	0.000928	20.790585
957.533865	-3.001100	3.611100	-10.836000	25.171018	0.000929	20.766526
958.536096	-3.005300	3.611400	-10.853000	25.189591	0.000928	20.789439
959.533778	-2.996300	3.611700	-10.820000	25.184997	0.000928	20.794310
960.533871	-2.991500	3.611500	-10.802000	25.212390	0.000927	20.785301
961.535095	-3.012700	3.610500	-10.877000	25.187610	0.000927	20.780338
962.536669	-3.023400	3.609100	-10.911000	25.232355	0.000927	20.790646
963.535874	-2.999300	3.610300	-10.826000	25.228803	0.000927	20.765743
964.537409	-3.004500	3.610600	-10.848000	25.250184	0.000926	20.778201
965.536315	-3.012400	3.609700	-10.873000	25.269057	0.000925	20.777708
966.536470	-3.009400	3.608200	-10.858000	25.310063	0.000926	20.777154
967.536338	-3.018100	3.608600	-10.890000	25.290854	0.000924	20.789636
968.535532	-3.013200	3.608900	-10.873000	25.322427	0.000925	20.806638
969.537094	-2.992700	3.609800	-10.801000	25.371667	0.000925	20.802500
970.538456	-2.983200	3.608700	-10.765000	25.342819	0.000923	20.785861
971.538138	-3.009500	3.608200	-10.858000	25.341972	0.000923	20.782641
972.539544	-2.991700	3.607800	-10.792000	25.311038	0.000922	20.788564
973.546492	-2.990700	3.608600	-10.791000	25.237415	0.000921	20.782924
974.538151	-2.985100	3.607700	-10.768000	25.230858	0.000921	20.778712
975.538124	-3.003700	3.604600	-10.826000	25.228999	0.000921	20.787277
976.541664	-3.001600	3.606900	-10.825000	25.234029	0.000921	20.802758
977.546101	-2.992900	3.606400	-10.792000	25.205894	0.000920	20.803436
978.541563	-2.994400	3.606000	-10.796000	25.202815	0.000921	20.785646
979.543276	-3.017500	3.605900	-10.879000	25.196430	0.000919	20.791563
980.542120	-2.978800	3.605600	-10.739000	25.178832	0.000920	20.804716
981.540216	-2.981100	3.606800	-10.751000	25.175410	0.000920	20.790375
982.545972	-3.000000	3.605300	-10.815000	25.197111	0.000919	20.784660
983.544613	-3.024900	3.604900	-10.904000	25.170147	0.000916	20.786514
984.541082	-2.982700	3.604400	-10.749000	25.198565	0.000918	20.803663
985.545336	-2.991900	3.605200	-10.785000	25.208930	0.000917	20.790837
986.547201	-2.983200	3.603800	-10.749000	25.217910	0.000916	20.794162
987.542327	-2.988300	3.603900	-10.768000	25.235090	0.000915	20.792918
988.546531	-2.975100	3.603000	-10.718000	25.219811	0.000914	20.798916
989.551339	-2.992900	3.602700	-10.782000	25.230944	0.000916	20.785436
990.543972	-2.995700	3.601300	-10.787000	25.204030	0.000914	20.791607
991.549591	-3.008400	3.602100	-10.835000	25.204980	0.000914	20.789716
992.549992	-2.991900	3.602200	-10.776000	25.156291	0.000913	20.799156
993.544323	-2.997300	3.601300	-10.793000	25.166166	0.000912	20.806700
994.548021	-3.018000	3.600600	-10.865000	25.147323	0.000912	20.789205
995.549387	-3.025200	3.600100	-10.889000	25.168252	0.000913	20.814009
996.546362	-3.014200	3.599500	-10.848000	25.183899	0.000912	20.795579
997.549848	-3.019900	3.599100	-10.867000	25.180820	0.000910	20.821410
998.546263	-2.982300	3.601400	-10.739000	25.196216	0.000910	20.810314
999.546371	-2.996500	3.600400	-10.788000	25.192861	0.000909	20.823541
1000.549339	-3.004600	3.597000	-10.807000	25.219064	0.000909	20.818553
1001.546573	-2.993100	3.599400	-10.772000	25.241064	0.000910	20.820727
1002.546048	-2.971600	3.599800	-10.695000	25.235600	0.000908	20.819982
1003.550156	-2.999500	3.597400	-10.789000	25.275871	0.000909	20.802094
1004.548156	-2.986900	3.598900	-10.749000	25.303268	0.000908	20.817273
1005.548936	-2.990200	3.597500	-10.756000	25.283930	0.000907	20.805918
1006.553421	-3.005300	3.597300	-10.810000	25.270038	0.000908	20.797660
1007.551014	-3.012700	3.596000	-10.832000	25.233330	0.000908	20.806799
1008.549250	-3.001700	3.597200	-10.796000	25.232785	0.000910	20.835647
1009.552576	-3.005300	3.596000	-10.806000	25.248523	0.000908	20.806405
1010.548211	-3.014600	3.595500	-10.838000	25.285758	0.000908	20.811546
1011.547499	-3.020900	3.594400	-10.857000	25.276939	0.000905	20.806485
1012.548828	-2.992700	3.597500	-10.765000	25.250394	0.000907	20.810179
1013.549817	-3.008100	3.595600	-10.815000	25.315638	0.000905	20.827797
1014.549979	-2.991300	3.594200	-10.750000	25.312756	0.000905	20.821583
1015.551607	-2.985100	3.595000	-10.729000	25.312633	0.000907	20.814822
1016.550792	-2.988500	3.594200	-10.741000	25.299840	0.000903	20.809564
1017.550850	-2.997800	3.593700	-10.772000	25.263047	0.000904	20.817667
1018.550208	-2.992500	3.594800	-10.756000	25.288230	0.000902	20.837261
1019.555402	-2.993000	3.593800	-10.754000	25.269714	0.000902	20.821516
1020.550712	-2.983900	3.592700	-10.719000	25.278435	0.000902	20.813677
1021.551557	-2.997200	3.592900	-10.766000	25.253283	0.000903	20.797907
1022.550436	-2.998500	3.590900	-10.767000	25.272369	0.000902	20.827027
1023.550911	-2.974300	3.592400	-10.684000	25.285844	0.000902	20.823960
1024.550812	-2.990100	3.591100	-10.737000	25.310775	0.000901	20.850414
1025.554599	-3.006600	3.590600	-10.794000	25.328273	0.000899	20.830050
1026.551604	-2.985600	3.591400	-10.722000	25.329015	0.000897	20.821787
1027.551663	-3.005400	3.591400	-10.792000	25.349646	0.000901	20.829699
1028.555567	-3.020400	3.589000	-10.838000	25.384124	0.000898	20.828283
1029.552173	-3.021400	3.589300	-10.844000	25.367516	0.000899	20.817772
1030.553659	-2.997000	3.590500	-10.760000	25.360654	0.000899	20.831744
1031.559677	-2.968700	3.591100	-10.659000	25.338312	0.000898	20.846294
1032.557094	-2.989500	3.588800	-10.727000	25.363469	0.000896	20.834570
1033.554633	-3.016600	3.586900	-10.818000	25.360261	0.000895	20.841307
1034.558766	-2.971500	3.590400	-10.668000	25.344623	0.000896	20.836984
1035.554800	-2.977200	3.588900	-10.682000	25.326335	0.000898	20.848967
1036.556510	-3.008100	3.587700	-10.791000	25.356533	0.000897	20.839933
1037.558693	-2.984100	3.588000	-10.704000	25.356784	0.000894	20.840660
1038.555106	-2.987000	3.588300	-10.717000	25.370699	0.000894	20.834718
1039.561109	-2.972600	3.588100	-10.665000	25.351712	0.000895	20.864016
1040.560108	-2.999900	3.587500	-10.762000	25.334957	0.000893	20.840081
1041.558109	-2.988200	3.588000	-10.720000	25.323305	0.000891	20.862993
1042.560631	-2.978100	3.587600	-10.681000	25.292266	0.000892	20.831356
1043.558907	-2.998300	3.587400	-10.755000	25.272946	0.000891	20.846097
1044.557826	-2.987500	3.586700	-10.714000	25.265641	0.000892	20.843505
1045.559367	-3.002200	3.586800	-10.766000	25.275191	0.000891	20.838868
1046.560849	-2.996000	3.586000	-10.743000	25.266537	0.000889	20.822594
1047.558475	-2.991900	3.583800	-10.721000	25.285623	0.000891	20.825635
1048.560676	-3.024000	3.584300	-10.838000	25.327573	0.000890	20.839305
1049.562522	-2.985500	3.584200	-10.699000	25.353975	0.000891	20.834521
1050.565570	-2.988300	3.584400	-10.711000	25.369510	0.000888	20.846799
1051.564079	-2.987400	3.583800	-10.706000	25.388024	0.000890	20.839786
1052.569243	-2.980100	3.584600	-10.681000	25.407237	0.000888	20.829681
1053.570664	-2.999200	3.583200	-10.745000	25.385436	0.000888	20.844773
1054.563251	-2.997500	3.583000	-10.739000	25.406360	0.000888	20.842076
1055.565415	-3.006700	3.581200	-10.766000	25.406685	0.000886	20.837187
1056.563756	-2.978800	3.583300	-10.672000	25.417227	0.000887	20.832126
1057.563709	-2.990200	3.582700	-10.712000	25.403705	0.000887	20.847470
1058.568820	-2.991600	3.582000	-10.715000	25.418122	0.000884	20.829706
1059.569309	-2.994000	3.580800	-10.720000	25.429584	0.000886	20.826516
1060.567499	-3.005300	3.580800	-10.760000	25.422967	0.000884	20.842630
1061.568444	-2.979200	3.580400	-10.664000	25.387607	0.000883	20.830833
1062.570062	-3.011600	3.579700	-10.778000	25.387674	0.000888	20.837064
1063.568191	-3.002900	3.578900	-10.746000	25.351596	0.000882	20.828339
1064.569990	-3.000400	3.580000	-10.741000	25.385295	0.000883	20.822821
1065.572638	-3.007300	3.578500	-10.760000	25.343942	0.000881	20.849576
1066.566127	-3.022800	3.577600	-10.812000	25.329002	0.000882	20.833154
1067.568912	-2.983600	3.579200	-10.678000	25.328285	0.000881	20.825322
1068.570791	-3.020600	3.577300	-10.803000	25.334406	0.000882	20.802070
1069.566876	-3.010000	3.578400	-10.770000	25.360231	0.000880	20.818043
1070.570435	-2.980000	3.578500	-10.663000	25.388221	0.000881	20.830974
1071.583803	-2.996900	3.577200	-10.719000	25.392667	0.000880	20.844921
1072.568894	-3.010500	3.576100	-10.765000	25.426910	0.000877	20.819090
1073.569940	-2.964500	3.577000	-10.602000	25.460840	0.000877	20.839885
1074.576861	-2.984500	3.576600	-10.674000	25.470854	0.000878	20.835242
1075.572733	-3.003600	3.576900	-10.742000	25.473215	0.000876	20.827181
1076.572756	-2.987900	3.575800	-10.683000	25.516065	0.000877	20.834177
1077.572801	-2.990200	3.575400	-10.691000	25.535098	0.000874	20.792599
1078.573257	-2.986700	3.575800	-10.678000	25.527698	0.000877	20.822151
1079.574594	-2.975900	3.575400	-10.639000	25.525882	0.000875	20.814638
1080.573784	-3.003400	3.573900	-10.733000	25.537539	0.000874	20.833456
1081.571759	-3.005500	3.575000	-10.743000	25.537521	0.000873	20.836757
1082.571179	-2.987900	3.573000	-10.673000	25.548055	0.000873	20.819361
1083.570208	-2.998100	3.573100	-10.711000	25.528771	0.000872	20.820858
1084.571026	-2.980800	3.574700	-10.653000	25.510093	0.000872	20.809214
1085.573294	-2.995700	3.572400	-10.701000	25.463968	0.000871	20.799404
1086.573364	-2.989300	3.574000	-10.683000	25.460491	0.000872	20.824362
1087.573660	-2.991200	3.572200	-10.685000	25.466734	0.000872	20.800759
1088.573594	-3.017500	3.571500	-10.776000	25.489398	0.000871	20.820673
1089.578297	-2.989700	3.573900	-10.684000	25.500957	0.000870	20.812367
1090.574018	-2.979900	3.573800	-10.648000	25.524240	0.000870	20.815833
1091.574544	-2.998500	3.572300	-10.711000	25.523676	0.000868	20.817164
1092.574219	-2.987000	3.571400	-10.667000	25.516415	0.000868	20.812243
1093.582040	-2.991100	3.572300	-10.683000	25.491845	0.000867	20.809854
1094.579487	-3.005600	3.570300	-10.729000	25.482678	0.000866	20.821037
1095.576364	-2.999500	3.570600	-10.709000	25.502533	0.000863	20.820113
1096.578317	-2.996900	3.570500	-10.700000	25.517918	0.000865	20.814701
1097.578769	-2.987200	3.568500	-10.659000	25.513644	0.000866	20.802348
1098.575925	-3.015200	3.569400	-10.761000	25.515024	0.000866	20.809898
1099.575984	-3.006500	3.569300	-10.730000	25.484125	0.000864	20.788826
1100.582148	-3.007400	3.568700	-10.731000	25.490441	0.000863	20.796117
1101.581764	-3.019700	3.568200	-10.774000	25.470837	0.000864	20.795870
1102.578707	-3.018900	3.567100	-10.767000	25.471585	0.000863	20.786665
1103.580755	-3.002300	3.568100	-10.711000	25.489356	0.000861	20.786018
1104.583068	-3.011900	3.567400	-10.743000	25.506685	0.000862	20.791566
1105.580544	-2.986600	3.567000	-10.652000	25.503723	0.000860	20.798549
1106.578508	-2.999800	3.566300	-10.697000	25.482727	0.000860	20.804966
1107.583584	-3.000000	3.566100	-10.697000	25.448314	0.000859	20.800754
1108.579588	-2.981400	3.566100	-10.631000	25.443046	0.000857	20.798309
1109.579813	-2.982400	3.565600	-10.633000	25.423987	0.000859	20.792921
1110.583191	-3.011400	3.566300	-10.738000	25.394239	0.000857	20.800508
1111.581075	-3.011800	3.563600	-10.732000	25.415071	0.000857	20.788710
1112.580284	-3.009800	3.563800	-10.725000	25.431009	0.000856	20.798076
1113.580987	-3.013300	3.565100	-10.741000	25.426808	0.000855	20.797177
1114.582333	-3.011600	3.562000	-10.727000	25.430494	0.000855	20.787602
1115.581898	-3.010700	3.563600	-10.728000	25.432015	0.000855	20.779646
1116.581100	-3.014000	3.563300	-10.739000	25.442011	0.000854	20.784468
1117.581223	-3.004100	3.562800	-10.701000	25.464504	0.000854	20.771967
1118.581093	-2.985800	3.563900	-10.640000	25.510531	0.000852	20.794955
1119.582604	-2.997500	3.561100	-10.672000	25.514860	0.000851	20.803095
1120.581722	-3.008600	3.560400	-10.711000	25.541006	0.000851	20.773876
1121.583843	-3.005000	3.560900	-10.700000	25.600004	0.000853	20.798988
1122.587163	-2.989700	3.561600	-10.647000	25.604204	0.000852	20.789456
1123.595246	-3.001700	3.560600	-10.687000	25.574786	0.000853	20.782670
1124.585436	-3.005200	3.561300	-10.701000	25.572848	0.000851	20.798268
1125.585166	-3.003100	3.560100	-10.690000	25.548972	0.000852	20.785669
1126.588407	-3.010700	3.559800	-10.716000	25.574001	0.000850	20.786624
1127.584665	-2.977700	3.560800	-10.601000	25.568409	0.000850	20.783379
1128.585335	-3.008400	3.559300	-10.706000	25.556281	0.000851	20.790165
1129.585117	-3.020700	3.558200	-10.746000	25.570249	0.000849	20.780485
1130.585711	-2.989900	3.559600	-10.642000	25.574375	0.000847	20.781784
1131.586054	-3.009100	3.558700	-10.708000	25.601231	0.000846	20.783151
1132.588051	-3.003300	3.558800	-10.687000	25.627302	0.000847	20.776143
1133.583868	-3.003600	3.558500	-10.687000	25.654009	0.000846	20.774043
1134.586823	-3.024200	3.556200	-10.752000	25.664671	0.000846	20.786174
1135.588462	-2.995600	3.557100	-10.655000	25.666013	0.000846	20.780411
1136.587167	-2.992500	3.555900	-10.640000	25.657264	0.000843	20.774468
1137.589772	-3.003500	3.555800	-10.678000	25.618773	0.000843	20.780854
1138.590292	-3.007800	3.555200	-10.692000	25.579783	0.000842	20.761136
1139.589945	-3.014500	3.555000	-10.716000	25.586841	0.000845	20.783871
1140.589202	-3.008500	3.555200	-10.694000	25.582941	0.000843	20.783274
1141.594133	-2.996700	3.556100	-10.655000	25.599619	0.000842	20.759720
1142.589400	-2.991300	3.556100	-10.636000	25.607166	0.000842	20.765878
1143.589550	-3.017200	3.554700	-10.724000	25.602371	0.000843	20.761062
1144.589338	-3.007000	3.555500	-10.689000	25.605707	0.000842	20.760619
1145.588802	-2.993100	3.554900	-10.639000	25.583836	0.000841	20.767103
1146.589438	-2.979600	3.554100	-10.589000	25.623476	0.000844	20.759972
1147.593802	-3.005100	3.554000	-10.679000	25.631526	0.000843	20.780860
1148.592461	-2.995300	3.554200	-10.645000	25.599821	0.000842	20.775571
1149.595463	-2.989900	3.552900	-10.622000	25.603690	0.000841	20.785146
1150.591855	-3.001000	3.552300	-10.659000	25.655100	0.000841	20.775139
1151.592918	-3.008200	3.552500	-10.685000	25.621416	0.000840	20.764068
1152.592530	-2.998000	3.551500	-10.646000	25.632544	0.000842	20.761019
1153.597360	-2.995000	3.551400	-10.636000	25.618233	0.000841	20.769406
1154.592387	-2.995100	3.550700	-10.632000	25.631354	0.000840	20.780688
1155.595646	-3.015900	3.550300	-10.706000	25.627473	0.000837	20.773945
1156.594307	-3.007900	3.550900	-10.680000	25.606952	0.000837	20.767085
1157.598171	-3.009700	3.548400	-10.677000	25.631826	0.000837	20.760773
1158.597452	-2.993200	3.550200	-10.625000	25.638834	0.000837	20.767337
1159.600309	-2.999200	3.550500	-10.648000	25.657320	0.000836	20.765989
1160.598271	-2.995700	3.548400	-10.627000	25.657712	0.000836	20.761167
1161.597826	-3.004100	3.547600	-10.656000	25.656725	0.000832	20.771082
1162.604058	-3.014800	3.547400	-10.694000	25.601906	0.000833	20.768181
1163.597819	-2.991600	3.548400	-10.614000	25.559715	0.000832	20.755206
1164.596087	-3.008300	3.546600	-10.668000	25.534146	0.000831	20.764141
1165.597965	-3.014600	3.546100	-10.688000	25.510440	0.000829	20.771630
1166.599512	-3.007100	3.546700	-10.663000	25.504253	0.000830	20.767787
1167.597536	-2.998000	3.546000	-10.629000	25.515162	0.000829	20.749818
1168.599998	-2.990800	3.545800	-10.604000	25.525298	0.000829	20.757152
1169.600765	-2.997600	3.546300	-10.629000	25.550524	0.000829	20.762571
1170.597661	-3.031900	3.545500	-10.748000	25.584940	0.000830	20.786704
1171.604557	-2.987800	3.545600	-10.592000	25.564565	0.000829	20.757232
1172.601207	-2.997300	3.545900	-10.627000	25.574112	0.000829	20.769665
1173.599278	-2.990500	3.545300	-10.600000	25.590882	0.000829	20.743358
1174.608599	-3.019200	3.544400	-10.700000	25.573291	0.000827	20.765521
1175.603478	-2.985200	3.543700	-10.578000	25.559948	0.000827	20.782942
1176.599730	-3.006100	3.544400	-10.653000	25.565135	0.000826	20.749270
1177.604700	-3.015200	3.542000	-10.678000	25.594395	0.000827	20.739774
1178.603512	-3.010300	3.542100	-10.662000	25.587926	0.000822	20.767892
1179.599581	-2.990800	3.543200	-10.596000	25.589079	0.000824	20.777111
1180.601894	-2.980500	3.543500	-10.560000	25.636634	0.000824	20.751850
1181.602906	-3.005300	3.542600	-10.646000	25.612231	0.000821	20.750101
1182.600864	-3.000600	3.540900	-10.624000	25.630797	0.000823	20.739350
1183.602071	-3.007700	3.540400	-10.647000	25.644316	0.000825	20.749135
1184.605280	-2.996400	3.541700	-10.611000	25.693983	0.000821	20.754923
1185.604106	-2.989500	3.541000	-10.585000	25.665518	0.000821	20.753834
1186.602337	-3.001200	3.540000	-10.623000	25.664917	0.000821	20.745643
1187.604424	-2.990000	3.540600	-10.586000	25.664843	0.000821	20.745569
1188.608567	-3.003200	3.540100	-10.631000	25.666738	0.000819	20.751266
1189.604097	-3.001700	3.538700	-10.621000	25.690839	0.000819	20.756981
1190.604397	-2.985800	3.540100	-10.569000	25.685247	0.000818	20.757529
1191.604575	-3.015600	3.538400	-10.669000	25.653820	0.000819	20.765319
1192.608195	-3.015500	3.537700	-10.667000	25.675260	0.000816	20.766938
1193.603582	-2.984600	3.540500	-10.566000	25.637726	0.000817	20.744412
1194.606011	-2.985500	3.538200	-10.561000	25.639663	0.000815	20.756316
1195.605856	-3.003500	3.536700	-10.621000	25.652833	0.000814	20.749628
1196.605923	-3.001600	3.537500	-10.617000	25.627364	0.000814	20.747282
1197.607782	-3.013700	3.537000	-10.658000	25.602692	0.000814	20.737675
1198.606817	-3.010400	3.535500	-10.641000	25.592256	0.000814	20.746161
1199.606895	-3.000300	3.536900	-10.611000	25.623863	0.000811	20.737602
1200.610730	-2.980000	3.535800	-10.535000	25.646800	0.000811	20.746888
1201.608795	-2.988600	3.535400	-10.565000	25.662054	0.000812	20.731862
1202.607835	-3.018100	3.534800	-10.668000	25.646328	0.000813	20.748785
1203.607391	-3.021000	3.534800	-10.677000	25.686431	0.000813	20.759192
1204.608131	-3.000100	3.535300	-10.604000	25.690680	0.000810	20.736432
1205.605200	-2.995100	3.534000	-10.584000	25.697687	0.000809	20.768127
1206.608424	-3.020500	3.532800	-10.669000	25.663256	0.000810	20.760097
1207.608493	-2.990700	3.533100	-10.565000	25.624195	0.000809	20.734615
1208.607091	-3.015300	3.533100	-10.652000	25.614924	0.000808	20.729097
1209.609092	-2.993800	3.532500	-10.575000	25.628940	0.000809	20.743649
1210.618329	-2.994300	3.531600	-10.574000	25.617352	0.000806	20.750029
1211.609303	-2.997000	3.533200	-10.587000	25.603220	0.000808	20.733938
1212.608914	-2.990800	3.533100	-10.566000	25.613931	0.000808	20.746118
1213.609551	-2.995300	3.531800	-10.578000	25.631896	0.000806	20.720063
1214.609823	-2.980800	3.532100	-10.528000	25.629204	0.000807	20.730637
1215.609332	-3.009000	3.530500	-10.623000	25.633858	0.000806	20.707808
1216.609568	-2.992900	3.530200	-10.564000	25.651969	0.000806	20.752554
1217.610528	-3.001300	3.529400	-10.592000	25.645108	0.000804	20.735231
1218.610528	-3.020900	3.530100	-10.664000	25.613680	0.000802	20.719312
1219.613527	-2.986000	3.530600	-10.541000	25.609780	0.000803	20.742424
1220.611260	-3.009500	3.529200	-10.620000	25.577277	0.000802	20.734911
1221.609940	-2.996200	3.529600	-10.573000	25.536649	0.000801	20.731093
1222.611011	-2.989000	3.530100	-10.551000	25.517641	0.000803	20.739979
1223.612080	-3.004500	3.527900	-10.598000	25.508848	0.000801	20.731148
1224.610295	-3.013100	3.527700	-10.628000	25.514483	0.000801	20.730643
1225.622482	-3.007400	3.526100	-10.603000	25.506432	0.000801	20.722083
1226.611898	-2.998700	3.527000	-10.574000	25.524226	0.000799	20.719564
1227.612128	-2.989200	3.526300	-10.540000	25.553174	0.000797	20.723980
1228.614641	-2.995900	3.526000	-10.561000	25.572857	0.000796	20.719564
1229.615305	-3.007600	3.525300	-10.602000	25.586702	0.000797	20.724460
1230.616127	-3.018100	3.525100	-10.637000	25.599921	0.000798	20.714028
1231.613375	-3.008000	3.524800	-10.601000	25.580141	0.000796	20.740158
1232.619596	-2.994100	3.524700	-10.552000	25.566425	0.000796	20.710734
1233.613075	-2.991600	3.525800	-10.546000	25.569601	0.000796	20.712027
1234.613170	-2.999900	3.523200	-10.568000	25.570846	0.000796	20.727502
1235.616070	-3.006600	3.523800	-10.593000	25.591552	0.000795	20.716529
1236.616128	-2.994600	3.523800	-10.551000	25.610559	0.000793	20.721868
1237.615046	-2.989300	3.523100	-10.530000	25.649964	0.000793	20.721141
1238.618078	-3.021600	3.522400	-10.642000	25.706645	0.000790	20.721172
1239.619248	-3.020800	3.521500	-10.637000	25.698025	0.000790	20.730059
1240.619084	-3.006000	3.523200	-10.590000	25.696456	0.000790	20.723266
1241.622207	-3.005500	3.521400	-10.582000	25.678866	0.000792	20.714133
1242.619043	-2.977800	3.522500	-10.488000	25.657923	0.000789	20.715858
1243.622570	-2.986800	3.521800	-10.518000	25.654514	0.000790	20.724762
1244.626112	-3.005500	3.520800	-10.580000	25.658248	0.000791	20.713339
1245.626598	-2.990600	3.521500	-10.530000	25.621246	0.000788	20.714583
1246.619022	-2.988400	3.519700	-10.517000	25.590461	0.000789	20.724916
1247.627362	-2.977000	3.520400	-10.479000	25.572268	0.000787	20.729406
1248.618895	-3.012400	3.519400	-10.601000	25.530794	0.000788	20.718573
1249.622578	-2.976100	3.521300	-10.478000	25.493592	0.000789	20.704446
1250.623683	-2.985300	3.519400	-10.505000	25.510418	0.000788	20.707593
1251.619080	-2.991300	3.518600	-10.523000	25.530800	0.000786	20.724744
1252.623290	-3.003000	3.518800	-10.566000	25.564812	0.000788	20.711959
1253.621690	-2.999400	3.518000	-10.551000	25.581417	0.000785	20.716781
1254.622191	-2.986000	3.517900	-10.502000	25.599057	0.000785	20.698460
1255.622908	-2.990200	3.517300	-10.516000	25.617690	0.000782	20.721443
1256.628100	-3.003700	3.517200	-10.563000	25.636629	0.000785	20.723870
1257.619664	-2.984200	3.516400	-10.493000	25.637151	0.000783	20.691674
1258.624139	-2.995800	3.517100	-10.535000	25.648236	0.000782	20.718457
1259.629686	-2.981500	3.517400	-10.486000	25.592282	0.000783	20.714417
1260.626888	-2.998000	3.516500	-10.542000	25.635808	0.000783	20.736321
1261.620153	-2.990900	3.516500	-10.515000	25.618119	0.000782	20.730884
1262.626319	-2.982900	3.514400	-10.483000	25.608867	0.000782	20.716849
1263.629391	-2.994700	3.515500	-10.527000	25.628702	0.000780	20.708320
1264.624779	-2.992800	3.515700	-10.521000	25.659780	0.000780	20.731949
1265.627122	-2.999700	3.514200	-10.539000	25.661025	0.000778	20.708541
1266.622781	-2.995600	3.513500	-10.523000	25.679087	0.000780	20.717200
1267.623725	-2.999800	3.513200	-10.538000	25.693071	0.000776	20.718918
1268.635915	-3.002000	3.512900	-10.545000	25.702642	0.000778	20.714780
1269.625054	-3.049600	3.510600	-10.703000	25.658082	0.000777	20.715543
1270.624845	-2.999500	3.511300	-10.531000	25.653637	0.000776	20.700172
1271.627459	-2.983000	3.511700	-10.474000	25.643625	0.000776	20.720938
1272.623735	-2.994800	3.511800	-10.516000	25.634526	0.000776	20.720808
1273.625598	-2.988200	3.511400	-10.491000	25.669136	0.000775	20.724749
1274.628736	-2.989400	3.510600	-10.493000	25.691446	0.000775	20.694524
1275.629542	-2.998000	3.511000	-10.524000	25.715295	0.000774	20.705677
1276.626647	-3.001400	3.510000	-10.534000	25.708661	0.000773	20.699962
1277.633849	-2.998900	3.509300	-10.522000	25.713088	0.000772	20.702512
1278.628760	-2.990200	3.509000	-10.491000	25.709844	0.000773	20.709686
1279.626113	-2.990800	3.508700	-10.492000	25.708330	0.000772	20.713855
1280.628969	-2.977300	3.510300	-10.450000	25.699385	0.000770	20.722889
1281.630647	-3.004200	3.506800	-10.535000	25.716324	0.000772	20.721885
1282.625437	-2.993200	3.506300	-10.495000	25.673641	0.000770	20.706040
1283.636792	-2.995800	3.508000	-10.509000	25.651716	0.000769	20.715314
1284.629939	-3.016100	3.505600	-10.572000	25.618676	0.000767	20.706785
1285.624923	-3.010900	3.505300	-10.552000	25.577773	0.000767	20.715967
1286.629215	-3.010800	3.504400	-10.549000	25.622299	0.000769	20.725124
1287.633635	-2.997300	3.505300	-10.505000	25.662004	0.000769	20.724225
1288.627395	-2.985500	3.506200	-10.467000	25.700690	0.000767	20.727045
1289.630164	-2.995400	3.505300	-10.498000	25.727445	0.000767	20.714563
1290.630739	-2.997400	3.504800	-10.504000	25.736641	0.000767	20.713842
1291.630902	-2.988500	3.504400	-10.471000	25.740215	0.000765	20.691826
1292.627097	-2.996200	3.503500	-10.495000	25.766380	0.000766	20.717161
1293.632674	-2.994500	3.504100	-10.492000	25.752341	0.000765	20.712069
1294.631922	-3.003500	3.503600	-10.522000	25.732092	0.000764	20.717334
1295.630896	-3.026400	3.501400	-10.595000	25.746879	0.000764	20.737878
1296.632144	-2.995500	3.502200	-10.490000	25.781100	0.000763	20.722464
1297.634631	-2.994700	3.502300	-10.488000	25.752225	0.000764	20.723332
1298.632217	-2.997400	3.502100	-10.496000	25.802807	0.000763	20.710129
1299.636152	-2.995600	3.500600	-10.485000	25.834163	0.000764	20.734990
1300.636805	-3.002600	3.500800	-10.511000	25.823785	0.000761	20.701803
1301.631263	-2.981800	3.501600	-10.440000	25.824551	0.000762	20.716324
1302.633785	-2.983600	3.500100	-10.442000	25.801176	0.000762	20.720820
1303.630451	-2.989900	3.499400	-10.461000	25.767067	0.000762	20.720223
1304.632792	-2.990800	3.499900	-10.466000	25.746248	0.000762	20.729657
1305.633720	-2.993200	3.499200	-10.472000	25.764063	0.000760	20.722421
1306.630812	-2.985500	3.499500	-10.447000	25.794274	0.000761	20.713886
1307.631958	-2.982400	3.498300	-10.431000	25.807295	0.000760	20.720328
1308.637523	-3.022300	3.496200	-10.565000	25.806578	0.000758	20.737626
1309.638229	-3.017600	3.496800	-10.551000	25.783412	0.000757	20.733322
1310.633559	-2.997400	3.498200	-10.484000	25.782063	0.000756	20.704938
1311.637107	-3.006400	3.496700	-10.511000	25.782793	0.000757	20.709939
1312.632139	-3.013200	3.495600	-10.532000	25.794968	0.000756	20.719325
1313.634344	-3.007300	3.496500	-10.514000	25.771586	0.000756	20.708640
1314.636006	-3.000800	3.495800	-10.488000	25.803342	0.000756	20.708295
1315.633039	-2.998200	3.495800	-10.479000	25.814529	0.000754	20.716689
1316.634587	-2.996400	3.496100	-10.475000	25.827635	0.000753	20.719423
1317.636257	-2.990500	3.495500	-10.452000	25.790830	0.000755	20.714694
1318.635348	-3.006500	3.494000	-10.504000	25.776865	0.000753	20.720581
1319.640388	-2.993400	3.493800	-10.457000	25.753269	0.000752	20.721062
1320.636685	-2.988500	3.494900	-10.443000	25.735006	0.000751	20.725003
1321.638218	-3.005500	3.492500	-10.496000	25.735743	0.000754	20.716259
1322.639740	-3.027500	3.492500	-10.572000	25.748537	0.000750	20.720102
1323.635669	-3.007300	3.492500	-10.502000	25.756317	0.000751	20.739297
1324.636706	-3.016900	3.491800	-10.533000	25.761509	0.000749	20.724123
1325.642945	-2.992900	3.491600	-10.449000	25.782758	0.000750	20.700895
1326.635598	-2.985800	3.491100	-10.423000	25.816523	0.000750	20.720115
1327.635660	-2.984800	3.492100	-10.422000	25.840970	0.000750	20.720965
1328.638180	-3.015300	3.489900	-10.521000	25.834791	0.000748	20.721870
1329.641923	-2.995700	3.489900	-10.454000	25.840308	0.000748	20.715558
1330.640219	-2.985500	3.490200	-10.419000	25.836826	0.000747	20.711112
1331.638819	-3.006400	3.489400	-10.489000	25.839714	0.000747	20.746257
1332.637245	-2.996100	3.488800	-10.452000	25.859262	0.000747	20.728909
1333.635522	-3.009900	3.486900	-10.494000	25.882844	0.000747	20.727468
1334.637100	-2.990400	3.489000	-10.433000	25.872436	0.000747	20.737876
1335.635999	-2.986400	3.488500	-10.417000	25.871474	0.000747	20.700871
1336.639216	-3.009500	3.486900	-10.493000	25.880239	0.000747	20.731016
1337.646158	-2.995900	3.487900	-10.447000	25.900388	0.000746	20.727075
1338.641544	-2.992400	3.485900	-10.430000	25.879663	0.000746	20.722376
1339.641583	-3.003900	3.487700	-10.476000	25.832346	0.000745	20.719888
1340.641773	-3.016800	3.484800	-10.513000	25.848235	0.000744	20.726366
1341.638469	-2.987700	3.485600	-10.413000	25.858926	0.000746	20.718613
1342.641166	-3.003700	3.484500	-10.466000	25.865135	0.000743	20.746664
1343.636694	-3.012700	3.483800	-10.495000	25.882770	0.000745	20.728343
1344.641671	-2.987900	3.486100	-10.415000	25.885560	0.000743	20.741103
1345.640298	-2.998100	3.484700	-10.446000	25.892640	0.000743	20.719291
1346.638773	-2.991100	3.484800	-10.422000	25.855800	0.000743	20.726853
1347.645254	-3.012300	3.483100	-10.491000	25.867005	0.000741	20.731946
1348.641595	-2.989200	3.482800	-10.410000	25.860446	0.000742	20.753807
1349.643030	-2.987300	3.482800	-10.403000	25.855751	0.000741	20.724433
1350.645665	-3.014100	3.481600	-10.493000	25.869236	0.000741	20.731816
1351.643107	-3.003900	3.481200	-10.454000	25.906677	0.000739	20.734816
1352.641977	-2.977500	3.481200	-10.364000	25.879822	0.000737	20.728701
1353.646138	-3.005800	3.480900	-10.462000	25.867729	0.000737	20.736940
1354.638802	-3.006900	3.481100	-10.466000	25.863848	0.000738	20.730197
1355.639463	-3.002700	3.480300	-10.449000	25.831427	0.000737	20.737457
1356.645035	-2.997700	3.479700	-10.430000	25.818633	0.000736	20.732666
1357.650756	-3.003600	3.479300	-10.449000	25.785843	0.000737	20.719168
1358.644118	-3.008900	3.479500	-10.468000	25.754289	0.000736	20.718767
1359.646756	-2.952400	3.480500	-10.275000	25.765520	0.000736	20.753758
1360.645395	-3.008200	3.478600	-10.463000	25.715654	0.000735	20.734015
1361.645634	-3.016100	3.477300	-10.487000	25.716028	0.000736	20.730597
1362.645020	-3.011100	3.476600	-10.467000	25.708996	0.000733	20.736811
1363.645591	-3.001000	3.478100	-10.437000	25.745988	0.000733	20.745992
1364.644702	-2.996000	3.477200	-10.417000	25.728375	0.000731	20.759122
1365.643811	-2.993400	3.478800	-10.412000	25.721018	0.000732	20.748887
1366.645415	-3.012000	3.476100	-10.469000	25.733096	0.000729	20.740155
1367.647058	-3.009200	3.476400	-10.460000	25.725420	0.000730	20.718693
1368.646710	-3.002100	3.476000	-10.433000	25.740642	0.000729	20.750106
1369.647396	-3.019500	3.474000	-10.489000	25.749066	0.000730	20.726323
1370.648222	-2.974500	3.475600	-10.337000	25.749691	0.000727	20.746867
1371.649440	-3.002100	3.473600	-10.427000	25.697617	0.000727	20.728226
1372.645796	-2.954100	3.475000	-10.263000	25.693013	0.000726	20.754423
1373.647421	-2.996700	3.472400	-10.405000	25.692418	0.000728	20.742919
1374.649551	-2.992900	3.473300	-10.395000	25.669660	0.000727	20.753253
1375.643394	-3.038200	3.472000	-10.547000	25.675392	0.000727	20.761381
1376.647059	-3.018100	3.471400	-10.476000	25.699744	0.000725	20.748381
1377.650313	-2.982900	3.471300	-10.354000	25.728792	0.000725	20.753376
1378.647293	-3.016100	3.471100	-10.468000	25.719805	0.000725	20.748616
1379.648351	-3.000600	3.470800	-10.413000	25.703031	0.000725	20.750734
1380.653887	-3.007700	3.469500	-10.432000	25.691848	0.000724	20.750408
1381.652432	-3.009600	3.470400	-10.443000	25.672793	0.000722	20.746442
1382.650880	-3.021500	3.469900	-10.483000	25.706317	0.000722	20.750242
1383.648468	-3.004000	3.470900	-10.425000	25.730380	0.000721	20.745961
1384.646884	-2.978900	3.470800	-10.338000	25.756821	0.000722	20.743597
1385.648075	-2.977000	3.469000	-10.325000	25.780779	0.000721	20.744903
1386.648307	-3.015200	3.467800	-10.454000	25.773625	0.000719	20.740087
1387.651870	-3.007000	3.467200	-10.425000	25.792188	0.000720	20.759683
1388.651432	-2.997300	3.467900	-10.393000	25.751984	0.000720	20.767663
1389.654527	-3.006500	3.466600	-10.421000	25.762173	0.000719	20.750396
1390.652958	-3.007300	3.465400	-10.420000	25.749183	0.000719	20.772436
1391.651175	-3.000800	3.465700	-10.399000	25.776072	0.000718	20.752503
1392.655936	-3.011100	3.465900	-10.436000	25.807495	0.000718	20.754670
1393.654170	-3.007800	3.466100	-10.424000	25.823324	0.000717	20.753026
1394.650006	-2.993900	3.466600	-10.377000	25.867968	0.000717	20.757571
1395.660351	-3.017400	3.462800	-10.448000	25.879891	0.000718	20.765281
1396.649687	-3.012100	3.463500	-10.431000	25.884366	0.000715	20.761241
1397.657752	-2.991100	3.463800	-10.359000	25.883943	0.000715	20.773619
1398.654136	-3.012800	3.462200	-10.430000	25.837098	0.000714	20.763545
1399.653637	-2.985300	3.463400	-10.339000	25.831648	0.000714	20.761389
1400.652349	-2.969800	3.465700	-10.291000	25.821546	0.000713	20.771156
1401.661731	-2.987900	3.463700	-10.348000	25.834769	0.000713	20.761679
1402.656476	-3.009000	3.463200	-10.420000	25.870844	0.000712	20.755718
1403.652589	-2.993600	3.463100	-10.366000	25.870593	0.000713	20.761156
1404.654743	-3.013400	3.461400	-10.430000	25.851541	0.000712	20.761932
1405.650439	-2.983000	3.462200	-10.327000	25.848520	0.000711	20.756051
1406.659704	-3.001200	3.461000	-10.386000	25.841905	0.000710	20.763157
1407.652833	-3.009900	3.460600	-10.414000	25.863967	0.000711	20.751180
1408.657814	-2.998800	3.459700	-10.374000	25.853044	0.000710	20.762493
1409.651880	-2.995700	3.458300	-10.359000	25.823828	0.000708	20.768232
1410.660156	-3.013400	3.459100	-10.422000	25.764156	0.000710	20.773725
1411.659572	-2.983300	3.459800	-10.321000	25.727563	0.000711	20.763521
1412.654547	-3.020900	3.457900	-10.445000	25.735214	0.000707	20.771206
1413.655157	-3.004500	3.457100	-10.386000	25.768362	0.000707	20.760880
1414.652625	-3.024000	3.456500	-10.451000	25.783369	0.000705	20.769790
1415.661555	-2.998300	3.457600	-10.364000	25.809386	0.000705	20.774114
1416.663037	-3.013500	3.455700	-10.412000	25.810257	0.000704	20.778781
1417.660314	-3.012900	3.454800	-10.408000	25.819054	0.000705	20.773868
1418.658139	-3.023800	3.454300	-10.443000	25.842703	0.000704	20.752579
1419.660486	-3.021000	3.456000	-10.439000	25.782658	0.000704	20.766232
1420.658361	-3.000100	3.455400	-10.365000	25.775903	0.000703	20.782680
1421.661440	-3.001400	3.455100	-10.368000	25.816529	0.000702	20.761848
1422.657585	-2.981600	3.455200	-10.300000	25.812501	0.000702	20.775820
1423.661574	-3.011800	3.453100	-10.398000	25.795018	0.000700	20.781492
1424.657689	-2.985800	3.452600	-10.306000	25.835888	0.000701	20.771338
1425.660488	-2.992500	3.453300	-10.333000	25.814475	0.000701	20.764527
1426.658610	-2.995000	3.453800	-10.342000	25.800143	0.000700	20.759613
1427.657044	-2.972000	3.453200	-10.262000	25.810332	0.000699	20.774115
1428.661377	-2.999400	3.452900	-10.355000	25.859544	0.000699	20.775661
1429.662751	-3.011600	3.451700	-10.394000	25.863847	0.000700	20.767656
1430.668544	-3.004100	3.451500	-10.368000	25.884573	0.000698	20.769510
1431.662968	-3.007000	3.450800	-10.376000	25.888324	0.000700	20.769485
1432.663690	-2.998400	3.451600	-10.348000	25.872902	0.000698	20.764423
1433.659013	-2.999900	3.450000	-10.349000	25.885940	0.000696	20.764719
1434.658362	-3.001800	3.449200	-10.354000	25.881576	0.000696	20.782621
1435.666023	-2.998200	3.448300	-10.338000	25.880362	0.000697	20.760064
1436.660023	-2.994600	3.449800	-10.330000	25.905954	0.000696	20.793360
1437.664563	-2.970600	3.449700	-10.247000	25.899794	0.000695	20.768679
1438.669056	-3.012000	3.448000	-10.385000	25.891875	0.000696	20.787277
1439.665916	-3.003600	3.447600	-10.354000	25.898636	0.000694	20.775103
1440.664131	-2.995900	3.447700	-10.327000	25.919158	0.000694	20.770115
1441.666919	-2.979000	3.449100	-10.273000	25.925398	0.000693	20.776858
1442.661320	-3.022000	3.446800	-10.415000	25.937253	0.000693	20.778811
1443.665204	-3.006100	3.445900	-10.357000	25.971510	0.000694	20.793787
1444.666274	-3.014200	3.445500	-10.384000	26.006833	0.000692	20.796558
1445.662253	-3.010200	3.446400	-10.374000	26.020421	0.000692	20.771329
1446.669124	-3.004300	3.446000	-10.352000	26.028432	0.000691	20.789336
1447.664898	-3.022000	3.444600	-10.409000	26.061142	0.000690	20.787113
1448.661575	-3.005900	3.444500	-10.353000	26.074981	0.000689	20.786319
1449.665517	-3.006400	3.442800	-10.349000	26.064654	0.000688	20.795858
1450.669618	-3.006200	3.443900	-10.352000	26.026442	0.000688	20.786862
1451.666942	-2.996900	3.443100	-10.318000	25.971697	0.000690	20.780224
1452.665709	-2.999600	3.442200	-10.325000	25.940474	0.000688	20.793900
1453.666734	-2.992300	3.441600	-10.296000	25.873483	0.000688	20.772594
1454.665952	-2.988600	3.442900	-10.288000	25.875207	0.000687	20.785705
1455.666552	-2.999600	3.441700	-10.321000	25.885076	0.000688	20.779499
1456.667293	-3.000700	3.441100	-10.324000	25.910692	0.000688	20.791008
1457.668767	-3.015400	3.439000	-10.368000	25.936780	0.000686	20.785922
1458.666256	-3.003000	3.439300	-10.327000	25.926323	0.000685	20.799599
1459.667059	-3.022000	3.439500	-10.392000	25.944118	0.000685	20.797561
1460.664472	-2.986700	3.439600	-10.272000	25.950774	0.000683	20.786231
1461.664495	-2.990700	3.439100	-10.283000	25.962457	0.000684	20.809348
1462.666828	-2.987200	3.438400	-10.270000	26.010749	0.000683	20.806183
1463.669197	-2.978200	3.438100	-10.238000	26.058648	0.000681	20.798357
1464.671305	-3.005400	3.438200	-10.332000	26.061829	0.000682	20.811036
1465.668617	-2.998500	3.439700	-10.313000	26.075238	0.000682	20.797483
1466.675658	-3.010000	3.436400	-10.342000	26.084224	0.000681	20.788020
1467.677684	-2.995300	3.436900	-10.293000	26.066487	0.000682	20.795329
1468.673684	-2.993200	3.436500	-10.285000	26.048530	0.000679	20.809529
1469.679041	-2.998000	3.436500	-10.302000	26.031768	0.000680	20.794584
1470.672906	-3.007900	3.435200	-10.332000	25.979690	0.000681	20.787780
1471.670451	-2.983500	3.435600	-10.250000	25.917495	0.000680	20.773186
1472.676744	-2.981400	3.435100	-10.241000	25.919512	0.000678	20.800817
1473.676091	-3.000900	3.433500	-10.303000	25.922400	0.000678	20.816520
1474.678839	-2.990100	3.433800	-10.266000	25.940341	0.000677	20.804673
1475.676351	-3.008000	3.431100	-10.320000	25.978301	0.000679	20.818153
1476.672897	-3.004500	3.433500	-10.315000	26.009732	0.000678	20.786194
1477.679392	-2.986100	3.433000	-10.249000	26.059707	0.000679	20.792783
1478.682373	-3.006300	3.431900	-10.316000	26.075336	0.000679	20.795210
1479.678064	-3.015000	3.433000	-10.349000	26.114461	0.000676	20.801806
1480.678730	-2.997200	3.430300	-10.278000	26.131749	0.000676	20.798788
1481.681958	-3.005300	3.431100	-10.310000	26.140893	0.000678	20.789010
1482.678140	-2.999500	3.431200	-10.291000	26.144675	0.000678	20.829319
1483.675548	-2.990500	3.431800	-10.262000	26.157643	0.000677	20.816746
1484.675198	-2.999500	3.430100	-10.287000	26.141029	0.000678	20.816647
1485.676824	-2.948600	3.431100	-10.115000	26.150547	0.000677	20.811986
1486.679816	-2.969000	3.430300	-10.184000	26.175188	0.000676	20.808772
1487.677906	-2.965200	3.429900	-10.169000	26.152888	0.000675	20.802960
1488.680252	-2.985500	3.429500	-10.238000	26.147379	0.000677	20.801217
1489.681806	-3.013400	3.428200	-10.329000	26.132524	0.000677	20.815688
1490.680449	-3.008500	3.428500	-10.314000	26.109531	0.000675	20.830990
1491.679223	-2.999100	3.426400	-10.275000	26.058963	0.000675	20.805787
1492.679719	-2.998000	3.428100	-10.276000	26.024335	0.000673	20.798021
1493.679536	-2.989700	3.427800	-10.246000	26.023335	0.000673	20.811716
1494.677535	-2.992300	3.426800	-10.253000	26.052650	0.000672	20.814142
1495.677688	-2.994400	3.426600	-10.259000	26.061586	0.000674	20.790878
1496.677640	-3.010400	3.425700	-10.312000	26.129791	0.000673	20.814364
1497.677524	-2.979900	3.426400	-10.209000	26.158103	0.000672	20.827640
1498.678524	-3.007600	3.426400	-10.304000	26.176101	0.000672	20.816327
1499.677524	-3.010400	3.423200	-10.303000	26.155958	0.000673	20.817423
1500.677506	-3.002500	3.427200	-10.289000	26.096549	0.000673	20.835016
1501.677531	-3.010400	3.424300	-10.307000	26.123863	0.000672	20.809830
1502.682609	-3.019200	3.424500	-10.338000	26.115215	0.000671	20.822478
1503.682220	-2.981800	3.424600	-10.211000	26.117795	0.000670	20.807053
1504.680465	-3.009900	3.423600	-10.303000	26.064666	0.000670	20.829534
1505.682000	-3.017200	3.422500	-10.326000	26.049460	0.000670	20.834645
1506.685946	-2.997400	3.424400	-10.262000	26.001624	0.000669	20.840162
1507.680644	-3.003500	3.422300	-10.278000	26.032863	0.000667	20.813702
1508.680014	-2.989800	3.422600	-10.231000	26.036387	0.000667	20.844742
1509.679854	-2.997000	3.421200	-10.252000	26.007666	0.000667	20.834853
1510.679852	-3.003900	3.420100	-10.272000	26.004135	0.000667	20.823719
1511.680898	-3.032200	3.418300	-10.365000	26.005771	0.000667	20.819673
1512.681459	-3.015600	3.421000	-10.315000	25.997815	0.000667	20.817844
1513.683354	-3.013500	3.420000	-10.305000	25.999868	0.000665	20.828915
1514.682062	-3.032500	3.418100	-10.364000	26.017525	0.000666	20.829112
1515.682008	-2.998200	3.419200	-10.250000	25.992481	0.000665	20.829080
1516.682934	-3.010500	3.419300	-10.292000	26.033729	0.000663	20.842546
1517.682804	-2.995000	3.419400	-10.238000	26.054414	0.000664	20.826819
1518.681276	-2.983200	3.418800	-10.198000	26.083291	0.000662	20.843980
1519.688072	-3.013700	3.416800	-10.295000	26.095683	0.000661	20.836043
1520.687891	-2.997600	3.418000	-10.244000	26.095873	0.000662	20.842397
1521.683892	-3.001000	3.416700	-10.253000	26.142271	0.000660	20.855827
1522.685152	-3.017900	3.414600	-10.304000	26.159270	0.000658	20.854416
1523.687216	-3.010100	3.416200	-10.282000	26.170312	0.000659	20.858873
1524.689300	-3.019500	3.415600	-10.313000	26.189260	0.000659	20.845671
1525.686099	-3.014100	3.415900	-10.295000	26.156842	0.000658	20.837278
1526.688309	-3.012700	3.412700	-10.280000	26.154532	0.000658	20.834956
1527.687845	-2.994700	3.413900	-10.223000	26.165078	0.000656	20.861199
1528.686381	-3.001200	3.413000	-10.241000	26.181292	0.000657	20.844777
1529.689939	-3.062900	3.410700	-10.445000	26.195099	0.000656	20.866710
1530.685860	-3.040200	3.411000	-10.368000	26.209548	0.000656	20.845195
1531.687208	-2.988200	3.412800	-10.197000	26.214921	0.000653	20.851542
1532.691697	-3.007600	3.411800	-10.260000	26.209559	0.000653	20.851370
1533.685960	-3.011500	3.412300	-10.275000	26.228825	0.000653	20.870729
1534.687132	-3.001500	3.413500	-10.244000	26.217721	0.000653	20.870950
1535.689271	-3.007200	3.412600	-10.262000	26.181749	0.000651	20.877002
1536.686565	-3.012800	3.411000	-10.275000	26.187271	0.000652	20.862638
1537.687962	-2.984100	3.411000	-10.177000	26.160589	0.000651	20.844361
1538.690704	-3.021400	3.410300	-10.302000	26.160466	0.000652	20.872212
1539.687053	-2.998400	3.410000	-10.224000	26.158677	0.000652	20.853345
1540.689791	-3.021100	3.408400	-10.296000	26.161079	0.000652	20.853388
1541.690938	-2.990900	3.409600	-10.197000	26.122077	0.000650	20.856398
1542.690032	-2.995800	3.409500	-10.213000	26.141505	0.000648	20.856005
1543.689700	-2.998200	3.409900	-10.223000	26.120490	0.000649	20.857648
1544.691403	-2.981200	3.408400	-10.160000	26.112339	0.000649	20.848510
1545.689654	-3.011800	3.407100	-10.260000	26.110133	0.000647	20.854828
1546.689926	-2.993200	3.408000	-10.200000	26.072007	0.000648	20.840229
1547.692087	-2.990200	3.407000	-10.187000	26.068176	0.000647	20.840647
1548.690146	-2.980500	3.407500	-10.155000	26.091992	0.000646	20.848455
1549.690365	-3.007400	3.406800	-10.245000	26.113559	0.000648	20.860641
1550.695103	-2.980700	3.405700	-10.150000	26.132201	0.000647	20.815363
1551.692817	-2.977700	3.406000	-10.141000	26.137563	0.000646	20.856786
1552.694175	-2.995400	3.405800	-10.200000	26.185247	0.000647	20.844009
1553.692107	-3.002700	3.404600	-10.221000	26.177225	0.000645	20.860129
1554.692258	-3.001800	3.405400	-10.221000	26.187256	0.000646	20.845080
1555.694000	-3.007500	3.403100	-10.234000	26.207068	0.000645	20.832272
1556.691948	-3.044700	3.402000	-10.356000	26.205554	0.000646	20.851613
1557.693113	-2.987600	3.403700	-10.169000	26.240569	0.000645	20.857401
1558.693329	-2.993500	3.403600	-10.188000	26.229133	0.000645	20.827893
1559.691778	-2.989000	3.402700	-10.169000	26.226351	0.000644	20.845011
1560.693477	-2.982100	3.403300	-10.147000	26.216663	0.000644	20.858508
1561.692302	-3.001200	3.402400	-10.210000	26.223716	0.000643	20.839518
1562.693092	-2.976000	3.401400	-10.121000	26.200148	0.000643	20.834801
1563.694441	-2.987900	3.400300	-10.159000	26.188450	0.000642	20.860503
1564.692118	-2.992000	3.399900	-10.171000	26.221515	0.000642	20.856746
1565.693587	-3.008100	3.401000	-10.228000	26.235125	0.000642	20.831069
1566.693185	-2.986900	3.400600	-10.156000	26.226325	0.000641	20.847830
1567.697092	-3.011700	3.399000	-10.235000	26.223935	0.000640	20.844954
1568.694999	-2.984700	3.399600	-10.145000	26.218053	0.000639	20.852792
1569.699027	-3.018300	3.398000	-10.255000	26.220283	0.000640	20.832275
1570.698694	-3.012200	3.397200	-10.232000	26.205729	0.000637	20.834720
1571.694669	-3.014700	3.397000	-10.239000	26.173679	0.000641	20.828118
1572.694764	-3.009700	3.398200	-10.227000	26.164277	0.000638	20.848542
1573.697686	-2.999400	3.398100	-10.191000	26.204018	0.000638	20.831578
1574.695111	-2.978900	3.398500	-10.122000	26.240784	0.000638	20.841023
1575.695301	-3.001300	3.397600	-10.197000	26.271251	0.000637	20.816164
1576.700998	-3.005300	3.396500	-10.206000	26.268267	0.000638	20.834502
1577.700434	-2.992300	3.395300	-10.158000	26.271741	0.000637	20.810493
1578.696215	-2.999400	3.396300	-10.186000	26.233890	0.000636	20.833621
1579.696291	-2.994200	3.396300	-10.169000	26.232321	0.000636	20.819242
1580.694843	-3.025700	3.394200	-10.268000	26.250741	0.000635	20.830640
1581.696039	-3.004900	3.395400	-10.202000	26.260820	0.000633	20.835554
1582.695446	-3.023800	3.393200	-10.259000	26.254012	0.000633	20.843410
1583.696068	-2.994600	3.394300	-10.164000	26.214470	0.000633	20.834968
1584.694699	-2.995500	3.394400	-10.167000	26.222417	0.000632	20.831575
1585.694080	-2.997100	3.392900	-10.167000	26.192684	0.000632	20.810706
1586.696506	-3.036400	3.391600	-10.297000	26.214684	0.000630	20.817640
1587.695451	-2.991200	3.392700	-10.146000	26.212968	0.000631	20.842467
1588.695309	-3.002400	3.391000	-10.180000	26.198236	0.000629	20.829087
1589.695391	-2.999100	3.391900	-10.172000	26.225719	0.000631	20.836789
1590.697312	-2.978400	3.392600	-10.104000	26.238330	0.000630	20.823858
1591.695487	-3.012800	3.390700	-10.215000	26.199614	0.000628	20.810083
1592.695247	-3.003700	3.390900	-10.184000	26.172645	0.000627	20.823285
1593.696887	-3.006700	3.389900	-10.192000	26.189153	0.000627	20.831814
1594.697932	-2.989400	3.390700	-10.135000	26.198511	0.000628	20.813242
1595.696851	-2.978900	3.389700	-10.097000	26.230106	0.000626	20.821758
1596.702637	-2.996100	3.388300	-10.151000	26.238152	0.000626	20.793334
1597.698342	-2.972900	3.389100	-10.074000	26.185464	0.000624	20.806295
1598.705368	-3.010600	3.388500	-10.201000	26.124224	0.000626	20.811142
1599.699266	-2.999300	3.387900	-10.161000	26.096726	0.000625	20.826659
1600.699591	-2.998800	3.389200	-10.161000	26.080216	0.000623	20.817183
1601.698539	-3.010300	3.386400	-10.194000	26.096236	0.000624	20.817158
1602.699702	-3.012400	3.387600	-10.204000	26.105440	0.000623	20.814079
1603.700948	-2.976000	3.387500	-10.080000	26.061179	0.000623	20.793789
1604.700937	-2.999600	3.386200	-10.156000	26.036045	0.000624	20.820692
1605.700898	-2.974000	3.386100	-10.069000	26.051766	0.000623	20.814676
1606.703810	-3.002200	3.385700	-10.164000	26.057527	0.000620	20.808136
1607.704554	-3.005200	3.385000	-10.171000	26.091675	0.000622	20.805464
1608.703359	-2.987900	3.386200	-10.117000	26.074497	0.000620	20.823291
1609.703485	-2.991200	3.383500	-10.119000	26.067308	0.000621	20.819386
1610.705890	-2.994600	3.385500	-10.137000	26.069146	0.000620	20.812699
1611.703876	-3.002400	3.384000	-10.160000	26.067210	0.000621	20.814546
1612.704250	-3.007600	3.383500	-10.174000	26.077046	0.000620	20.820162
1613.706846	-3.015300	3.382400	-10.198000	26.099562	0.000620	20.804854
1614.706361	-2.996200	3.382900	-10.135000	26.127478	0.000617	20.823419
1615.709751	-3.006600	3.382200	-10.168000	26.122710	0.000618	20.803930
1616.709509	-2.980200	3.382100	-10.077000	26.118033	0.000618	20.822464
1617.707142	-2.988200	3.380800	-10.101000	26.080055	0.000618	20.794736
1618.706872	-3.000800	3.381100	-10.145000	26.058340	0.000616	20.827920
1619.710662	-2.990900	3.380700	-10.110000	26.042620	0.000615	20.822082
1620.710151	-2.980100	3.381500	-10.076000	26.039482	0.000613	20.842162
1621.708439	-2.970300	3.380800	-10.041000	26.088285	0.000615	20.792574
1622.712997	-2.990400	3.380400	-10.108000	26.120343	0.000612	20.799181
1623.709720	-3.006800	3.378600	-10.157000	26.105518	0.000613	20.798510
1624.710063	-3.018300	3.378400	-10.196000	26.092372	0.000611	20.807112
1625.710037	-3.004700	3.379000	-10.151000	26.129180	0.000611	20.818966
1626.711677	-3.010500	3.378900	-10.172000	26.137569	0.000611	20.816964
1627.711952	-3.027300	3.377600	-10.224000	26.152443	0.000613	20.784968
1628.709709	-3.000000	3.380100	-10.140000	26.125668	0.000611	20.786040
1629.710421	-3.004900	3.377700	-10.149000	26.110243	0.000610	20.797093
1630.711918	-2.993900	3.377300	-10.111000	26.105689	0.000608	20.802949
1631.711968	-2.989300	3.377000	-10.093000	26.123841	0.000609	20.789420
1632.712831	-2.986500	3.376800	-10.083000	26.137924	0.000609	20.800251
1633.717265	-2.983900	3.376300	-10.073000	26.141871	0.000607	20.789992
1634.711705	-2.992800	3.375400	-10.101000	26.134615	0.000607	20.780330
1635.716590	-3.013100	3.375100	-10.168000	26.200719	0.000607	20.786537
1636.712739	-3.015300	3.374300	-10.172000	26.207674	0.000606	20.811544
1637.713586	-2.985400	3.374800	-10.074000	26.215567	0.000606	20.786759
1638.715990	-2.985600	3.373800	-10.073000	26.175453	0.000604	20.783433
1639.715185	-3.003600	3.374000	-10.132000	26.129957	0.000605	20.792245
1640.714552	-3.001700	3.372800	-10.123000	26.122700	0.000604	20.789696
1641.715940	-3.002300	3.373300	-10.126000	26.088693	0.000604	20.792984
1642.721657	-3.024300	3.371700	-10.196000	26.042771	0.000604	20.784776
1643.716183	-3.013500	3.372900	-10.164000	26.082191	0.000603	20.791666
1644.718123	-3.016200	3.371000	-10.166000	26.102329	0.000604	20.801944
1645.714262	-3.001200	3.370600	-10.115000	26.070191	0.000603	20.808533
1646.717361	-2.975800	3.372500	-10.035000	26.121425	0.000600	20.786992
1647.716678	-2.983000	3.370400	-10.053000	26.165457	0.000602	20.778605
1648.724981	-3.009600	3.371800	-10.147000	26.186219	0.000600	20.786192
1649.721245	-3.017100	3.371100	-10.170000	26.220364	0.000601	20.791106
1650.720450	-2.995900	3.370500	-10.095000	26.233649	0.000598	20.785016
1651.720634	-3.012400	3.369300	-10.149000	26.220958	0.000599	20.806402
1652.719728	-3.001700	3.368900	-10.111000	26.222374	0.000598	20.800238
1653.721312	-2.998900	3.368900	-10.102000	26.203083	0.000598	20.796974
1654.721836	-2.973700	3.370300	-10.021000	26.192280	0.000598	20.770945
1655.722354	-2.987900	3.368600	-10.064000	26.193150	0.000596	20.786992
1656.720290	-3.001000	3.368000	-10.107000	26.248080	0.000596	20.770120
1657.723596	-2.992200	3.367700	-10.076000	26.215174	0.000595	20.777829
1658.723682	-3.006500	3.366500	-10.120000	26.250366	0.000595	20.791383
1659.723148	-2.994400	3.366800	-10.080000	26.261714	0.000593	20.793778
1660.723649	-2.984700	3.367300	-10.049000	26.270109	0.000592	20.779455
1661.725430	-3.000600	3.365200	-10.097000	26.304692	0.000594	20.792873
1662.723741	-2.987600	3.364800	-10.051000	26.302517	0.000592	20.776462
1663.723641	-2.976200	3.366000	-10.016000	26.319275	0.000592	20.787140
1664.725460	-2.982100	3.366500	-10.037000	26.320593	0.000590	20.778981
1665.724898	-3.007800	3.365300	-10.121000	26.337976	0.000591	20.793132
1666.727855	-3.008500	3.364800	-10.122000	26.320568	0.000589	20.780379
1667.726480	-3.002900	3.365000	-10.103000	26.329336	0.000587	20.767854
1668.728616	-3.028100	3.363700	-10.184000	26.360775	0.000588	20.774320
1669.725422	-3.004800	3.362200	-10.101000	26.372269	0.000589	20.774966
1670.727619	-3.011500	3.363400	-10.128000	26.353122	0.000586	20.768051
1671.725816	-3.010700	3.363500	-10.125000	26.350745	0.000588	20.759497
1672.725993	-2.983400	3.363200	-10.031000	26.321469	0.000585	20.778913
1673.731016	-2.986500	3.363000	-10.043000	26.309527	0.000586	20.776869
1674.724310	-2.980200	3.361900	-10.018000	26.300164	0.000585	20.763666
1675.725513	-3.021600	3.362100	-10.157000	26.287125	0.000585	20.762890
1676.729534	-2.994800	3.361700	-10.066000	26.278087	0.000583	20.770877
1677.726011	-3.031800	3.359700	-10.184000	26.285545	0.000584	20.779320
1678.724484	-2.997800	3.361400	-10.075000	26.313994	0.000584	20.764762
1679.727320	-3.010300	3.360800	-10.116000	26.319907	0.000583	20.762170
1680.726273	-3.015400	3.359700	-10.131000	26.344814	0.000581	20.763020
1681.727714	-3.018000	3.359200	-10.137000	26.330133	0.000581	20.761068
1682.730323	-3.005800	3.358400	-10.093000	26.354397	0.000582	20.759848
1683.726841	-3.003900	3.358400	-10.087000	26.346198	0.000580	20.760144
1684.727755	-2.992900	3.358300	-10.050000	26.362815	0.000581	20.764516
1685.729086	-2.983500	3.358300	-10.018000	26.335452	0.000582	20.773525
1686.728311	-3.009400	3.357000	-10.101000	26.366020	0.000578	20.783384
1687.727911	-2.998700	3.357000	-10.066000	26.367208	0.000578	20.752336
1688.729341	-3.018700	3.355900	-10.130000	26.315532	0.000578	20.758721
1689.727778	-2.991100	3.356700	-10.040000	26.259974	0.000578	20.766899
1690.733021	-2.999500	3.356600	-10.067000	26.227521	0.000579	20.757046
1691.729346	-2.993000	3.356400	-10.045000	26.234673	0.000578	20.769448
1692.727214	-2.971500	3.355700	-9.969500	26.192182	0.000578	20.759466
1693.729352	-2.982700	3.355700	-10.009000	26.198806	0.000577	20.744785
1694.729086	-3.015900	3.354900	-10.117000	26.207079	0.000578	20.753099
1695.728023	-3.006600	3.354100	-10.083000	26.218145	0.000577	20.752840
1696.734582	-2.981500	3.355900	-10.004000	26.253061	0.000575	20.778445
1697.730648	-2.994700	3.353700	-10.043000	26.286058	0.000575	20.774621
1698.729141	-3.013700	3.353200	-10.104000	26.312504	0.000575	20.738134
1699.731672	-2.976000	3.353300	-9.977900	26.349500	0.000575	20.757298
1700.731603	-3.007900	3.351600	-10.078000	26.354861	0.000574	20.740874
1701.736637	-3.009500	3.353200	-10.091000	26.399128	0.000574	20.753597
1702.733104	-2.967400	3.353600	-9.950300	26.405157	0.000575	20.771985
1703.733190	-2.993700	3.353800	-10.038000	26.422042	0.000574	20.742962
1704.737663	-3.005900	3.350900	-10.072000	26.445844	0.000572	20.751712
1705.734760	-3.008900	3.350600	-10.081000	26.465204	0.000572	20.746040
1706.736111	-3.013800	3.351600	-10.101000	26.455591	0.000571	20.749655
1707.736687	-2.999100	3.350000	-10.046000	26.434185	0.000572	20.735251
1708.733826	-3.010800	3.349700	-10.083000	26.467274	0.000570	20.782261
1709.733743	-2.992400	3.349500	-10.022000	26.458433	0.000571	20.774798
1710.737169	-3.022100	3.349400	-10.121000	26.489984	0.000572	20.753405
1711.736179	-2.982600	3.349300	-9.989000	26.501097	0.000571	20.762204
1712.735501	-2.988500	3.349000	-10.006000	26.518446	0.000569	20.746926
1713.739542	-2.997900	3.348100	-10.036000	26.513049	0.000570	20.747191
1714.739946	-3.020000	3.346700	-10.104000	26.501844	0.000566	20.734979
1715.736909	-2.995100	3.348700	-10.028000	26.481535	0.000568	20.731161
1716.739673	-3.003900	3.347000	-10.052000	26.465392	0.000567	20.735798
1717.736214	-3.021100	3.345500	-10.105000	26.464914	0.000567	20.728679
1718.736779	-2.997300	3.346100	-10.029000	26.464932	0.000566	20.752406
1719.743638	-2.978300	3.347400	-9.968900	26.493818	0.000567	20.749672
1720.738663	-3.013200	3.345700	-10.080000	26.498682	0.000564	20.749345
1721.739448	-2.989000	3.346500	-10.002000	26.522188	0.000565	20.739782
1722.744310	-3.022800	3.344300	-10.108000	26.503062	0.000563	20.749481
1723.738895	-2.986900	3.344200	-9.988200	26.450149	0.000565	20.740391
1724.738160	-3.005300	3.343600	-10.047000	26.405651	0.000564	20.749721
1725.742301	-2.989800	3.345200	-9.999600	26.377712	0.000563	20.741081
1726.739028	-3.001700	3.344700	-10.039000	26.373013	0.000563	20.741099
1727.741267	-3.019500	3.342900	-10.093000	26.353933	0.000561	20.741364
1728.741393	-3.025200	3.342000	-10.109000	26.336048	0.000561	20.736191
1729.739157	-3.010100	3.343100	-10.062000	26.287047	0.000559	20.741475
1730.742662	-2.983400	3.343500	-9.973200	26.253021	0.000561	20.738574
1731.744024	-2.992000	3.341000	-9.995200	26.211836	0.000560	20.754560
1732.743833	-2.997300	3.341400	-10.014000	26.199317	0.000559	20.726331
1733.744912	-3.013400	3.341200	-10.068000	26.196528	0.000557	20.759093
1734.749070	-3.023300	3.339400	-10.095000	26.228957	0.000558	20.744264
1735.742877	-2.988700	3.340800	-9.983500	26.265558	0.000555	20.744535
1736.745105	-2.981700	3.341000	-9.961200	26.265153	0.000555	20.745077
1737.746842	-2.996100	3.340300	-10.007000	26.269792	0.000553	20.740729
1738.744744	-2.972400	3.340300	-9.927900	26.292954	0.000552	20.747885
1739.744575	-3.016200	3.339300	-10.071000	26.310111	0.000552	20.733832
1740.749791	-3.011800	3.338500	-10.053000	26.307893	0.000553	20.733025
1741.744003	-3.002900	3.336700	-10.019000	26.317255	0.000554	20.750496
1742.744335	-2.991300	3.338800	-9.985600	26.330655	0.000551	20.747842
1743.747190	-3.008000	3.337000	-10.037000	26.358460	0.000551	20.725525
1744.745578	-2.991600	3.336800	-9.979700	26.366499	0.000551	20.736923
1745.744348	-3.011500	3.336900	-10.047000	26.359796	0.000552	20.753895
1746.752953	-2.990300	3.335900	-9.974500	26.336354	0.000550	20.747879
1747.748133	-2.987900	3.336500	-9.968400	26.368037	0.000548	20.733727
1748.746152	-2.978100	3.336600	-9.936000	26.401110	0.000550	20.744683
1749.749044	-3.014100	3.335100	-10.051000	26.460073	0.000549	20.737564
1750.747423	-2.993300	3.335100	-9.982600	26.464662	0.000546	20.753082
1751.745580	-3.006800	3.334400	-10.025000	26.479089	0.000549	20.744350
1752.748445	-3.012000	3.335500	-10.044000	26.450534	0.000546	20.763064
1753.747571	-3.010000	3.334600	-10.036000	26.413780	0.000548	20.759314
1754.746219	-3.003700	3.334300	-10.014000	26.450975	0.000548	20.745489
1755.753223	-3.014400	3.332700	-10.045000	26.408095	0.000547	20.744590
1756.751114	-3.010100	3.333100	-10.031000	26.395443	0.000547	20.742780
1757.746167	-2.997900	3.333700	-9.993000	26.425096	0.000546	20.737970
1758.753187	-2.998400	3.332300	-9.990800	26.402544	0.000546	20.747546
1759.750659	-2.978600	3.331900	-9.923700	26.414932	0.000544	20.749092
1760.747940	-3.005600	3.333100	-10.017000	26.420636	0.000545	20.734910
1761.753061	-3.004800	3.331100	-10.008000	26.426744	0.000544	20.740575
1762.750738	-2.992900	3.331600	-9.968300	26.435003	0.000543	20.741290
1763.748131	-3.009100	3.330500	-10.020000	26.460704	0.000545	20.746733
1764.753298	-3.014000	3.327800	-10.029000	26.471052	0.000543	20.745754
1765.753062	-3.013200	3.329900	-10.033000	26.484040	0.000541	20.734152
1766.750828	-2.988800	3.330000	-9.951100	26.500446	0.000541	20.737367
1767.755241	-2.992600	3.329800	-9.963800	26.508735	0.000541	20.740009
1768.753853	-2.977200	3.329700	-9.913300	26.502253	0.000539	20.739658
1769.754491	-3.010000	3.329600	-10.021000	26.527401	0.000541	20.742651
1770.751185	-3.004700	3.327800	-9.997800	26.545222	0.000539	20.743494
1771.755019	-3.014700	3.327500	-10.030000	26.528969	0.000539	20.737589
1772.756425	-2.996300	3.328100	-9.970900	26.565970	0.000536	20.748230
1773.757912	-2.978700	3.328100	-9.912500	26.507356	0.000537	20.745736
1774.753647	-2.987300	3.327700	-9.939500	26.474237	0.000536	20.742318
1775.754309	-2.971100	3.326000	-9.880900	26.424502	0.000536	20.743063
1776.755101	-2.999300	3.326100	-9.974600	26.397704	0.000534	20.751217
1777.767131	-3.000100	3.326300	-9.978300	26.391099	0.000534	20.732250
1778.758703	-3.006400	3.325400	-9.996600	26.356237	0.000534	20.755059
1779.755101	-2.991000	3.324800	-9.943200	26.305026	0.000534	20.734886
1780.758526	-3.013600	3.324100	-10.017000	26.320154	0.000532	20.758151
1781.759854	-2.981800	3.326000	-9.915300	26.333885	0.000532	20.752510
1782.757672	-2.997600	3.324700	-9.965200	26.367627	0.000529	20.737583
1783.760843	-2.984600	3.323500	-9.918500	26.404676	0.000531	20.743051
1784.762330	-2.992300	3.323800	-9.943900	26.417010	0.000530	20.753077
1785.760685	-3.011400	3.322200	-10.004000	26.450332	0.000530	20.767129
1786.761145	-3.021600	3.322300	-10.038000	26.453071	0.000528	20.743328
1787.762187	-3.010000	3.321300	-9.996300	26.475690	0.000528	20.758951
1788.761006	-3.003400	3.321400	-9.974300	26.506082	0.000528	20.752990
1789.761744	-2.995800	3.320800	-9.947300	26.527652	0.000528	20.735317
1790.763350	-3.014700	3.321400	-10.011000	26.515664	0.000528	20.726584
1791.761229	-2.982900	3.321700	-9.907400	26.505935	0.000525	20.741936
1792.765671	-3.003500	3.320700	-9.971000	26.553633	0.000527	20.741992
1793.762934	-3.000100	3.320600	-9.960800	26.544493	0.000527	20.751771
1794.760570	-3.001800	3.319900	-9.964900	26.512441	0.000524	20.757011
1795.763330	-3.014000	3.318300	-10.001000	26.487740	0.000525	20.737872
1796.760919	-2.989500	3.318500	-9.918800	26.512815	0.000524	20.747904
1797.761878	-3.015100	3.319300	-10.007000	26.519952	0.000525	20.742275
1798.763960	-2.998300	3.317500	-9.946000	26.554159	0.000523	20.738254
1799.760859	-3.009300	3.317800	-9.984000	26.558631	0.000524	20.753181
1800.771320	-2.999000	3.317800	-9.949300	26.563936	0.000524	20.746186
1801.763832	-3.010200	3.317200	-9.984100	26.556591	0.000522	20.760140
1802.763154	-2.982900	3.316200	-9.890300	26.592440	0.000520	20.743544
1803.763870	-2.995100	3.316400	-9.931700	26.614952	0.000519	20.725396
1804.767365	-2.983900	3.316600	-9.895800	26.627711	0.000521	20.748655
1805.764551	-2.992800	3.315700	-9.923000	26.624636	0.000521	20.753150
1806.768429	-3.007300	3.315200	-9.968000	26.642388	0.000519	20.750607
1807.770057	-2.996600	3.316000	-9.936100	26.608973	0.000520	20.766328
1808.766052	-3.002300	3.314600	-9.949800	26.553535	0.000515	20.734306
1809.765778	-3.009900	3.313800	-9.973400	26.575257	0.000516	20.747134
1810.769387	-2.985500	3.313800	-9.891800	26.567483	0.000516	20.751174
1811.766197	-2.998300	3.314500	-9.935800	26.595294	0.000515	20.771544
1812.768448	-3.005600	3.311600	-9.952400	26.578534	0.000516	20.745213
1813.772333	-3.018000	3.311200	-9.992100	26.587968	0.000515	20.759912
1814.766675	-2.971500	3.314800	-9.848200	26.587619	0.000514	20.734904
1815.768032	-3.008000	3.312800	-9.964200	26.593463	0.000512	20.744098
1816.772208	-3.001500	3.311300	-9.937700	26.596838	0.000513	20.750810
1817.774543	-2.986000	3.311700	-9.886900	26.584678	0.000511	20.749966
1818.773777	-2.997500	3.310200	-9.920200	26.603147	0.000510	20.737712
1819.776562	-3.002200	3.311200	-9.940300	26.610523	0.000509	20.760300
1820.774872	-3.002700	3.310000	-9.938700	26.619711	0.000509	20.762424
1821.773666	-2.997700	3.310300	-9.921400	26.656225	0.000507	20.749344
1822.776447	-2.994300	3.310700	-9.912500	26.664941	0.000507	20.760004
1823.781043	-2.999900	3.309200	-9.925900	26.692970	0.000506	20.754991
1824.772823	-2.986100	3.309900	-9.883000	26.737426	0.000508	20.762701
1825.778413	-2.999300	3.310000	-9.926900	26.761355	0.000506	20.736973
1826.776187	-2.999000	3.308600	-9.920100	26.764914	0.000507	20.752405
1827.777819	-3.010200	3.308200	-9.956400	26.752474	0.000505	20.756494
1828.780986	-3.026600	3.307900	-10.010000	26.781597	0.000508	20.752109
1829.778381	-3.023200	3.306900	-9.996600	26.737566	0.000505	20.758575
1830.774189	-3.020100	3.306100	-9.984500	26.709392	0.000504	20.757750
1831.779293	-3.005200	3.306000	-9.933800	26.656972	0.000503	20.767640
1832.780807	-2.992300	3.305900	-9.891300	26.630486	0.000503	20.748599
1833.776086	-3.007700	3.304400	-9.937700	26.645138	0.000504	20.752897
1834.780917	-3.008500	3.305500	-9.944400	26.630914	0.000502	20.770368
1835.778515	-2.993500	3.305500	-9.893500	26.639410	0.000500	20.770374
1836.774838	-3.011400	3.303900	-9.948400	26.635986	0.000503	20.759819
1837.777629	-3.011300	3.305000	-9.951100	26.637995	0.000498	20.768477
1838.777013	-2.998500	3.305200	-9.910100	26.635968	0.000499	20.764542
1839.773102	-3.001500	3.302700	-9.912000	26.634014	0.000500	20.755465
1840.780242	-2.998000	3.305000	-9.907400	26.627680	0.000499	20.765694
1841.776551	-2.996300	3.303500	-9.896400	26.572525	0.000498	20.757190
1842.773792	-3.018100	3.301800	-9.964600	26.548891	0.000497	20.767572
1843.780520	-2.981600	3.302000	-9.844900	26.496359	0.000499	20.759339
1844.776526	-2.988900	3.303300	-9.872300	26.504213	0.000498	20.753008
1845.773496	-2.995100	3.303000	-9.890500	26.488046	0.000498	20.787019
1846.780257	-3.003800	3.301900	-9.917200	26.491201	0.000496	20.769801
1847.777432	-3.007800	3.301300	-9.928200	26.498749	0.000498	20.772172
1848.776299	-3.011300	3.300800	-9.939100	26.503472	0.000497	20.766014
1849.783507	-2.974400	3.301600	-9.819500	26.537527	0.000496	20.749510
1850.778853	-2.998700	3.299300	-9.892200	26.594161	0.000496	20.759025
1851.778036	-2.976800	3.299500	-9.821000	26.623496	0.000494	20.748685
1852.779084	-3.018800	3.298800	-9.957200	26.666276	0.000494	20.764191
1853.777597	-3.013900	3.299200	-9.942800	26.685981	0.000493	20.758871
1854.777863	-3.003700	3.298400	-9.905700	26.695634	0.000493	20.768576
1855.784688	-2.987900	3.298600	-9.854700	26.735276	0.000494	20.770497
1856.777874	-3.002900	3.297800	-9.902000	26.736121	0.000493	20.761864
1857.777873	-3.001900	3.297400	-9.897800	26.754661	0.000495	20.765331
1858.782112	-2.997800	3.297300	-9.883400	26.773176	0.000492	20.763083
1859.777987	-3.026600	3.295900	-9.973400	26.762574	0.000492	20.769019
1860.778538	-3.031300	3.295100	-9.985300	26.712956	0.000490	20.777456
1861.785014	-3.020900	3.295800	-9.955200	26.690483	0.000493	20.776674
1862.780306	-2.993900	3.295600	-9.865400	26.702072	0.000491	20.762720
1863.780702	-2.982600	3.296100	-9.829900	26.648795	0.000490	20.778385
1864.783417	-3.003700	3.295200	-9.896300	26.633352	0.000489	20.775664
1865.785131	-2.972100	3.295200	-9.792500	26.525134	0.000488	20.781150
1866.783664	-3.002500	3.294600	-9.891000	26.504991	0.000487	20.763748
1867.787315	-3.007100	3.293100	-9.901300	26.447189	0.000485	20.766815
1868.784564	-3.013400	3.293500	-9.922800	26.454976	0.000487	20.776538
1869.783463	-3.013600	3.292800	-9.921300	26.445020	0.000487	20.771273
1870.786012	-2.991900	3.292900	-9.850700	26.428846	0.000486	20.758809
1871.784570	-2.983900	3.293300	-9.825800	26.491158	0.000486	20.776871
1872.782514	-2.977500	3.292600	-9.802300	26.493811	0.000483	20.770054
1873.793218	-2.987600	3.291900	-9.834300	26.531842	0.000485	20.780781
1874.789297	-3.024600	3.290900	-9.952600	26.539825	0.000484	20.761778
1875.783995	-2.977000	3.292100	-9.799100	26.589199	0.000482	20.795763
1876.803712	-3.000800	3.290200	-9.871500	26.614241	0.000485	20.775892
1877.790062	-2.980200	3.290900	-9.806600	26.625923	0.000483	20.779575
1878.790531	-2.962800	3.291000	-9.749500	26.659907	0.000482	20.798091
1879.789304	-3.010200	3.288800	-9.898500	26.649328	0.000481	20.776077
1880.792333	-3.001900	3.291400	-9.880100	26.666504	0.000479	20.778645
1881.788963	-3.009700	3.287600	-9.893600	26.678803	0.000482	20.776785
1882.792808	-2.978200	3.289300	-9.794400	26.691483	0.000480	20.780523
1883.791556	-2.980300	3.288600	-9.799900	26.752286	0.000478	20.780487
1884.789009	-2.994900	3.286300	-9.842100	26.764045	0.000479	20.788991
1885.796394	-3.002300	3.288600	-9.872100	26.818627	0.000476	20.784126
1886.791996	-2.979200	3.287200	-9.791300	26.825150	0.000477	20.797797
1887.789052	-2.996800	3.286100	-9.846700	26.819136	0.000476	20.795543
1888.793503	-3.028400	3.285800	-9.949800	26.832108	0.000474	20.799576
1889.793341	-3.003500	3.285400	-9.867100	26.844938	0.000474	20.778338
1890.789979	-3.006000	3.284600	-9.872700	26.773668	0.000473	20.790605
1891.792949	-3.008700	3.283600	-9.878000	26.775530	0.000474	20.794373
1892.793798	-3.017000	3.283200	-9.904200	26.721686	0.000473	20.784336
1893.791212	-2.974700	3.285500	-9.772400	26.737710	0.000471	20.802342
1894.795626	-3.014400	3.283300	-9.896800	26.757615	0.000470	20.816665
1895.792723	-3.005900	3.282400	-9.865800	26.792783	0.000470	20.779004
1896.796685	-3.008500	3.282700	-9.875500	26.808444	0.000470	20.805181
1897.793108	-3.011900	3.282600	-9.885600	26.854695	0.000469	20.779140
1898.794588	-3.032000	3.283400	-9.954100	26.881280	0.000469	20.806819
1899.793725	-3.004800	3.281200	-9.858500	26.920688	0.000467	20.809935
1900.794945	-2.996200	3.281000	-9.828600	26.906738	0.000467	20.786425
1901.793514	-3.012800	3.281700	-9.886400	26.893626	0.000467	20.798371
1902.793607	-3.000200	3.280500	-9.840300	26.867887	0.000464	20.810422
1903.794920	-2.992700	3.280300	-9.815500	26.840585	0.000467	20.800040
1904.797638	-3.010700	3.279700	-9.873100	26.810104	0.000465	20.819652
1905.794896	-3.005600	3.280200	-9.857600	26.836660	0.000466	20.797515
1906.793805	-2.986000	3.281400	-9.797400	26.862743	0.000464	20.818526
1907.794538	-3.005700	3.278700	-9.853600	26.868671	0.000465	20.811685
1908.794534	-2.981600	3.278900	-9.775700	26.846159	0.000463	20.808963
1909.796209	-3.001900	3.278200	-9.839500	26.810441	0.000463	20.788223
1910.795236	-2.997300	3.277600	-9.822800	26.819445	0.000462	20.812923
1911.796613	-2.998900	3.279900	-9.834600	26.766155	0.000463	20.802017
1912.796951	-3.009400	3.277500	-9.862200	26.788669	0.000462	20.798575
1913.797867	-2.994500	3.277400	-9.813300	26.806510	0.000461	20.811771
1914.796853	-3.004200	3.277100	-9.843600	26.840703	0.000462	20.812960
1915.796054	-3.013900	3.275800	-9.872200	26.825459	0.000461	20.820392
1916.806222	-2.996100	3.275800	-9.813100	26.790072	0.000460	20.822270
1917.797039	-2.982800	3.277200	-9.773600	26.784707	0.000457	20.795065
1918.799506	-3.046200	3.273300	-9.970300	26.789196	0.000460	20.817123
1919.799573	-2.986300	3.275100	-9.779700	26.812941	0.000458	20.815393
1920.803739	-3.014000	3.273300	-9.863200	26.842026	0.000458	20.813342
1921.801904	-2.993500	3.274200	-9.799700	26.873345	0.000456	20.816858
1922.801049	-2.979300	3.274700	-9.754600	26.873045	0.000455	20.826988
1923.801541	-2.999500	3.273900	-9.818400	26.886273	0.000454	20.828435
1924.802408	-3.004900	3.271500	-9.829600	26.885930	0.000452	20.822874
1925.812282	-2.985300	3.273300	-9.771000	26.877112	0.000452	20.826810
1926.803014	-3.004900	3.270800	-9.826600	26.907212	0.000452	20.819618
1927.802833	-2.991100	3.273100	-9.788600	26.951713	0.000453	20.821218
1928.805276	-2.989600	3.271900	-9.779600	26.965632	0.000451	20.826680
1929.810615	-3.007100	3.273100	-9.840500	26.967390	0.000450	20.838879
1930.803544	-2.999200	3.270100	-9.806500	26.962974	0.000448	20.813103
1931.804416	-3.020600	3.270300	-9.877300	26.974707	0.000448	20.815892
1932.804572	-3.011500	3.269200	-9.845100	26.946147	0.000449	20.837432
1933.803543	-2.995000	3.269900	-9.792300	26.955975	0.000447	20.834039
1934.804872	-3.002800	3.270000	-9.817500	26.916680	0.000446	20.837198
1935.805175	-2.992500	3.269500	-9.782100	26.906661	0.000444	20.839452
1936.804906	-2.999900	3.268300	-9.802800	26.901443	0.000445	20.822826
1937.805416	-2.995900	3.268300	-9.791000	26.931603	0.000443	20.845566
1938.803905	-3.009700	3.267100	-9.831200	26.937280	0.000443	20.824723
1939.804793	-2.988100	3.269000	-9.767100	26.934751	0.000444	20.840671
1940.809957	-2.988200	3.267500	-9.762500	26.970488	0.000443	20.854322
1941.809480	-2.984400	3.267400	-9.750500	26.964757	0.000442	20.839076
1942.809322	-2.999900	3.265500	-9.794900	26.985105	0.000441	20.830141
1943.808000	-3.015000	3.265300	-9.844000	26.987212	0.000440	20.834156
1944.804815	-2.973500	3.265500	-9.709000	26.951407	0.000441	20.844618
1945.805821	-2.996900	3.265500	-9.785300	26.963220	0.000441	20.838479
1946.812736	-3.005700	3.264300	-9.810700	26.941156	0.000439	20.850431
1947.807989	-2.989800	3.264700	-9.759000	26.943140	0.000437	20.827771
1948.806592	-2.992500	3.264100	-9.766800	26.922766	0.000437	20.826250
1949.813113	-2.972400	3.265500	-9.706000	26.935565	0.000438	20.831059
1950.813322	-2.982800	3.263600	-9.733800	26.931505	0.000437	20.818442
1951.811067	-3.017600	3.262700	-9.844100	26.956490	0.000437	20.848306
1952.812802	-2.996900	3.262600	-9.776200	26.945449	0.000436	20.837204
1953.810599	-3.016800	3.261400	-9.838200	26.952914	0.000435	20.836176
1954.806459	-2.996500	3.261500	-9.771400	26.997462	0.000434	20.828817
1955.813920	-2.988600	3.261900	-9.747100	27.036737	0.000435	20.826589
1956.810698	-2.996400	3.261300	-9.771200	27.006072	0.000435	20.848854
1957.811139	-2.994300	3.260300	-9.760700	26.970084	0.000435	20.857235
1958.812558	-3.005100	3.261800	-9.800800	26.987702	0.000433	20.852666
1959.807071	-3.019600	3.258800	-9.839000	26.986930	0.000431	20.851416
1960.810099	-2.988200	3.259600	-9.739400	26.991651	0.000432	20.847155
1961.816211	-2.991800	3.260200	-9.753100	27.024871	0.000430	20.850690
1962.810321	-2.996000	3.259800	-9.765000	27.043724	0.000430	20.852580
1963.808652	-2.986100	3.258600	-9.729900	27.077621	0.000429	20.829773
1964.814906	-2.999400	3.258600	-9.772700	27.098911	0.000428	20.867303
1965.813909	-3.008100	3.257400	-9.797300	27.089145	0.000426	20.845155
1966.818885	-2.981700	3.257900	-9.712900	27.057881	0.000426	20.846904
1967.816460	-2.984600	3.257700	-9.721500	27.007800	0.000427	20.850118
1968.810335	-3.018100	3.257200	-9.829300	26.989357	0.000427	20.831572
1969.814769	-3.017900	3.257100	-9.828500	26.961488	0.000425	20.845746
1970.819641	-2.987300	3.256200	-9.726200	26.955298	0.000424	20.864176
1971.815607	-2.988100	3.255700	-9.726800	26.982174	0.000425	20.851375
1972.815106	-3.006200	3.254800	-9.783900	27.004078	0.000424	20.872927
1973.817715	-3.022300	3.253700	-9.832400	27.036856	0.000424	20.867484
1974.812787	-2.982800	3.255300	-9.709200	27.064221	0.000424	20.862287
1975.816458	-2.996500	3.254300	-9.750000	27.091364	0.000423	20.878678
1976.819004	-2.997300	3.254300	-9.753400	27.109873	0.000421	20.864578
1977.813798	-2.987800	3.253400	-9.719500	27.118206	0.000420	20.870588
1978.814626	-2.983700	3.253200	-9.705300	27.063089	0.000422	20.869209
1979.821013	-2.986300	3.253300	-9.714100	27.072855	0.000419	20.880927
1980.817193	-2.976900	3.254100	-9.685700	27.048210	0.000419	20.854721
1981.813619	-2.991300	3.251900	-9.726600	27.090937	0.000418	20.856439
1982.816974	-2.987400	3.251800	-9.712300	27.091598	0.000419	20.870380
1983.820381	-2.976300	3.251300	-9.675700	27.138639	0.000418	20.854629
1984.819315	-2.996900	3.251300	-9.742000	27.140440	0.000416	20.872561
1985.817336	-2.979500	3.253000	-9.690800	27.157602	0.000415	20.883183
1986.816616	-3.008500	3.249000	-9.774400	27.146239	0.000415	20.871280
1987.818696	-2.975700	3.250500	-9.671400	27.179876	0.000416	20.872395
1988.827744	-3.011500	3.248900	-9.782200	27.215201	0.000414	20.885640
1989.817622	-2.983900	3.250000	-9.696800	27.247814	0.000414	20.874348
1990.818070	-3.007600	3.246800	-9.764300	27.245629	0.000412	20.879262
1991.824074	-2.996000	3.248800	-9.731700	27.230544	0.000412	20.897753
1992.816852	-2.983500	3.248300	-9.690600	27.186043	0.000412	20.878598
1993.822218	-3.023600	3.245500	-9.812100	27.205990	0.000409	20.886332
1994.818501	-3.005300	3.245600	-9.753000	27.216428	0.000410	20.905364
1995.819974	-3.013700	3.245300	-9.780100	27.234189	0.000409	20.899521
1996.820169	-3.004900	3.245200	-9.750100	27.278096	0.000409	20.887737
1997.818172	-3.015800	3.245300	-9.786200	27.297495	0.000409	20.882121
1998.817881	-2.991600	3.245800	-9.707200	27.294160	0.000408	20.877818
1999.820341	-2.989300	3.245900	-9.702200	27.277368	0.000408	20.874203
2000.827105	-2.987100	3.247000	-9.696700	27.229029	0.000406	20.883428
2001.821899	-2.998200	3.244800	-9.728000	27.227934	0.000404	20.886593
2002.819092	-3.007500	3.242100	-9.749700	27.258942	0.000403	20.869420
2003.827242	-2.996300	3.244300	-9.720600	27.297987	0.000404	20.873134
2004.826120	-3.011500	3.243000	-9.765600	27.290892	0.000403	20.894918
2005.818764	-2.982400	3.242000	-9.667300	27.327953	0.000402	20.865819
2006.827075	-2.989700	3.243400	-9.696200	27.334025	0.000401	20.884254
2007.820689	-2.992800	3.241500	-9.699700	27.347621	0.000402	20.877069
2008.821877	-2.991500	3.241700	-9.695600	27.379593	0.000399	20.878886
2009.825296	-2.981100	3.241700	-9.662900	27.394425	0.000401	20.873418
2010.824429	-2.985000	3.241200	-9.674500	27.416075	0.000401	20.873862
2011.820800	-2.989200	3.240700	-9.686200	27.428703	0.000398	20.872815
2012.824532	-2.985800	3.240100	-9.673500	27.435167	0.000397	20.885007
2013.825540	-3.009100	3.239600	-9.746700	27.404905	0.000397	20.852194
2014.822336	-2.996400	3.239200	-9.705300	27.395326	0.000395	20.870057
2015.826834	-2.991000	3.238000	-9.683200	27.398056	0.000395	20.856209
2016.832658	-3.025900	3.236400	-9.792400	27.408591	0.000394	20.873444
2017.821724	-3.005000	3.238100	-9.729700	27.420172	0.000393	20.854276
2018.829413	-3.004400	3.237600	-9.725500	27.412552	0.000393	20.843766
2019.825437	-2.997600	3.237800	-9.704600	27.389928	0.000392	20.851352
2020.824453	-3.008700	3.235800	-9.734600	27.388214	0.000390	20.869067
2021.824912	-2.970300	3.236400	-9.612100	27.383795	0.000390	20.844234
2022.823447	-3.000800	3.234600	-9.705200	27.397556	0.000391	20.876094
2023.823978	-3.006600	3.235200	-9.725700	27.361906	0.000391	20.860146
2024.827786	-3.036200	3.232800	-9.814000	27.366192	0.000386	20.862560
2025.836406	-3.012000	3.234300	-9.739400	27.351806	0.000391	20.875115
2026.821893	-3.015400	3.232600	-9.747100	27.399106	0.000388	20.864377
2027.832458	-3.001500	3.233000	-9.702900	27.390597	0.000387	20.866723
2028.826229	-3.000400	3.234000	-9.702700	27.408404	0.000384	20.851921
2029.825799	-3.008900	3.231800	-9.723000	27.450075	0.000383	20.857808
2030.832988	-2.995100	3.232900	-9.681700	27.456050	0.000385	20.852439
2031.832626	-3.004300	3.231700	-9.708300	27.476707	0.000384	20.858049
2032.828007	-2.993300	3.232300	-9.673900	27.496128	0.000382	20.846768
2033.826243	-2.974100	3.231900	-9.610800	27.507311	0.000381	20.869397
2034.827498	-2.987200	3.230600	-9.648900	27.537093	0.000380	20.853844
2035.828585	-3.001800	3.230300	-9.695900	27.550411	0.000381	20.855864
2036.829515	-2.991100	3.230600	-9.662400	27.557779	0.000379	20.851898
2037.827876	-3.011200	3.228400	-9.720100	27.563300	0.000377	20.866462
2038.828089	-2.989600	3.230000	-9.655500	27.549879	0.000376	20.857700
2039.834111	-3.010000	3.228000	-9.715600	27.519113	0.000377	20.849031
2040.836165	-3.004000	3.227200	-9.692300	27.530791	0.000377	20.842763
2041.833915	-2.966500	3.229500	-9.578400	27.499987	0.000377	20.861555
2042.838096	-2.993500	3.226800	-9.658300	27.481081	0.000375	20.827837
2043.835074	-2.995800	3.226500	-9.665100	27.462101	0.000373	20.847148
2044.831997	-2.988600	3.226100	-9.640600	27.439926	0.000372	20.854709
2045.831968	-2.966100	3.229100	-9.576700	27.442429	0.000371	20.834469
2046.837331	-2.990900	3.225500	-9.646600	27.427268	0.000370	20.855252
2047.834837	-3.003800	3.224700	-9.685400	27.470647	0.000370	20.828719
2048.829699	-2.996300	3.225200	-9.662300	27.470769	0.000367	20.846385
2049.835342	-3.014600	3.223600	-9.716700	27.429020	0.000368	20.857014
2050.832499	-2.993500	3.225000	-9.652200	27.333952	0.000367	20.840561
2051.834311	-3.001000	3.223400	-9.672000	27.340698	0.000367	20.850192
2052.834893	-2.997900	3.223300	-9.662300	27.313041	0.000367	20.829958
2053.833913	-3.013400	3.221300	-9.706100	27.296758	0.000365	20.849613
2054.832644	-2.991700	3.223500	-9.642100	27.308267	0.000365	20.857397
2055.833856	-2.999200	3.221100	-9.659300	27.336126	0.000364	20.833739
2056.834853	-3.006700	3.222200	-9.686800	27.350144	0.000362	20.844047
2057.830679	-2.993000	3.221600	-9.640400	27.361751	0.000359	20.831067
2058.830609	-3.008100	3.220200	-9.685900	27.391714	0.000362	20.839873
2059.856236	-3.013100	3.219400	-9.698900	27.414583	0.000362	20.841542
2060.835070	-3.012600	3.219300	-9.697200	27.446081	0.000360	20.846204
2061.835518	-2.979700	3.219200	-9.590100	27.476887	0.000357	20.855859
2062.835609	-2.989200	3.218700	-9.619300	27.487280	0.000357	20.841186
2063.838970	-3.004200	3.217200	-9.663600	27.502435	0.000356	20.805699
2064.837330	-2.991400	3.217200	-9.623100	27.500917	0.000356	20.840681
2065.835054	-2.998100	3.218400	-9.648200	27.553418	0.000356	20.834709
2066.834360	-3.004200	3.216500	-9.662200	27.554612	0.000354	20.831642
2067.835198	-2.981500	3.216400	-9.588200	27.573976	0.000353	20.824100
2068.838182	-2.996500	3.217000	-9.639200	27.571522	0.000351	20.805984
2069.838614	-3.027300	3.214200	-9.729100	27.564502	0.000352	20.824999
2070.838406	-2.995200	3.216100	-9.630600	27.580274	0.000352	20.843712
2071.836032	-3.016200	3.214200	-9.693300	27.576945	0.000351	20.836096
2072.838596	-3.014900	3.213600	-9.687300	27.621021	0.000348	20.835400
2073.837433	-3.046800	3.213200	-9.789600	27.581854	0.000349	20.818276
2074.838296	-2.993800	3.213600	-9.619900	27.552980	0.000349	20.827630
2075.840095	-3.028200	3.213300	-9.728800	27.536864	0.000348	20.820424
2076.836418	-3.016000	3.213800	-9.691900	27.544944	0.000344	20.810062
2077.837326	-3.016500	3.213600	-9.693100	27.565104	0.000345	20.826552
2078.844589	-2.995900	3.211200	-9.619500	27.556793	0.000348	20.827673
2079.842916	-3.004500	3.210200	-9.644300	27.565771	0.000346	20.829595
2080.842268	-2.997800	3.210800	-9.624700	27.598489	0.000343	20.824582
2081.838738	-2.997300	3.210600	-9.622300	27.590074	0.000343	20.829866
2082.841180	-2.991200	3.211100	-9.603800	27.581230	0.000341	20.820493
2083.839890	-2.961500	3.212600	-9.513900	27.595686	0.000343	20.798054
2084.839774	-2.984900	3.209700	-9.579900	27.612253	0.000343	20.805715
2085.839931	-2.987400	3.210100	-9.588900	27.593335	0.000340	20.820819
2086.843008	-2.987300	3.208600	-9.583600	27.558880	0.000339	20.821712
2087.838669	-2.979300	3.208000	-9.557200	27.452243	0.000339	20.801195
2088.841130	-2.981900	3.209600	-9.569800	27.393727	0.000338	20.804914
2089.839626	-2.984400	3.208000	-9.573000	27.377481	0.000337	20.828400
2090.840017	-2.981700	3.207500	-9.562500	27.391204	0.000336	20.834144
2091.841610	-2.972400	3.207200	-9.531700	27.427765	0.000337	20.814976
2092.839736	-2.982200	3.206100	-9.560000	27.458798	0.000335	20.802100
2093.840849	-2.998700	3.206100	-9.612900	27.475323	0.000335	20.817303
2094.845617	-3.006600	3.205500	-9.636700	27.447841	0.000334	20.820000
2095.843919	-2.979400	3.205900	-9.550700	27.387807	0.000331	20.804174
2096.843960	-3.004300	3.204500	-9.626400	27.379249	0.000332	20.807894
2097.839881	-2.981600	3.205100	-9.555400	27.358663	0.000334	20.820849
2098.842270	-2.998800	3.202400	-9.602300	27.344425	0.000330	20.809845
2099.847694	-2.996400	3.203200	-9.597300	27.343286	0.000330	20.813441
2100.850120	-2.988500	3.202500	-9.569100	27.383993	0.000329	20.815036
2101.846090	-3.000200	3.201000	-9.603500	27.427182	0.000330	20.820553
2102.846549	-3.005600	3.200500	-9.618400	27.408025	0.000328	20.797961
2103.847708	-3.001800	3.200500	-9.606500	27.406071	0.000327	20.822074
2104.847073	-2.996800	3.200800	-9.590900	27.436181	0.000326	20.811114
2105.849280	-2.999300	3.199300	-9.595400	27.493183	0.000326	20.776002
2106.844858	-3.003700	3.199500	-9.609700	27.494995	0.000324	20.811490
2107.843688	-3.016900	3.198200	-9.647700	27.510699	0.000324	20.794574
2108.845364	-2.976500	3.199500	-9.522700	27.453001	0.000323	20.804802
2109.859039	-3.011000	3.199000	-9.632200	27.444792	0.000324	20.802234
2110.848361	-3.013800	3.198200	-9.637500	27.402748	0.000323	20.796446
2111.847291	-3.010600	3.196000	-9.620700	27.410136	0.000322	20.801982
2112.845347	-3.001200	3.196200	-9.591600	27.414879	0.000320	20.814814
2113.848541	-3.021600	3.194500	-9.651100	27.457095	0.000322	20.793275
2114.848960	-3.000300	3.196600	-9.590000	27.487307	0.000321	20.792376
2115.847642	-3.007400	3.195100	-9.606900	27.460070	0.000320	20.793423
2116.849112	-2.973800	3.195300	-9.501400	27.469600	0.000317	20.793527
2117.843402	-3.000200	3.195400	-9.586300	27.483439	0.000319	20.816459
2118.847064	-3.011200	3.193600	-9.616000	27.511195	0.000316	20.787486
2119.848377	-2.995400	3.193800	-9.566500	27.529923	0.000317	20.761758
2120.849046	-3.023700	3.192800	-9.653300	27.560732	0.000316	20.795602
2121.851389	-2.986900	3.192900	-9.535600	27.549490	0.000314	20.798041
2122.855116	-3.002500	3.191900	-9.582400	27.498893	0.000312	20.782221
2123.848302	-3.001900	3.190200	-9.575400	27.410196	0.000312	20.788292
2124.850457	-3.014100	3.190400	-9.615600	27.433982	0.000313	20.785669
2125.851875	-2.994100	3.190300	-9.551000	27.417939	0.000311	20.779486
2126.850664	-2.991600	3.189100	-9.539900	27.466355	0.000311	20.785047
2127.850124	-3.006800	3.189600	-9.589500	27.488977	0.000311	20.810177
2128.849086	-2.994600	3.189200	-9.549900	27.488481	0.000308	20.786919
2129.850433	-3.000700	3.189500	-9.569800	27.507068	0.000309	20.793765
2130.856942	-3.025700	3.187500	-9.643600	27.511579	0.000308	20.794511
2131.853744	-3.002200	3.188000	-9.570200	27.516941	0.000307	20.770033
2132.853850	-2.983500	3.188200	-9.511000	27.536935	0.000307	20.796789
2133.862156	-2.975800	3.187000	-9.481300	27.566698	0.000307	20.782638
2134.856623	-3.002600	3.186500	-9.566800	27.597599	0.000306	20.778168
2135.855112	-2.989700	3.186200	-9.524800	27.636299	0.000303	20.788660
2136.860459	-3.002000	3.185200	-9.559700	27.614005	0.000303	20.767649
2137.860476	-2.973000	3.185400	-9.469300	27.599917	0.000302	20.786190
2138.852384	-3.008200	3.184700	-9.579500	27.557755	0.000301	20.770321
2139.859852	-3.002100	3.183800	-9.557000	27.542063	0.000301	20.782507
2140.854718	-2.999900	3.183400	-9.549400	27.551861	0.000301	20.762019
2141.857127	-2.992500	3.183500	-9.525300	27.529840	0.000299	20.783959
2142.859828	-2.994200	3.184000	-9.532500	27.550281	0.000297	20.777974
2143.854433	-3.021500	3.182100	-9.613800	27.542888	0.000295	20.778596
2144.855973	-3.011700	3.179600	-9.574900	27.536993	0.000297	20.780726
2145.859791	-3.007000	3.182000	-9.567800	27.534441	0.000295	20.758717
2146.853737	-3.003500	3.180100	-9.550700	27.523896	0.000296	20.771815
2147.854384	-3.012400	3.179000	-9.575700	27.467947	0.000296	20.760096
2148.855231	-3.014700	3.179400	-9.582900	27.438059	0.000294	20.768907
2149.854390	-3.024400	3.178600	-9.612900	27.403408	0.000294	20.749694
2150.855327	-2.984700	3.178400	-9.485200	27.461355	0.000294	20.763895
2151.862113	-2.979300	3.177000	-9.464500	27.508568	0.000294	20.762557
2152.855329	-3.005600	3.176700	-9.546500	27.545940	0.000291	20.768390
2153.858351	-3.011600	3.177000	-9.566800	27.531336	0.000293	20.754644
2154.864772	-3.002200	3.176000	-9.534400	27.587935	0.000293	20.746633
2155.860680	-2.991200	3.175500	-9.497300	27.599992	0.000291	20.752126
2156.863003	-3.024700	3.172400	-9.594300	27.652652	0.000290	20.769552
2157.860246	-3.021400	3.173600	-9.588000	27.621747	0.000291	20.762163
2158.857064	-2.992600	3.174200	-9.497000	27.583773	0.000290	20.761886
2159.860355	-2.999800	3.174000	-9.520000	27.546049	0.000289	20.741946
2160.864612	-3.013600	3.172000	-9.558100	27.537896	0.000289	20.745123
2161.860631	-3.006700	3.173500	-9.540800	27.576906	0.000287	20.752605
2162.861111	-3.004600	3.171900	-9.529100	27.611331	0.000288	20.750259
2163.863431	-3.017200	3.171500	-9.567900	27.618179	0.000287	20.757624
2164.861612	-2.968800	3.172200	-9.415800	27.632041	0.000287	20.736958
2165.860169	-3.003600	3.170300	-9.521500	27.572175	0.000285	20.755906
2166.861203	-3.031800	3.168400	-9.603800	27.518580	0.000285	20.751293
2167.863598	-2.978300	3.169800	-9.440100	27.466164	0.000286	20.746447
2168.863160	-2.999600	3.170100	-9.507300	27.473674	0.000285	20.753055
2169.863962	-2.993700	3.169500	-9.487200	27.520135	0.000284	20.743848
2170.861526	-2.997600	3.166600	-9.491700	27.570039	0.000283	20.758024
2171.863482	-3.001700	3.167900	-9.507100	27.642364	0.000282	20.753984
2172.868227	-3.006400	3.167400	-9.519800	27.708063	0.000282	20.747549
2173.862989	-2.998800	3.166400	-9.494700	27.729609	0.000279	20.745997
2174.865234	-3.019300	3.166500	-9.558100	27.719041	0.000279	20.753855
2175.866773	-2.988900	3.165400	-9.459500	27.757928	0.000282	20.742727
2176.864439	-3.002300	3.164600	-9.499600	27.768441	0.000278	20.731495
2177.861302	-3.002200	3.164600	-9.500100	27.792048	0.000278	20.748615
2178.878655	-3.005500	3.162800	-9.504800	27.833973	0.000278	20.751454
2179.889112	-3.014000	3.164000	-9.534800	27.819796	0.000276	20.739082
2180.861775	-2.998600	3.162000	-9.480400	27.846155	0.000276	20.734315
2181.868078	-3.014200	3.161400	-9.527700	27.812405	0.000277	20.738281
2182.866523	-3.019600	3.159300	-9.538700	27.813794	0.000276	20.746792
2183.867671	-2.992600	3.160800	-9.458200	27.788749	0.000275	20.727277
2184.874568	-3.005200	3.161000	-9.498600	27.794874	0.000275	20.756201
2185.870901	-3.013200	3.159800	-9.520400	27.827830	0.000275	20.764712
2186.878572	-3.005400	3.160400	-9.496900	27.819766	0.000273	20.750906
2187.874804	-3.006900	3.160100	-9.500700	27.768661	0.000272	20.732191
2188.874634	-2.968200	3.158300	-9.373500	27.764396	0.000269	20.708931
2189.868907	-2.982600	3.156900	-9.414900	27.739468	0.000269	20.737426
2190.876467	-3.004000	3.157100	-9.482800	27.671421	0.000270	20.741971
2191.871923	-2.987000	3.155400	-9.424100	27.589747	0.000269	20.743714
2192.871441	-3.009900	3.155300	-9.496000	27.564330	0.000269	20.726674
2193.875528	-3.007500	3.153400	-9.482800	27.535730	0.000269	20.750056
2194.877416	-3.021300	3.154200	-9.528500	27.529432	0.000267	20.728546
2195.868277	-3.027100	3.151600	-9.537900	27.523703	0.000266	20.738429
2196.879683	-3.001300	3.152200	-9.459600	27.495795	0.000266	20.723626
2197.873075	-3.014100	3.152700	-9.501600	27.488627	0.000266	20.744391
2198.874795	-2.994500	3.151300	-9.435600	27.530026	0.000263	20.717289
2199.880882	-2.994500	3.151100	-9.434600	27.562268	0.000265	20.727444
2200.874277	-3.002500	3.150500	-9.459000	27.650309	0.000265	20.738744
2201.875839	-2.997800	3.151000	-9.445000	27.703977	0.000265	20.742963
2202.879894	-3.002700	3.149500	-9.456100	27.711668	0.000262	20.744539
2203.881403	-3.015100	3.148300	-9.490000	27.728050	0.000260	20.742532
2204.877182	-3.006200	3.148600	-9.464200	27.726343	0.000259	20.737494
2205.881822	-3.012400	3.149100	-9.485100	27.755384	0.000259	20.728312
2206.874104	-3.023200	3.146200	-9.510300	27.766417	0.000260	20.736571
2207.874125	-2.993900	3.146400	-9.419400	27.811353	0.000259	20.715885
2208.881559	-2.982900	3.146200	-9.382400	27.821021	0.000258	20.744108
2209.879207	-3.001100	3.145300	-9.438200	27.816108	0.000256	20.741534
2210.879481	-3.007300	3.144900	-9.456700	27.780601	0.000256	20.733301
2211.876956	-3.003600	3.144800	-9.444700	27.774353	0.000255	20.728910
2212.876000	-3.007900	3.142800	-9.452000	27.781990	0.000254	20.730905
2213.882503	-3.007100	3.143200	-9.450800	27.817625	0.000255	20.730258
2214.880230	-3.009400	3.141800	-9.454000	27.849937	0.000255	20.729113
2215.881693	-3.008000	3.142400	-9.451500	27.865876	0.000252	20.722395
2216.881767	-3.000600	3.141000	-9.423700	27.902977	0.000252	20.733183
2217.877738	-3.030500	3.138900	-9.511000	27.896553	0.000252	20.738098
2218.881670	-3.005200	3.140700	-9.437100	27.889982	0.000250	20.748554
2219.883455	-3.008600	3.139400	-9.443800	27.865239	0.000250	20.722702
2220.880576	-3.011300	3.138500	-9.449500	27.843341	0.000249	20.740967
2221.884578	-3.008100	3.136500	-9.434000	27.800590	0.000248	20.724020
2222.880475	-3.012200	3.136300	-9.445000	27.843170	0.000250	20.714715
2223.885270	-3.006000	3.137200	-9.429000	27.830645	0.000250	20.732457
2224.887859	-3.009100	3.135700	-9.434400	27.876216	0.000249	20.752717
2225.887482	-2.977500	3.135400	-9.334800	27.853107	0.000245	20.726139
2226.884635	-2.990700	3.134600	-9.373100	27.825169	0.000246	20.743541
2227.887930	-2.995000	3.133900	-9.385000	27.829978	0.000245	20.722302
2228.887819	-2.981700	3.133400	-9.341600	27.852249	0.000244	20.728595
2229.888567	-3.026400	3.131600	-9.476100	27.882248	0.000244	20.729390
2230.884896	-2.993700	3.131600	-9.374200	27.928067	0.000245	20.716236
2231.885029	-2.970500	3.131900	-9.302300	27.980681	0.000244	20.715614
2232.890120	-3.004900	3.131000	-9.406400	27.999842	0.000244	20.718779
2233.889925	-2.986600	3.130100	-9.346800	27.986113	0.000244	20.710176
2234.890312	-3.013800	3.128700	-9.427500	27.995780	0.000244	20.719906
2235.887470	-3.014500	3.127800	-9.427600	28.014848	0.000242	20.748110
2236.890364	-2.995600	3.127300	-9.367300	28.009048	0.000243	20.720460
2237.894728	-2.993100	3.126300	-9.356400	27.984877	0.000243	20.727899
2238.892307	-3.015400	3.126600	-9.426400	27.973400	0.000241	20.724881
2239.893632	-3.029600	3.123900	-9.463100	27.948806	0.000242	20.748017
2240.887697	-3.016800	3.124500	-9.424500	27.898511	0.000242	20.739594
2241.886775	-2.986900	3.125500	-9.334800	27.869381	0.000239	20.736354
2242.895043	-2.983000	3.123600	-9.316400	27.879446	0.000240	20.731785
2243.891296	-3.004800	3.121600	-9.378800	27.915250	0.000241	20.731311
2244.892226	-3.020700	3.120700	-9.424100	27.936664	0.000239	20.739588
2245.893296	-3.031700	3.120400	-9.458200	27.898383	0.000237	20.723817
2246.896527	-2.995500	3.120600	-9.346200	27.890845	0.000237	20.723343
2247.893368	-3.026900	3.119400	-9.440600	27.925853	0.000238	20.737716
2248.897463	-3.034600	3.118500	-9.462900	27.949132	0.000236	20.725585
2249.895860	-3.012700	3.119900	-9.398400	27.995861	0.000237	20.768354
2250.893898	-3.007900	3.117200	-9.373500	27.984531	0.000238	20.749836
2251.895494	-3.001400	3.118200	-9.357400	27.963676	0.000235	20.738801
2252.894032	-3.017800	3.114400	-9.397700	27.945671	0.000236	20.723049
2253.894044	-3.008900	3.117100	-9.377300	27.948272	0.000236	20.733254
2254.897849	-2.997400	3.116600	-9.338100	27.977900	0.000235	20.774931
2255.894451	-3.002000	3.114600	-9.348900	28.005638	0.000235	20.738840
2256.894200	-3.030300	3.111200	-9.426300	28.048748	0.000234	20.727232
2257.897996	-2.978500	3.113300	-9.272600	28.091331	0.000234	20.744494
2258.894115	-3.020700	3.111300	-9.397500	28.123861	0.000232	20.730299
2259.895115	-3.008800	3.109600	-9.354400	28.142004	0.000234	20.736235
2260.890872	-2.999800	3.111300	-9.331600	28.171793	0.000230	20.740621
2261.893952	-3.010500	3.108600	-9.357300	28.192565	0.000232	20.759637
2262.894690	-2.997300	3.108500	-9.315700	28.104759	0.000232	20.753744
2263.893470	-2.965100	3.108400	-9.216200	28.040302	0.000231	20.752396
2264.891943	-3.001400	3.107900	-9.326700	28.040547	0.000230	20.760229
2265.895986	-3.001600	3.106800	-9.324600	28.043893	0.000230	20.778296
2266.894256	-2.985600	3.106600	-9.274000	27.989300	0.000229	20.747051
2267.892389	-2.984700	3.104400	-9.264800	27.944843	0.000228	20.758727
2268.896205	-2.978100	3.105100	-9.246400	27.912190	0.000225	20.752889
2269.898549	-3.013900	3.102900	-9.350400	27.930661	0.000225	20.756781
2270.896452	-3.034700	3.102300	-9.413500	27.936962	0.000225	20.759330
2271.894432	-3.009700	3.102300	-9.335300	27.997480	0.000225	20.749120
2272.901833	-2.981000	3.102400	-9.246800	28.058220	0.000224	20.755260
2273.896975	-2.980400	3.100700	-9.239300	28.119012	0.000225	20.740591
2274.902452	-2.994900	3.099500	-9.281600	28.173347	0.000223	20.757833
2275.899091	-2.997500	3.098600	-9.286800	28.188767	0.000224	20.763874
2276.901178	-2.990400	3.098000	-9.263200	28.229142	0.000225	20.748098
2277.904210	-3.011000	3.097400	-9.325300	28.223746	0.000224	20.755468
2278.903509	-2.996400	3.094400	-9.271400	28.226695	0.000224	20.749901
2279.902900	-3.000600	3.095100	-9.286000	28.154862	0.000223	20.733059
2280.900444	-2.986200	3.094300	-9.238100	28.089863	0.000223	20.739223
2281.904454	-2.973700	3.094900	-9.202100	28.065798	0.000223	20.775216
2282.899026	-2.997300	3.093900	-9.272800	27.994768	0.000222	20.751606
2283.900525	-3.010300	3.091500	-9.305400	27.940870	0.000219	20.744296
2284.901786	-2.983200	3.090900	-9.220400	27.906535	0.000221	20.754783
2285.904653	-3.021500	3.089400	-9.333700	27.914568	0.000220	20.738212
2286.900259	-3.020500	3.087900	-9.325300	27.897957	0.000220	20.762745
2287.907131	-3.006800	3.087600	-9.283300	27.862403	0.000221	20.769162
2288.903883	-3.006500	3.087500	-9.282100	27.893968	0.000220	20.743557
2289.902219	-2.999500	3.086000	-9.256200	27.895436	0.000223	20.745982
2290.905293	-2.963500	3.085800	-9.144000	27.876175	0.000219	20.760263
2291.899026	-2.996200	3.086500	-9.246500	27.819291	0.000218	20.748532
2292.904333	-2.979200	3.085000	-9.190200	27.785301	0.000220	20.757947
2293.900883	-2.999500	3.082800	-9.245700	27.794228	0.000218	20.745119
2294.905958	-2.996900	3.082000	-9.235700	27.781807	0.000218	20.759646
2295.899633	-3.003000	3.081400	-9.252200	27.854013	0.000218	20.738432
2296.903771	-2.999900	3.080900	-9.242300	27.926496	0.000218	20.746898
2297.905455	-3.008700	3.079600	-9.264200	27.967951	0.000216	20.752588
2298.906955	-2.994700	3.080700	-9.225200	28.036706	0.000219	20.758259
2299.924629	-3.025500	3.076800	-9.307600	28.062063	0.000217	20.761499
2300.905547	-2.988400	3.077000	-9.194700	28.106963	0.000216	20.764498
2301.908701	-3.004100	3.075900	-9.239400	28.122359	0.000217	20.752970
2302.902998	-2.991500	3.076000	-9.200800	28.158718	0.000215	20.753537
2303.907948	-3.007500	3.074500	-9.246100	28.183220	0.000216	20.742168
2304.904229	-3.021300	3.073300	-9.284800	28.210340	0.000215	20.759989
2305.910979	-3.000400	3.073900	-9.221600	28.247821	0.000214	20.752205
2306.907808	-2.994000	3.072600	-9.196900	28.274855	0.000214	20.756664
2307.910820	-3.003000	3.069500	-9.216500	28.299967	0.000215	20.776259
2308.913177	-3.007300	3.069800	-9.230500	28.300413	0.000214	20.766277
2309.908287	-3.005900	3.068100	-9.221400	28.317690	0.000214	20.772293
2310.910455	-2.996100	3.066900	-9.187700	28.357056	0.000214	20.767360
2311.908370	-2.998100	3.067200	-9.194800	28.354598	0.000214	20.775316
2312.910341	-2.995200	3.065300	-9.179500	28.329866	0.000216	20.779337
2313.905866	-3.031400	3.063200	-9.284400	28.374974	0.000215	20.771652
2314.911551	-3.016000	3.063000	-9.237000	28.386453	0.000214	20.772304
2315.908118	-2.980200	3.064600	-9.131900	28.417855	0.000212	20.756034
2316.911074	-2.973600	3.062400	-9.105600	28.419855	0.000213	20.772274
2317.914675	-3.011600	3.060800	-9.216500	28.350224	0.000214	20.762851
2318.910042	-2.996400	3.060000	-9.168000	28.310858	0.000214	20.766836
2319.910835	-2.976100	3.059100	-9.103500	28.268376	0.000214	20.778591
2320.909721	-2.983100	3.058200	-9.121700	28.224407	0.000213	20.761349
2321.910316	-3.009000	3.055900	-9.193400	28.217887	0.000213	20.761897
2322.907292	-2.989100	3.058200	-9.139800	28.219771	0.000211	20.778019
2323.912350	-2.978400	3.054700	-9.096900	28.229734	0.000210	20.776670
2324.910506	-2.993600	3.054100	-9.141900	28.276755	0.000209	20.778019
2325.910263	-2.972900	3.054400	-9.078400	28.317848	0.000211	20.773875
2326.915924	-2.994800	3.051900	-9.139000	28.392147	0.000210	20.801746
2327.907183	-2.998500	3.050100	-9.144700	28.409526	0.000211	20.782261
2328.913484	-3.022100	3.049000	-9.213400	28.414980	0.000208	20.788702
2329.914565	-3.011400	3.048300	-9.176600	28.409031	0.000208	20.787453
2330.913416	-2.982300	3.047400	-9.087000	28.449843	0.000210	20.768807
2331.909536	-3.022400	3.045500	-9.203800	28.497747	0.000209	20.782434
2332.913576	-2.996400	3.046800	-9.128800	28.492293	0.000209	20.775045
2333.911082	-2.988600	3.045300	-9.099300	28.508350	0.000210	20.772249
2334.910540	-3.017900	3.042500	-9.181500	28.498793	0.000205	20.789177
2335.915637	-2.995600	3.042100	-9.112200	28.478614	0.000209	20.778339
2336.913426	-3.000900	3.039200	-9.119200	28.474774	0.000209	20.777317
2337.912987	-3.014900	3.038800	-9.161100	28.431425	0.000207	20.788192
2338.914750	-2.995900	3.038900	-9.102700	28.426006	0.000208	20.772304
2339.912934	-2.989900	3.037100	-9.079500	28.443491	0.000207	20.781850
2340.909541	-3.012400	3.036900	-9.147700	28.459034	0.000206	20.785649
2341.913744	-3.006900	3.034800	-9.124100	28.510503	0.000205	20.778210
2342.912464	-3.017100	3.033300	-9.151100	28.532216	0.000206	20.780636
2343.908704	-2.993900	3.032400	-9.076800	28.471301	0.000206	20.782354
2344.912563	-2.992600	3.031300	-9.070800	28.478914	0.000207	20.780063
2345.909165	-2.986500	3.030200	-9.048600	28.468182	0.000205	20.775420
2346.918594	-3.015300	3.028400	-9.130600	28.392128	0.000204	20.787028
2347.914477	-3.033800	3.026800	-9.181600	28.352249	0.000205	20.777692
2348.913528	-2.978200	3.027900	-9.016100	28.338214	0.000204	20.791062
2349.911252	-2.986400	3.026100	-9.036000	28.342403	0.000205	20.796702
2350.913234	-2.973500	3.025100	-8.994000	28.350311	0.000206	20.797078
2351.915218	-3.010400	3.023600	-9.100600	28.342189	0.000206	20.796960
2352.915078	-3.025300	3.022300	-9.142500	28.387713	0.000205	20.771676
2353.916152	-2.989300	3.021900	-9.032900	28.399509	0.000206	20.775968
2354.913747	-2.998000	3.019800	-9.052100	28.416210	0.000203	20.790889
2355.916675	-3.001200	3.018400	-9.058200	28.419139	0.000204	20.792416
2356.915425	-3.009300	3.017700	-9.080200	28.457867	0.000205	20.803439
2357.915583	-2.984700	3.017100	-9.004500	28.509488	0.000202	20.783352
2358.925622	-3.005200	3.015400	-9.061000	28.509861	0.000205	20.793685
2359.921631	-3.010100	3.013200	-9.069500	28.549685	0.000204	20.814350
2360.919508	-3.007400	3.013200	-9.060600	28.586206	0.000205	20.783327
2361.917218	-2.995700	3.011500	-9.020800	28.644956	0.000203	20.787970
2362.916721	-3.007300	3.009800	-9.050100	28.619412	0.000202	20.817719
2363.918691	-2.981500	3.009900	-8.972800	28.627317	0.000203	20.797706
2364.916226	-2.994300	3.007600	-9.004800	28.620054	0.000202	20.810305
2365.919937	-2.993600	3.006700	-8.999900	28.613292	0.000202	20.810132
2366.915387	-3.011000	3.005300	-9.047000	28.629328	0.000202	20.803999
2367.918667	-2.985900	3.004400	-8.970300	28.636188	0.000203	20.788149
2368.927014	-3.008600	3.003100	-9.034200	28.659507	0.000202	20.796462
2369.920488	-2.992100	3.001800	-8.981400	28.644148	0.000202	20.792847
2370.919099	-3.011100	2.999500	-9.029900	28.679126	0.000202	20.800575
2371.920630	-3.009600	2.999700	-9.027000	28.601582	0.000202	20.817779
2372.914819	-3.020900	2.997600	-9.054100	28.532246	0.000201	20.794891
2373.919909	-3.033000	2.995500	-9.084400	28.536513	0.000200	20.796818
2374.922255	-2.996700	2.993800	-8.970200	28.563521	0.000201	20.805051
2375.919773	-3.010000	2.992900	-9.007000	28.577449	0.000202	20.812440
2376.920216	-2.980800	2.994400	-8.924300	28.604236	0.000203	20.823296
2377.921409	-3.003700	2.990700	-8.981900	28.625622	0.000202	20.795999
2378.922134	-3.002200	2.988800	-8.971400	28.675028	0.000200	20.826319
2379.923629	-3.008200	2.988800	-8.988700	28.621410	0.000200	20.800291
2380.925105	-2.998200	2.987700	-8.956700	28.624014	0.000202	20.786792
2381.919639	-2.999300	2.985100	-8.952500	28.607586	0.000205	20.813394
2382.924632	-2.987300	2.984100	-8.912400	28.596262	0.000205	20.817637
2383.931555	-3.004900	2.981500	-8.958300	28.590765	0.000204	20.821584
2384.927106	-2.985700	2.980700	-8.898700	28.628673	0.000202	20.808554
2385.929030	-2.995800	2.980600	-8.928200	28.643175	0.000203	20.823160
2386.929205	-3.014400	2.977900	-8.975100	28.542773	0.000204	20.810235
2387.925345	-2.987600	2.977300	-8.894000	28.509816	0.000202	20.823985
2388.922978	-3.020300	2.975000	-8.984400	28.499953	0.000202	20.818320
2389.929303	-3.010000	2.974100	-8.951000	28.492193	0.000204	20.818092
2390.923144	-2.998800	2.972000	-8.910200	28.494602	0.000203	20.830475
2391.926572	-3.019100	2.971000	-8.968700	28.500442	0.000204	20.812649
2392.932328	-3.011400	2.968800	-8.939600	28.532556	0.000203	20.798523
2393.925999	-3.003500	2.968600	-8.915200	28.529315	0.000206	20.818966
2394.924989	-3.028800	2.965700	-8.981000	28.512665	0.000202	20.827328
2395.930244	-3.020000	2.965800	-8.956100	28.496499	0.000204	20.836178
2396.926365	-3.001800	2.964800	-8.898900	28.467508	0.000205	20.829743
2397.925179	-3.013700	2.962400	-8.926700	28.476356	0.000205	20.823480
2398.931467	-3.016600	2.961000	-8.931500	28.462072	0.000205	20.823795
2399.926475	-3.022900	2.959700	-8.946500	28.452900	0.000205	20.826412
2400.929393	-2.985700	2.958800	-8.833800	28.510593	0.000205	20.806276
2401.929263	-2.974100	2.958700	-8.798400	28.517185	0.000202	20.824768
2402.927094	-2.987400	2.955900	-8.829700	28.565851	0.000204	20.819725
2403.929811	-2.977600	2.954700	-8.795000	28.582323	0.000204	20.837263
2404.929940	-2.995500	2.952800	-8.844400	28.630240	0.000203	20.838107
2405.929784	-2.994600	2.949500	-8.831600	28.662026	0.000202	20.849258
2406.931414	-3.016600	2.949500	-8.896700	28.670323	0.000202	20.824899
2407.936050	-2.992500	2.949900	-8.826500	28.636673	0.000203	20.819456
2408.934555	-3.010400	2.948000	-8.873400	28.607062	0.000202	20.849850
2409.930659	-2.993400	2.944800	-8.813500	28.587283	0.000202	20.843207
2410.931559	-2.987800	2.944900	-8.797500	28.580638	0.000202	20.828928
2411.933074	-2.999200	2.941900	-8.822300	28.562875	0.000201	20.837117
2412.932549	-2.988500	2.940100	-8.785600	28.551638	0.000200	20.826274
2413.936151	-2.996400	2.937900	-8.801400	28.573197	0.000200	20.828546
2414.934546	-3.012900	2.935800	-8.844400	28.599831	0.000202	20.845412
2415.933037	-2.998900	2.936200	-8.804600	28.598272	0.000202	20.854747
2416.937522	-2.993600	2.933800	-8.780500	28.577081	0.000200	20.836724
2417.934362	-2.981100	2.933000	-8.742800	28.524918	0.000198	20.843935
2418.932617	-3.010500	2.931700	-8.824800	28.459594	0.000201	20.855438
2419.953074	-2.997800	2.929600	-8.781400	28.434192	0.000199	20.854514
2420.932627	-3.014200	2.927300	-8.822600	28.489453	0.000203	20.839988
2421.933570	-3.012600	2.924700	-8.809400	28.532990	0.000199	20.834521
2422.940064	-3.003100	2.922900	-8.776400	28.577766	0.000199	20.844527
2423.932548	-3.015700	2.922500	-8.811700	28.648506	0.000198	20.858400
2424.933334	-3.012000	2.919800	-8.793900	28.646550	0.000199	20.851688
2425.936560	-3.007100	2.918500	-8.775600	28.673574	0.000201	20.837182
2426.940463	-3.003200	2.917900	-8.762300	28.623574	0.000198	20.856048
2427.934261	-2.986900	2.915800	-8.707600	28.607293	0.000199	20.834436
2428.942271	-2.983500	2.915800	-8.696900	28.546603	0.000199	20.841591
2429.940331	-2.980600	2.913800	-8.683600	28.483732	0.000200	20.858408
2430.934460	-2.975500	2.910200	-8.658100	28.480638	0.000201	20.839171
2431.942538	-2.995100	2.910500	-8.716300	28.529746	0.000200	20.847374
2432.933876	-3.011000	2.907400	-8.751500	28.570535	0.000199	20.869485
2433.937507	-3.013700	2.905600	-8.755600	28.549465	0.000197	20.865336
2434.943219	-3.015900	2.903700	-8.756200	28.523521	0.000200	20.849640
2435.938323	-2.989100	2.902600	-8.675400	28.492343	0.000200	20.872294
2436.941958	-2.997300	2.899600	-8.689800	28.484113	0.000199	20.869222
2437.944319	-3.025700	2.898900	-8.769400	28.478242	0.000197	20.871371
2438.938999	-3.048800	2.896300	-8.828400	28.477094	0.000199	20.860731
2439.939107	-2.985700	2.896500	-8.646800	28.472924	0.000198	20.851317
2440.939345	-3.002500	2.892600	-8.683300	28.437316	0.000197	20.885158
2441.938828	-3.018000	2.890900	-8.723000	28.398631	0.000200	20.872757
2442.939757	-2.995600	2.890500	-8.657800	28.354759	0.000199	20.869833
2443.944609	-3.031300	2.885800	-8.746900	28.310861	0.000196	20.864987
2444.942638	-2.977900	2.886500	-8.594600	28.301908	0.000196	20.873990
2445.939960	-2.990900	2.883600	-8.623600	28.253524	0.000196	20.850881
2446.943315	-2.989000	2.882800	-8.616000	28.278220	0.000197	20.875270
2447.939262	-2.999900	2.879500	-8.637600	28.323747	0.000195	20.877961
2448.939629	-2.994100	2.877700	-8.615300	28.363004	0.000198	20.858695
2449.946793	-2.990400	2.877100	-8.602100	28.435593	0.000197	20.865407
2450.943142	-3.005000	2.875800	-8.640300	28.484635	0.000197	20.884446
2451.940364	-2.969700	2.873200	-8.531800	28.554249	0.000196	20.873947
2452.943429	-2.997200	2.871600	-8.604100	28.608783	0.000197	20.870074
2453.942496	-2.998800	2.867200	-8.597100	28.576206	0.000197	20.860498
2454.942331	-3.011100	2.867600	-8.633300	28.576377	0.000199	20.859723
2455.944895	-2.988400	2.865900	-8.562800	28.570978	0.000199	20.872776
2456.944246	-2.979500	2.864000	-8.532500	28.615477	0.000197	20.875394
2457.943388	-3.019100	2.861200	-8.637200	28.658269	0.000196	20.881982
2458.947951	-2.999800	2.858100	-8.573300	28.679233	0.000197	20.866588
2459.943688	-3.001300	2.856700	-8.573000	28.747074	0.000197	20.859531
2460.945846	-3.016500	2.853100	-8.604600	28.810993	0.000197	20.861803
2461.956220	-3.003000	2.852900	-8.566100	28.838690	0.000197	20.861729
2462.950493	-3.010100	2.850200	-8.577600	28.891411	0.000200	20.861261
2463.948215	-2.998400	2.848200	-8.539000	28.902584	0.000198	20.865878
2464.953629	-2.987300	2.847100	-8.504300	28.903324	0.000199	20.864727
2465.946743	-2.993200	2.845100	-8.515000	28.896196	0.000198	20.869400
2466.945171	-3.003900	2.841800	-8.534800	28.863843	0.000198	20.867627
2467.947536	-2.995700	2.840800	-8.509100	28.837112	0.000199	20.849235
2468.948903	-3.009600	2.838000	-8.541000	28.826139	0.000199	20.869000
2469.963329	-3.017000	2.833900	-8.548400	28.841775	0.000199	20.861044
2470.951561	-3.006800	2.835100	-8.523800	28.867094	0.000201	20.856204
2471.951037	-3.005200	2.831300	-8.507900	28.880303	0.000198	20.864295
2472.947094	-3.027000	2.828900	-8.562300	28.908365	0.000200	20.871228
2473.955606	-2.999800	2.827900	-8.482200	28.934428	0.000200	20.841536
2474.948954	-3.023700	2.823500	-8.536300	28.945081	0.000201	20.845157
2475.949748	-3.013400	2.821300	-8.499300	28.968564	0.000199	20.843685
2476.950690	-3.005400	2.820200	-8.475600	29.016243	0.000199	20.853316
2477.948987	-3.018700	2.817300	-8.501300	29.040219	0.000200	20.859455
2478.955067	-3.007300	2.815100	-8.464800	29.019140	0.000200	20.842959
2479.950932	-3.010900	2.813400	-8.470200	29.035189	0.000199	20.862447
2480.949385	-2.993100	2.810900	-8.412200	29.070062	0.000200	20.840687
2481.947134	-3.017700	2.808400	-8.474200	29.085866	0.000198	20.860403
2482.949858	-3.008700	2.806900	-8.444000	29.055028	0.000199	20.851142
2483.950554	-2.998900	2.802900	-8.403100	29.020179	0.000198	20.841161
2484.949167	-3.019000	2.800700	-8.454200	28.989859	0.000200	20.839536
2485.955519	-2.972600	2.799800	-8.321300	28.955283	0.000200	20.839314
2486.947575	-3.014500	2.795900	-8.426900	28.945620	0.000200	20.855182
2487.948128	-2.979200	2.793200	-8.321100	28.991736	0.000201	20.847590
2488.958503	-2.975300	2.791400	-8.303900	29.007815	0.000201	20.838187
2489.959549	-2.992100	2.788700	-8.343700	29.031242	0.000201	20.844721
2490.950116	-3.008200	2.784800	-8.375800	29.040850	0.000199	20.842547
2491.955960	-3.006800	2.783000	-8.366700	29.092070	0.000198	20.852430
2492.948011	-3.021100	2.781100	-8.401000	29.136768	0.000201	20.844364
2493.951243	-3.010900	2.778000	-8.363000	29.173195	0.000201	20.858312
2494.962020	-2.941000	2.777900	-8.168600	29.193697	0.000199	20.843885
2495.950072	-2.979500	2.771300	-8.256200	29.176465	0.000200	20.853546
2496.952747	-3.022200	2.769000	-8.366300	29.132943	0.000201	20.860424
2497.954555	-2.989200	2.768400	-8.274100	29.106445	0.000201	20.824716
2498.955067	-3.016000	2.763200	-8.332600	29.069373	0.000200	20.846631
2499.949826	-2.999100	2.760000	-8.276500	29.095872	0.000201	20.845831
2500.954777	-3.016900	2.759600	-8.324300	29.133365	0.000198	20.828134
2501.956644	-3.012300	2.755100	-8.297900	29.171449	0.000200	20.818621
2502.957520	-3.021200	2.751300	-8.311300	29.190007	0.000200	20.855338
2503.959046	-3.009200	2.748900	-8.271200	29.198672	0.000198	20.837992
2504.957886	-2.975200	2.746500	-8.170200	29.146222	0.000200	20.853417
2505.956743	-3.023900	2.742500	-8.290900	29.117812	0.000200	20.829532
2506.957028	-3.008000	2.739900	-8.239600	29.051681	0.000199	20.840659
2507.958756	-3.029600	2.736400	-8.289500	28.989592	0.000199	20.816034
2508.953938	-2.975700	2.735100	-8.137300	29.018372	0.000199	20.854039
2509.961333	-2.987100	2.729900	-8.153600	29.032485	0.000198	20.834594
2510.959622	-3.018200	2.726100	-8.227100	29.035858	0.000198	20.835147
2511.960787	-2.993700	2.725800	-8.159900	29.021593	0.000198	20.813663
2512.963681	-3.014400	2.719800	-8.196000	29.000838	0.000199	20.834950
2513.961876	-3.014600	2.716300	-8.186700	28.931876	0.000197	20.827112
2514.957243	-3.000800	2.715000	-8.146600	28.866906	0.000199	20.824248
2515.961531	-3.002300	2.710100	-8.135000	28.880134	0.000198	20.822401
2516.963929	-3.006100	2.706300	-8.134300	28.892493	0.000198	20.826791
2517.955666	-3.002400	2.702600	-8.113200	28.951256	0.000199	20.795429
2518.962356	-2.980900	2.701200	-8.050700	29.005451	0.000199	20.826797
2519.960753	-2.981400	2.697000	-8.039900	29.060810	0.000197	20.833736
2520.958999	-2.975700	2.694200	-8.014600	29.088928	0.000198	20.813230
2521.958951	-3.009500	2.687300	-8.087100	29.115256	0.000198	20.815576
2522.961781	-3.004800	2.685000	-8.067000	29.095644	0.000198	20.792971
2523.959782	-3.018400	2.680200	-8.088800	29.129451	0.000197	20.829880
2524.963088	-3.010100	2.678200	-8.060300	29.186216	0.000198	20.818802
2525.966518	-3.027500	2.670500	-8.084600	29.205684	0.000199	20.817558
2526.961136	-3.012900	2.668900	-8.040000	29.228519	0.000195	20.805008
2527.967684	-2.980300	2.665400	-7.943300	29.286787	0.000197	20.823426
2528.962443	-2.998400	2.660400	-7.976100	29.308380	0.000198	20.811523
2529.965344	-2.975500	2.657200	-7.905300	29.312968	0.000196	20.817569
2530.967714	-2.974500	2.652700	-7.889500	29.336119	0.000197	20.806763
2531.965096	-2.954000	2.650900	-7.829500	29.378637	0.000196	20.805518
2532.961370	-3.042000	2.642900	-8.038600	29.392677	0.000195	20.810660
2533.966252	-3.006600	2.640200	-7.936900	29.361853	0.000196	20.823689
2534.966903	-3.019600	2.635000	-7.956600	29.323648	0.000198	20.819798
2535.962132	-3.019800	2.631700	-7.945600	29.306050	0.000196	20.810123
2536.967453	-3.018200	2.626000	-7.924600	29.299977	0.000195	20.807796
2537.968671	-2.962600	2.623000	-7.770600	29.267245	0.000196	20.810370
2538.967047	-2.984800	2.617900	-7.812100	29.209873	0.000198	20.788115
2539.964676	-2.993700	2.611700	-7.818100	29.175897	0.000197	20.790387
2540.968708	-2.986300	2.608300	-7.787200	29.193484	0.000197	20.811902
2541.963897	-2.996300	2.603000	-7.797800	29.205375	0.000197	20.798281
2542.974333	-2.995500	2.598200	-7.782000	29.191534	0.000197	20.806144
2543.968644	-3.041600	2.591200	-7.879800	29.187275	0.000197	20.803749
2544.964895	-3.018700	2.587300	-7.808900	29.164390	0.000198	20.795386
2545.973036	-2.988300	2.582500	-7.716300	29.169052	0.000197	20.808145
2546.973820	-2.987700	2.576800	-7.697800	29.154171	0.000198	20.782719
2547.968937	-3.009500	2.570700	-7.734600	29.145653	0.000198	20.795472
2548.972174	-3.004700	2.564700	-7.705900	29.192413	0.000197	20.797072
2549.971840	-3.003000	2.558800	-7.683000	29.221340	0.000199	20.800619
2550.971841	-3.008200	2.554400	-7.682700	29.232932	0.000198	20.775790
2551.977762	-3.011600	2.549400	-7.675900	29.254629	0.000196	20.798131
2552.976493	-3.010700	2.542500	-7.653800	29.275587	0.000197	20.790802
2553.973570	-2.989300	2.535200	-7.577900	29.315230	0.000200	20.776701
2554.975604	-2.990900	2.530800	-7.568200	29.315896	0.000197	20.806770
2555.982271	-2.984700	2.524000	-7.532200	29.304213	0.000197	20.794995
2556.974459	-3.002500	2.516700	-7.555500	29.325458	0.000198	20.801233
2557.976993	-2.998700	2.510700	-7.528600	29.294755	0.000199	20.797317
2558.975521	-3.022600	2.504200	-7.568400	29.276955	0.000198	20.784120
2559.978126	-3.037800	2.498300	-7.588600	29.246746	0.000201	20.792556
