LabVIEW Measurement	
Writer_Version	2
Reader_Version	2
Separator	Tab
Decimal_Separator	.
Multi_Headings	No
X_Columns	One
Time_Pref	Absolute
Operator	admin
Description	Clolumns are: time, Current, Voltage, Power, Battery Temp, and Chamber Temp
Date	2024/08/16
Time	13:06:06.104549407958984375
***End_of_Header***	
	
Channels	6						
Samples	1	1	1	1	1	1	
Date	2024/08/26	2024/08/26	2024/08/26	2024/08/26	2024/08/26	2024/08/26	
Time	04:26:52.3271007537841796875	04:26:52.3311352729797363281	04:26:52.336101531982421875	04:26:52.312103271484375	04:26:52.312103271484375	04:26:52.312103271484375	
X_Dimension	Time	Time	Time	Time	Time	Time	
X0	0.0000000000000000E+0	0.0000000000000000E+0	0.0000000000000000E+0	0.0000000000000000E+0	0.0000000000000000E+0	0.0000000000000000E+0	
Delta_X	1.000000	1.000000	1.000000	1.000000	1.000000	1.000000	
***End_of_Header***							
X_Value	Untitled	Untitled 1	Untitled 2	Untitled 3	Untitled 4	Untitled 5	Comment
0.000000	0.020265	4.108000	0.083136	21.060607	0.000971	20.940194
0.998413	-3.032400	3.947300	-11.968000	21.090023	0.000972	20.920307
1.998642	-2.999100	3.942200	-11.823000	21.084707	0.000972	20.934428
2.998643	-3.005500	3.936800	-11.831000	21.066862	0.000973	20.932226
4.002707	-2.998000	3.932700	-11.788000	21.063579	0.000971	20.915193
4.998710	-2.987400	3.928600	-11.735000	21.076471	0.000970	20.926190
5.998905	-2.984600	3.925800	-11.715000	21.085544	0.000969	20.916775
6.998907	-2.979100	3.925000	-11.692000	21.067785	0.000968	20.947846
8.000133	-3.003900	3.923200	-11.783000	21.087237	0.000968	20.918468
9.000587	-3.016900	3.918400	-11.820000	21.102584	0.000968	20.937136
10.000091	-2.990400	3.918400	-11.716000	21.074651	0.000967	20.933378
11.001209	-3.011100	3.915800	-11.790000	21.080110	0.000966	20.919874
12.000183	-3.001100	3.913600	-11.744000	21.075539	0.000966	20.912932
13.002225	-3.004200	3.913100	-11.754000	21.104996	0.000963	20.926273
14.000477	-2.997900	3.911600	-11.726000	21.103252	0.000964	20.917418
15.002077	-3.018000	3.910100	-11.799000	21.118023	0.000963	20.902323
16.001461	-2.985200	3.909200	-11.666000	21.091519	0.000962	20.895253
17.002663	-3.021600	3.907100	-11.805000	21.109135	0.000961	20.900545
18.001752	-3.003200	3.906600	-11.730000	21.100094	0.000959	20.885812
19.002852	-2.984800	3.905600	-11.657000	21.106409	0.000960	20.890706
20.005173	-2.995200	3.904300	-11.693000	21.127037	0.000961	20.909442
21.004411	-3.006200	3.903100	-11.733000	21.106052	0.000957	20.899358
22.006238	-3.026000	3.899800	-11.798000	21.115524	0.000958	20.889392
23.006237	-2.983600	3.903100	-11.644000	21.126426	0.000957	20.911202
24.005291	-2.993100	3.901500	-11.676000	21.106120	0.000955	20.903218
25.010144	-2.972400	3.902200	-11.598000	21.136677	0.000955	20.908179
26.009581	-2.993900	3.899100	-11.672000	21.146851	0.000958	20.881374
27.007405	-3.005900	3.899000	-11.720000	21.168824	0.000955	20.894344
28.014407	-2.982600	3.898700	-11.627000	21.157320	0.000952	20.890898
29.011169	-3.001400	3.896200	-11.694000	21.147493	0.000953	20.883914
30.007394	-3.007400	3.897200	-11.719000	21.172428	0.000954	20.893209
31.011595	-3.027600	3.895300	-11.793000	21.178759	0.000954	20.888162
32.011815	-2.981600	3.896000	-11.615000	21.162821	0.000953	20.919157
33.007869	-3.003900	3.895700	-11.702000	21.160289	0.000950	20.899557
34.010870	-2.987700	3.895900	-11.639000	21.187476	0.000950	20.898304
35.011763	-3.008200	3.895300	-11.717000	21.192868	0.000950	20.888525
36.007439	-2.973200	3.893800	-11.575000	21.216914	0.000949	20.889346
37.012434	-3.010400	3.892600	-11.717000	21.181728	0.000949	20.881649
38.011437	-2.957100	3.894600	-11.515000	21.204006	0.000951	20.900140
39.008434	-2.985400	3.893000	-11.622000	21.206968	0.000950	20.890776
40.012830	-3.007600	3.891800	-11.704000	21.201703	0.000948	20.876501
41.015644	-3.002500	3.890100	-11.679000	21.227619	0.000950	20.884409
42.011646	-2.982800	3.890800	-11.605000	21.226392	0.000947	20.872276
43.015076	-2.985200	3.891400	-11.615000	21.225418	0.000948	20.903068
44.014551	-2.997000	3.887800	-11.649000	21.235591	0.000947	20.890487
45.014030	-3.000200	3.887600	-11.662000	21.223259	0.000948	20.876728
46.017580	-2.994300	3.890200	-11.647000	21.240051	0.000947	20.878828
47.014638	-3.011200	3.887000	-11.704000	21.249623	0.000945	20.873231
48.014863	-3.020600	3.885600	-11.736000	21.280253	0.000947	20.865467
49.018898	-3.029500	3.887300	-11.775000	21.246974	0.000946	20.876270
50.016710	-2.987700	3.887800	-11.615000	21.266432	0.000946	20.870132
51.015713	-2.976900	3.888300	-11.574000	21.273599	0.000946	20.866871
52.018739	-2.991000	3.886800	-11.625000	21.305414	0.000945	20.865983
53.015711	-3.027200	3.885000	-11.759000	21.284754	0.000945	20.868548
54.015697	-3.011000	3.884200	-11.695000	21.316881	0.000947	20.870817
55.018888	-2.994300	3.885400	-11.633000	21.318853	0.000945	20.879427
56.016074	-2.998000	3.885400	-11.648000	21.327740	0.000946	20.861767
57.016074	-3.002000	3.885500	-11.662000	21.310297	0.000944	20.851903
58.018319	-2.987700	3.885800	-11.608000	21.335695	0.000943	20.857872
59.016292	-2.992300	3.884900	-11.623000	21.321147	0.000945	20.876980
60.020376	-3.008300	3.881700	-11.675000	21.312116	0.000945	20.863679
61.019219	-3.005600	3.883000	-11.670000	21.350387	0.000944	20.874466
62.017719	-3.011400	3.883900	-11.694000	21.353247	0.000943	20.854569
63.019177	-2.981400	3.883800	-11.579000	21.342499	0.000941	20.855670
64.019917	-3.003100	3.881300	-11.654000	21.343625	0.000941	20.834038
65.018916	-2.975700	3.883800	-11.556000	21.345689	0.000942	20.864551
66.019145	-2.994400	3.882100	-11.623000	21.352063	0.000942	20.853385
67.027009	-2.999400	3.881100	-11.640000	21.357817	0.000941	20.863409
68.019006	-2.981700	3.881600	-11.573000	21.351513	0.000941	20.868955
69.019009	-2.988300	3.879600	-11.592000	21.365731	0.000942	20.861369
70.018563	-2.997500	3.881600	-11.634000	21.358969	0.000943	20.854604
71.020644	-2.987300	3.880500	-11.592000	21.390247	0.000941	20.867405
72.018648	-3.004000	3.878800	-11.650000	21.383062	0.000940	20.864010
73.021646	-2.988700	3.879000	-11.591000	21.396239	0.000942	20.847323
74.021646	-2.987500	3.878800	-11.587000	21.397044	0.000941	20.845757
75.019047	-3.005600	3.878000	-11.654000	21.408561	0.000941	20.851116
76.018652	-2.987400	3.879600	-11.589000	21.427618	0.000940	20.864968
77.019649	-2.988700	3.879600	-11.593000	21.425233	0.000939	20.850727
78.018483	-2.973400	3.877400	-11.526000	21.428820	0.000943	20.862851
79.019493	-2.995500	3.877900	-11.616000	21.439246	0.000941	20.861903
80.022526	-3.001900	3.878100	-11.640000	21.436040	0.000939	20.858695
81.019813	-2.990700	3.878300	-11.598000	21.464845	0.000938	20.845318
82.021154	-3.003000	3.877200	-11.642000	21.464988	0.000940	20.852573
83.023798	-3.007500	3.876300	-11.656000	21.473257	0.000941	20.847096
84.021793	-3.014900	3.878800	-11.694000	21.498363	0.000940	20.834759
85.021756	-3.006800	3.876800	-11.655000	21.492015	0.000942	20.858279
86.024083	-2.997700	3.875800	-11.618000	21.512782	0.000939	20.834963
87.023889	-3.013200	3.875300	-11.676000	21.506275	0.000942	20.851685
88.022901	-3.004600	3.875700	-11.644000	21.507916	0.000939	20.845741
89.026101	-3.005600	3.874500	-11.644000	21.506994	0.000941	20.850034
90.024437	-2.986200	3.875300	-11.572000	21.503330	0.000939	20.855376
91.025439	-3.000800	3.875800	-11.629000	21.513409	0.000938	20.858348
92.027439	-3.004000	3.874700	-11.639000	21.519197	0.000938	20.848967
93.025485	-3.008500	3.874900	-11.657000	21.528623	0.000940	20.849865
94.024823	-3.001500	3.874200	-11.627000	21.543939	0.000939	20.843854
95.027042	-3.009600	3.872500	-11.654000	21.553314	0.000939	20.827631
96.025215	-3.010000	3.872800	-11.656000	21.555979	0.000940	20.863013
97.024435	-2.978600	3.874400	-11.539000	21.559922	0.000941	20.841830
98.025437	-2.986000	3.872500	-11.562000	21.563560	0.000941	20.847841
99.025486	-2.994900	3.873900	-11.601000	21.562368	0.000939	20.833846
100.024531	-2.995000	3.873600	-11.600000	21.585544	0.000940	20.841390
101.028000	-2.986200	3.873700	-11.567000	21.586915	0.000941	20.846555
102.027002	-2.988100	3.872600	-11.569000	21.588066	0.000937	20.855767
103.026659	-3.023700	3.874100	-11.713000	21.605868	0.000942	20.837072
104.030874	-2.978100	3.874500	-11.537000	21.596197	0.000939	20.852999
105.029725	-3.005500	3.872400	-11.637000	21.604125	0.000940	20.830587
106.029906	-3.003000	3.871900	-11.627000	21.621936	0.000940	20.840824
107.031649	-3.003900	3.870800	-11.626000	21.602780	0.000939	20.831137
108.031869	-2.999000	3.872400	-11.613000	21.610844	0.000940	20.835888
109.030263	-3.018100	3.869900	-11.679000	21.624120	0.000940	20.836845
110.032414	-2.997100	3.869600	-11.596000	21.632792	0.000941	20.849791
111.031921	-2.984700	3.870400	-11.551000	21.626260	0.000941	20.843729
112.033269	-3.002000	3.869400	-11.614000	21.640331	0.000940	20.850697
113.036030	-3.026500	3.870800	-11.714000	21.637320	0.000942	20.820183
114.036035	-3.009100	3.870600	-11.646000	21.648911	0.000942	20.843162
115.034236	-2.993000	3.869300	-11.580000	21.636693	0.000941	20.817660
116.038438	-3.013800	3.868600	-11.658000	21.630991	0.000942	20.832816
117.038405	-3.022100	3.869100	-11.691000	21.652135	0.000943	20.842595
118.036098	-3.014500	3.867800	-11.658000	21.677297	0.000942	20.835060
119.038447	-3.006700	3.868300	-11.630000	21.674082	0.000941	20.831843
120.038604	-2.999800	3.868600	-11.604000	21.664749	0.000942	20.836253
121.036607	-2.997900	3.867100	-11.592000	21.690445	0.000941	20.834942
122.040983	-2.977200	3.869300	-11.518000	21.683694	0.000940	20.831979
123.042981	-3.016200	3.867400	-11.663000	21.681866	0.000942	20.838684
124.039171	-3.007600	3.867400	-11.631000	21.695005	0.000943	20.829074
125.042818	-2.996700	3.868900	-11.594000	21.716528	0.000941	20.828804
126.039921	-3.019400	3.868500	-11.678000	21.715082	0.000941	20.815976
127.039798	-3.016200	3.868000	-11.664000	21.728373	0.000942	20.839709
128.043677	-3.005400	3.867300	-11.621000	21.734211	0.000944	20.829905
129.043683	-2.994300	3.866700	-11.577000	21.759549	0.000943	20.835349
130.042251	-2.997100	3.866800	-11.587000	21.753686	0.000944	20.818576
131.044763	-3.007900	3.867300	-11.631000	21.756986	0.000944	20.821879
132.041664	-3.005900	3.867400	-11.622000	21.792654	0.000946	20.821067
133.041857	-3.012600	3.865700	-11.644000	21.765049	0.000944	20.830423
134.045859	-3.016500	3.866100	-11.661000	21.768187	0.000943	20.834986
135.043859	-3.006300	3.865300	-11.618000	21.740929	0.000944	20.834731
136.044697	-3.025700	3.864300	-11.691000	21.767071	0.000942	20.824386
137.048906	-2.969800	3.866200	-11.481000	21.798170	0.000943	20.805251
138.047180	-2.992600	3.864500	-11.564000	21.779617	0.000943	20.816080
139.046911	-3.002400	3.864300	-11.602000	21.773096	0.000944	20.817140
140.047979	-3.002300	3.864200	-11.601000	21.804016	0.000945	20.840500
141.046654	-3.011300	3.865000	-11.636000	21.815252	0.000945	20.810969
142.051697	-3.012700	3.865100	-11.642000	21.812223	0.000945	20.823109
143.048035	-3.016400	3.864200	-11.655000	21.841358	0.000946	20.821451
144.047828	-3.004000	3.862700	-11.602000	21.835250	0.000944	20.818183
145.048434	-2.979200	3.864200	-11.511000	21.846019	0.000946	20.831332
146.051646	-2.990000	3.862900	-11.549000	21.842095	0.000945	20.808913
147.049829	-2.999100	3.863600	-11.586000	21.857229	0.000947	20.827853
148.051206	-2.984200	3.865300	-11.534000	21.869867	0.000946	20.809209
149.055092	-2.998300	3.863000	-11.581000	21.892089	0.000945	20.822917
150.052249	-2.993500	3.862000	-11.560000	21.876635	0.000946	20.835423
151.052626	-2.997300	3.862800	-11.577000	21.884882	0.000947	20.820919
152.051675	-3.009900	3.862300	-11.623000	21.882269	0.000946	20.812139
153.060894	-2.987400	3.864300	-11.544000	21.895914	0.000947	20.817736
154.052895	-3.013800	3.860800	-11.635000	21.890932	0.000947	20.824129
155.053895	-3.004600	3.862100	-11.603000	21.900660	0.000948	20.818220
156.055963	-3.005900	3.861800	-11.608000	21.915243	0.000949	20.820489
157.054156	-2.993700	3.862000	-11.561000	21.916849	0.000950	20.799337
158.054548	-3.002800	3.861600	-11.593000	21.913940	0.000947	20.812072
159.056549	-3.019800	3.859600	-11.654000	21.918855	0.000949	20.811776
160.054915	-2.989500	3.861000	-11.541000	21.904923	0.000949	20.829125
161.053915	-2.988800	3.861100	-11.539000	21.902927	0.000947	20.817170
162.058007	-3.001700	3.859500	-11.584000	21.919506	0.000949	20.810058
163.054557	-2.999400	3.859700	-11.576000	21.897742	0.000948	20.805816
164.054551	-2.996800	3.860400	-11.569000	21.909584	0.000949	20.805816
165.056552	-3.026000	3.858200	-11.674000	21.917916	0.000952	20.798983
166.055630	-2.976100	3.861100	-11.491000	21.923896	0.000949	20.812081
167.055678	-3.023300	3.858600	-11.664000	21.964548	0.000950	20.789236
168.058918	-2.982200	3.860600	-11.511000	21.956209	0.000951	20.806019
169.056154	-3.000000	3.860100	-11.580000	21.962729	0.000949	20.783623
170.055375	-2.994200	3.859300	-11.555000	21.948350	0.000950	20.810481
171.060373	-3.002900	3.857700	-11.584000	21.955395	0.000950	20.813740
172.056367	-2.980800	3.859100	-11.502000	21.983418	0.000950	20.800540
173.056851	-2.995300	3.856900	-11.551000	21.970654	0.000952	20.802462
174.059225	-3.002300	3.858200	-11.582000	21.993441	0.000952	20.802987
175.057226	-2.997300	3.859700	-11.567000	21.950083	0.000952	20.790879
176.058224	-2.997900	3.858200	-11.565000	21.974317	0.000952	20.805180
177.060441	-3.001900	3.857600	-11.578000	21.979053	0.000951	20.804231
178.058442	-2.988000	3.858700	-11.529000	21.991960	0.000952	20.812410
179.059813	-2.978400	3.857400	-11.487000	21.992704	0.000953	20.819318
180.062050	-3.011200	3.857800	-11.616000	22.012903	0.000954	20.795442
181.062050	-3.004400	3.856600	-11.586000	22.013570	0.000954	20.812706
182.060105	-2.991700	3.858100	-11.541000	22.020634	0.000953	20.789431
183.068111	-3.039300	3.854800	-11.714000	22.007362	0.000954	20.796534
184.063697	-3.011800	3.855100	-11.609000	22.035130	0.000955	20.798726
185.060697	-3.014300	3.854900	-11.618000	22.025548	0.000955	20.810946
186.071230	-3.020200	3.854800	-11.641000	22.027510	0.000954	20.777348
187.065982	-2.976600	3.857100	-11.480000	22.037431	0.000955	20.808617
188.065168	-3.029300	3.854400	-11.673000	22.056249	0.000957	20.792842
189.067687	-2.992800	3.854700	-11.534000	22.056977	0.000956	20.797364
190.066900	-2.992500	3.857200	-11.541000	22.060064	0.000956	20.788126
191.073069	-2.983600	3.855500	-11.502000	22.084549	0.000957	20.794621
192.068292	-2.994200	3.855500	-11.543000	22.080920	0.000958	20.806160
193.067511	-2.996000	3.855100	-11.548000	22.072598	0.000957	20.803045
194.065899	-3.013900	3.853200	-11.611000	22.082772	0.000958	20.794265
195.072004	-2.988000	3.855300	-11.519000	22.077156	0.000957	20.796703
196.070006	-2.998200	3.855200	-11.557000	22.066787	0.000959	20.796279
197.066970	-3.004200	3.854500	-11.578000	22.076310	0.000958	20.787795
198.069777	-2.970800	3.854900	-11.451000	22.105344	0.000958	20.784146
199.070326	-3.009800	3.852100	-11.593000	22.109953	0.000960	20.776906
200.072379	-3.010300	3.854500	-11.602000	22.093580	0.000961	20.789438
201.071933	-2.989500	3.853500	-11.518000	22.125007	0.000960	20.794822
202.070139	-3.022100	3.852200	-11.641000	22.121886	0.000960	20.784111
203.069105	-2.992800	3.852300	-11.528000	22.145067	0.000959	20.777447
204.073503	-3.009900	3.850800	-11.588000	22.145042	0.000960	20.781689
205.070819	-2.996900	3.853300	-11.547000	22.144263	0.000962	20.765737
206.070817	-3.014700	3.851000	-11.608000	22.124744	0.000962	20.776066
207.073993	-2.993100	3.852500	-11.530000	22.141717	0.000962	20.759868
208.071993	-2.988900	3.852900	-11.514000	22.125437	0.000961	20.766803
209.073045	-2.996000	3.850600	-11.536000	22.124617	0.000961	20.784000
210.075046	-2.993100	3.851300	-11.527000	22.147003	0.000964	20.754729
211.073043	-3.003600	3.849800	-11.562000	22.153144	0.000964	20.791223
212.075045	-3.005100	3.851000	-11.571000	22.144178	0.000965	20.766599
213.072976	-3.014200	3.849900	-11.602000	22.124871	0.000965	20.779039
214.074034	-3.002900	3.850100	-11.559000	22.138056	0.000966	20.793187
215.073234	-2.999100	3.850100	-11.546000	22.176957	0.000965	20.784719
216.075674	-3.012800	3.850100	-11.599000	22.168239	0.000966	20.769352
217.075026	-2.987600	3.849700	-11.501000	22.172822	0.000965	20.763983
218.076824	-2.997300	3.850700	-11.540000	22.173229	0.000967	20.792840
219.076737	-3.002800	3.848500	-11.554000	22.176239	0.000966	20.766930
220.075737	-3.019900	3.849900	-11.625000	22.193736	0.000969	20.776388
221.075841	-3.007800	3.850000	-11.579000	22.212847	0.000969	20.777505
222.076059	-3.014800	3.848900	-11.603000	22.202108	0.000968	20.782399
223.076063	-2.989400	3.848700	-11.504000	22.228256	0.000967	20.765431
224.076472	-2.988300	3.849100	-11.501000	22.237625	0.000968	20.776709
225.076751	-3.011100	3.846900	-11.583000	22.236907	0.000969	20.766981
226.076753	-2.988000	3.848100	-11.497000	22.216315	0.000969	20.767700
227.076818	-2.980600	3.849600	-11.473000	22.229219	0.000972	20.761654
228.076422	-2.984400	3.848000	-11.482000	22.232686	0.000971	20.754220
229.076469	-2.998300	3.847500	-11.535000	22.214961	0.000969	20.757336
230.076469	-3.005400	3.846100	-11.557000	22.242901	0.000972	20.769190
231.077688	-3.007800	3.846200	-11.568000	22.237311	0.000972	20.767860
232.079059	-2.998600	3.847200	-11.535000	22.279931	0.000972	20.761222
233.078562	-3.003000	3.847900	-11.553000	22.271922	0.000974	20.748461
234.078955	-3.001700	3.847000	-11.545000	22.236339	0.000973	20.764041
235.079014	-3.013600	3.846900	-11.592000	22.233497	0.000974	20.763093
236.079230	-3.003600	3.845500	-11.550000	22.224001	0.000974	20.755481
237.078382	-2.994700	3.846800	-11.519000	22.248591	0.000973	20.747859
238.078383	-3.025100	3.843900	-11.627000	22.244819	0.000974	20.741237
239.078597	-2.997700	3.846000	-11.529000	22.283920	0.000976	20.745775
240.078650	-2.989500	3.844800	-11.491000	22.269122	0.000974	20.756089
241.078648	-2.985400	3.845700	-11.480000	22.298355	0.000976	20.749798
242.079217	-2.990600	3.844200	-11.494000	22.324145	0.000977	20.753336
243.079223	-2.996400	3.844900	-11.521000	22.303681	0.000976	20.748967
244.080347	-3.002700	3.844400	-11.543000	22.335856	0.000978	20.746097
245.080667	-2.998800	3.844600	-11.527000	22.317954	0.000978	20.743818
246.081076	-2.992500	3.845800	-11.508000	22.301619	0.000977	20.752592
247.081598	-3.003300	3.843800	-11.543000	22.303799	0.000978	20.760939
248.080980	-3.002000	3.843200	-11.536000	22.309422	0.000982	20.753767
249.081739	-3.006400	3.844100	-11.556000	22.308779	0.000980	20.757391
250.081801	-3.002600	3.843200	-11.539000	22.330046	0.000982	20.757824
251.082316	-3.019700	3.842000	-11.601000	22.337918	0.000980	20.779931
252.083612	-3.001800	3.843400	-11.536000	22.329074	0.000980	20.758747
253.084611	-3.000600	3.842400	-11.528000	22.332608	0.000982	20.765131
254.083610	-2.974600	3.843900	-11.433000	22.340108	0.000982	20.755097
255.093655	-2.998100	3.840500	-11.513000	22.347507	0.000982	20.756815
256.083657	-2.998500	3.842500	-11.521000	22.371106	0.000984	20.740143
257.083869	-2.982300	3.843100	-11.459000	22.380051	0.000983	20.760007
258.083923	-3.005100	3.841400	-11.541000	22.364435	0.000985	20.766655
259.083921	-2.998600	3.842300	-11.519000	22.402830	0.000985	20.754842
260.083397	-2.978900	3.842600	-11.445000	22.402881	0.000985	20.750626
261.083443	-2.983600	3.842300	-11.463000	22.381125	0.000985	20.742116
262.084142	-2.966600	3.843500	-11.402000	22.392464	0.000986	20.748255
263.084452	-2.997000	3.840500	-11.508000	22.406923	0.000986	20.772218
264.085452	-3.000400	3.840400	-11.521000	22.435948	0.000986	20.754817
265.085981	-3.004700	3.839100	-11.535000	22.418760	0.000988	20.760838
266.087193	-3.013500	3.839800	-11.570000	22.440937	0.000988	20.755071
267.085294	-2.987700	3.841500	-11.477000	22.491505	0.000988	20.755453
268.086293	-3.001600	3.840000	-11.526000	22.476025	0.000989	20.754648
269.086782	-2.986100	3.840200	-11.466000	22.486695	0.000989	20.750635
270.085831	-2.964200	3.841000	-11.383000	22.505776	0.000988	20.752675
271.095024	-2.997000	3.839300	-11.505000	22.506258	0.000990	20.745097
272.086021	-2.987800	3.839100	-11.469000	22.493838	0.000992	20.758737
273.089022	-2.986600	3.839600	-11.466000	22.489332	0.000989	20.767027
274.089022	-3.002100	3.837700	-11.520000	22.492815	0.000992	20.773834
275.087023	-2.989300	3.838500	-11.473000	22.495242	0.000992	20.763463
276.087294	-3.012400	3.839100	-11.564000	22.513427	0.000994	20.753700
277.090144	-2.980400	3.839000	-11.441000	22.541106	0.000994	20.760558
278.087374	-3.004100	3.839600	-11.532000	22.522794	0.000993	20.751701
279.087378	-3.039300	3.836000	-11.657000	22.520605	0.000993	20.752353
280.093416	-3.004700	3.838400	-11.532000	22.524460	0.000993	20.766171
281.088417	-3.011200	3.836600	-11.551000	22.524628	0.000995	20.743580
282.088418	-2.991500	3.836400	-11.475000	22.520122	0.000996	20.781743
283.091889	-2.988500	3.837500	-11.466000	22.541249	0.000997	20.763546
284.089453	-3.003900	3.836900	-11.524000	22.524882	0.000995	20.742886
285.089942	-3.000000	3.835500	-11.505000	22.552662	0.000997	20.772132
286.094623	-3.017300	3.834200	-11.568000	22.544258	0.000994	20.768931
287.090622	-3.011400	3.834300	-11.544000	22.555604	0.000999	20.748051
288.091135	-2.996400	3.835000	-11.489000	22.548605	0.000999	20.774232
289.094270	-3.001700	3.834800	-11.510000	22.552240	0.000999	20.766019
290.093491	-2.990300	3.836300	-11.471000	22.565588	0.001000	20.776543
291.095119	-2.995400	3.834100	-11.484000	22.545933	0.000998	20.764444
292.094655	-3.015500	3.835100	-11.564000	22.535339	0.000999	20.755256
293.093659	-3.020200	3.833300	-11.575000	22.560955	0.001001	20.760997
294.094656	-2.990300	3.834800	-11.466000	22.543016	0.001000	20.788550
295.098568	-2.980100	3.835000	-11.428000	22.559036	0.001001	20.772352
296.096385	-3.003800	3.832000	-11.509000	22.574338	0.001001	20.776772
297.097568	-2.997800	3.833500	-11.491000	22.572562	0.001001	20.786373
298.099567	-2.986500	3.834100	-11.449000	22.572140	0.001002	20.768406
299.096569	-2.985000	3.834600	-11.445000	22.575428	0.001003	20.774070
300.097568	-2.995500	3.833400	-11.482000	22.588531	0.001005	20.764909
301.101996	-2.989400	3.833000	-11.457000	22.602159	0.001005	20.777609
302.099796	-2.993500	3.831400	-11.469000	22.592547	0.001006	20.789794
303.099761	-2.997600	3.832800	-11.488000	22.612811	0.001005	20.777373
304.104981	-3.013300	3.833000	-11.549000	22.615989	0.001005	20.776289
305.100973	-2.995700	3.832700	-11.480000	22.610537	0.001006	20.769879
306.101415	-3.019200	3.831700	-11.566000	22.631713	0.001005	20.796305
307.105107	-2.991600	3.831800	-11.462000	22.642051	0.001008	20.786271
308.102126	-3.012100	3.829900	-11.535000	22.653902	0.001007	20.791503
309.102570	-3.003100	3.830800	-11.502000	22.670302	0.001009	20.794179
310.104795	-2.992700	3.831600	-11.466000	22.676109	0.001008	20.785772
311.103375	-2.998200	3.830500	-11.484000	22.661933	0.001008	20.789590
312.103306	-2.996400	3.831300	-11.480000	22.664240	0.001010	20.775306
313.107304	-3.006200	3.829300	-11.511000	22.702643	0.001008	20.774417
314.105519	-3.001500	3.830600	-11.497000	22.675881	0.001010	20.790284
315.105725	-2.989800	3.828000	-11.443000	22.707097	0.001011	20.761809
316.109121	-3.006400	3.829500	-11.511000	22.716463	0.001011	20.784941
317.105384	-2.980800	3.829200	-11.412000	22.728770	0.001011	20.792528
318.106491	-3.000500	3.829400	-11.489000	22.713115	0.001012	20.802925
319.109710	-3.002700	3.829700	-11.498000	22.727385	0.001012	20.797778
320.105927	-2.990800	3.828100	-11.447000	22.744610	0.001013	20.783265
321.106151	-2.990300	3.827900	-11.446000	22.766088	0.001014	20.784391
322.108174	-3.001700	3.826900	-11.485000	22.763147	0.001013	20.782867
323.105236	-3.012800	3.828000	-11.532000	22.754830	0.001014	20.793028
324.112235	-3.000400	3.827500	-11.483000	22.747501	0.001014	20.773832
325.109465	-3.003000	3.828700	-11.495000	22.762750	0.001014	20.788633
326.108479	-2.994300	3.827700	-11.460000	22.768582	0.001013	20.780725
327.107245	-3.020600	3.826100	-11.556000	22.775495	0.001015	20.785279
328.109246	-3.010400	3.825700	-11.515000	22.771041	0.001017	20.797887
329.107418	-3.011500	3.825200	-11.518000	22.791985	0.001017	20.791841
330.106681	-3.018900	3.826000	-11.550000	22.795349	0.001018	20.803272
331.108886	-2.995000	3.825600	-11.456000	22.822633	0.001018	20.813060
332.109887	-2.994300	3.825700	-11.454000	22.825397	0.001017	20.810139
333.107933	-2.979000	3.826000	-11.397000	22.841439	0.001019	20.794915
334.111987	-3.006000	3.824200	-11.494000	22.850422	0.001021	20.806760
335.110143	-3.002100	3.825800	-11.484000	22.858173	0.001019	20.791291
336.108621	-3.012200	3.824000	-11.516000	22.847887	0.001023	20.796634
337.111843	-3.027700	3.823200	-11.574000	22.871180	0.001021	20.787726
338.110840	-3.004900	3.824100	-11.490000	22.872524	0.001021	20.818944
339.111063	-3.008800	3.824100	-11.505000	22.843120	0.001022	20.796599
340.114146	-3.000600	3.823700	-11.473000	22.825988	0.001023	20.788920
341.114016	-3.005500	3.823100	-11.489000	22.819006	0.001025	20.812745
342.113871	-2.986400	3.824500	-11.421000	22.810124	0.001023	20.798632
343.114871	-2.995600	3.824300	-11.456000	22.820706	0.001023	20.795482
344.114089	-2.988900	3.823800	-11.427000	22.852519	0.001025	20.806489
345.112557	-2.996600	3.823700	-11.457000	22.857556	0.001026	20.811536
346.116559	-3.017700	3.822200	-11.533000	22.878432	0.001025	20.809216
347.113823	-2.998800	3.821600	-11.459000	22.883841	0.001025	20.817954
348.112880	-3.027500	3.822300	-11.570000	22.872416	0.001028	20.795602
349.117934	-2.990400	3.821700	-11.428000	22.869169	0.001025	20.832178
350.124246	-3.011300	3.821200	-11.506000	22.899072	0.001028	20.812350
351.115246	-3.019300	3.821000	-11.535000	22.904726	0.001027	20.795729
352.115246	-3.014500	3.819700	-11.513000	22.894491	0.001029	20.812977
353.139246	-2.980900	3.821600	-11.391000	22.906155	0.001028	20.821342
354.114245	-2.988500	3.820500	-11.416000	22.927258	0.001028	20.818303
355.115246	-2.993100	3.821000	-11.435000	22.939563	0.001029	20.823993
356.114452	-2.979200	3.820700	-11.380000	22.925060	0.001033	20.809463
357.114557	-2.991400	3.820300	-11.427000	22.908944	0.001031	20.818921
358.114526	-3.002700	3.819700	-11.468000	22.935211	0.001030	20.814417
359.115496	-2.986900	3.819500	-11.407000	22.946697	0.001032	20.794630
360.117797	-2.997600	3.818600	-11.446000	22.952662	0.001033	20.821469
361.120570	-2.998200	3.818600	-11.448000	22.937832	0.001031	20.818939
362.116569	-3.022300	3.818300	-11.539000	22.937298	0.001033	20.823146
363.115555	-3.008700	3.816900	-11.484000	22.930098	0.001032	20.834424
364.129201	-3.014700	3.817000	-11.505000	22.959322	0.001033	20.818185
365.117119	-2.980700	3.817800	-11.378000	22.957903	0.001034	20.794952
366.117164	-3.003900	3.816800	-11.464000	22.940881	0.001036	20.835745
367.118131	-2.971300	3.818800	-11.345000	22.950753	0.001035	20.848479
368.116867	-2.995800	3.818300	-11.438000	22.932102	0.001035	20.813199
369.116827	-2.993900	3.817300	-11.427000	22.925171	0.001037	20.820480
370.116877	-2.990300	3.817400	-11.412000	22.948717	0.001036	20.829370
371.116677	-3.014500	3.817100	-11.506000	22.956330	0.001037	20.830360
372.116319	-2.996200	3.817400	-11.436000	22.955476	0.001037	20.848470
373.116325	-2.984600	3.818000	-11.395000	22.962314	0.001037	20.837303
374.117584	-3.014800	3.815700	-11.502000	22.996464	0.001037	20.839750
375.117921	-3.013100	3.815400	-11.495000	23.007314	0.001039	20.840190
376.118770	-2.987900	3.816900	-11.403000	23.008565	0.001039	20.843340
377.119805	-3.003300	3.816200	-11.458000	23.024376	0.001038	20.819827
378.118976	-3.012000	3.814600	-11.489000	23.049136	0.001040	20.823773
379.119975	-2.984600	3.814700	-11.383000	23.052626	0.001042	20.836279
380.120171	-2.995400	3.815700	-11.429000	23.036629	0.001041	20.838268
381.119634	-2.989100	3.814900	-11.402000	23.039274	0.001040	20.842341
382.119823	-2.988000	3.813800	-11.395000	23.061058	0.001043	20.857529
383.121042	-2.979800	3.813800	-11.363000	23.062630	0.001043	20.838242
384.121039	-3.011100	3.813200	-11.481000	23.062707	0.001042	20.832629
385.121498	-3.010800	3.813100	-11.480000	23.068325	0.001044	20.838733
386.120498	-2.970600	3.814300	-11.330000	23.078009	0.001043	20.834685
387.121498	-3.007200	3.813100	-11.466000	23.082918	0.001043	20.849562
388.122499	-2.986400	3.813400	-11.386000	23.104660	0.001044	20.841476
389.122718	-2.995300	3.812700	-11.418000	23.113921	0.001045	20.843169
390.123731	-2.980800	3.812400	-11.363000	23.124305	0.001043	20.831764
391.122924	-2.996700	3.812600	-11.424000	23.121060	0.001044	20.855064
392.123011	-2.986400	3.813200	-11.387000	23.141534	0.001045	20.844760
393.123599	-3.011300	3.810200	-11.473000	23.141255	0.001045	20.849222
394.125169	-2.982100	3.811600	-11.366000	23.125868	0.001045	20.851821
395.125136	-3.016700	3.811100	-11.497000	23.119590	0.001047	20.832255
396.125221	-2.997600	3.810500	-11.422000	23.120435	0.001048	20.861549
397.125621	-3.015100	3.808700	-11.482000	23.149324	0.001047	20.847825
398.125518	-2.992600	3.810200	-11.402000	23.162049	0.001047	20.838765
399.125732	-3.003100	3.811200	-11.444000	23.161220	0.001049	20.845521
400.126729	-2.996900	3.809100	-11.414000	23.172306	0.001049	20.848569
401.128352	-3.009400	3.809000	-11.462000	23.181211	0.001048	20.880725
402.126410	-3.015600	3.810600	-11.489000	23.169070	0.001049	20.851965
403.127407	-3.021900	3.809000	-11.508000	23.170007	0.001049	20.856697
404.132201	-3.001200	3.808800	-11.430000	23.197984	0.001050	20.844904
405.128675	-2.983100	3.808800	-11.361000	23.216504	0.001051	20.848764
406.128294	-3.000700	3.809700	-11.430000	23.216631	0.001051	20.857425
407.132704	-3.001000	3.809200	-11.431000	23.231670	0.001054	20.886245
408.128933	-3.000700	3.807900	-11.425000	23.233765	0.001051	20.850415
409.128675	-3.000700	3.807000	-11.423000	23.208774	0.001051	20.858087
410.133677	-2.972200	3.807800	-11.316000	23.235683	0.001054	20.862294
411.130714	-3.002400	3.805500	-11.424000	23.231358	0.001053	20.861278
412.131775	-2.993400	3.806600	-11.394000	23.231180	0.001051	20.870109
413.137088	-2.992900	3.806100	-11.390000	23.242342	0.001054	20.874656
414.134088	-3.000700	3.806100	-11.420000	23.243440	0.001052	20.862007
415.140186	-3.002000	3.806100	-11.426000	23.268862	0.001054	20.873259
416.141292	-3.032100	3.804100	-11.532000	23.266522	0.001054	20.858112
417.140291	-3.021200	3.806000	-11.498000	23.286098	0.001055	20.859713
418.136292	-3.021700	3.803500	-11.492000	23.277404	0.001056	20.853845
419.135291	-3.011200	3.805000	-11.456000	23.302209	0.001057	20.863057
420.133291	-3.002200	3.803700	-11.418000	23.262746	0.001055	20.851009
421.134303	-3.007200	3.803600	-11.437000	23.248924	0.001056	20.873666
422.137528	-2.981800	3.805700	-11.347000	23.221127	0.001055	20.872361
423.133740	-2.997400	3.803600	-11.400000	23.233209	0.001057	20.861237
424.134957	-2.986200	3.803900	-11.359000	23.233936	0.001057	20.870025
425.135989	-3.006600	3.803600	-11.434000	23.248155	0.001057	20.867680
426.136176	-3.013800	3.803900	-11.463000	23.256942	0.001057	20.854675
427.137175	-2.995100	3.802000	-11.386000	23.286977	0.001057	20.871025
428.141254	-2.996600	3.802200	-11.392000	23.306155	0.001056	20.897355
429.137252	-2.990200	3.802900	-11.370000	23.287999	0.001058	20.878213
430.137295	-2.989800	3.802500	-11.367000	23.283049	0.001058	20.892216
431.140617	-3.007100	3.800900	-11.429000	23.267309	0.001059	20.898727
432.138926	-3.004000	3.800900	-11.417000	23.284401	0.001059	20.889305
433.138915	-2.982100	3.802600	-11.338000	23.271770	0.001060	20.879018
434.142127	-3.001600	3.802000	-11.411000	23.279788	0.001059	20.889423
435.140128	-3.000500	3.800100	-11.401000	23.284621	0.001058	20.886206
436.140128	-2.994300	3.801400	-11.381000	23.290247	0.001059	20.883784
437.147164	-3.014200	3.798700	-11.447000	23.286386	0.001059	20.876122
438.139377	-3.004800	3.801000	-11.420000	23.245875	0.001061	20.893842
439.139537	-2.997400	3.799400	-11.388000	23.273891	0.001060	20.904849
440.142536	-3.012600	3.799700	-11.446000	23.277473	0.001062	20.871931
441.141994	-3.019400	3.798400	-11.468000	23.293584	0.001062	20.897085
442.142096	-3.044900	3.795600	-11.556000	23.291810	0.001063	20.887246
443.144314	-2.996900	3.799600	-11.386000	23.288405	0.001061	20.906118
444.143682	-2.986800	3.798500	-11.345000	23.268195	0.001063	20.888236
445.142482	-2.984000	3.799200	-11.336000	23.294378	0.001062	20.902147
446.143300	-3.002100	3.797700	-11.400000	23.309222	0.001063	20.895214
447.142708	-2.999300	3.797400	-11.389000	23.325797	0.001063	20.890015
448.142709	-2.987000	3.797700	-11.343000	23.327369	0.001064	20.886849
449.146229	-3.013400	3.796700	-11.440000	23.345626	0.001063	20.894240
450.144224	-3.020800	3.797200	-11.470000	23.345026	0.001064	20.898380
451.143445	-3.021000	3.795500	-11.466000	23.331576	0.001066	20.912874
452.144445	-3.009100	3.796200	-11.421000	23.313767	0.001064	20.893604
453.144611	-3.006300	3.796700	-11.412000	23.334068	0.001064	20.884554
454.144772	-3.007900	3.795000	-11.414000	23.317501	0.001066	20.893079
455.147771	-2.995100	3.795100	-11.366000	23.361660	0.001066	20.908413
456.146774	-2.984900	3.795400	-11.328000	23.371112	0.001067	20.901292
457.146356	-3.003400	3.793400	-11.392000	23.396903	0.001066	20.901063
458.150197	-3.009200	3.793200	-11.413000	23.391988	0.001067	20.914153
459.149198	-3.002500	3.793800	-11.390000	23.420337	0.001068	20.912222
460.148916	-3.015500	3.794300	-11.440000	23.435669	0.001067	20.902934
461.150180	-3.004600	3.793000	-11.396000	23.393305	0.001066	20.903621
462.151194	-2.986100	3.794100	-11.328000	23.411755	0.001068	20.905517
463.151547	-2.995100	3.793200	-11.360000	23.382593	0.001068	20.908056
464.151863	-3.004100	3.792500	-11.392000	23.393178	0.001069	20.914398
465.152457	-3.006700	3.792400	-11.400000	23.410783	0.001069	20.909284
466.151738	-3.008600	3.792600	-11.410000	23.413428	0.001066	20.915728
467.151739	-3.003200	3.793300	-11.391000	23.420632	0.001068	20.904458
468.159868	-3.003500	3.791600	-11.387000	23.405681	0.001069	20.928350
469.153093	-2.999700	3.790900	-11.371000	23.401440	0.001071	20.921729
470.153119	-3.025700	3.791800	-11.472000	23.421191	0.001070	20.907862
471.153768	-2.989600	3.793400	-11.339000	23.418276	0.001069	20.906364
472.153246	-2.980500	3.792400	-11.302000	23.455504	0.001070	20.913332
473.153650	-3.010500	3.789100	-11.405000	23.444691	0.001069	20.908184
474.153414	-3.001900	3.788800	-11.373000	23.461552	0.001072	20.927453
475.154093	-3.009500	3.790100	-11.406000	23.482830	0.001071	20.920332
476.153381	-2.997800	3.789300	-11.358000	23.485871	0.001068	20.942818
477.154005	-3.003000	3.788300	-11.375000	23.481833	0.001071	20.922178
478.155110	-3.019700	3.789600	-11.441000	23.460724	0.001072	20.921882
479.154323	-2.999800	3.788400	-11.363000	23.435669	0.001070	20.915261
480.155372	-2.971600	3.788600	-11.257000	23.463934	0.001072	20.931262
481.155387	-2.983400	3.788600	-11.302000	23.469559	0.001071	20.925048
482.156587	-2.997400	3.788500	-11.355000	23.489148	0.001071	20.918605
483.155653	-2.988600	3.788600	-11.322000	23.488633	0.001071	20.921882
484.155879	-2.976800	3.788100	-11.276000	23.485440	0.001072	20.912992
485.156398	-2.990000	3.787900	-11.325000	23.513576	0.001074	20.922703
486.166427	-2.988200	3.786700	-11.314000	23.515815	0.001072	20.934902
487.155427	-3.000600	3.785900	-11.359000	23.536897	0.001073	20.898193
488.155428	-2.998400	3.786000	-11.351000	23.526482	0.001073	20.926630
489.155483	-3.012600	3.784700	-11.400000	23.551586	0.001073	20.932354
490.156474	-3.010700	3.786600	-11.399000	23.563563	0.001072	20.922550
491.155703	-3.001200	3.784900	-11.359000	23.560141	0.001073	20.909638
492.155747	-3.005200	3.784800	-11.372000	23.573563	0.001073	20.921669
493.156435	-3.007300	3.783300	-11.377000	23.556957	0.001073	20.906921
494.158645	-2.993800	3.784000	-11.327000	23.561459	0.001075	20.902899
495.156658	-3.025400	3.782200	-11.442000	23.575420	0.001075	20.900300
496.158165	-3.013000	3.784700	-11.401000	23.575750	0.001075	20.918172
497.159382	-3.018500	3.783400	-11.420000	23.554338	0.001075	20.918045
498.159510	-3.025900	3.782200	-11.443000	23.543469	0.001074	20.925640
499.158647	-3.012500	3.782700	-11.394000	23.540063	0.001078	20.911322
500.160567	-3.002100	3.782200	-11.354000	23.517714	0.001075	20.904093
501.160197	-2.999100	3.783000	-11.345000	23.529269	0.001077	20.898133
502.159615	-2.998000	3.783300	-11.341000	23.520349	0.001077	20.911001
503.161226	-3.005900	3.781700	-11.365000	23.546339	0.001076	20.911449
504.160663	-2.987700	3.782100	-11.298000	23.535561	0.001075	20.893061
505.160820	-3.003500	3.782100	-11.358000	23.522892	0.001075	20.913075
506.161867	-3.003500	3.781400	-11.356000	23.537200	0.001074	20.899918
507.162866	-3.003600	3.780400	-11.354000	23.542682	0.001076	20.913947
508.162380	-2.998500	3.781900	-11.340000	23.529927	0.001076	20.891680
509.162600	-2.981500	3.782200	-11.275000	23.529564	0.001078	20.887998
510.163098	-3.007100	3.779100	-11.363000	23.532622	0.001076	20.897226
511.162421	-2.981900	3.779100	-11.268000	23.521438	0.001077	20.901188
512.162421	-3.009000	3.778600	-11.368000	23.524952	0.001077	20.901391
513.162424	-3.004000	3.779300	-11.352000	23.547555	0.001077	20.894178
514.162469	-3.022900	3.777600	-11.419000	23.521886	0.001078	20.899266
515.162688	-3.005800	3.778300	-11.354000	23.546812	0.001079	20.874468
516.162885	-2.999600	3.778400	-11.333000	23.546651	0.001077	20.889478
517.164180	-2.969400	3.779600	-11.222000	23.567040	0.001080	20.876254
518.164177	-2.992600	3.777400	-11.303000	23.576170	0.001078	20.897733
519.165218	-3.010600	3.776600	-11.368000	23.589617	0.001079	20.880394
520.165261	-3.021300	3.776700	-11.410000	23.598156	0.001078	20.867144
521.165260	-3.006800	3.775500	-11.350000	23.584322	0.001078	20.871293
522.165469	-3.003100	3.775300	-11.336000	23.601483	0.001079	20.881858
523.166043	-3.010000	3.775800	-11.364000	23.619761	0.001081	20.881215
524.167039	-2.992500	3.775900	-11.299000	23.635470	0.001079	20.885584
525.168181	-3.012300	3.775500	-11.372000	23.657919	0.001078	20.857356
526.168395	-2.990400	3.775000	-11.287000	23.658459	0.001078	20.860268
527.168394	-2.982900	3.776500	-11.264000	23.629338	0.001079	20.877066
528.168447	-2.990300	3.775900	-11.289000	23.629576	0.001080	20.873037
529.171662	-3.013100	3.774200	-11.371000	23.628688	0.001078	20.866931
530.170664	-3.010500	3.774700	-11.363000	23.665232	0.001080	20.859946
531.174870	-3.007800	3.773000	-11.347000	23.657471	0.001081	20.874924
532.170098	-2.978500	3.773800	-11.239000	23.689521	0.001080	20.865331
533.173315	-3.012700	3.774000	-11.369000	23.689674	0.001081	20.852682
534.173315	-2.991800	3.773800	-11.288000	23.715618	0.001079	20.874899
535.170317	-2.988100	3.773700	-11.276000	23.720338	0.001080	20.857821
536.174612	-3.013500	3.770400	-11.361000	23.716504	0.001081	20.868201
537.173345	-2.999100	3.771900	-11.311000	23.732854	0.001080	20.831963
538.173558	-2.973600	3.771900	-11.215000	23.709166	0.001081	20.870326
539.175547	-2.977600	3.772800	-11.232000	23.692410	0.001082	20.877709
540.175759	-3.003100	3.770600	-11.323000	23.668610	0.001080	20.859539
541.174394	-3.000800	3.769800	-11.312000	23.692477	0.001081	20.853596
542.177393	-2.999000	3.770100	-11.306000	23.676397	0.001082	20.841742
543.177014	-3.014200	3.769600	-11.360000	23.681421	0.001080	20.872857
544.175780	-3.010000	3.768900	-11.343000	23.714283	0.001081	20.854121
545.184432	-2.973300	3.769800	-11.208000	23.720793	0.001081	20.846898
546.177453	-2.992900	3.768900	-11.279000	23.743671	0.001081	20.856084
547.177856	-2.992400	3.770100	-11.280000	23.734213	0.001081	20.877894
548.182084	-2.995800	3.769300	-11.291000	23.749692	0.001081	20.857379
549.181344	-2.991000	3.769200	-11.272000	23.768913	0.001082	20.862900
550.177345	-2.991200	3.767800	-11.269000	23.749540	0.001083	20.865287
551.182164	-3.022000	3.768300	-11.387000	23.756837	0.001083	20.846525
552.177585	-2.984600	3.767100	-11.242000	23.766117	0.001084	20.857252
553.177721	-2.973400	3.767900	-11.202000	23.778768	0.001085	20.846703
554.193717	-3.006000	3.767000	-11.322000	23.767089	0.001082	20.843528
555.183718	-3.017100	3.766300	-11.362000	23.755494	0.001081	20.847076
556.177498	-3.025900	3.765400	-11.393000	23.762267	0.001081	20.846280
557.178494	-3.010000	3.765700	-11.334000	23.771919	0.001081	20.862595
558.178759	-2.991800	3.766600	-11.268000	23.795024	0.001082	20.837399
559.178760	-2.973400	3.766900	-11.199000	23.790219	0.001083	20.856288
560.179172	-2.979100	3.766000	-11.219000	23.798951	0.001083	20.853189
561.179205	-2.997300	3.763400	-11.279000	23.814033	0.001084	20.845552
562.179214	-2.982000	3.764600	-11.225000	23.795066	0.001083	20.851190
563.179595	-2.986400	3.763700	-11.240000	23.795945	0.001083	20.844485
564.180759	-2.998800	3.764600	-11.288000	23.818120	0.001082	20.858184
565.180760	-2.983600	3.763200	-11.226000	23.822757	0.001083	20.837230
566.180779	-2.994600	3.763700	-11.269000	23.805834	0.001084	20.853926
567.179814	-3.016200	3.762000	-11.344000	23.820367	0.001084	20.840049
568.180187	-2.984300	3.763500	-11.231000	23.790498	0.001084	20.835706
569.179479	-3.015300	3.761300	-11.341000	23.810842	0.001085	20.835241
570.180442	-2.987600	3.761600	-11.237000	23.826971	0.001085	20.851886
571.180409	-3.020600	3.760100	-11.357000	23.833423	0.001084	20.854088
572.180416	-2.998300	3.761700	-11.277000	23.831878	0.001084	20.862021
573.181219	-2.983900	3.762200	-11.224000	23.822445	0.001083	20.845926
574.181266	-2.986400	3.759100	-11.224000	23.829986	0.001085	20.829780
575.182351	-2.977500	3.762000	-11.200000	23.844832	0.001084	20.836131
576.182595	-3.029300	3.758700	-11.385000	23.859431	0.001085	20.847924
577.182807	-3.010300	3.758200	-11.312000	23.839748	0.001082	20.833878
578.182457	-3.024100	3.759200	-11.368000	23.868070	0.001085	20.852319
579.185066	-2.981700	3.759100	-11.207000	23.831245	0.001085	20.849060
580.184061	-2.992000	3.758700	-11.245000	23.837882	0.001084	20.848602
581.184310	-2.999800	3.757500	-11.271000	23.815825	0.001084	20.817952
582.184403	-2.998600	3.757300	-11.266000	23.790104	0.001085	20.827250
583.183712	-2.994600	3.757800	-11.253000	23.763967	0.001084	20.831864
584.186174	-3.002100	3.758200	-11.282000	23.744594	0.001084	20.843259
585.185258	-3.001600	3.757000	-11.276000	23.730120	0.001083	20.836809
586.186225	-3.005000	3.756000	-11.286000	23.726007	0.001084	20.828892
587.185677	-3.018600	3.755500	-11.335000	23.741731	0.001083	20.844656
588.185764	-2.989400	3.756000	-11.227000	23.725905	0.001085	20.831161
589.184942	-2.996500	3.756500	-11.255000	23.742254	0.001082	20.823371
590.185950	-3.009700	3.755400	-11.302000	23.774971	0.001082	20.815870
591.186952	-3.003000	3.755200	-11.276000	23.787714	0.001084	20.854250
592.185379	-3.012100	3.754900	-11.310000	23.751814	0.001083	20.832955
593.185996	-3.008600	3.755000	-11.296000	23.777647	0.001085	20.831355
594.186787	-2.997900	3.756000	-11.259000	23.805253	0.001082	20.809248
595.186786	-3.014200	3.754900	-11.316000	23.794198	0.001085	20.837993
596.186786	-3.003200	3.754300	-11.274000	23.807583	0.001085	20.825335
597.188074	-3.001200	3.753600	-11.264000	23.804602	0.001083	20.827088
598.187075	-3.003300	3.753000	-11.270000	23.834141	0.001085	20.832523
599.189078	-2.986800	3.753100	-11.208000	23.826498	0.001084	20.812533
600.188074	-3.004000	3.752800	-11.272000	23.847981	0.001085	20.831228
601.187524	-2.992500	3.752700	-11.229000	23.844991	0.001084	20.833920
602.187523	-2.984000	3.752100	-11.195000	23.870349	0.001084	20.831371
603.188121	-2.991100	3.752800	-11.224000	23.882297	0.001085	20.819645
604.188336	-2.982400	3.752400	-11.191000	23.887169	0.001082	20.821685
605.188934	-3.005800	3.750700	-11.272000	23.886468	0.001083	20.813870
606.188539	-2.992600	3.751200	-11.224000	23.880701	0.001082	20.837484
607.189796	-3.016500	3.749300	-11.309000	23.862977	0.001085	20.827298
608.189973	-2.989800	3.751700	-11.216000	23.863653	0.001084	20.828924
609.188973	-3.003500	3.749800	-11.261000	23.835871	0.001085	20.835680
610.190705	-3.020100	3.750700	-11.325000	23.857023	0.001083	20.802837
611.190759	-2.983200	3.750000	-11.186000	23.882593	0.001084	20.814725
612.191774	-3.006500	3.749400	-11.271000	23.883006	0.001084	20.821303
613.191778	-3.005900	3.749300	-11.269000	23.876217	0.001082	20.797901
614.190774	-3.001500	3.747900	-11.248000	23.878480	0.001082	20.830041
615.191106	-2.989200	3.748500	-11.204000	23.890539	0.001083	20.828857
616.191070	-3.007400	3.747600	-11.270000	23.864589	0.001084	20.816113
617.192074	-2.999600	3.748400	-11.243000	23.862250	0.001082	20.811871
618.191577	-3.034800	3.746400	-11.369000	23.891526	0.001083	20.808511
619.193574	-2.996000	3.746700	-11.224000	23.866084	0.001083	20.824724
620.193087	-3.019500	3.746400	-11.311000	23.905500	0.001083	20.804979
621.195086	-2.995500	3.744900	-11.217000	23.907991	0.001083	20.815063
622.193623	-2.993300	3.746700	-11.214000	23.940541	0.001082	20.813090
623.199619	-3.006500	3.745700	-11.259000	23.918022	0.001082	20.807579
624.194620	-2.991300	3.747300	-11.208000	23.949887	0.001081	20.820566
625.195921	-3.020700	3.744100	-11.309000	23.960003	0.001082	20.804632
626.196918	-3.017700	3.743600	-11.296000	23.955148	0.001083	20.827264
627.196977	-2.989500	3.745400	-11.196000	23.963152	0.001082	20.793565
628.197994	-3.013800	3.744700	-11.286000	23.967508	0.001083	20.820693
629.198995	-2.998600	3.744100	-11.227000	23.991369	0.001082	20.810481
630.199995	-3.024700	3.743700	-11.322000	23.954142	0.001082	20.806341
631.198491	-3.018200	3.743000	-11.296000	23.970168	0.001083	20.793488
632.198491	-3.016100	3.743800	-11.289000	23.961825	0.001082	20.787493
633.199072	-2.988600	3.743600	-11.186000	23.969829	0.001081	20.819701
634.198837	-2.972500	3.744200	-11.129000	23.991436	0.001082	20.815764
635.198809	-3.005400	3.741700	-11.245000	24.018183	0.001081	20.788534
636.198822	-2.986700	3.743200	-11.178000	23.994584	0.001083	20.817973
637.199854	-2.984200	3.742000	-11.166000	23.986352	0.001081	20.788856
638.199854	-2.991700	3.742600	-11.194000	23.980323	0.001080	20.795138
639.199854	-2.981400	3.742400	-11.156000	23.970436	0.001081	20.823628
640.201376	-2.975300	3.740800	-11.129000	23.943697	0.001081	20.807720
641.201376	-2.992900	3.741300	-11.195000	23.913324	0.001084	20.799548
642.201665	-3.002800	3.740200	-11.229000	23.936164	0.001081	20.793054
643.204564	-3.022500	3.740900	-11.305000	23.960700	0.001081	20.794425
644.201777	-2.994400	3.740700	-11.201000	23.974041	0.001080	20.814916
645.201822	-3.000900	3.739100	-11.220000	23.985135	0.001081	20.791428
646.201404	-3.004700	3.740400	-11.238000	23.978557	0.001082	20.791944
647.203407	-3.016700	3.737700	-11.274000	24.002223	0.001082	20.780589
648.201634	-3.010000	3.738700	-11.253000	23.991196	0.001081	20.785178
649.202160	-3.012000	3.738400	-11.259000	24.018889	0.001080	20.808682
650.201931	-2.992800	3.738700	-11.188000	24.027872	0.001080	20.788768
651.201933	-2.982500	3.738400	-11.149000	24.018382	0.001080	20.784466
652.202936	-2.979400	3.738400	-11.137000	24.006418	0.001079	20.790487
653.203939	-2.988800	3.737900	-11.171000	23.997883	0.001080	20.791410
654.205016	-2.993200	3.737000	-11.184000	23.965832	0.001079	20.791511
655.203350	-2.999500	3.737700	-11.210000	23.933207	0.001079	20.792934
656.204395	-2.977100	3.737100	-11.124000	23.938872	0.001078	20.778700
657.204392	-3.003900	3.736000	-11.222000	23.972519	0.001077	20.771664
658.205931	-2.999600	3.736700	-11.208000	23.977888	0.001081	20.787954
659.205427	-2.977800	3.735800	-11.124000	23.990924	0.001077	20.774474
660.205464	-3.013400	3.734500	-11.253000	23.987665	0.001078	20.782112
661.205949	-2.989100	3.735600	-11.166000	23.980548	0.001078	20.774974
662.205950	-3.002700	3.734300	-11.212000	23.988627	0.001078	20.782602
663.205949	-3.007900	3.732900	-11.227000	23.958493	0.001079	20.758073
664.206594	-3.002000	3.734400	-11.208000	23.944140	0.001078	20.774974
665.206362	-3.005000	3.733700	-11.219000	23.935426	0.001081	20.780460
666.208397	-3.007500	3.731900	-11.223000	23.916925	0.001077	20.764753
667.207761	-3.001400	3.731800	-11.200000	23.942560	0.001077	20.764380
668.209762	-3.013400	3.732200	-11.246000	23.965332	0.001078	20.775837
669.208003	-3.005700	3.732500	-11.218000	23.987698	0.001078	20.792102
670.208003	-3.018500	3.731300	-11.262000	23.969781	0.001078	20.771289
671.208227	-2.988200	3.730900	-11.148000	23.987200	0.001078	20.757936
672.208104	-2.974100	3.733200	-11.102000	24.008898	0.001077	20.764998
673.209103	-2.994100	3.730500	-11.168000	24.019443	0.001077	20.769409
674.209103	-2.987800	3.730400	-11.144000	24.036000	0.001077	20.762306
675.211354	-3.000000	3.729500	-11.187000	24.039621	0.001078	20.766886
676.210438	-3.018700	3.730300	-11.260000	24.082273	0.001079	20.759875
677.210429	-2.986400	3.729400	-11.136000	24.076203	0.001075	20.775124
678.210468	-2.998200	3.730300	-11.183000	24.091973	0.001075	20.773871
679.210597	-3.023700	3.729300	-11.275000	24.094353	0.001076	20.773887
680.210414	-3.005000	3.727700	-11.201000	24.068106	0.001077	20.758943
681.211401	-3.009300	3.728100	-11.217000	24.073577	0.001075	20.777706
682.212801	-3.017700	3.728400	-11.250000	24.105319	0.001075	20.752168
683.217021	-3.010700	3.727600	-11.221000	24.115847	0.001077	20.759408
684.214077	-2.989900	3.728000	-11.145000	24.115603	0.001078	20.767223
685.214487	-2.974200	3.728100	-11.087000	24.116590	0.001074	20.768214
686.231536	-3.004700	3.727800	-11.199000	24.131490	0.001077	20.753760
687.215537	-3.001400	3.727400	-11.186000	24.124525	0.001076	20.759103
688.217051	-3.016800	3.724600	-11.235000	24.133625	0.001073	20.747841
689.218051	-3.004600	3.726300	-11.196000	24.167984	0.001076	20.766655
690.218050	-2.987700	3.726400	-11.133000	24.126855	0.001074	20.763810
691.222050	-3.001600	3.725700	-11.182000	24.144245	0.001074	20.749483
692.220067	-3.015100	3.724700	-11.229000	24.142472	0.001073	20.762878
693.220672	-3.004200	3.726000	-11.193000	24.138470	0.001075	20.763606
694.219637	-3.018200	3.724400	-11.239000	24.144556	0.001074	20.745528
695.220984	-2.994100	3.725800	-11.154000	24.154932	0.001073	20.769685
696.222200	-2.974100	3.725900	-11.079000	24.147866	0.001073	20.770659
697.221193	-2.981000	3.724000	-11.100000	24.155344	0.001073	20.758245
698.220732	-3.006000	3.723800	-11.193000	24.151436	0.001071	20.768550
699.221100	-2.980600	3.724900	-11.101000	24.121399	0.001072	20.766399
700.222106	-2.992900	3.723200	-11.142000	24.129689	0.001074	20.757170
701.224310	-3.004100	3.722000	-11.180000	24.127047	0.001072	20.766373
702.222313	-3.002200	3.722600	-11.175000	24.123661	0.001072	20.742114
703.222310	-2.987300	3.723100	-11.121000	24.131774	0.001074	20.762580
704.223174	-3.006300	3.722500	-11.190000	24.133446	0.001072	20.759515
705.223176	-2.994900	3.722100	-11.146000	24.138840	0.001072	20.748329
706.223176	-2.992800	3.722800	-11.141000	24.155834	0.001074	20.750675
707.226174	-2.997100	3.722400	-11.155000	24.161405	0.001072	20.767643
708.223173	-2.996200	3.721000	-11.148000	24.149494	0.001072	20.761860
709.223174	-2.989700	3.721800	-11.126000	24.146217	0.001071	20.754306
710.226174	-3.002100	3.720100	-11.167000	24.185464	0.001072	20.750048
711.224219	-3.022300	3.719100	-11.240000	24.188250	0.001069	20.737669
712.223274	-3.001400	3.719600	-11.162000	24.184940	0.001070	20.750945
713.227273	-3.010300	3.720000	-11.197000	24.151814	0.001070	20.756127
714.224491	-3.013600	3.719300	-11.207000	24.135969	0.001070	20.762994
715.224649	-3.002600	3.719300	-11.165000	24.142959	0.001069	20.749141
716.228643	-3.021500	3.718900	-11.236000	24.166123	0.001069	20.765737
717.224345	-2.995700	3.719600	-11.142000	24.153131	0.001069	20.762663
718.226774	-2.997500	3.719500	-11.149000	24.121920	0.001069	20.750800
719.228666	-3.004400	3.718600	-11.171000	24.173459	0.001069	20.757448
720.225774	-3.012000	3.717500	-11.197000	24.185370	0.001069	20.772239
721.225997	-3.015500	3.718300	-11.212000	24.205215	0.001068	20.756109
722.230168	-3.008700	3.717500	-11.184000	24.198775	0.001068	20.734949
723.226282	-3.017400	3.715800	-11.210000	24.213902	0.001067	20.759132
724.226681	-2.984100	3.717300	-11.093000	24.180405	0.001067	20.764889
725.230038	-3.004700	3.717800	-11.171000	24.177375	0.001069	20.768488
726.227037	-3.017600	3.716700	-11.215000	24.170259	0.001068	20.766566
727.226605	-3.003600	3.715500	-11.158000	24.179612	0.001069	20.782586
728.229675	-2.981700	3.716400	-11.081000	24.193785	0.001067	20.777361
729.226677	-2.992900	3.715600	-11.118000	24.215648	0.001069	20.761831
730.226676	-2.993000	3.716100	-11.121000	24.200006	0.001070	20.758470
731.230675	-2.996300	3.716800	-11.135000	24.190755	0.001066	20.757251
732.226675	-3.011900	3.715000	-11.188000	24.183300	0.001066	20.750722
733.227570	-2.975300	3.716000	-11.055000	24.186735	0.001068	20.752746
734.229805	-2.998900	3.715100	-11.141000	24.205070	0.001066	20.767343
735.226795	-2.985500	3.713400	-11.085000	24.233627	0.001066	20.762796
736.228200	-2.997900	3.712900	-11.130000	24.228250	0.001066	20.748393
737.229695	-3.011200	3.713600	-11.182000	24.220036	0.001066	20.744422
738.226893	-2.968900	3.714200	-11.026000	24.204411	0.001066	20.751035
739.228134	-3.004500	3.713100	-11.155000	24.173405	0.001066	20.756445
740.229365	-3.002400	3.711500	-11.143000	24.141832	0.001066	20.768875
741.228226	-3.005500	3.711800	-11.155000	24.139840	0.001065	20.751703
742.228457	-3.008200	3.711600	-11.164000	24.140094	0.001065	20.760018
743.230008	-2.985700	3.711300	-11.080000	24.161282	0.001066	20.745234
744.228084	-3.022200	3.710100	-11.212000	24.160565	0.001065	20.747359
745.228398	-2.992400	3.712000	-11.107000	24.163916	0.001063	20.750246
746.230587	-2.996300	3.710700	-11.118000	24.145529	0.001063	20.759781
747.229588	-2.992200	3.709300	-11.099000	24.155026	0.001062	20.762193
748.229586	-2.989800	3.710300	-11.092000	24.149302	0.001064	20.744124
749.231637	-2.977400	3.710600	-11.046000	24.161054	0.001063	20.754488
750.229664	-2.982800	3.710400	-11.067000	24.204714	0.001064	20.730949
751.230659	-2.997900	3.709200	-11.119000	24.217367	0.001063	20.764978
752.234661	-3.003800	3.709800	-11.142000	24.223461	0.001063	20.754496
753.232026	-3.022500	3.707300	-11.204000	24.246878	0.001062	20.761388
754.232108	-2.994000	3.709100	-11.104000	24.229860	0.001061	20.744792
755.232111	-2.970800	3.709500	-11.019000	24.203759	0.001061	20.766977
756.234107	-3.009300	3.708400	-11.158000	24.204966	0.001062	20.743056
757.248108	-3.009900	3.707200	-11.157000	24.215273	0.001062	20.749601
758.232108	-2.991300	3.708300	-11.092000	24.210984	0.001060	20.749567
759.233142	-3.008000	3.706800	-11.149000	24.214369	0.001062	20.749169
760.233109	-2.995700	3.707200	-11.105000	24.217907	0.001062	20.757933
761.233154	-2.984300	3.707500	-11.064000	24.224592	0.001063	20.765587
762.235156	-2.995900	3.708100	-11.108000	24.230213	0.001061	20.778339
763.234155	-3.008100	3.705800	-11.146000	24.227352	0.001061	20.773097
764.234550	-3.005900	3.704400	-11.134000	24.219198	0.001061	20.767763
765.234674	-3.020300	3.704400	-11.186000	24.210106	0.001060	20.769549
766.235549	-3.000000	3.707300	-11.120000	24.222009	0.001060	20.776747
767.238561	-3.018200	3.705100	-11.182000	24.218894	0.001061	20.764613
768.235607	-3.007400	3.703400	-11.137000	24.226077	0.001059	20.781302
769.235617	-2.970000	3.705700	-11.004000	24.206045	0.001059	20.803409
770.235841	-3.009200	3.703300	-11.143000	24.205404	0.001058	20.767204
771.235837	-2.989700	3.704500	-11.074000	24.224253	0.001060	20.779946
772.236043	-3.001300	3.702900	-11.111000	24.228145	0.001059	20.772471
773.238443	-3.005200	3.703200	-11.128000	24.264611	0.001061	20.778228
774.235709	-3.006200	3.703900	-11.134000	24.276107	0.001059	20.787389
775.235824	-2.992400	3.703600	-11.082000	24.262999	0.001058	20.756696
776.237822	-2.987400	3.702400	-11.059000	24.275685	0.001059	20.745714
777.237053	-3.011300	3.701500	-11.146000	24.281417	0.001059	20.791293
778.238052	-3.004500	3.702200	-11.122000	24.296585	0.001059	20.784697
779.238512	-2.998300	3.702500	-11.100000	24.323636	0.001058	20.757305
780.240305	-2.999100	3.702200	-11.102000	24.303818	0.001057	20.776306
781.239354	-3.002700	3.700200	-11.109000	24.290094	0.001059	20.791462
782.242358	-3.000500	3.699900	-11.100000	24.338999	0.001056	20.784570
783.240356	-3.017800	3.700200	-11.165000	24.312403	0.001057	20.791555
784.240920	-3.015800	3.698800	-11.153000	24.333952	0.001056	20.781403
785.241223	-3.010400	3.699500	-11.136000	24.353077	0.001054	20.785417
786.242641	-3.012000	3.699800	-11.142000	24.352132	0.001057	20.772614
787.241644	-3.003000	3.700800	-11.113000	24.339370	0.001056	20.779252
788.241589	-3.007900	3.699100	-11.125000	24.326684	0.001055	20.793553
789.246226	-2.993400	3.699000	-11.072000	24.304823	0.001054	20.783952
790.243226	-2.990400	3.697800	-11.056000	24.309271	0.001051	20.777034
791.243227	-3.004300	3.697000	-11.105000	24.285097	0.001053	20.803046
792.244271	-3.003800	3.698400	-11.108000	24.309854	0.001052	20.805594
793.244272	-2.979700	3.698300	-11.018000	24.330728	0.001054	20.795713
794.245920	-2.984600	3.697900	-11.035000	24.320802	0.001054	20.790024
795.246136	-2.999000	3.696900	-11.084000	24.342662	0.001054	20.798202
796.245557	-2.998500	3.698300	-11.089000	24.335413	0.001053	20.779076
797.246632	-2.983100	3.698500	-11.032000	24.347052	0.001051	20.789330
798.248220	-2.979700	3.697300	-11.015000	24.373572	0.001054	20.773259
799.246227	-2.975600	3.698100	-11.003000	24.379624	0.001052	20.794978
800.245443	-3.019500	3.695000	-11.155000	24.370247	0.001051	20.799321
801.247479	-3.000400	3.693900	-11.082000	24.376746	0.001052	20.784504
802.246668	-3.008000	3.695200	-11.114000	24.332561	0.001051	20.793284
803.246715	-3.010700	3.693400	-11.119000	24.331025	0.001053	20.795537
804.245716	-3.005000	3.694100	-11.099000	24.335076	0.001053	20.795334
805.246089	-2.998500	3.694600	-11.077000	24.366382	0.001053	20.799238
806.248089	-2.984400	3.693900	-11.024000	24.362661	0.001050	20.805461
807.248088	-3.002200	3.694100	-11.090000	24.335541	0.001052	20.792481
808.248825	-2.982500	3.694100	-11.015000	24.301087	0.001051	20.791110
809.248846	-2.991600	3.693500	-11.049000	24.306362	0.001049	20.760365
810.249627	-2.986900	3.692900	-11.029000	24.290646	0.001050	20.781585
811.248682	-3.001500	3.694100	-11.087000	24.322772	0.001050	20.814285
812.249686	-3.012200	3.693700	-11.126000	24.334183	0.001050	20.794912
813.252107	-3.013300	3.692300	-11.125000	24.351773	0.001050	20.816825
814.250334	-2.997900	3.692100	-11.068000	24.341983	0.001049	20.806530
815.250895	-3.017400	3.692100	-11.140000	24.319793	0.001048	20.798494
816.251349	-3.025900	3.691500	-11.169000	24.336092	0.001048	20.813896
817.252349	-3.005200	3.691700	-11.093000	24.341595	0.001047	20.817994
818.252971	-2.976500	3.692000	-10.988000	24.369178	0.001049	20.800620
819.253186	-3.000000	3.692200	-11.075000	24.351065	0.001047	20.820382
820.252371	-3.012700	3.690400	-11.117000	24.397165	0.001048	20.815894
821.252739	-2.985500	3.691500	-11.021000	24.416822	0.001047	20.826131
822.255738	-3.012100	3.691000	-11.117000	24.433871	0.001046	20.810045
823.252749	-3.002600	3.689900	-11.078000	24.444108	0.001046	20.801823
824.259747	-2.989100	3.690800	-11.031000	24.475005	0.001045	20.805794
825.264783	-2.999700	3.688700	-11.064000	24.491353	0.001045	20.815556
826.253783	-2.983800	3.690200	-11.010000	24.491850	0.001045	20.825065
827.256846	-2.993800	3.687900	-11.040000	24.483588	0.001046	20.814879
828.257957	-3.003600	3.689200	-11.079000	24.428124	0.001045	20.823244
829.254919	-3.019700	3.687600	-11.134000	24.431340	0.001046	20.823152
830.255930	-2.996800	3.691000	-11.060000	24.419752	0.001044	20.821484
831.259026	-3.002600	3.688000	-11.072000	24.431112	0.001044	20.812492
832.256859	-2.974800	3.688000	-10.969000	24.433230	0.001044	20.822204
833.255581	-3.007000	3.687000	-11.086000	24.432615	0.001043	20.832965
834.257580	-2.992300	3.688800	-11.035000	24.438885	0.001043	20.822187
835.256580	-2.996100	3.687100	-11.045000	24.426867	0.001043	20.829096
836.255638	-3.003000	3.685600	-11.067000	24.433804	0.001043	20.829892
837.257854	-2.983000	3.687300	-10.998000	24.407860	0.001043	20.834684
838.256891	-2.985100	3.686000	-11.001000	24.393640	0.001042	20.832271
839.256893	-2.981300	3.686200	-10.989000	24.399733	0.001040	20.831272
840.256883	-2.995400	3.684600	-11.035000	24.424218	0.001042	20.830231
841.256885	-2.995700	3.684200	-11.036000	24.417652	0.001043	20.844032
842.258238	-3.003400	3.685500	-11.068000	24.430902	0.001041	20.818445
843.257453	-2.986000	3.684900	-11.002000	24.444642	0.001039	20.823221
844.258930	-2.991600	3.684800	-11.023000	24.480510	0.001042	20.822222
845.258103	-3.015200	3.683500	-11.106000	24.466534	0.001043	20.844236
846.258386	-3.004300	3.683000	-11.064000	24.449882	0.001039	20.823263
847.259386	-3.032800	3.683200	-11.169000	24.430809	0.001041	20.847749
848.259419	-2.986500	3.684000	-11.000000	24.444043	0.001039	20.826887
849.259778	-3.007800	3.683600	-11.078000	24.459690	0.001039	20.831679
850.260179	-2.997200	3.683100	-11.039000	24.435586	0.001040	20.854912
851.259395	-3.027800	3.681600	-11.147000	24.431307	0.001041	20.830705
852.259395	-3.004100	3.681700	-11.059000	24.445739	0.001038	20.831908
853.260913	-2.997900	3.681200	-11.034000	24.465225	0.001038	20.838181
854.261910	-3.004600	3.680800	-11.058000	24.470011	0.001037	20.851042
855.263914	-3.031300	3.680600	-11.156000	24.489362	0.001039	20.842008
856.262914	-3.011300	3.681600	-11.085000	24.472787	0.001037	20.840551
857.263911	-2.995900	3.681500	-11.029000	24.509776	0.001038	20.844472
858.263910	-3.004300	3.680300	-11.054000	24.508485	0.001038	20.828004
859.264910	-2.970400	3.681600	-10.934000	24.480872	0.001038	20.841551
860.265911	-3.002200	3.680000	-11.047000	24.500578	0.001036	20.832873
861.266912	-3.000400	3.680400	-11.042000	24.474534	0.001038	20.851787
862.267911	-3.000700	3.680200	-11.042000	24.450650	0.001035	20.850585
863.265912	-3.004900	3.679200	-11.055000	24.417119	0.001035	20.840653
864.266006	-3.003100	3.680400	-11.051000	24.405649	0.001036	20.818716
865.269007	-3.006500	3.678000	-11.057000	24.406376	0.001037	20.859271
866.266006	-3.005800	3.678200	-11.053000	24.388862	0.001036	20.857824
867.266006	-2.991900	3.679500	-11.008000	24.395403	0.001035	20.871023
868.270005	-2.984900	3.678900	-10.980000	24.382093	0.001036	20.851982
869.268006	-2.989200	3.678600	-10.994000	24.383622	0.001033	20.868213
870.268007	-3.012500	3.677300	-11.077000	24.405195	0.001033	20.851923
871.270518	-2.990400	3.678200	-10.998000	24.396012	0.001033	20.854565
872.267519	-2.993500	3.677000	-11.006000	24.413398	0.001033	20.861101
873.268520	-3.008500	3.677300	-11.062000	24.417096	0.001032	20.858172
874.273075	-2.981700	3.676300	-10.960000	24.431544	0.001033	20.864607
875.270103	-3.019700	3.675500	-11.098000	24.451116	0.001033	20.845362
876.270103	-2.989000	3.676700	-10.989000	24.475894	0.001033	20.857419
877.274102	-2.987200	3.676900	-10.983000	24.496571	0.001031	20.865835
878.272102	-2.999100	3.675900	-11.022000	24.514640	0.001030	20.858360
879.271101	-2.994700	3.675900	-11.007000	24.543712	0.001032	20.871406
880.276103	-2.986700	3.674900	-10.975000	24.523366	0.001030	20.855735
881.273103	-3.002200	3.673900	-11.029000	24.528151	0.001031	20.852476
882.274618	-2.996100	3.673800	-11.006000	24.523054	0.001029	20.859215
883.273618	-2.994800	3.674000	-11.001000	24.538177	0.001032	20.867749
884.272618	-3.009400	3.674000	-11.055000	24.529569	0.001030	20.862432
885.272618	-3.017400	3.672200	-11.079000	24.519375	0.001030	20.876385
886.272617	-2.997800	3.672400	-11.008000	24.569493	0.001030	20.862661
887.275618	-2.988900	3.674300	-10.981000	24.560819	0.001029	20.887147
888.276617	-2.990400	3.673600	-10.985000	24.575157	0.001030	20.878300
889.273618	-3.005700	3.672000	-11.036000	24.580987	0.001029	20.879408
890.276616	-2.982800	3.673100	-10.956000	24.570828	0.001029	20.871586
891.276618	-2.997800	3.671700	-11.005000	24.578237	0.001029	20.863373
892.274621	-3.003200	3.672700	-11.029000	24.570406	0.001027	20.888705
893.276617	-3.010900	3.671200	-11.053000	24.599190	0.001027	20.901465
894.277617	-3.021800	3.671200	-11.093000	24.571107	0.001027	20.877555
895.273617	-3.014000	3.670400	-11.061000	24.563926	0.001026	20.854705
896.277139	-2.999700	3.670900	-11.011000	24.579394	0.001025	20.884921
897.276139	-2.969300	3.672800	-10.905000	24.599714	0.001025	20.860741
898.276781	-3.002500	3.669400	-11.017000	24.600566	0.001025	20.875821
899.276876	-2.986000	3.670600	-10.958000	24.565344	0.001024	20.872247
900.275058	-3.006200	3.669200	-11.030000	24.572821	0.001025	20.885439
901.275046	-2.994300	3.670700	-10.990000	24.550947	0.001023	20.889096
902.295371	-2.982900	3.669900	-10.946000	24.581108	0.001026	20.870048
903.275933	-2.995600	3.670300	-10.994000	24.582761	0.001025	20.884507
904.275458	-2.976000	3.668700	-10.916000	24.586745	0.001024	20.879021
905.287878	-3.005800	3.668900	-11.028000	24.618482	0.001022	20.905648
906.285872	-2.998000	3.668300	-10.996000	24.619242	0.001024	20.890765
907.280873	-2.989700	3.667700	-10.964000	24.620203	0.001023	20.914961
908.280877	-3.014200	3.666900	-11.051000	24.652260	0.001023	20.903981
909.283873	-3.013000	3.666800	-11.047000	24.657188	0.001024	20.898969
910.282877	-3.002200	3.667400	-11.009000	24.651695	0.001022	20.886820
911.281922	-3.011500	3.665600	-11.039000	24.647940	0.001024	20.891586
912.283427	-3.006300	3.666600	-11.021000	24.639840	0.001021	20.906217
913.282530	-2.998200	3.666000	-10.991000	24.642650	0.001022	20.898131
914.281564	-2.995800	3.667700	-10.986000	24.605243	0.001020	20.909434
915.281529	-3.032200	3.664800	-11.112000	24.570518	0.001020	20.893559
916.282529	-3.023400	3.665200	-11.080000	24.527692	0.001020	20.903694
917.281917	-3.003100	3.666000	-11.007000	24.519607	0.001020	20.906961
918.283380	-3.006600	3.664600	-11.017000	24.550958	0.001020	20.906175
919.282380	-2.996800	3.665200	-10.983000	24.551894	0.001018	20.892417
920.284896	-2.969900	3.665700	-10.885000	24.579912	0.001018	20.893975
921.285029	-3.004700	3.663100	-11.005000	24.625749	0.001020	20.899665
922.285496	-2.987500	3.664900	-10.948000	24.618931	0.001019	20.906573
923.284803	-2.983200	3.665400	-10.933000	24.646414	0.001017	20.926561
924.286837	-3.009700	3.664500	-11.028000	24.615134	0.001017	20.917935
925.289321	-3.009900	3.663700	-11.026000	24.580536	0.001019	20.915937
926.286461	-3.010600	3.664600	-11.032000	24.557187	0.001016	20.935655
927.286093	-3.007100	3.662600	-11.012000	24.553676	0.001017	20.897997
928.287635	-3.004800	3.662800	-11.003000	24.544031	0.001018	20.894958
929.286489	-3.008700	3.662100	-11.018000	24.557694	0.001015	20.914355
930.285454	-2.981700	3.663800	-10.923000	24.582461	0.001016	20.929246
931.289539	-2.992300	3.661400	-10.954000	24.616105	0.001016	20.918435
932.285536	-2.988800	3.661400	-10.943000	24.621657	0.001016	20.914998
933.286179	-3.006500	3.660700	-11.006000	24.630122	0.001014	20.936765
934.286074	-2.985700	3.662800	-10.935000	24.652229	0.001014	20.931922
935.289105	-3.016000	3.660000	-11.037000	24.664600	0.001013	20.916362
936.287258	-3.004900	3.660800	-10.999000	24.637809	0.001012	20.920773
937.286256	-3.001100	3.660900	-10.985000	24.631793	0.001015	20.928011
938.287458	-2.997600	3.661100	-10.974000	24.590884	0.001014	20.929637
939.286693	-2.985600	3.662200	-10.933000	24.577728	0.001014	20.931610
940.286735	-3.018200	3.658500	-11.041000	24.587281	0.001012	20.917962
941.288204	-2.996100	3.659200	-10.962000	24.589897	0.001011	20.917743
942.287728	-2.995800	3.659500	-10.962000	24.615507	0.001012	20.908827
943.288728	-2.980400	3.659900	-10.907000	24.638789	0.001011	20.926496
944.296079	-2.970300	3.659200	-10.868000	24.669630	0.001010	20.929468
945.294528	-3.004600	3.659500	-10.994000	24.670254	0.001012	20.930569
946.287749	-2.991600	3.659000	-10.945000	24.678979	0.001011	20.942167
947.287752	-2.989900	3.658000	-10.936000	24.697340	0.001011	20.930247
948.288709	-2.993900	3.658700	-10.953000	24.689501	0.001010	20.955095
949.288939	-2.985200	3.657000	-10.915000	24.712435	0.001009	20.919318
950.289382	-3.007000	3.657600	-10.998000	24.747323	0.001008	20.928723
951.293494	-2.991600	3.657600	-10.941000	24.766755	0.001008	20.925939
952.289607	-3.005300	3.655500	-10.985000	24.770129	0.001006	20.946392
953.291604	-2.976900	3.657200	-10.886000	24.780498	0.001009	20.925506
954.295642	-3.011700	3.655200	-11.007000	24.804046	0.001006	20.933016
955.291881	-2.981400	3.655600	-10.897000	24.792783	0.001007	20.942574
956.292487	-3.012100	3.655800	-11.010000	24.796689	0.001008	20.930849
957.295714	-3.007100	3.654600	-10.988000	24.763708	0.001007	20.945638
958.293398	-3.019200	3.654000	-11.031000	24.745357	0.001006	20.948085
959.293644	-3.024900	3.653000	-11.050000	24.783561	0.001005	20.926209
960.298938	-2.987900	3.654700	-10.919000	24.783958	0.001005	20.946045
961.295264	-2.987000	3.653400	-10.911000	24.818591	0.001005	20.941448
962.295263	-3.005600	3.653000	-10.978000	24.805758	0.001005	20.948957
963.297265	-3.001800	3.654900	-10.969000	24.786184	0.001003	20.933108
964.294747	-2.998200	3.653900	-10.953000	24.791036	0.001006	20.934184
965.295470	-2.994800	3.652500	-10.937000	24.802527	0.001005	20.933862
966.295013	-2.969600	3.654200	-10.851000	24.798849	0.001004	20.946290
967.295196	-3.016500	3.652600	-11.017000	24.812297	0.001002	20.937976
968.298196	-3.028500	3.650400	-11.054000	24.809116	0.001003	20.933363
969.296446	-3.008900	3.651900	-10.987000	24.842955	0.001002	20.928918
970.298966	-3.001900	3.653500	-10.967000	24.831743	0.001004	20.929993
971.300462	-2.975800	3.652800	-10.869000	24.827955	0.001004	20.918131
972.297072	-3.012800	3.651400	-11.000000	24.821720	0.001003	20.910927
973.298049	-3.033900	3.649600	-11.071000	24.811840	0.001001	20.910021
974.298294	-3.020700	3.650400	-11.026000	24.780109	0.001001	20.939339
975.296368	-3.016500	3.650100	-11.010000	24.783400	0.001001	20.940745
976.299730	-3.008000	3.650500	-10.979000	24.807090	0.001002	20.909521
977.298886	-2.996000	3.648900	-10.931000	24.827685	0.001002	20.920705
978.298600	-2.974300	3.651200	-10.859000	24.804677	0.001000	20.916582
979.299047	-3.006900	3.648200	-10.968000	24.825643	0.000999	20.918182
980.301569	-2.995300	3.650100	-10.932000	24.817088	0.001000	20.904382
981.301568	-3.014300	3.647700	-10.994000	24.848590	0.000998	20.897592
982.300930	-2.995500	3.648700	-10.929000	24.852690	0.000999	20.906922
983.302930	-3.014100	3.647400	-10.993000	24.872694	0.000999	20.912773
984.302930	-3.022400	3.647000	-11.022000	24.871074	0.000997	20.907828
985.303933	-3.001800	3.648100	-10.949000	24.887954	0.000997	20.891107
986.302930	-3.005500	3.647400	-10.961000	24.856529	0.000997	20.918360
987.302930	-3.004000	3.646300	-10.953000	24.845401	0.000996	20.917623
988.302930	-3.002600	3.646100	-10.947000	24.814767	0.000996	20.896364
989.306930	-3.009500	3.646800	-10.974000	24.818750	0.000996	20.902731
990.304930	-2.987800	3.646900	-10.894000	24.797521	0.000994	20.882377
991.304930	-2.993700	3.646100	-10.914000	24.770524	0.000995	20.911230
992.307422	-2.989900	3.645300	-10.897000	24.792958	0.000995	20.905296
993.305512	-3.012600	3.645100	-10.980000	24.799639	0.000994	20.886873
994.305497	-2.983700	3.647200	-10.880000	24.814336	0.000994	20.903992
995.310519	-3.011700	3.644300	-10.975000	24.817618	0.000993	20.903018
996.311241	-2.983300	3.646600	-10.878000	24.811914	0.000994	20.891131
997.308239	-3.024100	3.642200	-11.012000	24.822470	0.000993	20.888922
998.308241	-2.981200	3.645400	-10.867000	24.826890	0.000992	20.897625
999.307241	-2.997300	3.643600	-10.920000	24.814555	0.000993	20.900418
1000.307846	-2.976700	3.644700	-10.848000	24.825413	0.000991	20.905150
1001.308844	-2.997500	3.644100	-10.923000	24.870565	0.000993	20.874129
1002.310533	-3.013400	3.643900	-10.980000	24.879820	0.000990	20.887210
1003.312479	-3.009200	3.643100	-10.962000	24.865992	0.000990	20.887557
1004.310886	-2.989900	3.643400	-10.891000	24.832313	0.000990	20.894059
1005.312415	-3.013700	3.641600	-10.973000	24.837367	0.000990	20.897708
1006.318283	-3.001200	3.642100	-10.930000	24.824982	0.000990	20.888124
1007.313586	-3.000000	3.642400	-10.927000	24.796111	0.000989	20.871005
1008.312933	-2.976700	3.643500	-10.844000	24.769796	0.000989	20.866881
1009.314551	-2.994300	3.642100	-10.904000	24.752146	0.000989	20.870980
1010.316007	-2.993500	3.640800	-10.897000	24.754102	0.000987	20.880529
1011.314652	-3.002400	3.640000	-10.928000	24.727862	0.000986	20.886912
1012.317277	-3.010700	3.640900	-10.961000	24.728385	0.000988	20.877481
1013.314960	-2.992700	3.640300	-10.894000	24.715577	0.000987	20.874111
1014.319231	-3.013900	3.639900	-10.968000	24.717197	0.000986	20.878582
1015.317610	-2.996100	3.640000	-10.905000	24.695741	0.000986	20.876017
1016.315595	-3.011000	3.640600	-10.961000	24.673549	0.000985	20.889308
1017.319000	-2.998900	3.639300	-10.914000	24.674941	0.000986	20.870318
1018.316374	-2.987400	3.640100	-10.873000	24.662538	0.000985	20.878260
1019.319367	-2.980600	3.639600	-10.847000	24.669676	0.000983	20.898698
1020.320915	-2.993000	3.639200	-10.892000	24.682704	0.000983	20.856772
1021.318313	-3.019100	3.637300	-10.980000	24.651981	0.000984	20.884262
1022.318262	-3.007100	3.638900	-10.942000	24.688736	0.000984	20.869937
1023.316945	-2.997700	3.638100	-10.905000	24.716893	0.000982	20.886811
1024.317590	-3.009600	3.636300	-10.943000	24.742922	0.000985	20.845129
1025.318271	-2.999800	3.636000	-10.906000	24.752886	0.000983	20.863188
1026.331117	-3.015100	3.636000	-10.962000	24.718968	0.000982	20.866135
1027.318087	-3.006100	3.636600	-10.931000	24.742989	0.000983	20.881230
1028.318652	-3.037900	3.634300	-11.040000	24.748440	0.000982	20.879114
1029.317451	-3.001700	3.636100	-10.914000	24.773507	0.000982	20.863019
1030.318893	-2.997400	3.636000	-10.897000	24.785318	0.000982	20.872028
1031.317162	-3.010600	3.636100	-10.946000	24.823908	0.000982	20.869978
1032.318361	-3.022000	3.635200	-10.985000	24.834892	0.000981	20.855399
1033.318268	-3.010300	3.635500	-10.941000	24.869288	0.000982	20.869530
1034.319283	-3.024600	3.633100	-10.988000	24.849976	0.000980	20.875751
1035.318340	-3.001700	3.634700	-10.909000	24.863121	0.000980	20.851487
1036.318447	-2.999800	3.633400	-10.899000	24.853327	0.000979	20.884803
1037.320735	-2.984100	3.634300	-10.844000	24.861147	0.000977	20.872264
1038.325276	-3.019600	3.631800	-10.966000	24.878636	0.000979	20.881281
1039.322924	-3.021800	3.633600	-10.978000	24.890193	0.000976	20.866329
1040.319487	-2.991100	3.632900	-10.866000	24.868192	0.000979	20.863688
1041.324162	-2.987900	3.633000	-10.854000	24.899962	0.000978	20.869969
1042.320303	-3.004900	3.632100	-10.913000	24.907428	0.000978	20.876514
1043.321320	-2.978900	3.633500	-10.823000	24.882365	0.000976	20.859421
1044.324476	-2.973100	3.632500	-10.798000	24.849370	0.000977	20.881781
1045.321738	-2.973300	3.632300	-10.798000	24.868090	0.000977	20.862638
1046.322701	-2.999200	3.630500	-10.887000	24.881943	0.000978	20.877014
1047.322662	-2.990200	3.630500	-10.855000	24.899718	0.000976	20.875414
1048.323228	-3.011600	3.630400	-10.932000	24.916126	0.000974	20.873390
1049.322627	-2.991700	3.631400	-10.863000	24.945567	0.000975	20.855526
1050.322393	-3.005300	3.629400	-10.906000	24.950114	0.000973	20.858667
1051.327000	-2.989600	3.631200	-10.853000	24.936886	0.000974	20.861037
1052.325317	-3.020200	3.629400	-10.961000	24.946756	0.000973	20.851030
1053.323217	-2.990700	3.627800	-10.848000	24.943922	0.000972	20.862409
1054.323636	-2.986200	3.628800	-10.836000	24.972915	0.000971	20.860690
1055.324963	-3.009700	3.628800	-10.921000	24.961721	0.000971	20.847558
1056.321383	-3.001200	3.629600	-10.892000	24.971051	0.000972	20.863086
1057.323229	-2.990200	3.628700	-10.849000	24.957713	0.000970	20.859183
1058.324559	-2.971200	3.630000	-10.783000	24.935089	0.000970	20.857811
1059.322951	-2.991700	3.627900	-10.852000	24.940412	0.000970	20.867421
1060.324514	-3.011900	3.627400	-10.925000	24.975462	0.000970	20.857557
1061.321952	-2.994900	3.627600	-10.862000	24.978743	0.000969	20.859428
1062.322819	-3.001700	3.626300	-10.884000	24.964698	0.000969	20.846753
1063.323707	-3.001900	3.626000	-10.884000	24.938294	0.000969	20.857235
1064.322889	-3.004500	3.626200	-10.894000	24.921608	0.000968	20.827212
1065.322947	-2.992000	3.626100	-10.848000	24.923834	0.000966	20.862636
1066.326623	-2.970900	3.626900	-10.773000	24.906431	0.000967	20.878358
1067.323176	-2.978500	3.626400	-10.800000	24.912075	0.000966	20.837084
1068.326601	-2.991700	3.625400	-10.845000	24.892857	0.000965	20.854779
1069.327262	-3.019900	3.626100	-10.950000	24.863263	0.000965	20.866801
1070.336725	-3.022500	3.623900	-10.953000	24.875419	0.000965	20.856243
1071.325075	-2.979500	3.625500	-10.801000	24.865321	0.000965	20.869341
1072.324283	-2.994100	3.624000	-10.850000	24.857584	0.000964	20.843086
1073.328279	-2.992900	3.623200	-10.843000	24.862739	0.000965	20.843518
1074.325706	-3.001600	3.624700	-10.879000	24.874972	0.000964	20.842519
1075.323455	-2.995300	3.622900	-10.851000	24.878026	0.000964	20.842265
1076.326118	-2.992000	3.625100	-10.844000	24.867810	0.000963	20.866149
1077.329208	-3.018900	3.622000	-10.933000	24.854134	0.000961	20.832985
1078.327642	-2.987800	3.623600	-10.825000	24.848313	0.000962	20.841841
1079.327043	-2.991600	3.622800	-10.836000	24.834831	0.000962	20.846802
1080.328965	-3.004500	3.622300	-10.882000	24.843782	0.000961	20.863846
1081.329527	-3.007500	3.620000	-10.884000	24.864224	0.000960	20.844059
1082.329087	-2.989400	3.623000	-10.829000	24.860175	0.000962	20.838573
1083.331413	-2.990800	3.622300	-10.831000	24.867505	0.000959	20.841189
1084.331747	-3.010100	3.620100	-10.896000	24.827601	0.000960	20.827219
1085.328164	-2.995400	3.620100	-10.842000	24.829018	0.000960	20.835280
1086.331048	-2.999200	3.619200	-10.853000	24.825863	0.000957	20.830691
1087.331478	-3.003500	3.619700	-10.870000	24.831574	0.000957	20.835948
1088.334314	-3.003900	3.619300	-10.870000	24.823711	0.000957	20.839436
1089.331226	-3.005000	3.618800	-10.873000	24.819569	0.000957	20.840495
1090.331506	-3.008300	3.618000	-10.883000	24.786640	0.000957	20.835423
1091.330986	-2.999000	3.618200	-10.849000	24.840332	0.000955	20.858487
1092.330294	-3.000300	3.618900	-10.856000	24.846144	0.000956	20.831605
1093.329721	-2.972900	3.618700	-10.757000	24.865109	0.000957	20.850163
1094.333400	-2.986500	3.618000	-10.804000	24.857204	0.000957	20.829902
1095.330749	-3.001600	3.617500	-10.858000	24.848329	0.000954	20.857504
1096.334896	-3.014600	3.616600	-10.901000	24.861161	0.000953	20.829132
1097.363576	-2.986100	3.617400	-10.801000	24.849940	0.000955	20.861965
1098.346453	-3.028400	3.615100	-10.946000	24.843748	0.000954	20.831570
1099.335937	-3.008800	3.615600	-10.878000	24.861979	0.000952	20.856979
1100.334541	-2.995100	3.617400	-10.833000	24.826444	0.000955	20.833645
1101.334364	-2.999300	3.616000	-10.845000	24.826149	0.000953	20.848521
1102.337419	-2.996500	3.616700	-10.837000	24.827887	0.000952	20.849791
1103.335460	-3.021600	3.614700	-10.921000	24.860131	0.000952	20.825254
1104.335193	-3.026900	3.612900	-10.934000	24.889051	0.000951	20.825830
1105.337400	-3.009200	3.613400	-10.873000	24.924803	0.000951	20.850332
1106.336275	-2.998100	3.614400	-10.836000	24.946179	0.000950	20.855666
1107.336534	-2.998700	3.615800	-10.841000	24.954758	0.000951	20.818759
1108.336923	-2.991100	3.614200	-10.810000	24.974126	0.000950	20.840095
1109.337081	-2.995200	3.614700	-10.826000	24.954901	0.000950	20.847351
1110.339516	-2.974600	3.612800	-10.745000	24.921293	0.000948	20.825473
1111.337928	-2.994900	3.612900	-10.819000	24.902910	0.000948	20.820300
1112.341678	-3.003600	3.611800	-10.847000	24.920415	0.000948	20.843084
1113.340622	-3.021200	3.611700	-10.911000	24.903113	0.000948	20.821926
1114.339303	-3.011300	3.612100	-10.876000	24.885136	0.000947	20.847978
1115.339272	-3.021500	3.610900	-10.909000	24.863927	0.000948	20.802511
1116.340214	-2.987200	3.612300	-10.790000	24.839487	0.000947	20.831087
1117.339402	-3.003400	3.611600	-10.846000	24.832796	0.000945	20.830062
1118.340053	-2.968400	3.610700	-10.717000	24.844388	0.000946	20.827472
1119.345994	-2.987000	3.611100	-10.785000	24.871191	0.000947	20.835879
1120.340781	-2.984400	3.611000	-10.776000	24.923385	0.000946	20.819513
1121.341259	-2.994600	3.611100	-10.813000	24.964855	0.000943	20.830317
1122.344455	-2.996700	3.610300	-10.816000	24.968314	0.000945	20.824305
1123.345285	-2.992700	3.610500	-10.804000	25.011352	0.000945	20.837158
1124.342407	-2.998200	3.608100	-10.817000	25.050136	0.000945	20.822036
1125.346486	-3.003400	3.608800	-10.837000	25.055687	0.000943	20.828082
1126.349937	-3.012700	3.608800	-10.870000	25.085613	0.000943	20.810708
1127.346497	-2.998400	3.608800	-10.819000	25.092901	0.000942	20.815179
1128.347863	-2.996400	3.607800	-10.809000	25.110276	0.000941	20.837361
1129.347118	-3.007200	3.607200	-10.847000	25.104195	0.000942	20.826990
1130.345643	-3.022400	3.607000	-10.901000	25.072894	0.000941	20.807423
1131.344455	-2.983000	3.607500	-10.760000	25.029935	0.000941	20.804130
1132.346366	-3.016800	3.607400	-10.882000	25.018826	0.000940	20.803410
1133.346596	-3.008100	3.607300	-10.851000	25.004731	0.000939	20.818185
1134.344654	-2.993600	3.606500	-10.794000	25.041458	0.000939	20.817593
1135.345784	-2.991000	3.606800	-10.786000	25.036751	0.000938	20.812394
1136.343472	-3.003600	3.606100	-10.830000	25.058261	0.000939	20.800794
1137.345868	-3.007500	3.604900	-10.840000	25.027608	0.000938	20.835932
1138.346006	-2.979600	3.606600	-10.744000	25.008688	0.000935	20.802242
1139.346168	-3.000600	3.604600	-10.814000	25.031564	0.000935	20.819515
1140.353781	-3.016000	3.604100	-10.869000	25.031774	0.000934	20.773259
1141.347579	-2.990700	3.605100	-10.781000	25.050449	0.000933	20.803859
1142.345141	-3.006400	3.603500	-10.832000	25.067505	0.000935	20.802013
1143.347945	-3.013600	3.604000	-10.860000	25.082747	0.000935	20.809727
1144.346743	-3.013700	3.602300	-10.855000	25.088811	0.000933	20.806331
1145.344938	-3.017300	3.603100	-10.871000	25.062984	0.000932	20.822605
1146.345329	-3.019100	3.601100	-10.870000	25.048956	0.000932	20.810895
1147.347423	-2.989200	3.602100	-10.766000	25.049885	0.000931	20.805663
1148.348204	-3.011400	3.601300	-10.844000	25.063811	0.000932	20.797831
1149.345493	-2.992000	3.603000	-10.778000	25.057814	0.000930	20.808406
1150.346345	-3.006800	3.601500	-10.828000	25.073072	0.000932	20.810446
1151.345738	-2.991300	3.602200	-10.773000	25.077231	0.000930	20.811302
1152.345139	-2.999400	3.601900	-10.802000	25.121874	0.000928	20.795426
1153.344299	-3.007100	3.599300	-10.822000	25.097018	0.000928	20.795130
1154.344695	-3.004300	3.598900	-10.811000	25.081152	0.000927	20.798643
1155.345011	-3.008800	3.600800	-10.834000	25.101463	0.000926	20.775884
1156.345765	-3.007400	3.599900	-10.825000	25.088668	0.000927	20.801446
1157.348613	-3.006200	3.598900	-10.817000	25.083396	0.000926	20.813698
1158.348186	-3.022500	3.598400	-10.874000	25.058927	0.000927	20.808101
1159.347429	-3.004100	3.599500	-10.813000	25.053132	0.000925	20.807500
1160.351963	-3.002700	3.598800	-10.805000	25.070592	0.000928	20.788991
1161.348643	-2.993900	3.598500	-10.771000	25.061913	0.000925	20.808728
1162.348665	-2.989000	3.599300	-10.757000	25.085926	0.000924	20.801539
1163.355694	-3.004900	3.597200	-10.809000	25.080680	0.000922	20.796273
1164.350712	-2.990100	3.598800	-10.759000	25.122169	0.000923	20.790506
1165.346933	-2.992800	3.598200	-10.767000	25.112824	0.000924	20.799617
1166.349966	-2.972100	3.598100	-10.691000	25.157888	0.000924	20.787483
1167.350491	-3.015400	3.595500	-10.841000	25.152676	0.000923	20.786993
1168.349329	-3.011700	3.595000	-10.826000	25.157568	0.000920	20.787162
1169.349272	-3.026300	3.594500	-10.877000	25.153317	0.000921	20.789058
1170.351505	-3.025900	3.595700	-10.878000	25.116662	0.000920	20.800625
1171.349130	-3.014600	3.595200	-10.836000	25.085454	0.000919	20.790634
1172.350290	-3.027000	3.595900	-10.884000	25.092488	0.000919	20.779203
1173.355731	-3.009600	3.594600	-10.817000	25.087419	0.000919	20.797348
1174.348769	-3.003800	3.594500	-10.795000	25.096318	0.000919	20.794427
1175.351156	-2.998600	3.595200	-10.779000	25.103311	0.000919	20.797653
1176.355173	-3.003800	3.594000	-10.795000	25.102366	0.000918	20.788170
1177.351364	-2.987700	3.594400	-10.737000	25.113407	0.000918	20.785503
1178.351676	-3.015200	3.593100	-10.833000	25.083776	0.000916	20.800803
1179.351607	-3.017700	3.593000	-10.842000	25.128277	0.000916	20.807069
1180.351697	-3.005100	3.592100	-10.793000	25.128623	0.000917	20.782760
1181.353465	-2.977100	3.593800	-10.697000	25.122019	0.000916	20.781821
1182.356769	-2.989800	3.591600	-10.737000	25.076751	0.000915	20.755818
1183.352541	-3.007300	3.590800	-10.796000	25.021831	0.000915	20.774657
1184.354251	-2.996700	3.592000	-10.762000	25.022607	0.000914	20.774489
1185.354031	-2.998000	3.591900	-10.767000	25.022911	0.000914	20.780958
1186.354244	-3.014000	3.589900	-10.818000	25.066099	0.000915	20.783532
1187.355063	-3.014400	3.590700	-10.822000	25.085735	0.000913	20.796605
1188.356005	-3.004700	3.590300	-10.786000	25.077384	0.000913	20.787749
1189.356943	-3.012700	3.588900	-10.811000	25.085845	0.000912	20.779646
1190.358255	-2.994700	3.590500	-10.752000	25.079553	0.000912	20.789451
1191.356266	-3.002500	3.589600	-10.777000	25.096481	0.000911	20.779417
1192.360371	-2.997200	3.589200	-10.755000	25.079359	0.000908	20.783567
1193.357628	-3.016400	3.587500	-10.820000	25.118496	0.000909	20.797250
1194.357432	-3.012900	3.587700	-10.808000	25.157175	0.000911	20.772069
1195.361073	-2.978500	3.589600	-10.690000	25.169893	0.000908	20.761603
1196.358415	-2.975400	3.588700	-10.674000	25.137068	0.000910	20.779385
1197.359593	-2.990400	3.586200	-10.723000	25.106840	0.000910	20.780333
1198.362067	-2.994900	3.586000	-10.737000	25.081882	0.000909	20.791789
1199.360391	-2.997500	3.586500	-10.750000	25.056898	0.000908	20.777141
1200.361303	-3.015900	3.585000	-10.811000	25.055886	0.000908	20.778022
1201.362887	-3.007500	3.587500	-10.788000	25.055195	0.000907	20.777328
1202.362529	-3.016900	3.586600	-10.818000	25.085771	0.000906	20.756338
1203.362363	-3.022300	3.586000	-10.836000	25.072216	0.000905	20.802001
1204.362685	-2.997200	3.585800	-10.746000	25.056587	0.000905	20.764975
1205.364389	-3.008100	3.584000	-10.780000	25.047603	0.000904	20.779190
1206.369309	-3.014100	3.584100	-10.801000	25.032496	0.000904	20.792950
1207.365178	-3.017900	3.584300	-10.816000	25.034310	0.000906	20.779597
1208.365722	-3.014000	3.584800	-10.802000	25.038536	0.000902	20.773882
1209.365548	-3.016900	3.583100	-10.807000	25.045199	0.000903	20.772510
1210.366296	-2.985800	3.584900	-10.703000	25.082591	0.000901	20.769267
1211.369874	-3.011300	3.582600	-10.786000	25.089280	0.000901	20.765076
1212.367753	-2.974800	3.582600	-10.657000	25.074460	0.000902	20.781494
1213.367040	-3.015500	3.581700	-10.799000	25.068776	0.000898	20.771994
1214.369868	-2.982100	3.583900	-10.685000	25.052041	0.000901	20.765627
1215.366902	-2.988100	3.582200	-10.703000	25.101012	0.000899	20.785863
1216.366155	-2.997000	3.582700	-10.736000	25.090031	0.000897	20.790961
1217.370581	-3.024000	3.580400	-10.825000	25.095024	0.000898	20.781274
1218.368315	-2.992900	3.581200	-10.717000	25.065190	0.000898	20.751325
1219.370894	-3.003200	3.580600	-10.752000	25.071651	0.000898	20.769665
1220.367585	-3.005600	3.580500	-10.760000	25.034715	0.000896	20.772892
1221.368765	-3.013900	3.579100	-10.786000	25.052437	0.000895	20.765550
1222.367041	-3.004800	3.579800	-10.756000	25.059700	0.000896	20.762409
1223.367283	-3.016400	3.578500	-10.793000	25.084034	0.000898	20.771664
1224.369227	-3.016000	3.579000	-10.793000	25.124730	0.000896	20.772688
1225.367671	-3.004500	3.580000	-10.754000	25.135163	0.000895	20.767040
1226.367007	-3.018200	3.577400	-10.796000	25.132810	0.000894	20.776533
1227.367890	-3.000300	3.580400	-10.740000	25.128281	0.000894	20.788107
1228.374584	-2.999900	3.578900	-10.736000	25.167854	0.000897	20.756710
1229.367959	-3.020400	3.577900	-10.806000	25.155827	0.000892	20.764551
1230.368370	-3.025900	3.575900	-10.819000	25.106604	0.000894	20.770614
1231.367418	-3.011900	3.575300	-10.768000	25.092333	0.000892	20.761977
1232.366557	-2.994200	3.576700	-10.708000	25.092358	0.000893	20.775279
1233.369614	-2.972600	3.577800	-10.634000	25.088082	0.000890	20.771460
1234.369610	-2.976500	3.575900	-10.643000	25.106706	0.000892	20.754594
1235.375749	-2.976400	3.576500	-10.644000	25.108021	0.000892	20.755914
1236.371879	-3.014500	3.576900	-10.781000	25.122857	0.000888	20.772231
1237.377233	-3.029900	3.573800	-10.827000	25.122394	0.000890	20.770817
1238.377162	-3.006000	3.574800	-10.745000	25.117747	0.000889	20.760462
1239.372053	-2.999500	3.576000	-10.725000	25.102227	0.000890	20.791824
1240.373799	-3.023500	3.574400	-10.806000	25.072697	0.000889	20.774035
1241.371524	-3.010400	3.572700	-10.754000	25.059025	0.000888	20.774534
1242.371375	-3.001500	3.574300	-10.726000	25.062778	0.000888	20.771190
1243.372428	-3.020600	3.573900	-10.794000	25.076358	0.000887	20.781977
1244.374397	-3.043400	3.570900	-10.865000	25.100093	0.000886	20.774983
1245.373708	-2.996800	3.573500	-10.708000	25.150346	0.000885	20.765213
1246.373894	-2.993000	3.572600	-10.692000	25.167669	0.000884	20.773595
1247.375879	-3.000700	3.571500	-10.716000	25.211095	0.000884	20.764086
1248.373969	-2.972900	3.572100	-10.618000	25.203488	0.000883	20.769251
1249.374848	-2.989900	3.572400	-10.680000	25.189623	0.000883	20.766237
1250.373907	-3.000900	3.569900	-10.712000	25.189192	0.000882	20.774340
1251.374978	-3.001100	3.569700	-10.711000	25.211998	0.000882	20.776847
1252.375200	-3.011700	3.569900	-10.750000	25.206010	0.000882	20.764197
1253.373939	-2.984300	3.571700	-10.658000	25.167780	0.000883	20.769438
1254.375091	-2.991100	3.570300	-10.678000	25.141761	0.000883	20.764655
1255.374530	-2.997000	3.569400	-10.696000	25.133504	0.000879	20.775806
1256.374234	-2.990100	3.570300	-10.674000	25.132879	0.000879	20.779447
1257.384494	-3.016000	3.568200	-10.760000	25.166017	0.000878	20.776678
1258.373523	-2.995300	3.568300	-10.687000	25.177134	0.000879	20.780252
1259.381485	-3.001000	3.567300	-10.704000	25.233387	0.000878	20.763707
1260.375766	-3.022600	3.567300	-10.780000	25.222195	0.000877	20.778075
1261.374597	-3.011000	3.567200	-10.741000	25.226648	0.000877	20.766424
1262.374607	-2.991500	3.568500	-10.674000	25.248845	0.000876	20.767373
1263.374946	-3.000000	3.567700	-10.702000	25.279989	0.000876	20.780624
1264.375690	-3.003000	3.567700	-10.714000	25.250481	0.000877	20.770438
1265.378706	-3.006400	3.566500	-10.721000	25.280351	0.000875	20.771030
1266.376709	-2.995600	3.565500	-10.680000	25.277282	0.000874	20.766052
1267.379238	-3.037800	3.564800	-10.828000	25.256975	0.000875	20.780277
1268.376854	-3.021200	3.565400	-10.770000	25.264084	0.000873	20.747585
1269.376920	-3.002200	3.565000	-10.702000	25.237805	0.000872	20.765772
1270.378366	-3.006000	3.564900	-10.714000	25.212277	0.000871	20.769066
1271.380455	-2.982300	3.564500	-10.629000	25.171314	0.000872	20.768719
1272.378362	-3.007400	3.563100	-10.714000	25.127278	0.000868	20.767186
1273.378885	-2.991400	3.564200	-10.661000	25.116938	0.000871	20.790470
1274.379140	-3.014100	3.562600	-10.736000	25.110604	0.000870	20.783638
1275.380124	-2.986000	3.562500	-10.637000	25.093077	0.000870	20.789751
1276.384077	-2.987600	3.563900	-10.647000	25.050388	0.000869	20.790047
1277.386496	-3.007500	3.564400	-10.719000	25.073930	0.000868	20.770530
1278.384904	-3.012000	3.563100	-10.731000	25.061506	0.000867	20.774654
1279.380896	-3.006100	3.562100	-10.707000	25.086084	0.000866	20.776093
1280.382513	-3.000700	3.560500	-10.683000	25.052278	0.000868	20.782461
1281.386300	-2.998100	3.562400	-10.678000	25.073914	0.000866	20.782368
1282.388308	-2.990700	3.560500	-10.647000	25.049748	0.000868	20.772334
1283.383513	-3.001700	3.561900	-10.691000	25.036969	0.000866	20.798388
1284.383837	-2.970300	3.560600	-10.575000	25.005219	0.000865	20.802079
1285.384331	-3.007100	3.560100	-10.704000	25.017795	0.000864	20.785305
1286.386129	-2.998600	3.559900	-10.674000	25.003304	0.000865	20.765543
1287.385561	-2.984700	3.561100	-10.627000	25.016555	0.000865	20.763198
1288.386978	-2.990600	3.559800	-10.644000	25.014219	0.000865	20.807320
1289.386431	-3.031300	3.560100	-10.789000	25.003903	0.000864	20.784163
1290.386457	-2.994900	3.560000	-10.661000	25.034480	0.000864	20.788303
1291.386744	-2.990600	3.558600	-10.641000	25.052953	0.000865	20.773655
1292.389647	-2.997300	3.558900	-10.665000	25.105079	0.000863	20.769556
1293.389647	-2.999700	3.556400	-10.668000	25.126140	0.000861	20.800657
1294.392119	-2.986800	3.558100	-10.626000	25.114728	0.000861	20.800580
1295.388803	-3.001700	3.558400	-10.681000	25.119528	0.000862	20.797337
1296.390124	-3.004000	3.556600	-10.684000	25.129716	0.000862	20.775323
1297.399005	-2.982600	3.557500	-10.610000	25.151940	0.000860	20.798108
1298.394701	-2.972900	3.558400	-10.577000	25.166750	0.000859	20.792587
1299.393114	-2.990100	3.555600	-10.630000	25.189750	0.000860	20.797659
1300.392627	-3.017800	3.555400	-10.729000	25.173143	0.000858	20.788100
1301.392444	-2.999500	3.555100	-10.662000	25.166363	0.000859	20.801681
1302.393229	-2.992600	3.555400	-10.639000	25.181299	0.000857	20.819995
1303.396305	-2.993900	3.554900	-10.642000	25.193081	0.000857	20.800529
1304.392869	-3.009100	3.554200	-10.694000	25.155592	0.000856	20.797506
1305.393655	-3.004900	3.553500	-10.676000	25.159117	0.000856	20.805313
1306.393626	-2.988400	3.553700	-10.618000	25.144256	0.000856	20.799403
1307.395883	-3.001900	3.552200	-10.662000	25.177284	0.000855	20.809326
1308.397213	-3.013900	3.552400	-10.705000	25.215101	0.000854	20.796084
1309.395280	-3.002400	3.552800	-10.666000	25.244804	0.000854	20.810732
1310.394975	-3.017600	3.552000	-10.716000	25.271765	0.000854	20.798920
1311.399168	-3.002500	3.552600	-10.666000	25.281169	0.000854	20.807887
1312.398259	-2.992900	3.553700	-10.635000	25.309453	0.000853	20.797405
1313.394868	-3.001400	3.552000	-10.660000	25.330923	0.000852	20.797624
1314.397566	-3.020700	3.549600	-10.721000	25.320315	0.000851	20.814948
1315.394159	-2.999600	3.551200	-10.651000	25.324261	0.000854	20.807531
1316.395393	-3.036200	3.549500	-10.776000	25.334507	0.000852	20.807387
1317.394704	-2.994500	3.551100	-10.633000	25.328409	0.000851	20.815015
1318.400667	-3.003400	3.549500	-10.659000	25.301796	0.000850	20.803941
1319.398105	-2.997600	3.550300	-10.642000	25.279473	0.000849	20.786270
1320.397077	-2.975100	3.549900	-10.561000	25.290344	0.000849	20.824685
1321.397965	-3.018300	3.548200	-10.709000	25.311317	0.000848	20.824406
1322.397030	-3.015400	3.547700	-10.697000	25.301897	0.000848	20.819690
1323.397984	-2.989700	3.547600	-10.605000	25.320584	0.000847	20.817115
1324.399873	-2.975200	3.549100	-10.557000	25.330155	0.000846	20.808708
1325.399564	-2.976100	3.549200	-10.561000	25.363034	0.000846	20.813271
1326.399174	-3.020400	3.546200	-10.710000	25.372393	0.000846	20.820772
1327.398886	-3.004200	3.546900	-10.654000	25.369991	0.000843	20.822627
1328.399528	-2.999000	3.547000	-10.636000	25.336716	0.000844	20.812450
1329.400077	-3.020500	3.546800	-10.711000	25.322844	0.000843	20.806582
1330.401107	-2.971300	3.548700	-10.543000	25.321377	0.000844	20.816963
1331.401742	-2.969300	3.547300	-10.531000	25.357747	0.000843	20.825507
1332.402237	-2.986500	3.546300	-10.589000	25.373077	0.000843	20.809605
1333.400812	-2.982200	3.545200	-10.570000	25.378103	0.000844	20.815126
1334.400981	-2.993000	3.545400	-10.610000	25.404218	0.000842	20.802468
1335.407066	-3.011900	3.545400	-10.678000	25.394672	0.000842	20.821332
1336.400035	-2.991400	3.544800	-10.602000	25.385843	0.000841	20.808673
1337.404187	-2.988300	3.545400	-10.593000	25.354635	0.000839	20.826175
1338.400507	-3.002100	3.543700	-10.637000	25.384807	0.000840	20.817115
1339.401282	-3.008800	3.545500	-10.667000	25.404192	0.000838	20.799597
1340.402339	-3.013700	3.543900	-10.679000	25.388306	0.000839	20.823948
1341.404161	-3.001300	3.542300	-10.631000	25.412717	0.000840	20.829494
1342.402138	-2.971900	3.545100	-10.535000	25.409336	0.000838	20.814245
1343.405374	-2.995400	3.541800	-10.608000	25.398028	0.000835	20.819486
1344.403318	-2.998300	3.541100	-10.616000	25.388863	0.000837	20.822137
1345.406198	-2.997700	3.541900	-10.617000	25.410297	0.000835	20.815210
1346.404767	-2.994100	3.541300	-10.601000	25.413383	0.000835	20.809300
1347.403917	-2.984300	3.542400	-10.571000	25.394479	0.000837	20.816396
1348.406301	-3.022700	3.539800	-10.698000	25.386223	0.000834	20.833236
1349.402715	-3.022700	3.540600	-10.701000	25.378465	0.000834	20.815015
1350.404202	-3.009700	3.540800	-10.655000	25.347974	0.000834	20.805736
1351.405793	-3.001800	3.540200	-10.626000	25.338976	0.000832	20.827995
1352.404747	-3.013300	3.539900	-10.665000	25.319665	0.000832	20.821882
1353.406040	-2.992200	3.539700	-10.590000	25.313669	0.000833	20.812069
1354.405674	-3.001900	3.537300	-10.617000	25.295184	0.000831	20.845666
1355.404605	-3.002400	3.536800	-10.618000	25.276041	0.000831	20.834506
1356.407457	-2.997600	3.538500	-10.606000	25.264352	0.000831	20.855012
1357.405597	-2.998100	3.539500	-10.610000	25.279793	0.000831	20.828317
1358.405259	-3.004700	3.538800	-10.632000	25.306855	0.000829	20.846952
1359.405543	-3.014700	3.537000	-10.662000	25.357139	0.000830	20.845284
1360.414426	-2.993600	3.537100	-10.588000	25.405017	0.000828	20.833142
1361.406783	-2.990700	3.536100	-10.573000	25.370159	0.000828	20.843658
1362.407531	-2.969200	3.537600	-10.503000	25.388255	0.000827	20.839069
1363.408082	-3.001700	3.536300	-10.614000	25.393862	0.000828	20.824311
1364.409382	-2.988700	3.536700	-10.569000	25.397269	0.000827	20.834844
1365.406284	-2.997100	3.535400	-10.595000	25.393532	0.000825	20.829670
1366.407129	-2.989100	3.534500	-10.564000	25.393330	0.000825	20.834682
1367.416706	-2.999600	3.535700	-10.605000	25.370588	0.000824	20.839821
1368.408952	-3.001900	3.535500	-10.612000	25.329580	0.000825	20.854122
1369.411119	-2.997000	3.535500	-10.595000	25.313683	0.000823	20.839583
1370.408190	-3.012300	3.533600	-10.643000	25.314063	0.000824	20.842335
1371.409751	-2.980800	3.534700	-10.533000	25.365308	0.000822	20.836417
1372.409060	-2.989200	3.533100	-10.559000	25.375199	0.000821	20.843978
1373.412892	-2.979500	3.533800	-10.528000	25.355138	0.000821	20.849438
1374.409678	-2.977800	3.532400	-10.518000	25.365552	0.000822	20.841404
1375.410220	-2.993100	3.532100	-10.571000	25.369752	0.000824	20.839930
1376.409111	-2.997100	3.532300	-10.586000	25.380806	0.000820	20.833013
1377.409814	-3.003200	3.532500	-10.607000	25.406372	0.000822	20.849200
1378.412346	-2.961100	3.532300	-10.457000	25.390048	0.000819	20.845137
1379.410867	-3.014600	3.530300	-10.641000	25.366960	0.000821	20.855144
1380.417867	-2.997900	3.531000	-10.585000	25.362288	0.000818	20.856143
1381.412867	-3.003500	3.530600	-10.603000	25.380090	0.000819	20.853629
1382.412102	-2.988900	3.531000	-10.552000	25.379846	0.000818	20.862392
1383.423101	-3.016800	3.528100	-10.642000	25.427672	0.000817	20.851622
1384.411378	-2.995500	3.528300	-10.568000	25.450118	0.000817	20.872264
1385.412822	-3.009300	3.527900	-10.615000	25.431534	0.000817	20.849811
1386.412452	-2.992500	3.528600	-10.558000	25.408321	0.000816	20.854002
1387.411654	-3.003200	3.527600	-10.593000	25.402249	0.000814	20.857862
1388.411956	-2.981700	3.528700	-10.520000	25.395774	0.000815	20.875067
1389.413378	-3.013900	3.527400	-10.629000	25.389762	0.000817	20.857651
1390.413286	-2.989800	3.526700	-10.544000	25.411854	0.000814	20.853756
1391.412712	-3.021100	3.525300	-10.649000	25.431569	0.000815	20.847001
1392.413208	-2.983800	3.527900	-10.526000	25.429781	0.000814	20.848051
1393.412811	-3.005600	3.525900	-10.597000	25.462809	0.000813	20.865094
1394.417166	-2.983900	3.527100	-10.522000	25.465718	0.000814	20.875127
1395.414959	-3.000500	3.525500	-10.577000	25.446409	0.000813	20.857161
1396.415158	-3.007200	3.525500	-10.602000	25.466713	0.000813	20.853842
1397.413546	-3.001300	3.526500	-10.582000	25.464327	0.000810	20.874678
1398.413875	-2.985100	3.525400	-10.521000	25.428567	0.000813	20.860107
1399.417703	-2.991400	3.525200	-10.543000	25.452430	0.000811	20.875534
1400.416992	-3.030500	3.522800	-10.674000	25.447337	0.000810	20.866153
1401.413682	-3.019200	3.523900	-10.638000	25.429917	0.000808	20.861937
1402.415088	-2.997100	3.523800	-10.560000	25.435238	0.000809	20.871072
1403.414238	-3.007300	3.524500	-10.597000	25.430802	0.000809	20.868040
1404.415453	-3.003800	3.524000	-10.585000	25.424976	0.000807	20.884001
1405.426308	-2.985700	3.523500	-10.518000	25.445221	0.000806	20.878251
1406.418274	-2.981900	3.524200	-10.508000	25.443956	0.000806	20.878878
1407.422999	-3.013000	3.524200	-10.617000	25.453602	0.000807	20.863435
1408.421386	-2.997800	3.521800	-10.556000	25.456141	0.000807	20.873570
1409.419727	-2.992200	3.521100	-10.535000	25.433029	0.000806	20.875018
1410.420514	-3.010300	3.520300	-10.595000	25.435136	0.000805	20.874763
1411.422133	-2.993600	3.520300	-10.538000	25.446916	0.000803	20.860514
1412.421698	-2.979100	3.521500	-10.490000	25.470069	0.000803	20.874280
1413.421793	-3.001900	3.520000	-10.565000	25.483366	0.000804	20.889054
1414.423059	-2.989300	3.519800	-10.520000	25.547848	0.000802	20.891221
1415.421483	-3.001800	3.519300	-10.562000	25.513711	0.000801	20.895345
1416.425824	-3.008900	3.519800	-10.590000	25.486519	0.000801	20.907392
1417.421802	-2.976400	3.520100	-10.475000	25.475710	0.000801	20.900331
1418.422131	-2.997800	3.518000	-10.545000	25.484174	0.000800	20.887970
1419.421961	-3.012600	3.518100	-10.597000	25.510244	0.000800	20.897080
1420.422121	-3.010400	3.518500	-10.590000	25.538608	0.000799	20.889054
1421.425003	-3.003400	3.518400	-10.566000	25.547604	0.000799	20.885761
1422.424336	-3.011400	3.516500	-10.589000	25.582482	0.000799	20.876692
1423.427267	-3.002100	3.515700	-10.553000	25.574734	0.000798	20.887403
1424.425150	-3.016300	3.517000	-10.606000	25.583594	0.000797	20.893456
1425.424576	-3.010900	3.515200	-10.584000	25.585879	0.000798	20.890060
1426.428133	-2.991200	3.517000	-10.519000	25.562450	0.000797	20.896876
1427.429205	-3.011700	3.514600	-10.583000	25.575197	0.000795	20.905410
1428.426435	-3.002400	3.515500	-10.553000	25.611551	0.000796	20.909677
1429.427665	-2.984600	3.515100	-10.490000	25.580736	0.000796	20.916661
1430.426731	-3.005300	3.514000	-10.559000	25.620815	0.000796	20.902387
1431.426696	-3.026600	3.514300	-10.635000	25.621288	0.000795	20.897646
1432.429245	-3.021400	3.512700	-10.612000	25.614964	0.000794	20.896037
1433.428177	-3.011500	3.513100	-10.578000	25.606399	0.000794	20.895021
1434.439309	-2.991400	3.512800	-10.507000	25.616389	0.000795	20.899365
1435.427273	-3.001200	3.511500	-10.535000	25.594824	0.000794	20.896673
1436.439475	-3.000100	3.511000	-10.532000	25.564152	0.000794	20.911860
1437.431807	-2.980700	3.512500	-10.468000	25.514653	0.000791	20.900084
1438.431061	-2.994500	3.511400	-10.514000	25.475885	0.000791	20.909041
1439.427031	-2.991300	3.513800	-10.510000	25.482740	0.000790	20.914027
1440.430559	-2.985100	3.512200	-10.484000	25.519517	0.000790	20.911132
1441.429652	-3.014900	3.510500	-10.583000	25.533758	0.000791	20.893192
1442.427897	-2.990100	3.510100	-10.495000	25.553933	0.000791	20.925778
1443.432455	-3.011400	3.510100	-10.569000	25.548655	0.000789	20.918107
1444.428546	-2.986500	3.510100	-10.481000	25.520478	0.000788	20.914467
1445.429134	-3.008500	3.509100	-10.556000	25.508319	0.000788	20.930705
1446.429066	-2.996900	3.509400	-10.515000	25.493936	0.000788	20.925270
1447.429173	-3.002100	3.509800	-10.534000	25.466955	0.000789	20.911928
1448.430707	-2.996200	3.507900	-10.510000	25.447106	0.000786	20.895790
1449.429095	-2.994500	3.508100	-10.504000	25.449644	0.000788	20.905450
1450.431231	-3.011900	3.506900	-10.561000	25.457747	0.000786	20.914060
1451.434377	-3.017300	3.508000	-10.583000	25.477122	0.000785	20.932092
1452.432620	-3.009500	3.506800	-10.552000	25.490537	0.000783	20.922805
1453.433420	-2.983300	3.508700	-10.467000	25.487333	0.000784	20.910106
1454.432717	-3.008800	3.505200	-10.546000	25.507475	0.000783	20.911840
1455.432691	-3.004600	3.507000	-10.536000	25.508689	0.000785	20.908792
1456.432920	-3.005900	3.505000	-10.534000	25.491117	0.000783	20.939033
1457.435145	-2.993500	3.506200	-10.495000	25.510577	0.000779	20.917326
1458.434804	-3.018800	3.504200	-10.576000	25.504236	0.000781	20.935139
1459.437092	-3.000100	3.504200	-10.512000	25.533561	0.000782	20.942301
1460.434285	-2.983600	3.503300	-10.451000	25.546249	0.000781	20.910002
1461.433947	-2.987400	3.504500	-10.469000	25.522717	0.000779	20.905811
1462.437618	-2.986300	3.502200	-10.457000	25.521789	0.000778	20.903931
1463.436862	-3.000800	3.503400	-10.512000	25.487895	0.000780	20.939591
1464.440038	-2.989200	3.503900	-10.473000	25.504497	0.000779	20.925918
1465.436603	-3.007700	3.503500	-10.536000	25.516250	0.000779	20.945305
1466.439152	-2.995700	3.501800	-10.489000	25.529243	0.000778	20.930854
1467.439157	-2.995200	3.500900	-10.485000	25.571178	0.000779	20.924605
1468.437447	-2.988900	3.500100	-10.460000	25.602566	0.000777	20.925782
1469.439510	-2.988500	3.500500	-10.461000	25.585645	0.000776	20.918273
1470.442551	-2.997700	3.502100	-10.496000	25.583571	0.000776	20.938946
1471.438164	-2.984000	3.501600	-10.448000	25.581480	0.000775	20.922623
1472.439788	-2.972000	3.501100	-10.403000	25.568976	0.000776	20.930454
1473.440332	-3.011500	3.499800	-10.539000	25.567459	0.000774	20.943627
1474.440178	-2.999600	3.499200	-10.495000	25.581404	0.000774	20.946252
1475.444132	-2.986900	3.498900	-10.450000	25.594193	0.000773	20.930174
1476.441791	-3.011300	3.499500	-10.538000	25.587836	0.000771	20.938014
1477.446258	-3.003200	3.499300	-10.507000	25.565038	0.000771	20.941671
1478.440507	-2.999500	3.498500	-10.493000	25.581512	0.000772	20.933560
1479.441597	-3.013100	3.497800	-10.538000	25.595600	0.000772	20.929217
1480.442389	-3.015200	3.496900	-10.543000	25.594495	0.000772	20.922418
1481.442658	-2.995500	3.497400	-10.475000	25.605109	0.000771	20.928810
1482.441906	-3.024300	3.497700	-10.575000	25.598617	0.000769	20.933195
1483.442049	-2.997600	3.495900	-10.478000	25.573468	0.000771	20.914578
1484.443357	-2.999400	3.495600	-10.484000	25.551253	0.000771	20.933043
1485.445093	-2.991900	3.495700	-10.458000	25.543597	0.000770	20.916347
1486.447001	-2.996900	3.496100	-10.476000	25.543648	0.000768	20.925406
1487.446165	-2.995300	3.496500	-10.472000	25.519509	0.000766	20.920131
1488.446575	-3.012300	3.493400	-10.521000	25.489240	0.000768	20.918658
1489.447255	-2.997900	3.494400	-10.474000	25.507300	0.000766	20.918776
1490.448305	-2.992400	3.494300	-10.455000	25.520393	0.000767	20.906322
1491.453084	-2.981100	3.494500	-10.416000	25.547904	0.000767	20.891752
1492.448131	-2.972200	3.493300	-10.382000	25.567161	0.000768	20.895443
1493.447299	-2.979800	3.492300	-10.406000	25.577522	0.000765	20.906322
1494.448976	-3.011000	3.491600	-10.512000	25.574537	0.000764	20.903325
1495.449408	-2.997300	3.492300	-10.466000	25.558856	0.000765	20.908913
1496.448555	-2.992000	3.491800	-10.446000	25.563517	0.000763	20.905534
1497.451631	-3.010400	3.492000	-10.511000	25.591053	0.000764	20.921806
1498.450409	-2.986300	3.492200	-10.428000	25.600410	0.000763	20.896119
1499.449435	-2.998700	3.490000	-10.464000	25.597409	0.000762	20.900217
1500.450333	-3.019800	3.488700	-10.533000	25.602729	0.000763	20.897974
1501.448948	-2.996900	3.490300	-10.460000	25.583582	0.000762	20.902926
1502.456259	-3.014300	3.488200	-10.514000	25.524295	0.000761	20.889854
1503.451576	-2.989600	3.489800	-10.431000	25.502922	0.000761	20.888778
1504.468741	-2.994000	3.489300	-10.445000	25.512694	0.000762	20.887212
1505.451879	-2.979400	3.490000	-10.396000	25.523992	0.000759	20.887652
1506.453294	-2.980200	3.490200	-10.400000	25.548737	0.000761	20.895432
1507.454901	-2.990400	3.489400	-10.433000	25.564073	0.000760	20.894239
1508.453333	-2.975800	3.488000	-10.379000	25.544817	0.000757	20.912831
1509.453701	-3.005200	3.487900	-10.481000	25.534826	0.000757	20.864395
1510.453651	-3.004400	3.486600	-10.473000	25.544285	0.000758	20.888591
1511.453417	-3.001500	3.486900	-10.465000	25.531065	0.000756	20.894281
1512.452175	-2.997500	3.486700	-10.449000	25.552850	0.000754	20.880599
1513.453478	-3.005600	3.485800	-10.476000	25.554022	0.000754	20.891732
1514.454880	-2.995000	3.486300	-10.439000	25.613316	0.000755	20.879685
1515.453165	-2.998300	3.485100	-10.446000	25.600662	0.000752	20.862709
1516.453880	-3.012100	3.485300	-10.496000	25.650983	0.000753	20.871049
1517.455072	-2.987400	3.483800	-10.407000	25.628862	0.000754	20.891977
1518.462013	-3.027900	3.483400	-10.546000	25.634089	0.000754	20.891538
1519.454547	-3.005000	3.484000	-10.467000	25.628491	0.000753	20.867899
1520.457770	-2.997200	3.483000	-10.439000	25.570808	0.000752	20.872555
1521.457155	-2.993800	3.481600	-10.423000	25.539520	0.000751	20.869109
1522.457364	-2.990300	3.483700	-10.416000	25.542606	0.000752	20.884535
1523.457314	-2.989500	3.481500	-10.407000	25.538011	0.000751	20.876128
1524.459386	-2.974900	3.481900	-10.358000	25.559223	0.000750	20.862818
1525.458139	-3.000500	3.481200	-10.444000	25.587374	0.000752	20.864063
1526.459317	-3.003400	3.480900	-10.454000	25.564645	0.000751	20.851668
1527.457571	-3.024600	3.480300	-10.525000	25.602288	0.000749	20.859127
1528.458541	-3.011600	3.481000	-10.480000	25.588419	0.000750	20.855630
1529.462401	-2.994200	3.480800	-10.422000	25.596724	0.000749	20.862548
1530.460382	-3.000200	3.480700	-10.442000	25.622361	0.000748	20.890190
1531.463937	-3.001000	3.479200	-10.439000	25.634164	0.000748	20.866484
1532.460595	-2.999900	3.479300	-10.437000	25.622529	0.000748	20.857171
1533.461975	-3.002500	3.479300	-10.444000	25.585080	0.000746	20.870768
1534.467193	-3.022800	3.477500	-10.511000	25.590029	0.000746	20.845868
1535.462846	-2.975800	3.479000	-10.351000	25.604859	0.000745	20.854122
1536.462282	-2.977600	3.478500	-10.356000	25.627428	0.000745	20.879158
1537.463072	-2.985400	3.479000	-10.385000	25.646227	0.000746	20.871013
1538.462970	-2.991600	3.478200	-10.404000	25.613458	0.000745	20.852802
1539.463006	-3.004800	3.475800	-10.443000	25.598358	0.000744	20.849964
1540.464946	-3.010400	3.475000	-10.460000	25.595905	0.000745	20.852242
1541.462813	-3.002500	3.474300	-10.429000	25.581522	0.000746	20.871936
1542.462499	-2.981600	3.475700	-10.362000	25.580670	0.000745	20.866339
1543.462878	-3.006600	3.474800	-10.445000	25.584675	0.000744	20.862775
1544.463945	-3.008100	3.474600	-10.451000	25.575519	0.000744	20.861166
1545.465908	-2.997400	3.473900	-10.411000	25.547739	0.000742	20.858871
1546.464995	-2.978500	3.475000	-10.349000	25.540362	0.000742	20.864739
1547.468247	-3.003700	3.474000	-10.433000	25.531509	0.000742	20.876236
1548.464511	-3.023900	3.472600	-10.500000	25.515034	0.000741	20.850684
1549.466375	-2.982700	3.475300	-10.365000	25.472286	0.000740	20.860860
1550.468707	-3.027700	3.471400	-10.509000	25.464554	0.000739	20.856889
1551.468881	-2.993500	3.472600	-10.394000	25.445768	0.000739	20.839922
1552.467148	-2.997100	3.472500	-10.406000	25.459107	0.000740	20.843834
1553.467414	-2.982400	3.471600	-10.353000	25.466291	0.000742	20.845832
1554.468598	-3.003300	3.471600	-10.425000	25.453660	0.000741	20.843579
1555.468763	-2.991300	3.472600	-10.386000	25.442159	0.000739	20.845307
1556.469870	-3.007800	3.471700	-10.441000	25.452091	0.000738	20.851013
1557.469755	-3.020400	3.469700	-10.479000	25.467648	0.000738	20.854781
1558.473373	-3.002000	3.470300	-10.417000	25.468238	0.000737	20.843045
1559.468116	-3.002700	3.470900	-10.420000	25.490674	0.000737	20.863204
1560.469866	-2.996000	3.468600	-10.391000	25.547636	0.000736	20.868725
1561.471272	-3.013000	3.468800	-10.450000	25.542063	0.000737	20.843689
1562.469981	-3.018100	3.467100	-10.463000	25.492014	0.000736	20.823775
1563.471388	-3.009400	3.469300	-10.439000	25.468305	0.000734	20.841216
1564.470530	-3.001300	3.467500	-10.406000	25.449856	0.000735	20.834544
1565.471111	-2.984000	3.468200	-10.349000	25.467310	0.000732	20.830260
1566.470877	-3.013300	3.466200	-10.443000	25.482714	0.000734	20.836246
1567.473726	-2.999600	3.467600	-10.400000	25.473068	0.000734	20.820870
1568.471462	-3.016300	3.464800	-10.448000	25.517283	0.000735	20.833029
1569.471696	-2.996200	3.464400	-10.379000	25.538647	0.000734	20.821293
1570.471157	-2.977500	3.466300	-10.320000	25.555603	0.000732	20.863924
1571.471643	-3.019500	3.465500	-10.462000	25.591695	0.000731	20.843747
1572.472971	-3.013500	3.463700	-10.437000	25.604527	0.000731	20.826289
1573.473684	-3.005600	3.466600	-10.418000	25.640819	0.000730	20.835238
1574.474322	-2.997700	3.464500	-10.385000	25.659804	0.000732	20.831072
1575.472972	-3.012000	3.464800	-10.434000	25.644073	0.000731	20.829023
1576.472662	-3.013200	3.463500	-10.435000	25.660470	0.000730	20.819887
1577.476174	-2.985300	3.463700	-10.338000	25.659830	0.000727	20.838684
1578.475211	-2.970400	3.464000	-10.288000	25.676378	0.000729	20.842503
1579.474025	-2.976800	3.463400	-10.309000	25.628722	0.000729	20.847269
1580.473286	-2.998700	3.461800	-10.380000	25.647327	0.000726	20.857895
1581.474574	-3.000400	3.462000	-10.386000	25.638576	0.000726	20.834408
1582.475513	-3.006800	3.460400	-10.403000	25.670165	0.000726	20.837685
1583.479258	-2.997900	3.461700	-10.377000	25.642606	0.000724	20.813800
1584.476787	-3.022900	3.458000	-10.452000	25.641662	0.000725	20.835610
1585.483940	-3.003600	3.460200	-10.392000	25.596837	0.000726	20.827101
1586.476633	-2.996200	3.458800	-10.362000	25.576932	0.000724	20.837456
1587.476882	-2.982400	3.459400	-10.317000	25.552162	0.000723	20.849564
1588.478691	-2.998000	3.459800	-10.372000	25.547238	0.000724	20.818541
1589.477002	-3.000100	3.458700	-10.376000	25.539094	0.000722	20.834070
1590.478830	-2.993400	3.458400	-10.351000	25.531860	0.000724	20.832021
1591.476591	-2.992300	3.457900	-10.346000	25.542095	0.000719	20.812902
1592.477569	-3.000800	3.457100	-10.372000	25.581324	0.000722	20.824324
1593.477831	-2.983600	3.457900	-10.316000	25.599366	0.000720	20.820632
1594.478601	-2.999500	3.457900	-10.371000	25.631621	0.000720	20.838328
1595.476921	-3.002500	3.457200	-10.379000	25.604619	0.000720	20.824011
1596.477638	-3.008200	3.457000	-10.398000	25.610335	0.000721	20.819321
1597.478437	-2.979400	3.455200	-10.293000	25.636368	0.000721	20.830293
1598.477269	-2.994900	3.454900	-10.346000	25.650236	0.000720	20.803919
1599.483040	-2.968400	3.456500	-10.260000	25.609062	0.000718	20.823257
1600.478385	-3.002700	3.454400	-10.372000	25.618428	0.000716	20.835983
1601.478934	-3.003600	3.454400	-10.375000	25.610107	0.000717	20.831419
1602.479269	-2.989700	3.453500	-10.324000	25.646206	0.000717	20.826424
1603.478299	-3.007900	3.453400	-10.386000	25.619794	0.000717	20.818863
1604.480046	-3.016500	3.453600	-10.416000	25.641089	0.000715	20.832664
1605.479243	-3.017800	3.452900	-10.419000	25.674810	0.000718	20.827178
1606.479146	-3.020600	3.451000	-10.423000	25.646872	0.000714	20.831834
1607.478298	-3.023300	3.451400	-10.433000	25.710619	0.000715	20.853660
1608.479128	-2.999700	3.451700	-10.353000	25.710248	0.000715	20.815831
1609.479808	-2.959000	3.453400	-10.218000	25.727217	0.000714	20.827185
1610.479030	-2.982100	3.451900	-10.293000	25.726324	0.000715	20.831503
1611.478868	-2.991400	3.452500	-10.326000	25.689502	0.000714	20.812538
1612.479265	-2.985100	3.451000	-10.301000	25.658859	0.000712	20.824907
1613.478739	-3.000900	3.451000	-10.354000	25.643077	0.000714	20.816169
1614.478803	-2.977900	3.449800	-10.272000	25.635979	0.000713	20.829429
1615.484178	-3.008200	3.449500	-10.375000	25.624345	0.000712	20.827701
1616.478473	-3.004700	3.448100	-10.358000	25.602409	0.000711	20.812783
1617.483499	-2.997200	3.449000	-10.336000	25.616639	0.000711	20.824230
1618.480483	-3.025800	3.447400	-10.430000	25.613486	0.000711	20.834813
1619.479598	-3.002900	3.448900	-10.355000	25.620441	0.000711	20.810505
1620.481135	-2.981500	3.448700	-10.281000	25.629403	0.000710	20.836100
1621.485041	-2.999000	3.447500	-10.338000	25.644021	0.000708	20.801471
1622.480782	-3.009500	3.446300	-10.370000	25.651305	0.000710	20.836287
1623.479328	-3.004400	3.447800	-10.357000	25.637884	0.000707	20.826126
1624.482029	-3.019000	3.446000	-10.402000	25.620736	0.000707	20.828344
1625.481173	-3.008400	3.445500	-10.365000	25.598193	0.000707	20.801436
1626.486447	-2.987500	3.445400	-10.291000	25.603319	0.000707	20.804214
1627.481951	-3.010100	3.445700	-10.371000	25.602476	0.000704	20.798626
1628.487680	-3.007300	3.443900	-10.356000	25.599609	0.000706	20.806652
1629.483208	-2.990400	3.444600	-10.300000	25.617870	0.000706	20.813137
1630.482402	-2.990600	3.443600	-10.297000	25.654804	0.000704	20.813722
1631.484076	-2.996000	3.443900	-10.317000	25.704734	0.000703	20.800810
1632.483938	-3.010800	3.442800	-10.364000	25.705805	0.000707	20.800937
1633.483937	-3.003900	3.442500	-10.340000	25.675288	0.000703	20.810115
1634.483514	-2.991200	3.443100	-10.298000	25.624926	0.000703	20.814534
1635.482884	-3.006000	3.441100	-10.342000	25.619488	0.000703	20.805280
1636.484675	-3.017400	3.442200	-10.385000	25.608427	0.000702	20.819301
1637.485939	-2.984400	3.441400	-10.270000	25.597417	0.000700	20.811088
1638.484156	-2.985300	3.440700	-10.270000	25.607315	0.000700	20.794951
1639.483410	-2.991000	3.441600	-10.292000	25.652865	0.000703	20.800869
1640.485178	-2.986500	3.441500	-10.277000	25.667069	0.000700	20.804704
1641.486484	-3.003000	3.440700	-10.331000	25.710694	0.000698	20.803476
1642.488226	-2.996800	3.440100	-10.308000	25.698876	0.000698	20.806305
1643.485200	-3.020800	3.438700	-10.387000	25.693395	0.000698	20.805068
1644.488179	-2.981800	3.438700	-10.252000	25.651423	0.000698	20.795154
1645.484953	-3.001800	3.440100	-10.325000	25.675525	0.000696	20.828370
1646.484379	-3.003100	3.440400	-10.331000	25.675937	0.000698	20.796068
1647.489951	-2.987700	3.439200	-10.274000	25.675313	0.000700	20.796864
1648.488880	-2.996600	3.438900	-10.305000	25.653353	0.000698	20.797567
1649.486877	-2.992800	3.438400	-10.289000	25.638170	0.000697	20.788007
1650.488004	-3.027000	3.436500	-10.402000	25.633205	0.000697	20.801513
1651.486307	-3.011100	3.436400	-10.347000	25.587258	0.000695	20.804679
1652.488716	-3.025500	3.434600	-10.390000	25.625246	0.000694	20.793045
1653.491178	-2.997600	3.436200	-10.299000	25.618266	0.000694	20.808320
1654.488047	-3.007700	3.436100	-10.334000	25.619109	0.000695	20.783562
1655.490481	-2.989300	3.435500	-10.268000	25.611352	0.000694	20.768185
1656.488380	-3.000700	3.434000	-10.303000	25.629352	0.000694	20.774883
1657.487721	-2.995800	3.433700	-10.286000	25.622742	0.000692	20.785315
1658.488942	-3.002800	3.432900	-10.306000	25.622363	0.000691	20.794891
1659.488842	-2.999500	3.433600	-10.298000	25.611589	0.000693	20.797821
1660.487561	-2.994400	3.432200	-10.276000	25.569191	0.000692	20.798862
1661.487743	-3.019400	3.434000	-10.367000	25.553138	0.000692	20.796965
1662.491430	-3.020500	3.431800	-10.365000	25.525307	0.000691	20.780395
1663.491963	-2.974200	3.434600	-10.214000	25.466068	0.000693	20.781598
1664.491057	-3.012000	3.432000	-10.336000	25.484625	0.000689	20.780793
1665.495245	-3.007200	3.431000	-10.317000	25.452181	0.000689	20.796577
1666.488378	-3.011400	3.431900	-10.334000	25.445216	0.000689	20.791005
1667.489475	-3.001400	3.430100	-10.294000	25.477948	0.000688	20.792580
1668.490264	-2.982000	3.432000	-10.234000	25.493571	0.000688	20.773655
1669.492174	-2.994500	3.431300	-10.274000	25.512955	0.000687	20.789328
1670.488977	-2.983600	3.430500	-10.234000	25.535947	0.000688	20.788710
1671.490298	-3.001800	3.428500	-10.291000	25.584080	0.000688	20.782047
1672.490118	-3.018700	3.429200	-10.351000	25.578515	0.000688	20.784993
1673.489159	-2.996200	3.428400	-10.271000	25.632977	0.000686	20.779947
1674.494322	-3.000400	3.428000	-10.285000	25.640093	0.000686	20.780929
1675.490580	-3.007500	3.427400	-10.308000	25.646196	0.000684	20.771412
1676.494662	-3.008000	3.428600	-10.312000	25.638962	0.000688	20.760353
1677.490416	-3.005500	3.427500	-10.300000	25.610223	0.000685	20.798820
1678.490106	-3.000700	3.429100	-10.289000	25.639805	0.000684	20.794865
1679.492196	-3.014500	3.426100	-10.327000	25.649576	0.000683	20.772911
1680.491800	-2.984000	3.427300	-10.226000	25.646002	0.000684	20.780226
1681.492213	-3.000800	3.425900	-10.279000	25.684561	0.000683	20.781496
1682.493274	-3.031900	3.424600	-10.381000	25.689805	0.000681	20.777754
1683.493222	-3.005200	3.424300	-10.289000	25.642327	0.000681	20.770371
1684.493279	-3.002500	3.425300	-10.284000	25.648683	0.000681	20.791928
1685.494412	-3.013700	3.423600	-10.317000	25.635186	0.000680	20.768888
1686.493358	-3.002700	3.424500	-10.282000	25.647393	0.000680	20.783520
1687.492733	-2.989900	3.425100	-10.240000	25.662339	0.000680	20.765815
1688.494061	-3.003900	3.423700	-10.284000	25.676831	0.000679	20.778948
1689.494150	-2.992900	3.423300	-10.245000	25.681307	0.000680	20.776331
1690.496562	-3.008300	3.422500	-10.294000	25.650529	0.000678	20.784299
1691.493932	-2.999900	3.423700	-10.269000	25.606244	0.000677	20.771116
1692.497515	-2.988800	3.422900	-10.229000	25.642453	0.000679	20.784723
1693.496334	-2.999100	3.422000	-10.262000	25.653016	0.000679	20.780633
1694.497053	-3.008900	3.422500	-10.297000	25.697459	0.000677	20.776907
1695.497194	-3.022400	3.420600	-10.337000	25.711200	0.000677	20.762733
1696.500041	-2.995600	3.421400	-10.248000	25.727824	0.000675	20.776586
1697.498533	-2.994800	3.421700	-10.246000	25.730032	0.000674	20.760786
1698.496878	-2.983600	3.421600	-10.208000	25.702813	0.000676	20.786552
1699.497651	-2.978500	3.419500	-10.184000	25.703529	0.000674	20.771624
1700.499158	-2.971300	3.419700	-10.160000	25.675677	0.000675	20.783478
1701.500756	-3.008600	3.419000	-10.285000	25.675997	0.000673	20.793283
1702.498168	-2.989100	3.418300	-10.216000	25.650529	0.000675	20.772919
1703.499397	-3.008300	3.418200	-10.283000	25.677540	0.000675	20.777289
1704.498034	-3.007700	3.417800	-10.278000	25.676554	0.000674	20.775824
1705.498346	-2.986200	3.417400	-10.203000	25.671234	0.000672	20.783284
1706.498323	-3.008700	3.418000	-10.283000	25.633796	0.000671	20.761329
1707.497720	-3.002500	3.417200	-10.259000	25.639005	0.000673	20.782208
1708.498406	-3.007500	3.417100	-10.276000	25.650285	0.000672	20.775045
1709.496354	-2.998700	3.418000	-10.246000	25.694290	0.000670	20.783207
1710.499021	-3.000300	3.417700	-10.252000	25.681047	0.000671	20.769905
1711.498456	-3.011200	3.415300	-10.282000	25.708950	0.000670	20.777543
1712.499919	-3.023600	3.415200	-10.325000	25.708975	0.000669	20.766188
1713.497132	-3.002200	3.415600	-10.253000	25.702164	0.000670	20.785900
1714.498292	-3.004000	3.416200	-10.261000	25.747507	0.000668	20.775494
1715.498484	-3.027900	3.413700	-10.335000	25.717295	0.000668	20.774071
1716.497543	-3.008700	3.413900	-10.271000	25.686062	0.000667	20.770202
1717.500318	-3.017900	3.414400	-10.303000	25.692098	0.000668	20.776738
1718.504068	-2.988100	3.414200	-10.201000	25.715163	0.000666	20.782835
1719.500136	-2.984800	3.414600	-10.191000	25.739811	0.000666	20.766341
1720.499340	-2.989000	3.413700	-10.201000	25.770730	0.000667	20.748085
1721.501310	-3.007600	3.411900	-10.260000	25.798833	0.000665	20.774418
1722.504815	-2.993800	3.411800	-10.214000	25.800148	0.000665	20.771946
1723.503794	-3.005300	3.411200	-10.250000	25.827281	0.000664	20.778339
1724.503461	-3.008900	3.410900	-10.262000	25.821338	0.000665	20.785171
1725.503330	-2.970300	3.412300	-10.135000	25.826413	0.000664	20.775570
1726.504858	-2.996700	3.411200	-10.221000	25.816947	0.000663	20.768906
1727.504536	-2.977400	3.412300	-10.159000	25.834083	0.000663	20.759092
1728.505810	-3.018400	3.410600	-10.294000	25.813019	0.000662	20.770176
1729.504170	-3.014400	3.410200	-10.279000	25.827163	0.000660	20.775850
1730.505031	-3.015800	3.408700	-10.279000	25.830762	0.000662	20.783258
1731.505244	-3.001500	3.408600	-10.229000	25.841618	0.000661	20.795112
1732.508218	-2.994100	3.408900	-10.206000	25.878974	0.000661	20.781429
1733.511181	-3.001600	3.410200	-10.235000	25.858754	0.000660	20.778660
1734.506958	-2.990500	3.407700	-10.190000	25.867098	0.000659	20.787043
1735.511363	-3.000100	3.407300	-10.222000	25.862951	0.000661	20.801843
1736.507835	-2.993500	3.407700	-10.200000	25.817907	0.000657	20.765604
1737.507178	-2.989500	3.408000	-10.187000	25.831352	0.000659	20.780531
1738.507588	-2.978800	3.407400	-10.149000	25.828469	0.000658	20.791386
1739.510973	-2.996100	3.406500	-10.205000	25.871666	0.000657	20.805382
1740.508275	-3.012900	3.405600	-10.259000	25.828738	0.000658	20.776010
1741.510181	-3.003600	3.405600	-10.228000	25.812934	0.000655	20.789532
1742.510509	-3.000700	3.406300	-10.221000	25.783820	0.000654	20.780675
1743.508865	-3.012100	3.404200	-10.253000	25.775745	0.000655	20.800065
1744.515142	-3.013700	3.404000	-10.258000	25.774539	0.000657	20.776568
1745.508268	-3.008100	3.405500	-10.243000	25.762696	0.000654	20.802130
1746.512959	-3.001600	3.403100	-10.214000	25.743754	0.000654	20.775518
1747.509774	-2.990500	3.403900	-10.179000	25.729685	0.000653	20.782723
1748.511492	-3.005600	3.404200	-10.231000	25.713796	0.000653	20.794264
1749.513548	-3.007000	3.402800	-10.231000	25.698706	0.000652	20.787168
1750.511454	-3.009800	3.402500	-10.240000	25.715304	0.000653	20.800995
1751.513850	-2.998900	3.404300	-10.208000	25.699026	0.000652	20.798396
1752.512995	-3.011000	3.401500	-10.241000	25.717336	0.000651	20.787862
1753.512607	-2.992900	3.401800	-10.181000	25.682200	0.000650	20.799513
1754.515812	-2.989000	3.403100	-10.171000	25.644129	0.000651	20.801579
1755.513117	-3.021700	3.400500	-10.274000	25.626602	0.000650	20.779233
1756.515034	-2.976000	3.402200	-10.123000	25.602238	0.000649	20.803602
1757.513716	-3.005400	3.399900	-10.217000	25.661343	0.000649	20.788048
1758.512358	-3.013400	3.400100	-10.245000	25.700197	0.000650	20.795304
1759.513714	-3.000900	3.399900	-10.201000	25.703805	0.000649	20.793712
1760.516242	-3.009500	3.399000	-10.229000	25.723353	0.000647	20.798174
1761.513917	-2.989500	3.399700	-10.162000	25.714907	0.000648	20.787320
1762.513771	-2.974300	3.401300	-10.114000	25.674679	0.000647	20.791485
1763.514603	-2.990700	3.399200	-10.165000	25.664883	0.000647	20.796819
1764.513248	-2.995000	3.399300	-10.180000	25.684458	0.000646	20.785659
1765.518148	-3.013300	3.398600	-10.239000	25.702801	0.000646	20.796972
1766.515774	-2.989600	3.397600	-10.156000	25.690122	0.000646	20.794668
1767.518529	-2.995800	3.397800	-10.178000	25.695965	0.000645	20.804804
1768.517094	-2.989900	3.398000	-10.159000	25.664773	0.000644	20.816623
1769.516154	-3.004400	3.395300	-10.200000	25.657363	0.000644	20.792111
1770.517874	-3.014400	3.396000	-10.236000	25.662092	0.000642	20.821043
1771.517074	-2.986000	3.395900	-10.139000	25.708575	0.000643	20.807038
1772.517339	-2.969300	3.396200	-10.084000	25.687728	0.000644	20.808859
1773.516740	-3.009000	3.394100	-10.212000	25.734783	0.000643	20.795430
1774.517173	-2.993200	3.395600	-10.162000	25.732094	0.000644	20.811695
1775.517461	-3.005700	3.394600	-10.202000	25.767716	0.000642	20.800535
1776.519639	-3.016500	3.393600	-10.236000	25.764935	0.000642	20.806276
1777.517696	-2.999500	3.394300	-10.180000	25.764850	0.000641	20.807139
1778.519175	-2.993700	3.393300	-10.157000	25.776137	0.000641	20.802355
1779.518423	-2.994700	3.393700	-10.162000	25.785578	0.000640	20.790501
1780.518422	-3.010100	3.392900	-10.213000	25.792304	0.000640	20.804370
1781.521444	-2.987100	3.393700	-10.136000	25.767303	0.000639	20.814344
1782.524265	-3.019200	3.391900	-10.240000	25.793914	0.000638	20.808832
1783.520838	-3.013400	3.390100	-10.214000	25.814430	0.000639	20.794353
1784.518527	-3.007300	3.391800	-10.199000	25.837137	0.000635	20.794404
1785.519419	-3.013100	3.391400	-10.218000	25.832678	0.000637	20.806994
1786.521390	-3.018400	3.388400	-10.226000	25.818973	0.000636	20.795124
1787.522278	-2.995700	3.390500	-10.155000	25.811395	0.000636	20.811219
1788.519382	-2.981500	3.391100	-10.110000	25.822471	0.000635	20.802905
1789.519905	-3.021300	3.389200	-10.239000	25.799485	0.000634	20.819643
1790.519894	-2.986100	3.389900	-10.121000	25.798313	0.000634	20.811354
1791.521446	-3.004900	3.389800	-10.184000	25.757347	0.000632	20.819516
1792.524572	-3.021500	3.388500	-10.238000	25.787254	0.000633	20.809728
1793.530397	-2.973800	3.388900	-10.077000	25.776413	0.000634	20.808797
1794.525843	-2.980100	3.390200	-10.100000	25.772662	0.000632	20.802658
1795.521593	-3.007100	3.386400	-10.182000	25.792387	0.000630	20.807772
1796.521941	-3.010200	3.387400	-10.196000	25.738843	0.000631	20.820845
1797.523745	-2.976700	3.387700	-10.083000	25.771431	0.000630	20.815172
1798.522602	-2.999000	3.386500	-10.154000	25.791551	0.000632	20.823054
1799.521603	-3.024200	3.386600	-10.241000	25.793734	0.000630	20.820031
1800.521490	-2.997700	3.387300	-10.153000	25.824660	0.000631	20.825492
1801.521784	-2.993300	3.385800	-10.133000	25.801177	0.000631	20.818973
1802.522819	-3.039300	3.384400	-10.284000	25.830594	0.000630	20.798263
1803.525944	-3.031200	3.385500	-10.261000	25.818557	0.000629	20.827422
1804.522526	-3.011300	3.385800	-10.194000	25.862210	0.000630	20.822435
1805.523110	-3.009700	3.385900	-10.190000	25.885177	0.000625	20.829386
1806.524459	-3.000600	3.385600	-10.158000	25.848235	0.000628	20.814086
1807.524570	-2.985400	3.385000	-10.105000	25.834816	0.000626	20.837116
1808.528645	-2.975200	3.384800	-10.069000	25.841297	0.000627	20.831299
1809.525736	-3.002600	3.384500	-10.161000	25.857717	0.000626	20.831672
1810.528122	-2.984500	3.384300	-10.099000	25.806857	0.000624	20.822781
1811.527707	-2.998500	3.383000	-10.143000	25.810566	0.000624	20.835516
1812.525621	-3.005900	3.382500	-10.166000	25.770240	0.000626	20.831993
1813.528167	-2.994500	3.382600	-10.128000	25.764019	0.000626	20.833805
1814.527334	-3.017600	3.381100	-10.202000	25.749731	0.000624	20.841738
1815.527699	-3.016100	3.382400	-10.201000	25.785059	0.000623	20.817006
1816.528270	-2.985700	3.383100	-10.099000	25.829935	0.000623	20.834110
1817.529114	-3.022500	3.381000	-10.217000	25.848740	0.000624	20.832611
1818.528496	-2.995100	3.381400	-10.125000	25.864206	0.000623	20.834397
1819.532001	-2.999100	3.381600	-10.141000	25.869499	0.000623	20.830706
1820.527570	-3.003500	3.380700	-10.153000	25.889921	0.000621	20.824669
1821.532393	-3.017100	3.379000	-10.193000	25.864181	0.000621	20.820622
1822.531361	-3.005100	3.378200	-10.150000	25.871707	0.000621	20.827708
1823.530554	-2.990100	3.378400	-10.101000	25.878585	0.000621	20.821815
1824.530757	-2.998600	3.379300	-10.131000	25.888994	0.000620	20.835591
1825.529756	-3.015500	3.378000	-10.185000	25.887679	0.000620	20.843279
1826.530464	-3.007600	3.378800	-10.162000	25.933208	0.000620	20.855352
1827.531713	-2.997000	3.377900	-10.123000	25.934481	0.000616	20.851889
1828.531359	-2.987000	3.377500	-10.087000	25.946971	0.000617	20.841678
1829.530744	-3.012600	3.377500	-10.173000	25.968218	0.000619	20.822247
1830.533041	-2.997800	3.377800	-10.125000	25.986118	0.000617	20.834067
1831.530490	-3.016300	3.376500	-10.183000	25.983691	0.000618	20.847749
1832.532077	-3.010600	3.376300	-10.164000	25.947098	0.000617	20.839909
1833.530167	-3.004900	3.374900	-10.140000	25.935282	0.000617	20.839418
1834.530818	-2.993300	3.375700	-10.103000	25.929644	0.000616	20.841340
1835.532925	-2.999300	3.376000	-10.125000	25.946971	0.000617	20.849265
1836.534732	-3.013700	3.375400	-10.172000	25.969432	0.000614	20.837217
1837.532013	-2.995600	3.375900	-10.112000	25.992481	0.000614	20.832399
1838.533523	-3.001600	3.374500	-10.127000	25.989903	0.000614	20.836446
1839.530726	-2.969400	3.375700	-10.022000	25.988065	0.000613	20.849299
1840.535425	-3.013200	3.374500	-10.167000	26.016593	0.000612	20.845718
1841.530296	-2.993200	3.375400	-10.103000	25.995372	0.000613	20.869441
1842.543317	-2.997600	3.372800	-10.109000	25.977919	0.000612	20.854278
1843.533187	-2.993300	3.372100	-10.093000	25.990560	0.000611	20.864607
1844.535727	-3.024300	3.373000	-10.200000	26.015497	0.000610	20.837031
1845.534573	-3.010000	3.373100	-10.152000	25.999207	0.000612	20.863811
1846.532713	-2.981500	3.373100	-10.055000	25.983684	0.000611	20.861965
1847.529596	-2.986600	3.371400	-10.068000	25.962218	0.000609	20.866478
1848.532177	-2.997200	3.370300	-10.101000	25.980557	0.000610	20.858824
1849.531927	-2.998300	3.369600	-10.102000	25.993426	0.000610	20.852788
1850.534062	-3.001700	3.370600	-10.115000	26.036313	0.000608	20.860314
1851.534212	-2.993200	3.370200	-10.087000	26.031956	0.000609	20.869687
1852.533865	-2.992700	3.370000	-10.085000	26.013964	0.000606	20.847344
1853.534518	-2.996500	3.369600	-10.096000	25.997303	0.000606	20.864269
1854.535024	-2.968300	3.371000	-10.004000	26.016180	0.000609	20.852415
1855.532634	-3.008400	3.368600	-10.133000	25.982428	0.000606	20.870661
1856.540838	-2.991800	3.368100	-10.076000	25.996131	0.000607	20.844126
1857.537855	-3.008000	3.369000	-10.133000	25.986499	0.000604	20.869535
1858.545314	-3.009900	3.367300	-10.134000	25.957650	0.000604	20.862837
1859.532758	-3.015500	3.365900	-10.149000	25.953950	0.000605	20.853431
1860.538111	-3.001200	3.367600	-10.106000	25.990670	0.000604	20.862347
1861.535846	-3.005900	3.367500	-10.121000	25.979993	0.000602	20.871059
1862.536141	-3.005800	3.366800	-10.118000	25.975846	0.000603	20.880169
1863.535326	-3.002000	3.366500	-10.106000	25.988808	0.000603	20.858105
1864.538425	-3.008200	3.367300	-10.128000	25.989432	0.000602	20.871059
1865.535326	-3.002900	3.366800	-10.109000	25.977279	0.000601	20.871651
1866.543454	-3.011000	3.366300	-10.136000	25.965421	0.000601	20.888187
1867.538435	-2.998500	3.365500	-10.091000	26.006430	0.000600	20.863007
1868.537058	-3.002200	3.366400	-10.105000	26.049199	0.000599	20.885113
1869.535156	-2.994800	3.365200	-10.077000	26.030802	0.000599	20.868054
1870.537614	-3.002500	3.364800	-10.102000	26.012464	0.000599	20.885664
1871.533235	-2.988700	3.364900	-10.056000	25.972358	0.000599	20.892784
1872.541801	-2.994400	3.363300	-10.070000	25.956825	0.000598	20.884292
1873.543795	-2.993300	3.363900	-10.067000	25.912199	0.000599	20.868384
1874.534451	-3.004800	3.364100	-10.108000	25.894179	0.000599	20.887738
1875.534750	-3.017900	3.364000	-10.151000	25.910530	0.000597	20.892310
1876.534972	-3.019400	3.363600	-10.154000	25.931861	0.000596	20.882921
1877.535101	-3.007800	3.362900	-10.113000	25.981375	0.000595	20.910377
1878.538565	-3.018400	3.361700	-10.145000	26.019847	0.000595	20.890236
1879.545889	-3.015800	3.361800	-10.138000	26.025494	0.000596	20.897805
1880.536681	-2.980000	3.362100	-10.017000	26.027305	0.000595	20.893936
1881.539443	-3.007700	3.361700	-10.110000	26.024828	0.000594	20.883861
1882.534587	-3.001100	3.361200	-10.086000	26.048095	0.000594	20.895858
1883.539863	-2.985800	3.361300	-10.035000	26.020075	0.000593	20.880034
1884.542743	-3.014900	3.360100	-10.129000	26.017167	0.000594	20.889914
1885.544207	-2.996600	3.361200	-10.071000	26.006119	0.000591	20.906314
1886.546076	-2.965700	3.360000	-9.963400	26.013173	0.000592	20.893961
1887.534315	-3.004500	3.358500	-10.090000	25.977507	0.000591	20.902224
1888.537345	-2.994000	3.359000	-10.056000	26.003633	0.000591	20.871102
1889.545949	-2.991100	3.359200	-10.046000	26.024002	0.000590	20.897729
1890.537381	-2.995400	3.359200	-10.061000	26.016173	0.000588	20.887967
1891.534590	-3.020300	3.357300	-10.140000	26.042533	0.000589	20.915398
1892.540035	-2.991000	3.358200	-10.044000	26.068388	0.000591	20.886375
1893.537963	-2.999900	3.358300	-10.074000	26.088671	0.000589	20.888737
1894.542891	-2.986400	3.358600	-10.029000	26.094098	0.000588	20.912680
1895.544693	-2.985700	3.357800	-10.024000	26.072104	0.000588	20.885367
1896.541303	-3.008000	3.355700	-10.093000	26.058764	0.000587	20.895671
1897.539988	-2.979700	3.357500	-10.003000	26.029926	0.000586	20.909369
1898.538285	-2.997600	3.356200	-10.058000	26.021237	0.000589	20.909649
1899.540342	-3.014700	3.355400	-10.115000	25.966711	0.000587	20.910817
1900.542033	-3.010300	3.354700	-10.098000	25.977220	0.000585	20.906677
1901.544270	-2.993900	3.354200	-10.041000	25.975897	0.000586	20.903925
1902.548176	-3.028500	3.355100	-10.160000	26.012144	0.000585	20.915685
1903.552669	-3.027700	3.353900	-10.153000	26.010981	0.000584	20.907880
1904.543919	-2.962000	3.355700	-9.937100	26.040729	0.000582	20.902681
1905.543710	-2.986700	3.354900	-10.019000	26.030221	0.000584	20.897339
1906.549798	-3.005300	3.354300	-10.080000	26.006405	0.000583	20.909446
1907.548975	-2.973200	3.354900	-9.974100	25.980473	0.000581	20.925116
1908.551049	-2.995400	3.353300	-10.044000	26.032707	0.000581	20.938713
1909.542991	-3.011400	3.352900	-10.096000	26.036853	0.000583	20.903053
1910.548070	-2.989800	3.352400	-10.022000	26.101302	0.000580	20.905221
1911.551824	-2.996900	3.352700	-10.048000	26.108061	0.000580	20.890201
1912.548103	-2.995200	3.352700	-10.042000	26.143503	0.000580	20.922018
1913.546907	-2.997200	3.352300	-10.046000	26.165614	0.000581	20.905831
1914.546234	-2.975700	3.353200	-9.976900	26.203977	0.000580	20.929205
1915.545030	-2.992100	3.351700	-10.028000	26.181673	0.000578	20.935242
1916.549088	-2.972100	3.352100	-9.962000	26.191987	0.000579	20.913365
1917.546094	-2.983100	3.351600	-9.996500	26.193723	0.000580	20.932177
1918.550964	-3.017000	3.349600	-10.105000	26.225960	0.000577	20.915262
1919.545925	-3.024800	3.349800	-10.131000	26.191187	0.000577	20.913983
1920.544630	-2.976500	3.350900	-9.973000	26.150488	0.000575	20.935200
1921.546170	-3.005900	3.348300	-10.064000	26.115417	0.000574	20.929358
1922.545702	-3.009200	3.347700	-10.073000	26.075904	0.000575	20.927589
1923.550946	-2.995600	3.347100	-10.025000	26.086244	0.000575	20.955518
1924.550357	-2.998700	3.348500	-10.040000	26.051963	0.000574	20.940042
1925.545218	-2.987900	3.348800	-10.005000	26.032488	0.000574	20.929959
1926.548094	-3.008900	3.346000	-10.066000	26.034401	0.000573	20.947526
1927.552361	-2.986000	3.348300	-9.996700	25.995576	0.000575	20.948347
1928.552954	-3.012400	3.347100	-10.081000	26.029454	0.000573	20.925489
1929.548938	-3.015000	3.347800	-10.093000	26.034527	0.000571	20.934853
1930.554850	-2.994100	3.346900	-10.020000	26.072348	0.000569	20.945824
1931.549621	-3.009900	3.344900	-10.066000	26.081146	0.000572	20.949922
1932.559282	-2.992300	3.345600	-10.010000	26.092041	0.000570	20.934319
1933.557921	-2.999900	3.345400	-10.036000	26.091494	0.000571	20.944673
1934.552185	-3.026900	3.343500	-10.119000	26.109350	0.000571	20.955975
1935.551934	-2.999100	3.345200	-10.032000	26.129961	0.000571	20.961511
1936.550140	-2.999700	3.344000	-10.031000	26.117245	0.000570	20.949684
1937.557513	-2.968600	3.344500	-9.927100	26.097847	0.000570	20.954374
1938.555625	-3.027400	3.343600	-10.121000	26.065875	0.000567	20.954967
1939.552452	-3.000000	3.343600	-10.030000	26.053108	0.000568	20.945934
1940.556384	-2.998300	3.341800	-10.019000	26.090541	0.000567	20.947982
1941.554073	-3.008600	3.342000	-10.054000	26.114102	0.000567	20.937992
1942.551150	-3.014900	3.342300	-10.077000	26.167129	0.000567	20.942911
1943.557560	-2.986600	3.342400	-9.981500	26.181403	0.000565	20.937814
1944.551590	-2.990200	3.342600	-9.993500	26.212697	0.000567	20.940811
1945.551949	-3.009500	3.342700	-10.058000	26.207995	0.000566	20.948414
1946.555665	-3.005600	3.341000	-10.042000	26.201237	0.000564	20.953476
1947.555905	-3.002900	3.340600	-10.030000	26.228386	0.000562	20.957523
1948.559027	-2.995200	3.341300	-10.007000	26.257749	0.000565	20.944833
1949.562596	-3.014000	3.339800	-10.066000	26.227248	0.000564	20.941683
1950.557944	-2.984200	3.341300	-9.970300	26.239036	0.000561	20.941200
1951.561010	-2.981800	3.340000	-9.958400	26.234630	0.000562	20.939618
1952.555212	-3.019400	3.339700	-10.083000	26.227628	0.000562	20.938746
1953.561952	-3.000200	3.339900	-10.020000	26.223566	0.000563	20.935613
1954.559633	-2.998300	3.339500	-10.012000	26.214534	0.000562	20.945027
1955.558085	-2.997400	3.339000	-10.008000	26.216472	0.000561	20.896720
1956.559105	-2.993800	3.338400	-9.993800	26.250385	0.000560	20.935063
1957.558548	-2.983700	3.339200	-9.961300	26.254387	0.000558	20.951411
1958.557912	-3.006600	3.335900	-10.029000	26.247655	0.000559	20.941802
1959.558721	-2.998300	3.337500	-10.005000	26.265736	0.000557	20.933895
1960.557169	-2.995600	3.336600	-9.994000	26.218030	0.000557	20.931947
1961.557714	-3.020900	3.336400	-10.077000	26.247352	0.000556	20.942445
1962.561185	-2.986500	3.337700	-9.966900	26.275965	0.000558	20.912882
1963.563898	-3.003900	3.335000	-10.017000	26.277852	0.000557	20.924734
1964.561862	-2.981800	3.336000	-9.946400	26.253982	0.000555	20.928721
1965.559370	-2.968800	3.336700	-9.905100	26.277456	0.000555	20.926707
1966.561263	-2.999100	3.335800	-10.004000	26.281205	0.000555	20.929052
1967.562913	-2.988200	3.335300	-9.964700	26.291265	0.000555	20.915455
1968.561010	-3.007300	3.334300	-10.026000	26.313558	0.000554	20.922211
1969.563701	-3.012600	3.333700	-10.041000	26.279891	0.000553	20.930576
1970.560689	-3.006700	3.332200	-10.018000	26.260403	0.000554	20.912890
1971.562900	-2.978400	3.334700	-9.930500	26.302892	0.000554	20.907701
1972.564637	-2.996300	3.334200	-9.990000	26.254269	0.000554	20.920950
1973.561550	-3.015200	3.332900	-10.049000	26.214366	0.000551	20.917361
1974.565167	-3.004200	3.332200	-10.010000	26.161080	0.000553	20.913128
1975.564548	-2.984400	3.334100	-9.948800	26.106189	0.000549	20.929095
1976.564117	-2.987400	3.331900	-9.953000	26.073679	0.000550	20.908285
1977.564456	-3.014100	3.330400	-10.037000	26.078347	0.000550	20.913924
1978.562456	-3.013100	3.331900	-10.038000	26.073283	0.000550	20.914525
1979.564528	-2.992500	3.331900	-9.969400	26.090255	0.000549	20.936791
1980.568962	-3.029800	3.329900	-10.086000	26.118375	0.000550	20.920951
1981.568588	-3.015300	3.328600	-10.035000	26.174301	0.000548	20.912188
1982.567588	-2.997200	3.330300	-9.980200	26.157735	0.000547	20.903604
1983.564457	-2.992100	3.330100	-9.962700	26.169094	0.000548	20.909801
1984.565287	-2.997500	3.330200	-9.981200	26.174933	0.000548	20.928943
1985.569357	-2.976300	3.329700	-9.908700	26.192721	0.000548	20.922162
1986.564431	-2.992100	3.328700	-9.958700	26.190606	0.000546	20.898228
1987.564954	-3.034100	3.327500	-10.095000	26.216456	0.000545	20.896704
1988.569041	-3.008000	3.328500	-10.011000	26.226020	0.000545	20.900150
1989.566338	-3.018400	3.328200	-10.045000	26.227258	0.000543	20.910877
1990.567770	-3.017200	3.327900	-10.040000	26.231808	0.000546	20.922086
1991.570860	-2.996000	3.327500	-9.967400	26.257844	0.000545	20.919327
1992.568300	-3.017300	3.326000	-10.035000	26.270996	0.000543	20.903621
1993.568434	-3.000000	3.326000	-9.976600	26.255678	0.000543	20.926633
1994.567796	-3.014200	3.326700	-10.027000	26.241995	0.000544	20.903876
1995.568913	-3.002400	3.325900	-9.984500	26.225835	0.000542	20.910869
1996.573275	-3.003600	3.327500	-9.993500	26.235322	0.000540	20.915187
1997.568409	-2.981400	3.326500	-9.916900	26.243672	0.000541	20.921680
1998.570825	-3.005200	3.324600	-9.989900	26.273322	0.000540	20.907381
1999.570563	-3.004400	3.325000	-9.988200	26.292337	0.000540	20.891405
2000.570226	-2.996800	3.324300	-9.961400	26.299676	0.000538	20.884082
2001.570815	-2.985300	3.324200	-9.922100	26.258847	0.000536	20.895681
2002.575112	-2.974800	3.323800	-9.886400	26.215118	0.000538	20.897730
2003.570228	-3.009300	3.322100	-9.995900	26.186883	0.000536	20.888324
2004.569847	-2.996200	3.322400	-9.953400	26.155461	0.000536	20.915068
2005.569449	-3.007800	3.321600	-9.990000	26.179872	0.000536	20.915890
2006.570734	-3.005400	3.322700	-9.985500	26.214132	0.000536	20.917600
2007.571763	-3.018700	3.322000	-10.027000	26.238019	0.000534	20.909363
2008.571282	-3.023700	3.320500	-10.039000	26.267273	0.000533	20.902251
2009.572984	-3.006400	3.321500	-9.985200	26.309669	0.000534	20.912614
2010.572768	-3.022800	3.320100	-10.035000	26.346704	0.000532	20.893412
2011.572616	-2.996200	3.321900	-9.951900	26.343807	0.000533	20.894293
2012.574834	-3.003000	3.319900	-9.969500	26.349553	0.000532	20.902438
2013.573279	-3.025600	3.319000	-10.040000	26.357522	0.000533	20.906654
2014.576881	-2.986700	3.319400	-9.913400	26.354481	0.000530	20.890796
2015.574493	-3.022500	3.318600	-10.029000	26.366275	0.000529	20.881314
2016.576977	-2.986000	3.319000	-9.909700	26.329973	0.000530	20.892244
2017.576252	-3.008900	3.319500	-9.986300	26.334025	0.000530	20.895368
2018.578839	-2.996400	3.318700	-9.942800	26.312146	0.000527	20.914155
2019.575131	-3.021000	3.317500	-10.021000	26.304555	0.000528	20.897993
2020.574481	-3.001600	3.318000	-9.958500	26.337236	0.000528	20.914240
2021.575856	-3.013200	3.316100	-9.991300	26.329459	0.000527	20.903106
2022.575768	-2.986100	3.316700	-9.903100	26.349376	0.000527	20.882347
2023.578215	-3.017800	3.318300	-10.012000	26.387160	0.000526	20.887604
2024.575630	-3.009300	3.317500	-9.981500	26.383394	0.000525	20.892354
2025.578211	-2.992000	3.317900	-9.926200	26.421515	0.000525	20.887520
2026.575386	-3.000400	3.315200	-9.945100	26.394220	0.000524	20.893277
2027.575429	-3.000100	3.315700	-9.945700	26.382973	0.000521	20.890983
2028.579409	-3.002800	3.315700	-9.955700	26.383622	0.000522	20.895902
2029.575405	-2.996300	3.316400	-9.936300	26.388929	0.000523	20.873262
2030.576188	-2.999700	3.315500	-9.943600	26.399039	0.000521	20.900016
2031.575253	-2.987400	3.315600	-9.904900	26.420546	0.000520	20.891762
2032.576023	-2.957900	3.315600	-9.805900	26.426350	0.000521	20.890957
2033.577235	-3.010400	3.311300	-9.967500	26.420049	0.000522	20.912597
2034.579036	-2.983800	3.314200	-9.888300	26.454116	0.000519	20.875718
2035.577474	-3.008700	3.312300	-9.965500	26.462877	0.000518	20.904436
2036.579954	-3.017000	3.311900	-9.990900	26.443098	0.000521	20.892617
2037.576576	-2.973600	3.313000	-9.850300	26.446223	0.000520	20.882483
2038.578482	-3.006600	3.311900	-9.956300	26.458042	0.000517	20.895784
2039.583182	-2.985100	3.313600	-9.889900	26.471798	0.000518	20.880688
2040.578899	-2.978500	3.311800	-9.861800	26.445710	0.000518	20.891923
2041.582193	-2.984600	3.310200	-9.878800	26.458631	0.000518	20.886420
2042.580712	-2.980200	3.311100	-9.867000	26.443266	0.000515	20.895157
2043.578458	-3.016100	3.309400	-9.979900	26.439071	0.000514	20.909905
2044.579062	-2.987200	3.309800	-9.886500	26.491813	0.000515	20.885633
2045.581725	-2.981900	3.310600	-9.871100	26.480146	0.000515	20.905198
2046.580314	-2.977900	3.309000	-9.853200	26.452600	0.000514	20.896952
2047.580951	-2.980500	3.307700	-9.857500	26.425289	0.000513	20.893684
2048.586053	-3.004900	3.307600	-9.937900	26.415416	0.000512	20.890399
2049.582030	-3.001100	3.307900	-9.926200	26.370918	0.000514	20.897358
2050.584707	-2.997400	3.307400	-9.912600	26.360505	0.000511	20.886894
2051.584145	-2.999900	3.307200	-9.920000	26.324338	0.000510	20.862401
2052.583179	-3.058900	3.305100	-10.108000	26.329839	0.000511	20.867929
2053.582169	-2.984300	3.306600	-9.866300	26.322080	0.000510	20.871037
2054.583855	-2.998900	3.306300	-9.913900	26.327910	0.000511	20.898705
2055.582763	-3.008600	3.305800	-9.944200	26.386857	0.000508	20.868810
2056.585053	-3.021700	3.305300	-9.985500	26.398727	0.000511	20.897807
2057.581310	-2.997700	3.305800	-9.908300	26.442424	0.000509	20.889569
2058.586765	-2.980600	3.305500	-9.850000	26.426157	0.000509	20.863738
2059.589261	-3.003800	3.305500	-9.928000	26.446914	0.000508	20.877488
2060.584959	-3.001000	3.304100	-9.915100	26.454268	0.000508	20.904792
2061.593565	-3.024400	3.302600	-9.987500	26.427429	0.000508	20.871654
2062.584011	-3.000500	3.303200	-9.909900	26.408955	0.000507	20.887224
2063.588539	-3.016600	3.302800	-9.962000	26.413200	0.000505	20.877742
2064.584691	-2.989100	3.303900	-9.874000	26.442769	0.000506	20.883279
2065.584083	-3.037100	3.300800	-10.024000	26.455810	0.000505	20.885480
2066.584946	-3.028200	3.302500	-9.999000	26.452583	0.000506	20.883186
2067.582647	-2.999700	3.302700	-9.905200	26.463871	0.000505	20.868928
2068.585009	-3.003700	3.302100	-9.917000	26.471570	0.000504	20.876666
2069.593649	-3.018300	3.300500	-9.960900	26.456357	0.000506	20.888401
2070.584473	-2.985200	3.302400	-9.857400	26.417471	0.000504	20.868759
2071.590490	-3.023100	3.301400	-9.979800	26.395998	0.000503	20.897435
2072.589105	-2.999700	3.301700	-9.903200	26.354187	0.000503	20.874381
2073.585671	-2.994800	3.300800	-9.883800	26.345492	0.000502	20.868488
2074.586851	-3.003500	3.300900	-9.913300	26.359469	0.000499	20.883008
2075.593216	-2.992200	3.300800	-9.874900	26.392300	0.000499	20.873331
2076.586773	-2.986800	3.300900	-9.857900	26.411566	0.000499	20.866143
2077.589306	-2.991800	3.299900	-9.871900	26.424708	0.000500	20.893574
2078.589378	-2.998300	3.298000	-9.887800	26.404768	0.000500	20.872586
2079.588538	-2.992500	3.298700	-9.869900	26.397220	0.000499	20.873534
2080.588287	-3.005500	3.299300	-9.915100	26.365940	0.000497	20.886666
2081.592285	-3.004500	3.297400	-9.906100	26.347338	0.000497	20.882196
2082.590751	-2.997100	3.297800	-9.882800	26.335745	0.000497	20.861063
2083.590882	-2.977000	3.299100	-9.820100	26.366605	0.000496	20.869792
2084.591771	-3.033100	3.294800	-9.992900	26.395595	0.000495	20.859100
2085.592847	-3.001900	3.298000	-9.899400	26.434203	0.000494	20.881781
2086.592075	-3.010200	3.296600	-9.921600	26.445651	0.000493	20.865314
2087.594459	-3.012500	3.296500	-9.929100	26.460275	0.000494	20.867685
2088.594165	-3.000300	3.297000	-9.890800	26.466408	0.000492	20.865314
2089.598283	-2.994100	3.295000	-9.865000	26.455271	0.000491	20.882568
2090.593327	-3.025900	3.293900	-9.965800	26.468362	0.000492	20.873442
2091.593183	-2.996300	3.296100	-9.875100	26.473012	0.000492	20.880486
2092.596025	-2.992500	3.295000	-9.859100	26.436410	0.000490	20.871672
2093.600211	-3.004900	3.294400	-9.897600	26.446266	0.000491	20.871147
2094.596367	-3.012900	3.293000	-9.920100	26.466703	0.000489	20.886472
2095.600193	-2.978100	3.294500	-9.809600	26.517775	0.000487	20.856729
2096.598836	-2.969900	3.292100	-9.775900	26.520429	0.000489	20.869827
2097.596370	-3.005300	3.291800	-9.891000	26.553726	0.000488	20.847822
2098.598210	-3.009300	3.291500	-9.904100	26.550769	0.000487	20.846747
2099.600065	-3.005800	3.291600	-9.892400	26.515173	0.000487	20.864070
2100.597936	-3.005300	3.290700	-9.888400	26.482531	0.000487	20.859236
2101.596951	-3.002400	3.290500	-9.877600	26.502883	0.000485	20.876371
2102.600479	-2.987600	3.291700	-9.832900	26.504323	0.000484	20.864544
2103.598156	-2.996500	3.290400	-9.858800	26.511130	0.000484	20.866169
2104.601638	-3.003800	3.290100	-9.880900	26.483921	0.000482	20.846409
2105.599999	-3.011600	3.288700	-9.902000	26.464799	0.000483	20.863697
2106.603090	-2.997100	3.289500	-9.858200	26.456342	0.000481	20.853301
2107.599441	-2.985700	3.288200	-9.816600	26.458397	0.000482	20.861056
2108.600587	-2.999800	3.289000	-9.864400	26.462028	0.000481	20.845740
2109.600168	-3.000800	3.288600	-9.867200	26.433420	0.000480	20.855392
2110.599458	-3.013800	3.288200	-9.908300	26.411079	0.000480	20.846214
2111.598555	-3.030500	3.287400	-9.961300	26.419099	0.000479	20.858067
2112.601005	-2.978200	3.287800	-9.790900	26.430228	0.000478	20.872571
2113.611041	-2.993100	3.287500	-9.839000	26.450159	0.000478	20.850405
2114.600866	-3.013600	3.286300	-9.902900	26.485378	0.000476	20.870157
2115.603221	-3.000900	3.286200	-9.860700	26.522080	0.000475	20.855840
2116.602103	-2.998000	3.285700	-9.849700	26.546542	0.000478	20.864307
2117.601407	-2.983500	3.287500	-9.806900	26.544823	0.000474	20.845985
2118.605080	-3.011400	3.284400	-9.889900	26.572780	0.000474	20.874086
2119.602294	-3.020100	3.285100	-9.920500	26.584117	0.000473	20.850396
2120.605150	-2.989000	3.284400	-9.815500	26.610464	0.000473	20.862182
2121.602433	-3.007400	3.284600	-9.876700	26.573454	0.000473	20.861014
2122.603521	-3.003800	3.282500	-9.858500	26.533275	0.000473	20.857136
2123.606172	-3.005100	3.283000	-9.863500	26.464530	0.000474	20.834978
2124.605204	-3.017300	3.283900	-9.907600	26.437042	0.000471	20.845757
2125.608146	-2.986200	3.283300	-9.802700	26.407018	0.000471	20.849719
2126.607826	-2.991000	3.281200	-9.813600	26.374213	0.000469	20.836189
2127.606589	-2.996600	3.281800	-9.833100	26.303520	0.000469	20.844799
2128.605841	-2.988300	3.283700	-9.811000	26.308929	0.000468	20.847864
2129.607136	-3.016700	3.280400	-9.894600	26.341028	0.000467	20.840769
2130.608811	-3.012500	3.280900	-9.882800	26.378004	0.000469	20.839050
2131.611902	-2.975100	3.281100	-9.760900	26.435710	0.000468	20.856271
2132.607264	-2.990600	3.281400	-9.812900	26.455886	0.000465	20.848101
2133.611534	-3.024400	3.278700	-9.915400	26.488317	0.000465	20.836129
2134.611423	-3.012800	3.279000	-9.878200	26.522668	0.000464	20.829406
2135.608859	-2.988600	3.282400	-9.807600	26.559040	0.000465	20.842733
2136.610455	-2.998700	3.278600	-9.830800	26.574226	0.000463	20.828601
2137.610362	-2.998000	3.278500	-9.828400	26.554517	0.000463	20.835341
2138.610369	-3.022500	3.277700	-9.906000	26.544687	0.000461	20.833046
2139.612170	-3.003900	3.278100	-9.846300	26.555249	0.000461	20.838448
2140.612766	-2.986100	3.277600	-9.785500	26.584915	0.000460	20.853095
2141.613957	-3.004700	3.277100	-9.845600	26.606688	0.000460	20.839895
2142.617182	-2.993900	3.277200	-9.810600	26.614049	0.000457	20.829752
2143.621672	-2.979700	3.277100	-9.763800	26.633935	0.000459	20.817500
2144.616126	-3.014700	3.276000	-9.875400	26.629807	0.000457	20.844170
2145.614298	-2.988300	3.277300	-9.792300	26.632292	0.000457	20.830548
2146.613877	-3.010300	3.274700	-9.856000	26.608026	0.000457	20.849775
2147.616269	-2.987500	3.275900	-9.785000	26.642828	0.000457	20.837820
2148.614667	-2.996000	3.275600	-9.811800	26.661020	0.000457	20.842832
2149.614442	-3.019100	3.274400	-9.884600	26.666570	0.000456	20.828497
2150.615466	-3.011400	3.273000	-9.855800	26.653541	0.000456	20.843374
2151.615623	-3.026300	3.272200	-9.902200	26.629772	0.000452	20.837971
2152.617929	-3.022300	3.272100	-9.888200	26.590009	0.000453	20.842569
2153.617418	-2.980500	3.272600	-9.752800	26.621476	0.000453	20.832002
2154.613938	-3.014300	3.272300	-9.862400	26.635011	0.000453	20.835651
2155.615608	-2.983500	3.273500	-9.765600	26.636123	0.000452	20.826338
2156.614778	-2.999300	3.272100	-9.812000	26.674562	0.000451	20.826100
2157.616086	-2.996200	3.272200	-9.803100	26.654879	0.000451	20.824331
2158.620470	-2.999300	3.270700	-9.809500	26.624667	0.000449	20.822409
2159.618843	-2.990000	3.272900	-9.785000	26.592787	0.000451	20.820707
2160.619750	-3.001100	3.270800	-9.814300	26.556189	0.000450	20.826117
2161.618496	-2.982000	3.269600	-9.750100	26.558025	0.000450	20.810419
2162.619277	-2.984000	3.270600	-9.758400	26.534280	0.000448	20.814999
2163.623463	-3.001700	3.269800	-9.813900	26.599500	0.000450	20.830299
2164.620644	-2.994000	3.269300	-9.787600	26.603694	0.000449	20.816498
2165.619761	-3.023200	3.268000	-9.879400	26.617120	0.000447	20.813873
2166.620142	-3.005400	3.268200	-9.821300	26.563373	0.000448	20.822433
2167.619973	-2.990800	3.268300	-9.774100	26.558497	0.000446	20.815161
2168.622003	-3.010900	3.267900	-9.837100	26.543537	0.000445	20.802968
2169.625517	-3.013900	3.265800	-9.842100	26.547580	0.000445	20.809877
2170.622127	-2.986000	3.267900	-9.756600	26.593485	0.000444	20.815719
2171.622077	-2.998400	3.265500	-9.790900	26.590925	0.000443	20.812671
2172.624340	-3.002300	3.266900	-9.807200	26.619941	0.000443	20.801062
2173.623634	-3.001800	3.266100	-9.802700	26.675664	0.000442	20.788802
2174.626564	-3.004800	3.265500	-9.810900	26.678350	0.000441	20.803357
2175.624660	-3.005400	3.264300	-9.808100	26.741843	0.000441	20.819300
2176.626545	-2.995000	3.265000	-9.777000	26.761946	0.000440	20.802527
2177.625762	-3.009000	3.265300	-9.824700	26.772102	0.000440	20.784763
2178.627478	-2.986900	3.265300	-9.751900	26.778359	0.000440	20.804331
2179.627734	-3.005600	3.263500	-9.808100	26.759967	0.000437	20.789158
2180.629257	-2.979500	3.266700	-9.732300	26.744606	0.000437	20.800741
2181.628643	-2.996000	3.263600	-9.776800	26.705933	0.000435	20.800267
2182.626767	-2.977600	3.262800	-9.714600	26.688802	0.000434	20.787312
2183.628634	-2.997100	3.262700	-9.777200	26.678283	0.000435	20.795229
2184.628955	-2.995600	3.262600	-9.772600	26.713766	0.000435	20.800555
2185.630249	-2.997500	3.261500	-9.775600	26.734930	0.000434	20.810927
2186.628928	-2.982700	3.260900	-9.725200	26.752632	0.000432	20.797430
2187.629185	-3.012600	3.260200	-9.820900	26.711146	0.000431	20.790335
2188.630219	-3.004800	3.260800	-9.797600	26.723829	0.000432	20.822052
2189.628697	-2.981100	3.261600	-9.722700	26.710439	0.000431	20.808590
2190.632998	-3.020000	3.258700	-9.840300	26.731131	0.000432	20.791461
2191.628379	-3.013800	3.258100	-9.818300	26.707011	0.000428	20.797083
2192.632915	-3.013100	3.258400	-9.815900	26.756952	0.000428	20.781860
2193.630572	-3.004300	3.260100	-9.792800	26.780600	0.000429	20.792358
2194.630939	-2.993400	3.257700	-9.749800	26.760725	0.000426	20.785653
2195.630444	-3.011400	3.258900	-9.811800	26.694134	0.000427	20.771809
2196.634501	-2.973100	3.257800	-9.684000	26.678511	0.000426	20.794509
2197.631044	-2.999800	3.256700	-9.768100	26.648831	0.000426	20.775577
2198.631017	-2.995200	3.257500	-9.755600	26.669811	0.000426	20.793824
2199.630607	-2.990600	3.256500	-9.738200	26.685224	0.000424	20.796042
2200.630626	-2.999800	3.255200	-9.761900	26.705277	0.000423	20.779218
2201.633711	-2.997200	3.254700	-9.754200	26.726727	0.000422	20.769489
2202.630483	-3.009100	3.254300	-9.790300	26.785274	0.000423	20.766712
2203.634799	-2.998900	3.257300	-9.767900	26.820769	0.000420	20.771106
2204.632574	-3.009800	3.255100	-9.795700	26.849409	0.000420	20.773350
2205.632615	-2.996100	3.253300	-9.745200	26.887630	0.000421	20.775746
2206.633213	-2.989000	3.255200	-9.728700	26.907258	0.000419	20.762766
2207.632014	-3.026800	3.252700	-9.843200	26.874705	0.000420	20.780293
2208.632105	-3.013800	3.253300	-9.804400	26.818858	0.000419	20.772029
2209.631486	-3.004200	3.252300	-9.769200	26.810436	0.000419	20.774468
2210.632710	-3.004900	3.251900	-9.771200	26.797662	0.000418	20.778693
2211.634900	-2.978200	3.253400	-9.688000	26.803716	0.000417	20.765814
2212.634112	-2.994000	3.251300	-9.733400	26.816348	0.000416	20.768558
2213.633136	-2.981800	3.250700	-9.691800	26.816323	0.000416	20.778015
2214.635643	-3.012500	3.250100	-9.789400	26.837493	0.000415	20.780810
2215.632774	-3.008900	3.248900	-9.774200	26.851143	0.000415	20.744273
2216.633183	-3.009800	3.248800	-9.776600	26.872288	0.000411	20.761267
2217.635382	-3.013000	3.248500	-9.786800	26.890561	0.000412	20.770632
2218.634604	-3.011100	3.249700	-9.782700	26.899680	0.000412	20.764628
2219.636784	-3.007600	3.250100	-9.774200	26.929513	0.000413	20.753850
2220.633883	-3.007200	3.247700	-9.765000	26.942893	0.000412	20.743596
2221.635102	-3.003900	3.246500	-9.750600	26.959329	0.000411	20.763918
2222.639190	-2.993200	3.246300	-9.716000	26.950370	0.000410	20.791419
2223.636474	-2.979600	3.246900	-9.673400	26.939651	0.000407	20.750768
2224.635559	-2.991400	3.245700	-9.707600	26.938085	0.000409	20.786652
2225.635254	-2.989600	3.244500	-9.699000	26.890426	0.000406	20.760065
2226.635277	-2.990800	3.244700	-9.703900	26.896505	0.000407	20.760014
2227.635487	-2.994000	3.244200	-9.712100	26.895369	0.000408	20.767880
2228.638918	-2.985800	3.245300	-9.688500	26.891916	0.000405	20.759667
2229.636976	-3.005600	3.244200	-9.748800	26.914651	0.000406	20.787744
2230.637185	-2.995900	3.244200	-9.718700	26.855682	0.000401	20.756898
2231.636509	-3.011400	3.242600	-9.764200	26.802486	0.000403	20.735179
2232.636811	-3.012700	3.242900	-9.768100	26.768835	0.000401	20.772943
2233.640595	-2.998600	3.243300	-9.723500	26.726988	0.000402	20.756949
2234.638589	-3.001100	3.242000	-9.728000	26.732597	0.000401	20.761640
2235.639187	-2.979500	3.241500	-9.656800	26.755984	0.000402	20.757178
2236.638995	-3.001200	3.242200	-9.728700	26.832626	0.000401	20.778760
2237.640523	-3.020000	3.240800	-9.785700	26.833249	0.000399	20.754256
2238.642678	-3.002400	3.241300	-9.729700	26.869762	0.000402	20.787651
2239.646793	-2.996100	3.240500	-9.708000	26.917161	0.000398	20.760869
2240.641377	-2.985800	3.240400	-9.674800	26.873180	0.000398	20.767380
2241.640588	-3.020100	3.240300	-9.784200	26.831093	0.000397	20.755408
2242.641080	-2.977300	3.239200	-9.643400	26.805527	0.000397	20.779015
2243.641435	-3.008400	3.239600	-9.745500	26.802723	0.000396	20.767660
2244.643416	-2.975200	3.237500	-9.632000	26.802445	0.000394	20.757423
2245.642332	-2.991300	3.236800	-9.681600	26.815127	0.000394	20.781555
2246.644121	-2.977500	3.238400	-9.640500	26.852508	0.000394	20.781207
2247.641576	-2.992400	3.237200	-9.686200	26.859682	0.000393	20.771826
2248.642413	-3.000100	3.236800	-9.708800	26.888295	0.000393	20.781631
2249.646403	-2.998200	3.237000	-9.704100	26.937285	0.000391	20.761191
2250.642454	-2.993200	3.235800	-9.684300	26.991240	0.000393	20.772300
2251.645064	-3.009900	3.234500	-9.734500	26.996822	0.000389	20.777440
2252.643635	-2.972200	3.235500	-9.615500	26.985262	0.000389	20.772927
2253.644547	-2.985900	3.234600	-9.657100	26.950000	0.000391	20.758329
2254.646056	-2.999500	3.234600	-9.701100	26.889062	0.000390	20.764383
2255.647775	-3.007700	3.234200	-9.727000	26.870342	0.000388	20.773062
2256.644747	-2.996900	3.233700	-9.689400	26.884885	0.000387	20.756864
2257.645120	-3.028500	3.233800	-9.792300	26.922297	0.000388	20.771250
2258.645430	-3.001300	3.232900	-9.701700	26.901128	0.000388	20.788371
2259.646083	-2.991100	3.231600	-9.665100	26.911300	0.000386	20.768253
2260.650315	-2.998800	3.232200	-9.690900	26.938076	0.000387	20.763883
2261.646938	-3.007700	3.232500	-9.722100	26.949149	0.000384	20.772647
2262.648325	-3.033200	3.229200	-9.793300	26.946143	0.000385	20.772469
2263.646502	-3.006000	3.230400	-9.709600	26.921379	0.000383	20.771750
2264.646817	-3.001200	3.230900	-9.695600	26.955599	0.000383	20.759692
2265.648064	-2.995600	3.229800	-9.674300	26.957013	0.000384	20.764908
2266.646680	-3.004700	3.230000	-9.704500	26.946640	0.000382	20.768701
2267.647456	-3.009000	3.229800	-9.717300	26.951321	0.000382	20.766770
2268.647921	-2.966400	3.229600	-9.578800	26.974038	0.000382	20.773968
2269.647877	-3.001300	3.228600	-9.688900	27.004560	0.000380	20.762461
2270.648643	-2.994400	3.228800	-9.666400	26.997917	0.000380	20.751987
2271.649378	-2.992600	3.228600	-9.660600	26.982525	0.000380	20.757372
2272.651217	-3.001400	3.227900	-9.687100	26.916563	0.000379	20.783502
2273.650187	-3.005400	3.224700	-9.690900	26.974762	0.000380	20.785128
2274.651239	-3.023900	3.224200	-9.749500	26.950252	0.000377	20.782766
2275.651440	-2.991600	3.226900	-9.652700	26.940047	0.000377	20.764443
2276.654626	-3.004300	3.224400	-9.685100	26.975655	0.000377	20.777965
2277.651752	-3.008800	3.225700	-9.704200	26.994439	0.000374	20.770302
2278.653651	-2.990300	3.222600	-9.635500	27.042431	0.000375	20.770200
2279.653114	-2.980500	3.224200	-9.607900	27.044636	0.000375	20.770048
2280.653563	-2.986800	3.224800	-9.629900	27.083777	0.000373	20.768160
2281.658050	-3.011400	3.222800	-9.703600	27.074693	0.000374	20.769929
2282.657276	-2.993600	3.221100	-9.641800	27.055666	0.000371	20.766441
2283.654919	-2.985200	3.221600	-9.616400	27.060498	0.000372	20.767508
2284.654740	-3.012200	3.222000	-9.705100	27.077833	0.000373	20.788260
2285.655896	-3.012700	3.219800	-9.699100	27.104984	0.000371	20.789014
2286.657008	-3.015900	3.220400	-9.711000	27.117048	0.000373	20.781233
2287.660342	-2.986000	3.220300	-9.614600	27.119330	0.000369	20.774044
2288.658229	-2.974400	3.220200	-9.577200	27.130476	0.000368	20.774349
2289.663274	-3.001900	3.220600	-9.666700	27.149208	0.000368	20.781809
2290.658018	-2.996300	3.221700	-9.650500	27.133802	0.000369	20.786703
2291.658410	-3.016400	3.218700	-9.708000	27.115659	0.000368	20.796431
2292.659257	-2.995800	3.216900	-9.636400	27.074205	0.000365	20.794095
2293.658066	-2.988300	3.218400	-9.616400	27.051911	0.000364	20.781631
2294.657684	-2.989000	3.218300	-9.618300	27.031966	0.000367	20.797608
2295.657961	-2.992800	3.216800	-9.626100	27.057256	0.000364	20.780843
2296.658357	-2.989600	3.216200	-9.613800	27.074449	0.000365	20.766365
2297.658003	-2.986100	3.215900	-9.601900	27.103503	0.000365	20.786102
2298.661168	-2.994400	3.214600	-9.624900	27.124659	0.000363	20.766601
2299.659858	-2.988400	3.215500	-9.607500	27.135115	0.000361	20.812205
2300.658957	-2.989600	3.215300	-9.611300	27.160522	0.000362	20.772325
2301.659229	-2.993800	3.215100	-9.624500	27.162626	0.000361	20.794357
2302.659015	-2.989300	3.214600	-9.608300	27.148870	0.000360	20.778150
2303.662354	-2.974300	3.213400	-9.556600	27.191181	0.000363	20.785144
2304.659123	-2.984400	3.213700	-9.589800	27.151480	0.000361	20.794526
2305.659146	-2.991600	3.213600	-9.612200	27.157508	0.000361	20.785889
2306.661746	-3.031900	3.212300	-9.738100	27.194868	0.000359	20.825362
2307.661720	-3.006400	3.212200	-9.656200	27.210491	0.000357	20.785127
2308.663921	-3.000200	3.210500	-9.631700	27.211712	0.000357	20.812907
2309.661185	-3.032300	3.211000	-9.735100	27.208437	0.000357	20.796337
2310.665241	-2.976200	3.210400	-9.553500	27.197031	0.000356	20.797193
2311.660276	-2.985600	3.209900	-9.583000	27.169664	0.000358	20.787684
2312.662390	-2.997700	3.209100	-9.618500	27.164747	0.000354	20.813559
2313.662738	-3.003100	3.208400	-9.633800	27.161843	0.000356	20.809690
2314.665927	-2.983000	3.209500	-9.571700	27.109042	0.000356	20.814431
2315.662888	-3.012000	3.208300	-9.662300	27.133784	0.000355	20.800910
2316.662819	-3.007200	3.207100	-9.644100	27.114177	0.000355	20.797785
2317.663569	-2.998100	3.206200	-9.611300	27.118328	0.000356	20.808124
2318.663457	-3.014400	3.206500	-9.663700	27.106828	0.000353	20.805093
2319.665195	-2.994100	3.206100	-9.598300	27.101431	0.000353	20.813416
2320.663628	-3.028000	3.206000	-9.706600	27.122394	0.000353	20.809368
2321.662723	-3.004500	3.205900	-9.630100	27.117612	0.000349	20.811197
2322.663816	-3.016600	3.203500	-9.662300	27.092271	0.000350	20.819376
2323.664040	-2.992400	3.204800	-9.589000	27.111879	0.000349	20.801164
2324.667444	-2.977100	3.202900	-9.534500	27.083945	0.000348	20.786821
2325.666034	-3.025500	3.203400	-9.689400	27.100867	0.000347	20.793408
2326.667111	-3.004000	3.201500	-9.616600	27.138726	0.000348	20.790707
2327.666827	-2.977200	3.203300	-9.535200	27.176677	0.000347	20.793316
2328.666933	-2.999400	3.201400	-9.601700	27.181012	0.000347	20.801943
2329.670389	-3.000400	3.202200	-9.607200	27.203833	0.000347	20.800715
2330.670974	-3.020400	3.200800	-9.667000	27.199767	0.000347	20.817963
2331.666276	-3.014600	3.199300	-9.643200	27.185945	0.000345	20.803586
2332.667288	-3.003600	3.199400	-9.609300	27.180936	0.000344	20.828419
2333.667892	-2.975400	3.199300	-9.517800	27.188630	0.000344	20.806761
2334.668311	-2.991200	3.199400	-9.568600	27.211359	0.000344	20.814449
2335.670094	-2.986600	3.200900	-9.559300	27.210669	0.000343	20.809488
2336.669364	-3.017000	3.197200	-9.644700	27.155260	0.000341	20.821087
2337.671691	-2.975400	3.199500	-9.517800	27.168906	0.000342	20.820113
2338.668694	-2.999400	3.196300	-9.585400	27.201839	0.000342	20.826684
2339.669634	-2.997400	3.196300	-9.579200	27.230148	0.000342	20.829554
2340.672483	-2.986800	3.195700	-9.543300	27.171962	0.000341	20.816549
2341.670100	-2.997700	3.195200	-9.577000	27.143205	0.000341	20.835040
2342.672872	-3.001100	3.194200	-9.584500	27.122765	0.000339	20.825389
2343.670927	-2.991200	3.195100	-9.556500	27.162686	0.000338	20.831874
2344.672035	-2.992400	3.194100	-9.557300	27.199574	0.000337	20.801647
2345.677748	-3.002300	3.194100	-9.588000	27.208144	0.000338	20.819276
2346.673754	-3.002300	3.194400	-9.589600	27.233027	0.000337	20.813010
2347.670587	-3.000300	3.193600	-9.580000	27.223027	0.000335	20.833296
2348.671134	-3.017000	3.191300	-9.627100	27.209255	0.000334	20.812807
2349.671373	-3.004300	3.191600	-9.588200	27.217572	0.000335	20.803154
2350.670906	-2.998100	3.191000	-9.564700	27.178461	0.000333	20.838258
2351.682267	-3.025600	3.189700	-9.648200	27.146429	0.000335	20.837335
2352.677871	-3.010700	3.189300	-9.601700	27.172282	0.000332	20.822086
2353.676114	-2.990300	3.189700	-9.537600	27.210105	0.000333	20.832628
2354.672899	-3.008000	3.189800	-9.592200	27.257800	0.000332	20.817539
2355.672531	-3.006100	3.189400	-9.586800	27.294652	0.000332	20.839435
2356.677414	-3.010700	3.188400	-9.598500	27.337268	0.000332	20.841526
2357.676934	-3.008500	3.187500	-9.588900	27.321587	0.000331	20.829545
2358.677471	-2.999800	3.186900	-9.559400	27.309988	0.000331	20.822145
2359.677856	-2.996100	3.186900	-9.547500	27.299096	0.000329	20.836318
2360.678719	-2.978500	3.186200	-9.488700	27.307816	0.000331	20.828021
2361.677247	-2.994900	3.186100	-9.540500	27.332622	0.000330	20.830688
2362.675849	-3.012100	3.187400	-9.599900	27.365995	0.000328	20.843871
2363.677693	-2.997500	3.184000	-9.542700	27.403297	0.000327	20.832085
2364.679142	-3.010000	3.185800	-9.587200	27.414289	0.000327	20.847884
2365.677499	-3.008700	3.183700	-9.577800	27.442744	0.000328	20.845691
2366.681684	-3.026300	3.181900	-9.628700	27.437560	0.000326	20.842372
2367.683008	-3.021600	3.182200	-9.614400	27.424220	0.000327	20.837013
2368.680591	-3.002700	3.181500	-9.552200	27.422436	0.000326	20.852761
2369.679290	-2.987900	3.180200	-9.501200	27.446204	0.000327	20.846801
2370.678109	-2.970400	3.183500	-9.454800	27.444360	0.000323	20.843524
2371.679776	-2.979300	3.180200	-9.474100	27.453147	0.000324	20.860424
2372.680961	-2.980800	3.181000	-9.480700	27.455554	0.000324	20.852888
2373.681997	-3.038300	3.180900	-9.662400	27.453105	0.000323	20.841891
2374.682696	-3.026500	3.177800	-9.616200	27.484135	0.000324	20.856986
2375.683573	-3.005400	3.176700	-9.545900	27.475601	0.000322	20.845082
2376.678759	-3.008300	3.176900	-9.556700	27.452415	0.000321	20.838826
2377.680418	-3.026100	3.176900	-9.611400	27.442518	0.000321	20.855895
2378.684919	-3.035200	3.174500	-9.633200	27.439076	0.000320	20.860966
2379.680886	-3.012900	3.174600	-9.564200	27.405520	0.000321	20.846649
2380.679345	-3.006900	3.174700	-9.545200	27.452550	0.000320	20.857927
2381.681125	-2.988000	3.174400	-9.483700	27.468078	0.000318	20.845100
2382.681301	-3.009100	3.174100	-9.549900	27.502465	0.000317	20.846980
2383.682252	-3.004500	3.173200	-9.532700	27.505066	0.000318	20.852441
2384.680574	-2.983900	3.174200	-9.470400	27.522537	0.000318	20.873337
2385.683628	-2.995000	3.174300	-9.506100	27.547631	0.000318	20.844059
2386.687137	-2.994100	3.174200	-9.502800	27.565741	0.000317	20.864650
2387.683380	-3.002700	3.173300	-9.526600	27.586998	0.000316	20.852847
2388.682060	-2.986500	3.173700	-9.477500	27.580602	0.000315	20.856370
2389.684518	-2.998200	3.172000	-9.508300	27.577278	0.000317	20.866301
2390.683671	-2.996200	3.169500	-9.494700	27.574973	0.000316	20.870145
2391.687110	-2.983400	3.169900	-9.456000	27.578204	0.000315	20.868655
2392.684992	-3.015900	3.168000	-9.553500	27.562451	0.000314	20.852805
2393.683244	-3.002200	3.169100	-9.513200	27.567062	0.000315	20.883996
2394.687928	-3.008900	3.166700	-9.527100	27.563419	0.000314	20.872744
2395.683227	-2.998600	3.167200	-9.496300	27.533561	0.000312	20.877790
2396.687370	-3.007200	3.168500	-9.527100	27.533898	0.000312	20.867698
2397.684072	-2.996500	3.164600	-9.482200	27.517791	0.000313	20.868562
2398.683208	-2.996900	3.164900	-9.483600	27.459772	0.000310	20.869934
2399.685299	-3.009800	3.164800	-9.524400	27.418971	0.000312	20.894317
2400.687377	-2.985700	3.165300	-9.449300	27.452156	0.000312	20.882185
2401.683607	-3.030000	3.163900	-9.584700	27.415571	0.000311	20.886630
2402.684328	-3.023200	3.161800	-9.557800	27.424694	0.000309	20.867360
2403.684855	-3.003500	3.161500	-9.494300	27.468458	0.000308	20.870611
2404.685986	-3.004200	3.162500	-9.499900	27.479702	0.000308	20.882871
2405.688965	-2.992000	3.161400	-9.458700	27.517505	0.000308	20.888188
2406.684376	-2.999500	3.161900	-9.483200	27.519457	0.000308	20.866920
2407.699779	-2.984900	3.160300	-9.430600	27.501776	0.000306	20.883743
2408.684645	-2.973900	3.162900	-9.405200	27.511202	0.000307	20.869993
2409.685701	-2.997600	3.159000	-9.468800	27.519988	0.000307	20.871721
2410.685804	-2.985000	3.158500	-9.426500	27.531004	0.000307	20.888019
2411.685293	-2.999000	3.157700	-9.469200	27.565178	0.000305	20.880204
2412.685094	-2.987100	3.156100	-9.426800	27.562847	0.000305	20.881178
2413.685982	-3.018200	3.156500	-9.525400	27.566348	0.000306	20.889915
2414.683599	-3.007800	3.154400	-9.487500	27.585055	0.000304	20.881237
2415.685597	-3.021100	3.154500	-9.529900	27.598999	0.000304	20.917549
2416.687573	-3.001300	3.153800	-9.464700	27.650859	0.000302	20.896714
2417.686511	-2.980300	3.154600	-9.400900	27.657355	0.000306	20.905146
2418.687146	-3.015700	3.153600	-9.509400	27.618000	0.000302	20.892574
2419.695654	-3.009200	3.152100	-9.484500	27.641788	0.000303	20.871468
2420.695623	-3.021300	3.152500	-9.523600	27.634005	0.000301	20.883075
2421.699843	-3.010600	3.152000	-9.488600	27.645887	0.000302	20.882229
2422.687222	-2.988300	3.152200	-9.419200	27.611117	0.000300	20.890390
2423.688643	-3.024900	3.149300	-9.525400	27.629638	0.000303	20.889586
2424.687411	-3.007300	3.148600	-9.468200	27.620415	0.000300	20.898323
2425.687772	-3.007700	3.148200	-9.468200	27.620744	0.000301	20.893913
2426.692006	-2.996500	3.148600	-9.433100	27.644473	0.000300	20.906883
2427.690881	-2.993900	3.149700	-9.428900	27.655143	0.000299	20.913351
2428.689141	-3.020400	3.145300	-9.499200	27.662337	0.000300	20.905418
2429.690474	-2.986600	3.146500	-9.396000	27.665038	0.000298	20.917618
2430.691358	-3.021500	3.145900	-9.504700	27.656910	0.000298	20.903277
2431.691471	-3.028900	3.144800	-9.524400	27.645744	0.000297	20.899627
2432.695579	-2.989800	3.144200	-9.399500	27.641006	0.000297	20.918092
2433.691745	-3.003200	3.142900	-9.437100	27.660402	0.000300	20.893989
2434.693760	-2.982200	3.144500	-9.376600	27.649564	0.000297	20.902049
2435.692078	-3.001300	3.141500	-9.427700	27.648445	0.000296	20.924628
2436.693738	-3.003700	3.142600	-9.439100	27.630573	0.000296	20.921818
2437.696404	-3.031800	3.139200	-9.516600	27.624219	0.000298	20.924433
2438.693050	-2.997200	3.139200	-9.407900	27.616116	0.000296	20.910117
2439.693178	-3.010700	3.137800	-9.445500	27.608526	0.000295	20.910541
2440.693777	-3.026800	3.139100	-9.499000	27.652324	0.000292	20.912886
2441.695107	-3.016400	3.137200	-9.462400	27.654260	0.000294	20.904403
2442.695312	-3.005100	3.137800	-9.429300	27.659149	0.000295	20.909796
2443.696727	-3.005400	3.136200	-9.424400	27.660082	0.000293	20.922588
2444.696099	-3.012000	3.136500	-9.445600	27.664946	0.000292	20.920844
2445.694448	-2.997300	3.133800	-9.391800	27.671678	0.000292	20.916713
2446.697051	-3.005700	3.132700	-9.414700	27.687547	0.000294	20.900441
2447.696218	-3.006000	3.132600	-9.416300	27.684543	0.000294	20.893625
2448.701151	-3.018700	3.132300	-9.455300	27.722617	0.000295	20.917712
2449.696536	-2.986000	3.131200	-9.349100	27.743618	0.000293	20.894751
2450.699494	-2.989700	3.130600	-9.358900	27.687859	0.000293	20.930149
2451.696260	-3.003300	3.129900	-9.399300	27.636388	0.000291	20.940943
2452.696244	-3.037400	3.128300	-9.501100	27.638424	0.000290	20.919761
2453.696085	-3.008700	3.130200	-9.417000	27.660378	0.000290	20.933315
2454.700159	-3.002400	3.126900	-9.387400	27.645922	0.000291	20.924460
2455.696252	-2.996600	3.127200	-9.370500	27.659461	0.000289	20.924807
2456.696661	-3.009900	3.126700	-9.409900	27.680228	0.000289	20.929582
2457.695974	-2.998100	3.127000	-9.374100	27.711184	0.000288	20.924224
2458.697649	-3.000100	3.126400	-9.378400	27.746387	0.000288	20.942577
2459.700674	-3.025200	3.123700	-9.448400	27.747060	0.000288	20.924765
2460.697935	-3.004900	3.123900	-9.386600	27.761153	0.000289	20.931835
2461.700016	-2.995000	3.123800	-9.354200	27.735609	0.000289	20.934578
2462.696711	-3.001300	3.122600	-9.370900	27.746775	0.000288	20.928745
2463.697597	-3.005400	3.121700	-9.381400	27.732109	0.000287	20.942434
2464.698054	-2.987800	3.120600	-9.322800	27.743460	0.000288	20.953855
2465.698465	-2.982700	3.120300	-9.305300	27.734221	0.000287	20.932707
2466.698247	-2.968600	3.119400	-9.259000	27.769087	0.000286	20.916587
2467.710136	-3.011600	3.117700	-9.388100	27.728610	0.000286	20.937965
2468.697769	-2.990500	3.118700	-9.323700	27.731134	0.000286	20.949986
2469.697825	-3.010400	3.117200	-9.382700	27.682038	0.000287	20.951316
2470.702235	-3.004300	3.117100	-9.364000	27.634446	0.000286	20.936619
2471.697712	-2.985100	3.115700	-9.299900	27.625603	0.000286	20.938152
2472.698977	-2.985500	3.116000	-9.301900	27.632418	0.000285	20.932208
2473.699564	-3.001500	3.115400	-9.349900	27.641574	0.000284	20.938101
2474.701701	-2.987000	3.114100	-9.300800	27.659445	0.000286	20.957030
2475.703719	-2.971400	3.114200	-9.253100	27.671924	0.000285	20.946829
2476.701602	-2.989600	3.111900	-9.302900	27.694567	0.000284	20.956336
2477.703398	-2.994800	3.111100	-9.316200	27.692707	0.000284	20.944509
2478.702117	-3.009200	3.109700	-9.357200	27.680070	0.000284	20.944594
2479.702905	-2.980000	3.109300	-9.264800	27.676098	0.000283	20.961932
2480.705749	-2.994300	3.107900	-9.305500	27.656788	0.000286	20.952460
2481.704816	-3.003800	3.107900	-9.332500	27.668071	0.000285	20.972346
2482.703755	-2.996000	3.108800	-9.313200	27.654903	0.000285	20.968104
2483.704659	-2.972500	3.106700	-9.233700	27.659026	0.000282	20.951393
2484.706729	-3.001400	3.104300	-9.316900	27.630712	0.000283	20.963203
2485.706062	-2.997500	3.103500	-9.301800	27.613159	0.000283	20.951707
2486.709202	-3.006000	3.102400	-9.324800	27.637520	0.000284	20.970053
2487.706224	-3.002900	3.101100	-9.311400	27.632067	0.000284	20.980212
2488.711562	-2.997700	3.100400	-9.293600	27.678742	0.000282	20.945155
2489.707613	-2.994600	3.099500	-9.280600	27.717515	0.000281	20.956195
2490.707171	-2.990500	3.100100	-9.270100	27.722429	0.000283	20.956873
2491.710186	-2.990500	3.098100	-9.263700	27.754149	0.000282	20.981678
2492.706244	-3.004800	3.097300	-9.306200	27.784186	0.000282	20.973974
2493.706193	-2.979300	3.098600	-9.230900	27.832925	0.000282	20.970394
2494.708191	-3.013500	3.094800	-9.325500	27.860275	0.000283	20.977530
2495.708912	-2.991900	3.093500	-9.254200	27.894103	0.000281	20.980756
2496.709056	-2.997500	3.094000	-9.272800	27.918214	0.000281	20.969463
2497.712399	-2.983500	3.094000	-9.230300	27.885733	0.000282	20.967593
2498.709547	-2.998100	3.093400	-9.273800	27.881619	0.000281	20.964875
2499.709330	-3.020100	3.091500	-9.336000	27.869186	0.000282	20.979860
2500.709545	-2.979900	3.091000	-9.209900	27.877524	0.000281	20.977346
2501.709833	-2.997200	3.088200	-9.254800	27.895030	0.000282	20.976000
2502.711417	-3.023200	3.089200	-9.338500	27.896940	0.000279	20.970811
2503.708652	-2.994900	3.088600	-9.248200	27.936084	0.000280	20.956632
2504.709727	-2.988600	3.087900	-9.226400	27.967579	0.000278	20.969839
2505.710357	-2.994200	3.087300	-9.242700	27.974579	0.000280	20.969297
2506.710323	-2.976500	3.086100	-9.184500	28.000184	0.000281	20.944814
2507.709559	-2.993400	3.085300	-9.234500	28.004878	0.000281	20.948116
2508.711104	-3.020400	3.081900	-9.306400	27.959674	0.000280	20.953823
2509.710347	-2.996700	3.081200	-9.232200	27.912018	0.000280	20.971762
2510.711012	-2.982500	3.081800	-9.189800	27.934522	0.000280	20.950319
2511.711541	-2.984200	3.081100	-9.193600	27.934623	0.000281	20.961799
2512.713072	-3.014700	3.078900	-9.281100	27.949362	0.000277	20.940127
2513.715213	-2.993300	3.078400	-9.213700	27.942725	0.000280	20.956678
2514.714846	-2.997200	3.076700	-9.220700	27.969804	0.000278	20.958804
2515.715123	-2.995500	3.076000	-9.212500	27.966171	0.000278	20.951354
2516.716818	-2.999800	3.076100	-9.226600	27.967543	0.000277	20.954631
2517.716560	-2.988900	3.073500	-9.185000	27.944494	0.000279	20.943287
2518.719862	-2.973300	3.073500	-9.137100	27.925701	0.000277	20.970835
2519.717227	-2.966900	3.074100	-9.119400	27.963826	0.000279	20.962269
2520.719005	-2.982100	3.072000	-9.160100	27.984790	0.000278	20.939751
2521.716532	-3.006700	3.070200	-9.229300	27.998551	0.000278	20.951705
2522.716612	-3.006200	3.070100	-9.228500	27.988324	0.000278	20.954211
2523.723937	-2.984600	3.068900	-9.158700	27.912682	0.000278	20.962000
2524.717477	-2.991700	3.068200	-9.178300	27.870889	0.000277	20.944595
2525.719813	-3.000800	3.066100	-9.199300	27.827630	0.000275	20.940888
2526.719397	-2.981100	3.066000	-9.138300	27.816955	0.000275	20.945316
2527.720834	-3.005400	3.064700	-9.209300	27.828347	0.000278	20.940187
2528.719895	-2.965300	3.064200	-9.085200	27.870748	0.000276	20.935446
2529.721014	-2.996200	3.062500	-9.174500	27.884040	0.000274	20.934599
2530.720237	-2.998100	3.060700	-9.173800	27.884167	0.000274	20.913866
2531.721285	-3.003100	3.059600	-9.187000	27.902650	0.000277	20.929622
2532.720863	-2.998500	3.059800	-9.174100	27.939404	0.000276	20.933898
2533.721275	-3.006400	3.057900	-9.192700	27.963135	0.000276	20.943084
2534.725277	-3.005400	3.057300	-9.186300	28.034745	0.000276	20.929344
2535.720177	-2.990300	3.055400	-9.135200	28.052543	0.000275	20.928294
2536.722117	-2.969600	3.056400	-9.075300	28.065943	0.000274	20.952212
2537.721084	-2.991400	3.054300	-9.136000	28.050004	0.000273	20.925738
2538.722299	-2.993500	3.053100	-9.138700	28.097435	0.000274	20.932232
2539.725655	-2.994000	3.051300	-9.134700	28.096644	0.000275	20.955616
2540.721369	-3.003700	3.050100	-9.160800	28.107898	0.000273	20.916689
2541.724964	-2.989200	3.049000	-9.113200	28.143148	0.000272	20.936999
2542.723341	-3.028700	3.047200	-9.227500	28.172888	0.000272	20.941809
2543.722371	-3.015700	3.046500	-9.186000	28.158531	0.000273	20.919771
2544.723679	-2.962300	3.046300	-9.023100	28.113670	0.000273	20.924869
2545.726665	-3.007700	3.042200	-9.149000	28.068939	0.000272	20.926781
2546.724627	-2.957000	3.044100	-9.000300	28.058115	0.000273	20.914464
2547.724582	-2.989800	3.042000	-9.093500	28.006603	0.000274	20.927096
2548.725403	-2.995400	3.042600	-9.112800	27.963670	0.000272	20.915176
2549.725213	-3.020900	3.040000	-9.182200	27.925949	0.000274	20.919882
2550.730606	-3.015000	3.037900	-9.157800	27.919312	0.000273	20.923633
2551.727510	-2.998200	3.037700	-9.107000	27.971097	0.000272	20.925495
2552.730215	-3.015400	3.035400	-9.151800	27.989771	0.000272	20.918689
2553.726003	-3.022000	3.034400	-9.167900	28.017253	0.000270	20.943978
2554.726861	-2.997300	3.034200	-9.092200	28.035574	0.000271	20.914059
2555.731858	-2.994500	3.033400	-9.082700	28.014822	0.000271	20.920671
2556.727858	-2.998200	3.031200	-9.086100	28.029677	0.000271	20.926614
2557.728390	-2.998900	3.032000	-9.091200	28.001633	0.000272	20.913559
2558.729393	-2.992200	3.030100	-9.065000	28.035633	0.000270	20.909852
2559.729901	-3.000800	3.028800	-9.087900	28.061708	0.000272	20.904331
2560.729258	-2.987500	3.028200	-9.045400	28.080482	0.000273	20.901894
2561.729441	-3.018700	3.026400	-9.134300	28.098751	0.000273	20.914593
2562.729595	-2.989400	3.024800	-9.040900	28.143673	0.000274	20.889643
2563.729383	-2.967200	3.024100	-8.972200	28.158719	0.000273	20.903841
2564.728918	-2.986000	3.023400	-9.026800	28.188694	0.000272	20.896086
2565.729622	-2.983100	3.022200	-9.014400	28.154556	0.000273	20.924304
2566.732721	-2.998300	3.019600	-9.052600	28.125263	0.000273	20.922315
2567.730426	-2.980500	3.019400	-8.997400	28.068043	0.000271	20.925879
2568.731356	-2.995200	3.017900	-9.038100	28.033632	0.000272	20.910682
2569.730590	-2.997500	3.015600	-9.037700	27.939150	0.000271	20.910886
2570.735813	-3.006200	3.014200	-9.060000	27.903423	0.000272	20.917599
2571.733676	-2.971600	3.014000	-8.956100	27.913148	0.000272	20.896570
2572.732363	-2.981900	3.013800	-8.985500	27.892075	0.000272	20.912817
2573.730249	-3.027400	3.011300	-9.115200	27.909724	0.000272	20.911140
2574.730030	-2.997900	3.011000	-9.024600	27.903777	0.000271	20.919852
2575.730265	-2.996500	3.009000	-9.015200	27.897754	0.000274	20.902886
2576.730656	-2.998100	3.009500	-9.021600	27.938638	0.000272	20.920800
2577.733047	-3.015900	3.006400	-9.066100	27.994578	0.000271	20.899347
2578.730990	-2.987700	3.005900	-8.980300	27.941246	0.000272	20.891660
2579.736526	-2.966400	3.005700	-8.913700	27.917524	0.000271	20.891017
2580.731174	-2.979700	3.004200	-8.950500	27.893599	0.000270	20.884481
2581.731120	-2.983800	3.001300	-8.954000	27.884227	0.000271	20.879316
2582.732958	-3.010700	2.999200	-9.028100	27.892378	0.000269	20.889416
2583.730335	-3.006300	2.999600	-9.017200	27.936209	0.000270	20.896072
2584.731064	-2.989100	2.999900	-8.966000	27.933407	0.000271	20.889460
2585.732474	-2.975100	2.997700	-8.916900	27.953083	0.000270	20.895987
2586.733762	-3.000300	2.995100	-8.984400	27.936999	0.000270	20.906350
2587.732570	-3.000400	2.994800	-8.985000	27.989086	0.000269	20.899983
2588.736865	-3.004900	2.992300	-8.990600	27.987850	0.000267	20.903480
2589.734556	-2.993700	2.991300	-8.953400	27.982870	0.000268	20.900365
2590.734534	-2.987200	2.991200	-8.933700	27.995118	0.000270	20.889460
2591.734942	-3.002600	2.991000	-8.979900	28.023356	0.000271	20.895124
2592.734818	-3.003300	2.987100	-8.970200	28.036772	0.000270	20.888241
2593.737654	-2.997700	2.987900	-8.956000	28.064513	0.000270	20.888190
2594.734954	-3.003100	2.985900	-8.965800	28.101724	0.000268	20.901940
2595.736930	-2.991000	2.985000	-8.926600	28.104290	0.000269	20.890299
2596.736036	-3.003500	2.981500	-8.953800	28.134510	0.000268	20.906496
2597.734978	-2.998500	2.981800	-8.940300	28.132743	0.000267	20.894761
2598.738427	-3.010200	2.980100	-8.969700	28.158799	0.000269	20.902973
2599.739338	-3.020600	2.977900	-8.993200	28.148362	0.000268	20.891044
2600.743692	-3.008100	2.978100	-8.957400	28.180136	0.000266	20.881307
2601.737683	-2.996000	2.976800	-8.917700	28.194837	0.000269	20.891840
2602.736394	-3.013200	2.973100	-8.957400	28.214131	0.000268	20.894194
2603.738395	-2.979600	2.974400	-8.861600	28.213660	0.000267	20.895142
2604.740060	-3.016900	2.970900	-8.961900	28.211877	0.000268	20.898089
2605.737242	-3.012300	2.969300	-8.943000	28.184274	0.000268	20.890214
2606.743562	-2.998500	2.969600	-8.904000	28.143156	0.000267	20.903820
2607.738399	-2.999100	2.967600	-8.899100	28.106787	0.000268	20.888072
2608.738274	-3.000800	2.966400	-8.900400	28.076399	0.000268	20.878345
2609.743893	-3.008800	2.964100	-8.917300	28.036471	0.000267	20.869447
2610.738893	-3.018600	2.962000	-8.940500	28.050694	0.000267	20.883289
2611.742433	-3.028300	2.962100	-8.968300	28.066583	0.000266	20.883162
2612.738883	-2.999700	2.962300	-8.884100	28.074701	0.000269	20.885170
2613.738620	-2.993800	2.959900	-8.860100	28.078065	0.000268	20.873858
2614.740864	-3.012000	2.957900	-8.907700	28.104862	0.000267	20.879496
2615.740977	-3.003800	2.956400	-8.879600	28.142862	0.000268	20.874129
2616.740307	-3.032700	2.952900	-8.954200	28.139741	0.000267	20.876677
2617.741625	-3.010500	2.952600	-8.888100	28.075794	0.000267	20.892908
2618.740963	-3.000000	2.952500	-8.856900	28.081817	0.000267	20.874316
2619.745911	-3.020800	2.950000	-8.910500	28.065331	0.000268	20.867678
2620.743678	-3.023700	2.948300	-8.912600	28.073708	0.000266	20.882274
2621.741920	-3.008900	2.947800	-8.869000	28.105115	0.000270	20.874536
2622.743466	-2.990400	2.946900	-8.811700	28.129405	0.000266	20.860582
2623.742536	-3.007800	2.944700	-8.855700	28.108968	0.000267	20.887896
2624.742437	-2.990600	2.943000	-8.800700	28.106326	0.000268	20.868168
2625.744014	-3.005300	2.942600	-8.842100	28.124780	0.000266	20.864935
2626.743907	-3.008900	2.938900	-8.841800	28.176664	0.000267	20.887769
2627.743004	-3.000900	2.938400	-8.815700	28.174679	0.000267	20.890038
2628.744276	-2.978400	2.936500	-8.745000	28.180575	0.000268	20.873215
2629.746205	-2.988200	2.935900	-8.772200	28.220733	0.000267	20.877135
2630.743915	-3.007600	2.933600	-8.822200	28.251522	0.000266	20.856926
2631.746353	-2.967100	2.934400	-8.704800	28.251867	0.000266	20.869126
2632.745555	-2.983800	2.930500	-8.743000	28.243162	0.000267	20.865578
2633.747324	-2.980300	2.930900	-8.733000	28.260394	0.000266	20.857798
2634.746033	-2.990100	2.927500	-8.753100	28.256677	0.000266	20.864960
2635.746146	-2.982900	2.925300	-8.725000	28.260966	0.000265	20.854106
2636.753175	-2.998100	2.924800	-8.768300	28.262303	0.000266	20.869202
2637.748535	-3.020300	2.922800	-8.827100	28.275986	0.000268	20.853581
2638.751114	-3.013500	2.921100	-8.801500	28.207749	0.000265	20.858374
2639.749521	-3.018600	2.919400	-8.811100	28.168876	0.000265	20.872817
2640.748897	-2.979600	2.918900	-8.695600	28.095644	0.000266	20.866425
2641.752801	-3.002500	2.916100	-8.754200	28.051671	0.000264	20.861040
2642.751705	-2.995700	2.914300	-8.730000	28.028875	0.000266	20.867491
2643.748871	-2.992000	2.912200	-8.712400	28.071723	0.000265	20.859889
2644.748371	-2.997400	2.911000	-8.724000	28.104821	0.000268	20.854326
2645.749676	-2.977600	2.911500	-8.668300	28.145864	0.000267	20.843962
2646.749859	-2.985300	2.908800	-8.682800	28.136444	0.000265	20.858660
2647.751399	-2.984600	2.907600	-8.677600	28.098015	0.000267	20.855536
2648.749047	-3.000100	2.904100	-8.711500	28.086685	0.000265	20.855036
2649.753970	-2.989700	2.903600	-8.680100	28.090159	0.000266	20.853318
2650.749061	-2.985900	2.901700	-8.663300	28.098746	0.000266	20.851530
2651.749436	-3.003500	2.899300	-8.707700	28.079662	0.000268	20.841802
2652.750207	-3.020100	2.895800	-8.745200	28.054116	0.000267	20.846907
2653.748523	-2.998700	2.896200	-8.684500	28.050230	0.000267	20.834935
2654.749578	-2.997000	2.895200	-8.675900	28.018847	0.000267	20.836062
2655.748610	-2.997100	2.894100	-8.672500	28.023818	0.000266	20.822099
2656.750273	-3.008800	2.891600	-8.699100	28.054410	0.000267	20.841987
2657.752835	-3.003200	2.889200	-8.675400	28.076178	0.000267	20.844460
2658.748361	-3.008800	2.886900	-8.685500	28.089266	0.000266	20.849099
2659.753168	-3.002000	2.885200	-8.660800	28.095683	0.000267	20.832801
2660.750477	-3.009400	2.884600	-8.680200	28.087373	0.000268	20.850513
2661.750945	-3.031300	2.879600	-8.727400	28.137476	0.000268	20.831725
2662.750504	-2.983700	2.880400	-8.592200	28.175601	0.000268	20.837864
2663.753251	-2.991700	2.878100	-8.610100	28.204296	0.000267	20.840200
2664.750517	-3.049000	2.874800	-8.764200	28.240367	0.000267	20.864660
2665.749914	-3.045000	2.871300	-8.741900	28.266386	0.000267	20.834434
2666.751002	-2.983300	2.873300	-8.571100	28.283197	0.000266	20.845195
2667.751297	-3.009900	2.870000	-8.637200	28.335915	0.000267	20.857972
2668.753798	-2.992600	2.869100	-8.584700	28.380953	0.000267	20.828880
2669.752403	-3.012400	2.866300	-8.633600	28.408853	0.000267	20.826628
2670.752704	-3.018300	2.864100	-8.643300	28.432472	0.000269	20.826704
2671.756345	-2.954900	2.863400	-8.459100	28.469274	0.000267	20.826306
2672.753281	-2.939100	2.862000	-8.411000	28.475076	0.000266	20.826459
2673.754965	-2.973800	2.858600	-8.499900	28.493524	0.000266	20.850251
2674.752494	-2.971900	2.857900	-8.492900	28.519537	0.000264	20.822395
2675.753222	-2.986600	2.855800	-8.527700	28.532098	0.000266	20.833622
2676.756271	-2.972200	2.853600	-8.480200	28.532123	0.000263	20.844078
2677.752412	-2.988600	2.852200	-8.523000	28.475682	0.000266	20.828018
2678.754163	-2.976900	2.848600	-8.478600	28.439300	0.000267	20.820778
2679.755073	-2.979900	2.847100	-8.482500	28.433062	0.000267	20.834885
2680.754971	-3.017300	2.844300	-8.581500	28.486126	0.000265	20.843276
2681.754932	-3.010500	2.841800	-8.554400	28.491533	0.000265	20.833073
2682.753935	-3.023600	2.838200	-8.579700	28.553185	0.000265	20.841583
2683.754849	-2.984100	2.840700	-8.476000	28.583813	0.000265	20.836392
2684.758187	-3.001600	2.837000	-8.513900	28.565603	0.000266	20.821847
2685.753829	-2.992300	2.835100	-8.481200	28.572842	0.000265	20.829137
2686.754962	-2.999000	2.831100	-8.489400	28.521776	0.000266	20.821331
2687.756796	-2.986000	2.829900	-8.449300	28.454446	0.000266	20.836978
2688.755452	-3.014400	2.828600	-8.525900	28.445424	0.000264	20.808927
2689.762305	-2.985400	2.825400	-8.433600	28.424857	0.000264	20.825675
2690.757370	-2.994800	2.822700	-8.452300	28.414087	0.000265	20.820993
2691.756158	-3.003700	2.820700	-8.471800	28.417636	0.000266	20.827411
2692.755928	-2.997100	2.819300	-8.448500	28.399044	0.000265	20.809165
2693.754485	-2.992000	2.817500	-8.429100	28.369530	0.000264	20.831602
2694.755233	-2.995800	2.814900	-8.432100	28.362138	0.000266	20.818944
2695.757459	-3.004000	2.813500	-8.450700	28.404173	0.000263	20.827606
2696.754912	-3.021300	2.807500	-8.481300	28.373449	0.000263	20.837445
2697.760885	-2.990800	2.808700	-8.398100	28.389955	0.000264	20.836048
2698.769809	-3.001600	2.806000	-8.421400	28.418855	0.000265	20.831010
2699.758183	-2.967400	2.802400	-8.314500	28.421387	0.000264	20.817912
2700.757658	-3.007400	2.798400	-8.414200	28.458307	0.000264	20.801037
2701.757361	-2.989200	2.796400	-8.356400	28.447528	0.000264	20.819106
2702.758903	-3.017900	2.793200	-8.428300	28.464083	0.000263	20.798794
2703.758489	-2.994200	2.793000	-8.361300	28.449032	0.000265	20.813983
2704.758450	-2.987100	2.788500	-8.327200	28.446064	0.000264	20.831383
2705.759483	-3.014300	2.786700	-8.399600	28.446358	0.000263	20.822670
2706.762874	-2.995200	2.784900	-8.341100	28.474316	0.000262	20.816684
2707.762601	-2.963700	2.782400	-8.244800	28.494628	0.000264	20.821019
2708.759203	-2.995800	2.778600	-8.323300	28.550556	0.000263	20.805270
2709.760099	-2.969100	2.776500	-8.241600	28.621023	0.000264	20.824557
2710.761365	-2.997500	2.772100	-8.308400	28.634045	0.000264	20.813016
2711.763935	-2.978100	2.770400	-8.248700	28.671159	0.000263	20.822897
2712.762008	-3.017600	2.766400	-8.346300	28.688460	0.000263	20.802390
2713.762659	-2.990100	2.765800	-8.268800	28.690763	0.000262	20.798072
2714.762371	-3.020800	2.759500	-8.334400	28.694217	0.000263	20.821939
2715.761642	-3.003500	2.758900	-8.285700	28.683264	0.000264	20.827976
2716.763722	-2.990400	2.755900	-8.240000	28.733011	0.000263	20.816918
2717.764384	-3.019300	2.751600	-8.306600	28.738928	0.000264	20.819085
2718.761712	-2.980400	2.750400	-8.196300	28.741349	0.000263	20.817256
2719.761339	-2.972100	2.747100	-8.164000	28.793001	0.000265	20.814284
2720.763189	-2.990900	2.744500	-8.207600	28.774634	0.000264	20.803843
2721.765034	-3.021700	2.740100	-8.279000	28.800868	0.000264	20.805139
2722.766695	-2.986000	2.738000	-8.175000	28.804204	0.000263	20.816086
2723.764345	-2.977100	2.734200	-8.139000	28.824141	0.000264	20.803927
2724.766116	-3.014000	2.728700	-8.222100	28.835336	0.000263	20.799083
2725.764556	-2.992900	2.728500	-8.164500	28.881587	0.000263	20.793993
2726.764655	-2.985600	2.724400	-8.132300	28.875190	0.000264	20.794187
2727.768248	-3.016700	2.720300	-8.205600	28.825785	0.000262	20.805109
2728.766404	-2.998200	2.717600	-8.146900	28.750396	0.000261	20.798395
2729.767442	-2.992000	2.714100	-8.119000	28.684509	0.000263	20.794618
2730.771137	-3.006500	2.711900	-8.152100	28.669645	0.000262	20.788181
2731.768310	-2.993900	2.706600	-8.102300	28.648495	0.000264	20.786319
2732.766566	-2.995300	2.702000	-8.092200	28.620113	0.000262	20.791873
2733.768904	-2.972700	2.701700	-8.029200	28.614060	0.000262	20.804268
2734.767858	-2.970900	2.696700	-8.009700	28.641583	0.000264	20.815867
2735.767644	-2.993400	2.693400	-8.061400	28.654646	0.000263	20.781608
2736.768198	-2.995100	2.690400	-8.057800	28.662001	0.000262	20.802293
2737.768769	-2.989500	2.686200	-8.029200	28.715212	0.000263	20.791878
2738.773712	-3.033200	2.679900	-8.127900	28.753055	0.000265	20.821461
2739.768011	-3.010600	2.676800	-8.057000	28.733082	0.000263	20.787592
2740.772323	-3.001900	2.674100	-8.026800	28.716648	0.000264	20.798540
2741.767797	-3.013900	2.668800	-8.042900	28.703525	0.000265	20.789589
2742.770089	-3.014800	2.665500	-8.034300	28.751211	0.000265	20.772663
2743.770001	-2.987400	2.661000	-7.948900	28.762794	0.000262	20.794287
2744.773642	-2.978300	2.657500	-7.913600	28.791397	0.000263	20.785167
2745.771395	-2.996800	2.654000	-7.952300	28.806359	0.000263	20.793126
2746.770630	-2.998500	2.649600	-7.942900	28.828144	0.000263	20.780933
2747.774701	-2.989600	2.645500	-7.908400	28.871286	0.000264	20.797366
2748.774718	-3.004600	2.642400	-7.938300	28.847668	0.000262	20.784005
2749.776120	-3.035100	2.634700	-7.994900	28.865863	0.000265	20.794749
2750.773252	-2.972300	2.633100	-7.825400	28.908407	0.000263	20.771700
2751.777957	-3.029000	2.625500	-7.951400	28.889345	0.000264	20.796593
2752.773456	-3.011900	2.621900	-7.895600	28.855843	0.000262	20.779438
2753.773899	-2.984400	2.618200	-7.812400	28.814808	0.000262	20.791207
2754.775152	-2.983900	2.614000	-7.798400	28.784709	0.000262	20.809724
2755.775425	-3.015700	2.606200	-7.858400	28.809142	0.000263	20.799249
2756.776493	-3.015200	2.602400	-7.846000	28.823649	0.000262	20.799164
2757.776479	-3.023200	2.596600	-7.849000	28.818194	0.000263	20.792720
2758.776837	-2.991700	2.593300	-7.757900	28.795263	0.000261	20.804709
2759.778711	-3.003900	2.588100	-7.772200	28.810645	0.000262	20.796021
2760.781734	-3.009200	2.580800	-7.764200	28.778619	0.000263	20.776563
2761.779364	-2.993300	2.576600	-7.710500	28.763648	0.000263	20.795148
2762.778665	-3.016700	2.568700	-7.747600	28.820981	0.000261	20.781777
2763.778855	-3.011600	2.564700	-7.722600	28.858762	0.000262	20.781430
2764.779283	-2.967900	2.561300	-7.600200	28.917804	0.000262	20.802030
2765.783267	-3.019100	2.553500	-7.708000	28.971397	0.000263	20.802918
2766.780978	-3.055100	2.548000	-7.783600	28.955429	0.000262	20.785882
2767.784735	-3.007500	2.544100	-7.649100	28.921802	0.000261	20.797524
2768.781055	-3.013100	2.535200	-7.638000	28.899311	0.000261	20.796676
2769.782111	-3.023100	2.531300	-7.651700	28.883628	0.000264	20.792730
2770.785992	-2.987300	2.523800	-7.538800	28.927238	0.000260	20.788301
2771.785401	-2.975600	2.519200	-7.494800	28.968065	0.000263	20.779647
2772.781394	-2.987700	2.513000	-7.507000	28.953391	0.000262	20.783355
2773.786062	-2.979000	2.507300	-7.468800	28.922219	0.000262	20.801736
2774.784747	-3.003100	2.501100	-7.509600	28.932656	0.000263	20.790441
2775.783674	-3.011100	2.494000	-7.507700	28.942102	0.000261	20.781939
