LabVIEW Measurement	
Writer_Version	2
Reader_Version	2
Separator	Tab
Decimal_Separator	.
Multi_Headings	No
X_Columns	One
Time_Pref	Absolute
Operator	admin
Description	Clolumns are: time, Current, Voltage, Power, Battery Temp, and Chamber Temp
Date	2024/08/16
Time	13:06:06.104549407958984375
***End_of_Header***	
	
Channels	6						
Samples	1	1	1	1	1	1	
Date	2024/09/07	2024/09/07	2024/09/07	2024/09/07	2024/09/07	2024/09/07	
Time	21:33:16.2586126327514648438	21:33:16.2646985054016113281	21:33:16.2703962326049804688	21:33:16.2425241470336914063	21:33:16.2425241470336914063	21:33:16.2425241470336914063	
X_Dimension	Time	Time	Time	Time	Time	Time	
X0	0.0000000000000000E+0	0.0000000000000000E+0	0.0000000000000000E+0	0.0000000000000000E+0	0.0000000000000000E+0	0.0000000000000000E+0	
Delta_X	1.000000	1.000000	1.000000	1.000000	1.000000	1.000000	
***End_of_Header***							
X_Value	Untitled	Untitled 1	Untitled 2	Untitled 3	Untitled 4	Untitled 5	Comment
0.000000	3.400000E+38	4.097500	0.190860	20.976637	0.000916	20.835352
1.000305	-3.007800	3.924800	-11.803000	20.972691	0.000915	20.840414
2.000331	-2.992400	3.918900	-11.726000	20.986691	0.000915	20.836873
3.001782	-3.001400	3.914200	-11.747000	20.972014	0.000913	20.834522
4.000735	-3.002100	3.909700	-11.737000	20.995145	0.000913	20.833475
5.002369	-2.994200	3.906700	-11.695000	20.966196	0.000912	20.833445
6.002283	-2.999900	3.903300	-11.708000	20.989801	0.000911	20.828131
7.001671	-2.962100	3.902100	-11.558000	20.997036	0.000910	20.829676
8.003208	-3.006600	3.898900	-11.722000	20.974730	0.000911	20.809738
9.001472	-2.988100	3.897300	-11.644000	20.977673	0.000908	20.829276
10.003672	-2.999000	3.895200	-11.680000	20.977643	0.000908	20.826876
11.002666	-2.985400	3.894000	-11.624000	20.995806	0.000907	20.835558
12.002555	-2.978800	3.892600	-11.595000	20.989815	0.000907	20.842369
13.005381	-3.011000	3.890300	-11.713000	20.997025	0.000909	20.821605
14.004544	-2.967800	3.890600	-11.545000	20.994951	0.000907	20.837074
15.003443	-2.987000	3.887600	-11.612000	21.026461	0.000905	20.824968
16.005050	-3.010600	3.885800	-11.697000	21.006027	0.000907	20.825393
17.004164	-2.994200	3.886200	-11.635000	21.014783	0.000904	20.843158
18.005162	-2.963300	3.888000	-11.520000	21.013829	0.000903	20.819920
19.005871	-3.005800	3.883200	-11.671000	21.005874	0.000901	20.838990
20.005589	-3.006100	3.883300	-11.672000	21.026199	0.000903	20.832292
21.005975	-2.980000	3.882900	-11.569000	21.027448	0.000902	20.800352
22.007122	-3.013600	3.880500	-11.694000	21.018762	0.000901	20.823906
23.006199	-3.015000	3.878900	-11.694000	21.023374	0.000902	20.817613
24.007979	-2.994900	3.878800	-11.616000	21.030331	0.000902	20.804184
25.006568	-3.010000	3.878000	-11.671000	21.047170	0.000900	20.812017
26.004910	-3.028000	3.876900	-11.737000	21.086110	0.000898	20.818724
27.007175	-3.014500	3.877100	-11.686000	21.070640	0.000899	20.844026
28.007512	-3.005200	3.876400	-11.648000	21.077548	0.000899	20.825332
29.006851	-3.008500	3.875800	-11.659000	21.064516	0.000898	20.830315
30.005942	-3.012600	3.875300	-11.673000	21.074866	0.000899	20.824546
31.008860	-2.998600	3.874800	-11.616000	21.111292	0.000899	20.831109
32.008690	-3.009700	3.874500	-11.660000	21.099110	0.000898	20.824614
33.009392	-2.999000	3.873900	-11.617000	21.103021	0.000898	20.810982
34.008858	-3.026600	3.873800	-11.723000	21.094088	0.000898	20.813427
35.008127	-3.012500	3.873000	-11.666000	21.126470	0.000895	20.826851
36.009289	-2.997000	3.871700	-11.602000	21.126717	0.000895	20.820934
37.008461	-3.006000	3.869900	-11.632000	21.119423	0.000896	20.814113
38.009419	-2.997500	3.871600	-11.602000	21.112214	0.000895	20.818281
39.008200	-2.986400	3.870700	-11.557000	21.110584	0.000895	20.809539
40.008878	-3.014100	3.869100	-11.660000	21.114198	0.000894	20.822163
41.011188	-2.981500	3.871400	-11.542000	21.139716	0.000895	20.817342
42.009146	-2.980600	3.870600	-11.536000	21.160523	0.000896	20.806387
43.010088	-3.000300	3.868600	-11.607000	21.160093	0.000894	20.811647
44.009660	-2.991400	3.868200	-11.571000	21.159392	0.000895	20.807627
45.011488	-2.990300	3.867000	-11.562000	21.163283	0.000894	20.815312
46.010376	-2.975100	3.868100	-11.506000	21.163204	0.000894	20.816181
47.011530	-2.990800	3.866500	-11.563000	21.199123	0.000895	20.808490
48.010318	-2.986400	3.867100	-11.548000	21.198723	0.000894	20.819470
49.012012	-3.024300	3.865900	-11.690000	21.209146	0.000893	20.809508
50.010510	-2.998100	3.866000	-11.589000	21.205576	0.000893	20.800247
51.013037	-3.013300	3.865000	-11.646000	21.190083	0.000893	20.823628
52.012650	-2.986700	3.865400	-11.543000	21.219588	0.000891	20.805255
53.015534	-3.016000	3.864100	-11.653000	21.221657	0.000893	20.803531
54.011895	-2.988000	3.865900	-11.550000	21.231106	0.000893	20.814880
55.011907	-2.985800	3.865100	-11.539000	21.222832	0.000892	20.801861
56.009971	-2.984100	3.865600	-11.535000	21.252257	0.000893	20.815177
57.011334	-2.993800	3.864300	-11.568000	21.237860	0.000893	20.807886
58.010967	-2.982200	3.863400	-11.520000	21.256967	0.000891	20.806138
59.009882	-2.957900	3.863700	-11.427000	21.277342	0.000892	20.809452
60.015744	-3.018800	3.861800	-11.657000	21.258803	0.000893	20.809397
61.011978	-2.980800	3.863500	-11.515000	21.274197	0.000890	20.811047
62.016475	-3.000300	3.862500	-11.588000	21.270104	0.000890	20.822599
63.013038	-3.004900	3.862100	-11.605000	21.290731	0.000891	20.789656
64.017972	-2.990900	3.862100	-11.550000	21.287087	0.000892	20.814460
65.011305	-3.014900	3.862000	-11.643000	21.297781	0.000893	20.803821
66.013617	-2.997300	3.861500	-11.573000	21.307353	0.000891	20.809130
67.016606	-3.004300	3.860700	-11.598000	21.293984	0.000892	20.820885
68.012129	-2.993800	3.861300	-11.558000	21.321867	0.000892	20.795676
69.015105	-2.987700	3.860400	-11.532000	21.319917	0.000891	20.801311
70.015759	-3.009900	3.860300	-11.617000	21.316491	0.000891	20.802624
71.013117	-2.988200	3.859400	-11.531000	21.328586	0.000892	20.809509
72.015989	-3.015500	3.858800	-11.635000	21.349612	0.000892	20.808734
73.018431	-2.996500	3.859500	-11.564000	21.354992	0.000891	20.789461
74.014240	-3.018300	3.858900	-11.645000	21.367887	0.000890	20.789086
75.016671	-2.992200	3.858900	-11.544000	21.370207	0.000892	20.810373
76.019426	-3.005400	3.858500	-11.595000	21.376161	0.000890	20.795467
77.015710	-2.987900	3.857600	-11.524000	21.394115	0.000890	20.820542
78.018789	-2.999300	3.857200	-11.568000	21.395364	0.000892	20.786231
79.018888	-2.988400	3.857400	-11.526000	21.414937	0.000893	20.798228
80.016343	-2.970500	3.858000	-11.459000	21.430348	0.000893	20.803690
81.018716	-3.003600	3.858400	-11.588000	21.437871	0.000894	20.769017
82.021915	-3.011600	3.855700	-11.610000	21.451461	0.000891	20.787356
83.018435	-3.001500	3.856100	-11.573000	21.445221	0.000893	20.785855
84.021422	-3.007600	3.856600	-11.598000	21.436365	0.000892	20.771304
85.022416	-3.023100	3.855100	-11.653000	21.444317	0.000892	20.775941
86.019087	-2.997200	3.855300	-11.554000	21.451796	0.000892	20.784373
87.022018	-3.020100	3.854100	-11.639000	21.466955	0.000892	20.808549
88.023372	-3.005100	3.854800	-11.583000	21.454758	0.000892	20.793026
89.020100	-3.000000	3.855600	-11.564000	21.488250	0.000892	20.783389
90.021201	-2.998500	3.854100	-11.556000	21.482682	0.000892	20.801526
91.026304	-3.020300	3.854000	-11.639000	21.483303	0.000894	20.799777
92.020762	-2.993500	3.854900	-11.538000	21.494252	0.000891	20.807887
93.023092	-3.001600	3.854500	-11.568000	21.485520	0.000892	20.799624
94.026920	-2.985500	3.854400	-11.506000	21.485115	0.000894	20.796848
95.022586	-3.011400	3.854000	-11.604000	21.487558	0.000892	20.772740
96.024296	-3.003500	3.853800	-11.574000	21.501271	0.000892	20.798315
97.030704	-2.990200	3.853900	-11.521000	21.513690	0.000892	20.791301
98.023499	-3.010200	3.853100	-11.597000	21.519174	0.000893	20.799634
99.025017	-3.004900	3.852800	-11.575000	21.517875	0.000893	20.800231
100.024576	-3.021800	3.851500	-11.637000	21.536948	0.000892	20.778538
101.025687	-2.973800	3.853600	-11.459000	21.559446	0.000894	20.798680
102.028389	-2.995600	3.850700	-11.534000	21.526972	0.000893	20.779936
103.026549	-2.978600	3.850800	-11.469000	21.538118	0.000893	20.788718
104.026526	-2.997700	3.852000	-11.546000	21.549589	0.000894	20.775540
105.028669	-2.999000	3.850900	-11.548000	21.575694	0.000893	20.777481
106.028738	-3.024900	3.849100	-11.641000	21.578986	0.000893	20.776508
107.030395	-3.017600	3.849300	-11.614000	21.580102	0.000895	20.766719
108.031122	-3.006400	3.850300	-11.575000	21.580778	0.000893	20.774508
109.029258	-2.982300	3.850500	-11.482000	21.587234	0.000894	20.774804
110.029256	-3.002100	3.849100	-11.555000	21.611325	0.000893	20.769514
111.031782	-3.012200	3.849700	-11.595000	21.603689	0.000893	20.746700
112.031266	-2.987000	3.850800	-11.501000	21.618960	0.000896	20.782371
113.032946	-3.022500	3.849300	-11.631000	21.635060	0.000896	20.772878
114.034457	-3.004800	3.848200	-11.562000	21.650074	0.000895	20.748547
115.033683	-2.992800	3.847300	-11.513000	21.636560	0.000895	20.752568
116.034817	-2.989100	3.849000	-11.503000	21.626833	0.000895	20.774601
117.034254	-2.977800	3.850200	-11.463000	21.645410	0.000895	20.769010
118.033248	-3.012000	3.847000	-11.586000	21.671266	0.000896	20.781136
119.034314	-3.000200	3.848500	-11.544000	21.678669	0.000896	20.774794
120.034102	-3.010900	3.846600	-11.580000	21.693688	0.000898	20.769909
121.035374	-3.000000	3.847700	-11.542000	21.714504	0.000897	20.751387
122.035560	-2.990400	3.847800	-11.504000	21.705527	0.000896	20.777491
123.037112	-3.017000	3.846000	-11.603000	21.716774	0.000897	20.765513
124.035457	-3.015400	3.846500	-11.597000	21.709544	0.000894	20.774399
125.035987	-2.986900	3.848200	-11.493000	21.742082	0.000897	20.775194
126.038974	-2.981000	3.846700	-11.466000	21.735750	0.000899	20.774073
127.035988	-3.021200	3.845300	-11.617000	21.737571	0.000898	20.773999
128.036993	-3.012600	3.846000	-11.586000	21.753778	0.000897	20.769356
129.039083	-2.991500	3.845900	-11.503000	21.747170	0.000897	20.758475
130.039127	-2.996600	3.845000	-11.521000	21.725954	0.000898	20.764743
131.043386	-3.002800	3.845200	-11.545000	21.761659	0.000898	20.747846
132.039765	-3.000700	3.844300	-11.533000	21.773360	0.000898	20.761453
133.040171	-3.007400	3.843700	-11.559000	21.756902	0.000897	20.755887
134.041110	-3.002300	3.844200	-11.540000	21.751468	0.000901	20.743810
135.042984	-3.004900	3.843400	-11.547000	21.760864	0.000900	20.756534
136.042025	-2.996200	3.842800	-11.513000	21.755515	0.000900	20.737429
137.041607	-3.006000	3.843000	-11.551000	21.768252	0.000901	20.755393
138.040189	-2.992400	3.843200	-11.500000	21.788554	0.000901	20.765281
139.041181	-3.005200	3.842700	-11.545000	21.789448	0.000903	20.741993
140.042099	-3.009300	3.842800	-11.561000	21.811368	0.000900	20.743544
141.040971	-3.008700	3.842100	-11.560000	21.804114	0.000901	20.752405
142.046963	-3.027400	3.841000	-11.626000	21.803438	0.000901	20.756944
143.041914	-3.013200	3.841800	-11.574000	21.827554	0.000901	20.745045
144.042392	-3.008900	3.841500	-11.557000	21.830939	0.000903	20.768349
145.043183	-3.013600	3.842100	-11.578000	21.827825	0.000903	20.749584
146.042120	-3.012000	3.840900	-11.567000	21.833234	0.000903	20.751204
147.042796	-3.007700	3.840800	-11.550000	21.882949	0.000903	20.746438
148.046834	-3.012000	3.840000	-11.564000	21.865348	0.000904	20.749683
149.043979	-3.002700	3.841700	-11.534000	21.877734	0.000904	20.727940
150.044093	-3.026600	3.839400	-11.619000	21.898828	0.000903	20.755220
151.044022	-2.980100	3.842200	-11.447000	21.900348	0.000905	20.757690
152.044514	-3.015300	3.839400	-11.575000	21.926599	0.000905	20.755991
153.042282	-3.011800	3.840600	-11.566000	21.916424	0.000906	20.752444
154.046166	-3.005400	3.839200	-11.535000	21.938692	0.000904	20.742017
155.043939	-3.000000	3.839300	-11.517000	21.953796	0.000907	20.756662
156.044915	-2.994300	3.839600	-11.496000	21.957334	0.000906	20.747875
157.048637	-3.026100	3.838600	-11.615000	21.941900	0.000908	20.741909
158.045957	-3.032900	3.837000	-11.636000	21.951970	0.000908	20.728755
159.046804	-2.997100	3.839300	-11.506000	21.941673	0.000908	20.754484
160.048315	-3.002800	3.840100	-11.529000	21.951541	0.000909	20.743499
161.046188	-3.021300	3.839100	-11.597000	21.981653	0.000909	20.744245
162.044183	-2.994100	3.839400	-11.494000	21.958740	0.000909	20.743118
163.052136	-3.027100	3.837200	-11.615000	21.987086	0.000909	20.744467
164.044487	-2.987600	3.838500	-11.467000	21.978930	0.000910	20.744363
165.047602	-2.990300	3.837300	-11.474000	21.986755	0.000911	20.748403
166.049727	-3.012000	3.836000	-11.553000	21.993105	0.000912	20.764244
167.045918	-2.991200	3.837800	-11.477000	21.997792	0.000912	20.749495
168.045762	-3.006400	3.837400	-11.535000	21.987293	0.000914	20.757477
169.048551	-3.008600	3.836400	-11.541000	22.019250	0.000914	20.735887
170.044416	-2.994600	3.836300	-11.487000	21.988783	0.000914	20.759917
171.044877	-2.999800	3.835400	-11.505000	22.017054	0.000915	20.742224
172.049411	-3.018700	3.835500	-11.577000	22.018495	0.000916	20.743192
173.047312	-3.006300	3.835600	-11.530000	22.022156	0.000914	20.752073
174.046340	-3.000600	3.835400	-11.508000	22.075080	0.000915	20.738199
175.049259	-3.008800	3.834900	-11.537000	22.048325	0.000917	20.737018
176.047106	-3.018900	3.835300	-11.576000	22.069638	0.000914	20.759304
177.046783	-3.003300	3.834700	-11.515000	22.075795	0.000916	20.734173
178.052553	-3.012000	3.835200	-11.550000	22.087878	0.000917	20.733467
179.047868	-3.025600	3.833200	-11.596000	22.090270	0.000917	20.750087
180.045675	-2.994300	3.835200	-11.482000	22.096797	0.000918	20.764683
181.047422	-3.009700	3.832500	-11.533000	22.106585	0.000918	20.735126
182.049215	-3.007200	3.834700	-11.529000	22.093077	0.000919	20.741992
183.048669	-3.005600	3.833500	-11.521000	22.120942	0.000920	20.747129
184.051709	-2.992400	3.832400	-11.466000	22.110024	0.000919	20.755639
185.048233	-2.985100	3.833700	-11.442000	22.108302	0.000921	20.745380
186.047448	-3.003100	3.833100	-11.510000	22.158795	0.000921	20.749465
187.048320	-3.003700	3.831600	-11.508000	22.141548	0.000920	20.751638
188.047153	-3.004700	3.833000	-11.516000	22.139718	0.000921	20.780152
189.052375	-3.001700	3.831400	-11.499000	22.146348	0.000922	20.762608
190.047515	-3.002500	3.831700	-11.503000	22.171671	0.000923	20.750502
191.051622	-3.004900	3.832300	-11.515000	22.171617	0.000922	20.747603
192.047417	-3.007600	3.831200	-11.522000	22.188907	0.000923	20.742155
193.049375	-2.992600	3.830100	-11.461000	22.193766	0.000925	20.760771
194.051898	-3.012500	3.831000	-11.540000	22.190821	0.000925	20.733639
195.048602	-3.012400	3.831100	-11.539000	22.197925	0.000925	20.752132
196.048064	-2.985700	3.831100	-11.438000	22.202128	0.000924	20.768195
197.048291	-2.978500	3.831400	-11.409000	22.247585	0.000924	20.738791
198.053076	-3.016400	3.830100	-11.552000	22.215408	0.000925	20.768215
199.049389	-3.005800	3.830100	-11.511000	22.210766	0.000925	20.753609
200.051689	-2.974600	3.831200	-11.396000	22.220361	0.000927	20.736662
201.050058	-2.993300	3.830100	-11.463000	22.219557	0.000928	20.764308
202.051262	-2.991400	3.828600	-11.452000	22.204427	0.000928	20.741098
203.049126	-2.977400	3.829500	-11.401000	22.192484	0.000926	20.760910
204.048858	-3.005200	3.828100	-11.503000	22.202651	0.000929	20.770615
205.053775	-2.994400	3.828600	-11.462000	22.203949	0.000929	20.756741
206.052322	-3.020200	3.827000	-11.557000	22.212542	0.000929	20.753965
207.049909	-3.004900	3.828900	-11.504000	22.259893	0.000929	20.762969
208.051057	-3.014600	3.827000	-11.534000	22.284241	0.000930	20.754632
209.051962	-3.003300	3.828200	-11.496000	22.270405	0.000929	20.748838
210.058639	-2.983500	3.828900	-11.422000	22.277686	0.000930	20.745223
211.056782	-2.991000	3.826400	-11.443000	22.273463	0.000930	20.746211
212.056232	-2.995700	3.827200	-11.464000	22.309378	0.000932	20.754672
213.054280	-3.018200	3.825700	-11.545000	22.309526	0.000930	20.771416
214.054748	-3.012800	3.826000	-11.526000	22.314025	0.000933	20.764541
215.055243	-2.976000	3.826300	-11.386000	22.338776	0.000933	20.758031
216.060500	-2.993200	3.825500	-11.449000	22.354802	0.000934	20.755111
217.055342	-3.002400	3.825900	-11.484000	22.364198	0.000934	20.758356
218.058263	-2.966800	3.826700	-11.352000	22.344602	0.000933	20.753906
219.054479	-3.002500	3.825500	-11.485000	22.337075	0.000934	20.741627
220.057118	-3.005000	3.824700	-11.492000	22.333982	0.000936	20.759868
221.058217	-2.999700	3.825200	-11.474000	22.376845	0.000936	20.757744
222.058646	-3.007800	3.824600	-11.502000	22.351749	0.000934	20.776711
223.056332	-3.014400	3.824600	-11.528000	22.362812	0.000936	20.762659
224.055131	-3.002200	3.824300	-11.479000	22.364381	0.000937	20.754746
225.055904	-3.005800	3.824100	-11.493000	22.361387	0.000936	20.777353
226.061093	-3.005100	3.824100	-11.491000	22.386660	0.000937	20.766151
227.058173	-2.993200	3.823200	-11.442000	22.390369	0.000937	20.751847
228.057006	-2.984700	3.824600	-11.414000	22.383316	0.000936	20.770389
229.061839	-3.006600	3.822600	-11.492000	22.375488	0.000940	20.782465
230.056799	-2.984300	3.823900	-11.410000	22.372919	0.000940	20.771357
231.060484	-2.994400	3.823100	-11.446000	22.381392	0.000939	20.778420
232.081273	-2.992200	3.823800	-11.440000	22.384653	0.000939	20.754183
233.060149	-3.010400	3.821600	-11.504000	22.403750	0.000941	20.763350
234.066020	-2.990500	3.824400	-11.436000	22.412618	0.000939	20.774602
235.059517	-2.990500	3.823000	-11.432000	22.403070	0.000942	20.767411
236.059643	-2.988700	3.823000	-11.425000	22.411671	0.000942	20.758006
237.059522	-2.996900	3.822900	-11.456000	22.403099	0.000941	20.778820
238.061852	-2.973900	3.822600	-11.367000	22.416633	0.000942	20.771036
239.059183	-2.995900	3.823100	-11.452000	22.424386	0.000943	20.761730
240.060278	-3.003500	3.821100	-11.475000	22.432036	0.000945	20.778874
241.061324	-2.988700	3.822100	-11.422000	22.445392	0.000947	20.770912
242.060539	-2.982100	3.820900	-11.393000	22.472606	0.000943	20.764027
243.061790	-3.001400	3.818700	-11.460000	22.461243	0.000946	20.772562
244.060477	-3.000100	3.819200	-11.456000	22.510906	0.000946	20.771090
245.063640	-2.997100	3.821300	-11.450000	22.503662	0.000947	20.787542
246.060367	-2.997200	3.819200	-11.446000	22.524942	0.000947	20.779931
247.063442	-2.995200	3.819400	-11.439000	22.537325	0.000948	20.780954
248.062512	-2.992000	3.819500	-11.427000	22.562220	0.000947	20.788343
249.065735	-3.023300	3.819000	-11.544000	22.570519	0.000948	20.762515
250.061883	-3.004600	3.818900	-11.473000	22.590181	0.000948	20.791217
251.063786	-3.007200	3.818100	-11.480000	22.582680	0.000948	20.782756
252.063573	-2.992700	3.818200	-11.426000	22.562077	0.000949	20.780138
253.065930	-2.992700	3.818700	-11.428000	22.579869	0.000951	20.788002
254.065574	-2.996900	3.817400	-11.438000	22.580101	0.000950	20.761206
255.065331	-3.000400	3.816700	-11.450000	22.571900	0.000951	20.785710
256.072219	-3.009800	3.817000	-11.487000	22.610572	0.000952	20.792200
257.063458	-2.998500	3.817500	-11.445000	22.606360	0.000953	20.780395
258.065508	-2.972500	3.818800	-11.350000	22.614162	0.000953	20.775881
259.068770	-2.993700	3.815800	-11.421000	22.577384	0.000955	20.778874
260.065987	-3.017500	3.815900	-11.514000	22.597267	0.000953	20.795469
261.063954	-2.996100	3.816700	-11.434000	22.629912	0.000955	20.785492
262.065895	-3.030200	3.814500	-11.557000	22.610453	0.000954	20.789236
263.064951	-2.978500	3.815500	-11.363000	22.620518	0.000957	20.776557
264.065935	-2.994300	3.816200	-11.425000	22.631081	0.000955	20.783818
265.068338	-2.997400	3.815100	-11.435000	22.633773	0.000957	20.802636
266.066146	-3.001800	3.814600	-11.450000	22.649316	0.000957	20.773633
267.065655	-3.008600	3.815300	-11.477000	22.627639	0.000958	20.780845
268.066918	-2.994100	3.814700	-11.419000	22.654474	0.000958	20.785912
269.066853	-2.978500	3.815000	-11.363000	22.654878	0.000959	20.789162
270.072676	-2.980600	3.814300	-11.368000	22.615360	0.000961	20.767124
271.068363	-3.011600	3.812700	-11.481000	22.643537	0.000960	20.780173
272.071423	-3.011100	3.812600	-11.479000	22.666057	0.000960	20.809842
273.069325	-2.995400	3.813300	-11.421000	22.671185	0.000961	20.796013
274.071760	-3.039900	3.811000	-11.583000	22.678291	0.000962	20.780845
275.070352	-3.012200	3.811500	-11.479000	22.679780	0.000962	20.785181
276.072036	-3.002900	3.813000	-11.450000	22.680357	0.000966	20.789552
277.070964	-3.009500	3.810200	-11.466000	22.692216	0.000964	20.772507
278.070019	-3.018700	3.811900	-11.504000	22.693059	0.000965	20.779516
279.072042	-3.000100	3.812000	-11.435000	22.699109	0.000965	20.786999
280.071485	-2.980000	3.810800	-11.355000	22.689445	0.000967	20.786801
281.074079	-3.012100	3.810100	-11.476000	22.700155	0.000966	20.786624
282.074599	-3.013900	3.809300	-11.480000	22.683035	0.000965	20.804088
283.075194	-3.006100	3.811000	-11.455000	22.706249	0.000965	20.794625
284.071903	-2.972900	3.810500	-11.326000	22.726126	0.000969	20.787982
285.073018	-2.977700	3.810400	-11.345000	22.727595	0.000967	20.787083
286.076143	-2.999100	3.809800	-11.423000	22.732728	0.000969	20.787483
287.072960	-3.004900	3.808600	-11.443000	22.745706	0.000968	20.800009
288.073231	-3.003300	3.809300	-11.438000	22.767677	0.000970	20.789775
289.073040	-3.002000	3.809300	-11.434000	22.793828	0.000970	20.804118
290.077212	-2.978300	3.810800	-11.349000	22.807949	0.000969	20.813997
291.077501	-3.017300	3.808700	-11.491000	22.805208	0.000971	20.818363
292.074509	-2.990200	3.810000	-11.392000	22.796639	0.000971	20.824951
293.078863	-2.998200	3.808200	-11.417000	22.830417	0.000971	20.819435
294.075140	-3.015100	3.807100	-11.478000	22.815044	0.000970	20.795026
295.078471	-3.021800	3.807800	-11.505000	22.792246	0.000972	20.804904
296.079034	-3.001000	3.806600	-11.423000	22.798843	0.000973	20.815306
297.077920	-2.980700	3.807000	-11.347000	22.808827	0.000972	20.806342
298.077903	-3.018200	3.806800	-11.488000	22.798863	0.000972	20.811533
299.081616	-3.005200	3.807800	-11.442000	22.801299	0.000973	20.804964
300.078922	-3.019700	3.805900	-11.491000	22.793055	0.000974	20.805715
301.081373	-2.979100	3.808100	-11.344000	22.799450	0.000975	20.804534
302.081627	-2.997900	3.806600	-11.411000	22.834273	0.000976	20.820927
303.080716	-3.003800	3.805600	-11.428000	22.846328	0.000974	20.825891
304.084030	-2.994000	3.805100	-11.391000	22.856514	0.000978	20.811913
305.081687	-2.996500	3.804700	-11.400000	22.849636	0.000978	20.813558
306.082596	-2.986500	3.805400	-11.363000	22.879799	0.000974	20.801102
307.085254	-2.986500	3.805800	-11.365000	22.865950	0.000978	20.824212
308.081751	-2.996200	3.805500	-11.401000	22.849730	0.000980	20.807963
309.080904	-3.013300	3.803100	-11.459000	22.862953	0.000978	20.806985
310.082443	-2.986000	3.804900	-11.360000	22.864496	0.000979	20.805686
311.082560	-3.021400	3.803700	-11.491000	22.872414	0.000979	20.845385
312.086246	-2.993200	3.804100	-11.386000	22.859586	0.000978	20.817836
313.083047	-3.009500	3.803500	-11.446000	22.884242	0.000980	20.812665
314.083529	-2.998800	3.803900	-11.405000	22.880283	0.000981	20.818656
315.085547	-3.009300	3.802300	-11.440000	22.881900	0.000981	20.809371
316.084560	-3.006900	3.802100	-11.432000	22.898810	0.000980	20.809242
317.083842	-3.010900	3.802400	-11.448000	22.925836	0.000980	20.823516
318.083846	-3.000000	3.802400	-11.406000	22.942548	0.000981	20.826035
319.086663	-3.000200	3.801900	-11.406000	22.931786	0.000981	20.796761
320.084672	-3.000700	3.802300	-11.408000	22.945753	0.000982	20.842047
321.084002	-2.996800	3.801600	-11.392000	22.959383	0.000983	20.817298
322.086872	-3.007400	3.800000	-11.427000	22.951935	0.000983	20.817896
323.088987	-3.002700	3.801200	-11.412000	22.976815	0.000984	20.821487
324.087188	-3.020000	3.800200	-11.476000	22.963268	0.000983	20.827354
325.085976	-3.000400	3.801500	-11.405000	22.991165	0.000986	20.830648
326.085596	-3.013400	3.799800	-11.448000	23.006062	0.000984	20.820918
327.086945	-3.012300	3.801100	-11.449000	23.018287	0.000983	20.822736
328.092021	-2.988600	3.799800	-11.356000	23.030719	0.000984	20.819071
329.087343	-2.997000	3.799900	-11.387000	23.025489	0.000983	20.847495
330.090529	-2.989100	3.799600	-11.356000	23.056697	0.000984	20.820444
331.087137	-2.972600	3.799900	-11.294000	23.023374	0.000986	20.846798
332.093330	-2.978200	3.799500	-11.315000	23.037172	0.000986	20.819372
333.094567	-2.996500	3.798100	-11.380000	23.064471	0.000985	20.832500
334.094296	-2.999300	3.797300	-11.389000	23.066117	0.000987	20.836994
335.088949	-2.986900	3.799100	-11.347000	23.088308	0.000987	20.844057
336.089922	-3.015100	3.798600	-11.452000	23.098645	0.000988	20.821698
337.091395	-2.985200	3.797300	-11.335000	23.085395	0.000987	20.835923
338.089986	-2.993000	3.798000	-11.367000	23.076434	0.000987	20.838323
339.095890	-3.000400	3.796600	-11.390000	23.064677	0.000989	20.848828
340.091004	-3.009100	3.796100	-11.422000	23.051856	0.000989	20.826499
341.091161	-2.981800	3.796800	-11.321000	23.090856	0.000988	20.827645
342.092632	-3.003900	3.795800	-11.400000	23.076759	0.000990	20.844338
343.094277	-2.999600	3.796600	-11.387000	23.090738	0.000991	20.835112
344.094707	-2.992200	3.795500	-11.356000	23.100473	0.000991	20.824953
345.095057	-2.994100	3.796400	-11.366000	23.112106	0.000992	20.821436
346.094195	-2.994400	3.794900	-11.362000	23.119203	0.000992	20.857471
347.094090	-3.030800	3.793800	-11.497000	23.104736	0.000993	20.836337
348.094442	-3.006000	3.793200	-11.401000	23.123644	0.000992	20.834421
349.098121	-3.010000	3.793800	-11.418000	23.115151	0.000993	20.836342
350.097686	-3.017500	3.793300	-11.445000	23.125936	0.000990	20.840984
351.094280	-3.000900	3.793500	-11.383000	23.128755	0.000994	20.836223
352.095515	-3.000100	3.793600	-11.381000	23.128681	0.000991	20.845632
353.097171	-3.026800	3.791800	-11.476000	23.153686	0.000993	20.861678
354.100234	-3.013100	3.791900	-11.425000	23.159315	0.000996	20.856887
355.099876	-3.011000	3.791900	-11.417000	23.163381	0.000996	20.844841
356.099056	-2.984300	3.793800	-11.320000	23.147815	0.000997	20.858166
357.096967	-2.984400	3.792500	-11.317000	23.189109	0.000998	20.834588
358.097919	-2.997700	3.790600	-11.360000	23.186442	0.000997	20.839502
359.100056	-2.990200	3.791400	-11.336000	23.189883	0.000997	20.841527
360.101172	-3.004700	3.790600	-11.389000	23.189533	0.000997	20.838806
361.101280	-3.007700	3.790200	-11.398000	23.207562	0.000999	20.848812
362.108498	-2.985900	3.792600	-11.323000	23.187719	0.000996	20.849790
363.099526	-3.007000	3.790600	-11.397000	23.171232	0.001000	20.848441
364.106919	-2.995600	3.791200	-11.355000	23.184579	0.000999	20.843325
365.106005	-3.008200	3.790000	-11.399000	23.180695	0.001001	20.854131
366.101585	-2.989200	3.790100	-11.329000	23.170739	0.001001	20.854585
367.109180	-2.996400	3.790400	-11.356000	23.167156	0.000999	20.862374
368.100174	-2.995600	3.788700	-11.348000	23.207123	0.001001	20.848372
369.103787	-2.994900	3.789100	-11.347000	23.203909	0.001002	20.860798
370.102769	-2.980800	3.788600	-11.291000	23.213180	0.001001	20.844959
371.103459	-2.986500	3.787900	-11.311000	23.250307	0.001003	20.853242
372.104481	-2.980600	3.788000	-11.290000	23.271322	0.001004	20.864818
373.102496	-3.000000	3.787700	-11.362000	23.261662	0.001004	20.852768
374.106142	-2.998900	3.786400	-11.354000	23.272544	0.001003	20.867940
375.107735	-3.002700	3.784700	-11.362000	23.279665	0.001002	20.858956
376.110016	-2.984300	3.787000	-11.301000	23.290074	0.001004	20.856111
377.105811	-2.999300	3.785800	-11.353000	23.307628	0.001003	20.867066
378.104210	-3.006500	3.785100	-11.379000	23.314128	0.001004	20.853192
379.105723	-2.995000	3.785800	-11.338000	23.317322	0.001004	20.847858
380.107263	-2.998600	3.784500	-11.345000	23.340947	0.001007	20.857311
381.108681	-2.985600	3.786900	-11.305000	23.320954	0.001006	20.862877
382.106471	-2.977900	3.785800	-11.273000	23.322940	0.001006	20.868187
383.113699	-2.991600	3.784800	-11.321000	23.351459	0.001008	20.871639
384.107926	-3.010600	3.783500	-11.389000	23.341297	0.001004	20.869515
385.108575	-3.019600	3.783900	-11.424000	23.309003	0.001008	20.881245
386.113743	-2.996400	3.783900	-11.336000	23.319086	0.001007	20.864799
387.112845	-3.029400	3.782400	-11.457000	23.316277	0.001007	20.859139
388.109204	-3.009700	3.782300	-11.382000	23.315548	0.001007	20.856511
389.109036	-3.016300	3.782300	-11.407000	23.301384	0.001008	20.863179
390.108826	-3.011800	3.782900	-11.391000	23.288393	0.001009	20.858220
391.109041	-3.026200	3.780800	-11.440000	23.304523	0.001008	20.881022
392.116550	-3.012400	3.782100	-11.393000	23.304918	0.001008	20.872409
393.109385	-3.006700	3.781300	-11.366000	23.329519	0.001012	20.870039
394.109325	-3.002900	3.781700	-11.355000	23.315405	0.001008	20.883393
395.110683	-2.989400	3.781600	-11.303000	23.342293	0.001011	20.873832
396.113066	-2.997300	3.781300	-11.333000	23.386718	0.001010	20.882795
397.112171	-3.011200	3.779700	-11.381000	23.389758	0.001011	20.857869
398.112531	-3.013900	3.779900	-11.391000	23.378878	0.001009	20.887739
399.115523	-3.004900	3.780500	-11.358000	23.376286	0.001010	20.889408
400.113811	-3.007300	3.780300	-11.366000	23.392449	0.001012	20.892806
401.115825	-2.999100	3.779900	-11.334000	23.442194	0.001012	20.875812
402.115696	-3.006900	3.779500	-11.363000	23.440524	0.001012	20.892628
403.111889	-2.978400	3.779700	-11.257000	23.426707	0.001013	20.889685
404.116888	-3.002100	3.778700	-11.343000	23.431166	0.001013	20.887517
405.115845	-2.999400	3.777800	-11.330000	23.419088	0.001013	20.868300
406.113842	-3.006300	3.777500	-11.355000	23.439533	0.001013	20.862714
407.119252	-3.007700	3.777300	-11.360000	23.401289	0.001014	20.844297
408.112934	-2.981500	3.778300	-11.264000	23.422804	0.001013	20.890040
409.113318	-2.981400	3.778200	-11.264000	23.414190	0.001016	20.870503
410.116624	-2.997000	3.776300	-11.317000	23.403980	0.001014	20.868804
411.116012	-2.990800	3.777700	-11.296000	23.430299	0.001012	20.876217
412.118426	-2.993700	3.777100	-11.306000	23.455321	0.001014	20.866685
413.117082	-3.000800	3.776600	-11.332000	23.461121	0.001015	20.860645
414.112851	-2.986900	3.776100	-11.278000	23.474864	0.001016	20.855928
415.117837	-2.993400	3.775600	-11.300000	23.449319	0.001016	20.857825
416.116052	-2.993700	3.775100	-11.300000	23.430826	0.001016	20.876271
417.115828	-3.007200	3.774700	-11.349000	23.424430	0.001016	20.863223
418.114319	-2.993300	3.774000	-11.295000	23.442800	0.001015	20.878790
419.119853	-2.994800	3.774700	-11.304000	23.471882	0.001017	20.851992
420.115465	-2.985100	3.775800	-11.270000	23.498377	0.001015	20.854841
421.115924	-2.991900	3.774400	-11.291000	23.512863	0.001017	20.862724
422.116863	-3.007600	3.773400	-11.348000	23.521954	0.001017	20.856190
423.118252	-2.990700	3.774100	-11.285000	23.523073	0.001016	20.864897
424.120541	-2.990300	3.773600	-11.283000	23.501146	0.001017	20.873737
425.118349	-2.974400	3.772600	-11.220000	23.517697	0.001017	20.858086
426.118376	-2.976600	3.772500	-11.227000	23.516854	0.001017	20.859138
427.120827	-3.008600	3.772600	-11.349000	23.533833	0.001017	20.845813
428.118779	-2.991000	3.772300	-11.282000	23.554823	0.001016	20.878705
429.119918	-3.000600	3.771200	-11.315000	23.543727	0.001019	20.850989
430.119042	-2.997100	3.771200	-11.301000	23.540170	0.001018	20.850742
431.119218	-2.990600	3.770200	-11.274000	23.532675	0.001018	20.854609
432.121734	-3.014300	3.770300	-11.363000	23.546171	0.001018	20.849171
433.120365	-3.005700	3.769300	-11.329000	23.513464	0.001019	20.850998
434.121593	-3.016400	3.769100	-11.368000	23.524767	0.001020	20.829139
435.121894	-3.000500	3.769600	-11.309000	23.528305	0.001019	20.843590
436.122445	-2.993700	3.770200	-11.286000	23.535976	0.001019	20.844642
437.123463	-2.993200	3.769000	-11.280000	23.535208	0.001021	20.850035
438.125706	-2.980800	3.769700	-11.235000	23.535528	0.001020	20.838029
439.124249	-3.016700	3.768500	-11.367000	23.569688	0.001021	20.836236
440.124624	-3.020600	3.767600	-11.379000	23.557394	0.001021	20.846198
441.121705	-3.004300	3.767100	-11.316000	23.558887	0.001020	20.831573
442.121324	-2.998000	3.767500	-11.294000	23.571215	0.001019	20.833500
443.125367	-2.985200	3.767600	-11.246000	23.562425	0.001021	20.841757
444.123920	-2.994300	3.767000	-11.278000	23.577290	0.001021	20.832003
445.126472	-2.982200	3.765500	-11.228000	23.590090	0.001022	20.840093
446.123526	-2.997000	3.766000	-11.285000	23.592356	0.001021	20.823399
447.126742	-2.999500	3.766500	-11.296000	23.578393	0.001022	20.839273
448.122779	-2.998900	3.764200	-11.288000	23.618567	0.001022	20.843511
449.125998	-3.006100	3.765300	-11.318000	23.589839	0.001020	20.838419
450.125047	-3.008500	3.765100	-11.327000	23.603560	0.001022	20.833682
451.122143	-2.987600	3.765800	-11.250000	23.625091	0.001024	20.845308
452.132652	-3.029500	3.764500	-11.404000	23.577176	0.001023	20.823355
453.126594	-3.006800	3.765700	-11.322000	23.589119	0.001022	20.826318
454.124329	-2.994200	3.764900	-11.272000	23.572072	0.001024	20.831514
455.124588	-2.981100	3.764500	-11.222000	23.559552	0.001023	20.824654
456.129280	-3.000900	3.763700	-11.293000	23.546131	0.001024	20.822105
457.123240	-2.996000	3.764300	-11.277000	23.564524	0.001022	20.805930
458.122976	-2.996400	3.763000	-11.275000	23.548471	0.001022	20.821132
459.123772	-2.986500	3.763500	-11.239000	23.559055	0.001026	20.814672
460.128197	-3.008800	3.761200	-11.315000	23.582956	0.001025	20.819665
461.126740	-3.003300	3.761900	-11.298000	23.580586	0.001023	20.818712
462.124109	-3.018300	3.761700	-11.351000	23.603141	0.001025	20.804340
463.126966	-2.996100	3.761700	-11.269000	23.610611	0.001024	20.809456
464.126110	-3.000600	3.761500	-11.285000	23.624154	0.001025	20.823034
465.124873	-3.009400	3.761200	-11.319000	23.633914	0.001023	20.814800
466.129822	-2.997300	3.761900	-11.273000	23.672219	0.001025	20.820011
467.130812	-3.016600	3.760700	-11.343000	23.657065	0.001023	20.818569
468.127892	-3.026500	3.758700	-11.374000	23.672273	0.001024	20.815798
469.129046	-3.006300	3.759700	-11.302000	23.671825	0.001026	20.809185
470.129458	-2.989500	3.759400	-11.237000	23.658602	0.001025	20.820584
471.127363	-3.011300	3.759800	-11.319000	23.667494	0.001025	20.806266
472.127624	-2.997900	3.760100	-11.271000	23.691940	0.001026	20.815126
473.129392	-3.016100	3.758600	-11.336000	23.707099	0.001025	20.794288
474.137582	-2.988800	3.758700	-11.233000	23.715557	0.001025	20.777639
475.128789	-2.996100	3.759200	-11.262000	23.720538	0.001026	20.815349
476.129149	-2.986500	3.757700	-11.222000	23.705650	0.001024	20.797578
477.130510	-2.984700	3.757300	-11.213000	23.718149	0.001025	20.793039
478.129513	-2.990900	3.756600	-11.235000	23.720242	0.001026	20.810311
479.129658	-2.998500	3.758100	-11.267000	23.722883	0.001025	20.817700
480.128728	-2.998100	3.755800	-11.259000	23.701005	0.001025	20.791024
481.129150	-3.031100	3.754400	-11.379000	23.678072	0.001028	20.814973
482.132812	-3.000100	3.756700	-11.270000	23.700753	0.001028	20.804522
483.130310	-3.029200	3.755200	-11.373000	23.712005	0.001028	20.807268
484.133211	-3.011600	3.755300	-11.307000	23.724750	0.001026	20.807718
485.129037	-3.013000	3.753600	-11.308000	23.744312	0.001026	20.795089
486.129253	-2.990000	3.754300	-11.225000	23.747766	0.001024	20.799025
487.134019	-2.996800	3.754600	-11.250000	23.772288	0.001028	20.794689
488.132869	-2.988600	3.754000	-11.218000	23.760884	0.001028	20.777565
489.129845	-3.009400	3.754100	-11.296000	23.789510	0.001027	20.812430
490.130900	-2.988900	3.752900	-11.216000	23.799613	0.001028	20.823508
491.131104	-2.993900	3.752600	-11.233000	23.795549	0.001024	20.801416
492.131083	-3.000300	3.752300	-11.256000	23.814898	0.001028	20.817023
493.133964	-2.978700	3.752200	-11.175000	23.848892	0.001029	20.812701
494.131475	-2.979700	3.752600	-11.180000	23.844163	0.001027	20.787571
495.138721	-2.975500	3.752800	-11.166000	23.863822	0.001027	20.812499
496.143255	-2.965900	3.753100	-11.130000	23.850783	0.001027	20.809382
497.135457	-2.989900	3.751700	-11.216000	23.842222	0.001028	20.782780
498.136708	-3.001600	3.750300	-11.256000	23.842395	0.001026	20.778686
499.132368	-2.994200	3.751200	-11.231000	23.765786	0.001027	20.781531
500.137719	-3.008800	3.749000	-11.279000	23.784658	0.001028	20.795237
501.136823	-3.008100	3.748600	-11.275000	23.789012	0.001026	20.781111
502.135968	-2.991200	3.750100	-11.216000	23.801854	0.001028	20.775969
503.137518	-2.991600	3.748500	-11.213000	23.810613	0.001028	20.783803
504.137990	-2.982700	3.749500	-11.183000	23.828415	0.001028	20.789325
505.136267	-2.982200	3.748300	-11.177000	23.816416	0.001030	20.792466
506.138990	-3.040600	3.746500	-11.390000	23.820149	0.001027	20.790994
507.138596	-3.001200	3.747500	-11.246000	23.833794	0.001028	20.783338
508.138373	-2.960900	3.748600	-11.097000	23.831050	0.001027	20.791019
509.143422	-2.990500	3.747900	-11.207000	23.839513	0.001028	20.802823
510.137385	-2.995200	3.747200	-11.222000	23.809051	0.001027	20.790298
511.141083	-3.005400	3.747300	-11.261000	23.840533	0.001026	20.803846
512.137586	-2.975500	3.747600	-11.150000	23.867590	0.001029	20.800630
513.143132	-2.995300	3.744900	-11.216000	23.870378	0.001028	20.799158
514.139835	-2.966900	3.747100	-11.116000	23.904148	0.001027	20.787502
515.139029	-2.987200	3.745800	-11.188000	23.887529	0.001027	20.783165
516.141365	-2.979500	3.745400	-11.159000	23.886899	0.001029	20.781111
517.139355	-2.981100	3.745500	-11.164000	23.878889	0.001029	20.797736
518.145895	-2.996300	3.744900	-11.219000	23.854798	0.001029	20.786381
519.139562	-2.995200	3.745100	-11.215000	23.866570	0.001028	20.790125
520.142907	-2.999600	3.743800	-11.229000	23.839513	0.001029	20.789073
521.141115	-2.992000	3.743200	-11.197000	23.843996	0.001027	20.770334
522.143627	-2.993200	3.742800	-11.201000	23.827445	0.001028	20.776972
523.141811	-3.006600	3.743000	-11.252000	23.828065	0.001029	20.786603
524.141660	-2.997200	3.742800	-11.217000	23.870432	0.001028	20.768867
525.144872	-2.984700	3.742800	-11.171000	23.853034	0.001029	20.758534
526.142688	-2.994900	3.741700	-11.204000	23.858428	0.001028	20.772951
527.146025	-2.998000	3.741200	-11.215000	23.869629	0.001029	20.767113
528.144670	-3.007300	3.740500	-11.248000	23.869629	0.001028	20.769484
529.145067	-3.002000	3.740900	-11.228000	23.856438	0.001026	20.766214
530.145757	-3.004000	3.740000	-11.234000	23.865969	0.001027	20.771978
531.148269	-2.997500	3.740800	-11.213000	23.889686	0.001028	20.775372
532.146606	-3.018200	3.740100	-11.287000	23.874781	0.001027	20.768012
533.148299	-2.979900	3.740200	-11.144000	23.843823	0.001028	20.779170
534.151067	-2.995900	3.739100	-11.201000	23.827095	0.001028	20.785156
535.150588	-3.001000	3.739600	-11.220000	23.841385	0.001027	20.786682
536.147678	-3.016800	3.737900	-11.275000	23.851611	0.001028	20.776547
537.145822	-3.000200	3.737700	-11.212000	23.857837	0.001029	20.779945
538.149227	-3.036600	3.736500	-11.345000	23.875254	0.001028	20.747623
539.148260	-2.994200	3.738900	-11.194000	23.850069	0.001030	20.776424
540.154211	-2.992500	3.737900	-11.185000	23.857261	0.001029	20.775574
541.152191	-2.998100	3.736800	-11.202000	23.886179	0.001027	20.766165
542.150706	-3.010800	3.736400	-11.248000	23.896863	0.001027	20.769291
543.149279	-2.978400	3.737100	-11.129000	23.919781	0.001027	20.768565
544.153146	-3.008800	3.737000	-11.242000	23.929169	0.001026	20.766125
545.150216	-2.997700	3.736800	-11.201000	23.927229	0.001030	20.769869
546.150171	-2.982800	3.737400	-11.147000	23.960805	0.001027	20.757546
547.157618	-3.008500	3.735900	-11.238000	23.973547	0.001028	20.782652
548.149600	-2.985000	3.735600	-11.149000	23.976236	0.001026	20.755002
549.151394	-2.988700	3.735300	-11.162000	23.985864	0.001028	20.783151
550.149420	-2.965900	3.735000	-11.076000	23.997365	0.001027	20.762441
551.149533	-2.995000	3.735100	-11.185000	23.991095	0.001027	20.747144
552.153497	-3.008200	3.733400	-11.229000	23.978974	0.001029	20.759645
553.150018	-2.978500	3.734900	-11.124000	23.998236	0.001028	20.759047
554.154151	-3.001600	3.734400	-11.208000	24.017651	0.001028	20.757180
555.152521	-2.991500	3.732500	-11.164000	24.027038	0.001030	20.762327
556.152021	-2.997700	3.732500	-11.187000	24.021212	0.001028	20.753639
557.153856	-2.983400	3.732500	-11.135000	24.030624	0.001029	20.757388
558.155994	-3.003400	3.731800	-11.206000	24.015445	0.001030	20.751648
559.151319	-2.979000	3.732500	-11.118000	24.019798	0.001029	20.749850
560.155325	-2.988800	3.730900	-11.149000	24.028609	0.001029	20.760109
561.152142	-2.965400	3.732200	-11.065000	24.023290	0.001027	20.743869
562.153747	-3.011000	3.730800	-11.232000	24.034913	0.001030	20.731343
563.157117	-2.993700	3.730700	-11.168000	24.055913	0.001028	20.745291
564.155198	-2.987600	3.731100	-11.146000	24.068087	0.001028	20.763665
565.162043	-3.013500	3.729700	-11.239000	24.090510	0.001027	20.733995
566.155005	-3.004300	3.729000	-11.202000	24.112030	0.001028	20.748467
567.160367	-3.002700	3.729200	-11.197000	24.106638	0.001027	20.738317
568.155848	-3.009400	3.729000	-11.222000	24.131896	0.001028	20.752745
569.157392	-3.003700	3.730000	-11.203000	24.133112	0.001028	20.742585
570.160192	-3.002900	3.729400	-11.197000	24.143365	0.001029	20.740540
571.157309	-3.026000	3.727300	-11.277000	24.133886	0.001027	20.727238
572.157906	-2.994000	3.729200	-11.164000	24.120929	0.001028	20.730839
573.163018	-3.016100	3.726100	-11.237000	24.097690	0.001027	20.748783
574.160638	-3.028600	3.726600	-11.285000	24.068407	0.001027	20.721311
575.158278	-2.999500	3.727400	-11.180000	24.047807	0.001027	20.721513
576.158593	-3.030600	3.726600	-11.292000	24.043335	0.001028	20.734099
577.158793	-3.013800	3.726700	-11.231000	24.063616	0.001025	20.751120
578.163386	-2.978300	3.728100	-11.102000	24.067526	0.001028	20.735126
579.159087	-2.988000	3.726200	-11.133000	24.077607	0.001027	20.735279
580.159395	-3.024600	3.725600	-11.268000	24.086314	0.001027	20.735951
581.162312	-2.987300	3.726300	-11.130000	24.102792	0.001026	20.730192
582.159749	-3.010900	3.723400	-11.209000	24.098808	0.001025	20.751801
583.161686	-3.015800	3.723800	-11.228000	24.103969	0.001025	20.740856
584.161062	-3.026500	3.724800	-11.272000	24.088269	0.001026	20.739809
585.159644	-3.007900	3.723400	-11.198000	24.093844	0.001026	20.714104
586.165899	-3.013100	3.723200	-11.217000	24.091140	0.001026	20.738895
587.160540	-3.017000	3.722400	-11.229000	24.091889	0.001026	20.739646
588.158789	-3.001400	3.723300	-11.174000	24.109362	0.001026	20.745316
589.164367	-2.997400	3.723500	-11.161000	24.116877	0.001027	20.712074
590.159147	-3.014100	3.721900	-11.217000	24.119319	0.001025	20.737285
591.162414	-3.007300	3.723700	-11.197000	24.119049	0.001026	20.731323
592.160570	-3.006800	3.721000	-11.188000	24.145700	0.001025	20.740036
593.160390	-3.014600	3.721400	-11.217000	24.146424	0.001026	20.713260
594.164290	-3.018200	3.721300	-11.231000	24.158051	0.001025	20.715913
595.167088	-3.000700	3.720400	-11.161000	24.152058	0.001024	20.722704
596.161249	-3.020100	3.720500	-11.235000	24.164600	0.001026	20.714421
597.161854	-3.019500	3.719700	-11.231000	24.149379	0.001025	20.706740
598.163080	-3.009800	3.720400	-11.197000	24.164862	0.001026	20.719899
599.164647	-2.987900	3.720300	-11.115000	24.141106	0.001025	20.719781
600.161611	-3.012200	3.719800	-11.204000	24.152428	0.001024	20.732085
601.162043	-3.018500	3.718900	-11.224000	24.139417	0.001026	20.702913
602.161180	-3.018700	3.718700	-11.225000	24.141289	0.001024	20.718067
603.162333	-3.025700	3.718100	-11.248000	24.145593	0.001027	20.713374
604.163206	-3.019800	3.717200	-11.224000	24.146868	0.001024	20.717973
605.162285	-2.984000	3.718200	-11.094000	24.114529	0.001025	20.728687
606.161612	-2.988000	3.718500	-11.110000	24.123861	0.001024	20.736625
607.163223	-3.010900	3.716400	-11.189000	24.126698	0.001025	20.708174
608.162210	-3.002600	3.716500	-11.158000	24.117400	0.001024	20.720187
609.166049	-2.999000	3.717600	-11.148000	24.136483	0.001025	20.723679
610.162944	-3.006400	3.716100	-11.172000	24.151567	0.001024	20.713676
611.166290	-2.991700	3.717600	-11.120000	24.148637	0.001026	20.726860
612.163140	-2.992500	3.716100	-11.118000	24.164612	0.001024	20.704000
613.164519	-3.031300	3.713800	-11.257000	24.169768	0.001025	20.742365
614.162024	-3.004500	3.716800	-11.166000	24.165286	0.001024	20.706574
615.166771	-2.996200	3.714000	-11.127000	24.136503	0.001023	20.711844
616.162943	-3.004500	3.715300	-11.161000	24.110605	0.001025	20.718113
617.164995	-2.978900	3.715300	-11.065000	24.101199	0.001024	20.707256
618.164195	-2.981700	3.715200	-11.077000	24.069351	0.001023	20.714196
619.164828	-2.988300	3.714900	-11.101000	24.048972	0.001025	20.713672
620.170613	-3.021100	3.712800	-11.216000	24.047780	0.001023	20.719590
621.169084	-2.997000	3.713500	-11.128000	24.072045	0.001024	20.690343
622.171690	-3.006700	3.712800	-11.162000	24.058034	0.001025	20.726080
623.165307	-3.005300	3.712200	-11.155000	24.094241	0.001024	20.718296
624.166637	-3.005100	3.712500	-11.156000	24.101583	0.001024	20.722341
625.167965	-2.980800	3.712500	-11.065000	24.094290	0.001024	20.700800
626.169255	-2.997100	3.712100	-11.125000	24.136119	0.001024	20.697708
627.172916	-3.013100	3.713500	-11.188000	24.151942	0.001023	20.730175
628.171114	-3.012300	3.711000	-11.178000	24.173988	0.001024	20.716725
629.167723	-2.993100	3.711500	-11.108000	24.190859	0.001025	20.712783
630.167980	-2.973700	3.712200	-11.038000	24.203544	0.001021	20.712704
631.167443	-3.006900	3.709800	-11.155000	24.202248	0.001023	20.734640
632.166730	-3.020900	3.709100	-11.203000	24.199959	0.001024	20.697253
633.170140	-3.026000	3.709700	-11.224000	24.202490	0.001022	20.702163
634.167925	-3.018200	3.708700	-11.192000	24.215155	0.001022	20.713445
635.170390	-2.985900	3.709200	-11.074000	24.210422	0.001024	20.721501
636.174202	-2.985000	3.710400	-11.075000	24.219256	0.001023	20.729888
637.171371	-2.989300	3.708700	-11.085000	24.243217	0.001022	20.725946
638.173167	-2.982100	3.708700	-11.059000	24.260283	0.001023	20.717935
639.172206	-2.984800	3.708000	-11.066000	24.255305	0.001022	20.725744
640.171360	-2.987000	3.707600	-11.074000	24.274311	0.001023	20.710669
641.173626	-2.994700	3.708400	-11.104000	24.292820	0.001022	20.724968
642.177877	-2.985400	3.707900	-11.068000	24.284312	0.001021	20.723546
643.174372	-3.019200	3.706400	-11.190000	24.288694	0.001021	20.698542
644.173972	-3.016700	3.706100	-11.179000	24.303593	0.001019	20.718705
645.174405	-3.003500	3.705700	-11.129000	24.318468	0.001019	20.714186
646.174138	-3.010600	3.705900	-11.155000	24.361554	0.001019	20.729433
647.177955	-2.995400	3.707400	-11.104000	24.378274	0.001023	20.720602
648.175699	-2.997400	3.706300	-11.108000	24.353696	0.001021	20.712541
649.179650	-2.998700	3.704900	-11.108000	24.384842	0.001020	20.728139
650.173770	-3.017100	3.704800	-11.177000	24.388919	0.001019	20.720849
651.190007	-3.007300	3.705000	-11.141000	24.365483	0.001022	20.713934
652.178763	-3.005900	3.704500	-11.134000	24.353721	0.001021	20.727739
653.179948	-3.003800	3.703400	-11.122000	24.320432	0.001020	20.704776
654.177663	-2.997000	3.703600	-11.098000	24.310703	0.001019	20.743382
655.176448	-3.001500	3.704000	-11.116000	24.303761	0.001021	20.732624
656.176543	-3.020700	3.702900	-11.185000	24.329487	0.001021	20.735672
657.178722	-3.000000	3.702800	-11.107000	24.338487	0.001018	20.717198
658.179510	-2.985000	3.703000	-11.052000	24.326001	0.001018	20.737865
659.182384	-3.013400	3.700700	-11.151000	24.328985	0.001020	20.739436
660.178290	-3.022800	3.700200	-11.183000	24.340506	0.001018	20.734872
661.177481	-2.986400	3.702900	-11.058000	24.341176	0.001018	20.735069
662.180185	-2.997500	3.701900	-11.094000	24.345922	0.001019	20.728924
663.179759	-3.013700	3.700500	-11.151000	24.345075	0.001018	20.746094
664.179814	-3.012500	3.700800	-11.148000	24.359659	0.001017	20.717100
665.180678	-2.992900	3.701200	-11.077000	24.351697	0.001019	20.733770
666.183265	-3.030500	3.698600	-11.207000	24.328182	0.001018	20.729621
667.179806	-3.019300	3.698200	-11.165000	24.348861	0.001018	20.718122
668.182696	-2.992000	3.700600	-11.071000	24.367787	0.001018	20.729996
669.182055	-2.996600	3.699800	-11.084000	24.356744	0.001017	20.725082
670.183503	-2.999800	3.697900	-11.091000	24.363607	0.001018	20.710629
671.180644	-2.984800	3.699500	-11.040000	24.377693	0.001015	20.734718
672.181026	-3.019300	3.698100	-11.164000	24.317862	0.001017	20.727329
673.181882	-2.993300	3.698300	-11.069000	24.293573	0.001017	20.728094
674.187802	-3.006300	3.697900	-11.116000	24.293652	0.001018	20.715845
675.179955	-2.992400	3.697200	-11.063000	24.296138	0.001019	20.732090
676.184727	-3.002100	3.696300	-11.094000	24.299625	0.001017	20.746494
677.180854	-3.015300	3.696200	-11.145000	24.307685	0.001016	20.729448
678.186231	-2.980600	3.696400	-11.016000	24.314696	0.001016	20.726050
679.184174	-3.016300	3.695300	-11.145000	24.331505	0.001017	20.732480
680.184189	-3.014800	3.696700	-11.144000	24.308423	0.001018	20.731137
681.186047	-2.994300	3.696600	-11.067000	24.299142	0.001017	20.746009
682.182389	-3.022600	3.694400	-11.166000	24.334469	0.001016	20.748731
683.184005	-3.012500	3.694500	-11.128000	24.305666	0.001015	20.725052
684.183862	-2.999700	3.694900	-11.083000	24.310092	0.001016	20.729492
685.190462	-2.996100	3.693500	-11.065000	24.296306	0.001016	20.732258
686.186681	-2.985900	3.694400	-11.030000	24.293795	0.001014	20.714091
687.184942	-3.000100	3.694200	-11.081000	24.334415	0.001013	20.761005
688.185056	-2.975200	3.694400	-10.991000	24.358545	0.001014	20.733528
689.188224	-2.990300	3.694000	-11.046000	24.385363	0.001014	20.731982
690.189551	-3.002500	3.694200	-11.090000	24.386328	0.001013	20.755710
691.187045	-3.001900	3.693200	-11.085000	24.427128	0.001015	20.750647
692.188340	-3.010000	3.693300	-11.116000	24.451876	0.001013	20.740862
693.188857	-3.009800	3.692300	-11.111000	24.457518	0.001012	20.732297
694.186651	-2.968700	3.694400	-10.966000	24.464386	0.001012	20.752465
695.191967	-2.982500	3.692300	-11.012000	24.475531	0.001013	20.769812
696.187700	-3.004000	3.692200	-11.090000	24.456622	0.001012	20.743727
697.188584	-3.025700	3.691100	-11.167000	24.479632	0.001011	20.740734
698.185992	-2.989500	3.691800	-11.036000	24.434355	0.001011	20.755527
699.187495	-3.005000	3.690000	-11.088000	24.432966	0.001013	20.753660
700.190811	-3.004000	3.690500	-11.085000	24.453786	0.001011	20.770755
701.189822	-3.003400	3.689300	-11.079000	24.448839	0.001010	20.754885
702.192075	-3.039500	3.688200	-11.209000	24.473060	0.001013	20.746943
703.193683	-3.022500	3.689300	-11.149000	24.486047	0.001011	20.759498
704.189586	-3.000600	3.690100	-11.071000	24.518631	0.001012	20.747619
705.190823	-2.998200	3.689000	-11.060000	24.526089	0.001010	20.777388
706.191691	-2.998300	3.689200	-11.061000	24.527531	0.001011	20.731892
707.192151	-2.994300	3.688400	-11.043000	24.535339	0.001010	20.762486
708.192811	-3.022100	3.687300	-11.143000	24.531405	0.001008	20.766601
709.192372	-3.027900	3.686100	-11.160000	24.526832	0.001010	20.776237
710.191531	-3.008400	3.687500	-11.092000	24.509150	0.001011	20.744744
711.196994	-3.013800	3.685700	-11.107000	24.532277	0.001009	20.751353
712.193914	-3.010600	3.686000	-11.096000	24.506905	0.001009	20.761933
713.198788	-2.994400	3.687300	-11.040000	24.532921	0.001009	20.742043
714.195606	-2.990600	3.687200	-11.026000	24.544884	0.001011	20.759735
715.196549	-2.989900	3.685400	-11.019000	24.542048	0.001009	20.770167
716.200170	-2.985900	3.686400	-11.005000	24.554630	0.001009	20.761928
717.197104	-3.000500	3.686800	-11.061000	24.564800	0.001010	20.740363
718.199528	-3.020500	3.684400	-11.127000	24.551539	0.001008	20.769732
719.199088	-3.008500	3.684400	-11.083000	24.574498	0.001008	20.768586
720.197611	-3.005000	3.684300	-11.069000	24.587675	0.001009	20.754307
721.202394	-3.008200	3.684600	-11.083000	24.589364	0.001010	20.774019
722.200885	-3.003700	3.684200	-11.065000	24.615826	0.001008	20.780183
723.199370	-3.009000	3.682800	-11.080000	24.646340	0.001007	20.753901
724.199418	-2.997300	3.682800	-11.037000	24.643007	0.001007	20.768576
725.200916	-2.985800	3.683500	-10.997000	24.659989	0.001007	20.748157
726.202167	-3.007600	3.681900	-11.073000	24.651035	0.001007	20.765726
727.208169	-2.993700	3.683000	-11.025000	24.648372	0.001007	20.760209
728.207567	-2.995800	3.682400	-11.031000	24.636111	0.001007	20.768294
729.202369	-3.010200	3.681500	-11.081000	24.609378	0.001006	20.774187
730.203639	-3.002200	3.680800	-11.050000	24.586764	0.001005	20.782317
731.203095	-3.001200	3.680300	-11.044000	24.569028	0.001006	20.777323
732.212469	-3.000800	3.679800	-11.041000	24.598504	0.001005	20.765647
733.204447	-3.003200	3.681400	-11.055000	24.570894	0.001005	20.766867
734.206770	-3.001100	3.679200	-11.041000	24.584894	0.001007	20.762896
735.204607	-3.009600	3.678900	-11.071000	24.601807	0.001004	20.775599
736.206549	-2.994800	3.679000	-11.017000	24.608969	0.001004	20.762871
737.205437	-2.997400	3.679300	-11.027000	24.616899	0.001002	20.775569
738.204318	-2.974600	3.680500	-10.947000	24.609338	0.001004	20.789794
739.207051	-3.021700	3.679100	-11.116000	24.614389	0.001004	20.792965
740.204023	-2.982500	3.680100	-10.974000	24.583919	0.001001	20.802695
741.205920	-3.008400	3.678500	-11.065000	24.578819	0.001002	20.780509
742.204294	-3.024500	3.677800	-11.122000	24.595236	0.001001	20.791291
743.206435	-3.011400	3.677600	-11.073000	24.627290	0.001001	20.779832
744.206172	-2.993500	3.676500	-11.004000	24.620310	0.001002	20.782312
745.208719	-3.019100	3.677200	-11.100000	24.625178	0.001001	20.793834
746.207187	-3.009000	3.676000	-11.060000	24.599311	0.000999	20.776888
747.206517	-2.977900	3.676900	-10.948000	24.574665	0.000999	20.785349
748.210772	-2.991700	3.675700	-10.995000	24.580015	0.000999	20.792140
749.207490	-2.987100	3.676700	-10.982000	24.566336	0.001000	20.799277
750.211010	-2.980900	3.677200	-10.961000	24.597918	0.000997	20.780232
751.209036	-2.987100	3.676100	-10.980000	24.588197	0.000999	20.777590
752.208942	-2.990600	3.675700	-10.991000	24.567005	0.001000	20.775767
753.209128	-3.009900	3.674400	-11.059000	24.569939	0.000998	20.783452
754.213643	-2.984000	3.675500	-10.966000	24.570092	0.000998	20.792140
755.212024	-3.001500	3.674100	-11.026000	24.577653	0.000997	20.786925
756.212429	-2.998900	3.674600	-11.018000	24.591308	0.000996	20.802996
757.213612	-2.972300	3.674300	-10.919000	24.588595	0.000996	20.796956
758.215478	-2.983500	3.675700	-10.966000	24.576432	0.000993	20.798028
759.213729	-2.993300	3.674600	-10.998000	24.591554	0.000995	20.797554
760.213983	-2.998200	3.672400	-11.010000	24.609186	0.000995	20.789167
761.214713	-3.011700	3.673700	-11.063000	24.634432	0.000996	20.800275
762.217002	-3.003600	3.672400	-11.030000	24.654180	0.000994	20.805392
763.217647	-2.995500	3.672300	-10.999000	24.671117	0.000996	20.791567
764.215434	-2.984100	3.673000	-10.959000	24.672481	0.000994	20.786297
765.217396	-3.007100	3.672700	-11.043000	24.668125	0.000994	20.807056
766.216538	-3.003200	3.671200	-11.024000	24.673431	0.000995	20.819019
767.215213	-2.989300	3.671600	-10.974000	24.669626	0.000994	20.788648
768.218664	-3.006500	3.670600	-11.034000	24.702200	0.000992	20.779610
769.221189	-3.001700	3.669700	-11.013000	24.686405	0.000991	20.788416
770.217841	-2.999200	3.670000	-11.006000	24.710552	0.000993	20.804113
771.217732	-2.993500	3.670100	-10.986000	24.680637	0.000995	20.800171
772.220090	-3.008300	3.668900	-11.037000	24.659629	0.000994	20.807066
773.219594	-3.014800	3.668800	-11.060000	24.644651	0.000994	20.793933
774.224710	-2.989500	3.668500	-10.966000	24.678495	0.000992	20.773367
775.221716	-3.000700	3.668900	-11.008000	24.652152	0.000991	20.829435
776.225018	-2.989200	3.669100	-10.967000	24.642332	0.000991	20.809150
777.222201	-2.962400	3.667400	-10.863000	24.638178	0.000992	20.798818
778.221400	-2.983600	3.667800	-10.942000	24.663350	0.000991	20.815067
779.227403	-2.966400	3.669700	-10.884000	24.669267	0.000991	20.811521
780.223711	-3.012900	3.666400	-11.044000	24.688886	0.000991	20.842587
781.224935	-3.005300	3.666700	-11.019000	24.702741	0.000990	20.804809
782.225184	-2.964300	3.667500	-10.870000	24.692213	0.000991	20.811788
783.225125	-2.985300	3.666900	-10.945000	24.730761	0.000989	20.792624
784.225283	-3.013500	3.664300	-11.041000	24.722631	0.000989	20.810543
785.228317	-2.988900	3.665500	-10.955000	24.735910	0.000988	20.803480
786.227049	-2.998000	3.666400	-10.990000	24.718600	0.000989	20.810765
787.226944	-2.985600	3.665200	-10.942000	24.709100	0.000990	20.821147
788.227907	-2.998800	3.664500	-10.987000	24.713574	0.000988	20.811412
789.226188	-3.031900	3.663700	-11.106000	24.718772	0.000987	20.824214
790.230990	-2.987600	3.664800	-10.947000	24.747594	0.000988	20.821369
791.227350	-2.995300	3.663700	-10.973000	24.736126	0.000988	20.825982
792.228674	-2.979700	3.663900	-10.916000	24.742392	0.000988	20.834640
793.227820	-2.986100	3.664600	-10.942000	24.741845	0.000988	20.836937
794.229854	-2.974400	3.664300	-10.898000	24.763088	0.000988	20.815581
795.230975	-2.991200	3.662800	-10.954000	24.765972	0.000987	20.815156
796.233408	-3.012900	3.662300	-11.033000	24.753987	0.000986	20.816406
797.229609	-2.984700	3.663300	-10.932000	24.744538	0.000987	20.812138
798.229719	-2.985900	3.663500	-10.936000	24.745950	0.000987	20.830625
799.228611	-2.985900	3.662500	-10.935000	24.752565	0.000985	20.820194
800.229722	-2.982900	3.661700	-10.921000	24.761946	0.000984	20.795943
801.233694	-2.998600	3.661200	-10.977000	24.789576	0.000985	20.826990
802.229975	-2.995600	3.660500	-10.965000	24.790467	0.000984	20.847324
803.236295	-3.011200	3.660200	-11.020000	24.795393	0.000982	20.838992
804.233627	-2.987000	3.662000	-10.938000	24.803597	0.000985	20.827311
805.231204	-2.987800	3.660700	-10.936000	24.823869	0.000985	20.835327
806.232487	-3.024800	3.658700	-11.066000	24.808524	0.000985	20.828936
807.231093	-2.976800	3.660800	-10.895000	24.830783	0.000986	20.828042
808.230439	-3.007900	3.659000	-11.005000	24.831477	0.000984	20.837747
809.231171	-3.003100	3.659500	-10.988000	24.839533	0.000986	20.824970
810.231641	-3.003300	3.659500	-10.989000	24.843441	0.000982	20.848805
811.231610	-3.005000	3.658700	-10.992000	24.794808	0.000984	20.847887
812.235344	-2.988100	3.659800	-10.935000	24.787543	0.000986	20.820683
813.230994	-2.998800	3.659700	-10.974000	24.791727	0.000984	20.832468
814.232471	-2.987000	3.657600	-10.923000	24.818878	0.000984	20.848810
815.233249	-3.007800	3.657200	-10.999000	24.839740	0.000984	20.836557
816.232393	-2.993500	3.658100	-10.950000	24.859981	0.000981	20.814672
817.237542	-2.984700	3.657600	-10.915000	24.837752	0.000984	20.844518
818.233559	-2.975600	3.657000	-10.881000	24.840011	0.000982	20.841096
819.233614	-3.006200	3.655300	-10.987000	24.827978	0.000983	20.832339
820.234399	-2.998400	3.656100	-10.961000	24.839366	0.000983	20.841871
821.233920	-2.992000	3.655900	-10.938000	24.832924	0.000982	20.852475
822.237253	-3.021300	3.656700	-11.047000	24.818278	0.000980	20.849630
823.235157	-2.991600	3.656900	-10.939000	24.808952	0.000982	20.837900
824.235838	-3.020600	3.653700	-11.035000	24.823568	0.000982	20.846405
825.236613	-3.017700	3.654500	-11.027000	24.798631	0.000981	20.844138
826.237094	-3.017900	3.654600	-11.028000	24.800118	0.000982	20.848949
827.235011	-3.008200	3.654100	-10.991000	24.824164	0.000978	20.850322
828.234957	-3.017000	3.653500	-11.022000	24.849873	0.000981	20.827761
829.235868	-3.029400	3.652600	-11.065000	24.846787	0.000979	20.853112
830.237264	-3.007600	3.654500	-10.990000	24.869041	0.000978	20.867859
831.235901	-3.012400	3.653500	-11.004000	24.900541	0.000978	20.849215
832.238407	-2.990000	3.653400	-10.924000	24.921406	0.000978	20.853561
833.242853	-2.995400	3.651900	-10.938000	24.928015	0.000976	20.831272
834.239460	-3.005000	3.652400	-10.975000	24.958938	0.000979	20.851877
835.242843	-2.983600	3.653100	-10.899000	24.951109	0.000976	20.850657
836.238872	-3.009600	3.651200	-10.988000	24.925599	0.000977	20.859666
837.238646	-2.982300	3.653000	-10.893000	24.898573	0.000977	20.876635
838.242568	-2.988000	3.653000	-10.914000	24.898445	0.000976	20.870343
839.243358	-3.008200	3.651000	-10.981000	24.877658	0.000974	20.864654
840.240468	-2.997500	3.651500	-10.944000	24.896432	0.000974	20.864056
841.241748	-2.998200	3.649500	-10.941000	24.895286	0.000974	20.838251
842.242480	-2.994900	3.651600	-10.935000	24.933133	0.000974	20.859641
843.242738	-2.980900	3.650700	-10.881000	24.947527	0.000972	20.880251
844.244313	-3.000300	3.650600	-10.951000	24.943629	0.000972	20.864960
845.242288	-3.010800	3.649100	-10.985000	24.942532	0.000972	20.881875
846.245048	-3.006700	3.649900	-10.973000	24.969611	0.000972	20.857848
847.243333	-2.987600	3.650100	-10.904000	24.941090	0.000971	20.856248
848.244994	-2.993800	3.649700	-10.925000	24.933310	0.000971	20.865982
849.245258	-2.981900	3.649400	-10.881000	24.945022	0.000971	20.863039
850.243600	-2.997000	3.648900	-10.935000	24.934083	0.000970	20.860120
851.244462	-3.004200	3.647400	-10.957000	24.947266	0.000968	20.878092
852.244660	-2.985900	3.649300	-10.895000	24.937665	0.000970	20.869405
853.243889	-3.014500	3.646900	-10.993000	24.958948	0.000966	20.882705
854.244228	-3.004700	3.646900	-10.957000	24.967082	0.000970	20.855784
855.245437	-2.995300	3.647700	-10.925000	24.976082	0.000969	20.877144
856.245176	-2.998400	3.645300	-10.927000	24.977032	0.000970	20.873356
857.245319	-2.985700	3.646300	-10.886000	24.959381	0.000969	20.870813
858.245455	-2.995300	3.646600	-10.922000	24.974798	0.000967	20.882019
859.244580	-2.967000	3.647600	-10.821000	24.985387	0.000969	20.880320
860.248629	-3.005900	3.644200	-10.954000	24.982036	0.000966	20.861311
861.249993	-3.015000	3.644800	-10.988000	24.971447	0.000968	20.871070
862.248019	-2.998700	3.644000	-10.927000	24.950711	0.000966	20.881550
863.250531	-2.999800	3.644400	-10.932000	24.942030	0.000964	20.864303
864.249149	-2.995300	3.644400	-10.914000	24.924753	0.000966	20.875885
865.252439	-2.997200	3.644100	-10.922000	24.935919	0.000966	20.871919
866.248307	-2.998500	3.643200	-10.924000	24.954121	0.000966	20.872645
867.250924	-2.985000	3.644100	-10.876000	24.979960	0.000967	20.869183
868.247102	-3.013400	3.643500	-10.978000	24.995819	0.000966	20.877515
869.249928	-2.976300	3.644400	-10.846000	24.993856	0.000966	20.856579
870.251812	-3.009700	3.641900	-10.959000	24.979640	0.000967	20.880715
871.254225	-3.000200	3.643200	-10.930000	24.999338	0.000964	20.870142
872.249851	-3.006300	3.641500	-10.946000	24.967437	0.000966	20.861829
873.251040	-2.990700	3.641900	-10.891000	24.968603	0.000965	20.860155
874.250487	-3.005000	3.640900	-10.940000	24.960331	0.000964	20.858017
875.252397	-3.015700	3.640800	-10.978000	24.941479	0.000965	20.869440
876.256799	-3.003900	3.641100	-10.936000	24.921569	0.000960	20.861311
877.256267	-3.002100	3.639500	-10.924000	24.946956	0.000964	20.884894
878.261005	-2.997900	3.640600	-10.913000	24.986642	0.000961	20.850762
879.257402	-2.987200	3.640100	-10.873000	24.996238	0.000962	20.863711
880.253015	-2.986600	3.639300	-10.868000	25.028585	0.000961	20.862042
881.254931	-3.002100	3.639700	-10.925000	25.044100	0.000963	20.857701
882.254054	-3.015000	3.637400	-10.965000	25.064184	0.000962	20.844198
883.257102	-3.004900	3.639000	-10.934000	25.054300	0.000961	20.851345
884.256090	-3.014200	3.638900	-10.967000	25.076077	0.000961	20.851868
885.257146	-2.975100	3.639400	-10.826000	25.083088	0.000960	20.845630
886.258403	-2.980700	3.638400	-10.844000	25.074808	0.000959	20.860551
887.260613	-2.986500	3.638200	-10.864000	25.105318	0.000959	20.848031
888.257658	-2.998200	3.638600	-10.908000	25.084983	0.000958	20.855592
889.258284	-3.006400	3.637400	-10.935000	25.088589	0.000960	20.846885
890.257164	-3.001800	3.637100	-10.917000	25.091202	0.000957	20.849508
891.257645	-3.000600	3.637000	-10.912000	25.073032	0.000956	20.855449
892.258824	-2.992200	3.637500	-10.883000	25.116192	0.000958	20.830498
893.258067	-3.010100	3.635400	-10.941000	25.097372	0.000960	20.853330
894.259112	-2.980900	3.636500	-10.839000	25.115724	0.000958	20.856580
895.257936	-3.002400	3.634600	-10.912000	25.119754	0.000957	20.852565
896.258846	-2.991900	3.636200	-10.879000	25.144861	0.000954	20.827984
897.260236	-2.988700	3.635000	-10.863000	25.137678	0.000956	20.831204
898.261902	-3.029700	3.634200	-11.009000	25.155458	0.000955	20.833407
899.260253	-2.992400	3.635400	-10.878000	25.141865	0.000955	20.841571
900.260203	-3.020500	3.631900	-10.969000	25.162843	0.000955	20.815691
901.262310	-3.001500	3.633100	-10.904000	25.135331	0.000954	20.833116
902.261254	-2.969100	3.635300	-10.793000	25.128423	0.000954	20.837561
903.264654	-2.998700	3.634400	-10.897000	25.094219	0.000955	20.845898
904.262707	-2.985400	3.634700	-10.849000	25.111248	0.000954	20.831699
905.265861	-3.011200	3.632000	-10.936000	25.124896	0.000953	20.817899
906.264012	-3.001500	3.632100	-10.900000	25.131164	0.000951	20.826562
907.264988	-3.007600	3.632700	-10.924000	25.170991	0.000953	20.837621
908.267750	-2.995400	3.633300	-10.883000	25.167759	0.000955	20.807824
909.264848	-2.999300	3.632500	-10.893000	25.173702	0.000951	20.830859
910.266779	-2.992100	3.632000	-10.865000	25.152030	0.000950	20.813845
911.266132	-3.024200	3.631000	-10.980000	25.151735	0.000951	20.839152
912.265905	-2.983600	3.631700	-10.834000	25.159641	0.000949	20.838555
913.265315	-2.981700	3.632000	-10.829000	25.167749	0.000947	20.836263
914.268170	-2.979900	3.631600	-10.821000	25.137000	0.000949	20.812032
915.265450	-2.981800	3.631800	-10.828000	25.152567	0.000948	20.823392
916.268755	-3.007800	3.629500	-10.915000	25.127932	0.000947	20.835172
917.266569	-3.017900	3.629900	-10.953000	25.165821	0.000947	20.839069
918.265199	-3.012900	3.629100	-10.934000	25.175518	0.000948	20.799967
919.269653	-3.006500	3.627900	-10.906000	25.170072	0.000948	20.820577
920.265415	-3.026400	3.627400	-10.977000	25.145763	0.000947	20.810398
921.265834	-3.001300	3.627400	-10.886000	25.142653	0.000947	20.830035
922.265778	-2.996600	3.628200	-10.871000	25.120976	0.000946	20.816335
923.266738	-2.995900	3.627100	-10.864000	25.060797	0.000948	20.813297
924.267018	-2.996000	3.626600	-10.865000	25.083317	0.000948	20.788488
925.270177	-3.000800	3.625600	-10.879000	25.122717	0.000946	20.815238
926.268180	-3.010100	3.626800	-10.916000	25.112080	0.000946	20.816888
927.267935	-2.981200	3.627600	-10.814000	25.115141	0.000945	20.812848
928.267791	-2.999400	3.626100	-10.875000	25.139972	0.000945	20.824025
929.267530	-2.992100	3.626200	-10.849000	25.116558	0.000944	20.825176
930.267492	-3.007800	3.624300	-10.900000	25.087170	0.000945	20.817960
931.267866	-3.029100	3.625800	-10.982000	25.026187	0.000946	20.821229
932.268860	-2.999400	3.624200	-10.870000	25.018432	0.000945	20.807756
933.267758	-2.989600	3.626400	-10.840000	24.983077	0.000944	20.820158
934.269175	-2.979100	3.626400	-10.802000	24.967641	0.000946	20.793759
935.271898	-3.016600	3.624600	-10.933000	24.992402	0.000943	20.816241
936.270825	-2.993100	3.623400	-10.843000	24.981665	0.000945	20.808309
937.270701	-3.005400	3.625400	-10.893000	24.994715	0.000942	20.814769
938.271433	-3.011300	3.624600	-10.913000	24.965880	0.000943	20.809534
939.271051	-2.988700	3.623400	-10.828000	24.962789	0.000942	20.812122
940.273812	-2.997800	3.622700	-10.858000	24.941458	0.000941	20.811100
941.274164	-2.993600	3.623700	-10.847000	24.914033	0.000940	20.793057
942.270543	-2.990100	3.623200	-10.833000	24.872288	0.000939	20.812324
943.269931	-2.995800	3.623000	-10.853000	24.898350	0.000940	20.800550
944.270666	-3.012300	3.620200	-10.903000	24.928885	0.000940	20.807015
945.271221	-3.015800	3.621900	-10.921000	24.938653	0.000939	20.798327
946.271852	-2.996200	3.620900	-10.848000	24.984721	0.000940	20.810902
947.270483	-2.985200	3.621700	-10.810000	24.996039	0.000938	20.794287
948.273658	-3.002600	3.620500	-10.870000	25.029632	0.000938	20.782014
949.270584	-3.015000	3.618200	-10.906000	25.029503	0.000938	20.817921
950.276362	-3.032300	3.618600	-10.972000	25.055685	0.000937	20.792519
951.270872	-3.005700	3.620100	-10.880000	25.061373	0.000938	20.799651
952.272016	-3.021400	3.618500	-10.932000	25.114802	0.000935	20.790222
953.276587	-2.988300	3.618800	-10.813000	25.133626	0.000934	20.808645
954.271882	-3.009800	3.618900	-10.891000	25.148961	0.000938	20.800333
955.272507	-3.014400	3.616700	-10.899000	25.166639	0.000935	20.807174
956.280421	-3.006600	3.617600	-10.876000	25.191646	0.000935	20.801933
957.272062	-2.985100	3.618100	-10.799000	25.214695	0.000935	20.794727
958.275478	-2.977200	3.618100	-10.771000	25.203502	0.000934	20.787758
959.273281	-2.999100	3.617900	-10.850000	25.151727	0.000934	20.795522
960.271326	-2.985300	3.617100	-10.798000	25.100470	0.000932	20.788163
961.272610	-2.983800	3.616700	-10.790000	25.104666	0.000933	20.789057
962.277724	-2.994300	3.616200	-10.827000	25.100696	0.000930	20.783649
963.272405	-2.997200	3.614500	-10.832000	25.082428	0.000930	20.772422
964.274193	-3.015400	3.615400	-10.901000	25.059430	0.000931	20.770674
965.275454	-3.024700	3.614900	-10.933000	25.071165	0.000931	20.780557
966.276421	-3.002600	3.614700	-10.853000	25.070968	0.000931	20.793636
967.280692	-3.001100	3.614400	-10.846000	25.088617	0.000929	20.783377
968.276981	-2.984700	3.614900	-10.787000	25.110669	0.000929	20.777539
969.278000	-2.979000	3.615200	-10.768000	25.113877	0.000929	20.806838
970.277226	-2.976900	3.616600	-10.764000	25.117036	0.000930	20.805742
971.276017	-2.978200	3.615200	-10.766000	25.116269	0.000929	20.789799
972.277956	-2.983300	3.614200	-10.780000	25.115078	0.000928	20.793345
973.277480	-3.004400	3.612800	-10.852000	25.103570	0.000928	20.778473
974.277185	-2.998900	3.613300	-10.834000	25.117017	0.000925	20.799084
975.276347	-2.989400	3.612300	-10.797000	25.122390	0.000925	20.783615
976.276526	-2.982300	3.614200	-10.778000	25.115261	0.000925	20.782623
977.275453	-2.999400	3.612200	-10.833000	25.080726	0.000926	20.782094
978.277592	-3.008600	3.612200	-10.867000	25.104299	0.000924	20.795800
979.276286	-3.002300	3.611200	-10.841000	25.111285	0.000923	20.765829
980.279286	-2.980600	3.611100	-10.762000	25.139704	0.000925	20.763538
981.276856	-3.004600	3.611300	-10.850000	25.149819	0.000925	20.777960
982.277667	-2.997500	3.611700	-10.825000	25.171127	0.000923	20.795084
983.282013	-3.019000	3.608900	-10.893000	25.178960	0.000925	20.776869
984.277453	-3.024800	3.609600	-10.917000	25.201487	0.000924	20.787632
985.281795	-3.009500	3.609400	-10.862000	25.193950	0.000923	20.771530
986.279624	-3.006300	3.609100	-10.848000	25.166139	0.000920	20.792921
987.280187	-3.010400	3.610400	-10.866000	25.119931	0.000921	20.779724
988.282365	-2.980500	3.610400	-10.760000	25.107104	0.000920	20.791504
989.280205	-2.985400	3.607600	-10.769000	25.123586	0.000921	20.787187
990.282324	-2.996900	3.609600	-10.815000	25.130499	0.000920	20.771367
991.281502	-2.954200	3.610200	-10.664000	25.130302	0.000918	20.795826
992.282598	-3.016000	3.605800	-10.874000	25.165923	0.000921	20.778006
993.283255	-3.005400	3.607700	-10.841000	25.187378	0.000919	20.785321
994.281006	-2.999600	3.606600	-10.818000	25.173190	0.000917	20.788620
995.287838	-2.999900	3.606000	-10.816000	25.174183	0.000916	20.787721
996.283138	-3.010200	3.606000	-10.854000	25.202846	0.000917	20.767184
997.283370	-3.010600	3.605400	-10.852000	25.250344	0.000917	20.770775
998.289410	-2.981100	3.606200	-10.749000	25.260341	0.000916	20.772277
999.284457	-3.004100	3.604300	-10.826000	25.276600	0.000918	20.764893
1000.286040	-3.009100	3.605200	-10.848000	25.278071	0.000915	20.756412
1001.285074	-2.987300	3.605100	-10.768000	25.258880	0.000915	20.767491
1002.285348	-3.005800	3.604800	-10.834000	25.265841	0.000916	20.781592
1003.284964	-2.983200	3.606100	-10.757000	25.284830	0.000913	20.783588
1004.288267	-2.983500	3.601800	-10.745000	25.289061	0.000913	20.781197
1005.287515	-2.998000	3.603700	-10.803000	25.303725	0.000914	20.789757
1006.285486	-2.995400	3.603400	-10.792000	25.293360	0.000914	20.760384
1007.290769	-2.971600	3.604200	-10.709000	25.254635	0.000914	20.793575
1008.285725	-2.983200	3.602500	-10.746000	25.233063	0.000912	20.758166
1009.288824	-2.988100	3.602300	-10.762000	25.149614	0.000914	20.776332
1010.286018	-2.978800	3.602300	-10.728000	25.124611	0.000910	20.758818
1011.287158	-3.001500	3.601900	-10.810000	25.105516	0.000910	20.755296
1012.288019	-3.009900	3.601300	-10.838000	25.096793	0.000911	20.768351
1013.287491	-2.984400	3.602200	-10.749000	25.118668	0.000909	20.767076
1014.288519	-3.001100	3.600800	-10.804000	25.134407	0.000910	20.773394
1015.286911	-2.991100	3.599900	-10.766000	25.133487	0.000909	20.747339
1016.286674	-3.004200	3.600000	-10.814000	25.168094	0.000908	20.750313
1017.286813	-3.000200	3.600100	-10.798000	25.180202	0.000909	20.754408
1018.292770	-2.999100	3.600400	-10.796000	25.169855	0.000909	20.753029
1019.288984	-3.004900	3.598700	-10.812000	25.157752	0.000907	20.763165
1020.290852	-2.997200	3.599600	-10.788000	25.136921	0.000907	20.756951
1021.290932	-3.000600	3.598800	-10.798000	25.151440	0.000908	20.744500
1022.294116	-3.016400	3.597700	-10.850000	25.185299	0.000906	20.745774
1023.291173	-3.015500	3.597600	-10.847000	25.177865	0.000907	20.764864
1024.296954	-3.011400	3.597400	-10.832000	25.191728	0.000905	20.747487
1025.292703	-3.011700	3.596800	-10.831000	25.171927	0.000907	20.746574
1026.290148	-3.014800	3.596800	-10.843000	25.139130	0.000904	20.764859
1027.293852	-3.022200	3.596300	-10.867000	25.128414	0.000904	20.765007
1028.290896	-2.984900	3.597300	-10.736000	25.143430	0.000903	20.736458
1029.294488	-3.000700	3.596100	-10.790000	25.198941	0.000903	20.748564
1030.296268	-2.975000	3.598100	-10.703000	25.206921	0.000903	20.759895
1031.296589	-2.978300	3.596700	-10.711000	25.230707	0.000902	20.768129
1032.294504	-3.010500	3.595100	-10.822000	25.257228	0.000901	20.735959
1033.294158	-2.999900	3.595300	-10.784000	25.247064	0.000901	20.759421
1034.295936	-2.983400	3.597000	-10.729000	25.255211	0.000900	20.751478
1035.294001	-3.000200	3.594000	-10.782000	25.252475	0.000899	20.753000
1036.298701	-2.999500	3.595800	-10.785000	25.250291	0.000900	20.741797
1037.294151	-3.001100	3.593800	-10.785000	25.244220	0.000898	20.745660
1038.302196	-2.995900	3.594200	-10.766000	25.266387	0.000900	20.735198
1039.296087	-3.007600	3.593800	-10.807000	25.255604	0.000899	20.757563
1040.293427	-2.988500	3.593000	-10.737000	25.245509	0.000898	20.737944
1041.299309	-3.007500	3.592400	-10.803000	25.273220	0.000898	20.752964
1042.294024	-2.996600	3.593000	-10.766000	25.305033	0.000896	20.754560
1043.294427	-3.020700	3.591800	-10.848000	25.333643	0.000898	20.747724
1044.295345	-3.002300	3.591200	-10.781000	25.322648	0.000897	20.766083
1045.294202	-3.037400	3.591800	-10.908000	25.321901	0.000896	20.738778
1046.294859	-3.011500	3.591500	-10.814000	25.284372	0.000897	20.737608
1047.296681	-2.994600	3.591700	-10.754000	25.287476	0.000896	20.727921
1048.293940	-2.997300	3.591300	-10.763000	25.271488	0.000897	20.725145
1049.297818	-2.988300	3.591000	-10.730000	25.312947	0.000898	20.752549
1050.295646	-2.982700	3.591500	-10.710000	25.294402	0.000894	20.739143
1051.296499	-2.996300	3.589800	-10.755000	25.250929	0.000897	20.745757
1052.298043	-3.016200	3.588800	-10.823000	25.255868	0.000894	20.721791
1053.295838	-3.005600	3.589000	-10.786000	25.241080	0.000893	20.735868
1054.299291	-3.019300	3.587200	-10.830000	25.227502	0.000893	20.736935
1055.301663	-3.013300	3.588800	-10.813000	25.217958	0.000891	20.727352
1056.298192	-2.986100	3.589900	-10.719000	25.225288	0.000892	20.730919
1057.298813	-3.005200	3.586300	-10.777000	25.246240	0.000891	20.730143
1058.301558	-2.990900	3.587100	-10.727000	25.269504	0.000891	20.755398
1059.296264	-2.996300	3.586300	-10.744000	25.290952	0.000891	20.749905
1060.299204	-3.014500	3.585800	-10.808000	25.308824	0.000890	20.746986
1061.297812	-3.003200	3.585800	-10.768000	25.282280	0.000887	20.738352
1062.299958	-3.011100	3.586700	-10.799000	25.260900	0.000888	20.719256
1063.298529	-3.008400	3.584600	-10.783000	25.275535	0.000887	20.739167
1064.298658	-2.988500	3.586400	-10.717000	25.265298	0.000889	20.739794
1065.298175	-3.000600	3.585500	-10.757000	25.242083	0.000886	20.729762
1066.300442	-3.000700	3.585500	-10.758000	25.254957	0.000887	20.776829
1067.299576	-3.020700	3.584000	-10.825000	25.250608	0.000887	20.737848
1068.301282	-2.989600	3.583900	-10.714000	25.222995	0.000886	20.721504
1069.301452	-3.021000	3.583500	-10.825000	25.211527	0.000885	20.736544
1070.298074	-3.007000	3.583300	-10.774000	25.204970	0.000884	20.720950
1071.300163	-3.005500	3.583300	-10.768000	25.208974	0.000883	20.733032
1072.298875	-3.003400	3.581200	-10.755000	25.243470	0.000884	20.725465
1073.300538	-2.991400	3.583400	-10.718000	25.217072	0.000882	20.752068
1074.300659	-2.998900	3.582600	-10.743000	25.203258	0.000882	20.754795
1075.301138	-2.986800	3.582900	-10.700000	25.207833	0.000883	20.733309
1076.299113	-3.013500	3.580000	-10.787000	25.227265	0.000882	20.719152
1077.298257	-2.979200	3.583200	-10.673000	25.250859	0.000881	20.733358
1078.300768	-3.000100	3.580600	-10.741000	25.256054	0.000881	20.722452
1079.301414	-3.002500	3.579300	-10.745000	25.270498	0.000880	20.739799
1080.301380	-2.987000	3.580200	-10.693000	25.316055	0.000879	20.751876
1081.299987	-2.979200	3.580500	-10.667000	25.305794	0.000881	20.735408
1082.300763	-2.965000	3.581700	-10.618000	25.309921	0.000879	20.734337
1083.301053	-2.972300	3.580200	-10.640000	25.278005	0.000878	20.730266
1084.303310	-3.008700	3.578500	-10.766000	25.291233	0.000879	20.721262
1085.300395	-2.962900	3.580100	-10.607000	25.268161	0.000877	20.728918
1086.305803	-2.985900	3.578100	-10.682000	25.257624	0.000877	20.732089
1087.302734	-3.014100	3.577800	-10.783000	25.262475	0.000873	20.730795
1088.301685	-2.993000	3.576700	-10.704000	25.284321	0.000875	20.719064
1089.305439	-2.970800	3.577500	-10.626000	25.290589	0.000877	20.730099
1090.303282	-2.963000	3.577800	-10.600000	25.251686	0.000873	20.746991
1091.301672	-2.968000	3.577800	-10.618000	25.249133	0.000874	20.744902
1092.301228	-2.973500	3.576900	-10.634000	25.282088	0.000874	20.742427
1093.301546	-2.986500	3.575400	-10.677000	25.266105	0.000873	20.731595
1094.301624	-2.999400	3.576300	-10.726000	25.294042	0.000874	20.720763
1095.306744	-2.996900	3.577700	-10.721000	25.303089	0.000871	20.729847
1096.303777	-2.999700	3.574300	-10.721000	25.281168	0.000872	20.709734
1097.303735	-2.997600	3.576100	-10.718000	25.282678	0.000871	20.743494
1098.304050	-3.005700	3.574200	-10.742000	25.288001	0.000869	20.747890
1099.308053	-3.023400	3.574200	-10.805000	25.266258	0.000870	20.740284
1100.307802	-3.020200	3.575300	-10.795000	25.243338	0.000867	20.722961
1101.306918	-3.011900	3.574300	-10.764000	25.200784	0.000868	20.721015
1102.309699	-3.024300	3.573200	-10.805000	25.177198	0.000867	20.728158
1103.310802	-3.003300	3.572600	-10.728000	25.201487	0.000867	20.737370
1104.309724	-3.007100	3.573200	-10.744000	25.263607	0.000866	20.721974
1105.311505	-3.000400	3.572900	-10.718000	25.261742	0.000866	20.729111
1106.311071	-3.000900	3.571500	-10.716000	25.303625	0.000864	20.735602
1107.310129	-2.999900	3.572300	-10.715000	25.349777	0.000866	20.735473
1108.311008	-3.015800	3.569500	-10.765000	25.345281	0.000866	20.728114
1109.312064	-2.999900	3.571200	-10.712000	25.365414	0.000864	20.732209
1110.312340	-2.989500	3.570800	-10.673000	25.384750	0.000864	20.727916
1111.313650	-3.004000	3.570800	-10.726000	25.391288	0.000865	20.739697
1112.312543	-2.996000	3.571000	-10.698000	25.385405	0.000863	20.732367
1113.313537	-2.983600	3.570400	-10.652000	25.416251	0.000862	20.704069
1114.311854	-2.992200	3.569400	-10.679000	25.418164	0.000864	20.747244
1115.313067	-3.004300	3.570800	-10.725000	25.442497	0.000862	20.724736
1116.317482	-2.993900	3.568700	-10.683000	25.410516	0.000860	20.731977
1117.315341	-3.013700	3.568200	-10.752000	25.410216	0.000862	20.699431
1118.317122	-3.011500	3.567100	-10.742000	25.400280	0.000860	20.730234
1119.314403	-3.004300	3.568300	-10.719000	25.392499	0.000858	20.724316
1120.325158	-3.012600	3.568400	-10.747000	25.373571	0.000861	20.742296
1121.332463	-2.989800	3.568400	-10.667000	25.362686	0.000860	20.735633
1122.316387	-2.998100	3.567600	-10.695000	25.354235	0.000858	20.748959
1123.317596	-2.995200	3.567600	-10.685000	25.357919	0.000857	20.722312
1124.313797	-3.002300	3.566100	-10.706000	25.364255	0.000859	20.733415
1125.314410	-3.005100	3.566200	-10.716000	25.346261	0.000858	20.724831
1126.317523	-3.033600	3.564200	-10.811000	25.394585	0.000856	20.716928
1127.320479	-2.978100	3.566400	-10.621000	25.396395	0.000857	20.732971
1128.316774	-3.004900	3.566400	-10.715000	25.446729	0.000858	20.737047
1129.319885	-2.968900	3.566300	-10.587000	25.451623	0.000855	20.732003
1130.316723	-2.967900	3.565600	-10.580000	25.468075	0.000855	20.740465
1131.319642	-2.990500	3.564100	-10.658000	25.492259	0.000855	20.753371
1132.319601	-3.008000	3.563200	-10.717000	25.494099	0.000854	20.735303
1133.321446	-2.983900	3.564800	-10.636000	25.479939	0.000851	20.722980
1134.319934	-2.969500	3.564900	-10.585000	25.443906	0.000852	20.734686
1135.318723	-3.006400	3.562300	-10.709000	25.448810	0.000853	20.737240
1136.320483	-3.003800	3.561900	-10.698000	25.472990	0.000853	20.731175
1137.322718	-2.997200	3.562300	-10.675000	25.460492	0.000852	20.730004
1138.320832	-2.998000	3.563000	-10.681000	25.470009	0.000851	20.713956
1139.324471	-2.999900	3.561600	-10.683000	25.452514	0.000851	20.731950
1140.321595	-2.987900	3.561800	-10.641000	25.469223	0.000851	20.728340
1141.320231	-3.018300	3.560500	-10.745000	25.482419	0.000848	20.731160
1142.321496	-2.961600	3.561800	-10.546000	25.450587	0.000848	20.728118
1143.325984	-3.000000	3.559400	-10.676000	25.441517	0.000848	20.730864
1144.318270	-2.996900	3.561200	-10.671000	25.463286	0.000849	20.730439
1145.319402	-2.993000	3.560700	-10.657000	25.475740	0.000846	20.746740
1146.320367	-3.001200	3.558200	-10.678000	25.449200	0.000846	20.733364
1147.321812	-3.010200	3.559200	-10.711000	25.447587	0.000846	20.732218
1148.327713	-3.008800	3.559200	-10.708000	25.440386	0.000844	20.743480
1149.320535	-2.997400	3.558400	-10.664000	25.451940	0.000844	20.741331
1150.322327	-3.000500	3.558100	-10.674000	25.448615	0.000844	20.740364
1151.322505	-3.025700	3.557600	-10.763000	25.468649	0.000842	20.737721
1152.321455	-3.002400	3.557200	-10.679000	25.466435	0.000844	20.745456
1153.324839	-3.022200	3.556800	-10.748000	25.451650	0.000842	20.733454
1154.325065	-3.016000	3.556800	-10.726000	25.473297	0.000841	20.754243
1155.322911	-3.010400	3.555700	-10.703000	25.518354	0.000843	20.744963
1156.322818	-2.996200	3.555900	-10.653000	25.541912	0.000841	20.743965
1157.323658	-3.010500	3.556900	-10.708000	25.530335	0.000840	20.743718
1158.324518	-3.028300	3.555000	-10.763000	25.508267	0.000841	20.744790
1159.325632	-3.003100	3.554800	-10.675000	25.502306	0.000839	20.735010
1160.324412	-2.985100	3.555000	-10.610000	25.497186	0.000839	20.729394
1161.326526	-2.987000	3.554500	-10.616000	25.454494	0.000839	20.750060
1162.323799	-2.996700	3.555100	-10.652000	25.448375	0.000839	20.738700
1163.325338	-2.981500	3.555400	-10.599000	25.440205	0.000836	20.753256
1164.329950	-2.965500	3.554600	-10.539000	25.438715	0.000838	20.723309
1165.326856	-3.007300	3.553300	-10.684000	25.453053	0.000838	20.747191
1166.328776	-2.972600	3.555400	-10.567000	25.457199	0.000838	20.736181
1167.326182	-2.979200	3.552800	-10.583000	25.412351	0.000837	20.747571
1168.327348	-2.996200	3.552300	-10.642000	25.426709	0.000837	20.760092
1169.329677	-2.986700	3.552600	-10.609000	25.462998	0.000835	20.747695
1170.329938	-2.982100	3.554000	-10.597000	25.492292	0.000835	20.737282
1171.327659	-2.995500	3.551900	-10.638000	25.513515	0.000836	20.740103
1172.325840	-3.018000	3.551400	-10.716000	25.500270	0.000835	20.750510
1173.327138	-2.989600	3.552600	-10.619000	25.524153	0.000834	20.759322
1174.331123	-3.019900	3.550100	-10.720000	25.539330	0.000835	20.752752
1175.331691	-3.013900	3.549700	-10.698000	25.552526	0.000831	20.747986
1176.328434	-3.017000	3.548900	-10.706000	25.564905	0.000832	20.764686
1177.331851	-2.992900	3.550500	-10.625000	25.574195	0.000832	20.752204
1178.328152	-3.016900	3.548600	-10.704000	25.556971	0.000833	20.752451
1179.329728	-2.993600	3.549400	-10.623000	25.532450	0.000830	20.768128
1180.329710	-3.008600	3.548100	-10.674000	25.529612	0.000830	20.758640
1181.331428	-3.007900	3.547700	-10.669000	25.552870	0.000829	20.760660
1182.330987	-3.022900	3.547900	-10.724000	25.522879	0.000830	20.756145
1183.335044	-3.026700	3.546400	-10.733000	25.564103	0.000830	20.755819
1184.335207	-3.004900	3.547700	-10.659000	25.598199	0.000827	20.753552
1185.333006	-2.985000	3.546600	-10.585000	25.601602	0.000828	20.757919
1186.337728	-3.011200	3.547700	-10.682000	25.622694	0.000827	20.751601
1187.333542	-2.973700	3.547300	-10.547000	25.660039	0.000827	20.768246
1188.333462	-2.986400	3.546600	-10.589000	25.654694	0.000826	20.752445
1189.334320	-2.983200	3.545600	-10.575000	25.616950	0.000826	20.762902
1190.335167	-3.001700	3.545500	-10.641000	25.628630	0.000826	20.770839
1191.336038	-2.998300	3.545000	-10.629000	25.633651	0.000825	20.785365
1192.334963	-2.994900	3.543400	-10.611000	25.634939	0.000822	20.769589
1193.339339	-3.004700	3.544000	-10.647000	25.605098	0.000824	20.772336
1194.333992	-3.001100	3.543700	-10.633000	25.603136	0.000824	20.762778
1195.333865	-2.994000	3.543900	-10.610000	25.626496	0.000824	20.776757
1196.335688	-2.989600	3.543800	-10.593000	25.615264	0.000823	20.767846
1197.336208	-2.985000	3.543100	-10.575000	25.583779	0.000822	20.776529
1198.334332	-3.007500	3.542400	-10.653000	25.593443	0.000820	20.761104
1199.334635	-3.002500	3.541600	-10.631000	25.596949	0.000822	20.756565
1200.334620	-2.983900	3.542600	-10.570000	25.588274	0.000821	20.760654
1201.337095	-2.973000	3.541300	-10.526000	25.581468	0.000819	20.762354
1202.335700	-3.003300	3.541900	-10.636000	25.609426	0.000821	20.785692
1203.336679	-3.000000	3.542300	-10.625000	25.608875	0.000818	20.756688
1204.337790	-2.989300	3.542000	-10.587000	25.599758	0.000818	20.766972
1205.334980	-2.976400	3.541800	-10.540000	25.570161	0.000817	20.771862
1206.334210	-2.983200	3.540000	-10.559000	25.553784	0.000817	20.772958
1207.338190	-3.006800	3.538900	-10.640000	25.544715	0.000815	20.776178
1208.334886	-3.009000	3.540000	-10.650000	25.550651	0.000816	20.776450
1209.334238	-3.010700	3.538000	-10.651000	25.579658	0.000817	20.768597
1210.333950	-2.993600	3.538400	-10.591000	25.594294	0.000815	20.778080
1211.333542	-3.005100	3.537700	-10.630000	25.603259	0.000814	20.789929
1212.336011	-3.020000	3.536500	-10.679000	25.565961	0.000812	20.775704
1213.338198	-3.036500	3.536800	-10.739000	25.557444	0.000812	20.769521
1214.334892	-3.010400	3.537000	-10.647000	25.585820	0.000812	20.771467
1215.335886	-3.018200	3.536500	-10.672000	25.596979	0.000810	20.787415
1216.334260	-3.011700	3.537000	-10.652000	25.621627	0.000812	20.753374
1217.337353	-2.988400	3.535900	-10.564000	25.633577	0.000812	20.779127
1218.339537	-2.986600	3.536500	-10.561000	25.658402	0.000811	20.791258
1219.337776	-2.985700	3.537700	-10.559000	25.649904	0.000811	20.778456
1220.336554	-2.991500	3.535200	-10.575000	25.642602	0.000808	20.791984
1221.336550	-3.007100	3.535500	-10.629000	25.666905	0.000808	20.781780
1222.339588	-2.996900	3.536000	-10.595000	25.673470	0.000808	20.794538
1223.341794	-3.006200	3.535200	-10.627000	25.641436	0.000808	20.761890
1224.337574	-3.012800	3.533800	-10.646000	25.624544	0.000807	20.787599
1225.338031	-2.988000	3.535300	-10.562000	25.646212	0.000807	20.776644
1226.338387	-3.007800	3.534500	-10.631000	25.651582	0.000804	20.802426
1227.343997	-2.996500	3.533300	-10.587000	25.629300	0.000807	20.791901
1228.340773	-3.000200	3.533300	-10.599000	25.591324	0.000804	20.773201
1229.338939	-2.988000	3.533500	-10.557000	25.595579	0.000804	20.790276
1230.342215	-3.024900	3.530900	-10.680000	25.558581	0.000806	20.786784
1231.350964	-3.002000	3.532700	-10.604000	25.600925	0.000804	20.794223
1232.340281	-3.002400	3.531900	-10.603000	25.609747	0.000803	20.783169
1233.344518	-2.995700	3.530400	-10.575000	25.613131	0.000800	20.774239
1234.343566	-3.003400	3.530300	-10.602000	25.613008	0.000802	20.796402
1235.344241	-3.008100	3.529900	-10.617000	25.615123	0.000804	20.780508
1236.343487	-3.000700	3.530000	-10.590000	25.619839	0.000800	20.801839
1237.341879	-2.995300	3.530300	-10.573000	25.628037	0.000800	20.812917
1238.346038	-2.988700	3.530300	-10.549000	25.640513	0.000800	20.795577
1239.345781	-3.004600	3.528100	-10.600000	25.634681	0.000799	20.799677
1240.343568	-2.982500	3.529100	-10.524000	25.647330	0.000797	20.782034
1241.344050	-2.987000	3.528300	-10.538000	25.625436	0.000799	20.777589
1242.344560	-2.994800	3.529000	-10.567000	25.642412	0.000797	20.784682
1243.363317	-2.982900	3.529200	-10.527000	25.688377	0.000797	20.799553
1244.348858	-3.001900	3.528300	-10.591000	25.686587	0.000797	20.798704
1245.346884	-2.990300	3.527200	-10.546000	25.683312	0.000796	20.786880
1246.352009	-3.009300	3.525600	-10.607000	25.684807	0.000797	20.794071
1247.348662	-3.000500	3.527200	-10.583000	25.709975	0.000797	20.785210
1248.348472	-2.990700	3.527900	-10.550000	25.715939	0.000795	20.815383
1249.354489	-3.004500	3.526700	-10.595000	25.706946	0.000793	20.800186
1250.349699	-3.013600	3.525400	-10.623000	25.698871	0.000794	20.816258
1251.348860	-3.006300	3.524900	-10.596000	25.657904	0.000793	20.806879
1252.348479	-2.988400	3.525500	-10.535000	25.647346	0.000794	20.806232
1253.349658	-2.985900	3.525000	-10.524000	25.674107	0.000791	20.801342
1254.348315	-2.995000	3.524400	-10.554000	25.690477	0.000791	20.805456
1255.354283	-3.002700	3.523300	-10.577000	25.674034	0.000793	20.809803
1256.349663	-2.986300	3.522300	-10.518000	25.659202	0.000789	20.821933
1257.351192	-2.975600	3.523300	-10.483000	25.701714	0.000790	20.806785
1258.351007	-2.994500	3.523500	-10.549000	25.724723	0.000789	20.815197
1259.350801	-2.998800	3.523200	-10.564000	25.708083	0.000788	20.800380
1260.352870	-3.017900	3.522700	-10.629000	25.733476	0.000788	20.786057
1261.352895	-3.004900	3.521600	-10.581000	25.680629	0.000787	20.818798
1262.355082	-3.014600	3.521300	-10.614000	25.704110	0.000787	20.825312
1263.355066	-2.991700	3.520800	-10.532000	25.711442	0.000787	20.810866
1264.351115	-2.997900	3.520300	-10.553000	25.725014	0.000786	20.818808
1265.353726	-3.005000	3.519600	-10.576000	25.712839	0.000785	20.809898
1266.352400	-2.995200	3.518300	-10.535000	25.704371	0.000786	20.831265
1267.352010	-2.993000	3.519100	-10.531000	25.747678	0.000784	20.804589
1268.352254	-2.994000	3.519300	-10.535000	25.688700	0.000784	20.832594
1269.353196	-2.993700	3.518700	-10.533000	25.664973	0.000784	20.822514
1270.353115	-3.013100	3.518500	-10.601000	25.676652	0.000784	20.821916
1271.353706	-2.995200	3.516800	-10.532000	25.661944	0.000783	20.808092
1272.352937	-3.011000	3.517200	-10.588000	25.589993	0.000783	20.809322
1273.353415	-2.980200	3.519200	-10.487000	25.603684	0.000783	20.810745
1274.353900	-3.023900	3.515800	-10.630000	25.622623	0.000784	20.823601
1275.355771	-2.983900	3.517800	-10.495000	25.608135	0.000782	20.826594
1276.357514	-2.997000	3.516300	-10.537000	25.635596	0.000782	20.811027
1277.354717	-2.990800	3.516000	-10.513000	25.631770	0.000781	20.838004
1278.356301	-2.981300	3.516700	-10.483000	25.661267	0.000780	20.827326
1279.354841	-2.980000	3.515600	-10.475000	25.691947	0.000780	20.850079
1280.354558	-2.991400	3.515800	-10.517000	25.690536	0.000779	20.828274
1281.355536	-2.999900	3.515000	-10.543000	25.692498	0.000778	20.823607
1282.358796	-3.008300	3.514300	-10.571000	25.684915	0.000780	20.832111
1283.355193	-2.984800	3.515000	-10.489000	25.729246	0.000777	20.823059
1284.353443	-3.026000	3.512000	-10.625000	25.687723	0.000779	20.824500
1285.355751	-2.987000	3.515300	-10.500000	25.692744	0.000781	20.837129
1286.357265	-2.999200	3.512800	-10.533000	25.688269	0.000779	20.828367
1287.359888	-3.011600	3.512200	-10.576000	25.707225	0.000775	20.811846
1288.357276	-2.983200	3.513200	-10.479000	25.747178	0.000776	20.835855
1289.356930	-3.004300	3.511100	-10.546000	25.766724	0.000778	20.834150
1290.358487	-2.993900	3.512000	-10.513000	25.770096	0.000776	20.844176
1291.356409	-2.997300	3.512200	-10.526000	25.766123	0.000775	20.836392
1292.358776	-3.007100	3.510900	-10.557000	25.785128	0.000775	20.830352
1293.358109	-3.030400	3.507800	-10.629000	25.825348	0.000776	20.816226
1294.366095	-2.996000	3.510700	-10.516000	25.835212	0.000775	20.817599
1295.363204	-2.994400	3.510100	-10.509000	25.861516	0.000774	20.844497
1296.357259	-3.005600	3.509500	-10.548000	25.875032	0.000772	20.849539
1297.363792	-2.995400	3.508600	-10.508000	25.886060	0.000774	20.837859
1298.360682	-3.010200	3.509200	-10.562000	25.890927	0.000773	20.839903
1299.360404	-3.011400	3.507000	-10.560000	25.888341	0.000771	20.849159
1300.359464	-3.029500	3.506500	-10.621000	25.856466	0.000772	20.833734
1301.358835	-2.989200	3.507900	-10.484000	25.785270	0.000773	20.842348
1302.360162	-3.003300	3.506700	-10.531000	25.775199	0.000771	20.832232
1303.362389	-2.986500	3.507500	-10.474000	25.758432	0.000771	20.853796
1304.363113	-3.000100	3.506100	-10.518000	25.740912	0.000769	20.863698
1305.361467	-2.994500	3.507600	-10.503000	25.705979	0.000768	20.838569
1306.361486	-2.994300	3.506700	-10.499000	25.703117	0.000766	20.843754
1307.360444	-3.019700	3.504800	-10.583000	25.689476	0.000767	20.855183
1308.364016	-3.013500	3.505100	-10.561000	25.701499	0.000767	20.849715
1309.361138	-2.995400	3.505400	-10.498000	25.721724	0.000766	20.865288
1310.363365	-2.986200	3.504300	-10.464000	25.749147	0.000766	20.852056
1311.363057	-2.986000	3.505100	-10.466000	25.788479	0.000766	20.851735
1312.362267	-2.984800	3.503800	-10.457000	25.822165	0.000766	20.857123
1313.363091	-2.985300	3.503300	-10.458000	25.850780	0.000764	20.863109
1314.362882	-3.003400	3.502400	-10.517000	25.842756	0.000763	20.882548
1315.365880	-2.996000	3.503600	-10.496000	25.862202	0.000763	20.859884
1316.362804	-2.990200	3.502500	-10.472000	25.838350	0.000765	20.857735
1317.365557	-3.002200	3.502400	-10.513000	25.846227	0.000763	20.869914
1318.363264	-2.993000	3.501600	-10.479000	25.877974	0.000762	20.883313
1319.365762	-3.011400	3.500800	-10.541000	25.871740	0.000761	20.870413
1320.364614	-3.004900	3.499600	-10.514000	25.867816	0.000761	20.856515
1321.364316	-2.996600	3.499000	-10.483000	25.891613	0.000761	20.884686
1322.366922	-2.999400	3.499600	-10.495000	25.864232	0.000760	20.887051
1323.367307	-3.006300	3.498400	-10.516000	25.904528	0.000760	20.861627
1324.365276	-3.011200	3.498200	-10.532000	25.916022	0.000758	20.850415
1325.367740	-3.005200	3.499800	-10.515000	25.930089	0.000759	20.865968
1326.366269	-2.999500	3.498500	-10.492000	25.930983	0.000759	20.848850
1327.368829	-3.004200	3.498200	-10.508000	25.920153	0.000756	20.863098
1328.368432	-2.981900	3.497000	-10.426000	25.919184	0.000758	20.875875
1329.367124	-2.999600	3.496800	-10.488000	25.909838	0.000755	20.897778
1330.373932	-3.006200	3.497100	-10.512000	25.903009	0.000756	20.879539
1331.366463	-3.015900	3.496200	-10.543000	25.916770	0.000754	20.890992
1332.367279	-3.001700	3.495600	-10.492000	25.943672	0.000753	20.870131
1333.369159	-3.026200	3.495300	-10.577000	25.919454	0.000753	20.881362
1334.366948	-2.998300	3.495000	-10.478000	25.912841	0.000754	20.880408
1335.368578	-2.988800	3.496900	-10.451000	25.897468	0.000751	20.898153
1336.369996	-3.005400	3.493900	-10.500000	25.843906	0.000752	20.887021
1337.367118	-2.979300	3.496400	-10.416000	25.851960	0.000752	20.899378
1338.369831	-2.978500	3.494900	-10.408000	25.875732	0.000750	20.873949
1339.370532	-2.992800	3.496200	-10.462000	25.899680	0.000752	20.880463
1340.367248	-2.991400	3.492800	-10.448000	25.889449	0.000751	20.879194
1341.367758	-3.000700	3.493300	-10.481000	25.896038	0.000748	20.871115
1342.369882	-2.997500	3.493100	-10.469000	25.894843	0.000748	20.887457
1343.368268	-2.997900	3.491300	-10.465000	25.891986	0.000749	20.869415
1344.370236	-3.022800	3.490600	-10.550000	25.887419	0.000748	20.860086
1345.369690	-3.022600	3.491200	-10.551000	25.940802	0.000746	20.869618
1346.374798	-3.017800	3.489800	-10.530000	25.906746	0.000746	20.882820
1347.369447	-3.005900	3.491000	-10.492000	25.893388	0.000746	20.874617
1348.370296	-3.003900	3.490800	-10.485000	25.835534	0.000744	20.853010
1349.371602	-2.985900	3.491000	-10.422000	25.797748	0.000745	20.871476
1350.369511	-2.995300	3.490000	-10.453000	25.759886	0.000744	20.875644
1351.368453	-3.004400	3.490400	-10.485000	25.769805	0.000742	20.879443
1352.368744	-2.996500	3.487900	-10.449000	25.816255	0.000744	20.851661
1353.369251	-3.009900	3.488500	-10.499000	25.807696	0.000743	20.871511
1354.368959	-2.993900	3.487800	-10.441000	25.823892	0.000743	20.867866
1355.373370	-2.995000	3.488000	-10.444000	25.835275	0.000743	20.862232
1356.379380	-3.023800	3.485300	-10.538000	25.839124	0.000743	20.862306
1357.374340	-3.011500	3.485400	-10.496000	25.846008	0.000740	20.849781
1358.371871	-3.016500	3.486200	-10.515000	25.860512	0.000744	20.868617
1359.372870	-3.009500	3.485400	-10.488000	25.861982	0.000741	20.871991
1360.375978	-2.990700	3.486100	-10.424000	25.851298	0.000741	20.852250
1361.373256	-3.002000	3.486400	-10.465000	25.856043	0.000740	20.848008
1362.378031	-3.006400	3.485700	-10.478000	25.877897	0.000740	20.847676
1363.376186	-3.001300	3.484500	-10.456000	25.889328	0.000741	20.845884
1364.374765	-3.009900	3.482400	-10.481000	25.909275	0.000738	20.842688
1365.376904	-3.010800	3.483500	-10.487000	25.888832	0.000739	20.861979
1366.377281	-3.010700	3.483500	-10.486000	25.917175	0.000738	20.864849
1367.380491	-3.010700	3.483300	-10.486000	25.898694	0.000737	20.839172
1368.379224	-3.005100	3.481200	-10.461000	25.887298	0.000736	20.862810
1369.377072	-3.005400	3.481300	-10.460000	25.895936	0.000735	20.844935
1370.376449	-3.001300	3.481300	-10.447000	25.879024	0.000735	20.845963
1371.379562	-2.974200	3.481600	-10.354000	25.870852	0.000735	20.854349
1372.376996	-3.006600	3.481500	-10.466000	25.837807	0.000736	20.831586
1373.379515	-2.998900	3.480200	-10.436000	25.838554	0.000734	20.843242
1374.377299	-2.993100	3.481800	-10.420000	25.835324	0.000734	20.848531
1375.375995	-2.970600	3.481400	-10.341000	25.867947	0.000732	20.829620
1376.378210	-2.993900	3.480800	-10.420000	25.889014	0.000733	20.855051
1377.377654	-3.011800	3.479900	-10.480000	25.909261	0.000732	20.855950
1378.376618	-2.987300	3.480000	-10.395000	25.896438	0.000731	20.851129
1379.377608	-3.024800	3.478000	-10.519000	25.872145	0.000730	20.854226
1380.377811	-2.997000	3.478400	-10.424000	25.845168	0.000730	20.829497
1381.381532	-3.012000	3.477100	-10.473000	25.819954	0.000729	20.844946
1382.377515	-3.007100	3.477900	-10.458000	25.790915	0.000731	20.843277
1383.377007	-3.014900	3.477200	-10.482000	25.786637	0.000730	20.844669
1384.376547	-2.994000	3.476700	-10.408000	25.770967	0.000729	20.837464
1385.380771	-3.007400	3.476500	-10.452000	25.779960	0.000728	20.822316
1386.387466	-2.999500	3.476100	-10.425000	25.828279	0.000730	20.842877
1387.378653	-2.986900	3.475500	-10.381000	25.830620	0.000728	20.830056
1388.379434	-2.995300	3.474000	-10.405000	25.812328	0.000727	20.828277
1389.378299	-2.994000	3.475900	-10.406000	25.822492	0.000727	20.830900
1390.380072	-3.006400	3.473900	-10.443000	25.835364	0.000726	20.818227
1391.382160	-3.007600	3.475400	-10.452000	25.871138	0.000725	20.847999
1392.381162	-2.985300	3.473600	-10.369000	25.860754	0.000725	20.838516
1393.381621	-3.004500	3.473300	-10.434000	25.893494	0.000726	20.843430
1394.382216	-3.006100	3.473400	-10.440000	25.906011	0.000722	20.822815
1395.380450	-3.019800	3.471900	-10.484000	25.917718	0.000723	20.816084
1396.383143	-3.014000	3.473000	-10.467000	25.935726	0.000722	20.833227
1397.384023	-2.998600	3.473100	-10.412000	25.943553	0.000721	20.831607
1398.383519	-2.950800	3.471900	-10.243000	25.931454	0.000722	20.831780
1399.388258	-2.998400	3.472300	-10.410000	25.949315	0.000722	20.826964
1400.384127	-3.009400	3.470500	-10.443000	25.959374	0.000721	20.825690
1401.384959	-3.005500	3.470400	-10.429000	25.954630	0.000721	20.823295
1402.390580	-2.998100	3.471500	-10.406000	25.921046	0.000720	20.825591
1403.385115	-3.011400	3.468700	-10.442000	25.899630	0.000718	20.822094
1404.384696	-3.007900	3.469300	-10.435000	25.898495	0.000720	20.830437
1405.385882	-2.973200	3.471000	-10.317000	25.825310	0.000719	20.816188
1406.386957	-2.999500	3.468100	-10.402000	25.796014	0.000719	20.835123
1407.385171	-2.984300	3.468600	-10.350000	25.758551	0.000719	20.820252
1408.390194	-2.975800	3.467400	-10.317000	25.747045	0.000719	20.819600
1409.387189	-2.991800	3.467400	-10.373000	25.743520	0.000716	20.813688
1410.388251	-2.997700	3.466600	-10.391000	25.742477	0.000716	20.821176
1411.387171	-3.003400	3.466700	-10.409000	25.745113	0.000717	20.807702
1412.390961	-3.000200	3.465500	-10.396000	25.771518	0.000717	20.820474
1413.392357	-2.996200	3.467200	-10.387000	25.784887	0.000715	20.815886
1414.390469	-3.004200	3.465800	-10.411000	25.808263	0.000714	20.815659
1415.390760	-3.017500	3.464800	-10.454000	25.821528	0.000714	20.811441
1416.391711	-3.024700	3.464100	-10.476000	25.855361	0.000715	20.809865
1417.394199	-2.979300	3.464800	-10.322000	25.908701	0.000714	20.809870
1418.393739	-2.997000	3.464900	-10.383000	25.930461	0.000714	20.794273
1419.389908	-2.994900	3.462800	-10.368000	25.973582	0.000713	20.825265
1420.395045	-2.997700	3.462300	-10.378000	25.991417	0.000713	20.808571
1421.399443	-3.018200	3.461900	-10.447000	26.001977	0.000713	20.820129
1422.394853	-3.014300	3.462300	-10.434000	26.011956	0.000711	20.821146
1423.394551	-3.009600	3.461200	-10.415000	26.019035	0.000711	20.821620
1424.396699	-3.006400	3.461300	-10.404000	26.051623	0.000710	20.793670
1425.395405	-3.016900	3.459100	-10.435000	26.035155	0.000713	20.793245
1426.396348	-2.984800	3.462100	-10.333000	26.053963	0.000709	20.799815
1427.399895	-3.005300	3.459300	-10.395000	26.079117	0.000711	20.807070
1428.399342	-3.007600	3.459200	-10.403000	26.088383	0.000710	20.818276
1429.401115	-3.002400	3.460500	-10.388000	26.108252	0.000712	20.818800
1430.398112	-2.989700	3.461100	-10.346000	26.096877	0.000709	20.808319
1431.399528	-3.000800	3.458100	-10.375000	26.066228	0.000708	20.795542
1432.397789	-3.012800	3.455800	-10.411000	26.014242	0.000707	20.802580
1433.398443	-3.021100	3.457700	-10.445000	25.983768	0.000707	20.803731
1434.400352	-2.999200	3.458400	-10.371000	25.951370	0.000706	20.802002
1435.399637	-3.014400	3.456400	-10.418000	25.906759	0.000705	20.801755
1436.400026	-2.990800	3.457000	-10.337000	25.858173	0.000705	20.790406
1437.400590	-2.995400	3.456600	-10.353000	25.813179	0.000703	20.793097
1438.402046	-3.006100	3.455900	-10.387000	25.808784	0.000705	20.795794
1439.403570	-2.979400	3.456000	-10.296000	25.796118	0.000704	20.813417
1440.402685	-3.006800	3.455300	-10.389000	25.789559	0.000702	20.799242
1441.401340	-2.996400	3.454800	-10.351000	25.741484	0.000701	20.792203
1442.409265	-2.988200	3.455500	-10.325000	25.749263	0.000703	20.795750
1443.402713	-3.026200	3.454100	-10.452000	25.750704	0.000701	20.797671
1444.402875	-3.018400	3.454200	-10.426000	25.736965	0.000702	20.798096
1445.406138	-2.987300	3.454700	-10.319000	25.734236	0.000703	20.791562
1446.401439	-3.033800	3.452500	-10.473000	25.767280	0.000699	20.815744
1447.404985	-3.011500	3.452100	-10.395000	25.765294	0.000699	20.778187
1448.403344	-2.975300	3.454100	-10.276000	25.828600	0.000700	20.793889
1449.404396	-3.008200	3.452200	-10.384000	25.828747	0.000699	20.794037
1450.403687	-2.967700	3.452700	-10.246000	25.798292	0.000695	20.794264
1451.403543	-2.991600	3.451000	-10.323000	25.813195	0.000697	20.788372
1452.407226	-2.999600	3.450200	-10.348000	25.837225	0.000697	20.806345
1453.406019	-3.005000	3.450300	-10.368000	25.863706	0.000697	20.798808
1454.405887	-2.994600	3.449500	-10.330000	25.861523	0.000698	20.803728
1455.408830	-3.020100	3.448500	-10.414000	25.887385	0.000696	20.801733
1456.408250	-2.948000	3.450900	-10.173000	25.902715	0.000695	20.787735
1457.404659	-2.974700	3.450100	-10.262000	25.948251	0.000694	20.792704
1458.404411	-3.022600	3.446900	-10.418000	25.952081	0.000692	20.791811
1459.405087	-3.002800	3.448500	-10.354000	25.985939	0.000693	20.791688
1460.406895	-2.988100	3.448100	-10.301000	25.998681	0.000692	20.788843
1461.406569	-2.990500	3.446700	-10.305000	26.035168	0.000695	20.782352
1462.405538	-2.999400	3.447600	-10.339000	26.004148	0.000691	20.779636
1463.411850	-3.005400	3.446000	-10.355000	25.979612	0.000690	20.795289
1464.408309	-3.007600	3.445600	-10.363000	26.007555	0.000691	20.773102
1465.406090	-2.986900	3.445500	-10.290000	25.987188	0.000692	20.783934
1466.411693	-3.012300	3.446300	-10.380000	25.938208	0.000691	20.785934
1467.407006	-3.021200	3.444100	-10.403000	25.917466	0.000691	20.792123
1468.404786	-3.029400	3.444700	-10.434000	25.898046	0.000687	20.781149
1469.407000	-2.983000	3.444600	-10.274000	25.902742	0.000689	20.765003
1470.406376	-3.027800	3.443500	-10.425000	25.915166	0.000689	20.777484
1471.407243	-2.980900	3.443800	-10.264000	25.896017	0.000688	20.773420
1472.411160	-2.993800	3.443000	-10.306000	25.904267	0.000686	20.787398
1473.411675	-2.997300	3.443900	-10.322000	25.919094	0.000685	20.756775
1474.406688	-2.996300	3.441600	-10.310000	25.934749	0.000686	20.781985
1475.407835	-3.006500	3.442800	-10.349000	25.964439	0.000685	20.772458
1476.408157	-2.990000	3.442200	-10.292000	25.988754	0.000686	20.772704
1477.409250	-2.998200	3.442400	-10.320000	26.013398	0.000684	20.768541
1478.408979	-3.010900	3.440900	-10.359000	26.019863	0.000684	20.778830
1479.408938	-3.010400	3.439600	-10.354000	26.025153	0.000685	20.778454
1480.409453	-3.030600	3.440100	-10.424000	26.048725	0.000684	20.771317
1481.409840	-2.995100	3.439400	-10.301000	26.054093	0.000682	20.784772
1482.411770	-3.006900	3.439200	-10.340000	26.073968	0.000682	20.769179
1483.412175	-3.008300	3.439100	-10.345000	26.053130	0.000682	20.767209
1484.416567	-2.994100	3.439600	-10.298000	25.995235	0.000684	20.761198
1485.414454	-3.008500	3.438200	-10.344000	25.977705	0.000680	20.768242
1486.414789	-2.989500	3.437700	-10.277000	25.950828	0.000679	20.748826
1487.417902	-3.007400	3.436600	-10.334000	25.945238	0.000679	20.770711
1488.416154	-2.999500	3.437000	-10.307000	25.964024	0.000677	20.752600
1489.418336	-2.990600	3.437200	-10.279000	25.956374	0.000679	20.768149
1490.418046	-3.021100	3.436800	-10.382000	25.980125	0.000680	20.754551
1491.417405	-3.001700	3.437000	-10.316000	25.987160	0.000678	20.772052
1492.418139	-3.014100	3.436100	-10.355000	25.967584	0.000679	20.768031
1493.423060	-2.997600	3.435700	-10.297000	25.974521	0.000676	20.775475
1494.422339	-2.992100	3.434700	-10.276000	25.950978	0.000675	20.774107
1495.420541	-2.989300	3.434500	-10.264000	25.949562	0.000677	20.763201
1496.418396	-2.983600	3.433900	-10.245000	25.883540	0.000676	20.758515
1497.421650	-3.005700	3.432900	-10.318000	25.886721	0.000677	20.770245
1498.420099	-2.995000	3.434300	-10.285000	25.901039	0.000676	20.756653
1499.418544	-2.970800	3.433100	-10.198000	25.946245	0.000673	20.771723
1500.419433	-2.986000	3.433600	-10.252000	25.972331	0.000675	20.738185
1501.419333	-3.005400	3.433200	-10.315000	25.991110	0.000677	20.748519
1502.420096	-2.984000	3.431100	-10.238000	25.996081	0.000675	20.733597
1503.420849	-3.014600	3.430300	-10.341000	26.032071	0.000676	20.721866
1504.420413	-2.994800	3.431600	-10.276000	26.024850	0.000673	20.752071
1505.421005	-2.988400	3.430700	-10.252000	26.026211	0.000675	20.763870
1506.421623	-3.006900	3.430200	-10.313000	26.003160	0.000672	20.757306
1507.421452	-3.017600	3.428800	-10.345000	26.016448	0.000674	20.756906
1508.421618	-3.012100	3.428800	-10.327000	25.990565	0.000674	20.761247
1509.425528	-3.002200	3.428900	-10.293000	26.021841	0.000671	20.760902
1510.422090	-2.953000	3.431600	-10.132000	26.014020	0.000670	20.758260
1511.421524	-2.995600	3.428700	-10.269000	26.003828	0.000671	20.762245
1512.424287	-2.982400	3.428600	-10.224000	26.013360	0.000671	20.743371
1513.424111	-3.004500	3.428600	-10.300000	26.024937	0.000673	20.739830
1514.427845	-2.999500	3.428100	-10.281000	26.009541	0.000669	20.720093
1515.426568	-3.009600	3.426500	-10.312000	25.941402	0.000671	20.757848
1516.427412	-2.996300	3.427200	-10.268000	25.905085	0.000669	20.733690
1517.425162	-2.999600	3.427400	-10.279000	25.860270	0.000668	20.741302
1518.425072	-2.991000	3.425700	-10.245000	25.872438	0.000667	20.754474
1519.426555	-2.994000	3.425000	-10.253000	25.848243	0.000666	20.751032
1520.427307	-3.009300	3.424800	-10.305000	25.849059	0.000667	20.752326
1521.425887	-3.004700	3.424400	-10.289000	25.845725	0.000666	20.731906
1522.426895	-3.006200	3.423800	-10.292000	25.861301	0.000666	20.734751
1523.427436	-3.017400	3.423600	-10.329000	25.904135	0.000666	20.738427
1524.428105	-3.011900	3.423200	-10.308000	25.888953	0.000665	20.738347
1525.429656	-3.025800	3.423300	-10.357000	25.889670	0.000666	20.748077
1526.428471	-2.996800	3.422800	-10.256000	25.884006	0.000664	20.729110
1527.432391	-2.985400	3.422500	-10.216000	25.876798	0.000665	20.732775
1528.427701	-3.036500	3.421100	-10.386000	25.894213	0.000664	20.733674
1529.436383	-3.024300	3.420200	-10.342000	25.925909	0.000663	20.723316
1530.434133	-2.994000	3.420800	-10.241000	25.965475	0.000663	20.743152
1531.428808	-3.016400	3.419300	-10.313000	25.981153	0.000663	20.729031
1532.429760	-2.980600	3.421100	-10.196000	25.994338	0.000664	20.724733
1533.431706	-3.001500	3.419900	-10.264000	26.032161	0.000663	20.728595
1534.428839	-3.013900	3.419400	-10.305000	26.024138	0.000663	20.720060
1535.431880	-2.991200	3.419800	-10.228000	26.023631	0.000660	20.730456
1536.439095	-3.025000	3.417700	-10.336000	25.998514	0.000660	20.757854
1537.427916	-2.992800	3.419400	-10.233000	25.968629	0.000660	20.744898
1538.429464	-2.998800	3.419000	-10.252000	25.998332	0.000660	20.733962
1539.429276	-3.000400	3.417400	-10.253000	25.951726	0.000660	20.739770
1540.441746	-2.988200	3.418600	-10.214000	25.951701	0.000659	20.735003
1541.431130	-3.001300	3.418300	-10.258000	25.953485	0.000659	20.742486
1542.428782	-2.998600	3.417100	-10.245000	25.950752	0.000657	20.739740
1543.432960	-2.981500	3.416800	-10.185000	25.994712	0.000659	20.737912
1544.429631	-3.008000	3.416400	-10.275000	25.989215	0.000657	20.731915
1545.431183	-3.016000	3.416500	-10.303000	25.976379	0.000656	20.728028
1546.432119	-2.989600	3.415900	-10.211000	25.999071	0.000657	20.733757
1547.433147	-2.984400	3.414500	-10.189000	25.987941	0.000657	20.731109
1548.431792	-3.005400	3.414600	-10.261000	25.998397	0.000654	20.731657
1549.441846	-2.983300	3.416000	-10.189000	26.003761	0.000654	20.734675
1550.430167	-3.024400	3.412900	-10.321000	26.045536	0.000654	20.724015
1551.432600	-3.011000	3.412600	-10.273000	26.048447	0.000652	20.728837
1552.433932	-3.008000	3.412100	-10.262000	26.046559	0.000653	20.735949
1553.431378	-2.973000	3.412000	-10.143000	26.034682	0.000650	20.708367
1554.437932	-2.991500	3.414100	-10.212000	26.017417	0.000652	20.731800
1555.432538	-2.979500	3.412200	-10.166000	25.993195	0.000652	20.737811
1556.433052	-2.985300	3.412300	-10.185000	25.977995	0.000650	20.725383
1557.436594	-3.009100	3.410600	-10.261000	25.986092	0.000648	20.718345
1558.431765	-2.986100	3.410900	-10.184000	26.011724	0.000648	20.751685
1559.433167	-2.987100	3.412000	-10.190000	26.030154	0.000648	20.739381
1560.434073	-2.998800	3.409800	-10.225000	26.051439	0.000647	20.710031
1561.433625	-3.019500	3.408800	-10.291000	26.056508	0.000648	20.730772
1562.441190	-2.977900	3.409900	-10.153000	26.082801	0.000647	20.734905
1563.434236	-2.994800	3.408400	-10.207000	26.080422	0.000646	20.732041
1564.434791	-2.994100	3.407300	-10.201000	26.094727	0.000645	20.737879
1565.435647	-2.979500	3.408800	-10.155000	26.066737	0.000646	20.732515
1566.433735	-3.001200	3.407600	-10.225000	26.018920	0.000644	20.720507
1567.436366	-2.981900	3.408400	-10.162000	25.976996	0.000644	20.753305
1568.435472	-3.000100	3.408700	-10.226000	25.975360	0.000642	20.723210
1569.435832	-3.016800	3.406100	-10.275000	25.952209	0.000641	20.740256
1570.435771	-2.992800	3.406000	-10.192000	25.907028	0.000642	20.736591
1571.435409	-2.985400	3.407500	-10.171000	25.895425	0.000642	20.732521
1572.436714	-2.995300	3.406300	-10.202000	25.905877	0.000641	20.725002
1573.437090	-2.982100	3.406600	-10.158000	25.944633	0.000638	20.730273
1574.437125	-3.026000	3.405300	-10.304000	25.969003	0.000640	20.726307
1575.438565	-2.999100	3.403800	-10.207000	25.983983	0.000640	20.738038
1576.442853	-3.011300	3.404900	-10.252000	26.033487	0.000638	20.727083
1577.437248	-3.004800	3.404800	-10.229000	26.009768	0.000638	20.722217
1578.438987	-3.010900	3.403300	-10.246000	26.017368	0.000637	20.715628
1579.437799	-2.995900	3.403600	-10.195000	25.985330	0.000637	20.728012
1580.439181	-3.001600	3.402000	-10.210000	26.017373	0.000639	20.729859
1581.437775	-2.999000	3.402100	-10.201000	26.003564	0.000638	20.732107
1582.440243	-3.001800	3.401900	-10.211000	26.019389	0.000637	20.699640
1583.444889	-3.007200	3.400200	-10.225000	26.000487	0.000636	20.720954
1584.441074	-2.985900	3.402400	-10.156000	26.018151	0.000635	20.722105
1585.444790	-3.013100	3.400900	-10.246000	26.037230	0.000635	20.726575
1586.444679	-3.008900	3.400800	-10.232000	26.049971	0.000634	20.737956
1587.442534	-3.005900	3.399300	-10.217000	26.047568	0.000634	20.722738
1588.444504	-2.979400	3.401000	-10.132000	26.016568	0.000634	20.706764
1589.443971	-2.983100	3.400600	-10.143000	26.003310	0.000633	20.722368
1590.442534	-3.000200	3.399600	-10.198000	26.019509	0.000635	20.722047
1591.443192	-2.996100	3.399800	-10.184000	26.057238	0.000631	20.717755
1592.445805	-2.997200	3.398800	-10.185000	26.034321	0.000630	20.717489
1593.444850	-3.000200	3.398400	-10.195000	26.032158	0.000633	20.745189
1594.447122	-3.043500	3.395800	-10.334000	25.994856	0.000629	20.728099
1595.447135	-3.026300	3.396800	-10.279000	26.013936	0.000630	20.702696
1596.452840	-3.011200	3.396300	-10.226000	26.010062	0.000630	20.731997
1597.450123	-3.002300	3.397300	-10.199000	26.056384	0.000628	20.725906
1598.448353	-2.998900	3.395600	-10.181000	26.063842	0.000627	20.724865
1599.452735	-2.982100	3.395000	-10.123000	26.069830	0.000628	20.728984
1600.449319	-3.000300	3.394300	-10.183000	26.119011	0.000627	20.725769
1601.451055	-3.007300	3.395400	-10.209000	26.108605	0.000627	20.725744
1602.453166	-2.982300	3.396200	-10.127000	26.108163	0.000626	20.721033
1603.450455	-2.994700	3.393700	-10.162000	26.166032	0.000626	20.722757
1604.450156	-2.987500	3.396300	-10.145000	26.170898	0.000625	20.726698
1605.453817	-3.011000	3.395000	-10.221000	26.185935	0.000625	20.729954
1606.451934	-2.988400	3.393900	-10.141000	26.165419	0.000624	20.735417
1607.453199	-2.998200	3.393200	-10.172000	26.136419	0.000622	20.729510
1608.451019	-3.000900	3.392900	-10.181000	26.134782	0.000623	20.725021
1609.452091	-2.979800	3.392500	-10.107000	26.170865	0.000623	20.740416
1610.457489	-2.984600	3.392800	-10.125000	26.156838	0.000623	20.727268
1611.453183	-2.982800	3.393300	-10.121000	26.172311	0.000621	20.725273
1612.453995	-3.001800	3.390200	-10.174000	26.198122	0.000622	20.716121
1613.453123	-2.984200	3.391500	-10.120000	26.194573	0.000621	20.717297
1614.452804	-3.012500	3.389100	-10.208000	26.198973	0.000622	20.738788
1615.455968	-2.988200	3.390600	-10.131000	26.153030	0.000621	20.742883
1616.454246	-2.998200	3.389600	-10.162000	26.175336	0.000619	20.744435
1617.452834	-2.969600	3.391000	-10.069000	26.180104	0.000619	20.747329
1618.455474	-2.984300	3.390000	-10.116000	26.204621	0.000620	20.723127
1619.452900	-2.991100	3.388400	-10.134000	26.200925	0.000620	20.733638
1620.453947	-3.020200	3.387700	-10.231000	26.207488	0.000617	20.737862
1621.454258	-2.992800	3.387400	-10.136000	26.238580	0.000617	20.721216
1622.454942	-2.997400	3.389400	-10.158000	26.205955	0.000616	20.742960
1623.455881	-2.988300	3.387600	-10.123000	26.189710	0.000616	20.765043
1624.455805	-2.986300	3.386700	-10.112000	26.164682	0.000615	20.736100
1625.458879	-3.002300	3.387000	-10.168000	26.164982	0.000616	20.752997
1626.455967	-3.012100	3.386100	-10.197000	26.168885	0.000614	20.738901
1627.461446	-3.020800	3.385600	-10.226000	26.157113	0.000615	20.724226
1628.457010	-3.001600	3.386300	-10.164000	26.126269	0.000616	20.717415
1629.458154	-2.999400	3.385700	-10.154000	26.148478	0.000616	20.732619
1630.460896	-3.023600	3.384100	-10.231000	26.141926	0.000617	20.742631
1631.462557	-2.996600	3.385300	-10.143000	26.108324	0.000615	20.726885
1632.457700	-3.020100	3.383400	-10.216000	26.084134	0.000613	20.726761
1633.457180	-2.987900	3.385300	-10.114000	26.047522	0.000611	20.728856
1634.457316	-3.015700	3.383500	-10.202000	26.074205	0.000610	20.751400
1635.457449	-3.002000	3.383700	-10.156000	26.077405	0.000611	20.731380
1636.463389	-2.995400	3.384100	-10.136000	26.084489	0.000613	20.722850
1637.460638	-2.998100	3.382000	-10.138000	26.130366	0.000609	20.723903
1638.467713	-2.997900	3.382800	-10.141000	26.133217	0.000609	20.737199
1639.461246	-2.995500	3.382200	-10.130000	26.117276	0.000610	20.743942
1640.460205	-2.987200	3.381600	-10.100000	26.124306	0.000609	20.742944
1641.464100	-2.994400	3.381300	-10.124000	26.099816	0.000609	20.716439
1642.463456	-2.991200	3.380000	-10.108000	26.118343	0.000608	20.754023
1643.461864	-2.985200	3.381600	-10.093000	26.132052	0.000611	20.735554
1644.461231	-2.985800	3.382600	-10.099000	26.133743	0.000608	20.741996
1645.463283	-3.016900	3.379400	-10.193000	26.138137	0.000607	20.749256
1646.463171	-2.991000	3.380500	-10.110000	26.136997	0.000607	20.745265
1647.464687	-2.998700	3.379500	-10.132000	26.145049	0.000608	20.744822
1648.462237	-2.995700	3.379300	-10.122000	26.178478	0.000608	20.734790
1649.462627	-2.986000	3.379400	-10.089000	26.210063	0.000605	20.742821
1650.463887	-3.010800	3.378300	-10.170000	26.228140	0.000608	20.741072
1651.464145	-3.002700	3.377900	-10.141000	26.232834	0.000605	20.744366
1652.465457	-2.992700	3.378800	-10.111000	26.208647	0.000605	20.726699
1653.465056	-2.968900	3.377600	-10.027000	26.193420	0.000604	20.745537
1654.464845	-2.998900	3.377000	-10.126000	26.169876	0.000604	20.727567
1655.464328	-2.990300	3.376200	-10.095000	26.126916	0.000604	20.738929
1656.462984	-3.015100	3.375200	-10.176000	26.149836	0.000603	20.740622
1657.467220	-2.993100	3.375800	-10.103000	26.170304	0.000603	20.739852
1658.468295	-3.002600	3.375300	-10.134000	26.186789	0.000601	20.751676
1659.468514	-2.988700	3.375500	-10.087000	26.195583	0.000603	20.730640
1660.464352	-2.987500	3.375300	-10.083000	26.205412	0.000602	20.750950
1661.466828	-2.986100	3.375100	-10.078000	26.251353	0.000602	20.759658
1662.466954	-2.999600	3.374500	-10.121000	26.241267	0.000600	20.741935
1663.467150	-2.974300	3.374800	-10.037000	26.273253	0.000601	20.724766
1664.466871	-2.988900	3.374500	-10.085000	26.284699	0.000599	20.754763
1665.473979	-3.010900	3.371800	-10.151000	26.279239	0.000600	20.743585
1666.467447	-2.997900	3.373500	-10.111000	26.329147	0.000599	20.740162
1667.467788	-2.990200	3.372100	-10.082000	26.340023	0.000602	20.747773
1668.473044	-2.981900	3.371800	-10.053000	26.358993	0.000598	20.764468
1669.467132	-3.004400	3.371200	-10.127000	26.356408	0.000598	20.742903
1670.472365	-3.007500	3.370500	-10.135000	26.364300	0.000596	20.777862
1671.468935	-3.000000	3.370900	-10.111000	26.364968	0.000597	20.740126
1672.474884	-2.989800	3.370000	-10.076000	26.375666	0.000596	20.763207
1673.470507	-3.014700	3.369500	-10.157000	26.368338	0.000596	20.759636
1674.473054	-2.986200	3.370000	-10.063000	26.380531	0.000596	20.766674
1675.470231	-2.976800	3.369900	-10.031000	26.327287	0.000594	20.756785
1676.471552	-3.021600	3.369100	-10.179000	26.304783	0.000595	20.770204
1677.470805	-2.989600	3.368900	-10.071000	26.280837	0.000594	20.762261
1678.471843	-3.008100	3.368200	-10.130000	26.282626	0.000593	20.775439
1679.474648	-2.972800	3.369100	-10.014000	26.300255	0.000592	20.772293
1680.473053	-3.016200	3.367700	-10.157000	26.286916	0.000591	20.762206
1681.472717	-3.002400	3.368100	-10.111000	26.303853	0.000590	20.777330
1682.474643	-2.992700	3.368200	-10.079000	26.306157	0.000591	20.763999
1683.472816	-2.987000	3.367100	-10.057000	26.334416	0.000590	20.753044
1684.472725	-2.984200	3.366000	-10.044000	26.359966	0.000591	20.777300
1685.472198	-3.014900	3.365000	-10.144000	26.352388	0.000590	20.754036
1686.473511	-2.990100	3.366300	-10.065000	26.343276	0.000590	20.760052
1687.474231	-2.981800	3.366200	-10.037000	26.320797	0.000587	20.767332
1688.474112	-2.992200	3.365800	-10.069000	26.308167	0.000587	20.756061
1689.473661	-2.991300	3.365100	-10.065000	26.303266	0.000586	20.790018
1690.473838	-3.015900	3.364100	-10.144000	26.308279	0.000585	20.775615
1691.473429	-2.991700	3.363900	-10.063000	26.288591	0.000582	20.770053
1692.473713	-3.027500	3.362400	-10.178000	26.286821	0.000584	20.794353
1693.473802	-2.995300	3.364900	-10.076000	26.276673	0.000583	20.766137
1694.473915	-2.995600	3.363200	-10.074000	26.243541	0.000581	20.774568
1695.476984	-2.977200	3.363300	-10.013000	26.242047	0.000581	20.770221
1696.475289	-3.042900	3.361300	-10.227000	26.265319	0.000582	20.773693
1697.476971	-3.001700	3.363400	-10.094000	26.279223	0.000581	20.775812
1698.475534	-3.001100	3.361000	-10.086000	26.251213	0.000580	20.769475
1699.476022	-3.004700	3.362200	-10.101000	26.301747	0.000580	20.760515
1700.478913	-2.980300	3.361700	-10.018000	26.291736	0.000581	20.801189
1701.477393	-2.989600	3.362100	-10.050000	26.264021	0.000580	20.776182
1702.478544	-2.962400	3.360900	-9.956000	26.246784	0.000578	20.773085
1703.476537	-3.001500	3.359400	-10.082000	26.237451	0.000578	20.779827
1704.477654	-2.997100	3.360600	-10.071000	26.200672	0.000578	20.781749
1705.479935	-2.997900	3.359300	-10.070000	26.160435	0.000579	20.783991
1706.479792	-3.006300	3.358400	-10.096000	26.147130	0.000576	20.785794
1707.478759	-2.980600	3.358800	-10.010000	26.140696	0.000578	20.765104
1708.480002	-3.012300	3.358300	-10.114000	26.142632	0.000578	20.766575
1709.480602	-3.006300	3.357900	-10.094000	26.112211	0.000576	20.786742
1710.479365	-3.007000	3.357200	-10.095000	26.109993	0.000576	20.805377
1711.480435	-3.020400	3.356300	-10.135000	26.123413	0.000575	20.785197
1712.483701	-3.029000	3.356400	-10.163000	26.134782	0.000572	20.789034
1713.480755	-3.025700	3.355500	-10.151000	26.113921	0.000573	20.796996
1714.478225	-2.991300	3.356200	-10.039000	26.107988	0.000574	20.790086
1715.479503	-3.010300	3.356300	-10.102000	26.108607	0.000574	20.800665
1716.485223	-2.987900	3.356200	-10.026000	26.149465	0.000573	20.799046
1717.480677	-2.999500	3.355800	-10.065000	26.199507	0.000573	20.798122
1718.482016	-3.013200	3.355400	-10.110000	26.213412	0.000572	20.776533
1719.480175	-2.975100	3.354600	-9.978500	26.192999	0.000573	20.787789
1720.481772	-2.995100	3.355000	-10.047000	26.209416	0.000572	20.791010
1721.482708	-2.981300	3.354000	-9.997600	26.170173	0.000571	20.804681
1722.484123	-2.979500	3.353400	-9.990500	26.163346	0.000570	20.797346
1723.481547	-2.982800	3.353600	-10.002000	26.139973	0.000570	20.804207
1724.480923	-2.975000	3.352100	-9.971200	26.141266	0.000569	20.803609
1725.480918	-2.999200	3.352400	-10.054000	26.153008	0.000570	20.799287
1726.481611	-3.001200	3.352100	-10.059000	26.210079	0.000568	20.810168
1727.483274	-2.998400	3.352500	-10.052000	26.258280	0.000567	20.788431
1728.480254	-3.015300	3.350500	-10.101000	26.296645	0.000568	20.804226
1729.482971	-2.990300	3.351200	-10.020000	26.319089	0.000566	20.800230
1730.483152	-2.982100	3.351400	-9.993200	26.328354	0.000566	20.789626
1731.480103	-2.981200	3.351000	-9.988200	26.338207	0.000565	20.797157
1732.482867	-3.020600	3.350100	-10.117000	26.346325	0.000567	20.812903
1733.482251	-2.988300	3.349500	-10.008000	26.338747	0.000564	20.824252
1734.481317	-2.988100	3.349000	-10.007000	26.362017	0.000562	20.808285
1735.481856	-2.975000	3.349100	-9.962100	26.367005	0.000566	20.818039
1736.482587	-2.990300	3.348000	-10.010000	26.386495	0.000563	20.799695
1737.482839	-2.995300	3.346900	-10.023000	26.362061	0.000563	20.795527
1738.484847	-2.968700	3.348300	-9.939600	26.369432	0.000563	20.810047
1739.482530	-2.998600	3.348900	-10.040000	26.391134	0.000563	20.815737
1740.483527	-2.991600	3.348100	-10.015000	26.412407	0.000562	20.814358
1741.482440	-2.988900	3.346900	-10.003000	26.401630	0.000563	20.818700
1742.488743	-3.011700	3.346500	-10.078000	26.411359	0.000562	20.814728
1743.487696	-3.014700	3.345400	-10.085000	26.374611	0.000562	20.798183
1744.486319	-2.990700	3.346800	-10.008000	26.384158	0.000559	20.829115
1745.487964	-2.959600	3.347100	-9.904900	26.388832	0.000558	20.824803
1746.493969	-3.003500	3.344600	-10.043000	26.372137	0.000560	20.827465
1747.488016	-2.999000	3.346200	-10.034000	26.383804	0.000558	20.815956
1748.492330	-3.004400	3.344300	-10.046000	26.369926	0.000556	20.807699
1749.490932	-2.998000	3.343900	-10.024000	26.392241	0.000557	20.801677
1750.491778	-3.003900	3.343000	-10.040000	26.407755	0.000557	20.832916
1751.490207	-3.007900	3.343000	-10.054000	26.421087	0.000555	20.812651
1752.490329	-2.991800	3.343100	-10.000000	26.442310	0.000555	20.807904
1753.493973	-3.019700	3.341600	-10.090000	26.451200	0.000555	20.826322
1754.491603	-3.004400	3.342000	-10.040000	26.446801	0.000553	20.837074
1755.490155	-3.010000	3.342200	-10.059000	26.460501	0.000554	20.842783
1756.492181	-3.011900	3.341100	-10.063000	26.448579	0.000551	20.820844
1757.491208	-3.019000	3.340600	-10.084000	26.415999	0.000551	20.831719
1758.491935	-2.990600	3.340900	-9.989700	26.386485	0.000551	20.832401
1759.490795	-2.996200	3.340000	-10.006000	26.353926	0.000550	20.817697
1760.492786	-3.010300	3.339900	-10.053000	26.331630	0.000550	20.840333
1761.493112	-3.023200	3.339600	-10.094000	26.331202	0.000550	20.824256
1762.493451	-3.005900	3.340000	-10.039000	26.325019	0.000551	20.832267
1763.494186	-2.975200	3.339000	-9.932900	26.328243	0.000549	20.817963
1764.498873	-2.985800	3.338300	-9.967300	26.346643	0.000547	20.836455
1765.495014	-3.001800	3.337300	-10.017000	26.344131	0.000545	20.833931
1766.498881	-2.994200	3.337900	-9.993700	26.341453	0.000546	20.826024
1767.494782	-2.975300	3.339300	-9.934900	26.345601	0.000547	20.837778
1768.495823	-2.983800	3.337500	-9.956900	26.390837	0.000548	20.842939
1769.498402	-2.986500	3.337300	-9.965900	26.397589	0.000546	20.847354
1770.498329	-3.004800	3.335700	-10.022000	26.426868	0.000544	20.848333
1771.496491	-2.977600	3.336800	-9.934400	26.441247	0.000546	20.844767
1772.496664	-2.985800	3.337500	-9.964100	26.467605	0.000544	20.844233
1773.495299	-3.026900	3.334900	-10.093000	26.465074	0.000543	20.837896
1774.497773	-2.992200	3.334900	-9.977400	26.475403	0.000544	20.835476
1775.500159	-2.995300	3.335700	-9.990400	26.498916	0.000540	20.846782
1776.498325	-3.015100	3.334400	-10.052000	26.514409	0.000541	20.850501
1777.500819	-2.999900	3.335800	-10.006000	26.524266	0.000542	20.858511
1778.497796	-3.021100	3.333300	-10.068000	26.510935	0.000539	20.856966
1779.499667	-3.017000	3.333200	-10.056000	26.454922	0.000540	20.831486
1780.502549	-2.979900	3.333700	-9.933500	26.452220	0.000540	20.851054
1781.502901	-2.997700	3.332800	-9.990000	26.476677	0.000535	20.864730
1782.503081	-2.984400	3.332300	-9.944500	26.484022	0.000537	20.855993
1783.501611	-3.011700	3.330800	-10.029000	26.483532	0.000535	20.865456
1784.500155	-3.004100	3.331400	-10.007000	26.473404	0.000538	20.846743
1785.502746	-3.006800	3.332000	-10.018000	26.488377	0.000537	20.863214
1786.500877	-3.009700	3.330100	-10.021000	26.518621	0.000536	20.844304
1787.502941	-2.999300	3.332100	-9.992900	26.538752	0.000536	20.863116
1788.501681	-2.996800	3.330500	-9.979700	26.535009	0.000534	20.838491
1789.500428	-3.018600	3.329000	-10.048000	26.556982	0.000534	20.849199
1790.503867	-2.990100	3.331100	-9.959000	26.567163	0.000533	20.861329
1791.504332	-3.009100	3.328600	-10.015000	26.540301	0.000532	20.849974
1792.506927	-3.015000	3.328700	-10.035000	26.532061	0.000532	20.855442
1793.502699	-2.994800	3.329000	-9.968700	26.517345	0.000531	20.857245
1794.506096	-3.000000	3.328400	-9.984000	26.520898	0.000531	20.863661
1795.504072	-2.985400	3.328100	-9.934200	26.550266	0.000532	20.862836
1796.507185	-3.003800	3.327700	-9.994600	26.538872	0.000530	20.864658
1797.502671	-2.989000	3.328200	-9.947500	26.566187	0.000530	20.870304
1798.505885	-2.980400	3.328100	-9.917400	26.584307	0.000529	20.859122
1799.515071	-3.010300	3.327000	-10.014000	26.574579	0.000530	20.856930
1800.504232	-3.006700	3.327600	-10.004000	26.557898	0.000529	20.865291
1801.502638	-2.980300	3.328000	-9.917700	26.531164	0.000527	20.873505
1802.503488	-2.983000	3.326100	-9.920600	26.503908	0.000528	20.868393
1803.505124	-2.990300	3.325000	-9.941700	26.446253	0.000527	20.878720
1804.504182	-2.992700	3.325800	-9.952500	26.453206	0.000527	20.858209
1805.505054	-3.008100	3.324300	-9.998400	26.465987	0.000527	20.863469
1806.505888	-3.004800	3.325900	-9.992000	26.499043	0.000526	20.863504
1807.509331	-2.994000	3.324500	-9.952400	26.519946	0.000525	20.873135
1808.506888	-3.012500	3.323400	-10.011000	26.545296	0.000524	20.860210
1809.510222	-3.004900	3.322200	-9.981000	26.576103	0.000523	20.876952
1810.508732	-2.988100	3.322800	-9.928600	26.600808	0.000525	20.875708
1811.509365	-2.977700	3.323400	-9.895200	26.590087	0.000523	20.864458
1812.513129	-2.988900	3.322200	-9.928800	26.603289	0.000523	20.878202
1813.510694	-3.008500	3.322800	-9.994300	26.571563	0.000520	20.881398
1814.513394	-2.990500	3.321400	-9.931200	26.539739	0.000521	20.881650
1815.511550	-2.996500	3.321100	-9.950600	26.579833	0.000521	20.894925
1816.509806	-3.023900	3.319800	-10.036000	26.576310	0.000521	20.883324
1817.514176	-2.995000	3.320600	-9.944200	26.561590	0.000521	20.889389
1818.512305	-2.982900	3.320300	-9.903500	26.579189	0.000519	20.881951
1819.513614	-2.980200	3.320000	-9.893300	26.594785	0.000517	20.881981
1820.512933	-2.981100	3.320400	-9.897200	26.622785	0.000520	20.858922
1821.517328	-3.031700	3.317700	-10.056000	26.634302	0.000520	20.880929
1822.512275	-3.009000	3.318600	-9.984000	26.678888	0.000519	20.871224
1823.513301	-2.990600	3.319200	-9.925100	26.665755	0.000518	20.883626
1824.514930	-3.000700	3.317500	-9.954200	26.695695	0.000517	20.884801
1825.518584	-3.004600	3.317100	-9.964600	26.683978	0.000518	20.891987
1826.512423	-3.014000	3.316500	-9.995000	26.679561	0.000516	20.900348
1827.520327	-2.984300	3.317200	-9.898000	26.626313	0.000516	20.879063
1828.516366	-2.993200	3.316400	-9.925900	26.572321	0.000516	20.889271
1829.517244	-2.999700	3.316200	-9.946700	26.562814	0.000514	20.883508
1830.514050	-3.002100	3.315400	-9.952300	26.512170	0.000514	20.884283
1831.518832	-3.028700	3.313700	-10.035000	26.530168	0.000514	20.876297
1832.516885	-3.011500	3.314100	-9.978900	26.505615	0.000513	20.874850
1833.517006	-2.996500	3.316200	-9.934500	26.553606	0.000513	20.894640
1834.519792	-3.003500	3.313700	-9.951800	26.580572	0.000513	20.899934
1835.517463	-2.988000	3.315400	-9.905700	26.562298	0.000513	20.873507
1836.518240	-3.013300	3.312600	-9.980600	26.566249	0.000512	20.878427
1837.518625	-3.025700	3.313700	-10.024000	26.596192	0.000512	20.867749
1838.518610	-2.997500	3.312800	-9.929700	26.614715	0.000511	20.889213
1839.525994	-2.974900	3.313800	-9.857400	26.603523	0.000508	20.886023
1840.518312	-3.002500	3.312300	-9.943300	26.623284	0.000508	20.885026
1841.520834	-2.995400	3.311400	-9.917700	26.663803	0.000507	20.859853
1842.521560	-2.993000	3.313100	-9.915200	26.646922	0.000506	20.895985
1843.520301	-2.976400	3.311600	-9.855500	26.678601	0.000508	20.878048
1844.521219	-3.011100	3.310900	-9.968300	26.664158	0.000506	20.877752
1845.525936	-2.999500	3.310600	-9.929100	26.608158	0.000506	20.891156
1846.521852	-2.972200	3.310900	-9.839000	26.607844	0.000506	20.857653
1847.520797	-2.959000	3.311700	-9.798000	26.599575	0.000504	20.888693
1848.522190	-2.981300	3.311600	-9.871400	26.650245	0.000503	20.861871
1849.521710	-2.980000	3.309700	-9.861400	26.627788	0.000505	20.868692
1850.524059	-2.973300	3.309800	-9.839000	26.594354	0.000501	20.863057
1851.522470	-2.999800	3.307900	-9.921300	26.558751	0.000502	20.861407
1852.524578	-2.989400	3.308400	-9.889400	26.528813	0.000501	20.862608
1853.523263	-2.982900	3.311200	-9.876200	26.563007	0.000500	20.858100
1854.532203	-2.969900	3.309800	-9.828300	26.536917	0.000502	20.854159
1855.522547	-3.010000	3.306800	-9.953000	26.542528	0.000501	20.856954
1856.524180	-3.005700	3.307400	-9.939300	26.563913	0.000498	20.854742
1857.526278	-2.989700	3.307800	-9.888600	26.565426	0.000501	20.843462
1858.526407	-2.962300	3.307000	-9.794900	26.597530	0.000499	20.885215
1859.526084	-2.980200	3.307300	-9.856200	26.632955	0.000499	20.868670
1860.525320	-2.996100	3.306600	-9.906300	26.676603	0.000498	20.840480
1861.528115	-3.008000	3.304900	-9.939900	26.700681	0.000499	20.850462
1862.526087	-2.988200	3.305300	-9.875800	26.727196	0.000498	20.849143
1863.525216	-3.005200	3.305100	-9.930500	26.753582	0.000497	20.858601
1864.526446	-3.012400	3.303000	-9.949100	26.775674	0.000497	20.842881
1865.526243	-3.018200	3.304400	-9.972600	26.782282	0.000496	20.846205
1866.529525	-3.042500	3.302700	-10.047000	26.790274	0.000497	20.864672
1867.529146	-3.016700	3.303500	-9.963600	26.831902	0.000496	20.848680
1868.529655	-3.006400	3.303800	-9.931700	26.864783	0.000494	20.842388
1869.530024	-3.012700	3.301800	-9.945900	26.821055	0.000493	20.846784
1870.529922	-3.021000	3.302300	-9.974800	26.830940	0.000495	20.824954
1871.532650	-3.013700	3.301200	-9.947600	26.818673	0.000492	20.860983
1872.529584	-3.024700	3.301000	-9.983100	26.833862	0.000490	20.830263
1873.529397	-3.017500	3.301300	-9.959500	26.856448	0.000491	20.861506
1874.528627	-3.036700	3.299800	-10.019000	26.826175	0.000492	20.867103
1875.529711	-2.986000	3.301700	-9.857700	26.858713	0.000491	20.824905
1876.530715	-3.039400	3.299200	-10.026000	26.839551	0.000489	20.835509
1877.531486	-3.014300	3.300300	-9.946300	26.814361	0.000489	20.844794
1878.530589	-3.015900	3.298600	-9.947300	26.844095	0.000489	20.824431
1879.530279	-3.011900	3.297600	-9.930000	26.835729	0.000488	20.837356
1880.534478	-3.003400	3.298600	-9.905700	26.822323	0.000487	20.831463
1881.532203	-3.016100	3.298300	-9.947300	26.831858	0.000488	20.838206
1882.534797	-3.014800	3.296900	-9.938000	26.852160	0.000487	20.841075
1883.531577	-2.999800	3.298900	-9.894700	26.869265	0.000486	20.832195
1884.534944	-3.007100	3.298500	-9.918400	26.896064	0.000485	20.844443
1885.538410	-2.997100	3.297800	-9.883300	26.883485	0.000486	20.822786
1886.535007	-2.984600	3.296900	-9.839400	26.865860	0.000485	20.828772
1887.538197	-3.002600	3.296400	-9.895200	26.828350	0.000484	20.821876
1888.539397	-2.994400	3.296400	-9.869300	26.822127	0.000484	20.840749
1889.537125	-2.980600	3.296700	-9.825300	26.817136	0.000482	20.834308
1890.539325	-3.010200	3.293900	-9.914400	26.850770	0.000483	20.832091
1891.536772	-3.001900	3.295200	-9.891100	26.883823	0.000482	20.842566
1892.536891	-2.979900	3.295700	-9.819500	26.904993	0.000481	20.817861
1893.540899	-2.978700	3.294400	-9.812200	26.926782	0.000482	20.831236
1894.537859	-2.993800	3.292600	-9.856000	26.926758	0.000480	20.836427
1895.539105	-3.009100	3.294900	-9.913100	26.941051	0.000479	20.834204
1896.538530	-2.996100	3.293500	-9.866500	26.958246	0.000481	20.828262
1897.539319	-2.992300	3.293000	-9.852800	26.980604	0.000478	20.827985
1898.543497	-2.987500	3.292800	-9.836500	26.977033	0.000477	20.840516
1899.540413	-2.983900	3.293500	-9.825800	26.996291	0.000478	20.818157
1900.538743	-2.985700	3.293300	-9.831900	26.966979	0.000478	20.824716
1901.540338	-3.006700	3.291900	-9.896800	26.935564	0.000476	20.829635
1902.540826	-2.983700	3.291300	-9.819100	26.946758	0.000475	20.817184
1903.539026	-2.994300	3.290200	-9.851100	26.939557	0.000475	20.843607
1904.541394	-2.986200	3.291000	-9.826900	26.961272	0.000476	20.831778
1905.538266	-3.004700	3.290300	-9.885700	26.938663	0.000473	20.823269
1906.539792	-2.971700	3.290500	-9.777100	26.898184	0.000475	20.825239
1907.538888	-2.999100	3.289100	-9.863100	26.875575	0.000473	20.834747
1908.539547	-2.989400	3.289400	-9.832500	26.844304	0.000473	20.808047
1909.542736	-3.003400	3.287700	-9.873400	26.809457	0.000470	20.814734
1910.539200	-2.992500	3.288500	-9.839600	26.819433	0.000470	20.818601
1911.542256	-2.993900	3.288000	-9.841800	26.798861	0.000470	20.828736
1912.540279	-2.982600	3.288600	-9.808000	26.766015	0.000469	20.837438
1913.540450	-2.999900	3.287100	-9.860600	26.755640	0.000469	20.831748
1914.543574	-3.011600	3.286900	-9.897900	26.721119	0.000468	20.837819
1915.543428	-3.010000	3.285000	-9.886800	26.707074	0.000467	20.814690
1916.541271	-2.996600	3.285800	-9.844300	26.648119	0.000464	20.834130
1917.542061	-3.008900	3.284800	-9.882500	26.637565	0.000466	20.814512
1918.541894	-2.997300	3.285300	-9.845300	26.665595	0.000464	20.810922
1919.542274	-3.008700	3.283500	-9.876500	26.687988	0.000464	20.807830
1920.543908	-3.010100	3.284900	-9.887000	26.699062	0.000463	20.811851
1921.541723	-3.018900	3.283900	-9.912800	26.756006	0.000462	20.815047
1922.548362	-2.985800	3.284000	-9.803500	26.808702	0.000464	20.815397
1923.540616	-3.023800	3.282900	-9.924000	26.817765	0.000464	20.816450
1924.541568	-3.002000	3.282700	-9.853500	26.845686	0.000461	20.805169
1925.542498	-3.019100	3.282600	-9.909900	26.821495	0.000461	20.825889
1926.542251	-3.004600	3.282800	-9.862700	26.851951	0.000462	20.812416
1927.542868	-3.014000	3.282500	-9.892600	26.836315	0.000458	20.828937
1928.544415	-2.977400	3.281400	-9.769100	26.856745	0.000459	20.804909
1929.543332	-2.983200	3.281500	-9.788300	26.879435	0.000460	20.813973
1930.552682	-3.014000	3.279800	-9.883700	26.921470	0.000456	20.804558
1931.547444	-2.998400	3.279600	-9.831300	26.874651	0.000459	20.799680
1932.546970	-3.009100	3.280500	-9.870300	26.842162	0.000457	20.785504
1933.545628	-3.009800	3.279900	-9.871100	26.849162	0.000456	20.807716
1934.544878	-2.982400	3.281400	-9.785800	26.844550	0.000455	20.814458
1935.544486	-2.978100	3.280400	-9.768500	26.822711	0.000455	20.810991
1936.548127	-3.009500	3.277900	-9.864000	26.818172	0.000454	20.792677
1937.546541	-3.007300	3.278200	-9.857400	26.865703	0.000453	20.807277
1938.548979	-3.017600	3.277500	-9.887800	26.880119	0.000454	20.802807
1939.547925	-3.011400	3.277300	-9.868000	26.914798	0.000452	20.799746
1940.549401	-2.989900	3.277700	-9.798400	26.922005	0.000455	20.803199
1941.552090	-3.006300	3.276500	-9.849000	26.928724	0.000452	20.813274
1942.553062	-3.019600	3.276900	-9.893300	26.955582	0.000451	20.827953
1943.551681	-3.005100	3.276400	-9.844800	26.953745	0.000450	20.803821
1944.552512	-2.992800	3.276800	-9.805500	26.974772	0.000449	20.796517
1945.552466	-3.013300	3.275100	-9.867400	26.981801	0.000449	20.819707
1946.555499	-3.003500	3.275500	-9.837100	26.982243	0.000448	20.787909
1947.554822	-3.031800	3.273300	-9.923500	26.994178	0.000449	20.783315
1948.555750	-3.016700	3.273900	-9.875800	26.977563	0.000448	20.801695
1949.555466	-3.028100	3.272800	-9.909000	26.964882	0.000447	20.795106
1950.555287	-2.996400	3.273800	-9.807700	26.975260	0.000445	20.795112
1951.554598	-2.985800	3.274700	-9.775800	26.987024	0.000446	20.786078
1952.560150	-2.994800	3.273500	-9.802000	27.029115	0.000445	20.805173
1953.555186	-3.000600	3.272600	-9.818800	26.997029	0.000444	20.769587
1954.556051	-3.011100	3.272900	-9.853700	26.960851	0.000443	20.799588
1955.555874	-3.018600	3.271400	-9.873700	26.959387	0.000443	20.792426
1956.554104	-3.020500	3.270300	-9.877000	26.903826	0.000442	20.799144
1957.556725	-2.985500	3.272000	-9.767400	26.934702	0.000441	20.795104
1958.558155	-2.991800	3.272200	-9.788500	26.925773	0.000443	20.798453
1959.556438	-2.994800	3.270200	-9.792500	26.946318	0.000443	20.786871
1960.559446	-3.007900	3.269900	-9.834500	27.004889	0.000440	20.797406
1961.556962	-3.018600	3.270100	-9.870400	26.974413	0.000438	20.795208
1962.557049	-3.031300	3.269500	-9.909500	27.010602	0.000440	20.778021
1963.559122	-3.024200	3.266900	-9.878300	26.992097	0.000439	20.780274
1964.557988	-3.026400	3.269400	-9.893000	27.011703	0.000436	20.781025
1965.560973	-3.006900	3.268600	-9.826700	27.034978	0.000438	20.784043
1966.558004	-3.024500	3.266000	-9.876700	27.030754	0.000436	20.785010
1967.558892	-2.997700	3.268100	-9.795800	27.001557	0.000437	20.766079
1968.560947	-2.998000	3.266600	-9.792800	26.987461	0.000435	20.795052
1969.560931	-3.027800	3.266400	-9.889000	26.966537	0.000434	20.782072
1970.561316	-3.021600	3.266000	-9.867300	26.940009	0.000434	20.785268
1971.562200	-2.986500	3.266100	-9.752900	26.932323	0.000435	20.765685
1972.559875	-3.004700	3.266300	-9.813100	26.954981	0.000433	20.786098
1973.564930	-3.014900	3.264700	-9.841700	26.972727	0.000432	20.780710
1974.560603	-2.997200	3.264800	-9.784500	27.012805	0.000433	20.783081
1975.561241	-3.006700	3.264400	-9.814100	27.024292	0.000430	20.791314
1976.561230	-2.976500	3.265200	-9.717700	27.026203	0.000430	20.785175
1977.563183	-2.986700	3.264900	-9.751300	26.980075	0.000430	20.784780
1978.563152	-3.009100	3.262400	-9.815700	26.953321	0.000427	20.787274
1979.566522	-3.018900	3.262400	-9.848000	26.966499	0.000429	20.799104
1980.562346	-2.972100	3.263700	-9.699200	26.988734	0.000429	20.774521
1981.563765	-3.001600	3.261800	-9.789000	26.999058	0.000428	20.775894
1982.564311	-3.002000	3.261400	-9.790000	26.997766	0.000427	20.783604
1983.564810	-3.000600	3.262600	-9.788400	26.999627	0.000426	20.767932
1984.565791	-2.997400	3.262500	-9.777300	27.011641	0.000426	20.778591
1985.563541	-3.006900	3.261000	-9.804100	26.998782	0.000426	20.796006
1986.565056	-2.999900	3.259600	-9.777300	27.012873	0.000423	20.786468
1987.564575	-3.005600	3.258500	-9.792200	27.019773	0.000424	20.780132
1988.563915	-2.991500	3.260600	-9.752800	27.034365	0.000422	20.771572
1989.566986	-2.971100	3.261100	-9.688300	27.055301	0.000424	20.773186
1990.567832	-2.992100	3.258400	-9.748000	27.049949	0.000422	20.790563
1991.568788	-2.980200	3.259700	-9.713300	27.095853	0.000420	20.768924
1992.566907	-2.998800	3.259400	-9.773400	27.141504	0.000420	20.763155
1993.565798	-2.977900	3.258200	-9.701000	27.141283	0.000419	20.776209
1994.569129	-2.994700	3.256800	-9.752600	27.124807	0.000418	20.765328
1995.572963	-2.988400	3.257800	-9.734900	27.114558	0.000417	20.765452
1996.568625	-3.028400	3.254900	-9.855900	27.108037	0.000417	20.768376
1997.569701	-3.016500	3.255800	-9.819200	27.074214	0.000416	20.786518
1998.570884	-2.992500	3.255800	-9.741900	27.023270	0.000414	20.766104
1999.571134	-3.026800	3.253200	-9.844900	26.963346	0.000413	20.779337
2000.573673	-3.007300	3.255300	-9.788400	26.933089	0.000412	20.770248
2001.572491	-3.012300	3.253300	-9.798800	26.957908	0.000414	20.756799
2002.576272	-2.978000	3.254300	-9.690000	26.964038	0.000411	20.761541
2003.570980	-2.979300	3.255000	-9.696200	26.967516	0.000411	20.761719
2004.572330	-2.994000	3.253100	-9.738500	26.941092	0.000409	20.766916
2005.571285	-3.010200	3.252800	-9.790500	26.908537	0.000409	20.766897
2006.571339	-3.011700	3.253800	-9.797800	26.926529	0.000408	20.754642
2007.572593	-2.983400	3.253300	-9.705300	26.908916	0.000408	20.763010
2008.574312	-3.007100	3.251700	-9.776500	26.912737	0.000406	20.765431
2009.577940	-2.989200	3.252500	-9.720800	26.885143	0.000403	20.748588
2010.574506	-3.026400	3.249600	-9.833900	26.901181	0.000405	20.745749
2011.578299	-3.014500	3.251200	-9.799900	26.888743	0.000402	20.754105
2012.574371	-2.991900	3.250600	-9.723900	26.892393	0.000403	20.753982
2013.574508	-2.999400	3.250700	-9.749100	26.902056	0.000403	20.737145
2014.576895	-2.992500	3.250700	-9.726800	26.920697	0.000404	20.775805
2015.576051	-3.020800	3.247700	-9.808500	26.984573	0.000401	20.731929
2016.578397	-3.004000	3.250300	-9.763200	26.990733	0.000401	20.743340
2017.577010	-2.998200	3.250200	-9.743100	27.001068	0.000398	20.754208
2018.580226	-3.013900	3.248100	-9.788400	27.022653	0.000399	20.747465
2019.578263	-2.989400	3.248400	-9.709400	27.035634	0.000399	20.749140
2020.577918	-3.003200	3.246600	-9.748800	27.047923	0.000399	20.774775
2021.579571	-3.011400	3.246400	-9.773700	27.087219	0.000397	20.761664
2022.577685	-3.018900	3.245700	-9.796900	27.134830	0.000397	20.753123
2023.579388	-2.982700	3.246300	-9.682300	27.128677	0.000395	20.738399
2024.579039	-3.000700	3.246100	-9.739500	27.114264	0.000397	20.743818
2025.579786	-3.011700	3.246300	-9.775900	27.076253	0.000395	20.760592
2026.579779	-3.002200	3.245600	-9.743300	27.044621	0.000394	20.765764
2027.586338	-2.999400	3.244900	-9.731300	27.040260	0.000393	20.758060
2028.580602	-3.003000	3.245500	-9.744600	27.052843	0.000394	20.739894
2029.581563	-3.006700	3.243600	-9.751100	27.114433	0.000392	20.748256
2030.579484	-2.981800	3.244100	-9.672300	27.122246	0.000391	20.732405
2031.579343	-3.020500	3.244200	-9.797600	27.158406	0.000391	20.758817
2032.593084	-3.016600	3.242400	-9.780000	27.152081	0.000391	20.760516
2033.581348	-2.974800	3.244300	-9.650100	27.189176	0.000389	20.741876
2034.585628	-3.001100	3.242400	-9.730100	27.178217	0.000388	20.740810
2035.586509	-3.009800	3.242000	-9.756400	27.188435	0.000388	20.724060
2036.582902	-3.008400	3.240300	-9.747400	27.187376	0.000386	20.736745
2037.585429	-3.017700	3.240800	-9.779000	27.187229	0.000386	20.746081
2038.588697	-3.001500	3.240200	-9.724500	27.153556	0.000387	20.739714
2039.589801	-3.002700	3.239500	-9.725700	27.129690	0.000385	20.731831
2040.586882	-3.024700	3.238300	-9.792800	27.142516	0.000385	20.756587
2041.587410	-3.004900	3.238900	-9.730700	27.153316	0.000384	20.725247
2042.589834	-2.996800	3.240100	-9.709000	27.136590	0.000386	20.730236
2043.590467	-2.974300	3.238300	-9.630300	27.136197	0.000382	20.737428
2044.585918	-3.012400	3.236300	-9.748000	27.135707	0.000383	20.714648
2045.590260	-2.980800	3.236900	-9.646700	27.161159	0.000383	20.729817
2046.585730	-2.982700	3.236800	-9.653300	27.191189	0.000381	20.743426
2047.586163	-2.996700	3.237700	-9.701400	27.212745	0.000380	20.730494
2048.588292	-2.981100	3.236700	-9.648200	27.190448	0.000379	20.741732
2049.593405	-2.978900	3.238200	-9.644600	27.185085	0.000377	20.735863
2050.587275	-3.003300	3.235600	-9.716600	27.133729	0.000376	20.740161
2051.588511	-3.034400	3.232800	-9.808800	27.109563	0.000376	20.716329
2052.589062	-2.979800	3.234300	-9.636500	27.083663	0.000376	20.722998
2053.589959	-2.993700	3.233400	-9.678200	27.084379	0.000375	20.738893
2054.592507	-3.008300	3.234200	-9.728700	27.081477	0.000374	20.718903
2055.590596	-2.985600	3.233200	-9.652200	27.130165	0.000373	20.735702
2056.594629	-3.010200	3.231800	-9.726400	27.144088	0.000373	20.749632
2057.591541	-3.008200	3.231500	-9.719200	27.186889	0.000370	20.728195
2058.589643	-3.028700	3.232000	-9.787100	27.199201	0.000370	20.723034
2059.590415	-2.984200	3.231700	-9.642200	27.192699	0.000370	20.741152
2060.589018	-2.986500	3.231600	-9.649700	27.213300	0.000370	20.734845
2061.590503	-2.980600	3.232800	-9.634400	27.214433	0.000369	20.740727
2062.591107	-3.023500	3.229300	-9.761100	27.175238	0.000369	20.743504
2063.588950	-3.012500	3.228400	-9.723500	27.140401	0.000369	20.718896
2064.593852	-3.019000	3.229400	-9.748800	27.132913	0.000366	20.733650
2065.590734	-3.004900	3.230700	-9.707600	27.092638	0.000366	20.729180
2066.592328	-3.027500	3.228700	-9.773200	27.098723	0.000367	20.739568
2067.594214	-3.008100	3.227400	-9.706700	27.134033	0.000367	20.731458
2068.593666	-3.023000	3.227200	-9.754800	27.126294	0.000365	20.748331
2069.591422	-2.999600	3.228600	-9.682200	27.152223	0.000366	20.726045
2070.591607	-3.010700	3.225600	-9.709000	27.179933	0.000365	20.728311
2071.590210	-3.005900	3.225700	-9.695200	27.183662	0.000365	20.727319
2072.591581	-3.006000	3.226100	-9.696400	27.222311	0.000364	20.728736
2073.593114	-2.978800	3.226300	-9.609100	27.247173	0.000362	20.734777
2074.592495	-3.011000	3.225400	-9.710000	27.276197	0.000361	20.741213
2075.593502	-2.968200	3.224400	-9.568400	27.259998	0.000362	20.725866
2076.591787	-3.008500	3.224200	-9.698400	27.277513	0.000360	20.733527
2077.596620	-3.002700	3.223200	-9.676400	27.269849	0.000359	20.725343
2078.595364	-2.964600	3.224200	-9.557500	27.269494	0.000361	20.730202
2079.598377	-3.001700	3.224400	-9.677800	27.295322	0.000358	20.724887
2080.597089	-2.989300	3.222400	-9.630700	27.317494	0.000358	20.745296
2081.596005	-2.993800	3.221400	-9.643800	27.356739	0.000359	20.737832
2082.599407	-2.981900	3.222500	-9.607100	27.371645	0.000356	20.721058
2083.598203	-3.017100	3.220200	-9.715000	27.382883	0.000356	20.727148
2084.598489	-3.006200	3.219300	-9.676700	27.339569	0.000356	20.735259
2085.598116	-2.998000	3.220700	-9.654500	27.339716	0.000355	20.723552
2086.599328	-2.995600	3.218500	-9.640000	27.324008	0.000353	20.740469
2087.597584	-3.009700	3.220500	-9.692000	27.326169	0.000353	20.726046
2088.597123	-2.990000	3.218700	-9.622800	27.363651	0.000351	20.735302
2089.597582	-2.990100	3.217500	-9.620200	27.356183	0.000352	20.723047
2090.596323	-2.980600	3.219600	-9.595100	27.344669	0.000350	20.732802
2091.601068	-3.013200	3.219300	-9.699200	27.319981	0.000350	20.744004
2092.598975	-2.997200	3.218200	-9.644600	27.311502	0.000349	20.742113
2093.602083	-2.986900	3.216800	-9.607900	27.302565	0.000348	20.727433
2094.600539	-2.998400	3.216500	-9.643200	27.314796	0.000347	20.728356
2095.598195	-3.018500	3.215500	-9.704400	27.341859	0.000347	20.738511
2096.599761	-3.019600	3.215800	-9.708600	27.401646	0.000346	20.756930
2097.598218	-2.999600	3.214000	-9.639700	27.418308	0.000345	20.742872
2098.597444	-3.016700	3.213900	-9.694000	27.394447	0.000343	20.746843
2099.599007	-2.984100	3.214300	-9.589900	27.331882	0.000343	20.735586
2100.604186	-3.009300	3.212800	-9.667800	27.316052	0.000343	20.744319
2101.599740	-3.000200	3.213300	-9.639400	27.322228	0.000342	20.735359
2102.599629	-3.001700	3.212000	-9.639400	27.285505	0.000340	20.753895
2103.599929	-3.005600	3.211900	-9.653100	27.303472	0.000339	20.728819
2104.602283	-2.990300	3.211800	-9.603800	27.328852	0.000339	20.731116
2105.600309	-2.977400	3.213200	-9.565800	27.292031	0.000338	20.751450
2106.600362	-2.984400	3.211400	-9.583300	27.268413	0.000337	20.760884
2107.603020	-3.029000	3.210400	-9.722200	27.263822	0.000337	20.765275
2108.600748	-2.978300	3.212100	-9.566400	27.235863	0.000336	20.729564
2109.602462	-3.002100	3.208200	-9.630200	27.177353	0.000334	20.723345
2110.601302	-3.028600	3.209900	-9.721300	27.152422	0.000335	20.736203
2111.601212	-3.001400	3.208300	-9.628700	27.136791	0.000333	20.720007
2112.602317	-3.007900	3.208300	-9.649100	27.125722	0.000333	20.734953
2113.604424	-3.019400	3.207100	-9.682500	27.134031	0.000333	20.745206
2114.600573	-2.992700	3.207800	-9.599700	27.189610	0.000331	20.762227
2115.604391	-3.008700	3.205400	-9.642800	27.242309	0.000329	20.743636
2116.602247	-3.014900	3.206200	-9.665500	27.256274	0.000330	20.740138
2117.603473	-2.999600	3.207200	-9.618700	27.249007	0.000327	20.756537
2118.608108	-2.996300	3.204600	-9.600700	27.223753	0.000328	20.745834
2119.603458	-3.022600	3.202800	-9.679700	27.182043	0.000328	20.756987
2120.606206	-2.991400	3.204200	-9.583500	27.216009	0.000326	20.756537
2121.605531	-2.998400	3.205600	-9.609500	27.267263	0.000326	20.774901
2122.607659	-2.994300	3.203300	-9.590300	27.317503	0.000326	20.755737
2123.612481	-2.987600	3.204400	-9.572400	27.325860	0.000324	20.738063
2124.607825	-3.024100	3.202000	-9.682700	27.317632	0.000325	20.757762
2125.606452	-3.037600	3.201200	-9.722500	27.337674	0.000323	20.760380
2126.608360	-3.014800	3.201200	-9.650500	27.336358	0.000323	20.766168
2127.610987	-3.005100	3.201300	-9.619300	27.300779	0.000322	20.747448
2128.606297	-2.990500	3.202600	-9.576500	27.299150	0.000321	20.768096
2129.610971	-3.004300	3.200700	-9.614400	27.311027	0.000321	20.744480
2130.613311	-2.993100	3.200500	-9.578300	27.340557	0.000319	20.762806
2131.606318	-3.019200	3.199100	-9.657600	27.340777	0.000320	20.751173
2132.607951	-2.988300	3.198700	-9.558200	27.356105	0.000317	20.759955
2133.608291	-3.008300	3.199300	-9.622900	27.392110	0.000318	20.767252
2134.611988	-2.999400	3.201500	-9.601800	27.449959	0.000316	20.751007
2135.608998	-2.996100	3.198700	-9.582300	27.465267	0.000317	20.754553
2136.611967	-2.988300	3.199500	-9.560600	27.447431	0.000313	20.769801
2137.613295	-3.000000	3.195500	-9.585200	27.411758	0.000315	20.755724
2138.611300	-2.974000	3.197700	-9.508600	27.405454	0.000315	20.761710
2139.613052	-2.955700	3.197100	-9.448600	27.417359	0.000314	20.764678
2140.611658	-2.958700	3.198400	-9.462200	27.447333	0.000312	20.768754
2141.613028	-2.973300	3.197000	-9.503800	27.501629	0.000314	20.759843
2142.612720	-3.002600	3.195700	-9.593900	27.546424	0.000314	20.764610
2143.612121	-2.991500	3.193400	-9.551900	27.568181	0.000312	20.773224
2144.612006	-2.993900	3.194400	-9.563100	27.573065	0.000311	20.772448
2145.616111	-2.992300	3.196000	-9.562600	27.592735	0.000310	20.762368
2146.615373	-2.988100	3.192100	-9.536900	27.567435	0.000309	20.782431
2147.617077	-2.971600	3.193200	-9.488200	27.569491	0.000310	20.763637
2148.612432	-2.975500	3.194300	-9.503300	27.560194	0.000307	20.772301
2149.614723	-3.000300	3.192300	-9.576800	27.585666	0.000308	20.782757
2150.616284	-3.006500	3.192000	-9.595600	27.550102	0.000305	20.755982
2151.613448	-2.999100	3.189200	-9.563100	27.548963	0.000306	20.761949
2152.615644	-3.000500	3.189200	-9.568100	27.530113	0.000304	20.755784
2153.613285	-3.008900	3.190300	-9.598200	27.505748	0.000303	20.782480
2154.616110	-3.018100	3.189200	-9.624300	27.482691	0.000303	20.759756
2155.613807	-2.995800	3.189400	-9.554000	27.514114	0.000303	20.781414
2156.615103	-3.006600	3.186900	-9.580800	27.542916	0.000305	20.788107
2157.613839	-2.998800	3.189600	-9.563800	27.552733	0.000301	20.771432
2158.613487	-2.996400	3.187500	-9.549300	27.578658	0.000301	20.791352
2159.615854	-2.992900	3.188000	-9.540700	27.599245	0.000302	20.772238
2160.615038	-2.983700	3.186700	-9.507500	27.623131	0.000298	20.784418
2161.617821	-3.016400	3.185800	-9.608700	27.632360	0.000302	20.773315
2162.615438	-3.006700	3.184600	-9.574200	27.694210	0.000299	20.772490
2163.616908	-3.005400	3.184900	-9.570900	27.708419	0.000301	20.780625
2164.615410	-2.971200	3.184800	-9.461300	27.737712	0.000296	20.788766
2165.615974	-2.988800	3.183600	-9.514100	27.751719	0.000298	20.795275
2166.618526	-3.012000	3.182400	-9.584800	27.767616	0.000296	20.781875
2167.619864	-3.013200	3.182300	-9.587900	27.810962	0.000294	20.786142
2168.618269	-2.992100	3.184300	-9.527200	27.768515	0.000294	20.777564
2169.616628	-3.001400	3.180300	-9.544800	27.760628	0.000295	20.782429
2170.619409	-3.032900	3.179500	-9.641900	27.721643	0.000297	20.779707
2171.616274	-2.992400	3.181600	-9.519600	27.767572	0.000294	20.787521
2172.620142	-3.002400	3.180100	-9.545300	27.779131	0.000291	20.779713
2173.616955	-3.006600	3.179400	-9.558800	27.792642	0.000293	20.772447
2174.618887	-2.988600	3.178100	-9.497300	27.815807	0.000291	20.784381
2175.617382	-2.989800	3.178600	-9.502600	27.850671	0.000291	20.782010
2176.619103	-2.982000	3.178300	-9.476700	27.861482	0.000290	20.786253
2177.621004	-3.016000	3.178100	-9.584600	27.841896	0.000290	20.807792
2178.620264	-2.993400	3.178600	-9.514200	27.832449	0.000288	20.777422
2179.621657	-2.993400	3.177600	-9.510600	27.791711	0.000289	20.812762
2180.621256	-3.005700	3.177000	-9.548200	27.800124	0.000286	20.781873
2181.619023	-3.011600	3.175300	-9.561700	27.791349	0.000286	20.797225
2182.621557	-2.992800	3.175700	-9.503500	27.831960	0.000284	20.773610
2183.624310	-2.982000	3.175100	-9.467400	27.872482	0.000285	20.786892
2184.625117	-2.998300	3.174200	-9.516300	27.904449	0.000283	20.802471
2185.624079	-3.007900	3.173100	-9.544100	27.909111	0.000284	20.815224
2186.624834	-3.009300	3.172800	-9.546500	27.871374	0.000283	20.793363
2187.621582	-2.981800	3.174600	-9.465200	27.850718	0.000282	20.787748
2188.626376	-3.002100	3.171100	-9.518200	27.885385	0.000282	20.803197
2189.626362	-3.015800	3.170100	-9.559100	27.889404	0.000282	20.800131
2190.624732	-3.004400	3.172200	-9.529600	27.880728	0.000278	20.795666
2191.624128	-2.989700	3.171200	-9.479700	27.872145	0.000278	20.800303
2192.624028	-3.009000	3.169000	-9.533700	27.840120	0.000279	20.784193
2193.629185	-3.015900	3.170600	-9.561300	27.799676	0.000278	20.787112
2194.626171	-2.996900	3.168800	-9.495400	27.804265	0.000276	20.812593
2195.625734	-3.019500	3.167500	-9.563500	27.790705	0.000276	20.802266
2196.625979	-3.011000	3.166300	-9.533400	27.744905	0.000277	20.818289
2197.625229	-3.012600	3.166600	-9.538700	27.704010	0.000276	20.788042
2198.629428	-3.014700	3.166700	-9.545100	27.720311	0.000274	20.782635
2199.628445	-2.974900	3.166900	-9.420700	27.760857	0.000272	20.817747
2200.624974	-2.962900	3.168400	-9.385700	27.759816	0.000273	20.790621
2201.630906	-2.999900	3.165100	-9.494600	27.743606	0.000273	20.797068
2202.626659	-3.006100	3.163800	-9.510100	27.711395	0.000273	20.796422
2203.625864	-2.989600	3.165200	-9.462300	27.683227	0.000271	20.785620
2204.631252	-2.993900	3.162500	-9.467400	27.705477	0.000270	20.810381
2205.627133	-3.007500	3.163300	-9.512500	27.734543	0.000270	20.806914
2206.630909	-3.001500	3.163900	-9.495800	27.749150	0.000270	20.795534
2207.628515	-2.990400	3.161800	-9.453000	27.789051	0.000269	20.810085
2208.628164	-3.005300	3.162000	-9.501300	27.816236	0.000267	20.818952
2209.627916	-2.990500	3.161800	-9.454700	27.822734	0.000267	20.816957
2210.641705	-2.998700	3.158500	-9.470700	27.775081	0.000269	20.813095
2211.627344	-3.017400	3.158700	-9.530100	27.774806	0.000268	20.799542
2212.631695	-3.007100	3.158700	-9.497800	27.753462	0.000267	20.804142
2213.629190	-2.972200	3.159500	-9.388200	27.732553	0.000267	20.802067
2214.628520	-2.995900	3.158300	-9.461000	27.720982	0.000266	20.806069
2215.629774	-2.995600	3.157300	-9.457100	27.723081	0.000267	20.849906
2216.629370	-2.977700	3.158000	-9.403300	27.786498	0.000266	20.845921
2217.630688	-3.007500	3.155700	-9.489200	27.811610	0.000264	20.807658
2218.628030	-2.995200	3.155400	-9.450500	27.842191	0.000264	20.810459
2219.628633	-3.000100	3.155000	-9.463500	27.872642	0.000263	20.812657
2220.629671	-2.997700	3.154300	-9.454600	27.855137	0.000263	20.798833
2221.633246	-2.990500	3.153200	-9.428300	27.793370	0.000262	20.805422
2222.631134	-3.022500	3.152800	-9.529600	27.777865	0.000262	20.823009
2223.629163	-3.001700	3.152500	-9.461700	27.811744	0.000261	20.841457
2224.628644	-2.999500	3.151800	-9.453500	27.806194	0.000260	20.824492
2225.629602	-3.012300	3.151000	-9.490900	27.863226	0.000260	20.828310
2226.632850	-3.005300	3.151100	-9.468800	27.898657	0.000259	20.825564
2227.630804	-3.009700	3.148900	-9.475600	27.949241	0.000259	20.836647
2228.633430	-2.991300	3.149400	-9.420300	27.983684	0.000260	20.833858
2229.631177	-2.996000	3.148900	-9.432400	27.988438	0.000259	20.836272
2230.631669	-2.970100	3.148400	-9.350300	28.013605	0.000256	20.820354
2231.636690	-3.004300	3.145800	-9.450000	27.998091	0.000257	20.825600
2232.632022	-2.987600	3.146900	-9.400700	28.012963	0.000257	20.834406
2233.635860	-3.006200	3.148300	-9.463100	27.997693	0.000257	20.824252
2234.637290	-3.003900	3.145800	-9.448900	27.970794	0.000254	20.831315
2235.633123	-3.002000	3.145200	-9.441200	27.976673	0.000253	20.836758
2236.636195	-2.973800	3.145500	-9.352500	28.029633	0.000253	20.835538
2237.636359	-2.972200	3.144300	-9.344300	28.052561	0.000253	20.831117
2238.635599	-3.001200	3.142400	-9.430200	28.063547	0.000253	20.828426
2239.639114	-3.003700	3.142600	-9.438900	28.059632	0.000252	20.830649
2240.637622	-3.017400	3.140200	-9.474400	28.060800	0.000252	20.827558
2241.634481	-2.994200	3.142100	-9.406500	28.079061	0.000251	20.830766
2242.636573	-3.005500	3.139300	-9.434200	28.100960	0.000251	20.828629
2243.634673	-3.021500	3.138200	-9.480900	28.129067	0.000250	20.823260
2244.640885	-2.974200	3.139000	-9.335700	28.115359	0.000249	20.811357
2245.635253	-2.981600	3.139000	-9.358400	28.140456	0.000249	20.835199
2246.635711	-2.996200	3.137000	-9.398100	28.097785	0.000247	20.841554
2247.637551	-3.015200	3.135600	-9.453000	28.103963	0.000247	20.850618
2248.634412	-2.995500	3.135300	-9.390800	28.109713	0.000245	20.826536
2249.635619	-2.992800	3.136000	-9.383500	28.121537	0.000246	20.845076
2250.635343	-3.013000	3.134400	-9.443100	28.139863	0.000246	20.840291
2251.637566	-2.983700	3.135100	-9.352600	28.158433	0.000246	20.841917
2252.636262	-2.991800	3.133000	-9.372100	28.182802	0.000245	20.829940
2253.637830	-3.002700	3.132800	-9.405700	28.197995	0.000244	20.860408
2254.638220	-3.001800	3.131700	-9.399800	28.198649	0.000243	20.820765
2255.637478	-2.989000	3.132000	-9.360700	28.179064	0.000243	20.847040
2256.638669	-3.010800	3.130400	-9.423700	28.080191	0.000241	20.847076
2257.638463	-2.970500	3.132300	-9.303600	28.055863	0.000242	20.831122
2258.642963	-3.000300	3.130400	-9.389900	28.020186	0.000241	20.854478
2259.638706	-2.998800	3.129000	-9.382400	28.050485	0.000241	20.838511
2260.643529	-2.987600	3.129000	-9.345900	28.051262	0.000240	20.831232
2261.643736	-2.998400	3.127400	-9.376700	28.015188	0.000241	20.843757
2262.644696	-2.983500	3.128700	-9.333300	28.026615	0.000238	20.852415
2263.643819	-3.011600	3.125600	-9.411700	28.040080	0.000239	20.845106
2264.647022	-2.989400	3.126200	-9.344700	28.006091	0.000238	20.871109
2265.642284	-3.010000	3.123700	-9.401100	27.972553	0.000237	20.852051
2266.642664	-2.965100	3.124600	-9.263000	27.989854	0.000237	20.830586
2267.644643	-3.007100	3.123200	-9.390900	27.972308	0.000238	20.864132
2268.643133	-2.992200	3.122100	-9.341100	28.022143	0.000237	20.846016
2269.645281	-2.990300	3.123600	-9.339600	28.039797	0.000235	20.861890
2270.643137	-3.001300	3.120700	-9.365100	28.092651	0.000237	20.862937
2271.648291	-3.016700	3.119000	-9.407800	28.088766	0.000238	20.857130
2272.641335	-3.014400	3.118900	-9.400800	28.134552	0.000236	20.860548
2273.645186	-3.007900	3.119100	-9.380900	28.163141	0.000236	20.856139
2274.643729	-3.006400	3.118300	-9.374000	28.145164	0.000238	20.849421
2275.642878	-3.005800	3.117900	-9.370100	28.127315	0.000237	20.859427
2276.643169	-2.983100	3.116600	-9.296400	28.074238	0.000234	20.863368
2277.643392	-3.008800	3.116300	-9.375600	28.092589	0.000235	20.865246
2278.645398	-2.980900	3.115600	-9.285900	28.067717	0.000234	20.872450
2279.647604	-3.035500	3.113700	-9.450700	28.059636	0.000236	20.854360
2280.644861	-3.004500	3.113700	-9.353600	28.092558	0.000232	20.850517
2281.645987	-2.984300	3.113500	-9.290600	28.117320	0.000234	20.887770
2282.644963	-2.998200	3.112700	-9.330900	28.159539	0.000231	20.864366
2283.647263	-3.014100	3.111000	-9.375800	28.182097	0.000232	20.877592
2284.647314	-2.997600	3.110600	-9.323200	28.185693	0.000233	20.870782
2285.647218	-3.044400	3.108400	-9.462200	28.146296	0.000233	20.873793
2286.645067	-2.993300	3.108600	-9.304000	28.124312	0.000232	20.873473
2287.644908	-3.009900	3.107800	-9.353200	28.104175	0.000231	20.876435
2288.644603	-3.006000	3.106800	-9.337900	28.139696	0.000230	20.879951
2289.644708	-2.992700	3.106500	-9.296200	28.144908	0.000231	20.859120
2290.648167	-2.998700	3.105200	-9.310900	28.155814	0.000231	20.884322
2291.645261	-2.990800	3.104500	-9.283700	28.156334	0.000230	20.878208
2292.649538	-3.012600	3.102800	-9.346200	28.192403	0.000228	20.872321
2293.646526	-3.011000	3.104200	-9.345600	28.196672	0.000228	20.878041
2294.646069	-3.010000	3.102700	-9.338200	28.149715	0.000228	20.872968
2295.647395	-3.032600	3.100500	-9.401600	28.173491	0.000226	20.904013
2296.647384	-2.979200	3.102600	-9.241800	28.183632	0.000228	20.878663
2297.646995	-2.994500	3.101400	-9.286000	28.169301	0.000228	20.874667
2298.647850	-2.993200	3.100200	-9.278600	28.161618	0.000228	20.882105
2299.647740	-3.026200	3.098300	-9.373700	28.156437	0.000226	20.873097
2300.646710	-2.993200	3.098000	-9.271900	28.115926	0.000226	20.892056
2301.653219	-2.988500	3.097900	-9.257300	28.065710	0.000226	20.890818
2302.648535	-3.010500	3.096300	-9.320300	28.011045	0.000225	20.881311
2303.646910	-3.007700	3.095400	-9.308900	27.972516	0.000227	20.872875
2304.648567	-2.978800	3.095000	-9.218400	27.943511	0.000225	20.893939
2305.649243	-2.999400	3.093500	-9.277300	27.963792	0.000224	20.898231
2306.651972	-2.988000	3.093400	-9.242000	28.034358	0.000225	20.888182
2307.651603	-2.976000	3.092400	-9.202100	28.063563	0.000222	20.887234
2308.653397	-3.020700	3.090500	-9.334700	28.062498	0.000225	20.886162
2309.657218	-3.003300	3.090700	-9.281400	28.106040	0.000224	20.886371
2310.653557	-2.997400	3.089600	-9.260100	28.110004	0.000222	20.871397
2311.655469	-2.971900	3.088800	-9.178300	28.120892	0.000221	20.885201
2312.658530	-3.019100	3.087000	-9.319600	28.093273	0.000221	20.887270
2313.652907	-3.017200	3.085500	-9.307900	28.101286	0.000222	20.890595
2314.652735	-3.004200	3.084500	-9.265800	28.079870	0.000224	20.871883
2315.650917	-2.991100	3.084400	-9.224800	28.063684	0.000221	20.880244
2316.652717	-3.007500	3.084600	-9.275600	28.108064	0.000222	20.878452
2317.656014	-3.004300	3.082400	-9.259600	28.129877	0.000222	20.885712
2318.652721	-2.994800	3.082400	-9.230400	28.175067	0.000221	20.877627
2319.656721	-3.004000	3.081600	-9.256900	28.198402	0.000221	20.870300
2320.654563	-3.015800	3.079700	-9.286300	28.241926	0.000221	20.871919
2321.654516	-3.003200	3.079100	-9.246500	28.257870	0.000219	20.886549
2322.657126	-3.030100	3.077500	-9.324000	28.312975	0.000220	20.871857
2323.654155	-3.021300	3.076600	-9.294600	28.350654	0.000221	20.879923
2324.656349	-3.009100	3.075600	-9.253300	28.369520	0.000222	20.880902
2325.654333	-3.022400	3.075500	-9.295100	28.371227	0.000220	20.867922
2326.658530	-3.027500	3.072800	-9.302300	28.350764	0.000219	20.864388
2327.654392	-3.007000	3.074400	-9.244700	28.308657	0.000219	20.875095
2328.657262	-3.017600	3.071600	-9.268000	28.278799	0.000219	20.859732
2329.658621	-2.968800	3.072700	-9.120900	28.292657	0.000220	20.869418
2330.665787	-2.999700	3.071200	-9.211400	28.219435	0.000217	20.875354
2331.655845	-3.001500	3.071000	-9.217300	28.175965	0.000217	20.864307
2332.656446	-2.978000	3.069300	-9.138700	28.149865	0.000217	20.849886
2333.662467	-3.005700	3.066700	-9.216500	28.185219	0.000215	20.858925
2334.654972	-3.007700	3.068000	-9.225500	28.218015	0.000217	20.857804
2335.661932	-3.013600	3.066500	-9.239600	28.250517	0.000216	20.858285
2336.655220	-2.968900	3.065700	-9.099700	28.288614	0.000218	20.863451
2337.660248	-3.015000	3.063900	-9.236600	28.302081	0.000216	20.855199
2338.661684	-2.981000	3.064600	-9.134500	28.332470	0.000215	20.862564
2339.657301	-2.980900	3.062300	-9.127400	28.358174	0.000216	20.866160
2340.656667	-3.006400	3.059800	-9.198000	28.345564	0.000216	20.846825
2341.658480	-3.003500	3.060600	-9.191900	28.310178	0.000215	20.852447
2342.658258	-2.998800	3.060300	-9.176500	28.296179	0.000216	20.854946
2343.658224	-2.993200	3.058900	-9.154700	28.258651	0.000216	20.854146
2344.660167	-3.022100	3.056500	-9.236100	28.229562	0.000215	20.841455
2345.657503	-2.984000	3.057600	-9.122800	28.200491	0.000214	20.856756
2346.657625	-3.000300	3.054700	-9.164300	28.214002	0.000215	20.855186
2347.656426	-2.995600	3.054000	-9.147700	28.239782	0.000216	20.835149
2348.657761	-3.004400	3.053100	-9.171200	28.199237	0.000213	20.832736
2349.659673	-3.039900	3.051300	-9.274400	28.248039	0.000213	20.842988
2350.658146	-3.030600	3.048800	-9.237900	28.272485	0.000212	20.831565
2351.662383	-2.994000	3.050800	-9.132700	28.288919	0.000212	20.831516
2352.659541	-3.005200	3.049300	-9.162300	28.295848	0.000215	20.825691
2353.658760	-3.002000	3.048900	-9.151900	28.286319	0.000213	20.833641
2354.660107	-3.023300	3.045600	-9.206800	28.303040	0.000212	20.825346
2355.665284	-2.988100	3.045900	-9.101000	28.314886	0.000213	20.833006
2356.662294	-2.978200	3.045300	-9.068500	28.376202	0.000211	20.814139
2357.661618	-2.985600	3.044200	-9.087800	28.383565	0.000213	20.840044
2358.662041	-2.994600	3.042700	-9.110700	28.332316	0.000212	20.820684
2359.661996	-2.977900	3.040100	-9.051400	28.311651	0.000213	20.836386
2360.665742	-2.992500	3.040300	-9.097300	28.362087	0.000213	20.826953
2361.662299	-2.966100	3.040000	-9.015500	28.384512	0.000211	20.835309
2362.662749	-3.019200	3.037100	-9.168900	28.406949	0.000213	20.827556
2363.662451	-2.992800	3.038500	-9.092100	28.400480	0.000211	20.833843
2364.661427	-2.971900	3.035800	-9.020200	28.411701	0.000211	20.831393
2365.665749	-2.989200	3.035000	-9.071200	28.414239	0.000210	20.831103
2366.663039	-2.988500	3.033000	-9.063300	28.391215	0.000211	20.832575
2367.669155	-2.994600	3.031700	-9.077100	28.402614	0.000212	20.826035
2368.662210	-2.996600	3.032000	-9.084000	28.376367	0.000209	20.811460
2369.662060	-3.018800	3.028800	-9.141600	28.348443	0.000210	20.813215
2370.664577	-3.014300	3.027800	-9.125200	28.357066	0.000211	20.826165
2371.662743	-2.995700	3.029000	-9.072800	28.362692	0.000208	20.806226
2372.666018	-2.986500	3.026900	-9.038500	28.396676	0.000207	20.821953
2373.666742	-2.982500	3.025300	-9.021400	28.368838	0.000212	20.825216
2374.663735	-3.002600	3.023700	-9.077300	28.344504	0.000209	20.839120
2375.664658	-2.989800	3.024900	-9.042500	28.337740	0.000210	20.813818
2376.668189	-3.013400	3.021300	-9.104100	28.372715	0.000208	20.813473
2377.666494	-2.984400	3.021300	-9.014800	28.391178	0.000208	20.793183
2378.669032	-3.015500	3.017500	-9.097900	28.422629	0.000208	20.789292
2379.664699	-3.000100	3.016700	-9.048700	28.422378	0.000210	20.817962
2380.668492	-2.992600	3.016300	-9.025800	28.431331	0.000208	20.810856
2381.671168	-2.995900	3.014700	-9.030600	28.428829	0.000208	20.817821
2382.677892	-2.999600	3.015200	-9.044100	28.417039	0.000209	20.836294
2383.668992	-2.977000	3.014000	-8.971700	28.407567	0.000208	20.822962
2384.668562	-3.003600	3.010300	-9.040300	28.417681	0.000208	20.807069
2385.669496	-2.987500	3.010800	-8.993900	28.355206	0.000208	20.821447
2386.672318	-3.008800	3.009300	-9.053800	28.321179	0.000207	20.808522
2387.671802	-2.983700	3.008600	-8.975600	28.368245	0.000208	20.822248
2388.670074	-2.986900	3.007900	-8.982700	28.378115	0.000209	20.796151
2389.670374	-2.982400	3.006300	-8.964700	28.335636	0.000209	20.817864
2390.674612	-2.992800	3.003300	-8.987100	28.302746	0.000206	20.814618
2391.670424	-2.987500	3.003300	-8.971000	28.341587	0.000207	20.805363
2392.671248	-3.015000	3.000400	-9.045200	28.351928	0.000207	20.814828
2393.671614	-2.997900	3.000000	-8.992400	28.429202	0.000207	20.776945
2394.673947	-2.996000	2.998800	-8.982900	28.426854	0.000206	20.789753
2395.672668	-2.994500	2.997500	-8.974900	28.452476	0.000205	20.808442
2396.672802	-2.987200	2.997700	-8.952700	28.451583	0.000204	20.789999
2397.675868	-2.983100	2.995700	-8.935200	28.473450	0.000206	20.823873
2398.673287	-3.003700	2.992600	-8.987500	28.487227	0.000205	20.807876
2399.676136	-3.007700	2.993200	-9.001500	28.471096	0.000206	20.806330
2400.672372	-2.999400	2.991300	-8.971200	28.460890	0.000207	20.802691
2401.673544	-2.984400	2.989600	-8.921100	28.491697	0.000206	20.796730
2402.675292	-2.988500	2.988300	-8.929800	28.455790	0.000206	20.791865
2403.676915	-2.998000	2.985900	-8.950500	28.406747	0.000205	20.806016
2404.674614	-2.977000	2.987900	-8.892700	28.345984	0.000206	20.797937
2405.674770	-3.005100	2.984200	-8.966700	28.340755	0.000207	20.812112
2406.674676	-3.014400	2.982500	-8.988600	28.373253	0.000206	20.799316
2407.677034	-3.017500	2.981100	-8.993900	28.398308	0.000206	20.802734
2408.678742	-3.002500	2.981100	-8.949600	28.409713	0.000206	20.797149
2409.675631	-3.004300	2.979200	-8.948700	28.419968	0.000210	20.803682
2410.675591	-2.999400	2.979000	-8.932900	28.462028	0.000206	20.794827
2411.674900	-3.006300	2.974700	-8.942100	28.487056	0.000204	20.798694
2412.681919	-3.017000	2.973600	-8.970800	28.524031	0.000204	20.820283
2413.678350	-3.011900	2.972200	-8.951100	28.520020	0.000205	20.793010
2414.678405	-3.000200	2.972000	-8.915700	28.489642	0.000206	20.811730
2415.673349	-2.997500	2.969400	-8.900500	28.438693	0.000205	20.783182
2416.674016	-2.978000	2.969200	-8.841300	28.373149	0.000207	20.782616
2417.674545	-2.982300	2.967300	-8.848300	28.362814	0.000206	20.795917
2418.674274	-2.972600	2.966100	-8.816000	28.378971	0.000204	20.782788
2419.675363	-3.000300	2.962800	-8.888600	28.396045	0.000207	20.775799
2420.674041	-3.039300	2.961700	-9.000100	28.407181	0.000205	20.805030
2421.675646	-3.020500	2.961800	-8.945000	28.413480	0.000207	20.794778
2422.673592	-3.002100	2.958900	-8.882700	28.379796	0.000205	20.790732
2423.675535	-3.026200	2.959000	-8.953700	28.385447	0.000205	20.783620
2424.678522	-2.996800	2.958100	-8.864400	28.302721	0.000204	20.780929
2425.675727	-2.991200	2.955600	-8.839800	28.287284	0.000203	20.794310
2426.681381	-3.014400	2.953800	-8.902700	28.293327	0.000203	20.792807
2427.677775	-3.011300	2.952400	-8.889100	28.352442	0.000205	20.794008
2428.678837	-3.021900	2.948200	-8.908200	28.383998	0.000203	20.775048
2429.680547	-3.020400	2.948500	-8.904000	28.452500	0.000204	20.752516
2430.682979	-2.975500	2.947800	-8.769900	28.494375	0.000205	20.769081
2431.681790	-2.993300	2.946700	-8.818500	28.538841	0.000204	20.773558
2432.682257	-3.014700	2.944900	-8.876900	28.543372	0.000204	20.776698
2433.680926	-3.015500	2.943200	-8.873900	28.523726	0.000205	20.790104
2434.681006	-2.992800	2.942300	-8.804700	28.475951	0.000206	20.778028
2435.689721	-2.991800	2.940400	-8.796100	28.439995	0.000203	20.803460
2436.684680	-2.962200	2.940600	-8.708300	28.474166	0.000205	20.770066
2437.691428	-3.003600	2.937200	-8.821500	28.476966	0.000204	20.767671
2438.687901	-2.970500	2.935500	-8.719000	28.540437	0.000205	20.781803
2439.686996	-3.003800	2.934400	-8.813500	28.575521	0.000203	20.775885
2440.691888	-2.974100	2.932700	-8.720800	28.634131	0.000206	20.787973
2441.692936	-3.001500	2.930300	-8.794800	28.637219	0.000202	20.777807
2442.689312	-2.972400	2.930500	-8.709300	28.684155	0.000204	20.763914
2443.689389	-3.017600	2.926800	-8.830600	28.695226	0.000204	20.761790
2444.696948	-2.970600	2.926600	-8.692700	28.711898	0.000202	20.785695
2445.690133	-2.984600	2.924100	-8.725800	28.723691	0.000203	20.786668
2446.691501	-2.998800	2.923300	-8.765400	28.746855	0.000203	20.764481
2447.691319	-2.980800	2.920600	-8.704200	28.762615	0.000203	20.769924
2448.692556	-3.027500	2.917800	-8.832700	28.781266	0.000205	20.780177
2449.692174	-2.985900	2.916800	-8.707700	28.788999	0.000205	20.778010
2450.692340	-2.974100	2.917500	-8.676500	28.815804	0.000204	20.793632
2451.694952	-3.002300	2.914100	-8.748300	28.811177	0.000203	20.781384
2452.697019	-2.974700	2.912200	-8.662300	28.769137	0.000204	20.768434
2453.692611	-2.997700	2.911200	-8.726000	28.757394	0.000205	20.768933
2454.692313	-3.002000	2.909400	-8.732300	28.795008	0.000203	20.783115
2455.692134	-2.994900	2.908100	-8.708200	28.816306	0.000202	20.768533
2456.693997	-2.989000	2.906100	-8.685800	28.836007	0.000204	20.767043
2457.693007	-2.971900	2.904400	-8.630900	28.827511	0.000206	20.763225
2458.693895	-2.987400	2.903800	-8.674100	28.799941	0.000202	20.773859
2459.693456	-2.995300	2.898900	-8.682300	28.786664	0.000202	20.769493
2460.693500	-2.968100	2.899200	-8.605000	28.830909	0.000203	20.773287
2461.697414	-2.985000	2.897600	-8.648400	28.772573	0.000202	20.769050
2462.699710	-2.994200	2.895500	-8.667900	28.707875	0.000202	20.774531
2463.695620	-3.026600	2.893500	-8.756500	28.678555	0.000201	20.763015
2464.695566	-2.982700	2.892700	-8.626900	28.685811	0.000202	20.765109
2465.696134	-2.989100	2.889200	-8.635000	28.697831	0.000200	20.752085
2466.698942	-3.004400	2.886600	-8.671800	28.724370	0.000204	20.760324
2467.699240	-3.000900	2.885900	-8.658500	28.708835	0.000202	20.745625
2468.695255	-3.021700	2.882900	-8.710900	28.697709	0.000203	20.745797
2469.702352	-3.013700	2.881300	-8.682200	28.720971	0.000203	20.771125
2470.696006	-2.992500	2.880100	-8.616600	28.698772	0.000202	20.765361
2471.699239	-3.026000	2.878700	-8.709900	28.706482	0.000204	20.775023
2472.700423	-3.002700	2.876200	-8.634800	28.701181	0.000204	20.744553
2473.695751	-2.985800	2.874700	-8.582400	28.737868	0.000200	20.764438
2474.696362	-2.980600	2.873600	-8.563900	28.662946	0.000200	20.756777
2475.696896	-2.979600	2.872300	-8.557200	28.655762	0.000202	20.763292
2476.695821	-2.980400	2.868800	-8.548700	28.664976	0.000200	20.768305
2477.697216	-2.982200	2.867400	-8.549400	28.705662	0.000203	20.762344
2478.711363	-2.981300	2.865400	-8.541700	28.754343	0.000200	20.747842
2479.700810	-3.003700	2.861800	-8.594900	28.782941	0.000200	20.759579
2480.697553	-3.024400	2.858600	-8.643900	28.820297	0.000203	20.769709
2481.701249	-3.012400	2.858100	-8.609500	28.828941	0.000201	20.745699
2482.696955	-2.972400	2.858400	-8.495800	28.758482	0.000201	20.755330
2483.701088	-2.961000	2.856600	-8.457400	28.680095	0.000200	20.752713
2484.696834	-2.969400	2.854200	-8.473300	28.658764	0.000200	20.748772
2485.698165	-3.012700	2.848100	-8.578500	28.694120	0.000200	20.756882
2486.695428	-2.978300	2.848800	-8.483100	28.696700	0.000201	20.751420
2487.698662	-3.032800	2.845900	-8.630400	28.714166	0.000199	20.752417
2488.698742	-2.998700	2.844200	-8.527200	28.732678	0.000199	20.771064
2489.707216	-2.996900	2.842500	-8.518000	28.736859	0.000202	20.767689
2490.699350	-2.997200	2.840700	-8.513400	28.755890	0.000203	20.743236
2491.700013	-3.019400	2.836600	-8.563500	28.801659	0.000202	20.758520
2492.700115	-2.990100	2.836700	-8.481000	28.847879	0.000202	20.741068
2493.700207	-3.012000	2.832600	-8.531200	28.858936	0.000201	20.758372
2494.701915	-2.976200	2.831300	-8.425600	28.890398	0.000202	20.762092
2495.702656	-3.025100	2.828000	-8.552300	28.901370	0.000201	20.745169
2496.708173	-3.013600	2.827300	-8.519600	28.855575	0.000201	20.733173
2497.703106	-2.976800	2.824500	-8.406900	28.828049	0.000200	20.749542
2498.702266	-3.000300	2.823500	-8.470400	28.813610	0.000203	20.731203
2499.707396	-3.061600	2.819000	-8.628300	28.820029	0.000203	20.740514
2500.706104	-3.029800	2.817500	-8.533500	28.826276	0.000203	20.732108
2501.707811	-2.983000	2.815500	-8.396800	28.799593	0.000201	20.724669
2502.706384	-2.993300	2.813300	-8.420000	28.767310	0.000203	20.738617
2503.707628	-2.979700	2.811500	-8.376400	28.746800	0.000201	20.747356
2504.714436	-3.023900	2.806900	-8.486600	28.746708	0.000201	20.735409
2505.709322	-2.978300	2.807400	-8.360200	28.714747	0.000202	20.732613
2506.706651	-2.974400	2.804600	-8.341000	28.704220	0.000201	20.740976
2507.708219	-2.988300	2.800900	-8.369300	28.642196	0.000201	20.739196
2508.707521	-3.012100	2.798900	-8.429700	28.633704	0.000200	20.737281
2509.712662	-2.984800	2.796800	-8.345600	28.639952	0.000201	20.750213
2510.710266	-2.986000	2.792000	-8.335200	28.710022	0.000201	20.715524
2511.707260	-3.026500	2.789700	-8.440900	28.712999	0.000200	20.725636
2512.711916	-3.036500	2.787600	-8.463100	28.708891	0.000204	20.750423
2513.707995	-2.995200	2.785400	-8.341800	28.688900	0.000202	20.732182
2514.708763	-2.984300	2.783900	-8.306200	28.724132	0.000202	20.725470
2515.709915	-3.010500	2.779700	-8.367800	28.741378	0.000202	20.722927
2516.709437	-3.008600	2.778500	-8.358100	28.794526	0.000202	20.709132
2517.710568	-3.006000	2.775000	-8.340800	28.837805	0.000201	20.718117
2518.710448	-3.000600	2.772400	-8.317400	28.840208	0.000203	20.723857
2519.710749	-3.015500	2.768400	-8.347200	28.885197	0.000203	20.724608
2520.712201	-3.014800	2.767600	-8.342300	28.943735	0.000203	20.724787
2521.715792	-3.015500	2.764300	-8.334200	28.981214	0.000201	20.736943
2522.711402	-3.026600	2.759100	-8.349500	29.003327	0.000202	20.713702
2523.711653	-3.008600	2.758100	-8.296700	29.022206	0.000203	20.739363
2524.714450	-2.993200	2.756400	-8.249300	29.011737	0.000202	20.740669
2525.712718	-2.983100	2.753200	-8.211600	28.951302	0.000203	20.721979
2526.717123	-3.043200	2.747900	-8.361600	28.954718	0.000201	20.729215
2527.714677	-3.037300	2.744900	-8.335300	28.963392	0.000202	20.698596
2528.714833	-2.992800	2.743100	-8.208800	28.991336	0.000201	20.746667
2529.713381	-2.990700	2.738800	-8.189700	29.007086	0.000200	20.722231
2530.712395	-2.989600	2.737400	-8.182700	28.971441	0.000202	20.729941
2531.714311	-2.973600	2.733600	-8.127600	28.923467	0.000198	20.735662
2532.715983	-3.028600	2.729700	-8.265900	28.910906	0.000200	20.724904
2533.715887	-2.998200	2.724600	-8.168100	28.854928	0.000201	20.737263
2534.714580	-3.012300	2.723900	-8.203800	28.823765	0.000201	20.740958
2535.714195	-3.009000	2.721000	-8.186500	28.801000	0.000203	20.726561
2536.715175	-3.014900	2.717400	-8.191800	28.763374	0.000199	20.708572
2537.719306	-3.022800	2.713100	-8.199600	28.781934	0.000204	20.740072
2538.715997	-3.026800	2.709600	-8.200800	28.829590	0.000200	20.726912
2539.719919	-2.998700	2.707100	-8.116800	28.882215	0.000199	20.715439
2540.716109	-2.985500	2.702700	-8.068400	28.965476	0.000200	20.737683
2541.717693	-2.990000	2.699100	-8.069600	29.002875	0.000198	20.707557
2542.722607	-3.013700	2.694400	-8.119000	29.051946	0.000198	20.711479
2543.717715	-2.989800	2.690900	-8.044000	29.037358	0.000200	20.715747
2544.718779	-3.004700	2.687800	-8.075100	29.094005	0.000200	20.714029
2545.717990	-3.009700	2.682800	-8.073500	29.135592	0.000198	20.716104
2546.719955	-3.020500	2.679600	-8.092900	29.166941	0.000201	20.720193
2547.717504	-2.995400	2.676500	-8.016100	29.198925	0.000202	20.715914
2548.721038	-2.979600	2.673800	-7.965300	29.129530	0.000200	20.719005
2549.719278	-2.979400	2.669800	-7.952900	29.127678	0.000200	20.702914
2550.720376	-3.045400	2.664300	-8.111600	29.133471	0.000199	20.722503
2551.719755	-3.028300	2.659300	-8.052500	29.189563	0.000200	20.719757
2552.720653	-3.004400	2.656500	-7.980200	29.256926	0.000199	20.706085
2553.721927	-3.018800	2.651300	-8.002200	29.249991	0.000201	20.734659
2554.719568	-2.994700	2.648000	-7.929100	29.244198	0.000200	20.722183
2555.721447	-3.011900	2.643500	-7.960900	29.229222	0.000203	20.716573
2556.720671	-2.942100	2.640900	-7.768400	29.222237	0.000200	20.721863
2557.720946	-2.998900	2.634200	-7.898600	29.239799	0.000202	20.713482
2558.723538	-3.000900	2.629200	-7.887700	29.220135	0.000202	20.756730
2559.722871	-3.004100	2.625300	-7.885700	29.200007	0.000201	20.734075
2560.720476	-3.027100	2.618900	-7.925300	29.136704	0.000200	20.725287
2561.722662	-3.018100	2.614900	-7.890900	29.108202	0.000201	20.722645
2562.726447	-3.010400	2.611100	-7.858700	29.144753	0.000201	20.725810
2563.723560	-2.981800	2.607000	-7.772600	29.207187	0.000200	20.727559
2564.726033	-2.995400	2.600900	-7.790100	29.256499	0.000201	20.725570
2565.722743	-3.020400	2.595200	-7.837000	29.331770	0.000201	20.731728
2566.725414	-3.000800	2.589800	-7.770700	29.369266	0.000202	20.731113
2567.723162	-2.996800	2.585300	-7.745900	29.399936	0.000202	20.731679
2568.723387	-3.007300	2.579800	-7.757700	29.423220	0.000202	20.721007
2569.728555	-3.005300	2.574500	-7.736400	29.429042	0.000201	20.745369
2570.724166	-3.033500	2.568200	-7.788400	29.418540	0.000201	20.717713
2571.723338	-3.006300	2.563700	-7.706000	29.373329	0.000201	20.731889
2572.722836	-2.976500	2.559100	-7.616100	29.331935	0.000203	20.725257
2573.724810	-3.006300	2.551100	-7.668900	29.336939	0.000201	20.751638
2574.724578	-2.994500	2.545000	-7.620200	29.304526	0.000204	20.731298
2575.728781	-3.007800	2.540700	-7.640900	29.323968	0.000200	20.728607
2576.725138	-2.976200	2.535700	-7.546100	29.334740	0.000202	20.723816
2577.723912	-2.987600	2.528300	-7.552600	29.311021	0.000203	20.724093
2578.731152	-3.045200	2.520100	-7.672400	29.258180	0.000202	20.747654
2579.727496	-2.994600	2.516300	-7.534400	29.193127	0.000203	20.727141
2580.726460	-3.018800	2.509100	-7.572500	29.213036	0.000202	20.712115
2581.726168	-3.002400	2.502300	-7.512400	29.276309	0.000205	20.741268
2582.726736	-3.015200	2.495400	-7.522700	29.308479	0.000201	20.740973
