LabVIEW Measurement	
Writer_Version	2
Reader_Version	2
Separator	Tab
Decimal_Separator	.
Multi_Headings	No
X_Columns	One
Time_Pref	Absolute
Operator	admin
Description	Clolumns are: time, Current, Voltage, Power, Battery Temp, and Chamber Temp
Date	2024/08/16
Time	13:06:06.104549407958984375
***End_of_Header***	
	
Channels	6						
Samples	1	1	1	1	1	1	
Date	2024/09/12	2024/09/12	2024/09/12	2024/09/12	2024/09/12	2024/09/12	
Time	11:44:31.8854193687438964844	11:44:31.8902935981750488281	11:44:31.8963160514831542969	11:44:31.8696961402893066406	11:44:31.8696961402893066406	11:44:31.8696961402893066406	
X_Dimension	Time	Time	Time	Time	Time	Time	
X0	0.0000000000000000E+0	0.0000000000000000E+0	0.0000000000000000E+0	0.0000000000000000E+0	0.0000000000000000E+0	0.0000000000000000E+0	
Delta_X	1.000000	1.000000	1.000000	1.000000	1.000000	1.000000	
***End_of_Header***							
X_Value	Untitled	Untitled 1	Untitled 2	Untitled 3	Untitled 4	Untitled 5	Comment
0.000000	-0.004364	4.095300	-0.017880	21.030264	0.000921	20.832091
1.002463	-3.000300	3.919000	-11.757000	21.045557	0.000920	20.845016
2.001326	-2.990800	3.910900	-11.696000	21.045059	0.000922	20.862534
3.008125	-2.981400	3.907000	-11.647000	21.020008	0.000919	20.862134
4.003629	-3.021400	3.902400	-11.790000	21.035153	0.000916	20.843618
5.005920	-2.994900	3.898700	-11.675000	21.044831	0.000917	20.834807
6.005733	-2.994800	3.896400	-11.668000	21.046358	0.000916	20.842497
7.012746	-3.001200	3.892500	-11.680000	21.039814	0.000915	20.851125
8.005429	-3.017200	3.888900	-11.732000	21.061798	0.000914	20.841346
9.003746	-2.978900	3.889100	-11.585000	21.056954	0.000914	20.843613
10.006442	-3.007100	3.886500	-11.685000	21.069476	0.000914	20.864672
11.007555	-2.990700	3.885800	-11.620000	21.062667	0.000913	20.841267
12.015795	-2.998800	3.884100	-11.647000	21.063916	0.000913	20.855792
13.005471	-2.980600	3.883100	-11.573000	21.055501	0.000910	20.839789
14.009001	-3.003400	3.881100	-11.656000	21.061091	0.000911	20.834949
15.006283	-3.032700	3.878800	-11.763000	21.073312	0.000911	20.848121
16.014987	-3.028900	3.877900	-11.745000	21.083914	0.000910	20.826958
17.012611	-3.003400	3.877200	-11.644000	21.082387	0.000910	20.815948
18.007926	-2.995200	3.877000	-11.610000	21.066843	0.000909	20.850185
19.007236	-3.015200	3.875600	-11.684000	21.087424	0.000907	20.844692
20.008425	-3.000900	3.874900	-11.626000	21.087996	0.000908	20.837679
21.009247	-2.996500	3.874100	-11.608000	21.094277	0.000908	20.829736
22.011481	-2.988400	3.872100	-11.569000	21.106626	0.000909	20.845408
23.013472	-3.019100	3.872100	-11.689000	21.100236	0.000908	20.834749
24.011721	-2.993700	3.871300	-11.588000	21.090221	0.000907	20.839904
25.019938	-2.992100	3.871300	-11.581000	21.123107	0.000908	20.835341
26.015141	-2.981100	3.869300	-11.533000	21.122524	0.000906	20.828119
27.012584	-2.986000	3.869100	-11.553000	21.137963	0.000907	20.835029
28.016737	-3.007300	3.868500	-11.633000	21.140155	0.000906	20.828213
29.015890	-2.995000	3.868900	-11.586000	21.149082	0.000907	20.851840
30.014030	-2.988800	3.867300	-11.556000	21.142016	0.000906	20.828651
31.011432	-2.987000	3.866400	-11.548000	21.166837	0.000906	20.818393
32.014686	-3.008600	3.866100	-11.631000	21.144380	0.000905	20.836706
33.013062	-2.997000	3.865300	-11.583000	21.173758	0.000904	20.840014
34.013725	-2.988700	3.865900	-11.552000	21.160332	0.000906	20.839860
35.011507	-2.997400	3.864100	-11.582000	21.178437	0.000904	20.841376
36.016374	-3.005800	3.863400	-11.610000	21.200162	0.000903	20.823279
37.010830	-2.987000	3.863100	-11.536000	21.212061	0.000904	20.851777
38.014217	-2.996000	3.864100	-11.576000	21.203918	0.000904	20.823718
39.013891	-2.999300	3.861900	-11.581000	21.188616	0.000904	20.831644
40.011197	-3.019000	3.861100	-11.655000	21.233343	0.000903	20.850308
41.015244	-3.002800	3.861000	-11.593000	21.221667	0.000904	20.837679
42.011693	-2.996400	3.860800	-11.567000	21.224209	0.000903	20.847334
43.017018	-3.001000	3.859800	-11.583000	21.228963	0.000902	20.850667
44.018094	-2.987900	3.860500	-11.533000	21.237267	0.000902	20.826259
45.017131	-3.012100	3.859200	-11.622000	21.244672	0.000902	20.817546
46.014988	-2.999900	3.859300	-11.576000	21.246237	0.000900	20.850404
47.015661	-3.018100	3.858900	-11.646000	21.269960	0.000899	20.842843
48.014354	-3.011700	3.858500	-11.619000	21.253242	0.000901	20.829912
49.024165	-3.008900	3.857500	-11.606000	21.281527	0.000900	20.839716
50.014699	-3.002000	3.858400	-11.580000	21.284543	0.000902	20.849371
51.017728	-2.998100	3.856700	-11.562000	21.271776	0.000900	20.824272
52.022354	-2.979400	3.856700	-11.490000	21.288685	0.000899	20.847825
53.020821	-2.999000	3.856200	-11.564000	21.282647	0.000901	20.844156
54.019599	-2.981600	3.857200	-11.499000	21.311029	0.000901	20.826558
55.024186	-2.994500	3.856600	-11.548000	21.299709	0.000900	20.826613
56.022793	-2.989400	3.856300	-11.526000	21.319511	0.000900	20.836465
57.015750	-3.001900	3.854300	-11.570000	21.316243	0.000900	20.837937
58.020351	-2.988000	3.854600	-11.516000	21.313972	0.000900	20.827131
59.019665	-2.992500	3.854100	-11.531000	21.331907	0.000900	20.828005
60.026762	-3.021300	3.853500	-11.642000	21.348920	0.000898	20.815628
61.020165	-3.020600	3.853000	-11.638000	21.361716	0.000898	20.839809
62.021299	-2.999100	3.853400	-11.556000	21.359894	0.000901	20.837038
63.018620	-3.004200	3.852500	-11.571000	21.367033	0.000898	20.836594
64.017460	-2.986500	3.853400	-11.506000	21.365759	0.000898	20.809716
65.020392	-3.024300	3.850300	-11.642000	21.381256	0.000898	20.811944
66.016547	-3.001800	3.851900	-11.562000	21.386617	0.000899	20.825842
67.026370	-3.010300	3.850900	-11.591000	21.385274	0.000900	20.815965
68.018017	-2.997300	3.852200	-11.544000	21.380535	0.000897	20.833508
69.019913	-3.015900	3.849500	-11.608000	21.396777	0.000899	20.822732
70.021118	-2.991000	3.851000	-11.517000	21.389994	0.000899	20.817842
71.018782	-3.026800	3.849000	-11.649000	21.413018	0.000899	20.812903
72.024346	-3.014100	3.850400	-11.604000	21.416188	0.000899	20.802798
73.018464	-2.992000	3.850500	-11.520000	21.446172	0.000898	20.818100
74.023201	-3.005800	3.848000	-11.565000	21.440806	0.000899	20.800403
75.018046	-3.000300	3.849900	-11.550000	21.448941	0.000900	20.815655
76.021623	-2.981100	3.850100	-11.475000	21.463957	0.000899	20.818352
77.021880	-2.996800	3.849400	-11.535000	21.466149	0.000899	20.799208
78.022716	-3.002400	3.846700	-11.548000	21.476002	0.000899	20.812859
79.022774	-3.003900	3.847800	-11.555000	21.484980	0.000897	20.800033
80.022174	-2.985900	3.846800	-11.485000	21.505036	0.000900	20.809669
81.024754	-2.992200	3.847900	-11.513000	21.513714	0.000900	20.799386
82.021390	-3.000000	3.848000	-11.542000	21.529652	0.000900	20.802532
83.022433	-2.994500	3.846800	-11.518000	21.528157	0.000900	20.812890
84.031249	-3.001500	3.846700	-11.546000	21.533216	0.000898	20.811788
85.019754	-2.994900	3.848000	-11.523000	21.547782	0.000901	20.816406
86.019363	-2.995900	3.847000	-11.524000	21.549757	0.000898	20.806528
87.024580	-2.996100	3.847300	-11.526000	21.567209	0.000901	20.809768
88.027361	-2.984300	3.845100	-11.474000	21.580531	0.000900	20.800340
89.032934	-3.010000	3.845200	-11.572000	21.566607	0.000901	20.814381
90.023184	-2.980100	3.846100	-11.461000	21.609454	0.000899	20.816480
91.019361	-3.011000	3.843600	-11.571000	21.595160	0.000900	20.808814
92.030186	-2.999100	3.843900	-11.527000	21.606704	0.000899	20.803771
93.021899	-3.006600	3.844400	-11.557000	21.605811	0.000901	20.810464
94.022677	-2.989800	3.844200	-11.492000	21.618821	0.000901	20.792663
95.021269	-2.988200	3.845100	-11.489000	21.629897	0.000899	20.805643
96.025621	-2.989900	3.843600	-11.491000	21.655082	0.000901	20.812355
97.023561	-3.006500	3.842100	-11.551000	21.643459	0.000901	20.802620
98.026409	-2.995400	3.843300	-11.511000	21.650038	0.000900	20.807781
99.021323	-3.005100	3.841900	-11.545000	21.681284	0.000900	20.795903
100.023266	-2.988600	3.842800	-11.483000	21.681708	0.000902	20.792534
101.022429	-2.998300	3.841900	-11.518000	21.690508	0.000902	20.793280
102.025908	-3.004200	3.841900	-11.541000	21.684378	0.000902	20.789042
103.029014	-2.998500	3.841100	-11.515000	21.710708	0.000902	20.818237
104.022312	-2.984800	3.843600	-11.471000	21.706592	0.000900	20.817911
105.029355	-2.980800	3.842500	-11.452000	21.685197	0.000900	20.809302
106.023361	-2.986700	3.841100	-11.471000	21.692205	0.000899	20.779332
107.026541	-2.995500	3.841400	-11.505000	21.696218	0.000900	20.808951
108.026025	-3.020800	3.839800	-11.598000	21.690162	0.000901	20.796727
109.030828	-3.016500	3.838900	-11.577000	21.704702	0.000904	20.797528
110.028131	-2.994000	3.841300	-11.500000	21.737294	0.000901	20.795058
111.027711	-2.991400	3.840600	-11.487000	21.735552	0.000900	20.768185
112.029456	-3.000000	3.839700	-11.517000	21.740689	0.000902	20.804621
113.028749	-2.994100	3.839400	-11.494000	21.721117	0.000901	20.808740
114.035249	-3.018700	3.837800	-11.583000	21.744134	0.000903	20.812336
115.025370	-3.013400	3.838700	-11.567000	21.753289	0.000902	20.783092
116.032756	-3.008700	3.838600	-11.548000	21.754883	0.000903	20.792274
117.026433	-3.008000	3.838100	-11.544000	21.766480	0.000904	20.791079
118.032726	-3.012700	3.839300	-11.565000	21.767606	0.000904	20.796472
119.030878	-2.990700	3.839000	-11.481000	21.752815	0.000904	20.783566
120.033449	-3.001500	3.837500	-11.517000	21.784404	0.000903	20.799534
121.031358	-2.998200	3.836900	-11.502000	21.781044	0.000906	20.778153
122.031726	-2.996600	3.836500	-11.496000	21.801223	0.000905	20.793134
123.031476	-2.994400	3.836700	-11.487000	21.795982	0.000905	20.788362
124.028919	-2.998700	3.836500	-11.503000	21.790524	0.000907	20.787167
125.030930	-2.989200	3.836000	-11.464000	21.799446	0.000904	20.804157
126.029138	-3.009400	3.834900	-11.539000	21.834428	0.000906	20.785117
127.034713	-3.009000	3.836600	-11.542000	21.834058	0.000907	20.787592
128.029133	-2.987600	3.836600	-11.460000	21.853476	0.000907	20.764827
129.034489	-2.994700	3.834100	-11.480000	21.837098	0.000909	20.784945
130.032490	-3.000200	3.835400	-11.505000	21.859615	0.000908	20.780929
131.039513	-2.985300	3.835100	-11.448000	21.853832	0.000910	20.781779
132.034490	-3.002100	3.834900	-11.511000	21.852953	0.000908	20.793701
133.034189	-3.032600	3.834200	-11.625000	21.878257	0.000909	20.764501
134.031194	-2.994300	3.835900	-11.484000	21.887928	0.000910	20.759957
135.032188	-3.014400	3.833800	-11.553000	21.900545	0.000910	20.765948
136.036190	-2.998700	3.834600	-11.498000	21.895107	0.000910	20.767143
137.031190	-3.004600	3.833000	-11.514000	21.920509	0.000911	20.758904
138.031188	-3.002500	3.833700	-11.510000	21.905099	0.000912	20.777619
139.030190	-2.997300	3.833700	-11.490000	21.916167	0.000911	20.778740
140.030216	-3.023800	3.833000	-11.589000	21.903401	0.000913	20.785877
141.033348	-2.990500	3.834000	-11.464000	21.904749	0.000912	20.783432
142.030140	-3.008500	3.832100	-11.528000	21.919107	0.000913	20.768881
143.033118	-2.970100	3.832100	-11.381000	21.924633	0.000914	20.773938
144.031860	-2.986300	3.831900	-11.442000	21.942811	0.000913	20.772219
146.307650	-3.010600	3.831300	-11.533000	21.951726	0.000913	20.773557
147.311403	-2.997500	3.832400	-11.487000	21.927193	0.000915	20.768914
148.310402	-2.985500	3.832800	-11.442000	21.939435	0.000915	20.764098
149.309149	-2.990100	3.831900	-11.457000	21.956537	0.000916	20.776950
150.310148	-3.006000	3.831900	-11.518000	21.960247	0.000915	20.768336
151.310458	-3.003100	3.831600	-11.506000	21.970687	0.000918	20.785899
152.311456	-2.999500	3.830400	-11.488000	21.973430	0.000917	20.789594
153.318398	-2.995300	3.830300	-11.471000	21.968510	0.000920	20.782298
154.313849	-3.018300	3.829000	-11.556000	21.985316	0.000916	20.773990
155.317622	-2.992400	3.829500	-11.458000	21.996500	0.000917	20.789928
156.314219	-3.002500	3.829500	-11.496000	21.998617	0.000921	20.791573
157.316500	-3.003500	3.829100	-11.499000	22.026834	0.000919	20.784258
158.316932	-2.995100	3.829500	-11.469000	22.021993	0.000922	20.780834
159.319866	-3.013700	3.828000	-11.535000	22.025703	0.000921	20.770323
160.329122	-3.005700	3.828600	-11.506000	22.047668	0.000921	20.773821
161.319174	-3.002400	3.827800	-11.491000	22.038037	0.000922	20.767972
162.319481	-2.990100	3.827100	-11.441000	22.019165	0.000921	20.785590
163.316808	-3.004200	3.827300	-11.497000	22.059740	0.000922	20.760775
164.321340	-3.003200	3.828300	-11.496000	22.058220	0.000925	20.771108
165.316855	-3.003100	3.825700	-11.488000	22.063825	0.000922	20.786676
166.323414	-2.997300	3.826600	-11.468000	22.083638	0.000923	20.761466
167.321368	-3.009600	3.827200	-11.516000	22.081891	0.000926	20.779632
168.320670	-3.004300	3.825800	-11.492000	22.104570	0.000925	20.772939
169.320086	-3.010800	3.825100	-11.515000	22.125157	0.000923	20.764152
170.321445	-3.009600	3.826800	-11.516000	22.120638	0.000925	20.790447
171.329212	-2.990900	3.825700	-11.441000	22.134249	0.000927	20.753813
172.320387	-3.001000	3.825200	-11.479000	22.132902	0.000926	20.768587
173.321422	-2.990400	3.824900	-11.437000	22.103183	0.000927	20.771550
174.319862	-2.993400	3.826500	-11.453000	22.106972	0.000929	20.780085
175.325305	-2.988900	3.825800	-11.433000	22.104820	0.000926	20.749481
176.325527	-2.992000	3.824700	-11.443000	22.129226	0.000928	20.768699
177.326058	-3.007900	3.825200	-11.505000	22.150705	0.000925	20.766970
178.321583	-2.995000	3.824500	-11.454000	22.161746	0.000926	20.766644
179.323888	-2.985100	3.826000	-11.419000	22.193194	0.000928	20.773000
180.323954	-3.013800	3.824800	-11.526000	22.204407	0.000927	20.779011
181.322504	-3.015300	3.823400	-11.528000	22.201234	0.000929	20.772516
182.321751	-3.024600	3.822900	-11.561000	22.202901	0.000929	20.769917
183.325449	-2.993400	3.824000	-11.446000	22.209107	0.000931	20.784666
184.324398	-2.970200	3.823700	-11.356000	22.210868	0.000931	20.773152
185.326479	-3.002800	3.822800	-11.478000	22.205658	0.000931	20.778368
186.330389	-2.996100	3.822600	-11.452000	22.219436	0.000933	20.774144
187.329396	-2.978300	3.823000	-11.384000	22.204977	0.000934	20.766306
188.327985	-2.995000	3.822700	-11.448000	22.210354	0.000931	20.785914
189.327657	-2.993700	3.822400	-11.442000	22.211449	0.000933	20.783217
190.327065	-2.984800	3.822600	-11.408000	22.227495	0.000933	20.791697
191.328723	-2.995100	3.821400	-11.444000	22.225847	0.000935	20.777245
192.326168	-3.006700	3.821100	-11.488000	22.241341	0.000933	20.773792
193.328776	-3.011500	3.820500	-11.504000	22.241366	0.000936	20.780455
194.328042	-2.963200	3.821300	-11.322000	22.246619	0.000936	20.774809
195.330214	-3.006100	3.820200	-11.482000	22.251744	0.000934	20.780888
196.331629	-3.020200	3.819800	-11.536000	22.281331	0.000936	20.768313
197.338944	-3.006400	3.819800	-11.483000	22.276738	0.000938	20.770827
198.334668	-3.014000	3.819700	-11.511000	22.275016	0.000937	20.787121
199.330905	-3.018800	3.819100	-11.527000	22.271849	0.000937	20.780631
200.327933	-3.008500	3.819100	-11.489000	22.283431	0.000936	20.769468
201.341895	-3.014000	3.818600	-11.508000	22.267804	0.000937	20.787960
202.332196	-2.998400	3.818800	-11.450000	22.296310	0.000939	20.793270
203.341493	-2.997800	3.818800	-11.446000	22.288131	0.000938	20.792193
204.332583	-3.013600	3.819500	-11.509000	22.290356	0.000938	20.794895
205.335001	-3.007800	3.819000	-11.484000	22.304907	0.000940	20.776274
206.336848	-2.996000	3.818300	-11.439000	22.310984	0.000940	20.788049
207.336558	-2.991800	3.819500	-11.427000	22.339144	0.000940	20.787797
208.337033	-3.042200	3.817800	-11.612000	22.334778	0.000941	20.768252
209.335576	-2.996300	3.816900	-11.436000	22.351554	0.000940	20.783628
210.337654	-3.003200	3.816300	-11.460000	22.370519	0.000943	20.785075
211.334245	-3.007800	3.818000	-11.482000	22.358528	0.000942	20.785396
212.339112	-2.993300	3.816500	-11.423000	22.360047	0.000942	20.791185
213.334337	-2.996000	3.817000	-11.435000	22.378795	0.000942	20.752111
214.336054	-2.988800	3.817500	-11.408000	22.379397	0.000943	20.782586
215.337729	-2.977500	3.817700	-11.366000	22.387934	0.000944	20.795403
216.337654	-3.014900	3.815100	-11.501000	22.373557	0.000946	20.771522
217.344262	-2.990600	3.815400	-11.409000	22.385819	0.000945	20.784749
218.338545	-2.980100	3.815900	-11.370000	22.409444	0.000946	20.795605
219.339421	-2.984800	3.815500	-11.387000	22.428255	0.000946	20.779830
220.340824	-3.007300	3.813000	-11.465000	22.430923	0.000946	20.769699
221.346829	-3.016700	3.813700	-11.503000	22.456091	0.000948	20.766454
222.337191	-2.994000	3.813800	-11.417000	22.440037	0.000948	20.792103
223.341121	-3.013100	3.813500	-11.488000	22.469945	0.000949	20.799295
224.344677	-3.006200	3.814700	-11.467000	22.470837	0.000948	20.799240
225.342749	-2.979800	3.815200	-11.367000	22.482397	0.000950	20.774307
226.342367	-3.005900	3.813800	-11.462000	22.490545	0.000951	20.796217
227.339193	-3.032900	3.811500	-11.559000	22.518276	0.000952	20.791747
228.341700	-3.011500	3.813000	-11.481000	22.516579	0.000952	20.794789
229.338210	-3.015600	3.812100	-11.495000	22.514434	0.000951	20.789796
230.343004	-3.020300	3.811900	-11.511000	22.529929	0.000953	20.776391
231.340626	-3.003700	3.813700	-11.454000	22.515553	0.000952	20.805616
232.341557	-3.018400	3.812200	-11.506000	22.514078	0.000952	20.791337
233.337067	-3.018900	3.811100	-11.503000	22.532537	0.000953	20.787064
234.339476	-3.008400	3.810800	-11.463000	22.519374	0.000955	20.810865
235.338560	-3.001300	3.811500	-11.439000	22.550572	0.000955	20.779996
236.339126	-3.002100	3.810900	-11.440000	22.541172	0.000956	20.785280
237.339512	-2.985100	3.812400	-11.379000	22.531230	0.000957	20.806617
238.337380	-2.996500	3.811600	-11.420000	22.543411	0.000956	20.795109
239.342453	-3.010400	3.811500	-11.473000	22.571540	0.000957	20.796255
240.341105	-3.011700	3.810500	-11.474000	22.558684	0.000959	20.787646
241.344480	-3.002500	3.810000	-11.438000	22.579282	0.000957	20.791681
242.341383	-3.009500	3.810700	-11.468000	22.609679	0.000959	20.785616
243.344752	-2.996700	3.811000	-11.420000	22.632925	0.000961	20.791829
244.346132	-3.005700	3.810000	-11.452000	22.632170	0.000962	20.795340
245.346632	-2.991300	3.809500	-11.394000	22.653946	0.000959	20.813832
246.346896	-3.000300	3.810500	-11.429000	22.667792	0.000960	20.803993
247.344881	-3.001900	3.808300	-11.431000	22.651973	0.000963	20.801899
248.347395	-3.013600	3.808600	-11.476000	22.689266	0.000962	20.807011
249.346371	-3.020700	3.806400	-11.498000	22.679941	0.000960	20.797671
250.352844	-3.004300	3.808800	-11.441000	22.674389	0.000963	20.807757
251.348993	-2.997900	3.808700	-11.416000	22.687811	0.000962	20.802235
252.346636	-2.997300	3.806900	-11.409000	22.675479	0.000963	20.785140
253.347595	-3.005800	3.806500	-11.439000	22.698225	0.000963	20.817407
254.347830	-3.003400	3.806800	-11.432000	22.670015	0.000963	20.825186
255.351611	-2.985100	3.807400	-11.364000	22.701731	0.000963	20.806694
256.349389	-3.004700	3.805200	-11.433000	22.693432	0.000964	20.811184
257.345624	-3.020200	3.806900	-11.497000	22.692160	0.000961	20.812280
258.345746	-3.028800	3.804200	-11.521000	22.702973	0.000965	20.806516
259.346512	-3.021800	3.804500	-11.495000	22.694270	0.000963	20.824825
260.345022	-3.013200	3.805100	-11.464000	22.722124	0.000966	20.810527
261.351820	-2.998100	3.805300	-11.408000	22.737967	0.000967	20.833034
262.345028	-3.004500	3.804500	-11.430000	22.744465	0.000970	20.822000
263.345552	-2.967500	3.805000	-11.291000	22.745693	0.000967	20.812799
264.346977	-3.003300	3.804600	-11.425000	22.747478	0.000967	20.825966
265.347683	-3.021400	3.804400	-11.494000	22.732030	0.000968	20.822819
266.352686	-3.024500	3.804200	-11.505000	22.723184	0.000969	20.821071
267.347949	-3.004700	3.804900	-11.432000	22.729989	0.000970	20.833102
268.354043	-3.010600	3.804100	-11.451000	22.765711	0.000970	20.829057
269.347226	-2.997700	3.802200	-11.397000	22.778886	0.000972	20.826608
270.347861	-2.998700	3.803600	-11.405000	22.775572	0.000971	20.839883
271.351536	-3.001300	3.803900	-11.413000	22.797316	0.000973	20.811879
272.352758	-2.997800	3.803000	-11.400000	22.819981	0.000973	20.798074
273.349837	-2.998800	3.802900	-11.403000	22.820252	0.000974	20.817312
274.352289	-2.996100	3.803000	-11.394000	22.840081	0.000973	20.831487
275.355631	-2.981000	3.802600	-11.333000	22.836763	0.000975	20.824844
276.349277	-2.988800	3.802200	-11.363000	22.839075	0.000975	20.803927
277.352162	-3.000900	3.801900	-11.408000	22.847466	0.000976	20.813281
278.348816	-3.004900	3.800800	-11.418000	22.864554	0.000974	20.810012
279.354993	-2.999600	3.802100	-11.404000	22.870377	0.000976	20.840026
280.350673	-3.006900	3.800200	-11.426000	22.893193	0.000974	20.814047
281.351764	-2.998100	3.799800	-11.391000	22.886266	0.000975	20.823702
282.367300	-3.005700	3.800700	-11.423000	22.896003	0.000978	20.832034
283.354799	-2.991500	3.800700	-11.369000	22.887829	0.000976	20.798241
284.359284	-3.014800	3.799700	-11.455000	22.903817	0.000977	20.838440
285.355460	-3.014300	3.799100	-11.450000	22.898335	0.000980	20.831525
286.356623	-2.984600	3.798800	-11.336000	22.928047	0.000977	20.841378
287.356537	-2.986800	3.800300	-11.350000	22.916812	0.000979	20.829174
288.363051	-2.996100	3.799500	-11.382000	22.929738	0.000977	20.825529
289.358179	-2.999500	3.799300	-11.394000	22.946298	0.000980	20.811774
290.357338	-2.995800	3.798900	-11.380000	22.930088	0.000981	20.821139
291.355320	-3.005000	3.798600	-11.414000	22.939879	0.000980	20.843275
292.354067	-2.990500	3.799500	-11.361000	22.921791	0.000980	20.843645
293.358783	-2.991800	3.798200	-11.362000	22.956906	0.000981	20.844213
294.362670	-3.009700	3.797400	-11.429000	22.969665	0.000981	20.836607
295.359096	-3.008400	3.796300	-11.420000	22.964232	0.000982	20.825949
296.359777	-3.000300	3.797500	-11.393000	22.983320	0.000982	20.826107
297.361921	-3.017000	3.795500	-11.450000	22.981269	0.000982	20.846337
298.362615	-2.997900	3.796700	-11.380000	22.990862	0.000984	20.835086
299.360903	-2.993500	3.795800	-11.360000	23.003965	0.000981	20.834938
300.357652	-3.009700	3.794500	-11.419000	22.996073	0.000983	20.845996
301.362554	-3.007600	3.794400	-11.411000	23.025438	0.000983	20.852659
302.357801	-2.981200	3.797100	-11.319000	23.010270	0.000986	20.837936
303.360212	-3.023000	3.794400	-11.470000	23.033157	0.000984	20.850436
304.360052	-3.020600	3.793500	-11.458000	23.017078	0.000986	20.822946
305.363524	-2.998500	3.794700	-11.377000	22.988802	0.000987	20.842505
306.360394	-2.998500	3.793600	-11.374000	23.001007	0.000986	20.833397
307.363313	-2.990300	3.794800	-11.346000	23.005193	0.000988	20.821944
308.364756	-3.020000	3.793400	-11.454000	23.023974	0.000989	20.845503
309.363454	-3.010000	3.792800	-11.416000	23.004897	0.000988	20.859104
310.363000	-3.003000	3.793400	-11.390000	23.010502	0.000988	20.848125
311.364249	-3.008400	3.792500	-11.408000	23.020193	0.000989	20.829387
312.365587	-3.001300	3.792900	-11.382000	23.025798	0.000990	20.853494
313.366317	-2.999600	3.791100	-11.371000	23.055458	0.000990	20.847177
314.367715	-2.978500	3.792500	-11.295000	23.080691	0.000991	20.844011
315.366002	-3.003800	3.791200	-11.385000	23.091422	0.000991	20.825367
316.370183	-3.023200	3.791500	-11.461000	23.108309	0.000993	20.853667
317.369122	-2.993500	3.790700	-11.347000	23.120538	0.000993	20.852644
318.368078	-2.973200	3.792200	-11.274000	23.123076	0.000994	20.843809
319.363698	-3.009100	3.791500	-11.406000	23.107407	0.000993	20.840909
320.394460	-2.992400	3.789600	-11.339000	23.116624	0.000993	20.850619
321.368313	-3.019900	3.789500	-11.443000	23.089869	0.000994	20.827604
322.369360	-3.011300	3.790100	-11.412000	23.114332	0.000996	20.854012
323.366848	-3.002500	3.790200	-11.379000	23.102621	0.000995	20.842751
324.367802	-3.004000	3.788100	-11.379000	23.120543	0.000998	20.858812
325.369252	-3.013100	3.788900	-11.415000	23.138800	0.000996	20.848658
326.365223	-2.984600	3.789700	-11.309000	23.136532	0.000997	20.869619
327.369466	-2.987700	3.788600	-11.318000	23.144108	0.000996	20.858719
328.365073	-2.995200	3.787800	-11.343000	23.167712	0.000996	20.862457
329.366403	-3.001100	3.787900	-11.367000	23.177200	0.000998	20.871016
330.366500	-2.964300	3.789400	-11.232000	23.167658	0.000999	20.855291
331.366648	-3.007100	3.788300	-11.390000	23.207950	0.001000	20.868641
332.370112	-3.007700	3.787200	-11.389000	23.175948	0.001000	20.860279
333.368250	-3.001600	3.787800	-11.368000	23.183967	0.000999	20.847453
334.371034	-3.007500	3.786700	-11.388000	23.200449	0.001002	20.869658
335.368378	-3.024300	3.785000	-11.446000	23.216132	0.001001	20.849339
336.378409	-3.013900	3.785100	-11.407000	23.223850	0.001001	20.866082
337.369558	-2.986100	3.787200	-11.307000	23.229927	0.001000	20.868379
338.371504	-2.988600	3.785200	-11.311000	23.246905	0.001002	20.861686
339.371813	-2.990200	3.786000	-11.320000	23.257314	0.001002	20.868798
340.368756	-2.993300	3.784800	-11.329000	23.263189	0.001004	20.859987
341.370646	-3.004300	3.783900	-11.366000	23.257334	0.001003	20.858861
342.368897	-3.014500	3.784000	-11.406000	23.254968	0.001003	20.878300
343.377850	-2.992500	3.785300	-11.325000	23.267964	0.001003	20.875678
344.372310	-2.996000	3.783000	-11.333000	23.274307	0.001003	20.859276
345.371321	-3.027600	3.781700	-11.449000	23.274810	0.001001	20.885857
346.374109	-2.998200	3.784300	-11.345000	23.274706	0.001003	20.865840
347.377348	-2.994800	3.782900	-11.328000	23.282079	0.001003	20.865168
348.371665	-3.003600	3.783700	-11.362000	23.301201	0.001002	20.878641
349.375728	-2.990800	3.784300	-11.316000	23.289743	0.001002	20.874744
350.374397	-3.009500	3.782800	-11.382000	23.294873	0.001004	20.876093
351.373938	-2.980300	3.782800	-11.272000	23.302669	0.001004	20.882483
352.378118	-3.026400	3.781500	-11.444000	23.306942	0.001004	20.882024
353.371994	-2.998500	3.780600	-11.335000	23.286253	0.001003	20.871722
354.376567	-2.988800	3.783100	-11.306000	23.285006	0.001005	20.874739
355.374912	-3.000900	3.781200	-11.346000	23.273553	0.001004	20.872744
356.376480	-2.997400	3.780300	-11.329000	23.269201	0.001006	20.867909
357.374936	-2.996100	3.780600	-11.325000	23.300925	0.001004	20.887373
358.376729	-3.003100	3.778700	-11.347000	23.301792	0.001005	20.877811
359.377177	-2.998900	3.779400	-11.333000	23.297337	0.001003	20.883303
360.377038	-3.001300	3.779600	-11.343000	23.317483	0.001005	20.877416
361.375124	-2.994100	3.780400	-11.318000	23.334165	0.001006	20.885125
362.378010	-2.997200	3.779100	-11.324000	23.319006	0.001006	20.866615
363.378973	-2.999300	3.778300	-11.331000	23.335161	0.001007	20.880434
364.373993	-2.998300	3.777700	-11.326000	23.368233	0.001005	20.878019
365.376370	-3.000700	3.777700	-11.335000	23.372889	0.001007	20.887427
366.376873	-3.001100	3.778000	-11.337000	23.361338	0.001007	20.869687
367.378263	-2.987600	3.779500	-11.291000	23.375531	0.001007	20.884385
368.381027	-2.984600	3.777800	-11.274000	23.380814	0.001008	20.896317
369.378182	-2.981800	3.777400	-11.262000	23.388412	0.001007	20.881175
370.385311	-3.006600	3.776300	-11.351000	23.402728	0.001007	20.892677
371.381010	-2.996700	3.777400	-11.319000	23.424518	0.001008	20.893655
372.380854	-3.008100	3.775700	-11.357000	23.436473	0.001009	20.888094
373.377195	-3.002400	3.776200	-11.337000	23.470685	0.001009	20.874024
374.382504	-2.990800	3.775600	-11.291000	23.437626	0.001009	20.888302
375.390582	-3.017600	3.774900	-11.391000	23.430456	0.001009	20.887279
376.381914	-2.989700	3.775200	-11.285000	23.414377	0.001010	20.887284
377.377761	-2.991500	3.775000	-11.291000	23.415624	0.001010	20.900861
378.379280	-2.964500	3.776500	-11.194000	23.421996	0.001010	20.905350
379.381654	-2.981400	3.773900	-11.251000	23.438355	0.001012	20.903256
380.380442	-2.981700	3.774600	-11.252000	23.436419	0.001013	20.872868
381.386311	-2.997500	3.773900	-11.311000	23.474016	0.001013	20.904861
382.384127	-2.995100	3.772700	-11.299000	23.467921	0.001012	20.910131
383.382887	-3.020500	3.770900	-11.388000	23.492967	0.001011	20.896831
384.381629	-3.007800	3.771900	-11.343000	23.508705	0.001012	20.892219
385.384256	-2.999800	3.771200	-11.312000	23.508508	0.001013	20.887280
386.379999	-2.993900	3.772000	-11.292000	23.513815	0.001012	20.884539
387.383654	-2.993800	3.772000	-11.291000	23.527133	0.001014	20.907845
388.379821	-2.982600	3.774100	-11.256000	23.536150	0.001013	20.900289
389.381788	-2.990800	3.771200	-11.278000	23.537624	0.001012	20.907929
390.387243	-3.007700	3.770300	-11.339000	23.558264	0.001014	20.921031
391.386774	-2.990000	3.771800	-11.276000	23.563521	0.001014	20.900699
392.384778	-3.006200	3.769400	-11.330000	23.553765	0.001016	20.899454
393.385868	-2.992600	3.771300	-11.285000	23.572138	0.001016	20.909811
394.384005	-3.006400	3.768500	-11.328000	23.553691	0.001015	20.898432
395.390276	-3.023800	3.768900	-11.395000	23.578888	0.001016	20.903776
396.385227	-3.015200	3.768800	-11.363000	23.586412	0.001016	20.901835
397.387873	-2.999100	3.767900	-11.299000	23.579643	0.001016	20.906902
398.389950	-2.990700	3.767800	-11.267000	23.588235	0.001016	20.918834
399.384253	-2.975000	3.769400	-11.213000	23.562043	0.001019	20.904907
400.385920	-3.001400	3.767200	-11.305000	23.572183	0.001017	20.916968
401.389246	-3.002000	3.766700	-11.307000	23.592350	0.001018	20.915372
402.386452	-2.981300	3.768600	-11.234000	23.581200	0.001018	20.915575
403.385899	-2.994300	3.767500	-11.280000	23.604775	0.001018	20.906967
404.386416	-2.980800	3.767600	-11.230000	23.612318	0.001017	20.893667
405.389843	-3.001400	3.766000	-11.301000	23.620433	0.001020	20.916024
406.393187	-3.002100	3.765600	-11.304000	23.615462	0.001019	20.914835
407.389957	-3.000000	3.766300	-11.298000	23.581639	0.001020	20.936876
408.388514	-2.981300	3.767000	-11.229000	23.561817	0.001019	20.922697
409.390187	-2.994700	3.766500	-11.278000	23.574539	0.001020	20.907002
410.389832	-2.998500	3.765300	-11.289000	23.549721	0.001020	20.905357
411.394006	-2.973900	3.765700	-11.197000	23.550372	0.001020	20.902691
412.391912	-3.009200	3.764700	-11.328000	23.578924	0.001023	20.899071
413.391962	-3.010100	3.763800	-11.329000	23.579550	0.001021	20.906336
414.389529	-2.976500	3.764200	-11.203000	23.585699	0.001021	20.907284
415.393161	-3.007600	3.762900	-11.316000	23.612235	0.001021	20.905911
416.395184	-3.010900	3.762800	-11.329000	23.614827	0.001021	20.893337
417.403463	-3.015500	3.761800	-11.342000	23.644072	0.001023	20.897999
418.397381	-2.994200	3.762900	-11.266000	23.659182	0.001021	20.890863
419.391055	-3.003600	3.762000	-11.298000	23.670533	0.001021	20.901293
420.394444	-2.986900	3.761700	-11.235000	23.693732	0.001025	20.904637
421.396293	-3.009700	3.761200	-11.319000	23.677928	0.001023	20.909654
422.393117	-3.008400	3.759500	-11.310000	23.671779	0.001024	20.891638
423.394754	-3.001600	3.761700	-11.291000	23.677903	0.001026	20.883553
424.391530	-3.000000	3.762000	-11.285000	23.678923	0.001024	20.888369
425.397327	-2.983500	3.761800	-11.223000	23.677430	0.001025	20.889243
426.395926	-3.012800	3.760600	-11.329000	23.681509	0.001024	20.883850
427.400835	-3.017200	3.758500	-11.339000	23.670134	0.001025	20.869127
428.394061	-3.002900	3.760200	-11.290000	23.678819	0.001025	20.889213
429.396554	-2.999700	3.759300	-11.276000	23.653428	0.001026	20.906903
430.393453	-3.018300	3.757700	-11.341000	23.659374	0.001026	20.902434
431.398149	-3.002200	3.758700	-11.283000	23.651437	0.001027	20.885944
432.400630	-3.013300	3.758400	-11.325000	23.668685	0.001027	20.872416
433.400580	-2.996100	3.757800	-11.258000	23.689470	0.001027	20.889460
434.403614	-3.000000	3.756900	-11.269000	23.689347	0.001028	20.883173
435.398515	-2.996700	3.758300	-11.261000	23.716999	0.001031	20.871542
436.397829	-3.000400	3.756700	-11.270000	23.712669	0.001028	20.881899
437.396922	-3.008300	3.757400	-11.302000	23.727276	0.001028	20.885637
438.398933	-3.023100	3.757700	-11.359000	23.712713	0.001029	20.870090
439.399571	-3.023800	3.756300	-11.356000	23.731507	0.001028	20.888931
440.396184	-3.016900	3.754400	-11.326000	23.762020	0.001030	20.888704
441.397209	-2.979800	3.755800	-11.190000	23.758710	0.001030	20.897238
442.407745	-2.985600	3.756200	-11.212000	23.761744	0.001030	20.869462
443.404928	-2.997700	3.755600	-11.257000	23.739517	0.001030	20.874204
444.400710	-2.995600	3.755200	-11.248000	23.746286	0.001031	20.861550
445.403502	-3.006900	3.754300	-11.287000	23.767020	0.001030	20.869062
446.399436	-2.992800	3.754000	-11.234000	23.773537	0.001033	20.868959
447.404681	-2.985500	3.753300	-11.204000	23.769577	0.001031	20.878737
448.404041	-3.000500	3.753100	-11.260000	23.782769	0.001032	20.868257
449.403694	-2.998900	3.753000	-11.254000	23.780651	0.001033	20.868504
450.400651	-2.999000	3.753500	-11.256000	23.789537	0.001030	20.870302
451.403990	-2.978200	3.753700	-11.178000	23.814798	0.001031	20.876189
452.401189	-2.985800	3.751300	-11.200000	23.807857	0.001031	20.863066
453.407330	-2.977000	3.753400	-11.173000	23.832812	0.001031	20.862958
454.405967	-3.018700	3.751800	-11.325000	23.838043	0.001031	20.860143
455.408692	-3.003900	3.752300	-11.269000	23.848047	0.001030	20.862587
456.405934	-2.995300	3.752900	-11.240000	23.852776	0.001032	20.847889
457.406441	-2.984500	3.751400	-11.195000	23.874419	0.001032	20.864849
458.415331	-2.993500	3.750900	-11.227000	23.867780	0.001032	20.854873
459.403326	-2.995400	3.750900	-11.234000	23.852017	0.001034	20.871783
460.407525	-2.997600	3.749700	-11.238000	23.861879	0.001033	20.878352
461.403034	-2.991600	3.750300	-11.218000	23.853662	0.001034	20.875329
462.406550	-3.010100	3.749900	-11.287000	23.860682	0.001033	20.858186
463.403774	-3.011400	3.748100	-11.285000	23.875759	0.001032	20.872356
464.413221	-3.003400	3.749300	-11.259000	23.863341	0.001034	20.871284
465.406628	-2.982000	3.749200	-11.180000	23.874813	0.001035	20.866666
466.405761	-3.016900	3.745800	-11.299000	23.858288	0.001034	20.868113
467.409649	-2.994500	3.747600	-11.221000	23.855278	0.001032	20.857984
468.408434	-2.986900	3.747500	-11.192000	23.869563	0.001032	20.856660
469.412374	-2.984000	3.746500	-11.178000	23.912169	0.001034	20.847701
470.408321	-2.986100	3.746700	-11.187000	23.892659	0.001033	20.878396
471.409822	-3.008300	3.745600	-11.266000	23.880409	0.001034	20.846674
472.408030	-3.012600	3.745900	-11.283000	23.875483	0.001033	20.859278
473.410501	-2.997700	3.746000	-11.228000	23.831752	0.001034	20.841982
474.412269	-3.006600	3.745300	-11.259000	23.805748	0.001032	20.856685
475.412660	-3.001000	3.745100	-11.238000	23.795867	0.001033	20.865743
476.408631	-3.007700	3.743800	-11.259000	23.796113	0.001033	20.839912
477.411548	-2.985200	3.745200	-11.178000	23.811049	0.001032	20.845879
478.408516	-2.995800	3.745000	-11.219000	23.827797	0.001034	20.854136
479.407712	-2.992800	3.743900	-11.203000	23.846214	0.001036	20.857431
480.411153	-3.020500	3.741600	-11.300000	23.889492	0.001033	20.849143
481.410632	-3.017100	3.743000	-11.292000	23.879709	0.001034	20.852136
482.417759	-3.018600	3.742600	-11.296000	23.891279	0.001033	20.847143
483.410856	-2.991300	3.743900	-11.196000	23.886384	0.001035	20.855984
484.414617	-2.985700	3.744000	-11.178000	23.861070	0.001033	20.845301
485.416679	-2.978200	3.742000	-11.144000	23.871001	0.001033	20.827758
486.413021	-2.991600	3.742600	-11.194000	23.865528	0.001035	20.842184
487.417218	-2.982900	3.741800	-11.160000	23.858460	0.001033	20.844106
488.424567	-2.984800	3.741100	-11.165000	23.837033	0.001034	20.836371
489.415859	-3.019300	3.740300	-11.292000	23.840594	0.001034	20.831882
490.420469	-2.976000	3.741800	-11.134000	23.811576	0.001035	20.838347
491.420272	-3.009600	3.739200	-11.253000	23.808517	0.001036	20.855194
492.414540	-3.025800	3.738300	-11.310000	23.839727	0.001036	20.842866
493.419729	-2.986900	3.740400	-11.171000	23.824300	0.001037	20.844941
494.416868	-3.007700	3.738900	-11.244000	23.822236	0.001034	20.835285
495.418965	-3.009600	3.739100	-11.252000	23.820866	0.001035	20.838179
496.423053	-3.002600	3.738100	-11.223000	23.869652	0.001037	20.830198
497.424440	-2.983600	3.739100	-11.154000	23.882291	0.001037	20.824380
498.422447	-3.004000	3.738500	-11.229000	23.904165	0.001036	20.833512
499.420784	-3.005700	3.737700	-11.234000	23.910613	0.001036	20.837606
500.421623	-3.020000	3.735900	-11.281000	23.925247	0.001038	20.831418
501.424663	-2.998200	3.737200	-11.203000	23.933383	0.001036	20.838629
502.420335	-2.981900	3.737300	-11.142000	23.959118	0.001035	20.850685
503.417510	-3.019800	3.736600	-11.283000	23.952898	0.001035	20.850136
504.421325	-3.010600	3.735900	-11.246000	23.999929	0.001036	20.856522
505.417772	-2.996300	3.735700	-11.191000	24.000076	0.001035	20.819688
506.420155	-2.996100	3.735000	-11.189000	24.023672	0.001036	20.837661
507.421030	-2.992700	3.734500	-11.176000	24.042308	0.001035	20.834539
508.417108	-2.984500	3.734500	-11.145000	24.056546	0.001035	20.838861
509.419752	-2.993800	3.734700	-11.178000	24.053710	0.001035	20.830801
510.419507	-3.001500	3.734400	-11.207000	24.044057	0.001035	20.845776
511.422870	-3.021600	3.733300	-11.280000	24.051696	0.001035	20.813134
512.421446	-3.002400	3.733500	-11.207000	24.033661	0.001036	20.832505
513.417315	-2.984400	3.733700	-11.142000	24.003426	0.001033	20.814038
514.420354	-2.992600	3.732600	-11.170000	24.016492	0.001036	20.818607
515.424346	-2.990800	3.732200	-11.161000	24.002978	0.001036	20.832080
516.425779	-2.974100	3.732900	-11.101000	24.008908	0.001036	20.824751
517.421661	-3.007100	3.732000	-11.222000	24.027716	0.001035	20.822276
518.425378	-3.000200	3.731600	-11.194000	24.027642	0.001035	20.831211
519.425603	-2.995900	3.732100	-11.181000	24.029085	0.001036	20.828391
520.422048	-2.998200	3.732700	-11.190000	24.057754	0.001036	20.815416
521.423708	-3.014100	3.730800	-11.243000	24.037571	0.001035	20.828366
522.424525	-3.002700	3.731300	-11.202000	24.023161	0.001035	20.829087
523.425950	-3.005300	3.729200	-11.205000	24.033144	0.001034	20.840047
524.420422	-2.998900	3.731200	-11.189000	24.030804	0.001035	20.821106
525.421843	-3.002300	3.729000	-11.195000	24.016645	0.001035	20.820657
526.423656	-3.015600	3.728900	-11.244000	24.012316	0.001034	20.821057
527.430445	-3.009000	3.728300	-11.217000	24.014502	0.001034	20.825146
528.430461	-2.997300	3.729000	-11.176000	24.026623	0.001034	20.813120
529.425333	-2.967900	3.728600	-11.065000	24.012207	0.001034	20.817629
530.422082	-3.012400	3.726300	-11.224000	24.006593	0.001034	20.821481
531.424685	-3.011700	3.727000	-11.224000	24.010572	0.001034	20.805558
532.425042	-2.995500	3.728200	-11.167000	24.002185	0.001033	20.812319
533.426378	-2.995800	3.726900	-11.164000	24.009006	0.001035	20.821531
534.422893	-3.000400	3.727900	-11.183000	23.999432	0.001035	20.805291
535.424129	-3.011000	3.725500	-11.217000	24.042250	0.001037	20.816463
536.422510	-3.012000	3.725300	-11.219000	24.057636	0.001035	20.810556
537.423182	-2.983700	3.725100	-11.113000	24.059748	0.001037	20.841598
538.422907	-2.976100	3.725100	-11.086000	24.087248	0.001034	20.817496
539.424977	-3.006000	3.724700	-11.195000	24.081348	0.001036	20.809208
540.421794	-3.002200	3.725700	-11.185000	24.077517	0.001033	20.812478
541.422663	-2.995100	3.724700	-11.154000	24.034124	0.001035	20.806892
542.431952	-3.010700	3.724700	-11.214000	24.042585	0.001034	20.827231
543.431702	-3.001900	3.724800	-11.180000	24.040473	0.001035	20.791922
544.431682	-2.990700	3.724800	-11.139000	24.026417	0.001035	20.798688
545.426239	-3.000000	3.724100	-11.172000	24.033676	0.001034	20.814029
546.434340	-2.979400	3.724200	-11.094000	24.036099	0.001036	20.809347
547.431602	-3.000000	3.722000	-11.165000	24.022088	0.001035	20.812839
548.427692	-3.005600	3.722600	-11.187000	24.015370	0.001035	20.802309
549.431723	-2.995600	3.722600	-11.151000	24.007387	0.001034	20.794777
550.434638	-3.021500	3.721500	-11.244000	24.007638	0.001034	20.812098
551.431467	-3.013800	3.721500	-11.215000	24.029614	0.001035	20.790989
552.432417	-3.001600	3.722000	-11.169000	24.048727	0.001033	20.801149
553.428306	-3.006900	3.720000	-11.184000	24.069850	0.001036	20.821384
554.429933	-3.018900	3.719400	-11.227000	24.106136	0.001035	20.797558
555.434849	-3.024900	3.719700	-11.249000	24.101132	0.001035	20.814825
556.429991	-2.993600	3.720300	-11.136000	24.099192	0.001034	20.811456
557.432972	-2.971100	3.720900	-11.054000	24.126164	0.001035	20.807214
558.435220	-3.006600	3.719600	-11.182000	24.109401	0.001033	20.816006
559.440201	-3.014600	3.718500	-11.207000	24.112882	0.001034	20.799109
560.437597	-2.983200	3.718600	-11.092000	24.108578	0.001035	20.787206
561.434874	-2.995600	3.717300	-11.134000	24.107037	0.001034	20.790876
562.434013	-3.024700	3.717300	-11.243000	24.132867	0.001034	20.813936
563.436289	-3.011600	3.717400	-11.194000	24.173902	0.001033	20.813843
564.433256	-3.006300	3.718000	-11.176000	24.164748	0.001034	20.782850
565.436728	-2.968900	3.718600	-11.039000	24.177187	0.001032	20.798171
566.441445	-3.021500	3.716100	-11.226000	24.148054	0.001033	20.804513
567.434455	-2.986200	3.717200	-11.099000	24.149975	0.001033	20.788896
568.434104	-3.020700	3.715100	-11.221000	24.160700	0.001032	20.786377
569.434903	-3.003400	3.716200	-11.161000	24.180408	0.001033	20.790970
570.436756	-3.024200	3.714000	-11.232000	24.182673	0.001032	20.789449
571.438236	-3.004300	3.714700	-11.159000	24.182372	0.001034	20.786777
572.439024	-2.983800	3.715500	-11.086000	24.184017	0.001032	20.787953
573.442784	-3.007600	3.714400	-11.171000	24.196062	0.001033	20.787232
574.434491	-3.007700	3.715200	-11.173000	24.201863	0.001033	20.768868
575.437834	-2.998000	3.714600	-11.135000	24.229433	0.001033	20.788936
576.439482	-3.010200	3.713600	-11.178000	24.225996	0.001034	20.780272
577.441466	-3.022300	3.711700	-11.216000	24.205049	0.001033	20.772538
578.445420	-3.023400	3.712000	-11.223000	24.227794	0.001033	20.797249
579.436467	-3.000000	3.712400	-11.136000	24.221023	0.001032	20.760585
580.441584	-2.983500	3.712400	-11.075000	24.240680	0.001032	20.791208
581.441919	-3.001000	3.713000	-11.141000	24.229439	0.001032	20.787993
582.443646	-3.016100	3.712000	-11.195000	24.233422	0.001033	20.781083
583.444330	-3.011600	3.711300	-11.176000	24.250213	0.001033	20.788916
584.442969	-3.006800	3.709900	-11.155000	24.235491	0.001033	20.793589
585.442406	-2.982600	3.710900	-11.067000	24.245743	0.001032	20.778268
586.444119	-2.991700	3.710300	-11.098000	24.259722	0.001031	20.779014
587.444775	-2.987900	3.710300	-11.085000	24.257831	0.001030	20.771427
588.443483	-2.998600	3.710200	-11.125000	24.239770	0.001032	20.762319
589.452891	-2.972100	3.709400	-11.024000	24.225047	0.001030	20.786433
590.447474	-2.999900	3.708500	-11.124000	24.244103	0.001030	20.772830
591.449295	-3.016500	3.709200	-11.188000	24.216041	0.001031	20.775028
592.448238	-2.988300	3.709500	-11.084000	24.204247	0.001031	20.803028
593.453091	-3.006500	3.708400	-11.148000	24.212559	0.001030	20.769640
594.453022	-2.998700	3.706500	-11.112000	24.258885	0.001030	20.786235
595.457670	-2.992600	3.708400	-11.096000	24.257344	0.001032	20.761929
596.450286	-2.993100	3.708200	-11.098000	24.271279	0.001031	20.790132
597.449157	-2.983900	3.709100	-11.065000	24.284662	0.001030	20.790280
598.452480	-2.995300	3.706800	-11.102000	24.329970	0.001030	20.771245
599.448257	-3.003600	3.707600	-11.135000	24.343047	0.001030	20.756388
600.450061	-2.996900	3.706100	-11.106000	24.357513	0.001029	20.778012
601.449308	-3.009400	3.706000	-11.151000	24.348251	0.001032	20.780101
602.452221	-2.991900	3.706300	-11.087000	24.328656	0.001031	20.767556
603.455525	-3.003600	3.706500	-11.131000	24.354106	0.001029	20.757050
604.459017	-2.986800	3.705300	-11.066000	24.352068	0.001029	20.778714
605.454350	-3.016800	3.704400	-11.174000	24.351620	0.001028	20.760246
606.456756	-2.971600	3.705900	-11.012000	24.344284	0.001030	20.769482
607.455897	-2.985400	3.703800	-11.056000	24.358217	0.001030	20.770658
608.456493	-3.019700	3.702600	-11.179000	24.365160	0.001029	20.761501
609.452740	-2.975500	3.702900	-11.017000	24.351679	0.001028	20.764573
610.456857	-3.008200	3.701900	-11.135000	24.378847	0.001027	20.756266
611.456247	-3.029900	3.701800	-11.215000	24.397458	0.001029	20.779678
612.457070	-3.019200	3.701000	-11.174000	24.421291	0.001029	20.784622
613.452610	-3.023100	3.701900	-11.190000	24.397335	0.001029	20.778606
614.459011	-2.963900	3.703600	-10.975000	24.395370	0.001029	20.768574
615.456335	-2.980200	3.702300	-11.033000	24.355555	0.001029	20.762772
616.458876	-3.004800	3.700700	-11.119000	24.321769	0.001026	20.765389
617.465106	-3.001900	3.700500	-11.107000	24.308042	0.001027	20.767741
618.462425	-3.007300	3.701200	-11.129000	24.311007	0.001030	20.758860
619.456842	-2.998000	3.701800	-11.097000	24.319416	0.001027	20.763977
620.456331	-2.995800	3.700700	-11.086000	24.341238	0.001028	20.757892
621.452585	-3.014200	3.699500	-11.149000	24.343749	0.001027	20.756144
622.456426	-2.995000	3.700900	-11.084000	24.342735	0.001027	20.749911
623.456390	-2.995400	3.699400	-11.080000	24.336960	0.001026	20.769248
624.456471	-2.987200	3.699200	-11.050000	24.364674	0.001026	20.766230
625.460448	-3.003200	3.698500	-11.107000	24.341170	0.001027	20.767307
626.455017	-2.985900	3.700000	-11.046000	24.351292	0.001027	20.770823
627.459857	-3.018900	3.697200	-11.160000	24.338776	0.001027	20.772493
628.453841	-3.005900	3.698200	-11.115000	24.338260	0.001028	20.769129
629.453254	-2.993100	3.698100	-11.067000	24.336719	0.001026	20.779438
630.455470	-3.015400	3.696600	-11.146000	24.344158	0.001027	20.756080
631.456618	-2.998500	3.697400	-11.085000	24.361947	0.001027	20.762072
632.458328	-3.005600	3.695600	-11.107000	24.381676	0.001026	20.794665
633.462540	-3.007700	3.695600	-11.115000	24.381503	0.001024	20.762250
634.459798	-3.009900	3.694700	-11.119000	24.394467	0.001025	20.768616
635.454339	-3.011900	3.694900	-11.126000	24.425587	0.001024	20.764275
636.457890	-2.985700	3.695800	-11.033000	24.422278	0.001026	20.788457
637.459473	-2.988300	3.696300	-11.045000	24.417355	0.001024	20.760284
638.457399	-2.994100	3.694700	-11.062000	24.424267	0.001025	20.782392
639.460536	-3.025300	3.693300	-11.172000	24.417902	0.001023	20.751823
640.458736	-2.996800	3.694300	-11.070000	24.414845	0.001026	20.760610
641.462318	-3.013700	3.693300	-11.130000	24.398824	0.001024	20.770617
642.466209	-2.980300	3.694000	-11.008000	24.385270	0.001024	20.774564
643.476021	-2.998100	3.693500	-11.073000	24.401193	0.001023	20.770622
644.464328	-2.985500	3.693500	-11.026000	24.428950	0.001024	20.758165
645.465577	-3.015700	3.691900	-11.132000	24.451163	0.001024	20.792779
646.464953	-3.023800	3.690800	-11.160000	24.433253	0.001023	20.762956
647.467804	-2.997800	3.691300	-11.065000	24.423180	0.001022	20.778456
648.462400	-2.978300	3.691100	-10.992000	24.381667	0.001023	20.780432
649.466044	-2.987600	3.691600	-11.028000	24.353253	0.001024	20.743866
650.462068	-2.985900	3.691000	-11.019000	24.361515	0.001022	20.779182
651.464987	-2.997000	3.691400	-11.062000	24.373307	0.001024	20.762562
652.470852	-3.023600	3.688700	-11.152000	24.363406	0.001023	20.782027
653.465405	-3.015500	3.690500	-11.127000	24.331860	0.001023	20.778357
654.467267	-3.001200	3.688800	-11.069000	24.361810	0.001022	20.748183
655.465432	-2.979600	3.690500	-10.995000	24.367640	0.001024	20.741703
656.465898	-2.984900	3.690200	-11.013000	24.409277	0.001023	20.763085
657.468304	-2.985300	3.688900	-11.011000	24.398135	0.001021	20.783677
658.463541	-2.998700	3.688800	-11.061000	24.452488	0.001022	20.777039
659.462280	-2.984100	3.689600	-11.008000	24.432539	0.001022	20.767931
660.462136	-3.002400	3.688400	-11.073000	24.447712	0.001023	20.769403
661.461872	-2.979400	3.689600	-10.992000	24.446048	0.001022	20.783855
662.461926	-3.008800	3.686700	-11.090000	24.440347	0.001022	20.768652
663.462786	-2.990800	3.689200	-11.033000	24.456367	0.001022	20.759593
664.462323	-3.000100	3.686900	-11.060000	24.480918	0.001021	20.782803
665.467364	-2.975700	3.688100	-10.974000	24.463180	0.001023	20.774964
666.464257	-2.994400	3.685700	-11.035000	24.465347	0.001022	20.794681
667.464603	-2.978700	3.687300	-10.983000	24.441593	0.001023	20.776540
668.469293	-2.985300	3.687200	-11.007000	24.421590	0.001023	20.777335
669.464865	-3.016000	3.685900	-11.115000	24.381809	0.001020	20.772040
670.465547	-2.994700	3.684700	-11.033000	24.402433	0.001022	20.778979
671.471885	-3.016400	3.684400	-11.112000	24.389573	0.001021	20.772242
672.468621	-2.988900	3.683800	-11.009000	24.418896	0.001022	20.779848
673.466064	-2.987200	3.683500	-11.002000	24.415410	0.001022	20.791998
674.472216	-2.996200	3.683400	-11.035000	24.437280	0.001023	20.770790
675.467374	-2.992500	3.683700	-11.022000	24.451354	0.001021	20.786807
676.470160	-2.985400	3.683300	-10.994000	24.488114	0.001020	20.778169
677.471240	-3.002100	3.682500	-11.054000	24.496473	0.001020	20.765692
678.469115	-2.991900	3.681800	-11.014000	24.528408	0.001022	20.785404
679.475222	-2.999900	3.683000	-11.048000	24.540345	0.001020	20.790743
680.474315	-3.008500	3.681700	-11.075000	24.525941	0.001020	20.793361
681.473412	-2.992000	3.681400	-11.013000	24.568222	0.001020	20.774143
682.468202	-2.983700	3.682900	-10.988000	24.550712	0.001021	20.796877
683.472117	-3.030900	3.680300	-11.152000	24.571450	0.001019	20.779279
684.474575	-2.995000	3.680900	-11.021000	24.594109	0.001018	20.771194
685.473976	-3.010200	3.681400	-11.081000	24.595994	0.001021	20.782094
686.473262	-3.032200	3.678200	-11.151000	24.587458	0.001020	20.780642
687.472394	-3.008500	3.678700	-11.067000	24.576412	0.001019	20.773825
688.470135	-3.000300	3.680600	-11.041000	24.560763	0.001018	20.813126
689.472627	-2.989600	3.679500	-10.999000	24.554914	0.001019	20.796352
690.473442	-2.990400	3.680300	-11.004000	24.565478	0.001016	20.791304
691.473277	-3.017500	3.677500	-11.096000	24.579379	0.001017	20.773009
692.473352	-3.017100	3.676700	-11.092000	24.590021	0.001019	20.800757
693.476041	-2.991900	3.678200	-11.003000	24.640603	0.001017	20.791768
694.476652	-3.006500	3.676500	-11.052000	24.649029	0.001016	20.791215
695.481748	-2.994600	3.677000	-11.009000	24.665538	0.001017	20.793555
696.472476	-2.988200	3.676600	-10.986000	24.635862	0.001016	20.803606
697.474869	-2.990000	3.676600	-10.992000	24.665134	0.001017	20.798840
698.474855	-2.989000	3.678100	-10.992000	24.672064	0.001017	20.811009
699.473264	-2.995300	3.675500	-11.006000	24.690394	0.001016	20.799531
700.472599	-3.026900	3.674900	-11.122000	24.711529	0.001015	20.813153
701.475850	-2.990900	3.676700	-10.995000	24.664843	0.001015	20.794280
702.476870	-3.014100	3.674500	-11.074000	24.668096	0.001015	20.813666
703.475507	-2.996700	3.675200	-11.013000	24.655934	0.001015	20.791504
704.479696	-3.019400	3.674900	-11.095000	24.689783	0.001014	20.792754
705.475329	-3.030400	3.673000	-11.129000	24.679584	0.001015	20.805279
706.479794	-3.000200	3.676000	-11.028000	24.681469	0.001012	20.784885
707.477917	-3.001100	3.675000	-11.028000	24.660157	0.001014	20.792897
708.479718	-3.022500	3.671700	-11.096000	24.676591	0.001017	20.802276
709.478898	-2.981100	3.674000	-10.952000	24.681937	0.001014	20.804321
710.473470	-2.986800	3.672500	-10.968000	24.700881	0.001013	20.781605
711.476550	-3.008400	3.671300	-11.043000	24.714136	0.001013	20.792062
712.473884	-3.003800	3.672900	-11.031000	24.717118	0.001013	20.813546
713.476606	-2.996500	3.672700	-11.003000	24.724329	0.001013	20.799445
714.478504	-2.999000	3.672100	-11.011000	24.720071	0.001014	20.806078
715.473223	-2.975000	3.672400	-10.925000	24.680277	0.001014	20.794595
716.485178	-3.001600	3.671600	-11.019000	24.675852	0.001012	20.794896
717.475989	-2.990100	3.672600	-10.980000	24.618316	0.001013	20.791216
718.477076	-2.991200	3.670400	-10.978000	24.660170	0.001012	20.809505
719.476808	-2.996100	3.670400	-10.996000	24.643508	0.001013	20.805115
720.483707	-3.001800	3.670800	-11.018000	24.622392	0.001012	20.806211
721.473881	-3.012700	3.668800	-11.051000	24.616342	0.001012	20.801089
722.477409	-3.001900	3.669600	-11.014000	24.639270	0.001010	20.813189
723.480917	-3.009400	3.669700	-11.042000	24.649660	0.001010	20.814133
724.480919	-2.982500	3.669100	-10.942000	24.633845	0.001009	20.826238
725.482978	-2.989700	3.669000	-10.968000	24.665647	0.001011	20.816424
726.479102	-3.020000	3.667300	-11.073000	24.673907	0.001010	20.820445
727.483550	-3.000700	3.666700	-11.001000	24.682958	0.001010	20.820045
728.482117	-3.009400	3.667200	-11.035000	24.657585	0.001010	20.815446
729.481467	-3.003000	3.666900	-11.010000	24.666814	0.001007	20.825655
730.480839	-2.986700	3.667700	-10.953000	24.694023	0.001007	20.806492
731.478768	-2.988200	3.666900	-10.957000	24.698920	0.001008	20.828001
732.476968	-3.006900	3.666300	-11.023000	24.707696	0.001008	20.827798
733.481309	-3.002000	3.665500	-11.003000	24.728830	0.001008	20.828618
734.479149	-3.005500	3.666300	-11.018000	24.713041	0.001008	20.817990
735.491509	-3.018200	3.664300	-11.058000	24.729352	0.001008	20.826771
736.484591	-2.993700	3.664800	-10.970000	24.724081	0.001008	20.830016
737.486044	-2.997700	3.664800	-10.985000	24.763721	0.001006	20.807208
738.490721	-3.009400	3.665700	-11.031000	24.757923	0.001008	20.819881
739.488095	-2.989800	3.665200	-10.956000	24.761732	0.001006	20.827497
740.484223	-2.987100	3.665000	-10.946000	24.760905	0.001007	20.820503
741.487003	-2.995500	3.663200	-10.972000	24.771477	0.001007	20.842017
742.483858	-2.995400	3.663700	-10.972000	24.773510	0.001007	20.813238
743.484697	-2.990900	3.663100	-10.956000	24.788329	0.001007	20.833325
744.486667	-2.982700	3.663600	-10.926000	24.816775	0.001006	20.814932
745.483571	-3.001200	3.663600	-10.994000	24.826918	0.001005	20.820844
746.487281	-2.985000	3.662800	-10.932000	24.843124	0.001006	20.829521
747.487849	-3.003100	3.661100	-10.994000	24.843571	0.001005	20.831393
748.487514	-2.982400	3.661100	-10.918000	24.835264	0.001004	20.829220
749.488546	-3.016600	3.661200	-11.044000	24.819078	0.001004	20.836209
750.486255	-3.002800	3.660700	-10.991000	24.803408	0.001005	20.836129
751.491285	-3.009000	3.660200	-11.012000	24.807611	0.001002	20.829916
752.486102	-2.973700	3.662800	-10.891000	24.821454	0.001005	20.841913
753.485468	-2.983500	3.659900	-10.918000	24.839260	0.001004	20.839394
754.494765	-3.008400	3.659600	-11.008000	24.866460	0.001005	20.830183
755.486384	-3.007400	3.660600	-11.007000	24.855416	0.001004	20.833798
756.492464	-3.009800	3.659600	-11.013000	24.869117	0.001002	20.845177
757.486586	-3.004200	3.657800	-10.988000	24.865982	0.001002	20.830178
758.496113	-2.995300	3.658500	-10.957000	24.838704	0.001002	20.852111
759.491333	-2.991000	3.660000	-10.945000	24.876248	0.001002	20.846644
760.494684	-3.013800	3.657800	-11.024000	24.860579	0.001002	20.847513
761.490669	-3.001800	3.658500	-10.980000	24.894717	0.001002	20.825826
762.492113	-3.013300	3.658600	-11.023000	24.913392	0.001002	20.848363
763.490165	-3.005000	3.657500	-10.989000	24.946008	0.001002	20.863080
764.489185	-3.011100	3.658100	-11.014000	24.937229	0.001003	20.846209
765.498873	-3.009200	3.656300	-11.001000	24.919425	0.001001	20.855840
766.497725	-2.994000	3.656800	-10.947000	24.933317	0.001000	20.844653
767.496521	-2.993700	3.656300	-10.945000	24.890774	0.000999	20.855533
768.493705	-3.017600	3.654700	-11.027000	24.846085	0.000998	20.822536
769.490359	-2.958900	3.657700	-10.822000	24.866301	0.001000	20.834291
770.495288	-2.983400	3.656800	-10.909000	24.818510	0.000999	20.853182
771.492918	-2.993700	3.655000	-10.940000	24.823998	0.000998	20.855844
772.491009	-3.000800	3.655000	-10.967000	24.823451	0.001000	20.863356
773.490843	-2.991200	3.655400	-10.932000	24.803081	0.000999	20.842914
774.499387	-2.983000	3.654600	-10.901000	24.817132	0.000997	20.853222
775.493104	-2.967600	3.654800	-10.845000	24.825681	0.000999	20.833826
776.497790	-2.988000	3.652600	-10.912000	24.798002	0.000998	20.853463
777.496523	-3.010400	3.653600	-10.998000	24.839800	0.000996	20.865065
778.497107	-3.001300	3.653200	-10.962000	24.825178	0.000995	20.852288
779.498734	-2.990400	3.653600	-10.924000	24.840838	0.000997	20.848090
780.497858	-3.001000	3.652700	-10.959000	24.850110	0.000996	20.871144
781.501054	-2.989200	3.654100	-10.921000	24.859057	0.000995	20.870166
782.495408	-2.988700	3.652700	-10.916000	24.885661	0.000996	20.879323
783.495212	-2.984300	3.653800	-10.903000	24.902387	0.000994	20.878567
784.493978	-3.002000	3.652700	-10.965000	24.914990	0.000996	20.869405
785.494140	-2.999400	3.651700	-10.951000	24.911904	0.000995	20.876739
786.498039	-3.001400	3.651300	-10.958000	24.917199	0.000993	20.860718
787.498784	-2.997100	3.651400	-10.943000	24.889671	0.000994	20.837357
788.495182	-2.999800	3.649900	-10.948000	24.906097	0.000994	20.849102
789.497259	-3.003400	3.649700	-10.960000	24.899562	0.000993	20.857715
790.499409	-2.996800	3.649000	-10.935000	24.901762	0.000994	20.881732
791.500656	-2.991900	3.649600	-10.917000	24.910964	0.000992	20.866788
792.498178	-2.966900	3.650700	-10.831000	24.934934	0.000993	20.860026
793.497600	-3.018900	3.647300	-11.010000	24.946365	0.000990	20.868654
794.504158	-3.006600	3.648600	-10.969000	24.920235	0.000992	20.891738
795.495481	-2.986500	3.648400	-10.896000	24.932587	0.000991	20.879006
796.498308	-3.007900	3.647000	-10.968000	24.948870	0.000990	20.865005
797.502944	-3.006000	3.647000	-10.962000	24.941184	0.000991	20.895220
798.497319	-2.977000	3.648500	-10.861000	24.933133	0.000988	20.868649
799.498040	-3.015600	3.647300	-10.997000	24.942871	0.000990	20.866570
800.500111	-3.017100	3.646200	-11.001000	24.937631	0.000989	20.885491
801.499786	-3.004700	3.646800	-10.957000	24.932882	0.000990	20.885940
802.498941	-2.976700	3.647400	-10.855000	24.927927	0.000988	20.890923
803.499206	-2.999800	3.645500	-10.935000	24.927558	0.000988	20.881070
804.499637	-2.983900	3.645500	-10.876000	24.913055	0.000988	20.888325
805.498197	-2.989000	3.645000	-10.894000	24.921908	0.000987	20.886779
806.499915	-3.004000	3.645100	-10.949000	24.933950	0.000986	20.880374
807.501968	-2.991100	3.645700	-10.903000	24.948565	0.000986	20.879870
808.503567	-2.999000	3.644500	-10.929000	24.936578	0.000987	20.872106
809.502080	-3.010100	3.644200	-10.968000	24.919123	0.000986	20.897259
810.504404	-2.979900	3.645800	-10.863000	24.918331	0.000986	20.882241
811.503333	-3.006900	3.643300	-10.954000	24.901422	0.000986	20.882340
812.501935	-3.010600	3.643400	-10.967000	24.867501	0.000985	20.894286
813.507923	-2.977600	3.645700	-10.854000	24.876452	0.000984	20.905166
814.500710	-3.016800	3.642500	-10.988000	24.905876	0.000985	20.895343
815.509680	-2.972800	3.644300	-10.832000	24.924644	0.000984	20.885732
816.502902	-2.994800	3.642500	-10.908000	24.945332	0.000984	20.886108
817.506874	-2.984000	3.643300	-10.870000	24.954608	0.000982	20.885935
818.507719	-2.998900	3.642500	-10.923000	24.966314	0.000981	20.888676
819.507438	-3.007800	3.642600	-10.955000	24.966442	0.000984	20.902554
820.506807	-2.998600	3.641600	-10.917000	24.963805	0.000981	20.914604
821.507085	-3.011400	3.641200	-10.962000	24.974099	0.000981	20.892696
822.506443	-2.985600	3.641400	-10.870000	24.985082	0.000983	20.902297
823.503505	-3.020300	3.640200	-10.993000	24.972504	0.000982	20.891570
824.518218	-2.990900	3.639800	-10.885000	24.986952	0.000982	20.887580
825.504038	-3.007600	3.640400	-10.947000	24.998860	0.000980	20.904746
826.503449	-2.997900	3.640000	-10.911000	24.984260	0.000980	20.890093
827.509290	-3.007400	3.640400	-10.947000	24.959971	0.000982	20.903171
828.507332	-3.001200	3.640900	-10.926000	24.978321	0.000981	20.908312
829.512049	-2.973600	3.639500	-10.821000	24.948904	0.000979	20.891590
830.509852	-3.005400	3.638400	-10.934000	24.951192	0.000980	20.908110
831.509378	-2.984500	3.639500	-10.861000	24.936701	0.000979	20.922486
832.505240	-3.017700	3.636700	-10.973000	24.953554	0.000979	20.895309
833.506665	-3.010900	3.638000	-10.951000	24.985278	0.000979	20.905813
834.505521	-3.017200	3.637000	-10.972000	25.017774	0.000978	20.907137
835.511853	-2.983300	3.638300	-10.854000	25.044177	0.000977	20.911828
836.509392	-2.987200	3.637700	-10.865000	25.033534	0.000977	20.910154
837.506318	-2.994400	3.637100	-10.890000	25.033308	0.000978	20.905660
838.506667	-3.022900	3.636500	-10.991000	25.040364	0.000977	20.902312
839.507854	-2.996700	3.637700	-10.900000	25.061276	0.000976	20.917137
840.512300	-2.987800	3.636900	-10.866000	25.058264	0.000977	20.906529
841.507468	-3.020300	3.633700	-10.974000	25.040536	0.000975	20.911492
842.510480	-2.986900	3.636300	-10.860000	25.080066	0.000975	20.897595
843.508410	-3.013100	3.634300	-10.949000	25.068100	0.000975	20.889851
844.513325	-3.021500	3.633100	-10.976000	25.094231	0.000973	20.914658
845.518186	-3.010100	3.634300	-10.939000	25.071712	0.000975	20.899166
846.511642	-3.015200	3.633500	-10.955000	25.090344	0.000975	20.895111
847.515825	-3.002300	3.633100	-10.905000	25.086118	0.000975	20.904144
848.512033	-3.006200	3.632200	-10.918000	25.075328	0.000975	20.901373
849.513538	-3.016200	3.632700	-10.956000	25.060188	0.000974	20.900400
850.511874	-3.018000	3.631100	-10.958000	25.016382	0.000974	20.906213
851.515969	-3.009900	3.631700	-10.930000	24.989928	0.000973	20.903368
852.512864	-3.021600	3.633100	-10.977000	24.952654	0.000972	20.901990
853.513772	-3.001900	3.632400	-10.903000	24.926740	0.000974	20.884517
854.514164	-2.999500	3.633300	-10.896000	24.953495	0.000973	20.902361
855.518402	-3.013600	3.632300	-10.946000	24.958362	0.000972	20.889703
856.527600	-3.028400	3.629400	-10.990000	24.970797	0.000971	20.895071
857.513092	-3.018900	3.631300	-10.961000	24.974177	0.000971	20.888982
858.520500	-3.007100	3.630800	-10.918000	24.999036	0.000972	20.886908
859.515737	-3.013800	3.630500	-10.940000	24.971589	0.000971	20.901082
860.518078	-3.002600	3.629200	-10.895000	24.975516	0.000970	20.895066
861.519013	-2.986900	3.630800	-10.844000	24.954204	0.000969	20.883159
862.513909	-2.991700	3.629300	-10.857000	24.963548	0.000970	20.882581
863.514745	-3.014200	3.628600	-10.936000	24.986991	0.000968	20.888093
864.517021	-3.013300	3.628100	-10.931000	25.016185	0.000967	20.884680
865.526152	-2.999700	3.628300	-10.883000	25.054244	0.000970	20.891590
866.519321	-2.980600	3.629400	-10.817000	25.066496	0.000967	20.885396
867.527077	-2.968300	3.630700	-10.775000	25.082088	0.000968	20.869281
868.515996	-2.989600	3.628700	-10.847000	25.064336	0.000969	20.878013
869.520685	-2.999600	3.628000	-10.882000	25.042859	0.000967	20.872575
870.521325	-2.991200	3.627200	-10.849000	25.022616	0.000966	20.877860
871.521164	-2.987100	3.629000	-10.838000	25.010905	0.000966	20.886019
872.523554	-2.992100	3.628800	-10.856000	25.036162	0.000966	20.901413
873.521674	-2.984000	3.626700	-10.820000	25.040940	0.000966	20.893407
874.522744	-3.007300	3.625800	-10.903000	25.091973	0.000966	20.881100
875.521785	-3.027400	3.626800	-10.979000	25.108387	0.000967	20.885248
876.521726	-2.994900	3.627300	-10.863000	25.128913	0.000967	20.883569
877.522105	-3.009000	3.623900	-10.904000	25.115964	0.000965	20.857769
878.528779	-2.993100	3.625800	-10.851000	25.076460	0.000964	20.879752
879.520423	-3.002200	3.625400	-10.883000	25.070742	0.000966	20.888236
880.523144	-2.990800	3.623900	-10.838000	25.055425	0.000964	20.879974
881.522463	-3.004200	3.624100	-10.886000	25.096465	0.000964	20.861903
882.534114	-3.009100	3.624200	-10.904000	25.117740	0.000963	20.887051
883.524180	-2.981200	3.624700	-10.805000	25.151127	0.000961	20.893541
884.525778	-3.004300	3.624100	-10.887000	25.173424	0.000961	20.858080
885.525702	-2.988900	3.623000	-10.828000	25.173375	0.000963	20.853764
886.523803	-2.987200	3.622500	-10.820000	25.197732	0.000963	20.867785
887.523203	-3.005600	3.621300	-10.882000	25.197177	0.000961	20.873865
888.521226	-3.003400	3.621600	-10.876000	25.177320	0.000963	20.879534
889.523925	-3.002400	3.620900	-10.871000	25.168642	0.000962	20.876986
890.522404	-3.007300	3.620700	-10.886000	25.159442	0.000960	20.880552
891.525853	-3.000100	3.621600	-10.863000	25.123866	0.000960	20.852425
892.523932	-2.994900	3.620900	-10.843000	25.148323	0.000961	20.871761
893.528580	-3.002900	3.619100	-10.867000	25.149740	0.000960	20.882192
894.528156	-3.003400	3.620500	-10.873000	25.174423	0.000961	20.871410
895.531412	-2.979700	3.621400	-10.790000	25.217224	0.000960	20.857957
896.529295	-3.011700	3.619100	-10.898000	25.208098	0.000960	20.866141
897.530002	-3.004900	3.620200	-10.875000	25.213791	0.000958	20.844079
898.529725	-3.011300	3.619400	-10.897000	25.229745	0.000959	20.849191
899.529244	-3.000200	3.618900	-10.856000	25.200134	0.000961	20.856920
900.530237	-3.006200	3.618100	-10.876000	25.171870	0.000957	20.861735
901.531263	-2.994400	3.618900	-10.836000	25.176691	0.000959	20.862308
902.531104	-2.976000	3.617600	-10.765000	25.159309	0.000959	20.867618
903.528830	-3.018700	3.617000	-10.918000	25.151703	0.000956	20.865198
904.535553	-2.973200	3.617400	-10.754000	25.187795	0.000955	20.868240
905.530488	-2.997700	3.617900	-10.844000	25.208025	0.000956	20.860575
906.533534	-3.005600	3.615400	-10.866000	25.235737	0.000954	20.854732
907.533606	-3.021700	3.615400	-10.923000	25.264196	0.000954	20.856752
908.530561	-2.987100	3.618000	-10.807000	25.268319	0.000954	20.868477
909.531679	-3.022800	3.614500	-10.925000	25.280770	0.000955	20.855374
910.531834	-3.015300	3.616000	-10.902000	25.277366	0.000953	20.866655
911.534757	-3.004200	3.615100	-10.859000	25.283146	0.000955	20.861553
912.537625	-2.983300	3.614600	-10.783000	25.238060	0.000953	20.864176
913.531892	-3.028400	3.613200	-10.941000	25.257069	0.000951	20.860975
914.532029	-2.986600	3.613500	-10.791000	25.268452	0.000952	20.854387
915.534356	-2.994200	3.613400	-10.817000	25.266012	0.000952	20.848144
916.531958	-3.008500	3.613100	-10.870000	25.264025	0.000952	20.849468
917.531686	-3.010800	3.613100	-10.878000	25.278758	0.000953	20.867105
918.532840	-3.014400	3.612200	-10.888000	25.278316	0.000951	20.866660
919.531121	-2.986500	3.614000	-10.792000	25.297496	0.000951	20.873589
920.533187	-3.019100	3.612600	-10.905000	25.324562	0.000951	20.852876
921.537317	-3.008600	3.612600	-10.868000	25.300359	0.000950	20.837585
922.534374	-3.024700	3.610300	-10.918000	25.278281	0.000950	20.845764
923.533081	-3.013500	3.610900	-10.881000	25.231768	0.000948	20.840317
924.538880	-2.992800	3.610700	-10.804000	25.226952	0.000947	20.839749
925.533061	-3.012600	3.610400	-10.876000	25.234006	0.000948	20.847305
926.543433	-3.026900	3.609600	-10.924000	25.224305	0.000947	20.861747
927.538232	-3.015000	3.609200	-10.880000	25.221752	0.000948	20.851123
928.538229	-2.986800	3.610000	-10.781000	25.271104	0.000946	20.865110
929.537411	-3.016100	3.609500	-10.885000	25.266633	0.000947	20.845448
930.537720	-2.991700	3.610100	-10.799000	25.309160	0.000947	20.870602
931.538615	-3.025700	3.608800	-10.918000	25.286113	0.000945	20.857895
932.537461	-3.011900	3.609500	-10.870000	25.291554	0.000944	20.848185
933.541216	-3.024900	3.608000	-10.913000	25.311728	0.000947	20.851845
934.534864	-3.010100	3.606400	-10.854000	25.341686	0.000946	20.848259
935.538290	-3.010700	3.607400	-10.859000	25.342330	0.000947	20.845587
936.545688	-3.002100	3.608800	-10.833000	25.332482	0.000945	20.844708
937.539499	-2.997600	3.608000	-10.814000	25.354151	0.000946	20.835171
938.540857	-2.992700	3.607900	-10.797000	25.358298	0.000946	20.852611
939.538329	-2.973100	3.607000	-10.721000	25.382902	0.000945	20.864039
940.537557	-2.990700	3.606700	-10.785000	25.371717	0.000943	20.835265
941.549552	-2.994700	3.606900	-10.801000	25.357398	0.000945	20.842698
942.540910	-2.992600	3.606300	-10.791000	25.337535	0.000943	20.831764
943.541430	-2.996200	3.606000	-10.802000	25.331170	0.000943	20.854769
944.544029	-2.991000	3.604800	-10.781000	25.361146	0.000941	20.835083
945.541324	-2.992500	3.604800	-10.786000	25.407389	0.000939	20.827936
946.544504	-2.993300	3.606000	-10.793000	25.400433	0.000940	20.849875
947.546037	-2.998100	3.604400	-10.805000	25.439026	0.000939	20.831255
948.547184	-3.004000	3.603100	-10.823000	25.438298	0.000940	20.853757
949.543769	-2.987400	3.604900	-10.768000	25.444087	0.000939	20.844872
950.543536	-2.987600	3.603100	-10.764000	25.416026	0.000938	20.840403
951.545386	-2.985200	3.603900	-10.757000	25.427733	0.000937	20.843149
952.546720	-2.971100	3.603100	-10.703000	25.429868	0.000938	20.841499
953.546178	-3.006900	3.602600	-10.832000	25.448647	0.000935	20.846132
954.545568	-2.983400	3.603900	-10.751000	25.463412	0.000936	20.849105
955.546788	-3.017200	3.600500	-10.862000	25.428614	0.000936	20.837395
956.545078	-3.011500	3.601400	-10.844000	25.409406	0.000936	20.833281
957.549629	-2.984200	3.600900	-10.744000	25.430522	0.000935	20.825088
958.547117	-2.985300	3.601600	-10.751000	25.453955	0.000935	20.820643
959.544105	-2.983700	3.600100	-10.741000	25.459542	0.000933	20.830995
960.546364	-3.007300	3.599700	-10.824000	25.442322	0.000935	20.824609
961.545854	-2.994000	3.600300	-10.778000	25.436504	0.000933	20.831568
962.548269	-3.008300	3.599400	-10.827000	25.433346	0.000933	20.815595
963.545243	-3.015000	3.598000	-10.847000	25.467117	0.000931	20.844291
964.545728	-3.016800	3.597400	-10.852000	25.491173	0.000933	20.821982
965.546390	-3.018200	3.596900	-10.855000	25.518927	0.000931	20.838473
966.547323	-3.013000	3.597500	-10.837000	25.508909	0.000932	20.843111
967.547162	-2.992900	3.598800	-10.769000	25.492207	0.000931	20.827287
968.549322	-3.003600	3.598400	-10.807000	25.472449	0.000929	20.819775
969.547339	-3.005500	3.597600	-10.811000	25.441635	0.000930	20.825815
970.545586	-3.002800	3.597300	-10.800000	25.457237	0.000928	20.810188
971.546446	-2.984600	3.597800	-10.737000	25.468018	0.000928	20.823859
972.544637	-3.002900	3.596600	-10.798000	25.447095	0.000928	20.809487
973.550799	-2.986700	3.598900	-10.748000	25.439712	0.000928	20.830048
974.551730	-3.020900	3.596800	-10.864000	25.438217	0.000928	20.826650
975.549896	-2.999500	3.595800	-10.784000	25.462873	0.000927	20.811581
976.550713	-2.969500	3.596500	-10.678000	25.476114	0.000926	20.842894
977.549428	-2.990200	3.596900	-10.755000	25.462500	0.000926	20.817844
978.550016	-3.013300	3.593000	-10.826000	25.468132	0.000926	20.818284
979.550126	-3.000400	3.594900	-10.785000	25.458418	0.000926	20.818486
980.551363	-2.994200	3.593900	-10.759000	25.447533	0.000925	20.807082
981.553851	-2.998700	3.592600	-10.771000	25.444744	0.000924	20.800963
982.549455	-3.013900	3.593300	-10.829000	25.458688	0.000922	20.813542
983.549427	-3.012800	3.593100	-10.823000	25.459628	0.000924	20.805951
984.553109	-3.000100	3.592800	-10.778000	25.461546	0.000921	20.825421
985.552127	-3.018200	3.591700	-10.839000	25.463135	0.000921	20.833180
986.553220	-2.987100	3.592800	-10.731000	25.479292	0.000922	20.811947
987.552273	-2.989500	3.592100	-10.737000	25.458315	0.000921	20.813167
988.549293	-2.996400	3.591100	-10.759000	25.442900	0.000922	20.823767
989.556363	-2.996400	3.590800	-10.758000	25.439698	0.000920	20.810120
990.557894	-2.988500	3.592700	-10.735000	25.450784	0.000920	20.798493
991.554576	-2.990400	3.593200	-10.744000	25.440519	0.000920	20.831807
992.553875	-2.996700	3.589800	-10.756000	25.461964	0.000916	20.800711
993.561469	-2.991900	3.591000	-10.744000	25.387633	0.000917	20.820902
994.554717	-2.990600	3.591100	-10.739000	25.348193	0.000918	20.820180
995.559581	-3.011300	3.588300	-10.803000	25.329722	0.000920	20.809695
996.557832	-2.991100	3.589200	-10.735000	25.318664	0.000916	20.813291
997.556987	-2.988000	3.589600	-10.724000	25.314463	0.000918	20.792952
998.552964	-2.994400	3.590100	-10.749000	25.349339	0.000916	20.797624
999.559784	-3.005400	3.588600	-10.783000	25.369517	0.000913	20.811720
1000.555080	-3.006500	3.589900	-10.792000	25.392881	0.000913	20.814792
1001.560278	-3.034600	3.586000	-10.881000	25.408189	0.000914	20.825895
1002.559344	-3.011600	3.586100	-10.799000	25.444774	0.000913	20.803363
1003.558980	-3.008700	3.585700	-10.787000	25.463316	0.000913	20.829095
1004.555818	-2.970500	3.586800	-10.653000	25.481333	0.000914	20.818738
1005.561355	-3.003300	3.584700	-10.765000	25.470197	0.000913	20.796651
1006.559486	-2.998800	3.585900	-10.752000	25.431336	0.000910	20.805990
1007.561945	-3.015600	3.585000	-10.809000	25.446096	0.000910	20.808484
1008.561405	-3.023300	3.584600	-10.836000	25.450100	0.000912	20.821039
1009.561205	-3.017500	3.585500	-10.818000	25.459539	0.000912	20.816293
1010.563493	-2.995300	3.585200	-10.737000	25.431011	0.000913	20.788121
1011.565494	-3.015000	3.583200	-10.802000	25.472834	0.000912	20.802143
1012.560898	-3.013900	3.584800	-10.803000	25.502580	0.000910	20.779383
1013.559713	-3.038700	3.581400	-10.881000	25.520866	0.000908	20.816239
1014.561105	-3.012100	3.583000	-10.792000	25.505113	0.000908	20.785720
1015.560338	-2.997200	3.583800	-10.740000	25.544749	0.000908	20.786644
1016.564252	-3.025800	3.582900	-10.840000	25.550390	0.000908	20.797999
1017.560655	-2.991400	3.583300	-10.719000	25.551949	0.000908	20.797668
1018.562958	-3.007200	3.582300	-10.772000	25.536664	0.000908	20.789430
1019.558109	-3.018200	3.582300	-10.811000	25.580297	0.000905	20.790576
1020.562277	-2.998900	3.581400	-10.739000	25.545536	0.000907	20.792176
1021.565069	-2.981300	3.582000	-10.678000	25.502960	0.000905	20.795886
1022.561172	-2.986600	3.582200	-10.697000	25.492867	0.000904	20.814200
1023.561509	-2.994800	3.579900	-10.720000	25.506260	0.000905	20.797778
1024.563920	-3.006500	3.581400	-10.766000	25.520449	0.000905	20.809182
1025.562694	-2.991400	3.581100	-10.711000	25.550510	0.000905	20.786265
1026.564458	-3.013000	3.580000	-10.785000	25.545119	0.000904	20.797447
1027.568758	-3.007300	3.577600	-10.757000	25.519221	0.000902	20.782818
1028.562599	-3.012800	3.579600	-10.783000	25.515143	0.000901	20.783939
1029.569649	-2.986500	3.579400	-10.689000	25.526578	0.000903	20.796371
1030.564377	-3.000300	3.577900	-10.734000	25.540458	0.000902	20.795137
1031.562244	-2.987400	3.579400	-10.692000	25.539140	0.000901	20.803770
1032.569721	-2.994200	3.578600	-10.714000	25.577678	0.000901	20.801696
1033.563675	-3.008800	3.577900	-10.764000	25.582748	0.000901	20.771226
1034.567524	-2.991900	3.576800	-10.700000	25.566618	0.000901	20.787743
1035.566474	-3.012500	3.577700	-10.777000	25.562619	0.000900	20.783728
1036.566989	-3.007700	3.575600	-10.754000	25.551377	0.000899	20.796145
1037.567592	-2.994300	3.576000	-10.707000	25.593352	0.000898	20.785669
1038.570637	-3.008800	3.575900	-10.758000	25.612881	0.000896	20.780626
1039.565339	-2.996900	3.575000	-10.713000	25.618423	0.000897	20.774339
1040.567280	-2.993700	3.573900	-10.698000	25.657578	0.000896	20.779051
1041.568602	-2.992400	3.576200	-10.701000	25.606168	0.000895	20.783842
1042.568445	-2.997600	3.575400	-10.715000	25.603655	0.000894	20.767567
1043.570571	-2.960800	3.575600	-10.584000	25.572372	0.000894	20.788307
1044.569046	-2.989600	3.575000	-10.687000	25.531822	0.000894	20.784568
1045.569516	-2.987400	3.575300	-10.680000	25.549061	0.000894	20.803302
1046.573941	-2.993700	3.575900	-10.704000	25.555199	0.000893	20.772482
1047.573646	-3.015000	3.573100	-10.770000	25.589590	0.000893	20.756286
1048.568218	-3.008000	3.572600	-10.745000	25.550227	0.000893	20.796412
1049.576768	-3.000600	3.573000	-10.720000	25.547202	0.000893	20.759235
1050.585638	-3.007300	3.572300	-10.742000	25.546327	0.000892	20.760727
1051.569661	-2.999200	3.573100	-10.715000	25.522867	0.000892	20.775574
1052.571068	-2.996400	3.571700	-10.701000	25.512829	0.000893	20.773554
1053.571317	-2.989100	3.572200	-10.676000	25.542023	0.000891	20.777269
1054.575657	-2.969700	3.572400	-10.608000	25.518244	0.000891	20.775199
1055.574156	-3.021700	3.569100	-10.783000	25.511255	0.000892	20.773871
1056.577569	-3.008400	3.569400	-10.737000	25.543135	0.000889	20.768902
1057.573949	-2.997800	3.569200	-10.698000	25.557250	0.000891	20.756524
1058.575820	-2.990800	3.569900	-10.675000	25.543804	0.000889	20.771470
1059.576414	-3.031600	3.567700	-10.815000	25.569147	0.000889	20.776533
1060.578632	-2.985000	3.571100	-10.658000	25.600632	0.000888	20.765953
1061.580585	-2.961300	3.571000	-10.573000	25.625797	0.000889	20.751398
1062.574593	-3.007400	3.568500	-10.731000	25.645424	0.000890	20.765895
1063.573671	-2.987200	3.568600	-10.659000	25.670322	0.000886	20.768616
1064.572460	-2.994900	3.569000	-10.687000	25.673420	0.000887	20.779315
1065.580184	-2.963100	3.567900	-10.571000	25.698539	0.000887	20.765663
1066.574859	-2.993000	3.567200	-10.676000	25.699950	0.000886	20.768029
1067.577907	-3.021600	3.565500	-10.772000	25.688267	0.000885	20.778580
1068.577240	-3.011100	3.566100	-10.737000	25.640192	0.000886	20.762063
1069.578902	-3.003200	3.565100	-10.706000	25.603039	0.000885	20.775483
1070.583670	-3.028700	3.564500	-10.795000	25.612526	0.000883	20.761303
1071.575230	-3.029500	3.565300	-10.800000	25.619804	0.000881	20.770510
1072.578992	-3.009800	3.563900	-10.726000	25.623630	0.000883	20.766292
1073.580398	-2.982200	3.564900	-10.630000	25.663360	0.000881	20.747874
1074.580184	-3.023300	3.562900	-10.769000	25.668721	0.000881	20.772225
1075.577690	-2.985900	3.565300	-10.645000	25.703753	0.000879	20.773746
1076.577610	-2.985500	3.563500	-10.638000	25.717665	0.000878	20.773968
1077.578509	-3.002300	3.563200	-10.697000	25.741563	0.000879	20.742021
1078.578122	-2.983400	3.564800	-10.635000	25.768396	0.000879	20.767078
1079.579469	-2.983900	3.563600	-10.632000	25.774951	0.000878	20.773188
1080.577063	-3.001700	3.561200	-10.688000	25.800535	0.000877	20.793672
1081.582301	-3.004700	3.562800	-10.704000	25.790199	0.000877	20.761004
1082.577004	-3.017300	3.561600	-10.745000	25.783517	0.000877	20.770413
1083.582579	-2.996100	3.561700	-10.671000	25.801651	0.000878	20.780568
1084.581072	-2.998800	3.562500	-10.682000	25.828183	0.000876	20.777822
1085.584085	-3.005400	3.560000	-10.698000	25.800977	0.000876	20.753338
1086.578242	-2.996400	3.560500	-10.668000	25.802197	0.000872	20.773530
1087.585062	-3.003100	3.560700	-10.692000	25.768555	0.000873	20.767238
1088.581556	-3.005400	3.560100	-10.698000	25.755288	0.000872	20.784732
1089.581510	-3.016600	3.558100	-10.731000	25.775385	0.000874	20.762244
1090.581977	-3.004900	3.558900	-10.692000	25.758042	0.000871	20.777067
1091.579876	-3.001400	3.558400	-10.679000	25.747111	0.000871	20.763242
1092.586020	-2.995800	3.557600	-10.656000	25.768801	0.000872	20.770804
1093.583716	-3.005400	3.557500	-10.690000	25.767557	0.000870	20.772874
1094.586194	-3.005400	3.558800	-10.695000	25.765821	0.000867	20.775871
1095.581861	-2.988700	3.557200	-10.629000	25.746590	0.000868	20.757503
1096.583389	-3.008700	3.555300	-10.696000	25.711333	0.000867	20.767134
1097.589183	-2.994300	3.558600	-10.654000	25.681769	0.000866	20.771579
1098.582987	-2.969000	3.557300	-10.560000	25.649741	0.000867	20.765963
1099.587046	-3.005200	3.556200	-10.686000	25.615853	0.000867	20.773654
1100.587759	-3.007800	3.555100	-10.692000	25.629667	0.000864	20.760500
1101.591340	-2.983400	3.555700	-10.607000	25.641523	0.000864	20.765296
1102.583669	-2.981500	3.556500	-10.601000	25.625152	0.000864	20.778726
1103.585397	-3.004300	3.554700	-10.678000	25.618591	0.000864	20.760757
1104.583568	-2.981900	3.555900	-10.603000	25.604526	0.000864	20.794047
1105.587700	-3.007100	3.554700	-10.688000	25.607211	0.000863	20.774458
1106.586537	-2.998500	3.554300	-10.656000	25.620008	0.000860	20.774982
1107.588794	-3.006600	3.552700	-10.680000	25.597449	0.000862	20.778878
1108.589800	-2.993500	3.553700	-10.637000	25.624713	0.000862	20.774492
1109.590828	-2.986500	3.553300	-10.611000	25.605426	0.000861	20.774562
1110.593346	-2.998600	3.553300	-10.653000	25.605406	0.000859	20.784025
1111.588260	-2.980200	3.551600	-10.583000	25.603448	0.000857	20.773998
1112.588251	-3.000300	3.552300	-10.657000	25.641910	0.000860	20.789393
1113.590456	-2.998100	3.552300	-10.649000	25.670245	0.000857	20.756685
1114.592072	-2.997200	3.552000	-10.645000	25.699686	0.000859	20.767764
1115.587867	-3.010100	3.551300	-10.688000	25.702642	0.000856	20.780216
1116.590218	-2.979400	3.551600	-10.580000	25.704756	0.000857	20.776649
1117.590885	-2.992000	3.551100	-10.624000	25.704785	0.000856	20.773360
1118.587934	-2.989400	3.550300	-10.612000	25.720137	0.000854	20.767917
1119.589336	-3.011500	3.548900	-10.686000	25.666846	0.000855	20.786937
1120.591813	-2.998900	3.550600	-10.647000	25.674420	0.000856	20.786483
1121.597140	-2.996700	3.550700	-10.638000	25.664068	0.000854	20.764232
1122.586961	-3.006300	3.548700	-10.668000	25.653809	0.000853	20.783326
1123.594532	-2.993800	3.549200	-10.625000	25.659248	0.000854	20.792582
1124.594535	-3.017400	3.547300	-10.702000	25.658456	0.000853	20.778985
1125.593041	-3.006300	3.547800	-10.664000	25.678186	0.000854	20.772247
1126.591326	-3.032100	3.545400	-10.748000	25.715750	0.000852	20.784373
1127.592328	-3.000700	3.546100	-10.640000	25.737543	0.000851	20.763589
1128.596034	-3.011100	3.546700	-10.679000	25.747313	0.000850	20.758229
1129.592201	-3.000100	3.546800	-10.639000	25.776182	0.000850	20.779167
1130.597541	-2.996100	3.546700	-10.625000	25.788627	0.000849	20.763692
1131.594910	-3.000100	3.546900	-10.640000	25.797891	0.000848	20.768256
1132.593768	-2.984700	3.546900	-10.585000	25.800777	0.000849	20.775897
1133.608441	-3.016300	3.545600	-10.694000	25.833400	0.000847	20.778796
1134.592692	-3.014900	3.545700	-10.688000	25.847654	0.000849	20.762295
1135.599250	-3.038700	3.543100	-10.765000	25.838888	0.000847	20.787153
1136.598552	-3.027300	3.543800	-10.726000	25.862217	0.000846	20.788778
1137.598921	-3.015700	3.542600	-10.682000	25.866510	0.000846	20.790720
1138.593982	-3.005800	3.543700	-10.651000	25.845299	0.000844	20.802129
1139.595838	-3.001200	3.543600	-10.634000	25.861819	0.000846	20.793120
1140.596092	-2.998200	3.542800	-10.621000	25.866790	0.000845	20.787682
1141.599135	-3.003900	3.543000	-10.642000	25.871908	0.000845	20.755838
1142.594172	-3.005400	3.543400	-10.649000	25.843489	0.000842	20.796518
1143.597788	-2.984600	3.543500	-10.574000	25.849100	0.000843	20.774652
1144.599619	-2.988000	3.541700	-10.582000	25.790972	0.000842	20.781221
1145.599614	-2.976400	3.542200	-10.541000	25.760934	0.000842	20.792300
1146.598648	-3.000600	3.541200	-10.625000	25.749186	0.000843	20.785241
1147.597382	-3.002200	3.540900	-10.629000	25.747170	0.000839	20.782268
1148.598926	-2.982700	3.541300	-10.562000	25.748616	0.000841	20.791306
1149.596481	-3.004200	3.540700	-10.634000	25.778276	0.000839	20.787434
1150.596379	-2.976400	3.539700	-10.535000	25.800393	0.000839	20.778830
1151.598915	-3.005100	3.538700	-10.633000	25.830946	0.000838	20.798142
1152.598186	-3.000400	3.537800	-10.613000	25.816014	0.000838	20.781246
1153.600298	-2.973800	3.539300	-10.525000	25.833257	0.000839	20.786713
1154.595829	-2.968700	3.538900	-10.504000	25.797035	0.000837	20.802010
1155.595282	-2.981300	3.538200	-10.547000	25.768265	0.000836	20.784965
1156.597597	-3.005100	3.538100	-10.631000	25.756990	0.000837	20.782648
1157.596140	-3.009200	3.536700	-10.642000	25.754477	0.000834	20.778228
1158.598792	-2.962500	3.538200	-10.480000	25.770428	0.000834	20.780025
1159.599202	-2.983800	3.537100	-10.552000	25.786379	0.000835	20.802212
1160.594271	-3.020400	3.536800	-10.682000	25.820041	0.000835	20.788610
1161.597829	-2.997300	3.535700	-10.597000	25.824466	0.000833	20.783097
1162.602431	-3.002600	3.535600	-10.616000	25.851317	0.000831	20.800113
1163.598486	-3.000900	3.533900	-10.604000	25.848263	0.000834	20.795149
1164.597113	-2.995200	3.533800	-10.583000	25.854075	0.000831	20.797194
1165.599131	-3.007600	3.533700	-10.627000	25.825931	0.000833	20.791682
1166.599745	-3.012700	3.534600	-10.649000	25.810428	0.000830	20.784644
1167.597896	-2.977300	3.536200	-10.527000	25.785956	0.000831	20.788985
1168.598622	-3.031700	3.532500	-10.708000	25.767567	0.000833	20.794221
1169.598557	-2.994600	3.535000	-10.585000	25.754998	0.000829	20.790131
1170.598315	-2.994800	3.532900	-10.579000	25.755869	0.000830	20.788634
1171.599263	-2.980300	3.535000	-10.534000	25.770404	0.000829	20.799441
1172.599540	-3.017900	3.531900	-10.658000	25.756867	0.000829	20.822353
1173.601584	-2.997800	3.532400	-10.588000	25.763544	0.000828	20.784016
1174.599557	-3.004400	3.532300	-10.611000	25.790386	0.000829	20.795805
1175.599607	-3.028700	3.530700	-10.692000	25.759374	0.000828	20.812544
1176.601038	-2.983800	3.531600	-10.537000	25.743605	0.000826	20.810929
1177.600637	-3.000700	3.530700	-10.594000	25.723174	0.000826	20.784243
1178.603011	-3.012600	3.530600	-10.634000	25.756144	0.000828	20.796023
1179.600518	-2.973500	3.531100	-10.499000	25.735772	0.000825	20.780776
1180.604416	-3.009400	3.529700	-10.621000	25.732197	0.000824	20.810376
1181.602977	-2.970200	3.529900	-10.484000	25.710211	0.000822	20.809630
1182.601093	-3.003100	3.529600	-10.599000	25.743998	0.000823	20.798996
1183.601193	-2.991700	3.529400	-10.558000	25.735201	0.000822	20.793954
1184.607132	-3.008900	3.527300	-10.612000	25.737616	0.000822	20.791163
1185.603985	-3.006200	3.528100	-10.605000	25.696521	0.000822	20.799673
1186.603813	-2.996500	3.527800	-10.570000	25.673163	0.000820	20.790911
1187.610618	-2.991600	3.528000	-10.554000	25.672273	0.000821	20.826052
1188.602867	-3.009200	3.526400	-10.611000	25.712301	0.000820	20.805565
1189.606801	-3.001500	3.527300	-10.585000	25.743457	0.000819	20.800823
1190.601622	-2.967900	3.526600	-10.466000	25.754614	0.000819	20.813927
1191.603534	-2.973400	3.527500	-10.487000	25.784579	0.000818	20.819369
1192.604962	-2.999500	3.525000	-10.572000	25.767531	0.000816	20.819789
1193.603892	-2.990900	3.526100	-10.545000	25.776800	0.000818	20.817246
1194.607080	-3.010000	3.524500	-10.608000	25.803337	0.000817	20.815453
1195.616123	-2.996300	3.524500	-10.559000	25.794840	0.000815	20.809289
1196.606031	-3.001300	3.522800	-10.572000	25.813323	0.000814	20.795612
1197.609883	-2.984900	3.523700	-10.515000	25.793375	0.000815	20.806394
1198.614190	-2.995000	3.525200	-10.557000	25.793823	0.000814	20.822016
1199.606609	-2.986700	3.524000	-10.524000	25.752681	0.000814	20.804399
1200.609684	-3.020800	3.522300	-10.638000	25.747685	0.000813	20.819769
1201.612453	-3.007100	3.522000	-10.590000	25.748831	0.000813	20.795316
1202.629615	-3.009400	3.521700	-10.597000	25.754569	0.000812	20.808666
1203.616017	-3.029500	3.520300	-10.663000	25.781623	0.000811	20.817823
1204.610292	-3.009500	3.520400	-10.593000	25.800283	0.000811	20.814282
1205.614939	-3.022500	3.519300	-10.637000	25.833600	0.000810	20.836843
1206.610881	-3.029600	3.519200	-10.659000	25.860927	0.000810	20.809767
1207.614950	-3.000900	3.521000	-10.564000	25.880530	0.000809	20.819502
1208.611975	-3.010700	3.518100	-10.591000	25.887664	0.000809	20.804383
1209.611391	-2.994700	3.519600	-10.539000	25.879861	0.000807	20.816460
1210.609087	-2.992500	3.520200	-10.533000	25.901302	0.000807	20.797222
1211.610231	-3.023300	3.518300	-10.636000	25.899886	0.000807	20.822826
1212.610485	-3.015600	3.518900	-10.609000	25.905358	0.000807	20.811253
1213.612869	-3.006700	3.516600	-10.572000	25.891916	0.000804	20.831888
1214.612277	-3.010400	3.517000	-10.586000	25.900240	0.000805	20.808482
1215.610622	-3.008800	3.516400	-10.580000	25.867008	0.000805	20.809712
1216.615334	-2.988200	3.517800	-10.510000	25.889393	0.000806	20.822242
1217.611075	-2.979400	3.517500	-10.478000	25.884005	0.000803	20.817303
1218.610045	-2.993100	3.515700	-10.522000	25.918710	0.000802	20.821822
1219.609025	-2.992300	3.516100	-10.520000	25.897372	0.000800	20.818404
1220.611532	-2.992700	3.514900	-10.518000	25.840816	0.000801	20.808530
1221.611972	-2.998700	3.514800	-10.539000	25.827506	0.000801	20.823135
1222.610584	-3.005000	3.514600	-10.560000	25.833367	0.000800	20.811953
1223.613013	-3.017100	3.514000	-10.601000	25.859179	0.000801	20.820814
1224.613879	-3.013800	3.515500	-10.594000	25.834118	0.000800	20.830252
1225.611803	-2.957000	3.515300	-10.394000	25.828090	0.000799	20.836049
1226.619766	-2.990300	3.515900	-10.511000	25.802424	0.000797	20.826389
1227.616100	-2.995500	3.514200	-10.525000	25.765880	0.000798	20.821450
1228.613201	-3.017400	3.511300	-10.594000	25.737095	0.000797	20.820037
1229.614950	-3.004900	3.512300	-10.553000	25.713069	0.000798	20.837630
1230.611677	-3.012200	3.512000	-10.577000	25.702905	0.000795	20.808455
1231.613059	-3.005800	3.511800	-10.555000	25.696153	0.000795	20.827277
1232.622252	-2.992800	3.512400	-10.511000	25.725430	0.000796	20.840088
1233.613341	-2.995300	3.511300	-10.516000	25.738323	0.000796	20.814159
1234.619998	-2.995000	3.511200	-10.514000	25.777080	0.000795	20.826536
1235.616337	-3.005300	3.509800	-10.547000	25.798651	0.000795	20.822125
1236.616357	-3.012400	3.511200	-10.575000	25.816494	0.000793	20.822505
1237.617358	-3.006200	3.509500	-10.549000	25.842578	0.000793	20.821681
1238.619795	-2.984100	3.510800	-10.475000	25.868941	0.000793	20.823982
1239.615419	-3.021500	3.507500	-10.595000	25.894606	0.000790	20.826056
1240.613206	-3.008600	3.507300	-10.551000	25.910953	0.000793	20.831099
1241.615597	-2.975700	3.509000	-10.441000	25.890510	0.000792	20.846597
1242.616160	-2.995300	3.507700	-10.504000	25.885918	0.000791	20.821596
1243.618797	-2.990900	3.507300	-10.489000	25.892998	0.000791	20.820173
1244.613513	-2.975800	3.508000	-10.438000	25.892526	0.000791	20.817329
1245.618953	-3.000700	3.505800	-10.518000	25.895313	0.000790	20.833879
1246.616923	-2.967400	3.508600	-10.410000	25.892329	0.000790	20.828510
1247.618318	-3.020500	3.505600	-10.587000	25.891567	0.000789	20.851451
1248.619190	-2.989800	3.505700	-10.479000	25.875564	0.000788	20.826367
1249.618659	-3.011600	3.503900	-10.550000	25.850749	0.000789	20.827517
1250.617556	-3.006200	3.504200	-10.533000	25.879767	0.000788	20.831063
1251.616873	-3.007800	3.504000	-10.539000	25.895539	0.000787	20.829365
1252.618005	-3.003200	3.503300	-10.520000	25.919463	0.000785	20.848182
1253.618624	-3.016200	3.503500	-10.567000	25.937624	0.000787	20.844616
1254.619556	-2.992500	3.504700	-10.488000	25.953646	0.000785	20.846013
1255.623147	-3.017000	3.502600	-10.566000	25.976325	0.000785	20.850305
1256.629419	-2.997100	3.502700	-10.497000	25.973567	0.000783	20.829518
1257.625085	-2.995600	3.501700	-10.488000	25.967780	0.000784	20.837928
1258.623908	-3.006800	3.501100	-10.526000	25.943514	0.000785	20.847214
1259.626046	-2.988800	3.502100	-10.466000	25.964580	0.000784	20.847515
1260.623143	-3.008800	3.501400	-10.534000	25.979751	0.000781	20.857067
1261.624285	-2.992600	3.500800	-10.475000	25.945229	0.000784	20.838032
1262.623888	-3.011900	3.498400	-10.536000	25.909207	0.000782	20.862534
1263.627741	-3.001100	3.498900	-10.500000	25.914699	0.000783	20.833913
1264.634665	-2.983900	3.499000	-10.440000	25.905579	0.000781	20.837079
1265.632028	-3.002700	3.497800	-10.501000	25.919050	0.000781	20.859620
1266.630977	-2.997500	3.498100	-10.485000	25.952855	0.000781	20.842848
1267.628348	-2.993000	3.498000	-10.468000	25.964182	0.000779	20.849960
1268.629031	-2.971800	3.499100	-10.396000	25.975258	0.000779	20.859190
1269.629806	-2.981100	3.496600	-10.423000	25.990242	0.000779	20.842477
1270.632748	-2.988300	3.497400	-10.450000	25.991510	0.000778	20.855604
1271.629094	-3.001800	3.496900	-10.497000	25.955617	0.000777	20.856054
1272.629549	-2.986100	3.496700	-10.439000	25.931699	0.000779	20.833923
1273.626454	-2.995500	3.495000	-10.468000	25.944212	0.000776	20.865932
1274.629714	-2.990900	3.495600	-10.454000	25.926301	0.000776	20.845569
1275.631803	-2.984800	3.496800	-10.436000	25.916267	0.000775	20.854454
1276.629546	-2.997500	3.493600	-10.471000	25.913184	0.000775	20.847564
1277.630176	-2.987200	3.494400	-10.437000	25.893440	0.000774	20.869453
1278.638892	-3.012400	3.492900	-10.521000	25.868252	0.000775	20.846996
1279.631045	-3.000300	3.494100	-10.482000	25.858684	0.000774	20.859669
1280.631821	-2.997100	3.493400	-10.468000	25.852577	0.000772	20.868707
1281.627855	-3.004000	3.492400	-10.491000	25.866339	0.000771	20.854083
1282.628162	-2.996300	3.492200	-10.463000	25.870120	0.000771	20.840812
1283.627488	-2.982600	3.492900	-10.417000	25.879506	0.000771	20.871577
1284.629698	-3.003400	3.492100	-10.486000	25.923602	0.000769	20.866089
1285.632456	-3.020300	3.491400	-10.543000	25.900204	0.000768	20.872455
1286.632377	-3.019000	3.490900	-10.538000	25.924551	0.000772	20.860879
1287.635684	-2.985800	3.492300	-10.425000	25.959673	0.000768	20.866292
1288.633843	-3.000700	3.490600	-10.473000	25.987375	0.000770	20.855718
1289.635173	-3.015500	3.488700	-10.517000	25.996986	0.000770	20.857313
1290.639160	-3.018600	3.489800	-10.533000	25.979873	0.000767	20.874732
1291.634346	-2.995000	3.490300	-10.452000	25.958340	0.000766	20.882496
1292.630950	-2.997000	3.489200	-10.456000	25.938641	0.000766	20.875981
1293.630752	-3.006000	3.489400	-10.488000	25.973020	0.000764	20.868321
1294.633827	-3.006400	3.487400	-10.483000	25.955907	0.000765	20.868672
1295.632782	-2.998400	3.488200	-10.457000	25.947711	0.000767	20.873240
1296.635616	-3.002800	3.487300	-10.470000	25.945524	0.000763	20.862508
1297.637534	-3.008600	3.486400	-10.488000	25.967509	0.000765	20.867526
1298.635787	-2.995200	3.486400	-10.442000	25.990959	0.000763	20.887291
1299.638457	-2.990400	3.486100	-10.423000	25.997714	0.000763	20.882698
1300.635486	-3.021000	3.484800	-10.527000	25.990831	0.000762	20.863931
1301.636374	-3.015800	3.485000	-10.509000	25.973718	0.000762	20.868548
1302.632941	-3.017400	3.486200	-10.518000	25.990335	0.000761	20.889509
1303.633832	-3.006900	3.485500	-10.479000	26.022623	0.000761	20.887810
1304.649935	-3.009700	3.484100	-10.485000	26.026423	0.000761	20.865077
1305.633656	-3.004900	3.482800	-10.465000	26.053613	0.000760	20.893815
1306.637969	-2.977100	3.485000	-10.374000	26.051657	0.000758	20.888057
1307.638707	-3.005100	3.482800	-10.466000	26.072313	0.000759	20.879414
1308.636666	-3.016700	3.481700	-10.501000	26.038635	0.000760	20.868337
1309.638242	-3.008200	3.483800	-10.480000	26.028572	0.000757	20.895208
1310.637015	-2.994300	3.482400	-10.427000	26.049037	0.000758	20.891114
1311.643384	-3.008500	3.482400	-10.475000	26.044962	0.000760	20.893658
1312.635974	-2.997100	3.481100	-10.431000	26.032692	0.000758	20.890339
1313.638638	-3.011700	3.481300	-10.483000	26.020889	0.000757	20.872318
1314.641045	-3.013500	3.480800	-10.487000	25.995901	0.000756	20.896522
1315.638166	-3.017800	3.479200	-10.498000	26.030549	0.000755	20.907625
1316.637161	-3.019500	3.479800	-10.506000	26.015049	0.000756	20.898691
1317.638920	-3.007600	3.479900	-10.463000	25.989515	0.000755	20.892004
1318.638139	-2.991700	3.479400	-10.408000	25.980646	0.000755	20.911541
1319.638988	-2.992400	3.480000	-10.413000	25.967554	0.000755	20.909294
1320.643516	-2.981900	3.477900	-10.370000	25.963980	0.000754	20.912341
1321.642259	-2.981800	3.477800	-10.369000	25.934468	0.000751	20.895969
1322.640133	-3.032300	3.475300	-10.537000	25.937624	0.000751	20.889184
1323.643510	-2.978500	3.477300	-10.357000	25.948106	0.000751	20.895446
1324.647646	-3.000200	3.475700	-10.426000	25.957048	0.000752	20.905377
1325.642022	-3.002700	3.477400	-10.441000	26.002523	0.000751	20.901753
1326.648224	-2.994300	3.475100	-10.404000	26.008437	0.000748	20.894419
1327.650605	-2.988900	3.476300	-10.390000	25.987671	0.000749	20.898686
1328.645993	-3.009900	3.474800	-10.457000	25.979574	0.000750	20.895293
1329.649531	-2.989200	3.476000	-10.389000	26.007793	0.000749	20.888556
1330.645678	-2.979600	3.475400	-10.353000	25.986108	0.000749	20.893796
1331.642558	-3.005300	3.473000	-10.436000	26.025328	0.000749	20.897639
1332.645586	-3.022000	3.474200	-10.497000	26.056873	0.000746	20.869592
1333.644583	-2.998200	3.473900	-10.415000	26.055285	0.000746	20.888858
1334.641858	-2.989600	3.473400	-10.383000	26.031935	0.000746	20.907595
1335.644664	-2.998200	3.472700	-10.411000	26.002827	0.000746	20.900162
1336.646374	-3.001800	3.472100	-10.420000	25.991801	0.000744	20.872965
1337.646852	-3.009800	3.471100	-10.446000	26.027417	0.000743	20.898315
1338.643385	-3.037400	3.469900	-10.538000	26.021184	0.000745	20.908173
1339.651359	-2.981300	3.471200	-10.346000	26.068749	0.000740	20.893376
1340.649775	-2.980500	3.470400	-10.342000	26.059862	0.000743	20.892033
1341.648723	-2.978600	3.471500	-10.339000	26.087129	0.000743	20.901412
1342.656784	-3.002300	3.470300	-10.418000	26.100642	0.000742	20.879904
1343.652132	-3.000900	3.470300	-10.413000	26.129211	0.000742	20.897702
1344.650731	-2.997500	3.467800	-10.393000	26.122207	0.000741	20.886872
1345.649304	-3.005200	3.468500	-10.421000	26.141701	0.000740	20.879434
1346.649685	-3.015100	3.467500	-10.453000	26.152112	0.000740	20.884205
1347.650905	-3.022600	3.466700	-10.477000	26.162169	0.000740	20.910903
1348.649841	-2.983400	3.469800	-10.350000	26.162252	0.000739	20.861679
1349.650932	-3.016400	3.467400	-10.458000	26.172358	0.000739	20.893643
1350.649989	-3.001900	3.467800	-10.409000	26.194511	0.000738	20.863274
1351.651973	-2.974400	3.467000	-10.312000	26.210308	0.000738	20.881992
1352.651614	-2.992100	3.467400	-10.374000	26.218776	0.000739	20.866321
1353.648302	-3.019700	3.465300	-10.463000	26.212225	0.000737	20.884866
1354.649250	-2.990200	3.464000	-10.357000	26.148823	0.000738	20.873314
1355.652430	-3.004500	3.465300	-10.410000	26.104682	0.000735	20.871635
1356.649630	-2.979900	3.465400	-10.326000	26.083854	0.000737	20.876786
1357.654054	-2.986700	3.464900	-10.348000	26.083240	0.000734	20.862893
1358.654189	-3.011100	3.463400	-10.428000	26.043299	0.000734	20.871126
1359.649417	-2.992800	3.463600	-10.365000	26.025145	0.000736	20.859999
1360.650187	-3.002200	3.461800	-10.391000	26.027229	0.000734	20.863990
1361.652668	-2.981000	3.462200	-10.320000	26.037493	0.000734	20.860078
1362.652553	-3.007000	3.462600	-10.410000	26.076589	0.000733	20.861900
1363.650265	-2.984200	3.463200	-10.334000	26.016335	0.000734	20.867743
1364.655423	-3.000600	3.460500	-10.382000	25.999099	0.000734	20.870341
1365.652251	-2.989600	3.460900	-10.345000	25.967056	0.000731	20.858063
1366.650796	-2.986600	3.460700	-10.335000	25.989783	0.000732	20.854344
1367.652548	-2.990600	3.458400	-10.342000	26.025729	0.000730	20.869595
1368.656094	-2.991700	3.461200	-10.354000	26.058120	0.000729	20.879378
1369.660937	-3.012900	3.458800	-10.421000	26.067882	0.000728	20.844619
1370.656037	-3.001200	3.457900	-10.376000	26.048632	0.000729	20.860364
1371.658562	-3.011500	3.457400	-10.411000	26.064584	0.000728	20.848891
1372.653281	-3.007000	3.457900	-10.397000	26.072159	0.000727	20.850338
1373.658008	-3.000000	3.457200	-10.370000	26.118184	0.000726	20.867184
1374.656138	-3.008300	3.458300	-10.403000	26.129588	0.000727	20.852565
1375.657378	-2.996400	3.457500	-10.359000	26.140043	0.000728	20.829881
1376.652398	-3.018700	3.455800	-10.431000	26.155094	0.000726	20.856383
1377.656485	-2.987700	3.457200	-10.327000	26.182585	0.000725	20.844653
1378.659306	-2.990300	3.455500	-10.332000	26.217684	0.000723	20.844836
1379.658317	-3.010900	3.455100	-10.402000	26.211943	0.000724	20.844757
1380.655860	-3.012000	3.454900	-10.404000	26.242170	0.000725	20.831510
1381.656091	-2.989300	3.454200	-10.324000	26.247188	0.000724	20.838450
1382.663619	-2.996300	3.453400	-10.346000	26.257819	0.000724	20.853400
1383.658181	-2.991500	3.453200	-10.329000	26.240686	0.000722	20.851355
1384.661209	-2.999900	3.452000	-10.354000	26.226806	0.000722	20.837881
1385.659461	-2.994100	3.453800	-10.339000	26.179871	0.000720	20.828176
1386.660340	-2.993900	3.454100	-10.340000	26.163056	0.000720	20.844944
1387.661394	-3.027300	3.451100	-10.446000	26.134021	0.000719	20.852278
1388.663455	-3.039500	3.450900	-10.489000	26.128216	0.000718	20.833644
1389.662606	-2.991900	3.452000	-10.326000	26.086665	0.000719	20.844998
1390.663670	-2.950400	3.452500	-10.184000	26.067562	0.000718	20.850461
1391.662744	-2.990200	3.450300	-10.316000	26.064460	0.000717	20.838810
1392.661140	-2.993000	3.449300	-10.322000	26.063344	0.000716	20.847171
1393.667203	-3.004500	3.450400	-10.365000	26.055499	0.000717	20.830754
1394.665718	-2.987500	3.450900	-10.308000	26.066549	0.000716	20.846124
1395.663917	-3.000200	3.448500	-10.345000	26.052298	0.000714	20.841289
1396.665347	-3.012300	3.448300	-10.386000	26.015267	0.000716	20.842015
1397.663942	-3.022400	3.448300	-10.421000	26.004884	0.000714	20.836800
1398.662338	-2.993200	3.448100	-10.320000	26.027139	0.000713	20.831658
1399.664169	-3.014300	3.446800	-10.389000	26.051807	0.000712	20.845062
1400.668093	-3.001700	3.448900	-10.350000	26.062931	0.000712	20.814989
1401.666989	-2.998800	3.446300	-10.334000	26.033849	0.000713	20.823701
1402.663544	-3.000400	3.445200	-10.336000	26.042594	0.000710	20.831065
1403.668179	-2.992700	3.445300	-10.309000	26.054216	0.000710	20.806706
1404.669122	-3.011600	3.444500	-10.372000	26.066534	0.000711	20.814816
1405.672153	-2.997300	3.446100	-10.327000	26.076725	0.000711	20.823632
1406.670594	-2.998900	3.444500	-10.328000	26.058546	0.000710	20.826230
1407.662529	-2.996600	3.445200	-10.323000	26.062867	0.000710	20.815399
1408.663869	-3.012000	3.442900	-10.369000	26.038878	0.000709	20.800779
1409.663278	-2.992200	3.443300	-10.302000	26.013246	0.000709	20.810114
1410.670888	-3.030200	3.442200	-10.429000	26.030560	0.000710	20.816604
1411.668426	-3.021900	3.442600	-10.401000	26.040790	0.000708	20.824985
1412.664933	-2.995200	3.442500	-10.310000	26.053832	0.000707	20.812959
1413.673184	-3.012400	3.442200	-10.368000	26.042412	0.000707	20.817606
1414.670620	-3.001900	3.440500	-10.327000	26.014175	0.000707	20.814366
1415.673170	-3.006600	3.441900	-10.347000	26.022277	0.000705	20.822506
1416.670156	-3.030000	3.439000	-10.418000	26.034468	0.000704	20.822427
1417.667200	-2.971800	3.440300	-10.221000	26.051659	0.000707	20.814095
1418.667480	-2.997100	3.440200	-10.309000	26.083754	0.000705	20.835436
1419.667996	-3.005800	3.439400	-10.337000	26.089367	0.000705	20.837757
1420.673236	-2.993600	3.438700	-10.293000	26.082539	0.000703	20.800077
1421.668694	-2.986500	3.440000	-10.272000	26.071066	0.000703	20.812731
1422.668162	-2.988800	3.438800	-10.277000	26.055021	0.000703	20.811309
1423.672537	-3.017400	3.437100	-10.371000	26.069528	0.000703	20.824935
1424.667683	-3.009800	3.437100	-10.344000	26.111876	0.000702	20.788302
1425.667636	-3.004700	3.437400	-10.327000	26.123825	0.000701	20.802206
1426.671732	-2.987200	3.438400	-10.269000	26.124351	0.000698	20.804631
1427.675993	-3.012800	3.434800	-10.347000	26.121721	0.000702	20.820955
1428.674435	-2.971400	3.436600	-10.210000	26.072226	0.000700	20.803939
1429.674201	-3.006000	3.435100	-10.325000	26.044236	0.000699	20.824180
1430.672902	-3.001200	3.435900	-10.311000	26.035741	0.000698	20.810429
1431.674279	-2.994600	3.436200	-10.289000	26.045111	0.000699	20.810834
1432.674641	-3.014400	3.433500	-10.348000	26.079909	0.000698	20.813082
1433.676593	-2.992300	3.435500	-10.278000	26.093894	0.000697	20.799158
1434.675196	-3.002100	3.434600	-10.310000	26.158847	0.000697	20.797094
1435.676677	-2.992000	3.432900	-10.270000	26.187577	0.000697	20.817428
1436.672299	-3.004500	3.432500	-10.312000	26.216714	0.000697	20.806404
1437.677175	-2.980900	3.434500	-10.237000	26.196872	0.000696	20.795474
1438.672209	-2.992100	3.434100	-10.274000	26.246887	0.000694	20.787413
1439.683802	-3.004600	3.432000	-10.311000	26.259410	0.000693	20.802369
1440.673460	-2.987600	3.430900	-10.249000	26.245182	0.000695	20.812726
1441.675601	-2.977900	3.432200	-10.219000	26.228249	0.000693	20.793814
1442.686458	-2.978200	3.431500	-10.218000	26.203315	0.000691	20.798630
1443.677433	-3.016500	3.429400	-10.344000	26.143914	0.000691	20.802951
1444.680647	-3.008100	3.428900	-10.313000	26.161251	0.000691	20.799509
1445.677413	-2.973200	3.430600	-10.199000	26.177619	0.000691	20.821646
1446.682407	-3.006000	3.429200	-10.307000	26.194330	0.000688	20.811886
1447.680217	-3.002300	3.428000	-10.291000	26.165198	0.000689	20.788302
1448.682918	-3.004200	3.428200	-10.299000	26.177398	0.000691	20.803406
1449.682786	-3.002400	3.429200	-10.294000	26.153932	0.000690	20.809698
1450.678154	-3.014500	3.426100	-10.326000	26.198661	0.000689	20.795375
1451.674966	-3.018400	3.427100	-10.343000	26.256348	0.000689	20.795973
1452.682046	-3.021000	3.426500	-10.350000	26.233209	0.000686	20.777935
1453.685484	-2.995400	3.425700	-10.261000	26.228957	0.000688	20.797370
1454.681380	-2.996400	3.425300	-10.262000	26.251482	0.000686	20.781600
1455.677146	-2.994100	3.425700	-10.257000	26.222651	0.000684	20.779654
1456.679685	-2.992100	3.426200	-10.249000	26.205517	0.000686	20.788040
1457.677140	-2.985900	3.426200	-10.229000	26.210757	0.000684	20.807056
1458.678968	-3.000200	3.424500	-10.273000	26.245698	0.000684	20.777683
1459.683899	-3.002400	3.425600	-10.283000	26.244906	0.000685	20.801544
1460.682085	-2.995800	3.422500	-10.252000	26.214261	0.000683	20.784973
1461.686455	-2.998600	3.422300	-10.261000	26.203807	0.000682	20.780632
1462.692707	-3.010500	3.422100	-10.301000	26.194743	0.000682	20.793809
1463.689019	-2.998000	3.422600	-10.260000	26.189553	0.000680	20.797128
1464.686884	-2.993000	3.422100	-10.241000	26.233587	0.000682	20.797756
1465.691068	-3.007700	3.420100	-10.285000	26.257228	0.000681	20.795908
1466.682500	-3.008300	3.420600	-10.289000	26.278534	0.000681	20.793137
1467.683018	-2.992800	3.422000	-10.241000	26.245334	0.000681	20.789171
1468.683352	-3.000000	3.419700	-10.258000	26.284992	0.000680	20.801998
1469.686040	-2.996200	3.419400	-10.244000	26.284751	0.000678	20.776626
1470.689292	-2.974900	3.419600	-10.172000	26.316215	0.000679	20.795444
1471.689533	-3.007700	3.419300	-10.282000	26.320289	0.000677	20.779624
1472.683476	-3.004300	3.418900	-10.270000	26.334192	0.000676	20.793597
1473.686721	-3.003200	3.418100	-10.264000	26.351580	0.000679	20.777406
1474.687421	-3.009900	3.417400	-10.286000	26.370299	0.000677	20.790530
1475.691646	-3.005500	3.417600	-10.271000	26.375744	0.000678	20.788890
1476.687631	-3.012200	3.416500	-10.291000	26.385823	0.000678	20.766303
1477.686847	-2.996000	3.418100	-10.239000	26.361458	0.000677	20.770738
1478.690515	-2.992900	3.418400	-10.229000	26.399160	0.000674	20.791562
1479.691631	-2.979900	3.417200	-10.182000	26.393573	0.000673	20.782627
1480.688485	-2.996100	3.416600	-10.235000	26.393627	0.000674	20.775569
1481.691617	-2.977900	3.417200	-10.175000	26.340684	0.000672	20.764559
1482.688534	-2.994600	3.415500	-10.228000	26.285586	0.000673	20.777466
1483.693096	-3.021800	3.414400	-10.317000	26.250254	0.000672	20.780365
1484.692149	-3.000800	3.414300	-10.244000	26.218390	0.000671	20.782958
1485.691899	-2.990400	3.414100	-10.209000	26.183552	0.000670	20.790149
1486.691166	-2.993200	3.414000	-10.218000	26.179703	0.000673	20.765419
1487.689260	-2.987200	3.413300	-10.195000	26.133361	0.000671	20.772907
1488.687515	-3.002500	3.412500	-10.245000	26.124965	0.000670	20.775376
1489.692269	-2.984500	3.412900	-10.184000	26.100530	0.000669	20.770739
1490.693104	-2.997100	3.411600	-10.223000	26.076365	0.000668	20.769691
1491.693388	-3.005700	3.410500	-10.250000	26.096234	0.000670	20.762154
1492.692567	-3.024800	3.411300	-10.316000	26.142533	0.000668	20.768847
1493.701479	-3.006900	3.409800	-10.252000	26.133214	0.000669	20.767069
1494.694657	-3.006200	3.409400	-10.248000	26.162450	0.000667	20.777955
1495.694401	-3.017900	3.409100	-10.288000	26.221010	0.000668	20.764253
1496.695002	-2.986800	3.409300	-10.182000	26.235986	0.000666	20.760811
1497.693142	-2.982900	3.409800	-10.170000	26.263249	0.000666	20.747430
1498.695270	-2.985400	3.410000	-10.180000	26.266753	0.000665	20.764229
1499.693844	-3.000600	3.408500	-10.227000	26.293745	0.000666	20.781871
1500.695487	-2.991800	3.408100	-10.195000	26.289823	0.000665	20.762283
1501.696310	-2.972400	3.407900	-10.128000	26.300252	0.000665	20.762332
1502.693897	-2.971900	3.408100	-10.127000	26.266802	0.000663	20.752424
1503.695186	-3.013700	3.406500	-10.264000	26.295460	0.000664	20.757990
1504.693272	-2.997400	3.406600	-10.210000	26.296379	0.000665	20.761285
1505.691379	-3.003300	3.405000	-10.225000	26.232929	0.000665	20.742565
1506.694541	-3.009200	3.406900	-10.251000	26.233504	0.000663	20.749781
1507.695009	-3.023100	3.404800	-10.292000	26.218547	0.000662	20.761779
1508.698500	-3.007000	3.406000	-10.241000	26.211764	0.000662	20.758282
1509.692716	-3.006500	3.404700	-10.235000	26.243751	0.000661	20.754390
1510.699165	-3.022000	3.404000	-10.286000	26.206628	0.000662	20.755491
1511.694633	-2.983600	3.404500	-10.157000	26.195717	0.000661	20.766812
1512.704752	-2.996500	3.404600	-10.201000	26.241613	0.000661	20.762673
1513.694747	-2.972200	3.403200	-10.114000	26.223408	0.000659	20.769509
1514.697424	-2.976500	3.403200	-10.128000	26.183896	0.000660	20.753510
1515.699043	-3.009900	3.401800	-10.238000	26.187916	0.000658	20.785052
1516.696414	-2.975800	3.402200	-10.123000	26.191317	0.000657	20.774245
1517.700312	-3.007700	3.400800	-10.228000	26.175476	0.000658	20.748843
1518.696317	-2.983600	3.401400	-10.148000	26.188535	0.000657	20.756276
1519.697844	-2.987500	3.403100	-10.165000	26.213072	0.000657	20.740154
1520.696423	-2.995200	3.399600	-10.181000	26.223747	0.000656	20.752305
1521.695692	-3.001700	3.400300	-10.206000	26.193426	0.000656	20.739853
1522.699015	-2.984700	3.399400	-10.145000	26.225182	0.000655	20.743790
1523.704663	-2.996600	3.399400	-10.186000	26.229803	0.000655	20.737527
1524.700271	-3.009800	3.399200	-10.230000	26.289902	0.000653	20.749085
1525.703262	-3.000800	3.397900	-10.195000	26.301151	0.000654	20.725302
1526.700427	-2.999200	3.399100	-10.194000	26.326427	0.000652	20.758292
1527.700357	-3.029900	3.397800	-10.294000	26.339539	0.000652	20.748709
1528.701712	-3.008000	3.396600	-10.215000	26.337406	0.000649	20.734711
1529.699314	-2.994000	3.397900	-10.172000	26.380216	0.000652	20.748339
1530.697969	-3.012700	3.396700	-10.232000	26.357816	0.000651	20.747637
1531.698862	-2.992000	3.396000	-10.159000	26.342719	0.000648	20.753802
1532.700541	-2.997400	3.396800	-10.181000	26.312376	0.000649	20.754602
1533.697386	-3.007200	3.394900	-10.208000	26.269515	0.000651	20.748038
1534.699155	-2.999000	3.395100	-10.181000	26.264050	0.000648	20.744442
1535.696508	-3.002300	3.393900	-10.188000	26.274282	0.000648	20.747139
1536.696212	-3.000900	3.394600	-10.185000	26.280121	0.000649	20.745420
1537.700306	-3.006800	3.394700	-10.207000	26.297431	0.000646	20.740056
1538.700679	-2.993800	3.394400	-10.161000	26.263165	0.000647	20.748769
1539.700257	-2.998800	3.392900	-10.174000	26.253331	0.000646	20.754533
1540.700324	-3.002000	3.394000	-10.188000	26.260457	0.000644	20.729925
1541.697426	-3.015400	3.392400	-10.228000	26.259386	0.000644	20.742599
1542.702992	-2.996100	3.392200	-10.162000	26.249777	0.000644	20.732943
1543.702453	-3.014800	3.391800	-10.224000	26.235878	0.000643	20.743158
1544.702674	-2.983900	3.391300	-10.118000	26.260585	0.000642	20.725786
1545.704358	-3.002200	3.392400	-10.183000	26.250106	0.000641	20.739912
1546.701597	-2.988300	3.392900	-10.138000	26.237583	0.000641	20.733965
1547.702523	-2.965100	3.393500	-10.060000	26.226136	0.000641	20.749490
1548.698045	-2.971200	3.390200	-10.071000	26.204235	0.000641	20.736015
1549.698867	-3.004500	3.389100	-10.182000	26.213047	0.000641	20.721637
1550.707794	-3.027200	3.387300	-10.253000	26.207311	0.000639	20.733417
1551.704048	-2.984400	3.388900	-10.112000	26.245260	0.000639	20.726981
1552.700953	-3.018400	3.387300	-10.223000	26.257449	0.000639	20.725480
1553.706481	-2.998600	3.388900	-10.161000	26.268355	0.000639	20.726008
1554.704794	-2.986800	3.388600	-10.120000	26.259489	0.000636	20.725633
1555.704097	-3.009700	3.386300	-10.191000	26.283925	0.000636	20.724111
1556.707597	-2.995500	3.386100	-10.141000	26.270439	0.000637	20.738060
1557.706169	-2.988800	3.386200	-10.120000	26.293681	0.000638	20.720639
1558.704877	-2.985000	3.386000	-10.106000	26.311910	0.000635	20.719992
1559.707183	-2.995900	3.386900	-10.145000	26.280077	0.000634	20.718821
1560.707068	-2.996600	3.385300	-10.143000	26.229267	0.000635	20.747894
1561.707854	-3.006000	3.385200	-10.175000	26.197756	0.000634	20.722392
1562.712297	-2.992900	3.385100	-10.131000	26.188295	0.000633	20.733748
1563.705600	-2.966600	3.385600	-10.042000	26.174911	0.000634	20.725988
1564.719429	-3.004000	3.383700	-10.163000	26.175304	0.000633	20.729229
1565.706197	-3.011200	3.383500	-10.188000	26.150491	0.000630	20.751712
1566.713480	-2.985100	3.383600	-10.100000	26.126607	0.000631	20.731506
1567.708952	-2.991200	3.384300	-10.121000	26.136669	0.000631	20.740668
1568.708782	-2.985500	3.381900	-10.096000	26.152585	0.000631	20.723943
1569.706830	-3.012700	3.381500	-10.187000	26.187553	0.000629	20.747228
1570.709390	-3.000900	3.383100	-10.151000	26.167090	0.000629	20.734726
1571.716109	-3.009300	3.382700	-10.178000	26.146131	0.000630	20.751599
1572.714783	-3.003600	3.381600	-10.156000	26.172384	0.000628	20.738623
1573.713413	-3.001700	3.381300	-10.149000	26.209263	0.000627	20.741068
1574.708333	-2.980400	3.382000	-10.079000	26.241279	0.000626	20.724877
1575.713964	-3.001500	3.381600	-10.148000	26.238601	0.000626	20.722185
1576.711705	-2.979300	3.381700	-10.074000	26.248706	0.000625	20.733763
1577.715147	-2.998200	3.378400	-10.127000	26.241456	0.000627	20.726003
1578.711058	-2.971200	3.380300	-10.042000	26.269820	0.000628	20.733170
1579.710492	-3.001200	3.378600	-10.139000	26.280839	0.000625	20.738554
1580.712642	-2.996500	3.377800	-10.121000	26.267333	0.000625	20.740155
1581.715220	-3.021600	3.377800	-10.206000	26.246877	0.000625	20.717700
1582.716805	-3.001600	3.376600	-10.135000	26.185464	0.000624	20.735171
1583.713517	-2.991800	3.377200	-10.103000	26.171008	0.000622	20.738663
1584.717209	-2.997400	3.376500	-10.120000	26.167204	0.000622	20.729624
1585.716126	-2.987100	3.377700	-10.088000	26.184844	0.000622	20.752567
1586.719502	-3.013600	3.375500	-10.171000	26.155215	0.000621	20.718525
1587.721930	-3.012200	3.375900	-10.168000	26.171111	0.000622	20.731654
1588.718814	-2.989300	3.375000	-10.087000	26.193190	0.000622	20.753367
1589.721375	-2.993300	3.374600	-10.100000	26.220459	0.000622	20.733353
1590.715615	-2.994600	3.374700	-10.104000	26.257508	0.000619	20.730281
1591.718680	-3.013800	3.374100	-10.168000	26.263146	0.000620	20.740214
1592.718738	-2.994100	3.372600	-10.097000	26.307231	0.000618	20.713393
1593.715553	-2.978500	3.373900	-10.047000	26.324113	0.000619	20.731308
1594.716311	-2.986100	3.372700	-10.071000	26.340129	0.000617	20.732706
1595.721544	-2.982000	3.371200	-10.052000	26.329995	0.000619	20.740066
1596.720777	-3.006400	3.372200	-10.137000	26.337176	0.000619	20.735428
1597.720623	-3.012000	3.371300	-10.154000	26.337893	0.000615	20.726665
1598.715428	-3.019500	3.370900	-10.178000	26.354229	0.000616	20.739290
1599.719730	-3.015300	3.371200	-10.164000	26.366869	0.000615	20.742037
1600.719168	-3.012700	3.371100	-10.156000	26.368510	0.000616	20.748428
1601.723154	-2.984300	3.371000	-10.060000	26.351202	0.000615	20.743835
1602.729809	-3.036800	3.368800	-10.230000	26.334114	0.000615	20.734721
1603.723500	-3.028600	3.368100	-10.200000	26.322869	0.000615	20.754242
1604.722242	-2.987000	3.368800	-10.061000	26.285916	0.000614	20.753614
1605.723000	-3.000400	3.368700	-10.107000	26.290388	0.000613	20.728710
1606.728932	-3.014700	3.368500	-10.154000	26.271240	0.000612	20.743607
1607.722683	-2.986000	3.369400	-10.060000	26.267338	0.000611	20.736840
1608.724628	-3.007000	3.367800	-10.126000	26.276603	0.000611	20.716278
1609.721893	-3.019700	3.368400	-10.171000	26.268827	0.000610	20.748295
1610.727942	-2.998500	3.367300	-10.096000	26.250180	0.000612	20.744254
1611.729784	-2.989400	3.366700	-10.063000	26.228574	0.000610	20.741508
1612.725142	-3.004800	3.366500	-10.115000	26.198917	0.000611	20.744422
1613.724163	-3.006500	3.365900	-10.118000	26.217997	0.000609	20.747949
1614.726656	-3.008000	3.365000	-10.121000	26.178602	0.000609	20.747717
1615.726942	-3.000100	3.365000	-10.095000	26.156006	0.000608	20.721691
1616.723041	-2.986800	3.365300	-10.050000	26.165739	0.000607	20.755180
1617.729472	-3.016900	3.364000	-10.148000	26.186850	0.000607	20.743676
1618.727866	-2.994100	3.363700	-10.071000	26.194227	0.000607	20.759151
1619.728448	-3.011900	3.363400	-10.130000	26.248460	0.000607	20.742526
1620.733126	-3.002700	3.365100	-10.103000	26.304110	0.000605	20.760994
1621.728220	-3.013900	3.362400	-10.134000	26.332364	0.000606	20.764258
1622.725235	-3.018700	3.362500	-10.150000	26.346169	0.000606	20.753002
1623.732354	-3.026000	3.363100	-10.175000	26.361487	0.000607	20.756069
1624.726670	-2.994700	3.361900	-10.067000	26.383813	0.000607	20.743894
1625.726198	-3.010700	3.362300	-10.121000	26.414846	0.000606	20.748057
1626.730748	-2.995300	3.361100	-10.066000	26.451245	0.000605	20.732010
1627.729958	-2.987900	3.361600	-10.043000	26.434758	0.000604	20.750527
1628.729909	-2.986600	3.360200	-10.035000	26.411195	0.000602	20.744388
1629.731589	-3.006400	3.359900	-10.100000	26.394212	0.000602	20.746284
1630.730416	-3.002900	3.359200	-10.086000	26.406571	0.000602	20.756336
1631.728218	-2.993800	3.360700	-10.060000	26.443098	0.000601	20.754167
1632.734245	-3.017600	3.358700	-10.135000	26.437004	0.000600	20.739982
1633.728203	-3.018500	3.358200	-10.136000	26.448876	0.000600	20.749070
1634.732981	-3.028400	3.357300	-10.166000	26.446090	0.000598	20.752434
1635.732843	-3.017400	3.358000	-10.132000	26.425230	0.000598	20.756123
1636.731040	-2.979800	3.358300	-10.007000	26.440350	0.000599	20.739078
1637.730680	-2.987000	3.358400	-10.030000	26.460085	0.000596	20.750379
1638.737458	-2.980700	3.358500	-10.009000	26.479701	0.000596	20.757294
1639.731666	-3.013300	3.356600	-10.113000	26.491588	0.000598	20.750749
1640.736319	-2.994200	3.358500	-10.054000	26.498639	0.000596	20.746457
1641.738717	-2.999800	3.355300	-10.064000	26.519557	0.000595	20.771277
1642.736425	-2.996500	3.356900	-10.058000	26.515208	0.000596	20.751732
1643.735077	-3.008800	3.356000	-10.097000	26.520368	0.000592	20.771143
1644.732246	-2.995500	3.354800	-10.049000	26.496806	0.000591	20.761211
1645.733503	-2.993700	3.353800	-10.040000	26.528210	0.000593	20.791829
1646.735433	-2.999000	3.354400	-10.058000	26.536499	0.000590	20.738994
1647.734237	-3.008100	3.354200	-10.089000	26.560821	0.000591	20.764866
1648.734026	-3.001500	3.354200	-10.067000	26.557667	0.000590	20.764540
1649.737618	-3.011300	3.353500	-10.097000	26.585118	0.000590	20.795454
1650.737026	-2.993000	3.353500	-10.035000	26.602216	0.000590	20.783244
1651.736300	-2.989000	3.352900	-10.021000	26.575753	0.000590	20.767074
1652.743303	-3.007000	3.352400	-10.080000	26.547894	0.000587	20.776053
1653.739608	-3.010100	3.352100	-10.088000	26.539207	0.000588	20.783916
1654.739053	-3.001000	3.351300	-10.056000	26.520284	0.000588	20.782914
1655.738886	-2.998500	3.351900	-10.049000	26.520805	0.000587	20.758781
1656.742136	-3.034700	3.348900	-10.161000	26.478424	0.000586	20.778770
1657.739426	-3.012300	3.350300	-10.092000	26.460464	0.000586	20.755027
1658.739181	-3.017100	3.349500	-10.105000	26.460439	0.000585	20.766382
1659.743772	-3.014800	3.350400	-10.100000	26.481588	0.000586	20.780528
1660.745668	-2.983100	3.350400	-9.993600	26.508776	0.000587	20.768027
1661.735965	-2.982000	3.350000	-9.988700	26.563219	0.000582	20.769647
1662.748168	-2.992200	3.350100	-10.023000	26.573891	0.000584	20.788910
1663.742222	-2.976600	3.348900	-9.967900	26.553554	0.000583	20.768467
1664.737097	-2.994900	3.348300	-10.027000	26.574957	0.000584	20.789982
1665.736554	-2.987000	3.348600	-10.002000	26.571877	0.000582	20.793997
1666.743221	-2.984000	3.348700	-9.991400	26.570535	0.000582	20.774157
1667.738854	-2.996400	3.348800	-10.033000	26.567828	0.000581	20.787082
1668.745253	-2.989100	3.347500	-10.004000	26.588332	0.000580	20.796314
1669.744520	-2.999500	3.346500	-10.037000	26.609631	0.000581	20.760826
1670.738874	-2.986300	3.346900	-9.994000	26.615836	0.000579	20.789350
1671.741838	-3.027000	3.345500	-10.126000	26.637538	0.000579	20.801682
1672.743244	-2.993100	3.345300	-10.012000	26.624798	0.000580	20.782711
1673.744422	-3.004100	3.345900	-10.050000	26.657716	0.000576	20.780242
1674.742413	-3.018900	3.343500	-10.093000	26.647443	0.000578	20.771811
1675.744792	-3.009800	3.344200	-10.065000	26.646745	0.000575	20.771583
1676.744601	-2.977800	3.345100	-9.959600	26.616632	0.000577	20.781141
1677.742780	-2.991600	3.344000	-10.002000	26.628945	0.000574	20.771233
1678.750012	-2.986000	3.344000	-9.983900	26.654714	0.000574	20.774379
1679.749635	-2.996600	3.343000	-10.016000	26.678070	0.000575	20.787428
1680.746705	-2.999600	3.343000	-10.027000	26.699692	0.000572	20.797311
1681.747225	-2.973700	3.342500	-9.938600	26.696489	0.000574	20.774651
1682.745097	-3.003400	3.341100	-10.034000	26.681775	0.000574	20.802532
1683.745920	-2.996400	3.342600	-10.014000	26.696120	0.000572	20.798462
1684.746152	-2.995000	3.341800	-10.007000	26.686614	0.000572	20.785112
1685.746166	-2.991000	3.340700	-9.991500	26.708830	0.000572	20.792748
1686.746115	-2.992300	3.340800	-9.994800	26.680900	0.000571	20.793118
1687.747942	-3.002000	3.339100	-10.023000	26.631701	0.000570	20.785858
1688.751853	-3.008500	3.339100	-10.045000	26.641183	0.000569	20.793019
1689.748104	-2.992800	3.341000	-9.997400	26.640392	0.000570	20.817354
1690.749280	-3.000200	3.338700	-10.016000	26.647688	0.000568	20.791024
1691.754846	-3.020600	3.338300	-10.083000	26.675339	0.000569	20.803648
1692.751563	-3.012100	3.338600	-10.055000	26.631401	0.000570	20.784608
1693.754349	-3.003100	3.336600	-10.018000	26.610078	0.000568	20.819122
1694.755370	-3.007800	3.336800	-10.034000	26.639125	0.000566	20.805174
1695.748558	-3.008300	3.337000	-10.038000	26.623329	0.000566	20.810632
1696.750249	-3.014400	3.336100	-10.056000	26.616008	0.000564	20.792367
1697.751877	-2.983500	3.337800	-9.957500	26.618111	0.000564	20.799223
1698.754389	-2.986500	3.335900	-9.962100	26.624366	0.000566	20.796502
1699.753499	-3.017200	3.334200	-10.058000	26.610039	0.000564	20.787789
1700.754926	-2.997700	3.334800	-9.995600	26.600379	0.000563	20.804631
1701.762481	-3.010300	3.333700	-10.035000	26.582583	0.000562	20.817562
1702.755302	-2.987200	3.334900	-9.960500	26.565573	0.000562	20.808998
1703.755734	-2.994200	3.333700	-9.980700	26.550032	0.000561	20.804281
1704.754860	-2.995300	3.334200	-9.985300	26.583763	0.000560	20.797885
1705.751618	-3.002500	3.333200	-10.006000	26.607917	0.000561	20.805096
1706.752008	-3.004700	3.332600	-10.013000	26.643070	0.000561	20.818624
1707.752199	-3.003400	3.333600	-10.012000	26.636664	0.000559	20.799381
1708.752888	-2.987200	3.332500	-9.953500	26.656026	0.000560	20.800354
1709.755402	-3.018500	3.332100	-10.056000	26.672554	0.000559	20.813650
1710.751731	-3.015700	3.331200	-10.045000	26.672799	0.000558	20.819113
1711.757671	-2.982600	3.331400	-9.933900	26.679226	0.000557	20.819883
1712.756692	-2.993400	3.330300	-9.968000	26.703053	0.000557	20.801639
1713.755298	-2.975700	3.332200	-9.914500	26.692702	0.000557	20.829638
1714.757695	-3.010300	3.329900	-10.022000	26.688506	0.000556	20.814041
1715.756941	-3.008300	3.329800	-10.014000	26.698307	0.000555	20.805402
1716.756558	-2.997600	3.329000	-9.977100	26.683564	0.000555	20.820926
1717.756334	-3.036800	3.328900	-10.108000	26.670328	0.000556	20.795766
1718.761988	-3.010500	3.328700	-10.019000	26.683210	0.000553	20.810613
1719.759264	-2.994400	3.327500	-9.962800	26.695822	0.000552	20.810964
1720.767232	-2.995100	3.328100	-9.967500	26.736549	0.000555	20.837210
1721.763432	-2.993000	3.329000	-9.962400	26.763509	0.000553	20.841082
1722.760270	-2.996800	3.327900	-9.971800	26.774479	0.000553	20.824136
1723.766486	-2.990500	3.327100	-9.948500	26.758636	0.000552	20.825751
1724.762916	-2.992300	3.326600	-9.952200	26.794330	0.000550	20.827500
1725.759234	-3.009500	3.325100	-10.006000	26.798643	0.000551	20.811922
1726.766808	-3.021300	3.324100	-10.043000	26.785812	0.000550	20.812772
1727.769154	-3.007200	3.324000	-9.994800	26.794772	0.000550	20.826048
1728.763171	-3.001100	3.325700	-9.980400	26.759275	0.000550	20.836825
1729.764686	-2.989700	3.324200	-9.937100	26.682498	0.000548	20.818432
1730.764455	-3.003700	3.323700	-9.981800	26.693670	0.000547	20.835827
1731.760653	-2.974000	3.323800	-9.883600	26.710821	0.000547	20.851646
1732.765686	-2.993500	3.324500	-9.950500	26.727131	0.000547	20.832009
1733.765909	-2.997600	3.323400	-9.960500	26.769576	0.000545	20.834854
1734.766160	-2.989100	3.323400	-9.931600	26.804695	0.000546	20.821326
1735.765762	-3.016400	3.322900	-10.022000	26.809608	0.000545	20.821998
1736.763425	-3.004000	3.321600	-9.976500	26.805020	0.000543	20.820704
1737.764130	-2.989800	3.321900	-9.930900	26.793377	0.000543	20.836025
1738.766327	-3.003300	3.322200	-9.976200	26.768009	0.000542	20.845606
1739.762209	-2.998700	3.321700	-9.958700	26.735817	0.000543	20.849750
1740.766492	-3.005500	3.320700	-9.979200	26.713877	0.000541	20.838124
1741.769691	-2.987400	3.319900	-9.916100	26.704292	0.000541	20.838919
1742.768208	-2.977900	3.320600	-9.887100	26.737104	0.000540	20.824966
1743.765608	-3.005400	3.319000	-9.974300	26.714668	0.000541	20.854091
1744.770667	-3.003600	3.318800	-9.967700	26.682719	0.000541	20.852792
1745.771758	-3.011900	3.319000	-9.995900	26.695306	0.000541	20.840791
1746.768958	-3.000600	3.318500	-9.956500	26.717375	0.000539	20.822675
1747.771149	-3.004800	3.318400	-9.970300	26.730477	0.000539	20.850071
1748.765876	-3.007900	3.317200	-9.977200	26.740710	0.000539	20.852772
1749.771184	-3.019300	3.317800	-10.016000	26.739909	0.000537	20.840588
1750.767817	-3.016700	3.315600	-10.001000	26.707166	0.000537	20.845127
1751.769767	-2.991800	3.317600	-9.924900	26.667651	0.000538	20.849498
1752.768832	-2.982900	3.317500	-9.895200	26.636694	0.000536	20.848723
1753.771571	-2.986400	3.316400	-9.903800	26.667224	0.000535	20.832000
1754.768297	-2.985400	3.316500	-9.899300	26.688030	0.000535	20.847226
1755.770601	-2.996400	3.314200	-9.929300	26.704710	0.000534	20.833649
1756.770254	-3.006700	3.315500	-9.967400	26.715758	0.000534	20.843809
1757.770595	-2.998600	3.315400	-9.940500	26.717566	0.000531	20.835669
1758.767759	-2.998100	3.314500	-9.936300	26.693739	0.000533	20.855336
1759.771232	-2.994300	3.313700	-9.921700	26.677679	0.000531	20.862897
1760.770172	-3.001600	3.312400	-9.941700	26.684007	0.000530	20.864517
1761.770252	-3.008500	3.312700	-9.965400	26.705928	0.000532	20.852417
1762.773721	-2.995100	3.312800	-9.919700	26.676834	0.000530	20.842608
1763.777934	-2.998800	3.312700	-9.933100	26.704410	0.000529	20.836667
1764.774413	-2.987300	3.311800	-9.892000	26.697959	0.000530	20.837768
1765.772478	-2.990900	3.312100	-9.904700	26.706542	0.000529	20.837862
1766.777740	-2.993500	3.311600	-9.912500	26.718883	0.000530	20.882035
1767.777133	-2.988400	3.311800	-9.896200	26.773217	0.000528	20.864591
1768.771107	-2.988600	3.311200	-9.893300	26.782079	0.000528	20.841734
1769.775350	-3.000700	3.310000	-9.930200	26.807594	0.000528	20.848422
1770.773501	-2.984300	3.311900	-9.880900	26.814589	0.000526	20.883428
1771.775496	-2.998400	3.310300	-9.924400	26.816004	0.000526	20.856403
1772.775218	-2.995600	3.309300	-9.912000	26.854668	0.000524	20.845019
1773.776464	-2.998400	3.308700	-9.919000	26.855464	0.000524	20.859569
1774.772192	-2.983600	3.308800	-9.871200	26.872617	0.000523	20.864962
1775.772080	-2.996400	3.309400	-9.915500	26.900237	0.000524	20.855277
1776.776119	-3.021600	3.307600	-9.993200	26.911996	0.000521	20.874212
1777.773687	-3.020100	3.306000	-9.983800	26.901430	0.000522	20.853632
1778.773874	-2.980600	3.308400	-9.860100	26.911976	0.000521	20.845745
1779.777809	-3.011100	3.307200	-9.957500	26.910336	0.000521	20.860216
1780.773497	-2.993400	3.306000	-9.895100	26.952926	0.000521	20.854205
1781.775393	-3.001700	3.306900	-9.925900	26.918155	0.000521	20.859070
1782.775726	-3.007800	3.304900	-9.939800	26.933711	0.000520	20.855272
1783.774040	-2.993100	3.305800	-9.894200	26.951187	0.000520	20.865258
1784.780374	-3.005600	3.304500	-9.930800	26.968285	0.000518	20.877235
1785.777066	-3.015500	3.303900	-9.961400	26.967067	0.000517	20.885018
1786.778331	-3.005200	3.305200	-9.931900	26.967685	0.000519	20.872839
1787.777886	-2.999100	3.304500	-9.909300	26.926093	0.000517	20.866103
1788.780682	-2.995000	3.303900	-9.894800	26.896828	0.000516	20.883616
1789.776633	-3.016600	3.301500	-9.958900	26.871148	0.000513	20.843572
1790.775033	-3.004700	3.301900	-9.920400	26.881021	0.000514	20.862033
1791.777639	-2.973200	3.303400	-9.820900	26.906460	0.000513	20.877181
1792.772421	-2.992200	3.302600	-9.881400	26.903960	0.000514	20.866132
1793.775233	-3.008100	3.301500	-9.930200	26.886734	0.000513	20.860665
1794.774617	-3.001500	3.301700	-9.909300	26.885992	0.000513	20.885522
1795.778748	-2.997400	3.301300	-9.894200	26.864772	0.000513	20.881729
1796.780961	-2.984700	3.300800	-9.851400	26.840747	0.000513	20.873694
1797.777282	-3.033600	3.298900	-10.006000	26.847472	0.000512	20.897523
1798.779566	-2.973300	3.299800	-9.810400	26.845286	0.000510	20.880154
1799.781200	-3.019800	3.297600	-9.956900	26.863976	0.000511	20.879981
1800.781901	-3.008400	3.299800	-9.926000	26.892918	0.000510	20.868780
1801.775748	-3.031800	3.298100	-9.997600	26.898100	0.000509	20.890584
1802.775110	-2.993500	3.299700	-9.876300	26.895448	0.000509	20.868478
1803.775640	-3.007100	3.297700	-9.914300	26.894608	0.000508	20.878064
1804.779206	-2.995800	3.298200	-9.880000	26.893370	0.000506	20.882509
1805.776283	-2.997700	3.296300	-9.879500	26.873933	0.000508	20.887621
1806.781350	-3.012700	3.297000	-9.931300	26.816603	0.000508	20.875022
1807.780450	-2.988800	3.298500	-9.857800	26.790518	0.000505	20.875348
1808.780260	-3.007000	3.296100	-9.909600	26.788435	0.000507	20.890796
1809.781476	-3.009000	3.294600	-9.912600	26.825740	0.000507	20.890846
1810.779397	-3.005200	3.295400	-9.902100	26.839415	0.000506	20.887053
1811.778443	-2.982700	3.297000	-9.832400	26.886773	0.000506	20.890100
1812.776987	-3.017500	3.293300	-9.935800	26.876468	0.000505	20.902496
1813.781057	-3.014500	3.293800	-9.928500	26.864733	0.000504	20.878370
1814.781635	-3.029400	3.293800	-9.976800	26.867837	0.000503	20.881018
1815.780534	-3.015400	3.292600	-9.927100	26.839224	0.000503	20.878800
1816.784886	-3.013900	3.292100	-9.921400	26.849495	0.000503	20.915203
1817.786695	-2.992600	3.292600	-9.853000	26.833437	0.000502	20.905222
1818.778951	-2.993200	3.291700	-9.851700	26.867960	0.000501	20.885408
1819.792246	-3.004300	3.292500	-9.890300	26.865676	0.000499	20.898283
1820.780044	-2.973100	3.292200	-9.786400	26.875333	0.000500	20.912734
1821.784798	-2.981900	3.291100	-9.812600	26.900074	0.000499	20.878820
1822.786225	-3.005000	3.289700	-9.884200	26.930179	0.000499	20.885383
1823.785478	-3.011700	3.289800	-9.905700	26.986236	0.000499	20.898130
1824.784079	-3.021300	3.290600	-9.941100	27.002665	0.000498	20.888100
1825.784344	-2.974000	3.291900	-9.788300	27.007626	0.000497	20.886450
1826.783853	-2.998000	3.290500	-9.864500	27.034844	0.000496	20.906709
1827.785984	-2.998300	3.290000	-9.863700	27.020896	0.000497	20.906432
1828.786739	-3.003400	3.289000	-9.876100	27.033553	0.000495	20.903988
1829.786618	-3.019900	3.288400	-9.928700	27.059288	0.000495	20.893360
1830.782569	-3.003000	3.288400	-9.874200	27.066556	0.000494	20.893557
1831.792314	-3.008700	3.288900	-9.894600	27.058517	0.000494	20.885947
1832.785253	-3.004600	3.287700	-9.877000	27.020076	0.000494	20.907504
1833.790806	-3.007500	3.287000	-9.884600	27.007115	0.000494	20.899686
1834.788648	-3.003700	3.287000	-9.871100	27.031490	0.000491	20.861139
1835.791162	-2.998300	3.287100	-9.854300	27.041858	0.000491	20.882470
1836.793236	-2.995600	3.285400	-9.840200	27.075308	0.000491	20.897617
1837.790805	-2.997300	3.285500	-9.847100	27.100443	0.000491	20.874534
1838.790991	-2.981000	3.285900	-9.794900	27.113742	0.000489	20.884589
1839.794434	-2.985300	3.285200	-9.805900	27.087390	0.000488	20.891276
1840.789910	-3.021300	3.283400	-9.919200	27.108428	0.000489	20.874978
1841.789721	-3.013900	3.283700	-9.895900	27.082547	0.000488	20.903000
1842.796189	-2.996400	3.285300	-9.842600	27.081334	0.000488	20.885661
1843.797421	-3.015100	3.282000	-9.894300	27.090415	0.000487	20.885310
1844.792233	-2.985400	3.282800	-9.799700	27.122498	0.000485	20.884861
1845.794588	-3.012700	3.280900	-9.882000	27.143880	0.000487	20.879813
1846.795125	-2.980500	3.282700	-9.782800	27.189240	0.000485	20.861426
1847.795528	-3.009500	3.281400	-9.874500	27.189314	0.000485	20.874776
1848.800777	-3.010800	3.281500	-9.877700	27.171891	0.000482	20.882856
1849.794704	-3.010500	3.279800	-9.872900	27.150583	0.000483	20.876124
1850.792922	-2.998100	3.282100	-9.839200	27.118869	0.000484	20.904443
1851.800225	-2.962600	3.281700	-9.721200	27.098297	0.000482	20.867160
1852.796512	-3.006400	3.278500	-9.855000	27.064347	0.000481	20.872845
1853.793524	-3.011400	3.277600	-9.868700	27.054869	0.000480	20.878011
1854.799530	-3.002200	3.278200	-9.839200	27.050797	0.000481	20.866331
1855.807731	-3.000800	3.277800	-9.834300	27.054569	0.000479	20.881977
1856.801135	-3.027900	3.277400	-9.922600	27.045960	0.000480	20.879957
1857.799024	-2.983600	3.279500	-9.784000	27.007175	0.000479	20.872721
1858.799800	-2.997000	3.278700	-9.826000	27.023476	0.000478	20.888165
1859.797392	-2.982500	3.277200	-9.771900	27.015937	0.000475	20.870627
1860.803210	-2.993900	3.278600	-9.814500	27.054918	0.000477	20.860992
1861.797961	-2.997300	3.277200	-9.822000	27.059608	0.000477	20.865234
1862.801668	-2.993500	3.277400	-9.809200	27.056283	0.000474	20.861417
1863.801678	-2.988000	3.276200	-9.788200	27.061818	0.000474	20.866508
1864.801426	-2.996600	3.277100	-9.819200	27.064622	0.000474	20.864113
1865.800698	-2.980700	3.274800	-9.760000	27.074891	0.000473	20.864958
1866.801240	-2.970900	3.275500	-9.730600	27.058149	0.000472	20.849543
1867.802194	-3.007200	3.274300	-9.845100	27.031122	0.000471	20.885898
1868.804133	-2.998500	3.274300	-9.817200	27.051593	0.000470	20.856226
1869.803819	-3.030900	3.273100	-9.919300	27.033230	0.000470	20.851035
1870.804404	-2.991900	3.274400	-9.795600	27.033107	0.000470	20.843326
1871.810371	-2.995500	3.275000	-9.808600	26.956777	0.000469	20.856655
1872.805594	-3.004600	3.271900	-9.829900	26.927518	0.000469	20.871329
1873.804703	-3.051700	3.271400	-9.981900	26.911933	0.000468	20.864192
1874.806689	-3.015700	3.271000	-9.863200	26.949631	0.000469	20.864641
1875.803389	-2.997000	3.271500	-9.804100	26.995023	0.000466	20.856235
1876.807730	-3.006700	3.270700	-9.833500	27.024629	0.000469	20.848551
1877.810694	-3.031700	3.270800	-9.913600	27.066861	0.000466	20.864469
1878.806997	-3.012600	3.270300	-9.851200	27.035150	0.000464	20.845380
1879.812252	-3.013000	3.269700	-9.850100	27.012449	0.000464	20.844362
1880.806327	-3.001700	3.269300	-9.812300	27.005431	0.000462	20.843468
1881.805078	-2.982900	3.269400	-9.751500	26.985701	0.000462	20.835008
1882.809509	-3.009500	3.269200	-9.836600	27.014114	0.000461	20.852200
1883.807104	-3.009500	3.268300	-9.834200	27.063575	0.000462	20.844569
1884.806874	-3.030700	3.267400	-9.900900	27.071807	0.000461	20.843365
1885.804980	-2.997100	3.267000	-9.791300	27.021712	0.000462	20.847513
1886.812277	-3.009000	3.268400	-9.833800	27.000254	0.000461	20.834943
1887.805748	-2.987500	3.267900	-9.761700	26.945435	0.000460	20.833397
1888.808978	-2.997800	3.266000	-9.789500	26.949556	0.000460	20.823317
1889.808147	-3.011100	3.264900	-9.830500	26.950028	0.000458	20.827110
1890.808019	-3.021000	3.265600	-9.865000	26.949782	0.000459	20.842035
1891.806176	-2.998500	3.265800	-9.791300	26.956059	0.000457	20.852140
1892.807280	-2.995600	3.266400	-9.783300	26.966712	0.000458	20.829663
1893.811155	-2.980300	3.265300	-9.730700	26.992518	0.000457	20.830957
1894.811868	-3.037900	3.263100	-9.911700	27.000489	0.000456	20.824749
1895.811393	-3.002900	3.264800	-9.802600	26.981309	0.000452	20.814945
1896.811418	-3.005300	3.262700	-9.804600	27.012704	0.000454	20.846041
1897.811494	-3.014000	3.263700	-9.835200	27.041641	0.000455	20.838158
1898.815038	-3.000600	3.263800	-9.792400	27.022713	0.000452	20.838563
1899.814053	-2.997700	3.263000	-9.780200	27.038449	0.000450	20.831154
1900.813221	-2.997900	3.261500	-9.776900	27.061625	0.000451	20.818427
1901.813065	-2.980400	3.262300	-9.721100	27.047711	0.000451	20.838573
1902.813941	-2.987500	3.260900	-9.741100	27.019565	0.000447	20.831604
1903.813646	-2.989700	3.262100	-9.751500	27.031032	0.000448	20.838869
1904.815743	-2.963900	3.261200	-9.664300	27.055009	0.000446	20.849705
1905.814944	-2.994400	3.259800	-9.760900	27.116083	0.000448	20.828151
1906.816539	-2.976100	3.260500	-9.701700	27.158036	0.000446	20.823879
1907.818348	-2.992700	3.258800	-9.752000	27.147100	0.000445	20.822363
1908.817868	-2.997300	3.259500	-9.768700	27.193476	0.000445	20.818273
1909.816030	-2.980100	3.261700	-9.718900	27.220052	0.000445	20.832201
1910.815933	-2.991000	3.257800	-9.743100	27.246553	0.000446	20.833253
1911.816342	-2.981600	3.258900	-9.715900	27.207776	0.000444	20.830285
1912.814629	-2.986700	3.258100	-9.730300	27.183243	0.000445	20.820782
1913.817575	-2.992300	3.258200	-9.748400	27.209745	0.000443	20.831791
1914.812345	-2.994000	3.256800	-9.749300	27.192528	0.000440	20.805940
1915.816827	-2.972700	3.257300	-9.682400	27.215731	0.000441	20.823587
1916.820749	-2.997500	3.256700	-9.761100	27.227864	0.000441	20.831998
1917.819627	-3.027400	3.254900	-9.852700	27.265080	0.000441	20.822965
1918.818668	-2.976300	3.255900	-9.689900	27.260321	0.000438	20.810118
1919.822330	-2.976500	3.255400	-9.688600	27.241913	0.000439	20.805826
1920.819396	-2.965700	3.256700	-9.656000	27.240724	0.000437	20.809847
1921.815608	-2.981200	3.254900	-9.701900	27.184480	0.000436	20.817285
1922.824079	-2.979200	3.254400	-9.693300	27.151087	0.000437	20.829692
1923.817296	-2.992700	3.254100	-9.737700	27.171584	0.000436	20.815220
1924.825104	-2.985100	3.254400	-9.713300	27.161783	0.000434	20.800146
1925.820951	-2.975800	3.253100	-9.679700	27.165952	0.000435	20.797701
1926.821836	-2.998800	3.254700	-9.758700	27.166654	0.000435	20.815477
1927.821620	-2.997500	3.253200	-9.750100	27.146481	0.000433	20.814628
1928.819441	-2.992200	3.252300	-9.730900	27.164272	0.000434	20.818771
1929.827076	-3.002700	3.250800	-9.759600	27.175886	0.000432	20.803900
1930.829345	-2.988500	3.251300	-9.715500	27.191227	0.000432	20.821226
1931.826399	-3.013800	3.248800	-9.790000	27.221225	0.000433	20.822001
1932.822879	-3.028600	3.250900	-9.843800	27.220979	0.000432	20.800892
1933.829937	-3.014800	3.249300	-9.795000	27.224829	0.000431	20.800023
1934.821149	-3.003000	3.250900	-9.761200	27.275361	0.000432	20.802961
1935.825617	-3.000400	3.249300	-9.747300	27.293779	0.000429	20.823858
1936.825646	-2.996200	3.249400	-9.734300	27.324565	0.000430	20.802196
1937.829486	-3.023200	3.247900	-9.817200	27.298542	0.000429	20.810158
1938.825720	-3.012300	3.247700	-9.782300	27.317617	0.000428	20.798526
1939.827726	-2.993700	3.249000	-9.726100	27.343125	0.000428	20.806641
1940.826746	-3.026900	3.246200	-9.824700	27.350715	0.000427	20.809061
1941.825126	-3.003800	3.247300	-9.753800	27.382020	0.000425	20.805465
1942.825733	-3.019800	3.246900	-9.803800	27.393406	0.000426	20.791789
1943.824890	-3.017100	3.245600	-9.791100	27.403254	0.000427	20.794585
1944.826884	-2.997100	3.246000	-9.727800	27.378421	0.000424	20.804216
1945.831530	-3.027600	3.244900	-9.822000	27.414640	0.000423	20.805564
1946.831793	-3.002200	3.244700	-9.739700	27.426044	0.000423	20.797123
1947.830943	-3.004900	3.244600	-9.748300	27.445373	0.000423	20.799973
1948.838589	-2.987000	3.245000	-9.692000	27.476822	0.000422	20.808854
1949.826821	-2.981900	3.244700	-9.674800	27.463405	0.000421	20.802467
1950.827712	-3.001200	3.243800	-9.734600	27.457695	0.000422	20.797672
1951.830136	-2.977000	3.243500	-9.654300	27.476940	0.000419	20.794274
1952.827205	-2.996000	3.241400	-9.710900	27.483936	0.000418	20.786139
1953.827991	-3.032300	3.240700	-9.825500	27.483091	0.000419	20.789083
1954.831003	-3.010000	3.240900	-9.754300	27.475443	0.000417	20.813630
1955.835409	-3.008500	3.242100	-9.751700	27.498511	0.000417	20.789423
1956.829744	-3.013400	3.240200	-9.763200	27.492758	0.000417	20.798334
1957.830316	-3.006700	3.241500	-9.744800	27.478364	0.000416	20.789542
1958.828493	-3.009800	3.238800	-9.746500	27.411606	0.000415	20.811047
1959.826812	-2.988000	3.240600	-9.681800	27.375834	0.000414	20.811096
1960.828409	-2.990400	3.240100	-9.688000	27.334105	0.000416	20.808474
1961.829461	-3.013900	3.238700	-9.760300	27.321477	0.000413	20.797193
1962.827432	-3.001300	3.237400	-9.715300	27.308966	0.000412	20.792669
1963.828259	-3.010300	3.235800	-9.738900	27.295719	0.000410	20.802102
1964.830460	-2.973900	3.238900	-9.631300	27.298813	0.000411	20.794309
1965.828384	-3.000100	3.237100	-9.710400	27.330148	0.000410	20.792165
1966.829015	-2.986900	3.235500	-9.663100	27.359495	0.000411	20.783279
1967.830812	-3.007200	3.235200	-9.728000	27.386405	0.000406	20.816989
1968.829237	-2.980000	3.235600	-9.641000	27.437975	0.000405	20.770719
1969.828238	-2.989600	3.234700	-9.669900	27.446782	0.000408	20.792857
1970.829314	-2.975100	3.235600	-9.625400	27.465158	0.000406	20.784791
1971.838561	-2.982200	3.235200	-9.646400	27.436335	0.000405	20.792778
1972.833113	-2.990200	3.233100	-9.666300	27.430527	0.000404	20.787409
1973.831584	-2.990600	3.233500	-9.669100	27.428465	0.000403	20.798137
1974.830537	-3.010100	3.233000	-9.730900	27.430920	0.000401	20.797287
1975.829384	-3.005200	3.233500	-9.716100	27.452011	0.000401	20.811393
1976.831741	-2.988800	3.232300	-9.658900	27.474727	0.000403	20.800581
1977.834046	-3.006000	3.231800	-9.713200	27.493578	0.000399	20.786831
1978.836463	-2.972100	3.233400	-9.608700	27.532939	0.000399	20.776646
1979.831642	-3.007900	3.231500	-9.719100	27.534922	0.000398	20.778168
1980.833950	-2.983200	3.231700	-9.640100	27.555363	0.000396	20.791148
1981.834318	-2.970800	3.231400	-9.598800	27.563797	0.000396	20.790150
1982.835443	-2.957500	3.231600	-9.556300	27.627262	0.000397	20.778617
1983.832651	-2.992000	3.230700	-9.665400	27.643362	0.000396	20.794343
1984.839850	-2.995500	3.230100	-9.674100	27.640411	0.000396	20.781418
1985.843045	-3.002200	3.229600	-9.694000	27.632695	0.000393	20.782662
1986.837329	-3.007900	3.228800	-9.710300	27.650449	0.000392	20.774449
1987.837341	-3.021200	3.227200	-9.749500	27.687032	0.000392	20.784233
1988.836906	-3.001400	3.227800	-9.686300	27.696136	0.000390	20.773955
1989.837949	-3.007200	3.227500	-9.703900	27.681902	0.000392	20.771959
1990.837886	-2.997200	3.227500	-9.670800	27.694075	0.000390	20.787527
1991.842829	-2.986500	3.227700	-9.638300	27.711911	0.000389	20.776553
1992.833187	-2.993000	3.227000	-9.657900	27.732668	0.000390	20.777051
1993.840084	-3.004400	3.225800	-9.690900	27.747446	0.000388	20.762051
1994.840104	-3.003300	3.225000	-9.684900	27.697977	0.000388	20.771539
1995.839114	-2.983000	3.225000	-9.619400	27.631409	0.000385	20.777101
1996.839538	-2.993100	3.225200	-9.652600	27.572657	0.000385	20.766348
1997.840466	-2.996700	3.224000	-9.659100	27.521040	0.000385	20.779373
1998.840301	-3.000600	3.224800	-9.674800	27.492341	0.000384	20.778474
1999.840747	-3.011300	3.222800	-9.704000	27.512679	0.000382	20.779496
2000.844428	-2.989700	3.222100	-9.631900	27.530166	0.000381	20.773382
2001.839692	-3.004200	3.221800	-9.678300	27.537784	0.000380	20.757813
2002.843272	-3.002700	3.221800	-9.672700	27.510323	0.000380	20.762901
2003.841573	-3.000600	3.221800	-9.665900	27.512630	0.000379	20.763799
2004.841600	-2.993200	3.222400	-9.644100	27.577787	0.000381	20.784786
2005.838088	-3.007600	3.221900	-9.688400	27.564690	0.000376	20.772557
2006.842155	-3.002900	3.219200	-9.665600	27.537784	0.000378	20.772512
2007.842132	-2.995200	3.220400	-9.644900	27.477805	0.000377	20.777125
2008.841697	-3.010800	3.218600	-9.689900	27.480333	0.000376	20.761651
2009.846212	-3.012700	3.218700	-9.695000	27.506946	0.000377	20.750967
2010.841797	-3.036200	3.217200	-9.766800	27.516347	0.000373	20.761849
2011.843542	-2.986700	3.217700	-9.608800	27.480731	0.000372	20.760154
2012.844491	-3.003300	3.216700	-9.659700	27.475689	0.000372	20.777368
2013.841916	-2.976000	3.217400	-9.574100	27.494172	0.000371	20.761350
2014.840327	-2.991200	3.216600	-9.621400	27.496578	0.000369	20.781314
2015.850130	-3.025300	3.214400	-9.722700	27.523637	0.000371	20.766338
2016.842950	-2.996000	3.216600	-9.636700	27.551171	0.000370	20.769860
2017.841605	-2.992200	3.215600	-9.619600	27.561141	0.000370	20.754287
2018.851197	-2.987500	3.215000	-9.603500	27.543282	0.000371	20.782312
2019.844150	-3.021400	3.212800	-9.705200	27.539193	0.000369	20.759231
2020.840578	-2.990800	3.214000	-9.609900	27.585965	0.000367	20.766462
2021.844408	-2.984800	3.213200	-9.589800	27.597623	0.000368	20.769183
2022.842031	-2.981200	3.212800	-9.576000	27.578999	0.000366	20.761824
2023.841437	-2.999000	3.212600	-9.633800	27.578150	0.000365	20.778988
2024.842057	-3.008100	3.211400	-9.658800	27.583285	0.000364	20.755230
2025.847332	-3.017000	3.210600	-9.685100	27.622147	0.000364	20.748340
2026.848689	-2.983200	3.213900	-9.586400	27.645237	0.000363	20.763513
2027.851588	-3.018400	3.211700	-9.693900	27.626491	0.000363	20.753185
2028.848189	-2.984100	3.211800	-9.583200	27.616124	0.000363	20.737537
2029.848568	-2.979000	3.209900	-9.561600	27.644692	0.000361	20.752533
2030.848054	-3.002700	3.208200	-9.631900	27.643646	0.000360	20.748162
2031.845798	-3.013100	3.207700	-9.663300	27.650592	0.000360	20.730020
2032.862910	-2.991300	3.210400	-9.602000	27.667089	0.000358	20.755630
2033.846506	-2.996600	3.208300	-9.612900	27.641590	0.000358	20.745618
2034.847898	-2.993300	3.208000	-9.601900	27.654263	0.000357	20.761216
2035.853670	-3.016100	3.206600	-9.670100	27.617381	0.000356	20.767252
2036.846016	-2.989500	3.205700	-9.583300	27.606989	0.000357	20.773866
2037.851179	-3.013000	3.207300	-9.660800	27.627026	0.000353	20.748982
2038.851532	-2.977300	3.206200	-9.545900	27.623477	0.000355	20.750153
2039.852658	-3.001900	3.206200	-9.624200	27.648521	0.000353	20.763025
2040.854449	-3.019300	3.205300	-9.676500	27.677593	0.000352	20.760036
2041.851264	-2.986500	3.204700	-9.570100	27.673446	0.000352	20.762501
2042.851216	-2.997300	3.205200	-9.605400	27.628877	0.000350	20.759379
2043.853723	-3.016600	3.202900	-9.659800	27.628975	0.000350	20.762323
2044.857134	-3.013900	3.202800	-9.651100	27.609802	0.000349	20.752988
2045.858458	-2.998500	3.202600	-9.602100	27.662873	0.000350	20.741430
2046.857519	-2.992200	3.202300	-9.581000	27.673461	0.000348	20.748291
2047.859962	-2.986100	3.206000	-9.572900	27.653695	0.000348	20.765386
2048.856070	-2.998800	3.201200	-9.598500	27.660615	0.000346	20.754332
2049.855958	-3.000500	3.200100	-9.600900	27.679464	0.000345	20.741529
2050.858980	-2.994600	3.200200	-9.582600	27.633104	0.000345	20.729018
2051.854779	-3.014600	3.200200	-9.645700	27.567234	0.000345	20.750934
2052.859273	-2.990800	3.200200	-9.570500	27.581990	0.000342	20.760565
2053.856062	-3.017200	3.198600	-9.648500	27.602749	0.000343	20.760590
2054.855255	-3.000100	3.198900	-9.596100	27.654956	0.000340	20.738679
2055.859575	-3.006600	3.198900	-9.617000	27.671463	0.000341	20.752919
2056.863328	-3.014800	3.197400	-9.638500	27.690468	0.000339	20.751655
2057.862164	-3.035500	3.197900	-9.706300	27.702616	0.000338	20.727368
2058.863015	-2.992200	3.197100	-9.565000	27.654235	0.000337	20.756920
2059.860512	-2.986000	3.198400	-9.549900	27.614574	0.000337	20.763954
2060.860682	-2.978800	3.198700	-9.526900	27.572417	0.000335	20.743821
2061.858675	-3.014700	3.194500	-9.629800	27.561431	0.000336	20.760743
2062.858622	-3.011400	3.194300	-9.617300	27.593967	0.000333	20.747012
2063.857341	-2.978200	3.194800	-9.514500	27.619266	0.000333	20.752079
2064.858967	-2.983200	3.196000	-9.533200	27.677721	0.000333	20.745940
2065.860073	-3.032200	3.192300	-9.677300	27.689403	0.000333	20.743944
2066.862898	-2.977300	3.194300	-9.509800	27.693271	0.000333	20.745466
2067.863676	-3.010100	3.193100	-9.610400	27.661553	0.000331	20.750059
2068.864318	-3.007900	3.193400	-9.605100	27.653371	0.000328	20.745619
2069.864747	-3.031600	3.190700	-9.672200	27.686699	0.000328	20.753551
2070.861849	-3.031700	3.189900	-9.669600	27.735530	0.000330	20.735360
2071.864230	-3.005100	3.190500	-9.587200	27.714774	0.000329	20.742922
2072.866230	-2.993500	3.192500	-9.554600	27.689751	0.000329	20.745718
2073.861901	-2.999100	3.191700	-9.571700	27.684966	0.000328	20.750385
2074.858835	-3.018400	3.190100	-9.628000	27.673559	0.000326	20.729423
2075.867630	-2.952300	3.190900	-9.419400	27.696294	0.000325	20.745663
2076.864760	-2.994900	3.189800	-9.552600	27.741376	0.000326	20.757365
2077.865052	-3.019100	3.187900	-9.623100	27.771628	0.000323	20.756989
2078.862318	-3.005300	3.189600	-9.584400	27.757989	0.000323	20.749427
2079.864850	-2.967600	3.188600	-9.461800	27.685054	0.000323	20.756164
2080.865137	-3.020500	3.187100	-9.625500	27.713640	0.000321	20.744626
2081.864847	-2.971100	3.189300	-9.474600	27.722269	0.000323	20.738610
2082.866053	-3.000200	3.187300	-9.561000	27.758902	0.000321	20.753665
2083.866656	-3.000700	3.184400	-9.552600	27.769832	0.000322	20.767036
2084.862287	-2.979000	3.185800	-9.488100	27.814243	0.000321	20.736338
2085.863663	-3.004100	3.185200	-9.567300	27.802637	0.000320	20.757375
2086.865882	-2.978100	3.184800	-9.483700	27.741656	0.000319	20.745792
2087.866763	-2.995700	3.183500	-9.536100	27.689899	0.000318	20.748237
2088.870085	-3.010900	3.181900	-9.579800	27.743364	0.000319	20.757469
2089.863586	-2.987300	3.182800	-9.507100	27.737656	0.000316	20.758837
2090.867059	-2.985800	3.184500	-9.508300	27.761386	0.000315	20.752372
2091.865094	-3.016300	3.181200	-9.592900	27.803344	0.000316	20.747655
2092.867327	-2.987700	3.182000	-9.505900	27.826032	0.000318	20.764325
2093.864821	-3.006400	3.180700	-9.561600	27.865582	0.000313	20.761455
2094.865973	-2.987000	3.182000	-9.504800	27.886478	0.000315	20.742182
2095.868876	-2.985700	3.181000	-9.495300	27.876138	0.000314	20.759277
2096.871509	-2.982800	3.180700	-9.485200	27.831946	0.000314	20.755578
2097.866076	-3.015700	3.177700	-9.582400	27.808144	0.000312	20.767659
2098.869861	-2.982500	3.179400	-9.481900	27.800993	0.000310	20.762834
2099.868130	-2.992200	3.179200	-9.512200	27.833080	0.000309	20.763832
2100.877535	-2.993700	3.178500	-9.513900	27.831171	0.000312	20.751478
2101.870479	-3.010400	3.176400	-9.561800	27.815844	0.000309	20.766874
2102.872872	-3.014800	3.177600	-9.578200	27.786629	0.000309	20.760705
2103.868229	-2.990600	3.175600	-9.495800	27.802201	0.000305	20.752669
2104.865535	-2.995800	3.174400	-9.509400	27.802795	0.000307	20.757060
2105.869620	-3.009800	3.173800	-9.551900	27.815658	0.000305	20.762894
2106.871138	-2.991000	3.174500	-9.494100	27.799320	0.000305	20.763995
2107.871806	-3.012700	3.174300	-9.560200	27.803949	0.000305	20.773395
2108.869797	-3.010700	3.173400	-9.552800	27.801667	0.000304	20.774891
2109.870807	-3.016400	3.173200	-9.570600	27.818525	0.000303	20.764356
2110.867405	-2.977700	3.172500	-9.445500	27.839922	0.000302	20.761709
2111.876973	-3.006300	3.171700	-9.534000	27.850660	0.000300	20.767300
2112.872623	-2.998500	3.170500	-9.506100	27.812248	0.000300	20.759461
2113.870026	-3.014100	3.169600	-9.551700	27.779812	0.000299	20.767596
2114.872254	-2.990900	3.171900	-9.485400	27.767906	0.000296	20.781219
2115.866207	-2.971600	3.170300	-9.420700	27.792431	0.000298	20.753268
2116.867620	-2.981000	3.169300	-9.446500	27.784716	0.000296	20.771583
2117.872878	-3.004300	3.168100	-9.516700	27.799120	0.000295	20.762845
2118.868524	-2.992900	3.167600	-9.479100	27.763362	0.000296	20.784706
2119.870201	-3.014300	3.166000	-9.543000	27.728024	0.000295	20.778068
2120.873423	-2.984300	3.167300	-9.451200	27.709869	0.000296	20.780187
2121.872202	-3.027200	3.165000	-9.579400	27.730650	0.000294	20.772176
2122.871235	-2.999100	3.166600	-9.495900	27.781011	0.000293	20.773544
2123.870545	-2.988300	3.165200	-9.456600	27.839432	0.000291	20.780656
2124.871131	-2.987200	3.166800	-9.458500	27.882922	0.000290	20.764683
2125.871228	-2.997200	3.164100	-9.482600	27.897026	0.000290	20.771766
2126.877044	-2.998000	3.165200	-9.488200	27.880562	0.000289	20.781274
2127.868105	-2.990900	3.163900	-9.462300	27.861997	0.000289	20.750260
2128.874432	-2.998700	3.163400	-9.485200	27.885642	0.000287	20.778326
2129.876428	-3.002400	3.160900	-9.488700	27.898489	0.000286	20.779876
2130.874573	-3.006700	3.160500	-9.500900	27.926382	0.000288	20.763854
2131.878334	-3.004800	3.160700	-9.495600	27.927226	0.000287	20.767074
2132.877267	-2.991900	3.160000	-9.452800	27.965133	0.000287	20.754020
2133.872708	-3.020500	3.158800	-9.540000	27.974059	0.000285	20.761582
2134.873434	-3.012400	3.157700	-9.511200	27.980625	0.000286	20.789528
2135.877171	-3.015000	3.158700	-9.522500	27.939386	0.000283	20.776469
2136.873380	-3.024300	3.157700	-9.547900	27.958779	0.000282	20.780815
2137.876457	-2.994200	3.158200	-9.454700	27.968495	0.000284	20.775896
2138.872361	-3.027900	3.156100	-9.554800	27.935696	0.000281	20.782238
2139.875472	-3.021900	3.155600	-9.535100	27.904923	0.000282	20.787300
2140.878524	-3.030300	3.154000	-9.556300	27.874321	0.000281	20.771199
2141.876244	-2.998000	3.156500	-9.462300	27.820293	0.000280	20.774671
2142.883936	-3.004700	3.155900	-9.481100	27.805536	0.000280	20.782579
2143.875995	-2.990000	3.153600	-9.428500	27.812623	0.000279	20.789237
2144.875412	-3.006200	3.154000	-9.481000	27.853685	0.000277	20.778880
2145.878177	-2.999900	3.153600	-9.459100	27.885073	0.000279	20.795772
2146.875504	-2.992900	3.153700	-9.437300	27.913315	0.000278	20.801911
2147.878963	-2.975400	3.152000	-9.377600	27.953746	0.000277	20.780491
2148.880045	-2.983100	3.151700	-9.400800	27.960861	0.000277	20.780066
2149.877266	-2.997600	3.149900	-9.440700	27.951214	0.000275	20.786951
2150.878173	-2.968400	3.150600	-9.351000	27.975877	0.000276	20.790439
2151.876897	-3.018500	3.148900	-9.503600	27.993404	0.000274	20.797176
2152.877417	-3.021600	3.149000	-9.513800	28.019730	0.000274	20.780526
2153.880879	-2.998400	3.149000	-9.439900	27.974876	0.000274	20.779000
2154.880377	-2.977400	3.148200	-9.372000	27.988041	0.000271	20.783717
2155.876021	-3.010800	3.148200	-9.476900	27.983331	0.000272	20.801261
2156.875249	-3.033500	3.145300	-9.540100	27.999014	0.000272	20.785752
2157.877428	-3.001100	3.145600	-9.438300	27.988150	0.000269	20.820810
2158.880643	-2.989000	3.145000	-9.397900	28.009995	0.000270	20.796806
2159.878860	-2.979300	3.144900	-9.368200	28.059426	0.000269	20.792984
2160.882216	-3.004400	3.144400	-9.445000	28.077894	0.000268	20.807307
2161.890413	-3.024000	3.141900	-9.500400	28.075927	0.000268	20.782568
2162.880310	-3.018800	3.141600	-9.482100	28.042234	0.000267	20.783738
2163.885304	-2.998800	3.142200	-9.421700	28.054407	0.000266	20.794096
2164.883049	-3.002700	3.141600	-9.431300	28.096721	0.000267	20.799707
2165.877821	-3.004000	3.141900	-9.436400	28.124903	0.000265	20.789671
2166.878518	-3.006300	3.140700	-9.439300	28.153335	0.000263	20.812603
2167.877878	-3.008800	3.138500	-9.442300	28.151069	0.000264	20.824072
2168.881505	-3.005700	3.140200	-9.437100	28.143705	0.000261	20.829461
2169.881129	-3.019400	3.137700	-9.472400	28.183267	0.000264	20.819030
2170.879905	-3.006200	3.139500	-9.436800	28.180986	0.000263	20.804879
2171.884927	-3.026300	3.136700	-9.490800	28.141620	0.000261	20.800335
2172.886557	-3.007200	3.136500	-9.431800	28.128407	0.000262	20.807423
2173.886580	-3.001500	3.136700	-9.413400	28.085090	0.000259	20.821189
2174.886723	-3.001200	3.137100	-9.412700	28.065532	0.000259	20.813355
2175.884646	-2.993600	3.135800	-9.386500	28.098774	0.000259	20.797506
2176.883305	-3.035600	3.132800	-9.508100	28.104573	0.000259	20.813301
2177.883347	-2.995200	3.132500	-9.381400	28.124527	0.000258	20.817267
2178.885561	-3.000300	3.133100	-9.399000	28.157566	0.000255	20.827294
2179.882323	-3.020400	3.131300	-9.457100	28.195887	0.000257	20.806130
2180.889453	-2.989500	3.132700	-9.363100	28.207882	0.000256	20.812517
2181.886452	-2.994700	3.130000	-9.372600	28.217051	0.000256	20.818903
2182.882740	-2.982000	3.130500	-9.333200	28.245083	0.000256	20.825788
2183.889573	-3.018100	3.129300	-9.443300	28.212980	0.000254	20.840882
2184.886538	-2.996000	3.129000	-9.373100	28.191340	0.000252	20.823364
2185.882820	-2.980500	3.128100	-9.322600	28.186503	0.000251	20.838882
2186.890450	-2.986800	3.127100	-9.338900	28.118234	0.000252	20.798604
2187.884521	-3.011000	3.126700	-9.413800	28.140342	0.000251	20.827972
2188.883512	-3.003200	3.124700	-9.383300	28.191106	0.000252	20.831662
2189.891149	-3.005300	3.127100	-9.396500	28.198445	0.000249	20.815818
2190.889345	-3.007400	3.124900	-9.395400	28.223426	0.000248	20.827217
2191.888290	-3.002200	3.124100	-9.378500	28.266057	0.000249	20.795222
2192.890184	-2.987100	3.123700	-9.328400	28.316216	0.000248	20.818224
2193.888991	-3.005300	3.121500	-9.380200	28.324050	0.000248	20.847922
2194.891114	-3.013200	3.122600	-9.407400	28.320410	0.000245	20.827662
2195.889612	-2.991500	3.121000	-9.335400	28.314377	0.000244	20.850036
2196.891960	-3.014100	3.122400	-9.409000	28.307661	0.000245	20.838533
2197.886428	-3.012200	3.119100	-9.394600	28.325757	0.000246	20.824037
2198.886177	-3.004900	3.118900	-9.370600	28.328431	0.000242	20.829574
2199.892308	-3.002000	3.117700	-9.358500	28.356980	0.000243	20.828448
2200.895392	-2.996100	3.119800	-9.346100	28.366618	0.000242	20.834835
2201.891285	-3.003100	3.116800	-9.358400	28.331178	0.000244	20.824754
2202.895501	-2.989300	3.117300	-9.317100	28.251587	0.000245	20.831862
2203.891876	-2.985000	3.115800	-9.300200	28.164090	0.000241	20.816318
2204.891879	-3.008400	3.115700	-9.371700	28.160190	0.000241	20.837996
2205.896154	-3.038700	3.112500	-9.456700	28.141929	0.000239	20.852328
2206.892742	-3.019400	3.113000	-9.397600	28.100001	0.000241	20.832879
2207.890956	-3.011400	3.112600	-9.371900	28.094201	0.000240	20.840317
2208.893150	-2.998800	3.112600	-9.332400	28.112271	0.000238	20.829585
2209.890111	-3.000900	3.111200	-9.335400	28.074320	0.000239	20.832632
2210.890390	-2.976400	3.111700	-9.260900	28.038071	0.000238	20.847825
2211.889858	-3.009600	3.109900	-9.358600	28.004278	0.000238	20.837043
2212.891625	-3.013800	3.108800	-9.368400	27.967756	0.000236	20.820671
2213.891502	-3.027200	3.106900	-9.403900	27.984096	0.000238	20.838540
2214.890358	-3.001900	3.106300	-9.323600	28.016967	0.000238	20.838911
2215.893146	-3.008600	3.107300	-9.347800	28.038758	0.000235	20.831448
2216.891483	-2.994300	3.107200	-9.302100	28.089703	0.000236	20.851436
2217.899339	-2.977200	3.105600	-9.245000	28.061417	0.000236	20.854730
2218.894653	-2.989900	3.104600	-9.281700	28.039749	0.000235	20.855204
2219.893029	-2.991900	3.104200	-9.286500	28.029853	0.000237	20.848562
2220.896738	-3.010500	3.103300	-9.341900	28.058606	0.000234	20.838151
2221.898101	-3.007000	3.101600	-9.325400	28.085631	0.000233	20.845915
2222.898424	-3.027000	3.100700	-9.384800	28.098692	0.000233	20.847209
2223.897157	-2.995700	3.100600	-9.286500	28.154389	0.000234	20.847802
2224.896979	-2.993800	3.100800	-9.282000	28.232418	0.000232	20.858080
2225.896618	-3.002000	3.099000	-9.302300	28.230780	0.000233	20.855957
2226.899761	-2.998200	3.097800	-9.286800	28.245772	0.000233	20.857972
2227.895546	-2.997900	3.096700	-9.282200	28.210180	0.000231	20.855429
2228.898568	-3.006700	3.096200	-9.307700	28.192176	0.000235	20.855024
2229.898362	-3.024600	3.094800	-9.358700	28.182708	0.000233	20.838854
2230.895616	-3.003600	3.094300	-9.293300	28.206453	0.000232	20.858017
2231.900416	-2.988400	3.093700	-9.244500	28.234701	0.000232	20.868439
2232.899977	-3.022100	3.093100	-9.345600	28.251705	0.000231	20.849998
2233.898238	-3.003300	3.093000	-9.288200	28.300506	0.000229	20.861673
2234.902913	-3.009600	3.090400	-9.298700	28.302954	0.000230	20.850389
2235.899342	-3.020100	3.089600	-9.329700	28.294997	0.000228	20.856602
2236.896434	-3.001600	3.089600	-9.272900	28.243661	0.000228	20.854701
2237.899697	-2.992100	3.090500	-9.245900	28.197699	0.000230	20.868644
2238.903291	-3.009500	3.087900	-9.291600	28.156449	0.000227	20.870738
2239.897365	-2.969400	3.088800	-9.171200	28.084455	0.000227	20.853739
2240.903316	-2.999300	3.086800	-9.257100	28.069648	0.000226	20.855429
2241.900366	-2.997600	3.084500	-9.244000	28.056160	0.000226	20.869352
2242.899760	-2.991700	3.085200	-9.228500	28.098822	0.000226	20.879106
2243.912699	-2.996200	3.085300	-9.243100	28.108811	0.000227	20.882524
2244.900849	-2.972600	3.084600	-9.168200	28.161039	0.000226	20.870617
2245.900252	-3.015800	3.082600	-9.295400	28.192541	0.000226	20.877675
2246.903802	-2.995400	3.080600	-9.225700	28.270911	0.000227	20.871231
2247.909673	-3.024000	3.080900	-9.315600	28.312025	0.000225	20.856202
2248.907007	-3.037100	3.079000	-9.349900	28.311177	0.000225	20.862935
2249.903533	-2.997300	3.078600	-9.226200	28.326045	0.000225	20.865103
2250.900899	-3.008300	3.077600	-9.256600	28.363689	0.000224	20.882616
2251.904447	-2.998500	3.076900	-9.225300	28.414270	0.000223	20.869539
2252.906670	-3.013600	3.075500	-9.266700	28.464279	0.000223	20.874853
2253.907859	-3.017000	3.075900	-9.278200	28.503379	0.000222	20.881985
2254.909024	-2.976300	3.075800	-9.152100	28.539408	0.000224	20.860897
2255.905259	-2.991400	3.075700	-9.200100	28.583708	0.000223	20.869950
2256.903700	-3.019900	3.072900	-9.278700	28.557613	0.000221	20.895825
2257.910840	-3.009400	3.072400	-9.244600	28.505102	0.000222	20.888935
2258.908131	-3.002800	3.070400	-9.219300	28.461064	0.000221	20.872564
2259.909639	-2.984800	3.071600	-9.167400	28.505274	0.000220	20.872988
2260.909342	-2.997900	3.070200	-9.203200	28.507976	0.000220	20.884718
2261.906044	-3.009400	3.067000	-9.228500	28.488398	0.000218	20.887286
2262.908333	-2.995700	3.068300	-9.190700	28.501773	0.000219	20.904548
2263.907869	-3.004500	3.066800	-9.212900	28.536570	0.000221	20.889331
2264.912216	-2.992800	3.066400	-9.175800	28.574701	0.000219	20.892171
2265.907579	-3.003800	3.064500	-9.203800	28.603542	0.000219	20.882813
2266.907298	-3.012200	3.063800	-9.228000	28.630377	0.000219	20.904622
2267.909380	-3.004200	3.062900	-9.200700	28.623835	0.000219	20.894241
2268.912233	-2.969500	3.063000	-9.094600	28.637831	0.000220	20.878941
2269.910349	-2.997800	3.060400	-9.173600	28.636669	0.000216	20.880615
2270.913409	-3.003700	3.060100	-9.189400	28.649944	0.000218	20.881184
2271.914787	-3.015600	3.059800	-9.225900	28.640455	0.000217	20.897230
2272.908531	-3.024400	3.055700	-9.241400	28.610223	0.000218	20.890963
2273.911822	-3.006100	3.056300	-9.187000	28.594265	0.000217	20.893857
2274.912783	-2.988000	3.056100	-9.129600	28.558410	0.000217	20.901369
2275.913798	-3.029200	3.054100	-9.250400	28.595505	0.000219	20.909329
2276.909787	-2.985900	3.055200	-9.121400	28.638097	0.000216	20.915241
2277.917833	-3.024400	3.050900	-9.226200	28.639206	0.000217	20.906402
2278.914198	-3.003300	3.051000	-9.162700	28.656256	0.000216	20.900816
2279.910043	-2.993900	3.050000	-9.130400	28.659056	0.000217	20.905058
2280.912873	-2.982100	3.051000	-9.097200	28.654565	0.000215	20.904328
2281.915700	-2.974500	3.049400	-9.069300	28.639427	0.000216	20.925589
2282.913334	-3.017800	3.046400	-9.192300	28.688955	0.000217	20.916680
2283.913853	-2.973200	3.047400	-9.059500	28.709242	0.000215	20.888278
2284.915923	-3.023300	3.046400	-9.209400	28.758247	0.000216	20.908714
2285.916909	-3.016200	3.043300	-9.178300	28.786613	0.000216	20.912157
2286.913422	-3.027600	3.043600	-9.213300	28.804401	0.000215	20.908265
2287.913584	-2.995700	3.042600	-9.114000	28.769933	0.000214	20.902942
2288.916686	-2.989000	3.041300	-9.089300	28.757076	0.000214	20.921758
2289.917575	-2.987600	3.039600	-9.080200	28.712995	0.000215	20.917186
2290.919037	-3.002000	3.039100	-9.122000	28.715300	0.000213	20.943212
2291.917487	-2.979300	3.038300	-9.050700	28.710911	0.000212	20.924569
2292.917195	-2.982700	3.038300	-9.060900	28.719655	0.000210	20.948546
2293.921169	-3.002100	3.035600	-9.112200	28.703027	0.000213	20.927533
2294.913816	-2.993600	3.033800	-9.081600	28.671409	0.000213	20.918447
2295.920640	-3.011700	3.033500	-9.134800	28.617962	0.000211	20.912980
2296.915451	-2.985400	3.034000	-9.057300	28.595639	0.000211	20.914205
2297.917559	-3.029700	3.031100	-9.182200	28.582653	0.000212	20.934315
2298.917784	-2.992000	3.030800	-9.067600	28.578260	0.000212	20.936528
2299.920691	-3.014100	3.028300	-9.125500	28.575435	0.000211	20.918038
2300.924133	-2.970700	3.027800	-8.993000	28.611313	0.000212	20.922404
2301.919105	-2.987500	3.027600	-9.042800	28.657724	0.000213	20.918413
2302.922742	-2.986400	3.026600	-9.037900	28.693378	0.000211	20.920660
2303.915316	-2.979400	3.025200	-9.012100	28.705368	0.000210	20.940795
2304.918870	-2.968400	3.023400	-8.973000	28.731479	0.000210	20.922054
2305.917346	-2.997600	3.022100	-9.057300	28.768098	0.000211	20.909154
2306.916246	-3.004800	3.020100	-9.073800	28.812074	0.000212	20.914571
2307.921772	-3.015800	3.019400	-9.105000	28.811775	0.000210	20.932760
2308.921660	-2.991800	3.018600	-9.030300	28.801440	0.000210	20.903386
2309.921817	-3.004000	3.017500	-9.063900	28.777561	0.000210	20.907781
2310.922468	-2.976700	3.016800	-8.978600	28.730612	0.000210	20.900793
2311.920835	-2.981200	3.015300	-8.988300	28.744832	0.000208	20.914641
2312.919625	-3.007200	3.012700	-9.059100	28.739085	0.000209	20.914542
2313.922884	-3.003400	3.012700	-9.047900	28.678756	0.000211	20.910201
2314.917496	-2.990000	3.010800	-9.001100	28.670602	0.000212	20.901514
2315.919897	-2.991000	3.010000	-9.001300	28.710763	0.000211	20.938643
2316.916415	-2.983800	3.009100	-8.977800	28.727914	0.000208	20.908981
2317.919186	-2.962800	3.008000	-8.910600	28.760714	0.000208	20.896027
2318.917470	-3.007500	3.006800	-9.041500	28.753280	0.000210	20.894230
2319.917681	-3.028800	3.004500	-9.098900	28.751496	0.000210	20.904285
2320.918288	-3.004300	3.004000	-9.023700	28.778605	0.000207	20.913099
2321.918937	-2.990000	3.002600	-8.976700	28.779915	0.000209	20.915367
2322.920049	-2.995800	3.001400	-8.990800	28.783607	0.000209	20.918611
2323.919565	-3.025400	2.997500	-9.067600	28.811648	0.000208	20.895178
2324.919889	-2.988100	2.998800	-8.959800	28.814599	0.000207	20.889142
2325.919468	-3.023300	2.995600	-9.055700	28.807760	0.000208	20.913544
2326.921246	-2.977800	2.996900	-8.923500	28.835359	0.000209	20.892510
2327.922406	-3.032800	2.993800	-9.078100	28.836472	0.000208	20.904062
2328.922853	-3.002900	2.992900	-8.986900	28.797924	0.000206	20.903638
2329.924201	-2.979900	2.991700	-8.913500	28.758483	0.000208	20.898995
2330.924931	-2.983700	2.989200	-8.917700	28.718123	0.000207	20.880154
2331.924432	-3.002300	2.989400	-8.973700	28.746465	0.000207	20.880253
2332.919346	-2.979000	2.987700	-8.899000	28.732147	0.000207	20.902339
2333.926916	-3.000500	2.988100	-8.965100	28.743538	0.000208	20.893899
2334.929035	-3.007500	2.984500	-8.974400	28.794650	0.000206	20.899391
2335.923784	-2.996900	2.984200	-8.942700	28.816650	0.000206	20.880777
2336.925311	-3.016500	2.982300	-8.995700	28.832080	0.000206	20.872614
2337.925202	-2.974200	2.983100	-8.870900	28.863890	0.000207	20.886639
2338.920216	-3.005800	2.980500	-8.958300	28.911333	0.000208	20.901242
2339.926599	-2.982200	2.978000	-8.878700	28.958319	0.000207	20.867027
2340.924822	-2.991600	2.977300	-8.906200	28.859904	0.000207	20.901588
2341.922294	-2.987400	2.976500	-8.890700	28.801592	0.000207	20.881255
2342.924390	-3.005300	2.973300	-8.934500	28.713984	0.000207	20.887365
2343.927305	-2.958300	2.974300	-8.797800	28.641660	0.000206	20.873789
2344.926868	-3.017100	2.971500	-8.964000	28.653179	0.000204	20.883020
2345.923976	-3.001500	2.970700	-8.915900	28.668592	0.000206	20.889059
2346.926033	-3.007300	2.968500	-8.926600	28.716412	0.000205	20.877957
2347.927124	-3.016600	2.966500	-8.947900	28.758630	0.000204	20.848887
2348.926469	-3.007600	2.965400	-8.917500	28.796189	0.000205	20.877235
2349.927134	-3.007900	2.963100	-8.911600	28.808599	0.000206	20.865081
2350.926737	-2.968000	2.963600	-8.794700	28.795468	0.000206	20.878880
2351.925990	-2.995300	2.962600	-8.872200	28.752760	0.000205	20.879957
2352.923102	-3.034000	2.959700	-8.978500	28.773570	0.000205	20.882900
2353.925342	-2.986600	2.959200	-8.836900	28.801195	0.000206	20.880855
2354.927797	-2.987300	2.958300	-8.835300	28.793692	0.000205	20.887048
2355.926361	-3.000200	2.956600	-8.869300	28.842223	0.000204	20.870977
2356.931417	-3.008400	2.954300	-8.885600	28.870242	0.000206	20.899676
2357.927814	-3.013800	2.952400	-8.896800	28.883794	0.000202	20.878716
2358.928941	-3.021200	2.950900	-8.913600	28.828724	0.000204	20.876345
2359.931340	-2.968100	2.949000	-8.751100	28.819212	0.000204	20.868660
2360.931664	-2.985600	2.949500	-8.804800	28.846807	0.000204	20.868957
2361.929249	-2.966000	2.947800	-8.742200	28.822164	0.000205	20.881116
2362.932017	-3.003900	2.944000	-8.842600	28.839157	0.000204	20.885906
2363.936964	-2.995600	2.942600	-8.813600	28.831524	0.000204	20.873950
2364.935061	-2.990500	2.941700	-8.796200	28.808342	0.000202	20.889477
2365.934746	-2.991400	2.940400	-8.794400	28.743825	0.000204	20.848673
2366.936411	-3.025100	2.938000	-8.886600	28.688729	0.000205	20.866669
2367.935568	-3.002800	2.937400	-8.819200	28.624876	0.000204	20.851196
2368.936544	-3.027800	2.933900	-8.882100	28.552820	0.000203	20.877723
2369.937634	-3.026600	2.932700	-8.874800	28.516051	0.000204	20.852075
2370.939407	-3.007700	2.931100	-8.815000	28.514291	0.000204	20.857414
2371.935220	-2.990800	2.930900	-8.764700	28.559538	0.000205	20.868842
2372.937221	-3.002600	2.929000	-8.793700	28.612968	0.000203	20.854850
2373.937519	-2.987300	2.927500	-8.744800	28.632638	0.000203	20.860910
2374.938221	-2.981200	2.923400	-8.714500	28.660590	0.000206	20.845441
2375.938238	-2.993500	2.922200	-8.747400	28.648403	0.000203	20.866357
2376.941572	-2.985300	2.923800	-8.727700	28.610516	0.000204	20.852854
2377.938722	-2.987000	2.920600	-8.722200	28.637375	0.000202	20.860939
2378.941824	-3.024000	2.917300	-8.820600	28.652788	0.000205	20.867927
2379.938532	-3.001300	2.915600	-8.749800	28.698029	0.000203	20.849012
2380.939233	-3.008500	2.916200	-8.772400	28.746789	0.000206	20.851184
2381.939792	-3.011500	2.913300	-8.772700	28.772110	0.000203	20.859620
2382.939415	-2.995100	2.912300	-8.721200	28.838160	0.000206	20.833221
2383.942470	-3.007900	2.910300	-8.753100	28.843435	0.000204	20.853708
2384.937064	-3.004800	2.908100	-8.736500	28.885506	0.000205	20.862424
2385.940634	-3.007600	2.905700	-8.738300	28.900391	0.000204	20.851342
2386.940680	-2.978700	2.905500	-8.652900	28.938714	0.000204	20.847751
2387.941597	-2.978100	2.902500	-8.643400	28.978218	0.000204	20.866213
2388.941233	-3.008200	2.899100	-8.719400	28.960809	0.000205	20.831131
2389.940625	-3.007100	2.898200	-8.714200	28.919069	0.000205	20.843607
2390.942130	-2.992300	2.897900	-8.670800	28.877058	0.000204	20.851070
2391.945650	-3.029100	2.895300	-8.768900	28.879117	0.000203	20.836075
2392.943436	-2.969300	2.894100	-8.591700	28.870616	0.000203	20.845528
2393.941693	-3.007400	2.893000	-8.698200	28.909411	0.000204	20.843360
2394.944006	-3.007300	2.890600	-8.691600	28.932227	0.000203	20.838845
2395.943006	-3.004900	2.888000	-8.676900	28.986522	0.000202	20.820527
2396.943076	-3.031700	2.885100	-8.744900	29.014934	0.000205	20.838722
2397.945560	-2.975600	2.884700	-8.582500	28.990360	0.000203	20.846205
2398.942497	-3.014000	2.882500	-8.685800	29.026597	0.000205	20.821075
2399.942429	-2.977200	2.880900	-8.576200	29.075813	0.000203	20.830834
2400.940909	-2.997400	2.879800	-8.630700	29.116257	0.000204	20.821327
2401.939754	-3.009100	2.875400	-8.651400	29.098568	0.000202	20.848546
2402.940506	-3.013600	2.874500	-8.660200	29.054460	0.000202	20.823071
2403.944646	-2.991000	2.873800	-8.594600	29.012749	0.000204	20.829882
2404.954176	-2.984100	2.871800	-8.568600	29.030509	0.000204	20.825965
2405.944383	-2.983400	2.868800	-8.557800	29.027636	0.000205	20.852467
2406.945331	-2.974000	2.867800	-8.528000	29.022857	0.000205	20.844333
2407.943814	-3.000400	2.865300	-8.595700	29.037048	0.000205	20.841088
2408.947122	-2.990200	2.863300	-8.560400	29.044946	0.000204	20.825812
2409.945091	-3.005400	2.862000	-8.600000	29.062161	0.000204	20.813287
2410.952322	-2.987500	2.860200	-8.544300	29.049230	0.000204	20.819698
2411.943773	-2.992000	2.857000	-8.547400	28.948622	0.000204	20.836870
2412.946253	-3.003700	2.856200	-8.578700	28.885976	0.000203	20.823071
2413.951885	-3.035200	2.853100	-8.658000	28.831795	0.000204	20.803577
2414.946245	-2.970100	2.853300	-8.474000	28.783097	0.000204	20.812842
2415.949332	-2.994500	2.851400	-8.537600	28.836723	0.000203	20.832248
2416.949162	-2.969600	2.849100	-8.459900	28.893355	0.000205	20.831453
2417.947861	-2.986700	2.845300	-8.497200	28.953897	0.000205	20.815633
2418.947083	-3.012500	2.843300	-8.564200	28.987062	0.000205	20.821071
2419.950097	-2.988000	2.842000	-8.490800	29.029514	0.000204	20.815480
2420.945995	-3.001600	2.839600	-8.522500	29.035980	0.000205	20.830529
2421.952849	-3.010900	2.836300	-8.539300	29.077539	0.000206	20.814082
2422.948401	-3.003000	2.834200	-8.510300	29.043681	0.000206	20.808891
2423.953011	-2.986200	2.832400	-8.457200	29.051231	0.000205	20.828352
2424.950690	-3.003900	2.829200	-8.497900	29.095863	0.000204	20.827329
2425.949549	-2.987500	2.827800	-8.447200	29.130287	0.000205	20.823610
2426.949963	-2.973300	2.826900	-8.404200	29.122881	0.000205	20.817096
2427.949787	-3.009900	2.822100	-8.493300	29.088280	0.000203	20.835810
2428.953309	-2.984300	2.821800	-8.420000	29.088947	0.000204	20.809456
2429.953695	-2.998100	2.818800	-8.449600	29.087633	0.000205	20.836107
2430.956405	-2.992500	2.815700	-8.423300	29.063683	0.000204	20.811501
2431.951158	-2.988100	2.815000	-8.411100	28.973949	0.000204	20.822085
2432.951570	-3.029600	2.810600	-8.513600	28.913777	0.000204	20.824999
2433.957055	-3.024700	2.808400	-8.493600	28.894279	0.000205	20.813892
2434.953876	-3.000700	2.806600	-8.420900	28.909811	0.000204	20.805831
2435.953461	-2.991100	2.805300	-8.389800	28.932275	0.000205	20.822773
2436.950912	-2.970800	2.803800	-8.328500	28.971980	0.000204	20.823420
2437.959803	-3.008500	2.798600	-8.419000	28.959944	0.000203	20.815088
2438.955369	-3.004600	2.796400	-8.400400	28.910949	0.000202	20.794175
2439.957183	-2.993100	2.795600	-8.366300	28.865094	0.000204	20.823371
2440.956792	-3.000200	2.790700	-8.372100	28.852533	0.000201	20.842484
2441.959875	-3.021200	2.788800	-8.424300	28.848694	0.000204	20.812065
2442.958195	-2.975700	2.786400	-8.289700	28.898139	0.000203	20.809719
2443.957845	-2.973100	2.784300	-8.277400	28.950650	0.000204	20.798612
2444.962953	-2.993800	2.781500	-8.325500	28.967372	0.000200	20.805027
2445.958117	-3.015100	2.778900	-8.376900	28.969676	0.000201	20.804978
2446.961450	-3.008200	2.776900	-8.352400	29.046860	0.000202	20.802611
2447.958731	-3.005200	2.773600	-8.333800	29.096046	0.000201	20.814712
2448.963813	-2.975900	2.770000	-8.242000	29.148523	0.000201	20.793149
2449.963367	-2.998800	2.767500	-8.297500	29.197185	0.000202	20.808045
2450.956530	-2.989200	2.765100	-8.264600	29.229503	0.000201	20.818802
2451.961569	-3.015400	2.762100	-8.327700	29.223239	0.000200	20.802059
2452.964257	-2.993600	2.759200	-8.259000	29.287399	0.000203	20.830206
2453.960812	-2.970500	2.757400	-8.189100	29.250529	0.000203	20.803481
2454.961314	-2.998600	2.752200	-8.251200	29.231929	0.000203	20.810816
2455.960717	-2.998600	2.751000	-8.247800	29.179055	0.000199	20.802578
2456.961583	-3.030200	2.745500	-8.318900	29.155283	0.000200	20.792848
2457.964894	-2.976600	2.744300	-8.167700	29.073949	0.000201	20.814733
2458.961289	-3.007500	2.740200	-8.239600	29.048538	0.000203	20.796241
2459.961446	-3.010300	2.737100	-8.237700	29.072386	0.000203	20.797511
2460.960172	-2.974800	2.733800	-8.130900	29.054925	0.000203	20.798409
2461.967342	-3.016100	2.731100	-8.236200	29.035680	0.000201	20.798933
2462.957640	-3.010900	2.726900	-8.209100	28.964941	0.000201	20.806371
2463.962150	-3.009700	2.723900	-8.195700	28.945547	0.000204	20.783987
2464.971081	-3.020700	2.719600	-8.213100	28.973682	0.000202	20.809488
2465.965814	-3.021000	2.715700	-8.203700	28.979354	0.000204	20.803349
2466.967086	-2.987300	2.714000	-8.107000	28.953421	0.000201	20.785281
2467.968016	-2.992800	2.711400	-8.113100	28.918221	0.000200	20.785855
2468.966031	-3.010700	2.707300	-8.148900	28.904028	0.000203	20.798108
2469.968357	-3.006900	2.703300	-8.126700	28.889908	0.000201	20.799057
2470.963515	-2.993100	2.700100	-8.080700	28.906528	0.000200	20.792567
2471.967695	-2.994200	2.696400	-8.072100	28.993772	0.000203	20.783261
2472.970361	-3.009400	2.691800	-8.099400	29.017449	0.000200	20.788625
2473.967457	-3.006000	2.687600	-8.077900	29.080484	0.000200	20.779117
2474.969280	-3.001800	2.685500	-8.058800	29.109017	0.000202	20.789850
2475.974256	-2.998400	2.681200	-8.039100	29.100223	0.000200	20.803749
2476.963273	-3.015000	2.676600	-8.068400	29.123780	0.000200	20.788605
2477.965958	-3.005900	2.673400	-8.035000	29.176236	0.000202	20.795470
2478.972296	-3.009200	2.669300	-8.030600	29.219941	0.000200	20.800158
2479.964047	-3.015600	2.665500	-8.037300	29.261792	0.000201	20.802504
2480.979345	-2.995300	2.661800	-7.972300	29.339744	0.000201	20.794769
2481.968382	-2.991200	2.657000	-7.946800	29.378448	0.000201	20.787785
2482.969177	-2.993300	2.653100	-7.941000	29.369436	0.000202	20.772537
2483.964510	-2.985000	2.648700	-7.904000	29.363496	0.000200	20.795000
2484.972886	-3.027400	2.642600	-7.999600	29.340391	0.000202	20.767445
2485.970056	-2.990200	2.640700	-7.895300	29.349554	0.000200	20.760559
2486.967525	-3.033200	2.635700	-7.993000	29.380854	0.000201	20.776933
2487.973772	-2.987800	2.631700	-7.862100	29.429680	0.000200	20.769247
2488.971905	-2.988700	2.626600	-7.849700	29.463972	0.000200	20.784845
2489.973450	-3.041600	2.620100	-7.968100	29.467735	0.000201	20.771094
2490.975440	-3.018600	2.617000	-7.898900	29.497145	0.000203	20.773712
2491.971434	-3.016100	2.613300	-7.880700	29.524804	0.000200	20.782627
2492.971150	-3.011000	2.606600	-7.847500	29.523172	0.000200	20.771024
2493.972737	-3.006700	2.601700	-7.821400	29.529757	0.000199	20.784775
2494.971430	-3.004100	2.597600	-7.802900	29.552061	0.000202	20.775964
2495.968984	-2.984600	2.591900	-7.735100	29.562756	0.000199	20.759719
2496.975788	-3.028000	2.585200	-7.825000	29.605313	0.000201	20.761842
2497.972911	-3.028000	2.580000	-7.810500	29.652968	0.000200	20.768159
2498.972633	-3.002000	2.575500	-7.730500	29.690466	0.000201	20.779411
2499.971716	-3.029500	2.570100	-7.784900	29.709479	0.000201	20.769656
2500.975288	-3.022500	2.563500	-7.747100	29.698539	0.000201	20.737763
2501.974952	-3.006700	2.559300	-7.693900	29.655393	0.000202	20.781510
2502.975953	-2.997900	2.553800	-7.655300	29.671486	0.000199	20.764069
2503.975401	-2.985900	2.548200	-7.606900	29.632871	0.000200	20.762123
2504.977466	-2.992600	2.541400	-7.604800	29.569056	0.000200	20.750896
2505.979267	-3.006900	2.535400	-7.622900	29.568262	0.000200	20.780442
2506.976948	-3.006000	2.529900	-7.604600	29.572794	0.000200	20.766044
2507.977513	-3.021800	2.521500	-7.618600	29.511450	0.000201	20.751147
2508.977865	-2.976700	2.518600	-7.495100	29.449156	0.000201	20.785559
2509.973690	-3.015400	2.509300	-7.565500	29.392902	0.000200	20.739763
2510.977138	-2.999800	2.502600	-7.505700	29.419467	0.000201	20.766539
2511.976974	-3.001900	2.497500	-7.496000	29.405329	0.000202	20.764143
