LabVIEW Measurement	
Writer_Version	2
Reader_Version	2
Separator	Tab
Decimal_Separator	.
Multi_Headings	No
X_Columns	One
Time_Pref	Absolute
Operator	admin
Description	Clolumns are: time, Current, Voltage, Power, Battery Temp, and Chamber Temp
Date	2024/08/16
Time	13:06:06.104549407958984375
***End_of_Header***	
	
Channels	6						
Samples	1	1	1	1	1	1	
Date	2024/09/17	2024/09/17	2024/09/17	2024/09/17	2024/09/17	2024/09/17	
Time	11:48:57.909564971923828125	11:48:57.9165606498718261719	11:48:57.9225649833679199219	11:48:57.8890271186828613281	11:48:57.8890271186828613281	11:48:57.8890271186828613281	
X_Dimension	Time	Time	Time	Time	Time	Time	
X0	0.0000000000000000E+0	0.0000000000000000E+0	0.0000000000000000E+0	0.0000000000000000E+0	0.0000000000000000E+0	0.0000000000000000E+0	
Delta_X	1.000000	1.000000	1.000000	1.000000	1.000000	1.000000	
***End_of_Header***							
X_Value	Untitled	Untitled 1	Untitled 2	Untitled 3	Untitled 4	Untitled 5	Comment
0.000000	0.004036	4.093000	0.016425	20.992306	0.000970	20.871885
0.995918	-3.014100	3.909800	-11.783000	20.990834	0.000967	20.872310
1.995589	-3.019400	3.901600	-11.780000	20.990410	0.000968	20.883264
2.994844	-3.029700	3.896200	-11.803000	21.027561	0.000964	20.889601
3.998188	-2.996000	3.893600	-11.664000	20.993301	0.000968	20.864346
4.995808	-3.000200	3.888500	-11.664000	20.993850	0.000963	20.872955
5.997811	-3.005400	3.886400	-11.679000	20.977602	0.000965	20.878989
6.998871	-3.002500	3.882700	-11.657000	20.999087	0.000964	20.870606
8.000729	-3.007600	3.880000	-11.669000	20.998761	0.000964	20.903943
8.997374	-2.991900	3.880300	-11.609000	21.005299	0.000963	20.874923
10.000105	-3.016000	3.876200	-11.690000	21.022614	0.000964	20.890343
10.998413	-2.980600	3.877600	-11.557000	21.035160	0.000961	20.889141
11.996309	-3.008300	3.873000	-11.650000	21.019364	0.000961	20.869077
12.998576	-3.008800	3.873300	-11.652000	21.018791	0.000958	20.889839
13.998011	-3.005200	3.870300	-11.629000	21.018488	0.000957	20.882424
14.997477	-2.991500	3.870700	-11.578000	21.047678	0.000957	20.862309
15.997657	-3.001600	3.870300	-11.614000	21.039641	0.000956	20.863280
17.002517	-3.019000	3.866900	-11.672000	21.042161	0.000960	20.873385
18.002859	-2.972000	3.868500	-11.496000	21.042585	0.000956	20.887559
18.999757	-3.004200	3.867700	-11.617000	21.066985	0.000956	20.886360
20.003277	-2.992800	3.865100	-11.565000	21.059598	0.000955	20.864275
21.004007	-3.031400	3.863000	-11.709000	21.050862	0.000954	20.858382
21.999556	-3.014600	3.862700	-11.643000	21.083020	0.000954	20.884855
23.006173	-3.010700	3.860600	-11.620000	21.073489	0.000953	20.854462
24.003447	-2.984100	3.861200	-11.521000	21.089507	0.000954	20.875224
25.000446	-2.986600	3.860000	-11.527000	21.089078	0.000954	20.888544
26.005161	-2.991900	3.860300	-11.548000	21.084963	0.000953	20.857877
27.005278	-3.031100	3.856900	-11.689000	21.093468	0.000955	20.856902
28.005488	-3.004900	3.857600	-11.590000	21.089527	0.000953	20.888519
29.002362	-3.005700	3.857100	-11.592000	21.127598	0.000952	20.878237
30.006978	-3.016400	3.855500	-11.628000	21.112327	0.000953	20.875765
31.006338	-3.004700	3.856900	-11.588000	21.122304	0.000949	20.862037
32.001804	-2.996400	3.855000	-11.550000	21.138170	0.000951	20.872691
33.006673	-2.985400	3.855900	-11.510000	21.147526	0.000953	20.848861
34.005196	-2.997800	3.854900	-11.555000	21.132457	0.000950	20.860339
35.005486	-3.003600	3.853600	-11.574000	21.152313	0.000950	20.858391
36.004257	-3.007100	3.853800	-11.588000	21.157524	0.000949	20.875931
37.007817	-3.019100	3.852000	-11.629000	21.161066	0.000949	20.868094
38.003760	-2.973800	3.853700	-11.458000	21.167451	0.000951	20.856464
39.011873	-2.999800	3.852400	-11.555000	21.157097	0.000951	20.855590
40.006382	-2.987900	3.852900	-11.511000	21.191523	0.000949	20.859681
41.007145	-3.008900	3.850200	-11.583000	21.190650	0.000949	20.844109
42.005765	-3.010400	3.850000	-11.588000	21.198035	0.000948	20.858135
43.009103	-3.001200	3.851200	-11.557000	21.189423	0.000948	20.858529
44.007054	-3.006500	3.849600	-11.573000	21.216865	0.000950	20.875074
45.006283	-3.001400	3.849900	-11.554000	21.220957	0.000950	20.849771
46.008383	-3.000100	3.848500	-11.544000	21.223349	0.000951	20.864017
47.007221	-2.986200	3.847500	-11.487000	21.225347	0.000949	20.842783
48.010522	-2.991300	3.848100	-11.510000	21.244304	0.000949	20.846574
49.007988	-3.001800	3.847700	-11.549000	21.254604	0.000949	20.863990
50.008145	-2.990000	3.848300	-11.505000	21.282640	0.000948	20.851734
51.007842	-2.990000	3.847700	-11.503000	21.288429	0.000948	20.858000
52.011674	-2.992000	3.846200	-11.507000	21.292144	0.000950	20.854130
53.008101	-3.002200	3.845000	-11.541000	21.268093	0.000948	20.845243
54.011054	-2.989200	3.845800	-11.495000	21.279245	0.000947	20.858295
55.013048	-3.009300	3.844800	-11.568000	21.272654	0.000950	20.867348
56.011281	-2.972400	3.845800	-11.430000	21.321592	0.000947	20.864151
57.012077	-2.994000	3.844300	-11.508000	21.312044	0.000950	20.861237
58.015053	-2.991800	3.844300	-11.500000	21.296200	0.000949	20.854395
59.012454	-3.010900	3.842900	-11.570000	21.314183	0.000950	20.854368
60.012120	-2.979200	3.844800	-11.452000	21.345686	0.000949	20.856962
61.016328	-2.982000	3.843500	-11.460000	21.328175	0.000949	20.852719
62.015341	-2.999900	3.841500	-11.523000	21.346981	0.000947	20.843085
63.012286	-3.004800	3.842100	-11.543000	21.350968	0.000949	20.840911
64.012566	-2.973100	3.843200	-11.424000	21.375637	0.000949	20.835246
65.011898	-3.027500	3.840600	-11.626000	21.376458	0.000949	20.853610
66.017205	-2.991400	3.840000	-11.486000	21.386234	0.000950	20.846796
67.012316	-3.012200	3.839800	-11.565000	21.369245	0.000948	20.860618
68.014356	-3.000800	3.840300	-11.523000	21.387979	0.000950	20.853757
69.013940	-2.992700	3.840000	-11.491000	21.422395	0.000948	20.853578
70.014617	-2.985000	3.839300	-11.458000	21.426084	0.000948	20.862485
71.016508	-3.007700	3.838500	-11.544000	21.439004	0.000949	20.843169
72.017322	-2.996200	3.839600	-11.503000	21.415631	0.000949	20.866724
73.016087	-3.012400	3.838100	-11.561000	21.446305	0.000947	20.842889
74.017521	-2.999300	3.839300	-11.514000	21.453342	0.000947	20.838075
75.016090	-3.004500	3.838800	-11.532000	21.460445	0.000948	20.848501
76.016816	-3.011300	3.836900	-11.552000	21.478152	0.000947	20.841563
77.018574	-2.991300	3.838400	-11.480000	21.465856	0.000949	20.836372
78.016318	-3.010800	3.836800	-11.551000	21.473959	0.000948	20.842583
79.019504	-2.993900	3.836900	-11.486000	21.502942	0.000950	20.851195
80.019816	-2.997600	3.835900	-11.498000	21.522192	0.000951	20.848645
81.017283	-2.984900	3.837000	-11.452000	21.496278	0.000948	20.853061
82.018134	-2.996600	3.835300	-11.492000	21.507725	0.000951	20.842705
83.018664	-2.990800	3.835500	-11.470000	21.509544	0.000948	20.832671
84.019397	-2.994700	3.836100	-11.487000	21.547127	0.000947	20.822389
85.018779	-3.005700	3.835500	-11.527000	21.553436	0.000949	20.858572
86.020695	-3.010700	3.834400	-11.543000	21.539094	0.000950	20.844222
87.020680	-3.019700	3.833300	-11.575000	21.571313	0.000950	20.830943
88.020515	-2.970400	3.834900	-11.390000	21.554979	0.000950	20.838306
89.016696	-3.004200	3.834600	-11.519000	21.571261	0.000951	20.848908
90.021302	-2.980800	3.833600	-11.427000	21.576972	0.000952	20.829968
91.020550	-3.019000	3.833200	-11.572000	21.586771	0.000949	20.837402
92.019457	-2.998300	3.833400	-11.493000	21.589385	0.000951	20.831010
93.020943	-2.972700	3.834400	-11.397000	21.589214	0.000951	20.845537
94.019900	-2.999100	3.833900	-11.498000	21.594198	0.000949	20.832033
95.022951	-2.991200	3.833000	-11.463000	21.607388	0.000953	20.815835
96.019877	-3.011800	3.832100	-11.541000	21.615443	0.000950	20.830534
97.017064	-3.001800	3.832400	-11.502000	21.607485	0.000951	20.830630
98.020720	-3.006700	3.831800	-11.520000	21.642523	0.000952	20.822071
99.020925	-2.994600	3.831500	-11.472000	21.628358	0.000953	20.819276
100.021843	-3.019800	3.830300	-11.565000	21.655759	0.000954	20.835317
101.022370	-3.001900	3.831400	-11.500000	21.658649	0.000954	20.840580
102.020611	-3.003500	3.831000	-11.506000	21.665109	0.000954	20.828079
103.028752	-3.001100	3.831000	-11.495000	21.695431	0.000954	20.824285
104.024697	-2.997400	3.830200	-11.479000	21.698919	0.000952	20.837259
105.022161	-2.999100	3.829700	-11.484000	21.713232	0.000952	20.815547
106.023267	-2.994900	3.829500	-11.468000	21.678293	0.000955	20.822781
107.024306	-2.992800	3.829600	-11.460000	21.712780	0.000956	20.841647
108.022435	-3.002100	3.828800	-11.493000	21.720408	0.000955	20.852600
109.025707	-3.012700	3.827600	-11.530000	21.723077	0.000956	20.830616
110.024244	-2.987000	3.829400	-11.437000	21.737012	0.000956	20.820855
111.023003	-2.989700	3.828800	-11.446000	21.733619	0.000955	20.835002
112.026747	-3.013600	3.827600	-11.533000	21.753239	0.000956	20.820026
113.024937	-2.983000	3.828400	-11.418000	21.758029	0.000956	20.821026
114.024094	-2.993400	3.828000	-11.458000	21.740049	0.000956	20.829583
115.026206	-3.014200	3.826300	-11.531000	21.777024	0.000957	20.817752
116.024834	-3.031000	3.825800	-11.594000	21.751290	0.000957	20.830877
117.026332	-2.997100	3.826800	-11.469000	21.756799	0.000960	20.842554
118.025029	-2.993300	3.827700	-11.456000	21.782106	0.000958	20.824261
119.026665	-2.985000	3.826200	-11.420000	21.795118	0.000958	20.828749
120.034297	-2.996000	3.827000	-11.464000	21.803147	0.000959	20.817819
121.028979	-2.998200	3.825700	-11.469000	21.804569	0.000958	20.807388
122.028689	-3.010900	3.825400	-11.517000	21.816209	0.000958	20.809555
123.033259	-3.009300	3.825900	-11.513000	21.821844	0.000957	20.817566
124.026628	-3.008200	3.825000	-11.505000	21.824959	0.000959	20.810253
125.031004	-2.997800	3.825400	-11.466000	21.853182	0.000961	20.845138
126.029716	-3.020700	3.823200	-11.547000	21.856520	0.000960	20.820506
127.028433	-3.002600	3.825400	-11.485000	21.839640	0.000960	20.827318
128.034661	-3.019600	3.824300	-11.547000	21.859063	0.000961	20.833955
129.030020	-2.990100	3.824400	-11.433000	21.837571	0.000960	20.824299
130.033045	-3.010100	3.822300	-11.503000	21.850084	0.000960	20.811693
131.033754	-2.985700	3.824600	-11.418000	21.863373	0.000962	20.807451
132.031686	-3.002400	3.823300	-11.478000	21.875663	0.000961	20.820700
133.030102	-3.005200	3.823900	-11.491000	21.905605	0.000960	20.807049
134.033536	-3.007800	3.821500	-11.493000	21.897676	0.000963	20.819501
135.033983	-2.985500	3.821900	-11.409000	21.916847	0.000963	20.827310
136.030560	-3.003200	3.822400	-11.478000	21.904231	0.000960	20.799510
137.035822	-3.016600	3.820700	-11.525000	21.916895	0.000961	20.819771
138.031852	-2.983600	3.822600	-11.405000	21.908916	0.000964	20.804199
139.033085	-2.998800	3.820700	-11.456000	21.905826	0.000963	20.811063
140.036383	-2.999400	3.821300	-11.461000	21.910960	0.000963	20.801503
141.033123	-2.981900	3.823000	-11.399000	21.898669	0.000965	20.792519
142.032490	-3.008500	3.821100	-11.494000	21.929159	0.000964	20.788900
143.036021	-2.991500	3.821500	-11.432000	21.938732	0.000964	20.811758
144.034766	-2.975500	3.822500	-11.372000	21.927239	0.000965	20.813057
145.038281	-2.981800	3.821400	-11.393000	21.956558	0.000964	20.808265
146.035413	-2.997900	3.820100	-11.452000	21.986498	0.000966	20.801252
147.036394	-2.993400	3.819600	-11.432000	21.993204	0.000966	20.810336
148.035850	-3.005000	3.819000	-11.474000	21.998960	0.000966	20.817046
149.035273	-2.979900	3.819600	-11.380000	22.012299	0.000966	20.807166
150.034568	-2.982200	3.819500	-11.388000	22.002997	0.000967	20.799751
151.034705	-2.981900	3.819100	-11.387000	22.008480	0.000966	20.823731
152.034415	-3.007000	3.817600	-11.479000	22.030370	0.000969	20.794910
153.034539	-2.993900	3.818300	-11.430000	22.053504	0.000970	20.819017
154.041184	-3.002400	3.817600	-11.461000	22.060705	0.000969	20.813424
155.036793	-3.012200	3.819000	-11.502000	22.061380	0.000967	20.802720
156.039730	-3.015700	3.817200	-11.510000	22.060730	0.000971	20.797328
157.043575	-3.007800	3.816400	-11.478000	22.077629	0.000970	20.794332
158.037512	-3.005100	3.817800	-11.470000	22.081942	0.000970	20.801020
159.037477	-2.994000	3.817700	-11.430000	22.071549	0.000971	20.792512
160.038596	-3.003800	3.817800	-11.466000	22.085956	0.000973	20.811677
161.039656	-3.013700	3.817200	-11.502000	22.100988	0.000972	20.814397
162.036913	-2.982100	3.816700	-11.381000	22.077679	0.000972	20.794856
163.040062	-2.988200	3.816300	-11.403000	22.089197	0.000972	20.795955
164.037529	-2.984600	3.816100	-11.389000	22.097420	0.000973	20.791859
165.037074	-2.997700	3.816200	-11.438000	22.096374	0.000973	20.790812
166.039341	-2.985600	3.815000	-11.389000	22.094853	0.000974	20.806834
167.036965	-2.993800	3.814000	-11.418000	22.119281	0.000977	20.790037
168.039245	-3.007600	3.815500	-11.475000	22.117463	0.000971	20.810503
169.039583	-2.998000	3.815400	-11.437000	22.139772	0.000974	20.785422
170.038768	-2.999400	3.813200	-11.436000	22.119005	0.000975	20.793555
171.036730	-2.990400	3.814100	-11.405000	22.159487	0.000975	20.801367
172.038070	-3.005700	3.813300	-11.461000	22.146026	0.000977	20.806856
173.037684	-2.989400	3.813900	-11.400000	22.141017	0.000978	20.785246
174.039534	-3.014300	3.813500	-11.493000	22.188177	0.000978	20.801643
175.041001	-3.014600	3.812600	-11.492000	22.189373	0.000979	20.789563
176.040601	-3.007900	3.812600	-11.467000	22.185586	0.000977	20.809480
177.040916	-2.994300	3.811000	-11.410000	22.207046	0.000979	20.802517
178.043382	-3.009500	3.810900	-11.468000	22.228334	0.000979	20.780209
179.042039	-2.994000	3.812700	-11.415000	22.222351	0.000981	20.786072
180.040694	-2.997100	3.812400	-11.425000	22.241569	0.000981	20.784451
181.045285	-3.019700	3.810300	-11.505000	22.233893	0.000981	20.792413
182.041417	-3.015800	3.811700	-11.494000	22.228210	0.000980	20.781981
183.039431	-3.021200	3.809200	-11.506000	22.237183	0.000980	20.787646
184.042332	-3.001400	3.810500	-11.436000	22.223725	0.000979	20.789818
185.044069	-2.976800	3.811900	-11.345000	22.233746	0.000981	20.795585
186.042786	-2.983900	3.811800	-11.373000	22.248600	0.000982	20.805242
187.040477	-2.979700	3.811500	-11.355000	22.249049	0.000982	20.781984
188.045644	-2.983700	3.810900	-11.370000	22.282123	0.000980	20.797082
189.045617	-3.013500	3.809600	-11.479000	22.258845	0.000981	20.791792
190.044881	-3.007000	3.808600	-11.451000	22.283296	0.000986	20.784980
191.043696	-2.991900	3.810000	-11.399000	22.268913	0.000985	20.801873
192.051369	-2.999000	3.808500	-11.420000	22.269612	0.000987	20.790245
193.046654	-3.015600	3.807800	-11.481000	22.282123	0.000984	20.806091
194.047380	-3.003300	3.808500	-11.436000	22.294236	0.000984	20.794513
195.048923	-3.005400	3.808100	-11.444000	22.296527	0.000988	20.799177
196.047392	-3.006600	3.808100	-11.448000	22.307518	0.000987	20.809234
197.049524	-3.005000	3.806800	-11.438000	22.288155	0.000987	20.792691
198.050667	-3.008800	3.808200	-11.457000	22.274070	0.000990	20.807985
199.048576	-2.990300	3.807000	-11.383000	22.292266	0.000988	20.801074
200.046734	-3.002700	3.805700	-11.427000	22.285807	0.000988	20.785124
201.050993	-3.011200	3.805900	-11.458000	22.297970	0.000989	20.783079
202.046591	-2.990600	3.806200	-11.381000	22.308190	0.000991	20.790466
203.049684	-3.018300	3.806400	-11.488000	22.310803	0.000991	20.804463
204.052845	-2.992600	3.806600	-11.390000	22.367528	0.000988	20.798676
205.049269	-3.032000	3.803400	-11.531000	22.354468	0.000991	20.771848
206.051269	-3.009500	3.805600	-11.452000	22.343077	0.000991	20.790787
207.053581	-3.001500	3.805700	-11.422000	22.373629	0.000992	20.808105
208.052230	-2.991600	3.803400	-11.378000	22.376870	0.000991	20.792857
209.049168	-2.992400	3.804000	-11.383000	22.390155	0.000991	20.816592
210.051503	-2.991700	3.804900	-11.381000	22.406301	0.000994	20.789613
211.051179	-3.001200	3.805400	-11.419000	22.401268	0.000991	20.788841
212.050654	-3.021600	3.804100	-11.494000	22.400294	0.000996	20.794503
213.052785	-2.988600	3.805000	-11.371000	22.396533	0.000993	20.796427
214.048358	-2.989800	3.804600	-11.374000	22.408095	0.000996	20.773866
215.049950	-2.992500	3.803900	-11.383000	22.445225	0.000997	20.787341
216.048558	-3.019200	3.801600	-11.476000	22.446470	0.000998	20.798545
217.049719	-3.007500	3.801800	-11.433000	22.448364	0.000997	20.804709
218.048888	-3.010900	3.802700	-11.448000	22.469568	0.000998	20.812668
219.049048	-3.000100	3.803300	-11.409000	22.485715	0.000998	20.798019
220.049449	-3.012800	3.802600	-11.455000	22.487882	0.001000	20.805404
221.052169	-2.992400	3.802600	-11.378000	22.498722	0.000999	20.792552
222.048102	-2.999400	3.802100	-11.402000	22.481900	0.001002	20.801785
223.053677	-2.995300	3.803100	-11.390000	22.514269	0.001002	20.803855
224.051312	-2.994000	3.801500	-11.381000	22.520671	0.001003	20.804578
225.051928	-3.006500	3.800800	-11.427000	22.540603	0.001002	20.790400
226.055461	-3.007700	3.801600	-11.434000	22.543295	0.001005	20.813959
227.053929	-2.999900	3.800700	-11.400000	22.550067	0.001005	20.789447
228.055822	-3.007500	3.800100	-11.428000	22.573738	0.001006	20.822164
229.054875	-3.008700	3.799300	-11.430000	22.571867	0.001006	20.810807
230.057232	-2.982200	3.800800	-11.333000	22.595513	0.001006	20.825955
231.053777	-3.005000	3.800300	-11.419000	22.604282	0.001007	20.814824
232.055638	-3.009000	3.798400	-11.427000	22.627501	0.001004	20.803467
233.057816	-2.980600	3.800600	-11.327000	22.615914	0.001007	20.823629
234.054072	-2.993300	3.798400	-11.369000	22.630315	0.001007	20.813397
235.053243	-3.000100	3.798200	-11.393000	22.673393	0.001007	20.795379
236.058169	-2.983600	3.798500	-11.331000	22.673115	0.001008	20.815015
237.059155	-2.982500	3.799500	-11.331000	22.686023	0.001009	20.802814
238.058218	-3.002300	3.797700	-11.400000	22.663747	0.001007	20.803261
239.060905	-3.005700	3.797500	-11.413000	22.694640	0.001010	20.811920
240.058352	-3.002900	3.797000	-11.401000	22.700641	0.001009	20.817930
241.055516	-2.999800	3.797100	-11.388000	22.692393	0.001010	20.820100
242.057028	-3.003800	3.797400	-11.404000	22.701486	0.001011	20.832527
243.059482	-2.992500	3.796800	-11.360000	22.722859	0.001011	20.825961
244.059608	-3.012100	3.794500	-11.428000	22.704520	0.001011	20.818023
245.057863	-2.988700	3.797000	-11.347000	22.679808	0.001011	20.837840
246.056169	-2.993800	3.795900	-11.363000	22.693306	0.001013	20.833816
247.059133	-3.012500	3.794900	-11.430000	22.706634	0.001013	20.834365
248.056855	-3.008900	3.795000	-11.416000	22.719014	0.001013	20.826377
249.060742	-2.997200	3.794700	-11.372000	22.735579	0.001013	20.833012
250.059920	-3.012300	3.793100	-11.423000	22.752374	0.001012	20.827551
251.063834	-2.978800	3.795800	-11.306000	22.775786	0.001014	20.819709
252.064809	-2.982700	3.795100	-11.319000	22.769905	0.001016	20.809551
253.063117	-2.995800	3.793700	-11.364000	22.781863	0.001015	20.813943
254.059532	-3.019700	3.793600	-11.453000	22.780963	0.001015	20.832956
255.064283	-2.992300	3.793000	-11.348000	22.801267	0.001016	20.853768
256.063016	-2.978600	3.793300	-11.298000	22.808042	0.001016	20.815038
257.062552	-3.021300	3.791400	-11.453000	22.814170	0.001020	20.809323
258.061851	-2.982400	3.793500	-11.312000	22.796705	0.001016	20.828811
259.062471	-2.984700	3.793500	-11.321000	22.800043	0.001017	20.825043
260.062243	-3.017800	3.792700	-11.445000	22.790921	0.001020	20.834871
261.063034	-2.997500	3.792500	-11.367000	22.779762	0.001019	20.824167
262.066905	-3.004800	3.792000	-11.393000	22.791643	0.001020	20.829430
263.068085	-2.982500	3.792400	-11.310000	22.796847	0.001021	20.816626
264.063557	-2.983200	3.792200	-11.311000	22.806090	0.001021	20.842954
265.068396	-3.011900	3.790400	-11.414000	22.799662	0.001021	20.850739
266.069108	-2.992800	3.791400	-11.346000	22.803546	0.001022	20.838034
267.064087	-3.006000	3.791300	-11.396000	22.814331	0.001022	20.854053
268.071460	-3.010500	3.791300	-11.412000	22.832292	0.001023	20.835063
269.066940	-2.991500	3.790000	-11.337000	22.848281	0.001023	20.830692
270.066241	-2.988800	3.789100	-11.323000	22.849153	0.001023	20.810703
271.067389	-3.008200	3.788900	-11.397000	22.848754	0.001025	20.848709
272.069589	-3.020800	3.788700	-11.444000	22.854555	0.001025	20.844090
273.069426	-2.981800	3.788600	-11.294000	22.873039	0.001026	20.830365
274.069977	-3.005400	3.788300	-11.384000	22.871292	0.001027	20.838572
275.067630	-3.009700	3.788200	-11.400000	22.893663	0.001027	20.837750
276.070054	-3.005000	3.787700	-11.380000	22.911918	0.001026	20.842288
277.070414	-3.010800	3.787200	-11.401000	22.910025	0.001029	20.842288
278.069090	-2.983800	3.787800	-11.301000	22.920162	0.001029	20.833478
279.068352	-2.990600	3.787700	-11.327000	22.949502	0.001027	20.821623
280.071957	-3.006200	3.786800	-11.382000	22.959763	0.001030	20.836170
281.070304	-2.981400	3.786500	-11.288000	22.964246	0.001030	20.856781
282.072381	-3.000400	3.785900	-11.358000	22.945635	0.001031	20.828654
283.071846	-3.020100	3.786300	-11.434000	22.974204	0.001032	20.852535
284.073883	-2.988900	3.786600	-11.316000	22.958213	0.001031	20.837936
285.069659	-2.992900	3.786400	-11.332000	22.981675	0.001033	20.833468
286.075334	-3.007000	3.785000	-11.381000	22.964014	0.001032	20.839480
287.075616	-3.002000	3.784200	-11.359000	22.978881	0.001033	20.841573
288.073182	-3.024100	3.783200	-11.438000	22.968343	0.001033	20.844292
289.072091	-2.987100	3.784700	-11.303000	22.983661	0.001032	20.857267
290.075549	-2.990900	3.785700	-11.321000	23.023010	0.001034	20.847855
291.072128	-3.005200	3.783000	-11.367000	23.028089	0.001034	20.863375
292.074434	-2.992600	3.783300	-11.321000	23.010877	0.001033	20.849449
293.072055	-3.002700	3.784100	-11.362000	23.023979	0.001033	20.862102
294.074355	-2.994800	3.783700	-11.330000	23.047937	0.001036	20.864296
295.071250	-2.996700	3.781600	-11.331000	23.083899	0.001036	20.862872
296.073210	-2.996300	3.781500	-11.330000	23.083498	0.001035	20.872427
297.076291	-2.991100	3.782900	-11.314000	23.060733	0.001038	20.850565
298.074647	-3.004900	3.783300	-11.366000	23.085713	0.001037	20.859474
299.073770	-2.990900	3.784200	-11.317000	23.084790	0.001037	20.861868
300.080281	-2.979900	3.782800	-11.270000	23.106158	0.001038	20.853408
301.074547	-3.002500	3.781500	-11.353000	23.095946	0.001037	20.867830
302.073649	-2.987900	3.782500	-11.300000	23.120773	0.001037	20.866630
303.074779	-2.988600	3.780200	-11.297000	23.114124	0.001041	20.877035
304.074421	-3.011100	3.781300	-11.385000	23.088272	0.001040	20.859193
305.075901	-3.012100	3.778900	-11.382000	23.083912	0.001040	20.856720
306.076543	-2.999000	3.780500	-11.337000	23.101017	0.001041	20.849679
307.081820	-2.994200	3.780600	-11.319000	23.090983	0.001043	20.862383
308.076318	-3.015500	3.778400	-11.393000	23.100120	0.001040	20.865375
309.075275	-2.997800	3.780500	-11.332000	23.107243	0.001041	20.858762
310.074570	-3.012600	3.778300	-11.379000	23.129156	0.001042	20.855116
311.077169	-3.021700	3.778200	-11.414000	23.103354	0.001044	20.873830
312.082061	-2.994500	3.776700	-11.308000	23.127212	0.001044	20.862650
313.078616	-2.979000	3.778600	-11.255000	23.125416	0.001043	20.871282
314.077913	-2.963100	3.779400	-11.196000	23.132613	0.001044	20.876597
315.080334	-3.015100	3.776400	-11.385000	23.149396	0.001045	20.870180
316.082286	-3.009800	3.777800	-11.369000	23.179032	0.001044	20.880911
317.086171	-2.981100	3.777000	-11.259000	23.181995	0.001045	20.901897
318.084982	-3.011800	3.776100	-11.371000	23.198353	0.001048	20.872773
319.081811	-2.990300	3.776600	-11.292000	23.196758	0.001048	20.879234
320.082798	-2.979500	3.776400	-11.251000	23.164806	0.001047	20.864286
321.083283	-2.984800	3.776200	-11.270000	23.174393	0.001048	20.880530
322.083065	-2.987200	3.776300	-11.280000	23.188536	0.001047	20.878582
323.086167	-3.003400	3.774300	-11.335000	23.211669	0.001049	20.881849
324.083004	-3.020400	3.774700	-11.400000	23.215754	0.001048	20.889261
325.083287	-3.007400	3.774300	-11.349000	23.207235	0.001049	20.872665
326.085562	-2.979800	3.775300	-11.249000	23.207382	0.001051	20.861433
327.081996	-3.016300	3.773900	-11.382000	23.220655	0.001050	20.865251
328.084299	-2.998100	3.772600	-11.309000	23.240601	0.001052	20.893773
329.085328	-3.007400	3.773000	-11.346000	23.255543	0.001051	20.895945
330.085772	-2.991100	3.773500	-11.286000	23.252576	0.001052	20.875429
331.085608	-2.995400	3.772900	-11.300000	23.272497	0.001051	20.892547
332.085061	-2.996000	3.774200	-11.307000	23.274910	0.001051	20.889276
333.090957	-2.984800	3.772700	-11.260000	23.293662	0.001051	20.887206
334.088523	-2.982500	3.773900	-11.254000	23.306310	0.001052	20.879494
335.083833	-2.991200	3.773500	-11.286000	23.285193	0.001054	20.901477
336.091585	-2.995200	3.773000	-11.300000	23.279764	0.001052	20.894140
337.085070	-3.001300	3.771000	-11.317000	23.304490	0.001054	20.881463
338.085424	-2.996200	3.771400	-11.298000	23.309221	0.001052	20.893316
339.089929	-2.992000	3.770100	-11.280000	23.313427	0.001052	20.898953
340.086018	-2.993200	3.770900	-11.286000	23.284867	0.001053	20.894512
341.089380	-3.002700	3.770000	-11.320000	23.276249	0.001054	20.911953
342.088994	-3.008400	3.769200	-11.337000	23.266413	0.001054	20.907785
343.088564	-3.001600	3.768700	-11.311000	23.283047	0.001053	20.907860
344.090732	-2.992300	3.769100	-11.276000	23.297740	0.001053	20.887026
345.089525	-2.991100	3.769800	-11.275000	23.290691	0.001054	20.902719
346.093445	-2.997700	3.768200	-11.295000	23.308023	0.001056	20.903020
347.094817	-2.998100	3.768600	-11.297000	23.322414	0.001054	20.921708
348.091537	-3.003200	3.767300	-11.311000	23.331103	0.001058	20.894384
349.094760	-2.995300	3.766800	-11.281000	23.343904	0.001056	20.887773
350.095304	-3.033100	3.765700	-11.421000	23.338499	0.001057	20.922183
351.093879	-3.006400	3.766400	-11.323000	23.380054	0.001056	20.907883
352.106368	-3.034400	3.765700	-11.426000	23.385260	0.001057	20.905988
353.095616	-3.019100	3.767000	-11.371000	23.395193	0.001059	20.917365
354.095545	-2.995600	3.765300	-11.278000	23.380852	0.001058	20.906786
355.103258	-3.007800	3.766100	-11.326000	23.409957	0.001058	20.889966
356.102069	-3.011300	3.766200	-11.340000	23.400221	0.001059	20.911974
357.101457	-3.010000	3.765100	-11.330000	23.415683	0.001060	20.901869
358.093182	-2.991700	3.765200	-11.263000	23.412072	0.001061	20.906309
359.094962	-2.980700	3.765000	-11.221000	23.401739	0.001061	20.907806
360.098105	-2.994600	3.764600	-11.271000	23.388841	0.001061	20.883026
361.099426	-3.000200	3.764100	-11.291000	23.394094	0.001061	20.904885
362.101294	-2.982800	3.763900	-11.226000	23.405745	0.001060	20.916562
363.105555	-2.985300	3.763500	-11.234000	23.421356	0.001064	20.906606
364.095197	-2.988100	3.762900	-11.243000	23.447023	0.001062	20.928063
365.099261	-2.992200	3.762800	-11.258000	23.459174	0.001063	20.913691
366.103780	-2.971300	3.763200	-11.181000	23.468234	0.001061	20.915185
367.102866	-3.023400	3.760900	-11.369000	23.478740	0.001064	20.933775
368.098274	-3.004800	3.761000	-11.300000	23.491735	0.001064	20.919775
369.099506	-2.989300	3.762500	-11.246000	23.503635	0.001063	20.895670
370.094478	-3.021200	3.760400	-11.360000	23.498008	0.001063	20.912314
371.102926	-2.995800	3.761200	-11.267000	23.485185	0.001063	20.913211
372.102466	-3.021400	3.759300	-11.357000	23.473656	0.001062	20.901656
373.096414	-3.021300	3.758800	-11.356000	23.485730	0.001064	20.931773
374.099882	-2.989700	3.760900	-11.242000	23.497955	0.001063	20.922691
375.099653	-2.986100	3.759600	-11.225000	23.509830	0.001064	20.919896
376.098194	-3.026100	3.759500	-11.376000	23.538607	0.001064	20.911285
377.099894	-3.018800	3.758300	-11.344000	23.523843	0.001065	20.936786
378.095768	-3.008100	3.758000	-11.303000	23.549933	0.001064	20.900354
379.097141	-2.999400	3.759300	-11.275000	23.535668	0.001064	20.922563
380.099827	-2.993900	3.758400	-11.251000	23.564670	0.001066	20.910385
381.104344	-3.012300	3.757400	-11.318000	23.524936	0.001067	20.949733
382.107137	-3.019800	3.756900	-11.344000	23.553490	0.001066	20.931418
383.101802	-3.002000	3.758300	-11.281000	23.520129	0.001068	20.928323
384.096259	-2.970200	3.757100	-11.158000	23.539523	0.001065	20.928323
385.099053	-3.021600	3.755300	-11.346000	23.559811	0.001068	20.931116
386.105820	-2.977700	3.756500	-11.185000	23.556051	0.001067	20.939674
387.096329	-3.012800	3.756400	-11.316000	23.560407	0.001068	20.935981
388.109378	-2.999800	3.755400	-11.264000	23.569591	0.001067	20.915317
389.099318	-3.011100	3.754900	-11.305000	23.617137	0.001069	20.923151
390.101092	-3.001000	3.755800	-11.271000	23.633741	0.001069	20.926046
391.107614	-2.994500	3.755600	-11.245000	23.654950	0.001069	20.946357
392.103486	-2.999100	3.754600	-11.259000	23.658059	0.001071	20.948051
393.108656	-2.989600	3.753400	-11.220000	23.684918	0.001071	20.948426
394.102160	-2.988300	3.755400	-11.221000	23.702540	0.001071	20.938120
395.101907	-2.990000	3.754100	-11.224000	23.683224	0.001071	20.929187
396.102788	-3.002600	3.753900	-11.271000	23.683297	0.001071	20.939215
397.104349	-2.996800	3.752500	-11.245000	23.663009	0.001072	20.949221
398.101920	-3.003500	3.752200	-11.269000	23.671894	0.001071	20.940112
399.101297	-3.008500	3.752700	-11.290000	23.664379	0.001069	20.956283
400.101294	-2.992000	3.753600	-11.230000	23.658726	0.001073	20.937816
401.107510	-3.014000	3.751900	-11.308000	23.675751	0.001073	20.944451
402.104408	-3.008200	3.750900	-11.283000	23.683665	0.001074	20.935792
403.104580	-3.005000	3.752000	-11.274000	23.697729	0.001073	20.942305
404.106828	-3.004200	3.751100	-11.269000	23.712688	0.001074	20.927432
405.106400	-2.996800	3.749800	-11.237000	23.711368	0.001072	20.956451
406.106098	-3.006600	3.750200	-11.275000	23.749873	0.001074	20.955702
407.110727	-3.014900	3.750100	-11.305000	23.742579	0.001074	20.959768
408.107550	-3.001800	3.748900	-11.252000	23.762318	0.001073	20.949688
409.105100	-3.016000	3.747300	-11.301000	23.781755	0.001075	20.944995
410.108470	-2.988200	3.748400	-11.200000	23.795391	0.001075	20.955820
411.106066	-2.993100	3.748800	-11.220000	23.793776	0.001075	20.958468
412.106909	-2.977500	3.748800	-11.160000	23.798129	0.001077	20.933913
413.107941	-2.988500	3.749100	-11.203000	23.777345	0.001073	20.952899
414.106801	-2.996600	3.747800	-11.230000	23.776723	0.001076	20.934735
415.106890	-2.990000	3.747600	-11.205000	23.765272	0.001076	20.955494
416.108481	-3.021500	3.746900	-11.320000	23.801907	0.001076	20.930114
417.108939	-3.005100	3.747200	-11.260000	23.774528	0.001075	20.914045
418.109118	-3.008000	3.746700	-11.269000	23.771988	0.001076	20.946582
419.111755	-2.997000	3.746600	-11.228000	23.779803	0.001075	20.945882
420.110081	-2.993200	3.745900	-11.211000	23.818083	0.001077	20.955339
421.111530	-3.009200	3.746400	-11.273000	23.810515	0.001075	20.936373
422.119186	-2.993700	3.745500	-11.211000	23.810987	0.001076	20.935425
423.110534	-2.983700	3.746000	-11.176000	23.845234	0.001076	20.928513
424.110409	-3.000700	3.744400	-11.234000	23.839187	0.001075	20.939518
425.111899	-2.992400	3.744200	-11.202000	23.834481	0.001076	20.934800
426.111424	-3.001800	3.744100	-11.237000	23.866961	0.001077	20.926591
427.112288	-2.978800	3.743800	-11.151000	23.838937	0.001078	20.931682
428.112117	-2.993700	3.743600	-11.207000	23.830277	0.001079	20.917784
429.117181	-3.018800	3.741600	-11.293000	23.841674	0.001075	20.920676
430.114570	-3.002400	3.741700	-11.234000	23.813453	0.001076	20.922252
431.113054	-3.014900	3.741800	-11.280000	23.809443	0.001079	20.924869
432.114966	-3.002200	3.741500	-11.232000	23.813352	0.001078	20.932581
433.115001	-2.965800	3.741800	-11.096000	23.807403	0.001080	20.930883
434.113685	-3.001100	3.741800	-11.228000	23.788563	0.001077	20.918159
435.114982	-2.989200	3.741400	-11.183000	23.786820	0.001075	20.923049
436.112747	-2.990100	3.741900	-11.187000	23.810141	0.001079	20.920827
437.112710	-3.007100	3.739400	-11.243000	23.799116	0.001080	20.918308
438.115201	-3.005300	3.740200	-11.239000	23.790231	0.001078	20.898971
439.113131	-3.011100	3.739600	-11.259000	23.765017	0.001079	20.926318
440.112668	-2.995700	3.739800	-11.201000	23.777637	0.001079	20.925695
441.113399	-3.007700	3.740400	-11.249000	23.795533	0.001077	20.905708
442.117116	-2.975900	3.739500	-11.127000	23.795208	0.001078	20.911072
443.114316	-2.986300	3.739700	-11.167000	23.788513	0.001079	20.894878
444.114326	-3.002200	3.740200	-11.227000	23.810839	0.001077	20.912993
445.118752	-3.021000	3.737600	-11.290000	23.817186	0.001079	20.921254
446.115008	-2.989100	3.739100	-11.177000	23.850288	0.001077	20.908453
447.114558	-2.984500	3.737700	-11.154000	23.867710	0.001080	20.893207
448.119202	-2.994600	3.737800	-11.193000	23.877268	0.001080	20.920806
449.115177	-2.998800	3.736700	-11.204000	23.885381	0.001081	20.897175
450.116385	-2.973100	3.737300	-11.110000	23.920497	0.001079	20.882128
451.117367	-3.002200	3.735900	-11.215000	23.898221	0.001079	20.895826
452.117718	-2.986100	3.735800	-11.154000	23.905066	0.001080	20.922601
453.115860	-2.983300	3.736600	-11.146000	23.898745	0.001077	20.910575
454.116917	-2.993900	3.735200	-11.181000	23.908153	0.001080	20.911947
455.117609	-3.008200	3.734500	-11.233000	23.896158	0.001078	20.887120
456.119600	-3.000600	3.734300	-11.205000	23.904494	0.001079	20.897848
457.116717	-2.981000	3.735200	-11.132000	23.901359	0.001080	20.885223
458.119725	-2.981300	3.734300	-11.132000	23.933887	0.001080	20.891287
459.119122	-2.980800	3.734300	-11.130000	23.949141	0.001079	20.884774
460.118572	-2.981700	3.734300	-11.133000	23.956036	0.001081	20.904962
461.118950	-3.017900	3.731500	-11.260000	23.966611	0.001079	20.894705
462.119552	-3.018600	3.733200	-11.268000	23.955265	0.001082	20.869105
463.125575	-3.018800	3.732300	-11.266000	24.004711	0.001080	20.912049
464.119589	-2.996300	3.732900	-11.183000	23.999583	0.001080	20.896950
465.119924	-2.999200	3.732400	-11.192000	24.000879	0.001080	20.893509
466.120805	-2.983400	3.732400	-11.134000	23.984927	0.001078	20.879409
467.122801	-2.970800	3.732700	-11.088000	24.008345	0.001081	20.893883
468.123272	-2.993400	3.731400	-11.169000	23.993190	0.001080	20.881057
469.122847	-3.017900	3.729800	-11.255000	23.971292	0.001084	20.882331
470.122972	-2.997400	3.729400	-11.177000	23.961014	0.001081	20.880558
471.125012	-2.986700	3.729500	-11.138000	23.965145	0.001082	20.885175
472.127806	-3.006000	3.727900	-11.205000	23.982067	0.001081	20.880335
473.127045	-2.979300	3.730300	-11.112000	23.956832	0.001082	20.884900
474.123814	-3.001100	3.728700	-11.189000	23.936502	0.001083	20.876842
475.127684	-2.999200	3.727200	-11.177000	23.923312	0.001082	20.893960
476.124629	-3.006300	3.727200	-11.205000	23.903653	0.001082	20.878040
477.124518	-3.015300	3.727000	-11.236000	23.908107	0.001084	20.880136
478.135754	-2.982200	3.728500	-11.119000	23.926399	0.001085	20.880461
479.127012	-3.003500	3.726500	-11.191000	23.931601	0.001082	20.873823
480.125770	-2.993000	3.726100	-11.150000	23.992021	0.001084	20.878463
481.123915	-2.980600	3.727400	-11.109000	23.986872	0.001084	20.865713
482.127709	-2.981700	3.726200	-11.109000	24.007948	0.001083	20.872624
483.124557	-3.022000	3.725700	-11.257000	24.023004	0.001083	20.886773
484.124871	-2.970100	3.726700	-11.067000	24.007624	0.001084	20.874670
485.126274	-3.015500	3.724400	-11.230000	24.047911	0.001085	20.886148
486.125648	-3.015300	3.723600	-11.227000	24.038080	0.001085	20.862540
487.126618	-2.979000	3.724900	-11.096000	24.044078	0.001085	20.869028
488.126762	-3.012600	3.723700	-11.216000	24.053385	0.001086	20.895430
489.127490	-2.994600	3.724500	-11.152000	24.049501	0.001085	20.857873
490.126410	-2.988200	3.723700	-11.126000	24.073888	0.001083	20.888966
491.127152	-2.986700	3.724900	-11.124000	24.066171	0.001082	20.886443
492.127925	-3.009800	3.722100	-11.201000	24.040343	0.001083	20.867180
493.128741	-3.000500	3.722300	-11.167000	24.014810	0.001086	20.870023
494.128913	-2.997300	3.721800	-11.155000	24.018991	0.001083	20.869474
495.128739	-2.993600	3.721900	-11.141000	24.034618	0.001086	20.868077
496.128083	-3.009300	3.722000	-11.199000	24.042854	0.001083	20.864482
497.132745	-2.996500	3.720800	-11.148000	24.057882	0.001084	20.879553
498.133572	-2.995500	3.721100	-11.146000	24.042154	0.001084	20.860936
499.127913	-3.012000	3.720500	-11.204000	24.065346	0.001084	20.878029
500.131774	-2.999400	3.720100	-11.158000	24.094784	0.001086	20.869147
501.130232	-2.997600	3.719400	-11.148000	24.092271	0.001082	20.878006
502.132353	-3.010300	3.719000	-11.195000	24.111950	0.001082	20.866924
503.131228	-3.002500	3.718600	-11.164000	24.143226	0.001082	20.867947
504.132149	-2.960900	3.719000	-11.010000	24.135939	0.001082	20.854474
505.133592	-2.960600	3.719500	-11.011000	24.116903	0.001081	20.864305
506.133034	-3.001400	3.718700	-11.161000	24.103841	0.001083	20.870170
507.134009	-2.994400	3.717000	-11.129000	24.111727	0.001082	20.851054
508.132808	-3.005900	3.718300	-11.175000	24.114390	0.001081	20.862259
509.133008	-3.004300	3.717600	-11.168000	24.121827	0.001082	20.872088
510.134939	-2.990900	3.716600	-11.115000	24.117999	0.001082	20.881050
511.135221	-3.008200	3.716300	-11.178000	24.123447	0.001082	20.875609
512.134702	-2.981800	3.718100	-11.086000	24.098015	0.001084	20.839673
513.133867	-2.998600	3.716200	-11.142000	24.120959	0.001083	20.856520
514.133042	-3.008800	3.714700	-11.176000	24.142258	0.001084	20.866501
515.133078	-2.985000	3.715800	-11.090000	24.179033	0.001084	20.840325
516.133490	-2.997100	3.714500	-11.133000	24.188661	0.001082	20.846663
517.138158	-3.008400	3.715900	-11.177000	24.165049	0.001083	20.862808
518.134149	-2.995200	3.714700	-11.124000	24.177912	0.001083	20.859588
519.133530	-3.004600	3.713200	-11.156000	24.181196	0.001083	20.840124
520.137957	-2.999200	3.713700	-11.137000	24.188661	0.001082	20.859938
521.134666	-3.001900	3.712700	-11.144000	24.211374	0.001083	20.850953
522.135954	-2.988800	3.713600	-11.098000	24.236106	0.001084	20.870069
523.137631	-2.979100	3.713500	-11.062000	24.216151	0.001085	20.852425
524.136743	-3.025900	3.712500	-11.232000	24.214460	0.001083	20.843617
525.136318	-3.008600	3.712100	-11.167000	24.254391	0.001082	20.841470
526.139673	-2.995900	3.712500	-11.121000	24.266580	0.001085	20.843265
527.140825	-3.009900	3.710600	-11.167000	24.287703	0.001081	20.844064
528.135781	-2.982600	3.712500	-11.072000	24.293722	0.001081	20.844887
529.140128	-3.016500	3.710400	-11.192000	24.287577	0.001082	20.851525
530.140302	-3.009200	3.710800	-11.166000	24.310962	0.001081	20.841791
531.138593	-2.991600	3.711800	-11.102000	24.303448	0.001084	20.854643
532.139689	-3.032300	3.707700	-11.242000	24.320737	0.001086	20.837847
533.139274	-2.974000	3.710500	-11.034000	24.293072	0.001084	20.841864
534.137265	-2.988700	3.710200	-11.088000	24.252394	0.001084	20.857010
535.141012	-3.008500	3.707400	-11.153000	24.255652	0.001083	20.837045
536.139758	-2.994600	3.708800	-11.105000	24.268614	0.001083	20.837719
537.139794	-2.995100	3.709700	-11.109000	24.267869	0.001082	20.862101
538.139449	-3.005000	3.708900	-11.144000	24.252913	0.001084	20.840461
539.141773	-2.993100	3.708400	-11.099000	24.252114	0.001084	20.858626
540.141306	-2.993000	3.705900	-11.090000	24.248830	0.001083	20.858176
541.140411	-2.969000	3.707600	-11.006000	24.263185	0.001084	20.830851
542.147807	-3.023000	3.705600	-11.201000	24.285550	0.001084	20.857077
543.138626	-3.029000	3.705200	-11.221000	24.318561	0.001082	20.845622
544.141180	-3.006900	3.705200	-11.139000	24.328886	0.001083	20.848866
545.142146	-3.000600	3.705800	-11.119000	24.312863	0.001084	20.847966
546.142596	-3.023500	3.704400	-11.198000	24.289801	0.001081	20.845220
547.141391	-3.008200	3.705300	-11.146000	24.298507	0.001081	20.848264
548.144037	-3.016900	3.703600	-11.171000	24.277684	0.001081	20.841127
549.143301	-3.004800	3.703000	-11.126000	24.279076	0.001083	20.842049
550.142617	-3.000100	3.703700	-11.110000	24.303954	0.001084	20.849461
551.142519	-2.996200	3.703000	-11.094000	24.285445	0.001082	20.860765
552.140073	-3.000700	3.703800	-11.112000	24.278279	0.001080	20.837931
553.143610	-2.988000	3.703400	-11.064000	24.294202	0.001081	20.827825
554.142737	-2.970800	3.703300	-11.001000	24.297360	0.001082	20.855174
555.143002	-3.014700	3.701700	-11.159000	24.274324	0.001082	20.829222
556.141576	-3.014500	3.700800	-11.155000	24.284125	0.001082	20.824355
557.142744	-3.009100	3.701100	-11.136000	24.321190	0.001081	20.818388
558.141696	-3.003700	3.701000	-11.115000	24.328257	0.001080	20.843020
559.143508	-2.996800	3.701600	-11.091000	24.371716	0.001082	20.851528
560.142542	-3.002400	3.701200	-11.112000	24.352436	0.001082	20.832188
561.142395	-2.988300	3.700000	-11.055000	24.382859	0.001081	20.830465
562.144578	-2.983500	3.701100	-11.040000	24.394151	0.001079	20.822828
563.142886	-2.985100	3.700600	-11.046000	24.401390	0.001081	20.831986
564.145012	-2.987700	3.700400	-11.055000	24.394127	0.001081	20.841768
565.144842	-3.024200	3.699400	-11.187000	24.403156	0.001081	20.832335
566.145590	-3.009300	3.699800	-11.133000	24.397633	0.001082	20.828691
567.144863	-3.004600	3.699900	-11.115000	24.378627	0.001079	20.822900
568.144492	-3.008600	3.698900	-11.129000	24.369620	0.001080	20.837572
569.144483	-2.996900	3.697900	-11.081000	24.313198	0.001079	20.842612
570.146810	-3.002400	3.696500	-11.096000	24.345091	0.001079	20.826243
571.145749	-3.016900	3.696900	-11.152000	24.328001	0.001080	20.844185
572.145181	-3.005000	3.696200	-11.106000	24.347504	0.001078	20.824870
573.151707	-3.019200	3.696300	-11.159000	24.385341	0.001080	20.818257
574.148438	-2.986400	3.697000	-11.040000	24.363647	0.001081	20.821624
575.148976	-2.966700	3.695800	-10.963000	24.359468	0.001080	20.819802
576.150502	-3.004800	3.694800	-11.101000	24.388821	0.001077	20.828860
577.148459	-3.005200	3.695700	-11.105000	24.373946	0.001081	20.825792
578.149421	-3.000200	3.694900	-11.085000	24.400636	0.001079	20.830755
579.151810	-3.004800	3.693300	-11.096000	24.398920	0.001078	20.823819
580.150133	-2.997900	3.693600	-11.072000	24.420463	0.001081	20.827887
581.149689	-2.998700	3.693800	-11.076000	24.389391	0.001080	20.824691
582.153389	-3.002900	3.693600	-11.089000	24.367674	0.001078	20.836095
583.151293	-2.988400	3.692900	-11.034000	24.356603	0.001081	20.806023
584.151021	-3.005700	3.693000	-11.099000	24.344688	0.001079	20.813036
585.150884	-2.994500	3.692400	-11.056000	24.367450	0.001080	20.807421
586.151370	-2.992700	3.693500	-11.051000	24.398469	0.001081	20.813409
587.151534	-2.996800	3.691800	-11.062000	24.443965	0.001078	20.829654
588.154266	-3.022100	3.690000	-11.150000	24.440581	0.001078	20.801603
589.152638	-3.016200	3.692200	-11.135000	24.457022	0.001077	20.810037
590.152777	-3.001800	3.692400	-11.083000	24.458190	0.001076	20.802674
591.153194	-2.995900	3.691000	-11.056000	24.490950	0.001078	20.836963
592.153140	-3.003800	3.689100	-11.081000	24.474259	0.001076	20.818795
593.152563	-2.988300	3.691700	-11.030000	24.447842	0.001077	20.813629
594.152942	-2.993900	3.689800	-11.046000	24.435850	0.001076	20.821986
595.155788	-2.982700	3.690800	-11.007000	24.432890	0.001076	20.830397
596.153855	-3.004000	3.690100	-11.084000	24.397866	0.001076	20.825131
597.151817	-2.996600	3.689900	-11.054000	24.354830	0.001076	20.813253
598.157285	-2.996400	3.688500	-11.050000	24.337267	0.001076	20.812704
599.154555	-3.008000	3.689200	-11.096000	24.312686	0.001077	20.808909
600.155598	-3.012600	3.686100	-11.103000	24.312762	0.001076	20.808986
601.154591	-2.997400	3.687500	-11.052000	24.317463	0.001075	20.799002
602.154107	-3.009300	3.686300	-11.091000	24.375600	0.001077	20.805166
603.157454	-2.990400	3.687400	-11.026000	24.383957	0.001075	20.795058
604.156114	-3.003100	3.686500	-11.071000	24.398213	0.001078	20.825954
605.156592	-3.006200	3.686500	-11.081000	24.423312	0.001077	20.803719
606.155883	-3.020300	3.684900	-11.128000	24.446568	0.001077	20.816144
607.157020	-3.005700	3.683900	-11.072000	24.459429	0.001075	20.805814
608.159370	-3.006400	3.684800	-11.077000	24.465097	0.001075	20.826673
609.159203	-3.005500	3.684500	-11.073000	24.456567	0.001075	20.792985
610.158837	-2.990200	3.685700	-11.019000	24.479822	0.001075	20.810627
611.158095	-2.990500	3.683800	-11.015000	24.470569	0.001077	20.788066
612.159974	-3.006900	3.684300	-11.077000	24.435919	0.001075	20.792185
613.161107	-2.997000	3.683200	-11.037000	24.459747	0.001073	20.820831
614.160501	-3.008400	3.683200	-11.080000	24.471512	0.001075	20.805134
615.161736	-2.985700	3.682900	-10.995000	24.500813	0.001074	20.812721
616.163168	-2.977000	3.683300	-10.963000	24.527353	0.001074	20.810424
617.161816	-3.010400	3.683000	-11.086000	24.532773	0.001075	20.799741
618.165070	-3.006000	3.681700	-11.066000	24.503324	0.001076	20.800066
619.167938	-2.996200	3.681700	-11.030000	24.500637	0.001076	20.812069
620.163045	-2.999800	3.681400	-11.041000	24.522648	0.001074	20.795747
621.164803	-2.980000	3.682600	-10.972000	24.519737	0.001073	20.803732
622.166492	-3.009600	3.680900	-11.076000	24.514540	0.001072	20.834079
623.164493	-3.000200	3.679200	-11.037000	24.525955	0.001073	20.798116
624.166224	-3.053400	3.678500	-11.230000	24.478843	0.001076	20.800635
625.167470	-3.009200	3.679400	-11.071000	24.451532	0.001073	20.801684
626.165198	-2.996200	3.679900	-11.025000	24.446930	0.001073	20.795645
627.168729	-2.990400	3.680300	-11.004000	24.478743	0.001075	20.815708
628.167910	-2.991400	3.680400	-11.008000	24.460287	0.001072	20.798614
629.166134	-2.994700	3.678900	-11.016000	24.479565	0.001071	20.795669
630.170045	-3.010000	3.679100	-11.072000	24.472723	0.001071	20.810143
631.168051	-2.969500	3.680100	-10.926000	24.495309	0.001070	20.784439
632.169318	-3.017200	3.677600	-11.094000	24.502970	0.001073	20.789754
633.172040	-3.028600	3.676600	-11.133000	24.520057	0.001071	20.779397
634.169989	-2.991800	3.678000	-11.002000	24.512546	0.001071	20.795568
635.169269	-2.994100	3.677400	-11.009000	24.533962	0.001069	20.818952
636.168153	-3.022800	3.676300	-11.112000	24.554780	0.001069	20.795270
637.172608	-2.996000	3.676400	-11.014000	24.608975	0.001071	20.813137
638.171027	-2.980700	3.676700	-10.958000	24.573011	0.001071	20.792699
639.169099	-2.982500	3.675600	-10.960000	24.568634	0.001071	20.791152
640.172374	-3.021100	3.674400	-11.099000	24.570922	0.001071	20.812414
641.172250	-2.995700	3.674200	-11.006000	24.590497	0.001073	20.787959
642.167487	-2.994100	3.675600	-11.004000	24.588010	0.001069	20.798740
643.172294	-3.002800	3.674500	-11.033000	24.612111	0.001071	20.788783
644.167989	-2.989500	3.674000	-10.983000	24.609474	0.001070	20.817905
645.167462	-2.984600	3.675500	-10.969000	24.644144	0.001069	20.791054
646.172837	-2.992500	3.673000	-10.991000	24.676251	0.001070	20.778227
647.170404	-2.979200	3.672900	-10.941000	24.665831	0.001068	20.800961
648.174043	-2.979900	3.674200	-10.947000	24.668367	0.001069	20.813937
649.173120	-3.006400	3.671200	-11.036000	24.652204	0.001070	20.789184
650.172825	-3.004400	3.671900	-11.030000	24.618680	0.001071	20.809125
651.170476	-2.998400	3.672400	-11.010000	24.638948	0.001070	20.793900
652.174744	-3.007800	3.672000	-11.044000	24.629449	0.001068	20.789111
653.172318	-2.997400	3.672000	-11.005000	24.634523	0.001066	20.786616
654.174923	-2.998800	3.671300	-11.008000	24.654669	0.001069	20.776484
655.174023	-2.984000	3.670800	-10.953000	24.646337	0.001067	20.790409
656.172281	-2.976000	3.672800	-10.928000	24.618059	0.001067	20.793329
657.172048	-3.004900	3.667900	-11.020000	24.618582	0.001067	20.790535
658.172896	-2.972900	3.671000	-10.911000	24.636962	0.001067	20.803287
659.173211	-3.025900	3.669800	-11.103000	24.651138	0.001066	20.790485
660.173372	-3.004800	3.669600	-11.025000	24.647209	0.001066	20.817363
661.172354	-2.995700	3.668100	-10.987000	24.665066	0.001066	20.796875
662.171437	-3.016900	3.666600	-11.060000	24.653202	0.001064	20.781176
663.174562	-3.017300	3.667500	-11.065000	24.666832	0.001064	20.792483
664.175332	-2.998700	3.667600	-10.997000	24.651685	0.001065	20.814267
665.177077	-3.017100	3.665800	-11.059000	24.659146	0.001064	20.791409
666.175626	-2.993700	3.667300	-10.978000	24.642160	0.001065	20.808977
667.175846	-2.989000	3.667100	-10.960000	24.650191	0.001065	20.803760
668.178738	-3.010900	3.665400	-11.036000	24.639847	0.001065	20.785319
669.175997	-2.990600	3.666400	-10.963000	24.650690	0.001064	20.787665
670.177728	-2.999600	3.666800	-10.997000	24.619552	0.001064	20.785818
671.179168	-2.999400	3.665100	-10.993000	24.590826	0.001064	20.806781
672.177408	-3.020200	3.662600	-11.059000	24.634100	0.001064	20.799942
673.176369	-2.999000	3.664600	-10.990000	24.629824	0.001063	20.802289
674.176686	-3.002400	3.663200	-10.998000	24.597343	0.001065	20.816638
675.177465	-2.967200	3.665300	-10.874000	24.609553	0.001060	20.798544
676.177542	-3.007000	3.663500	-11.015000	24.602266	0.001062	20.778905
677.179474	-2.995700	3.665100	-10.977000	24.629152	0.001060	20.810149
678.177711	-2.979200	3.664500	-10.914000	24.638726	0.001063	20.798894
679.184948	-3.031100	3.663300	-11.103000	24.651559	0.001061	20.792805
680.180229	-3.007600	3.661900	-11.012000	24.677052	0.001061	20.788514
681.180043	-3.027300	3.660400	-11.080000	24.687522	0.001063	20.782425
682.183878	-3.011600	3.662200	-11.028000	24.685632	0.001060	20.784795
683.180128	-2.998800	3.662700	-10.984000	24.661755	0.001060	20.803984
684.180188	-2.981600	3.661600	-10.916000	24.657180	0.001060	20.804609
685.178268	-2.963000	3.661700	-10.848000	24.658771	0.001061	20.801938
686.179675	-2.981200	3.662300	-10.916000	24.681376	0.001060	20.798068
687.184246	-3.000000	3.660400	-10.980000	24.681227	0.001062	20.794126
688.180561	-3.017900	3.659500	-11.043000	24.691996	0.001059	20.791182
689.180318	-3.015800	3.661100	-11.039000	24.708982	0.001060	20.798269
690.184484	-2.986400	3.658900	-10.925000	24.731065	0.001061	20.803360
691.182211	-2.989400	3.659100	-10.937000	24.745985	0.001062	20.806479
692.183285	-2.984100	3.660200	-10.922000	24.732357	0.001059	20.799915
693.185065	-3.001500	3.659700	-10.984000	24.721316	0.001057	20.819181
694.181860	-2.986200	3.658400	-10.923000	24.734098	0.001058	20.793602
695.183037	-3.003400	3.658600	-10.988000	24.711518	0.001061	20.814090
696.186497	-3.024200	3.656400	-11.057000	24.733452	0.001056	20.810497
697.188308	-3.023400	3.655900	-11.052000	24.766226	0.001055	20.801187
698.183592	-2.985500	3.657400	-10.918000	24.778312	0.001057	20.801462
699.194135	-2.978000	3.657900	-10.893000	24.807480	0.001057	20.810819
700.186518	-3.007300	3.656600	-10.995000	24.834533	0.001056	20.801935
701.186078	-2.994600	3.655000	-10.944000	24.821777	0.001058	20.798615
702.186038	-2.978300	3.656000	-10.888000	24.793553	0.001053	20.795895
703.186905	-2.988200	3.654700	-10.920000	24.776022	0.001057	20.797742
704.187634	-2.973800	3.655200	-10.868000	24.784578	0.001057	20.800164
705.186388	-2.980900	3.655500	-10.895000	24.790046	0.001053	20.819402
706.191904	-3.026400	3.652500	-11.054000	24.776219	0.001051	20.797465
707.187737	-3.018800	3.655500	-11.034000	24.785371	0.001056	20.808072
708.185827	-3.013200	3.653400	-11.007000	24.788853	0.001054	20.816308
709.185318	-3.025900	3.652700	-11.052000	24.746353	0.001053	20.804952
710.187013	-3.010500	3.653600	-10.997000	24.711015	0.001052	20.807896
711.187267	-2.994300	3.653300	-10.939000	24.718476	0.001056	20.805426
712.188274	-2.995200	3.653300	-10.942000	24.737723	0.001054	20.800559
713.190655	-2.972700	3.653700	-10.861000	24.762367	0.001055	20.804900
714.188348	-3.010800	3.652700	-10.997000	24.780420	0.001050	20.813060
715.188437	-3.000900	3.653200	-10.961000	24.801779	0.001054	20.810313
716.192497	-2.996700	3.651500	-10.941000	24.783204	0.001052	20.813009
717.188198	-3.025000	3.651100	-11.044000	24.818463	0.001052	20.827532
718.186731	-2.981800	3.651700	-10.887000	24.841985	0.001052	20.798034
719.189443	-3.005500	3.651100	-10.973000	24.857376	0.001052	20.839084
720.187541	-3.006000	3.651200	-10.974000	24.872743	0.001050	20.811360
721.189158	-2.984700	3.652100	-10.899000	24.905589	0.001051	20.817772
722.192863	-2.991900	3.650800	-10.921000	24.919687	0.001050	20.802525
723.189722	-3.008900	3.650000	-10.982000	24.902206	0.001051	20.840929
724.190105	-2.998700	3.650500	-10.946000	24.869161	0.001050	20.815350
725.193901	-3.005400	3.649200	-10.966000	24.867791	0.001050	20.815398
726.189801	-2.991400	3.648900	-10.912000	24.871473	0.001051	20.833318
727.191058	-2.973700	3.649600	-10.851000	24.834918	0.001050	20.829821
728.193928	-2.985700	3.649800	-10.896000	24.855209	0.001050	20.811305
729.191497	-3.020000	3.648100	-11.016000	24.867418	0.001050	20.823084
730.193276	-3.007200	3.648300	-10.969000	24.865626	0.001049	20.818440
731.196304	-3.005000	3.647400	-10.959000	24.882658	0.001049	20.809931
732.192753	-3.001100	3.646700	-10.943000	24.911375	0.001048	20.837804
733.193564	-3.031900	3.646200	-11.054000	24.909438	0.001047	20.842971
734.192047	-2.990900	3.647200	-10.908000	24.929874	0.001050	20.826973
735.192412	-2.996200	3.646300	-10.924000	24.914183	0.001048	20.813596
736.193523	-3.001200	3.646900	-10.945000	24.883352	0.001047	20.820584
737.195045	-2.977300	3.646700	-10.856000	24.884396	0.001048	20.841546
738.195940	-2.982400	3.645700	-10.872000	24.875369	0.001045	20.825848
739.195160	-2.979300	3.645500	-10.860000	24.821584	0.001047	20.804586
740.193189	-2.978100	3.646500	-10.859000	24.839115	0.001045	20.824076
741.194918	-2.997300	3.644400	-10.922000	24.787565	0.001045	20.828291
742.197757	-2.984400	3.644300	-10.875000	24.802162	0.001045	20.829664
743.196776	-3.012700	3.642600	-10.974000	24.815639	0.001047	20.823749
744.194954	-2.992500	3.643600	-10.901000	24.824018	0.001044	20.861554
745.195013	-2.995900	3.643500	-10.914000	24.839807	0.001044	20.824770
746.196006	-2.994900	3.642100	-10.906000	24.885334	0.001045	20.843910
747.196350	-2.979700	3.644200	-10.858000	24.872156	0.001045	20.834477
748.194840	-3.007500	3.641400	-10.949000	24.911366	0.001044	20.854389
749.196744	-3.010300	3.641700	-10.962000	24.917856	0.001043	20.833877
750.193756	-2.988300	3.641500	-10.881000	24.935434	0.001044	20.834925
751.198055	-2.998700	3.642600	-10.922000	24.959948	0.001042	20.847201
752.204061	-2.989700	3.642700	-10.889000	24.943685	0.001043	20.836568
753.199342	-3.006500	3.641200	-10.946000	24.970314	0.001043	20.832476
754.203068	-3.008900	3.640300	-10.952000	24.968076	0.001043	20.844928
755.200002	-3.000700	3.639800	-10.921000	24.932892	0.001040	20.842805
756.195881	-3.017500	3.639400	-10.982000	24.907084	0.001042	20.851989
757.203226	-3.024800	3.639300	-11.006000	24.918097	0.001041	20.837912
758.206292	-3.003800	3.639000	-10.930000	24.924536	0.001041	20.857650
759.197581	-2.994600	3.638700	-10.895000	24.912727	0.001042	20.831575
760.202121	-3.004900	3.638000	-10.930000	24.971104	0.001041	20.860295
761.198452	-3.006000	3.639500	-10.939000	24.997904	0.001040	20.825557
762.197525	-3.012100	3.638900	-10.959000	24.988037	0.001040	20.847420
763.198067	-3.002200	3.638100	-10.921000	25.020951	0.001038	20.851535
764.198177	-2.995400	3.637400	-10.895000	24.992409	0.001040	20.862239
765.197319	-3.011200	3.637400	-10.952000	24.981571	0.001041	20.850887
766.199897	-3.022900	3.636100	-10.990000	25.016948	0.001039	20.868378
767.203396	-2.974200	3.637700	-10.819000	25.022740	0.001040	20.840055
768.199542	-3.014500	3.636600	-10.961000	25.054215	0.001039	20.821389
769.200937	-2.986200	3.636700	-10.859000	25.046707	0.001038	20.844672
770.202945	-3.000000	3.635800	-10.905000	25.029875	0.001040	20.864285
771.201481	-2.989000	3.635600	-10.866000	25.039298	0.001036	20.864260
772.207255	-3.001300	3.634200	-10.906000	25.056699	0.001037	20.849486
773.206164	-2.956300	3.638400	-10.754000	25.068235	0.001037	20.875289
774.205529	-2.981400	3.634700	-10.836000	25.032361	0.001038	20.856349
775.203156	-2.994500	3.633700	-10.880000	25.015032	0.001034	20.842749
776.205028	-2.989400	3.634700	-10.864000	24.994148	0.001036	20.857347
777.203275	-3.002400	3.633000	-10.907000	25.046357	0.001037	20.851432
778.202041	-2.963600	3.635800	-10.773000	25.040043	0.001036	20.851258
779.204889	-2.965900	3.634600	-10.778000	25.040266	0.001036	20.847215
780.203134	-2.998600	3.634300	-10.896000	25.058067	0.001034	20.866505
781.204251	-3.010000	3.634000	-10.937000	25.052050	0.001034	20.861414
782.202500	-2.986400	3.632300	-10.846000	25.037058	0.001036	20.851581
783.203682	-2.986800	3.633500	-10.852000	25.024081	0.001033	20.865581
784.204032	-2.999100	3.632700	-10.892000	25.030123	0.001034	20.856474
785.203518	-2.993500	3.631000	-10.868000	25.053391	0.001035	20.876984
786.207957	-2.993100	3.631900	-10.869000	25.102441	0.001034	20.850832
787.209188	-2.984500	3.631100	-10.836000	25.118525	0.001034	20.858443
788.207125	-2.996100	3.630100	-10.875000	25.129487	0.001034	20.846689
789.207773	-3.010300	3.630700	-10.928000	25.152657	0.001031	20.868526
790.208558	-2.996200	3.630900	-10.878000	25.156137	0.001034	20.865855
791.206000	-2.982200	3.630500	-10.826000	25.174383	0.001032	20.847664
792.206599	-3.019500	3.627100	-10.951000	25.172616	0.001031	20.843520
793.208518	-2.993300	3.628800	-10.860000	25.156533	0.001031	20.858193
794.206524	-3.002500	3.627600	-10.890000	25.171971	0.001032	20.852828
795.206375	-3.028600	3.625900	-10.980000	25.183453	0.001029	20.857243
796.203994	-2.997900	3.627100	-10.873000	25.225835	0.001029	20.878454
797.208076	-3.018500	3.625700	-10.943000	25.207416	0.001030	20.877506
798.206797	-3.010600	3.628600	-10.922000	25.233639	0.001030	20.874436
799.206415	-2.994300	3.628000	-10.862000	25.219819	0.001028	20.861984
800.205013	-2.991000	3.626100	-10.844000	25.200404	0.001029	20.888484
801.207108	-2.986600	3.628200	-10.835000	25.165304	0.001030	20.869368
802.213276	-2.997700	3.625800	-10.868000	25.192945	0.001029	20.890478
803.206702	-2.985900	3.626500	-10.827000	25.183126	0.001031	20.866872
804.208218	-2.989400	3.624700	-10.835000	25.189638	0.001026	20.870090
805.206850	-2.990300	3.626700	-10.844000	25.184466	0.001028	20.874854
806.207862	-3.007300	3.625700	-10.902000	25.189709	0.001029	20.857360
807.209297	-3.011300	3.624100	-10.911000	25.165746	0.001027	20.871234
808.211686	-3.004600	3.623900	-10.887000	25.139544	0.001026	20.876698
809.209542	-2.994200	3.623600	-10.848000	25.152272	0.001027	20.895164
810.210984	-3.004000	3.623900	-10.885000	25.133105	0.001027	20.874027
811.214929	-3.007000	3.623100	-10.893000	25.143919	0.001026	20.873029
812.210081	-3.000800	3.623600	-10.873000	25.140263	0.001026	20.884057
813.210097	-2.995700	3.623400	-10.854000	25.175660	0.001026	20.881660
814.209413	-2.987700	3.622400	-10.822000	25.183788	0.001024	20.877492
815.211315	-2.989100	3.624000	-10.832000	25.180206	0.001022	20.884802
816.211499	-2.993800	3.622200	-10.843000	25.215430	0.001026	20.882232
817.211810	-3.005400	3.620900	-10.881000	25.234468	0.001024	20.870527
818.212265	-2.970800	3.623600	-10.764000	25.246472	0.001025	20.886370
819.214108	-2.994200	3.620500	-10.839000	25.233645	0.001022	20.887243
820.213283	-2.981200	3.621700	-10.796000	25.220967	0.001021	20.909600
821.216815	-2.994900	3.621100	-10.844000	25.210998	0.001023	20.885369
822.214334	-3.005300	3.620900	-10.880000	25.188081	0.001022	20.866156
823.223283	-2.973700	3.620000	-10.763000	25.187705	0.001021	20.884269
824.215964	-3.021300	3.619400	-10.932000	25.160734	0.001021	20.893702
825.214945	-2.958500	3.620900	-10.711000	25.162970	0.001023	20.884568
826.217796	-2.991400	3.619300	-10.825000	25.175995	0.001019	20.900013
827.215888	-2.977200	3.619500	-10.775000	25.212287	0.001021	20.907524
828.221142	-3.001300	3.619100	-10.860000	25.239902	0.001021	20.894473
829.216953	-2.989400	3.619000	-10.817000	25.229114	0.001020	20.882695
830.218510	-2.981800	3.618900	-10.788000	25.203959	0.001021	20.896794
831.219046	-2.994400	3.618800	-10.835000	25.236719	0.001020	20.891751
832.220092	-2.993500	3.617500	-10.828000	25.244249	0.001018	20.892673
833.222161	-2.991000	3.616600	-10.816000	25.275792	0.001017	20.875505
834.219281	-2.995400	3.616500	-10.831000	25.262669	0.001020	20.893149
835.220787	-2.983400	3.617400	-10.791000	25.265252	0.001018	20.911387
836.218326	-2.986600	3.617400	-10.802000	25.243055	0.001019	20.890052
837.237180	-2.988200	3.614700	-10.800000	25.255110	0.001018	20.905947
838.220239	-3.017400	3.616400	-10.910000	25.252598	0.001018	20.910063
839.219724	-3.000300	3.616400	-10.849000	25.294728	0.001019	20.904473
840.222000	-2.983300	3.615000	-10.784000	25.290203	0.001017	20.898507
841.220277	-2.998900	3.613500	-10.836000	25.337950	0.001018	20.903774
842.216947	-3.001300	3.614800	-10.848000	25.297311	0.001015	20.883835
843.224597	-3.042300	3.612300	-10.988000	25.254932	0.001018	20.908139
844.217875	-3.027000	3.612800	-10.934000	25.289827	0.001017	20.918991
845.220610	-3.012300	3.613100	-10.883000	25.261443	0.001012	20.910882
846.225369	-3.027300	3.610700	-10.929000	25.244812	0.001014	20.908884
847.219807	-3.031900	3.612200	-10.951000	25.227511	0.001014	20.930393
848.223457	-3.006300	3.612900	-10.860000	25.227784	0.001012	20.911228
849.222057	-3.020300	3.610500	-10.903000	25.181846	0.001016	20.917740
850.223158	-2.996000	3.611800	-10.820000	25.166287	0.001013	20.929618
851.219934	-3.005600	3.611500	-10.853000	25.160892	0.001011	20.901446
852.221074	-2.994300	3.612400	-10.815000	25.145304	0.001011	20.926572
853.221550	-3.001300	3.611700	-10.840000	25.148808	0.001011	20.924875
854.221116	-2.987100	3.611900	-10.788000	25.118081	0.001010	20.934330
855.220475	-3.001100	3.610200	-10.833000	25.106471	0.001010	20.907031
856.221706	-2.973800	3.610500	-10.735000	25.107690	0.001007	20.903988
857.221482	-2.988400	3.610300	-10.787000	25.104532	0.001007	20.910300
858.224047	-3.014800	3.609600	-10.881000	25.095930	0.001008	20.908303
859.224551	-2.977000	3.611500	-10.750000	25.086756	0.001009	20.942238
860.229610	-3.005700	3.608800	-10.845000	25.071218	0.001008	20.939443
861.225024	-2.996500	3.608300	-10.810000	25.075022	0.001007	20.920504
862.222736	-3.002300	3.609400	-10.835000	25.103164	0.001008	20.941639
863.227160	-3.028500	3.608300	-10.927000	25.138587	0.001005	20.920778
864.223724	-2.992300	3.609400	-10.800000	25.116039	0.001008	20.939392
865.223076	-2.994800	3.608100	-10.805000	25.129288	0.001007	20.946527
866.228204	-3.008700	3.606900	-10.849000	25.113577	0.001005	20.930283
867.224767	-2.997000	3.607800	-10.812000	25.145122	0.001007	20.943457
868.225810	-3.013500	3.605700	-10.864000	25.177711	0.001007	20.931131
869.227066	-2.987200	3.607900	-10.776000	25.197299	0.001003	20.938466
870.230702	-2.974600	3.607600	-10.730000	25.211940	0.001007	20.945577
871.225408	-3.001000	3.604100	-10.815000	25.237441	0.001004	20.929457
872.227284	-2.973800	3.606500	-10.724000	25.253647	0.001005	20.930080
873.227527	-2.996600	3.605400	-10.803000	25.286978	0.001006	20.926561
874.225992	-2.971200	3.605100	-10.710000	25.257946	0.001003	20.946248
875.229270	-2.985700	3.604000	-10.759000	25.235550	0.001004	20.928506
876.227293	-3.003800	3.603600	-10.822000	25.235101	0.001002	20.934693
877.229078	-2.971700	3.605000	-10.712000	25.261621	0.001001	20.946144
878.227858	-2.987100	3.605400	-10.769000	25.247727	0.001001	20.932196
879.228791	-2.995400	3.602200	-10.789000	25.252572	0.001000	20.958869
880.231032	-3.010200	3.601400	-10.839000	25.299549	0.000999	20.939655
881.228801	-2.997000	3.603600	-10.799000	25.340508	0.001002	20.945692
882.228221	-3.008600	3.601600	-10.835000	25.334219	0.000998	20.946964
883.229537	-3.004700	3.601800	-10.821000	25.322113	0.001000	20.950455
884.228154	-2.994500	3.603400	-10.789000	25.347042	0.001001	20.950830
885.229453	-3.004200	3.602000	-10.819000	25.330861	0.000998	20.947386
886.231091	-3.002700	3.601300	-10.812000	25.375399	0.001000	20.953224
887.228764	-2.978500	3.602600	-10.729000	25.385239	0.000996	20.943665
888.232077	-3.009900	3.600000	-10.834000	25.411781	0.001000	20.944239
889.231208	-2.994500	3.599300	-10.776000	25.411953	0.000998	20.919284
890.230390	-2.996000	3.600100	-10.784000	25.424057	0.000999	20.942341
891.232308	-3.001800	3.599400	-10.803000	25.431462	0.000994	20.942190
892.232189	-3.017900	3.598300	-10.857000	25.403303	0.000997	20.928140
893.234853	-2.997800	3.599300	-10.788000	25.412050	0.000996	20.949723
894.240730	-3.002100	3.599900	-10.805000	25.436577	0.000996	20.915087
895.236673	-3.000400	3.598500	-10.796000	25.461627	0.000997	20.916534
896.236782	-3.005600	3.596600	-10.807000	25.458495	0.000994	20.937094
897.234641	-3.005700	3.596800	-10.810000	25.467317	0.000994	20.906601
898.234142	-3.017600	3.597400	-10.855000	25.457200	0.000995	20.937690
899.235983	-3.001100	3.595600	-10.789000	25.466666	0.000994	20.919697
900.236735	-3.004400	3.597000	-10.807000	25.442685	0.000994	20.937339
901.237530	-2.969100	3.598400	-10.683000	25.438160	0.000995	20.914780
902.235408	-2.996500	3.597300	-10.777000	25.430406	0.000993	20.912210
903.236807	-3.011800	3.595100	-10.826000	25.426403	0.000992	20.908190
904.236564	-2.994000	3.596000	-10.765000	25.430453	0.000993	20.916524
905.237803	-2.985000	3.595100	-10.730000	25.419591	0.000992	20.922212
906.243267	-3.014900	3.593800	-10.834000	25.395757	0.000991	20.913927
907.238739	-3.005500	3.594700	-10.803000	25.394389	0.000992	20.917768
908.241210	-2.987800	3.594800	-10.739000	25.394959	0.000991	20.915022
909.241660	-2.981700	3.594000	-10.715000	25.387874	0.000991	20.903168
910.237457	-3.010700	3.594300	-10.819000	25.389191	0.000990	20.908757
911.239739	-2.992400	3.594000	-10.754000	25.406189	0.000989	20.920134
912.241850	-2.995100	3.592100	-10.756000	25.412599	0.000989	20.919458
913.245389	-3.024500	3.591600	-10.861000	25.409913	0.000988	20.909176
914.237806	-3.004500	3.593800	-10.796000	25.397040	0.000990	20.927068
915.241992	-3.005300	3.592100	-10.793000	25.430266	0.000986	20.924396
916.239579	-3.010100	3.591000	-10.808000	25.462100	0.000990	20.924120
917.240259	-2.987400	3.592400	-10.730000	25.445001	0.000988	20.907425
918.238672	-3.019900	3.590800	-10.843000	25.442713	0.000987	20.900861
919.243565	-2.997400	3.590400	-10.761000	25.455485	0.000988	20.906574
920.242668	-2.985500	3.590600	-10.719000	25.478125	0.000987	20.901808
921.242016	-2.996900	3.589400	-10.755000	25.502005	0.000985	20.922942
922.241621	-2.983400	3.590000	-10.709000	25.516767	0.000983	20.915956
923.243049	-3.018100	3.589400	-10.831000	25.559059	0.000982	20.912436
924.242823	-2.984600	3.588600	-10.708000	25.557417	0.000983	20.916476
925.245220	-2.992800	3.588800	-10.739000	25.551055	0.000982	20.922888
926.242694	-3.026000	3.587700	-10.855000	25.560373	0.000984	20.925133
927.243548	-3.005100	3.588100	-10.781000	25.557539	0.000981	20.914702
928.243720	-2.998000	3.587100	-10.752000	25.542903	0.000982	20.917072
929.243412	-3.025300	3.587400	-10.852000	25.511440	0.000981	20.903495
930.242826	-3.023900	3.587100	-10.846000	25.484229	0.000980	20.886603
931.253113	-2.994200	3.587400	-10.739000	25.507488	0.000979	20.906639
932.246191	-2.998400	3.586900	-10.753000	25.486041	0.000980	20.898379
933.245999	-3.009300	3.586800	-10.792000	25.490961	0.000976	20.907112
934.245790	-3.000200	3.586100	-10.758000	25.472446	0.000977	20.910804
935.245449	-3.000000	3.586400	-10.758000	25.510989	0.000978	20.904939
936.245197	-3.006900	3.585100	-10.778000	25.503882	0.000977	20.908707
937.246566	-2.966100	3.586400	-10.636000	25.486586	0.000977	20.889917
938.248861	-3.001000	3.583200	-10.752000	25.498040	0.000976	20.907108
939.247852	-2.978900	3.585900	-10.681000	25.499507	0.000975	20.894357
940.245700	-2.999100	3.584900	-10.751000	25.478284	0.000976	20.897701
941.248728	-3.000600	3.582500	-10.749000	25.486932	0.000975	20.870351
942.249146	-3.009600	3.583200	-10.783000	25.524231	0.000976	20.900220
943.252093	-3.014800	3.582000	-10.798000	25.528405	0.000974	20.907255
944.251783	-2.991800	3.582400	-10.716000	25.533450	0.000972	20.899046
945.251422	-2.995600	3.582200	-10.730000	25.504648	0.000972	20.909951
946.249573	-3.019200	3.580200	-10.808000	25.497963	0.000971	20.911771
947.250963	-3.014400	3.581600	-10.796000	25.500100	0.000970	20.888316
948.253849	-3.015900	3.582400	-10.803000	25.501292	0.000973	20.895675
949.248273	-2.995600	3.581200	-10.727000	25.478479	0.000971	20.897897
950.251825	-3.006600	3.580600	-10.764000	25.480715	0.000970	20.904409
951.251216	-3.006500	3.580600	-10.764000	25.393682	0.000970	20.897147
952.248608	-2.991100	3.581800	-10.713000	25.404568	0.000970	20.895275
953.251493	-2.968300	3.582400	-10.632000	25.462000	0.000969	20.893203
954.253555	-2.983000	3.580000	-10.679000	25.422236	0.000968	20.905903
955.250006	-2.990000	3.580000	-10.702000	25.464311	0.000967	20.889833
956.252138	-3.000000	3.578200	-10.734000	25.501189	0.000967	20.891306
957.254317	-3.008000	3.578200	-10.762000	25.538015	0.000968	20.902682
958.251203	-3.004000	3.578400	-10.747000	25.546067	0.000966	20.905079
959.251222	-3.013200	3.577100	-10.778000	25.571587	0.000968	20.874760
960.256789	-3.013100	3.578000	-10.779000	25.619966	0.000964	20.884941
961.257504	-2.999500	3.578600	-10.733000	25.576482	0.000964	20.899589
962.252119	-3.026000	3.575500	-10.819000	25.582544	0.000966	20.909943
963.258353	-2.995900	3.575500	-10.710000	25.579786	0.000965	20.895795
964.257297	-2.980100	3.576300	-10.657000	25.582469	0.000964	20.883791
965.253558	-3.000600	3.575700	-10.728000	25.554463	0.000962	20.903079
966.258727	-3.001500	3.575200	-10.730000	25.520742	0.000963	20.886285
967.253864	-3.001200	3.575700	-10.730000	25.505682	0.000963	20.871637
968.255908	-3.015700	3.573900	-10.776000	25.554413	0.000960	20.883590
969.262211	-3.004100	3.575100	-10.738000	25.550834	0.000962	20.894694
970.259461	-3.019500	3.574700	-10.792000	25.596282	0.000961	20.875379
971.259597	-3.011700	3.575000	-10.766000	25.614321	0.000961	20.887331
972.264302	-2.996000	3.573500	-10.705000	25.626743	0.000962	20.895065
973.261672	-2.987000	3.573200	-10.672000	25.663716	0.000959	20.885258
974.257689	-2.979400	3.575800	-10.652000	25.665803	0.000958	20.884510
975.263054	-3.004800	3.573200	-10.735000	25.685653	0.000956	20.885955
976.256948	-3.006500	3.571900	-10.737000	25.648484	0.000956	20.872805
977.259619	-2.996300	3.573500	-10.706000	25.625201	0.000958	20.866491
978.261274	-2.989100	3.571700	-10.676000	25.579728	0.000956	20.883409
979.257790	-2.996100	3.571600	-10.700000	25.570086	0.000957	20.873727
980.259473	-2.992100	3.571600	-10.684000	25.546429	0.000956	20.874624
981.259357	-2.996000	3.570500	-10.695000	25.544813	0.000955	20.878217
982.262815	-2.966800	3.571500	-10.594000	25.583751	0.000954	20.893139
983.264336	-2.997000	3.569400	-10.697000	25.614513	0.000953	20.885153
984.260131	-3.016300	3.569500	-10.765000	25.640280	0.000955	20.873101
985.264618	-3.003000	3.569500	-10.718000	25.654443	0.000953	20.875946
986.260572	-3.021500	3.567700	-10.778000	25.676780	0.000953	20.877518
987.262136	-3.023000	3.568100	-10.785000	25.648181	0.000951	20.876295
988.264340	-2.999700	3.569000	-10.704000	25.637422	0.000950	20.862170
989.263523	-3.008900	3.568600	-10.737000	25.614611	0.000949	20.857279
990.264686	-2.998700	3.567400	-10.697000	25.563001	0.000950	20.883680
991.262403	-2.998500	3.568100	-10.698000	25.573041	0.000950	20.867686
992.262002	-3.001300	3.566100	-10.702000	25.577264	0.000948	20.870030
993.263062	-3.009400	3.566300	-10.730000	25.554999	0.000948	20.880385
994.266381	-2.984700	3.566300	-10.643000	25.554626	0.000947	20.861046
995.263973	-2.982100	3.566000	-10.633000	25.556390	0.000945	20.878938
996.263394	-2.997000	3.565700	-10.684000	25.545729	0.000949	20.855431
997.263712	-3.012500	3.564900	-10.738000	25.571001	0.000946	20.867060
998.261159	-3.006500	3.565700	-10.720000	25.598111	0.000947	20.855880
999.265217	-3.009400	3.564000	-10.725000	25.608497	0.000944	20.879112
1000.263956	-2.978900	3.566800	-10.624000	25.623853	0.000945	20.852336
1001.262965	-2.991300	3.564600	-10.662000	25.652676	0.000945	20.850939
1002.264050	-2.987400	3.565000	-10.649000	25.673325	0.000944	20.860298
1003.264008	-3.011100	3.564200	-10.730000	25.692083	0.000942	20.865862
1004.270016	-3.015800	3.562900	-10.744000	25.709500	0.000944	20.860597
1005.268871	-2.983500	3.564400	-10.633000	25.748955	0.000942	20.860397
1006.262620	-3.007100	3.561900	-10.710000	25.782122	0.000940	20.853410
1007.268909	-2.995200	3.562900	-10.670000	25.792607	0.000943	20.850666
1008.263359	-3.009600	3.562100	-10.719000	25.799513	0.000941	20.862344
1009.265498	-2.995800	3.561200	-10.668000	25.776533	0.000939	20.858701
1010.263585	-2.992700	3.561200	-10.656000	25.779538	0.000938	20.850815
1011.268803	-3.001300	3.561300	-10.687000	25.760185	0.000938	20.829005
1012.265458	-2.971100	3.562600	-10.583000	25.743515	0.000941	20.871054
1013.270257	-2.996100	3.560300	-10.666000	25.733824	0.000938	20.856580
1014.266725	-2.990600	3.559500	-10.644000	25.737874	0.000940	20.866811
1015.265171	-2.988000	3.560600	-10.639000	25.761253	0.000939	20.862319
1016.266124	-3.022900	3.557700	-10.753000	25.698917	0.000936	20.841433
1017.270144	-3.009400	3.559100	-10.710000	25.690544	0.000935	20.860049
1018.271150	-2.991700	3.558900	-10.646000	25.672530	0.000936	20.838164
1019.266377	-3.028500	3.556700	-10.771000	25.703960	0.000935	20.858352
1020.270038	-2.998000	3.558300	-10.666000	25.699637	0.000936	20.854958
1021.271454	-2.980300	3.559000	-10.605000	25.714570	0.000935	20.823016
1022.280188	-3.008000	3.556300	-10.697000	25.729750	0.000934	20.848695
1023.271209	-2.987200	3.558200	-10.628000	25.750670	0.000934	20.839836
1024.270907	-3.002300	3.555100	-10.672000	25.708931	0.000931	20.841534
1025.273378	-2.993100	3.557200	-10.646000	25.687811	0.000932	20.849244
1026.267650	-2.978700	3.556900	-10.593000	25.693898	0.000933	20.842082
1027.267253	-2.981500	3.557100	-10.605000	25.693700	0.000931	20.834770
1028.269347	-2.982400	3.555800	-10.604000	25.718570	0.000933	20.830354
1029.268862	-3.000500	3.555000	-10.666000	25.723440	0.000931	20.857055
1030.270084	-3.010900	3.553900	-10.699000	25.762396	0.000926	20.847821
1031.268377	-3.002500	3.553200	-10.667000	25.795389	0.000929	20.858676
1032.269670	-2.994100	3.554200	-10.641000	25.813003	0.000931	20.845550
1033.272969	-3.006000	3.553700	-10.682000	25.812357	0.000929	20.836367
1034.269660	-2.985100	3.553100	-10.605000	25.810916	0.000927	20.838712
1035.271644	-3.005000	3.552900	-10.675000	25.763240	0.000926	20.842979
1036.270797	-2.990200	3.553600	-10.625000	25.702270	0.000927	20.817301
1037.270605	-2.999500	3.552300	-10.654000	25.684678	0.000925	20.849417
1038.273275	-2.993600	3.552200	-10.632000	25.673896	0.000925	20.816303
1039.275546	-2.995500	3.553200	-10.641000	25.696878	0.000925	20.855506
1040.275177	-2.994100	3.551200	-10.632000	25.727934	0.000925	20.830750
1041.274216	-2.989400	3.551300	-10.614000	25.760904	0.000924	20.838262
1042.278126	-2.985800	3.551100	-10.602000	25.759164	0.000924	20.826083
1043.273636	-3.001500	3.550100	-10.655000	25.736306	0.000923	20.813081
1044.275449	-2.992700	3.551100	-10.626000	25.760555	0.000922	20.840282
1045.281094	-2.991000	3.549900	-10.617000	25.764058	0.000923	20.832422
1046.274485	-3.002800	3.549800	-10.658000	25.756803	0.000923	20.827505
1047.277554	-2.994400	3.547300	-10.621000	25.797175	0.000922	20.836764
1048.274773	-2.978800	3.550000	-10.572000	25.812130	0.000922	20.832346
1049.277114	-3.033000	3.547300	-10.757000	25.841122	0.000922	20.826381
1050.275198	-3.011600	3.547400	-10.683000	25.860324	0.000919	20.838084
1051.274669	-3.006500	3.547700	-10.666000	25.883974	0.000920	20.838608
1052.276132	-3.001800	3.547000	-10.646000	25.888694	0.000918	20.836712
1053.277970	-3.010800	3.546000	-10.675000	25.887799	0.000920	20.813529
1054.277447	-2.993400	3.546900	-10.617000	25.876645	0.000918	20.807539
1055.276372	-3.003800	3.545900	-10.650000	25.851355	0.000917	20.818644
1056.279343	-3.007100	3.546100	-10.662000	25.837741	0.000917	20.810184
1057.275465	-3.012300	3.544400	-10.675000	25.782662	0.000916	20.821712
1058.277030	-2.981400	3.546900	-10.574000	25.734961	0.000915	20.824532
1059.276917	-2.991000	3.545200	-10.602000	25.714811	0.000916	20.798129
1060.278482	-2.996800	3.544400	-10.621000	25.690288	0.000915	20.822335
1061.276525	-2.984500	3.543800	-10.574000	25.659179	0.000912	20.820487
1062.276782	-3.002100	3.543100	-10.635000	25.647301	0.000914	20.813300
1063.278328	-2.987700	3.543800	-10.586000	25.648916	0.000914	20.824404
1064.283762	-2.972800	3.542700	-10.531000	25.669489	0.000910	20.812824
1065.281573	-2.980600	3.543500	-10.561000	25.686484	0.000910	20.803342
1066.278847	-2.985800	3.543300	-10.579000	25.723702	0.000912	20.811801
1067.278632	-3.030400	3.541000	-10.729000	25.710633	0.000908	20.817166
1068.280227	-2.998200	3.541300	-10.617000	25.764669	0.000910	20.818811
1069.279510	-3.015500	3.539400	-10.671000	25.788371	0.000912	20.826023
1070.279173	-3.020600	3.540100	-10.691000	25.824468	0.000910	20.807755
1071.278882	-3.017000	3.540600	-10.680000	25.830703	0.000907	20.797898
1072.279171	-2.988400	3.541400	-10.583000	25.832243	0.000908	20.808928
1073.279927	-3.005400	3.540500	-10.639000	25.839794	0.000908	20.809401
1074.286036	-3.003600	3.539900	-10.631000	25.839371	0.000906	20.803286
1075.283170	-2.987800	3.539400	-10.574000	25.848513	0.000906	20.797296
1076.281151	-3.018000	3.536300	-10.670000	25.832663	0.000904	20.812668
1077.288498	-3.008000	3.540000	-10.646000	25.848585	0.000906	20.818232
1078.286333	-2.990800	3.538700	-10.583000	25.837331	0.000904	20.807401
1079.281721	-2.994800	3.538100	-10.594000	25.846349	0.000906	20.800813
1080.283343	-2.987600	3.538600	-10.571000	25.894045	0.000903	20.810320
1081.282306	-3.001400	3.537400	-10.616000	25.877202	0.000903	20.808099
1082.285090	-3.012400	3.536300	-10.652000	25.842348	0.000901	20.795845
1083.283808	-2.995700	3.536500	-10.593000	25.819865	0.000902	20.825417
1084.288268	-2.993900	3.535900	-10.585000	25.800511	0.000902	20.807398
1085.282967	-2.996800	3.536500	-10.597000	25.775891	0.000900	20.823919
1086.285866	-3.019000	3.534500	-10.670000	25.751469	0.000900	20.809819
1087.286794	-3.012300	3.533000	-10.641000	25.752785	0.000898	20.774157
1088.286822	-3.009600	3.535000	-10.638000	25.812833	0.000899	20.794646
1089.287320	-2.990700	3.534600	-10.570000	25.814423	0.000898	20.788182
1090.289597	-3.019300	3.532100	-10.663000	25.788214	0.000899	20.794571
1091.289461	-2.976300	3.535500	-10.522000	25.761878	0.000897	20.779023
1092.287966	-2.983700	3.533700	-10.542000	25.768759	0.000897	20.773607
1093.289196	-2.985800	3.533900	-10.550000	25.797604	0.000896	20.799262
1094.286909	-3.008700	3.532600	-10.627000	25.759641	0.000896	20.812338
1095.289476	-2.988000	3.531700	-10.552000	25.803268	0.000895	20.801159
1096.289752	-3.006600	3.532000	-10.619000	25.757332	0.000896	20.807648
1097.291710	-3.011700	3.532200	-10.637000	25.758996	0.000895	20.789405
1098.290300	-2.990100	3.531100	-10.557000	25.731243	0.000893	20.811314
1099.287888	-2.995500	3.530500	-10.575000	25.780684	0.000893	20.782741
1100.290536	-2.981300	3.531900	-10.527000	25.753653	0.000891	20.802056
1101.290050	-3.009600	3.531000	-10.626000	25.780634	0.000891	20.784113
1102.291974	-2.954800	3.530800	-10.431000	25.819539	0.000890	20.781942
1103.289878	-3.010200	3.528900	-10.622000	25.824706	0.000889	20.808469
1104.294182	-2.992600	3.528800	-10.559000	25.787464	0.000891	20.787181
1105.292473	-3.016100	3.528800	-10.641000	25.750745	0.000892	20.822368
1106.292177	-3.002100	3.527100	-10.588000	25.782173	0.000891	20.791348
1107.293146	-2.992900	3.529000	-10.561000	25.818742	0.000889	20.810065
1108.292354	-3.003700	3.527900	-10.595000	25.829772	0.000888	20.779419
1109.294936	-2.993600	3.526800	-10.557000	25.866689	0.000888	20.794218
1110.295529	-3.018700	3.526000	-10.643000	25.876177	0.000885	20.795690
1111.295286	-2.996700	3.527500	-10.570000	25.827710	0.000889	20.811487
1112.294252	-2.998800	3.526800	-10.575000	25.798271	0.000885	20.783812
1113.294231	-3.025000	3.524900	-10.662000	25.779017	0.000885	20.797188
1114.294667	-3.004600	3.526100	-10.595000	25.794271	0.000882	20.806346
1115.295197	-3.005700	3.524800	-10.594000	25.813302	0.000883	20.774254
1116.299536	-3.018400	3.525200	-10.640000	25.804259	0.000883	20.787930
1117.301094	-2.980900	3.525400	-10.507000	25.795564	0.000882	20.781092
1118.300100	-3.005000	3.524700	-10.591000	25.753502	0.000880	20.776300
1119.297460	-3.011100	3.523300	-10.608000	25.720682	0.000878	20.786956
1120.299512	-2.996600	3.524300	-10.560000	25.697551	0.000878	20.792646
1121.299851	-2.989600	3.522800	-10.530000	25.725305	0.000879	20.792073
1122.300683	-3.011800	3.522300	-10.608000	25.720683	0.000879	20.781267
1123.295197	-2.995900	3.522200	-10.551000	25.748062	0.000877	20.790750
1124.296406	-2.994800	3.522500	-10.548000	25.792956	0.000878	20.781791
1125.297813	-2.986800	3.521300	-10.516000	25.828631	0.000876	20.792497
1126.299704	-3.001800	3.521100	-10.568000	25.851039	0.000876	20.795567
1127.297556	-2.991900	3.522800	-10.538000	25.837203	0.000875	20.800634
1128.297681	-2.999600	3.522100	-10.563000	25.815365	0.000874	20.789129
1129.298301	-3.004700	3.519700	-10.575000	25.806273	0.000874	20.784737
1130.299539	-2.990900	3.519600	-10.526000	25.801777	0.000874	20.788281
1131.300024	-3.011200	3.518800	-10.594000	25.802521	0.000871	20.806099
1132.300859	-3.000200	3.518800	-10.556000	25.816012	0.000874	20.800210
1133.299992	-3.012900	3.518200	-10.600000	25.821999	0.000872	20.778723
1134.301201	-3.004700	3.517500	-10.568000	25.813329	0.000871	20.779023
1135.302646	-2.985400	3.518700	-10.503000	25.799069	0.000870	20.794571
1136.301741	-3.002400	3.516600	-10.557000	25.794870	0.000871	20.790352
1137.301061	-3.007900	3.518000	-10.581000	25.823167	0.000868	20.789854
1138.308685	-2.983600	3.518900	-10.497000	25.837577	0.000871	20.770663
1139.304265	-3.014900	3.517200	-10.603000	25.822969	0.000871	20.788706
1140.304609	-2.989000	3.518100	-10.515000	25.849998	0.000873	20.804004
1141.304325	-2.981100	3.515300	-10.478000	25.865325	0.000869	20.812763
1142.306678	-2.991000	3.515100	-10.513000	25.895756	0.000870	20.794495
1143.306687	-3.009200	3.515300	-10.577000	25.888775	0.000868	20.771835
1144.305690	-3.014000	3.514200	-10.590000	25.848308	0.000870	20.805151
1145.308146	-3.003300	3.513500	-10.550000	25.864107	0.000867	20.806324
1146.306318	-3.001600	3.513900	-10.547000	25.862988	0.000867	20.768689
1147.310737	-3.007900	3.511800	-10.561000	25.877670	0.000868	20.792922
1148.311654	-3.007500	3.513100	-10.565000	25.868752	0.000862	20.797713
1149.310419	-3.010600	3.512500	-10.574000	25.874390	0.000866	20.790574
1150.307454	-2.979300	3.513300	-10.466000	25.903455	0.000864	20.798436
1151.308777	-2.974600	3.512800	-10.448000	25.899703	0.000866	20.789451
1152.307277	-3.008800	3.512000	-10.566000	25.898982	0.000864	20.783037
1153.307742	-3.011700	3.510600	-10.571000	25.913165	0.000863	20.804872
1154.306602	-2.983700	3.511500	-10.476000	25.914556	0.000863	20.797735
1155.308422	-3.021300	3.510100	-10.604000	25.898807	0.000861	20.788552
1156.309392	-2.995200	3.511300	-10.516000	25.880150	0.000862	20.796836
1157.307315	-3.002700	3.509400	-10.537000	25.889217	0.000860	20.802151
1158.307436	-2.993500	3.508900	-10.502000	25.911052	0.000860	20.796585
1159.309243	-2.990400	3.509200	-10.492000	25.909611	0.000861	20.790870
1160.309036	-3.009500	3.507700	-10.555000	25.961353	0.000860	20.797807
1161.307099	-2.990100	3.509400	-10.493000	25.991359	0.000859	20.794288
1162.307493	-2.989600	3.507300	-10.485000	25.984975	0.000859	20.805418
1163.309745	-3.014500	3.508300	-10.574000	26.025337	0.000859	20.801873
1164.308758	-3.003200	3.507300	-10.532000	26.049430	0.000858	20.815649
1165.308736	-3.003200	3.507700	-10.533000	26.045903	0.000858	20.805466
1166.309566	-3.031100	3.505000	-10.622000	26.045877	0.000856	20.783155
1167.310025	-3.014400	3.505000	-10.564000	26.029111	0.000858	20.808984
1168.311902	-3.010500	3.505600	-10.551000	26.008172	0.000855	20.812602
1169.309701	-2.997000	3.505100	-10.504000	26.021485	0.000855	20.827400
1170.316432	-2.991500	3.504400	-10.482000	26.041827	0.000854	20.799001
1171.318401	-2.974300	3.505500	-10.425000	26.049973	0.000855	20.818091
1172.315583	-2.989000	3.505300	-10.476000	26.033058	0.000855	20.796828
1173.312340	-3.018400	3.503100	-10.573000	26.045875	0.000853	20.797378
1174.312544	-3.026600	3.502300	-10.598000	26.053151	0.000851	20.797102
1175.315662	-2.983100	3.504000	-10.451000	26.047612	0.000853	20.821882
1176.312591	-2.977900	3.501500	-10.426000	26.055287	0.000850	20.815369
1177.311466	-3.011400	3.502200	-10.545000	26.066115	0.000851	20.818188
1178.316070	-3.007000	3.503700	-10.534000	26.055807	0.000850	20.795503
1179.312548	-3.008700	3.501700	-10.535000	26.050193	0.000852	20.820208
1180.311360	-3.017900	3.500900	-10.564000	26.071553	0.000850	20.815116
1181.313818	-2.998100	3.501800	-10.498000	26.093385	0.000848	20.818561
1182.316819	-3.008100	3.500500	-10.528000	26.108013	0.000847	20.804336
1183.313702	-2.981300	3.500000	-10.433000	26.116829	0.000846	20.811298
1184.315303	-3.021600	3.499200	-10.572000	26.099071	0.000846	20.821429
1185.313309	-3.025600	3.498600	-10.584000	26.106968	0.000847	20.810398
1186.313578	-3.005400	3.498500	-10.512000	26.099443	0.000846	20.814216
1187.314364	-2.997800	3.499300	-10.490000	26.119187	0.000845	20.820779
1188.312902	-2.972900	3.499300	-10.402000	26.121323	0.000845	20.829088
1189.314763	-2.991300	3.498200	-10.463000	26.072940	0.000845	20.827889
1190.316624	-2.993400	3.496500	-10.466000	26.079150	0.000843	20.833655
1191.314789	-3.004500	3.496200	-10.503000	26.103192	0.000843	20.843587
1192.315478	-2.995800	3.498000	-10.478000	26.105650	0.000841	20.820927
1193.316663	-2.997600	3.496900	-10.481000	26.089406	0.000842	20.840641
1194.314325	-3.015000	3.496300	-10.539000	26.089555	0.000840	20.835575
1195.317108	-2.987600	3.494900	-10.440000	26.069486	0.000838	20.807350
1196.315472	-3.016100	3.494400	-10.538000	26.063153	0.000841	20.829910
1197.315625	-3.020600	3.493900	-10.553000	26.086698	0.000839	20.811368
1198.316177	-3.001100	3.494300	-10.484000	26.120153	0.000838	20.815585
1199.318414	-2.995200	3.494100	-10.464000	26.116303	0.000839	20.810295
1200.318575	-2.991400	3.493700	-10.450000	26.107262	0.000841	20.819228
1201.318222	-3.007400	3.492600	-10.503000	26.084313	0.000837	20.843109
1202.316923	-2.987700	3.495000	-10.441000	26.092037	0.000838	20.832854
1203.321906	-3.033400	3.489800	-10.585000	26.082400	0.000837	20.821748
1204.325394	-2.989200	3.491200	-10.434000	26.076885	0.000835	20.834699
1205.320183	-2.995100	3.491100	-10.454000	26.082747	0.000836	20.833002
1206.322278	-3.011700	3.490900	-10.513000	26.100679	0.000835	20.832527
1207.320027	-3.009700	3.490200	-10.504000	26.106044	0.000835	20.831280
1208.319943	-3.006200	3.490500	-10.493000	26.139051	0.000833	20.842634
1209.322169	-2.983000	3.489400	-10.407000	26.161824	0.000835	20.823318
1210.322408	-3.007200	3.489000	-10.491000	26.180623	0.000833	20.830829
1211.321872	-3.008500	3.488200	-10.492000	26.190929	0.000833	20.812736
1212.325239	-2.984400	3.488600	-10.410000	26.203520	0.000831	20.825388
1213.322649	-2.995500	3.488400	-10.448000	26.207047	0.000833	20.834147
1214.321381	-3.012400	3.486400	-10.501000	26.225125	0.000831	20.826709
1215.322072	-2.995300	3.489300	-10.449000	26.207840	0.000829	20.824513
1216.326589	-2.994000	3.486600	-10.438000	26.177790	0.000828	20.842206
1217.325083	-2.998300	3.486900	-10.454000	26.150049	0.000828	20.838512
1218.320885	-2.991600	3.485800	-10.427000	26.158443	0.000828	20.835567
1219.323529	-3.010400	3.485100	-10.490000	26.129211	0.000827	20.845549
1220.324589	-3.001300	3.486400	-10.462000	26.075663	0.000826	20.832996
1221.323555	-3.000000	3.485900	-10.456000	26.050303	0.000827	20.839758
1222.323442	-2.997900	3.485600	-10.447000	26.041212	0.000826	20.825409
1223.325733	-2.998000	3.483900	-10.444000	26.045235	0.000826	20.823761
1224.328372	-3.007600	3.483200	-10.475000	26.046552	0.000824	20.839308
1225.326801	-3.011600	3.483900	-10.491000	26.047644	0.000826	20.826656
1226.327465	-3.008000	3.483300	-10.476000	26.050972	0.000825	20.844223
1227.326042	-2.997300	3.483300	-10.439000	26.067166	0.000825	20.832994
1228.330421	-3.009800	3.481200	-10.477000	26.063315	0.000823	20.833866
1229.327710	-2.992500	3.483500	-10.423000	26.092921	0.000824	20.841801
1230.326005	-3.006300	3.480700	-10.463000	26.094709	0.000824	20.845495
1231.328818	-3.011900	3.481100	-10.483000	26.099378	0.000822	20.839281
1232.329006	-3.002500	3.481100	-10.451000	26.106456	0.000824	20.841651
1233.327276	-2.996400	3.480000	-10.427000	26.107796	0.000822	20.848687
1234.333762	-3.004000	3.479200	-10.451000	26.132980	0.000820	20.855974
1235.330580	-3.019900	3.478400	-10.503000	26.152276	0.000819	20.874887
1236.328519	-2.985300	3.479200	-10.384000	26.154387	0.000820	20.842872
1237.329972	-3.005400	3.479600	-10.457000	26.157715	0.000822	20.840999
1238.329246	-2.990500	3.479200	-10.404000	26.176987	0.000818	20.863209
1239.328102	-2.977300	3.479400	-10.358000	26.182549	0.000818	20.854100
1240.331419	-3.021300	3.475900	-10.500000	26.174080	0.000818	20.869770
1241.328298	-2.992100	3.476100	-10.399000	26.166157	0.000817	20.849008
1242.331654	-3.000500	3.475800	-10.428000	26.132728	0.000818	20.861884
1243.328920	-2.976300	3.478100	-10.351000	26.133870	0.000818	20.859239
1244.330838	-3.002000	3.474900	-10.431000	26.100217	0.000815	20.858140
1245.331872	-3.002400	3.474600	-10.429000	26.118744	0.000817	20.857791
1246.329725	-3.011600	3.475500	-10.466000	26.127139	0.000815	20.862432
1247.329893	-2.985300	3.475700	-10.375000	26.170154	0.000814	20.856343
1248.331904	-3.012600	3.474100	-10.465000	26.168664	0.000814	20.873811
1249.329392	-3.016200	3.473500	-10.475000	26.222554	0.000812	20.863005
1250.332993	-3.005300	3.472900	-10.435000	26.228638	0.000815	20.870541
1251.332181	-3.005300	3.472700	-10.435000	26.206386	0.000813	20.871414
1252.330496	-3.009300	3.472900	-10.449000	26.183588	0.000811	20.848506
1253.333667	-2.991500	3.471900	-10.384000	26.165706	0.000812	20.869891
1254.333419	-3.002400	3.471100	-10.421000	26.131060	0.000807	20.869217
1255.333210	-2.989700	3.471900	-10.379000	26.104509	0.000812	20.862453
1256.333521	-2.990800	3.470700	-10.378000	26.086652	0.000807	20.890027
1257.334953	-3.012500	3.470700	-10.453000	26.094003	0.000809	20.866121
1258.332978	-3.004400	3.470500	-10.426000	26.108035	0.000808	20.874056
1259.335638	-3.010000	3.469900	-10.442000	26.108234	0.000811	20.872833
1260.335537	-2.998700	3.469300	-10.403000	26.084192	0.000807	20.875229
1261.335423	-2.988100	3.469100	-10.364000	26.072791	0.000807	20.857611
1262.338337	-2.999800	3.470700	-10.410000	26.060421	0.000807	20.867941
1263.337864	-3.013200	3.468900	-10.451000	26.026766	0.000806	20.882963
1264.337067	-2.984600	3.468500	-10.351000	25.972467	0.000806	20.873456
1265.338036	-3.021500	3.467900	-10.475000	25.937467	0.000805	20.893293
1266.335917	-2.995500	3.467700	-10.385000	25.926413	0.000807	20.898308
1267.337214	-2.997400	3.466500	-10.390000	25.963176	0.000803	20.866966
1268.341504	-3.028300	3.465200	-10.493000	25.949563	0.000803	20.881264
1269.336249	-2.990600	3.466200	-10.364000	25.975893	0.000802	20.870260
1270.337701	-3.007300	3.465600	-10.419000	26.006942	0.000804	20.879168
1271.339351	-2.984900	3.466200	-10.346000	26.011537	0.000802	20.880465
1272.337384	-3.000700	3.464600	-10.395000	25.992286	0.000802	20.867288
1273.342962	-3.006400	3.465900	-10.419000	26.039603	0.000801	20.892067
1274.341312	-3.010600	3.463700	-10.426000	26.081057	0.000801	20.884406
1275.341238	-2.994300	3.462900	-10.368000	26.092879	0.000801	20.868311
1276.340467	-3.005700	3.463600	-10.410000	26.119752	0.000799	20.879190
1277.344923	-3.015600	3.461900	-10.439000	26.153976	0.000799	20.906939
1278.341684	-3.012600	3.461300	-10.426000	26.180201	0.000799	20.880188
1279.341744	-3.003800	3.461500	-10.396000	26.189961	0.000797	20.897106
1280.344675	-3.008500	3.461000	-10.411000	26.192245	0.000797	20.906987
1281.340022	-2.997100	3.461900	-10.375000	26.147492	0.000797	20.885252
1282.343262	-3.018600	3.462200	-10.450000	26.127971	0.000795	20.881759
1283.345871	-2.996700	3.460300	-10.368000	26.137855	0.000796	20.886000
1284.346488	-3.014500	3.459300	-10.426000	26.167434	0.000794	20.894858
1285.344889	-3.014200	3.459200	-10.425000	26.184073	0.000794	20.893087
1286.347287	-3.017800	3.457600	-10.432000	26.180546	0.000794	20.902343
1287.344909	-3.002000	3.458100	-10.380000	26.223211	0.000793	20.918188
1288.367480	-2.982900	3.457300	-10.311000	26.220429	0.000795	20.906386
1289.357364	-3.006000	3.457200	-10.389000	26.272430	0.000793	20.918337
1290.364901	-3.003300	3.457500	-10.382000	26.293637	0.000792	20.914994
1291.375612	-3.021800	3.455900	-10.442000	26.307020	0.000791	20.911849
1292.369646	-3.009500	3.456200	-10.400000	26.261825	0.000790	20.896777
1293.360187	-3.007600	3.456400	-10.393000	26.279853	0.000791	20.920582
1294.357179	-3.009600	3.455400	-10.398000	26.272825	0.000787	20.900719
1295.369216	-3.012900	3.454400	-10.405000	26.272825	0.000788	20.904511
1296.363157	-2.988900	3.455400	-10.327000	26.286135	0.000790	20.894180
1297.365146	-2.990600	3.455000	-10.331000	26.226932	0.000788	20.893007
1298.369214	-2.992300	3.453900	-10.334000	26.220773	0.000786	20.920954
1299.363058	-3.016300	3.453400	-10.415000	26.203289	0.000784	20.913343
1300.361805	-3.016000	3.451700	-10.409000	26.226832	0.000783	20.924672
1301.361073	-3.018800	3.452700	-10.421000	26.275654	0.000787	20.911621
1302.373532	-3.010700	3.452300	-10.393000	26.266043	0.000786	20.903386
1303.357526	-3.019000	3.451700	-10.420000	26.240936	0.000784	20.898545
1304.370753	-2.984100	3.451500	-10.298000	26.267384	0.000784	20.931757
1305.369696	-3.012500	3.450500	-10.392000	26.243692	0.000785	20.904158
1306.369490	-3.017300	3.450300	-10.409000	26.252706	0.000784	20.926965
1307.373925	-3.012200	3.448500	-10.387000	26.233486	0.000783	20.922349
1308.362961	-3.002300	3.449600	-10.355000	26.229189	0.000781	20.897645
1309.375619	-3.010400	3.449700	-10.384000	26.216498	0.000781	20.917133
1310.364594	-3.011500	3.448200	-10.384000	26.238352	0.000779	20.921076
1311.379144	-2.997700	3.447800	-10.334000	26.244908	0.000779	20.921973
1312.379895	-3.004900	3.448000	-10.359000	26.278929	0.000779	20.910171
1313.363503	-2.994000	3.448900	-10.325000	26.314041	0.000779	20.912266
1314.383326	-2.989100	3.449500	-10.310000	26.335073	0.000776	20.928186
1315.367545	-3.006100	3.445900	-10.356000	26.349053	0.000776	20.928011
1316.360421	-2.988300	3.448000	-10.301000	26.382301	0.000776	20.930606
1317.368792	-3.005200	3.445400	-10.353000	26.382499	0.000776	20.917057
1318.368930	-2.991400	3.446900	-10.310000	26.367551	0.000774	20.939963
1319.371169	-3.010100	3.444200	-10.366000	26.364200	0.000773	20.943706
1320.368769	-2.995900	3.444000	-10.317000	26.365590	0.000772	20.934674
1321.377469	-3.007000	3.443200	-10.352000	26.339393	0.000772	20.923520
1322.370558	-2.964600	3.444500	-10.211000	26.372815	0.000772	20.940511
1323.368484	-3.002000	3.444100	-10.339000	26.400898	0.000771	20.944554
1324.357637	-3.061600	3.441800	-10.536000	26.405691	0.000770	20.938466
1325.350861	-3.004700	3.442700	-10.343000	26.415448	0.000771	20.934524
1326.353344	-2.994600	3.443400	-10.311000	26.398614	0.000770	20.936096
1327.354397	-2.989600	3.443000	-10.293000	26.368992	0.000770	20.932877
1328.358417	-3.006300	3.442300	-10.348000	26.385231	0.000768	20.923121
1329.360350	-3.000400	3.440600	-10.322000	26.390594	0.000768	20.958378
1330.354688	-2.990900	3.441100	-10.291000	26.383891	0.000767	20.945478
1331.377400	-3.007000	3.440200	-10.343000	26.398937	0.000767	20.923620
1332.379612	-3.006400	3.439100	-10.338000	26.388857	0.000767	20.935298
1333.375470	-3.009100	3.440000	-10.350000	26.392432	0.000767	20.931305
1334.352864	-3.001100	3.440200	-10.324000	26.418950	0.000767	20.952739
1335.372265	-2.987700	3.440000	-10.277000	26.384412	0.000767	20.918031
1336.369497	-3.012800	3.439100	-10.359000	26.328444	0.000764	20.958030
1337.369695	-3.003900	3.439000	-10.330000	26.319456	0.000765	20.957057
1338.380929	-3.004100	3.437800	-10.326000	26.316253	0.000765	20.936298
1339.380363	-2.995900	3.437100	-10.296000	26.327030	0.000762	20.949024
1340.384778	-3.003700	3.436400	-10.321000	26.330159	0.000764	20.939841
1341.391555	-2.995000	3.437300	-10.293000	26.353923	0.000762	20.953291
1342.374516	-3.005700	3.434500	-10.322000	26.378158	0.000762	20.952518
1343.358817	-3.000000	3.435100	-10.304000	26.380517	0.000763	20.934502
1344.371040	-3.013800	3.435100	-10.351000	26.374037	0.000762	20.948851
1345.379750	-2.994600	3.435000	-10.285000	26.364799	0.000761	20.948576
1346.378480	-3.007500	3.432800	-10.322000	26.367730	0.000761	20.934454
1347.375214	-3.024500	3.432800	-10.381000	26.360480	0.000761	20.949450
1348.377075	-3.002100	3.432700	-10.304000	26.294727	0.000760	20.953069
1349.382679	-3.002200	3.432600	-10.304000	26.257900	0.000758	20.949725
1350.392306	-3.020100	3.432600	-10.366000	26.264655	0.000759	20.956512
1351.356342	-3.026900	3.432600	-10.389000	26.252984	0.000759	20.959008
1352.356668	-3.035800	3.431000	-10.414000	26.278363	0.000757	20.967442
1353.361579	-2.980500	3.431400	-10.226000	26.286260	0.000759	20.941716
1354.377038	-2.997000	3.431400	-10.282000	26.318467	0.000757	20.949427
1355.362030	-3.007700	3.430800	-10.318000	26.345161	0.000758	20.941168
1356.358083	-3.003900	3.429500	-10.301000	26.348289	0.000758	20.952371
1357.364355	-3.002200	3.428500	-10.291000	26.367657	0.000757	20.966619
1358.358470	-2.995500	3.430100	-10.273000	26.397752	0.000757	20.956089
1359.361402	-3.001500	3.430100	-10.295000	26.422382	0.000755	20.936751
1360.384509	-2.998300	3.428300	-10.278000	26.443686	0.000754	20.955315
1361.359529	-3.017800	3.428900	-10.347000	26.458260	0.000754	20.957636
1362.358440	-2.979400	3.428800	-10.214000	26.455057	0.000754	20.945409
1363.381836	-2.971000	3.428900	-10.186000	26.463598	0.000754	20.962052
1364.380752	-2.992400	3.426500	-10.251000	26.471270	0.000755	20.951273
1365.379604	-3.004200	3.427500	-10.296000	26.447013	0.000753	20.946807
1366.386096	-2.999100	3.427300	-10.278000	26.458855	0.000750	20.933581
1367.388131	-3.002600	3.424700	-10.282000	26.480282	0.000751	20.967916
1368.383956	-3.005000	3.424300	-10.289000	26.492348	0.000752	20.934055
1369.381089	-2.985100	3.426400	-10.227000	26.509256	0.000749	20.929240
1370.365477	-2.995300	3.424700	-10.256000	26.496221	0.000747	20.958334
1371.362570	-2.991500	3.424500	-10.241000	26.449023	0.000749	20.945509
1372.361038	-2.986000	3.425100	-10.225000	26.395118	0.000747	20.934479
1373.361104	-3.004600	3.423100	-10.283000	26.347742	0.000746	20.955614
1374.363108	-2.984100	3.424500	-10.217000	26.355390	0.000746	20.929639
1375.377427	-3.005000	3.421700	-10.281000	26.357848	0.000748	20.930212
1376.378093	-2.985200	3.422100	-10.214000	26.362392	0.000748	20.949002
1377.362545	-2.995400	3.420900	-10.246000	26.346277	0.000746	20.948453
1378.364711	-3.003000	3.421500	-10.274000	26.333812	0.000743	20.937823
1379.395104	-3.016200	3.420500	-10.315000	26.345905	0.000745	20.932433
1380.381088	-3.013900	3.419200	-10.305000	26.334333	0.000745	20.918435
1381.393157	-3.007800	3.418500	-10.280000	26.315709	0.000742	20.939544
1382.361246	-3.022500	3.420300	-10.337000	26.352013	0.000742	20.937623
1383.365543	-3.028300	3.418400	-10.350000	26.368550	0.000742	20.941441
1384.382275	-2.979900	3.419400	-10.188000	26.376819	0.000741	20.929838
1385.364251	-3.003200	3.418700	-10.265000	26.404778	0.000742	20.923326
1386.365725	-2.997000	3.418600	-10.245000	26.404057	0.000741	20.948203
1387.371467	-3.011600	3.419100	-10.295000	26.439166	0.000741	20.927069
1388.364865	-3.015100	3.417500	-10.302000	26.396285	0.000741	20.914791
1389.363336	-3.009100	3.417000	-10.281000	26.342080	0.000741	20.924797
1390.380849	-3.019300	3.415500	-10.312000	26.299668	0.000739	20.940492
1391.363043	-3.003900	3.416500	-10.262000	26.245483	0.000738	20.894579
1392.381655	-3.000600	3.414500	-10.245000	26.236394	0.000739	20.923375
1393.383002	-3.003100	3.414700	-10.253000	26.289859	0.000736	20.897922
1394.381725	-2.995200	3.414100	-10.224000	26.310395	0.000739	20.915240
1395.394020	-2.997300	3.414000	-10.232000	26.354496	0.000736	20.907879
1396.386047	-2.999500	3.414400	-10.241000	26.382951	0.000737	20.926518
1397.366631	-3.001400	3.414400	-10.246000	26.393826	0.000737	20.924173
1398.366190	-3.010300	3.413700	-10.275000	26.406638	0.000735	20.922351
1399.370808	-3.017900	3.413100	-10.299000	26.387544	0.000735	20.913592
1400.367902	-2.992800	3.413100	-10.214000	26.407805	0.000734	20.916412
1401.367288	-3.001200	3.413500	-10.244000	26.397774	0.000736	20.905857
1402.367157	-2.950500	3.414100	-10.072000	26.421983	0.000734	20.902688
1403.394726	-2.975500	3.411100	-10.149000	26.419003	0.000733	20.931933
1404.368294	-3.021400	3.409900	-10.302000	26.446390	0.000733	20.907778
1405.377934	-3.016000	3.410500	-10.284000	26.463025	0.000733	20.906955
1406.370821	-3.006800	3.410300	-10.253000	26.479361	0.000733	20.905832
1407.367395	-2.986200	3.410700	-10.183000	26.493960	0.000731	20.923349
1408.377815	-3.020800	3.408700	-10.296000	26.509452	0.000731	20.925644
1409.368566	-2.983500	3.410200	-10.174000	26.507193	0.000730	20.905358
1410.395278	-2.998000	3.408100	-10.216000	26.459474	0.000728	20.891534
1411.371638	-2.989700	3.408600	-10.189000	26.432833	0.000729	20.907903
1412.373588	-3.037900	3.406200	-10.347000	26.388810	0.000730	20.897797
1413.368721	-3.008300	3.406500	-10.246000	26.382901	0.000727	20.913194
1414.374681	-2.998900	3.407500	-10.217000	26.386178	0.000728	20.922176
1415.371172	-3.014500	3.406400	-10.267000	26.400580	0.000727	20.899669
1416.404990	-3.000900	3.406400	-10.221000	26.379648	0.000725	20.917036
1417.396353	-3.008900	3.405900	-10.247000	26.365643	0.000723	20.896799
1418.376464	-2.997200	3.405400	-10.205000	26.309823	0.000724	20.894279
1419.380088	-2.999800	3.403400	-10.208000	26.309326	0.000723	20.873392
1420.374011	-3.007500	3.403900	-10.236000	26.305478	0.000723	20.899395
1421.402478	-3.016400	3.403100	-10.263000	26.341608	0.000724	20.901091
1422.396470	-2.999400	3.403700	-10.207000	26.332668	0.000723	20.896375
1423.402018	-2.997400	3.404000	-10.202000	26.309898	0.000722	20.877286
1424.378236	-2.987100	3.403600	-10.165000	26.310494	0.000722	20.889263
1425.394165	-2.994500	3.402700	-10.189000	26.338106	0.000720	20.891409
1426.408381	-2.996500	3.402200	-10.193000	26.264504	0.000719	20.882401
1427.397524	-3.008500	3.401100	-10.231000	26.270365	0.000720	20.893505
1428.399986	-2.999700	3.400600	-10.199000	26.271532	0.000719	20.909375
1429.399109	-3.015600	3.399400	-10.251000	26.200458	0.000719	20.892482
1430.399873	-2.978000	3.400700	-10.127000	26.171674	0.000718	20.892482
1431.376953	-2.988000	3.400500	-10.159000	26.155904	0.000719	20.898446
1432.380244	-2.999600	3.400000	-10.198000	26.176145	0.000717	20.892707
1433.397328	-2.974800	3.400000	-10.114000	26.182055	0.000716	20.900068
1434.376709	-3.024100	3.398700	-10.277000	26.195938	0.000718	20.910697
1435.381856	-3.007000	3.397500	-10.216000	26.202097	0.000716	20.876586
1436.383981	-2.995200	3.397900	-10.176000	26.185979	0.000716	20.895476
1437.382594	-2.989300	3.398600	-10.157000	26.199290	0.000715	20.890835
1438.414684	-3.024100	3.397900	-10.274000	26.245332	0.000713	20.894902
1439.402494	-2.980000	3.396700	-10.120000	26.289186	0.000713	20.893454
1440.383614	-2.975600	3.396400	-10.106000	26.331972	0.000711	20.893304
1441.383433	-2.967500	3.396800	-10.079000	26.362936	0.000712	20.893604
1442.400370	-2.996100	3.396400	-10.175000	26.408524	0.000710	20.877309
1443.413427	-3.004700	3.395100	-10.200000	26.436358	0.000711	20.869249
1444.405186	-3.014600	3.394700	-10.233000	26.484176	0.000712	20.888388
1445.404301	-3.012200	3.393300	-10.220000	26.482786	0.000711	20.868500
1446.408834	-2.993300	3.393800	-10.158000	26.508408	0.000710	20.877658
1447.384714	-2.992500	3.395500	-10.159000	26.486361	0.000709	20.874464
1448.384845	-2.986500	3.392800	-10.132000	26.483457	0.000710	20.884820
1449.382517	-2.987300	3.393900	-10.138000	26.477994	0.000706	20.859417
1450.383256	-2.972000	3.394200	-10.086000	26.480154	0.000706	20.890509
1451.388192	-3.003000	3.391700	-10.184000	26.476281	0.000706	20.883298
1452.381055	-2.999400	3.391200	-10.171000	26.498006	0.000706	20.871944
1453.383183	-3.011100	3.390500	-10.207000	26.514218	0.000706	20.875437
1454.392345	-2.995600	3.391800	-10.160000	26.525762	0.000704	20.872817
1455.381844	-2.968000	3.392900	-10.068000	26.513895	0.000705	20.865156
1456.384806	-2.992900	3.390400	-10.146000	26.508756	0.000705	20.874214
1457.390411	-2.994200	3.390200	-10.150000	26.520350	0.000703	20.874963
1458.402398	-2.973300	3.388600	-10.074000	26.534079	0.000703	20.868375
1459.381285	-2.986700	3.390900	-10.126000	26.466772	0.000702	20.863309
1460.383504	-3.004600	3.388700	-10.181000	26.416295	0.000700	20.877533
1461.385214	-3.009800	3.388300	-10.196000	26.393104	0.000699	20.887889
1462.382554	-2.995900	3.388300	-10.150000	26.419026	0.000703	20.876485
1463.387112	-3.006300	3.385800	-10.178000	26.417760	0.000700	20.883746
1464.384005	-3.013800	3.387100	-10.208000	26.450906	0.000700	20.872966
1465.384596	-3.006900	3.387000	-10.183000	26.488993	0.000698	20.865730
1466.406186	-3.002300	3.387000	-10.168000	26.455425	0.000700	20.882249
1467.389785	-2.994200	3.385200	-10.133000	26.459150	0.000699	20.858019
1468.390649	-2.996500	3.385000	-10.142000	26.493114	0.000698	20.869398
1469.386241	-3.036800	3.385100	-10.278000	26.496664	0.000696	20.872492
1470.384739	-2.998200	3.385000	-10.148000	26.511635	0.000697	20.863833
1471.387161	-3.005400	3.384200	-10.170000	26.510319	0.000696	20.857295
1472.404762	-3.013200	3.382500	-10.190000	26.515806	0.000695	20.880827
1473.388516	-2.986600	3.384900	-10.109000	26.527624	0.000694	20.863783
1474.393552	-3.006800	3.383200	-10.171000	26.520250	0.000695	20.862061
1475.389968	-3.007000	3.383400	-10.172000	26.533756	0.000694	20.864732
1476.407636	-2.995000	3.382500	-10.129000	26.493114	0.000695	20.862286
1477.423232	-2.990700	3.382600	-10.115000	26.518091	0.000694	20.863210
1478.412160	-3.039900	3.378400	-10.268000	26.501531	0.000693	20.852255
1479.408617	-3.005700	3.380500	-10.160000	26.502474	0.000692	20.866004
1480.413578	-2.989500	3.380400	-10.105000	26.486064	0.000690	20.857570
1481.408646	-2.991400	3.381800	-10.115000	26.470074	0.000692	20.848612
1482.391198	-2.975100	3.380200	-10.055000	26.455426	0.000688	20.868026
1483.394599	-3.001800	3.379400	-10.143000	26.470844	0.000688	20.850808
1484.393125	-2.988600	3.380300	-10.102000	26.441522	0.000690	20.861163
1485.397678	-2.988100	3.379000	-10.096000	26.414160	0.000689	20.844095
1486.392409	-3.001600	3.380000	-10.143000	26.449169	0.000690	20.857471
1487.395319	-2.988000	3.377700	-10.092000	26.483556	0.000686	20.852205
1488.401528	-2.985600	3.378000	-10.084000	26.515038	0.000686	20.837383
1489.394318	-2.988800	3.377400	-10.094000	26.549993	0.000687	20.859242
1490.398870	-2.985300	3.376700	-10.079000	26.536761	0.000685	20.835036
1491.396740	-3.000600	3.376400	-10.129000	26.563399	0.000687	20.843321
1492.395541	-2.996800	3.376200	-10.115000	26.551731	0.000685	20.869050
1493.394341	-3.007000	3.376400	-10.151000	26.535246	0.000685	20.861488
1494.398274	-2.962900	3.377200	-10.005000	26.573752	0.000683	20.828598
1495.411912	-2.986100	3.374900	-10.077000	26.545798	0.000683	20.840802
1496.418757	-2.965900	3.376200	-10.013000	26.514864	0.000683	20.850010
1497.395995	-3.004000	3.373900	-10.134000	26.459325	0.000682	20.853454
1498.398129	-2.998000	3.373500	-10.113000	26.450187	0.000682	20.866554
1499.414566	-2.996800	3.373700	-10.108000	26.453117	0.000682	20.853853
1500.418437	-3.014200	3.371800	-10.162000	26.449368	0.000682	20.843447
1501.395609	-2.985700	3.374900	-10.075000	26.449617	0.000682	20.853653
1502.403035	-2.985500	3.373400	-10.070000	26.432162	0.000681	20.846542
1503.410675	-3.011600	3.372500	-10.155000	26.432485	0.000679	20.840702
1504.417405	-3.002700	3.370900	-10.121000	26.449716	0.000679	20.847590
1505.416332	-3.008200	3.372400	-10.144000	26.435340	0.000678	20.832192
1506.401806	-3.025800	3.369600	-10.195000	26.506746	0.000680	20.859393
1507.418095	-3.012000	3.369000	-10.147000	26.545699	0.000679	20.841650
1508.418501	-3.004300	3.369100	-10.121000	26.582515	0.000676	20.844519
1509.423086	-2.967600	3.370600	-10.002000	26.619133	0.000676	20.829647
1510.419277	-2.996600	3.370100	-10.097000	26.614539	0.000679	20.836883
1511.424510	-2.987800	3.368900	-10.064000	26.606347	0.000675	20.817743
1512.398899	-2.992500	3.368800	-10.080000	26.590856	0.000675	20.823981
1513.400846	-2.986100	3.368300	-10.058000	26.618313	0.000675	20.830245
1514.405839	-2.999800	3.365800	-10.095000	26.606099	0.000675	20.845941
1515.412810	-3.000000	3.367800	-10.102000	26.614862	0.000673	20.838155
1516.404210	-3.019500	3.366700	-10.165000	26.632636	0.000674	20.829471
1517.404521	-2.973800	3.367200	-10.012000	26.643012	0.000674	20.851755
1518.400932	-3.002100	3.366400	-10.105000	26.628887	0.000671	20.840400
1519.422281	-3.012500	3.364800	-10.136000	26.592791	0.000673	20.843470
1520.406761	-2.997600	3.366400	-10.090000	26.568512	0.000672	20.835659
1521.429072	-2.986900	3.365600	-10.052000	26.588595	0.000669	20.828347
1522.402929	-2.988100	3.364100	-10.052000	26.594504	0.000668	20.824803
1523.404454	-3.013100	3.362500	-10.131000	26.604235	0.000670	20.842646
1524.403686	-2.995000	3.363900	-10.074000	26.609076	0.000667	20.852727
1525.402396	-2.983200	3.363300	-10.033000	26.574370	0.000668	20.847711
1526.407249	-2.994300	3.364800	-10.073000	26.580378	0.000667	20.843319
1527.428670	-2.997300	3.363500	-10.080000	26.592566	0.000669	20.801045
1528.437306	-2.979300	3.362500	-10.017000	26.612848	0.000667	20.839450
1529.408526	-2.993200	3.361900	-10.062000	26.610564	0.000665	20.819137
1530.411128	-2.992600	3.362600	-10.062000	26.588941	0.000664	20.834858
1531.411309	-2.975400	3.362400	-10.003000	26.582884	0.000664	20.823080
1532.408401	-2.997100	3.360000	-10.069000	26.555625	0.000666	20.830291
1533.408888	-2.973600	3.361300	-9.994100	26.532884	0.000664	20.828769
1534.410505	-2.996500	3.359800	-10.066000	26.526504	0.000662	20.806709
1535.408668	-2.987000	3.360600	-10.037000	26.527372	0.000663	20.814694
1536.411594	-3.004800	3.359800	-10.094000	26.593310	0.000661	20.828818
1537.408082	-2.997100	3.358800	-10.065000	26.595668	0.000662	20.826447
1538.412729	-3.006700	3.359400	-10.100000	26.627642	0.000661	20.834408
1539.410629	-3.012500	3.359400	-10.119000	26.642015	0.000663	20.830365
1540.430102	-3.008500	3.357700	-10.100000	26.658970	0.000659	20.831288
1541.415385	-2.992600	3.358900	-10.050000	26.673293	0.000659	20.821980
1542.412242	-3.010500	3.358100	-10.108000	26.691985	0.000659	20.819434
1543.411248	-2.991500	3.358100	-10.045000	26.727009	0.000658	20.837576
1544.408193	-3.006900	3.356700	-10.092000	26.728399	0.000658	20.835655
1545.412187	-2.993000	3.357900	-10.048000	26.738427	0.000656	20.802589
1546.408958	-3.010800	3.355700	-10.102000	26.731328	0.000658	20.819159
1547.413242	-2.983600	3.355500	-10.010000	26.736267	0.000656	20.822228
1548.413681	-3.010200	3.354900	-10.097000	26.735175	0.000657	20.810225
1549.413254	-3.009900	3.354500	-10.095000	26.741777	0.000657	20.825398
1550.415440	-3.004600	3.353900	-10.077000	26.779878	0.000654	20.805383
1551.411485	-3.025700	3.354300	-10.148000	26.801571	0.000656	20.836677
1552.419665	-2.982300	3.354000	-10.001000	26.806386	0.000654	20.813543
1553.410510	-3.008500	3.353000	-10.087000	26.794695	0.000653	20.839720
1554.442081	-3.026600	3.350800	-10.140000	26.766102	0.000653	20.816662
1555.441700	-2.990800	3.354600	-10.032000	26.738872	0.000652	20.808252
1556.432143	-3.010500	3.351900	-10.090000	26.722415	0.000651	20.816837
1557.441731	-2.979700	3.351700	-9.986100	26.665992	0.000652	20.817959
1558.437470	-2.996400	3.351600	-10.041000	26.674953	0.000649	20.810373
1559.418659	-3.007800	3.351400	-10.080000	26.657725	0.000650	20.812968
1560.436077	-2.972900	3.352000	-9.963500	26.683914	0.000653	20.807527
1561.443590	-2.997700	3.350900	-10.043000	26.667381	0.000649	20.833106
1562.439273	-2.972600	3.351100	-9.960800	26.646802	0.000649	20.802935
1563.448671	-3.013400	3.348900	-10.090000	26.655788	0.000649	20.817184
1564.418336	-2.973600	3.350600	-9.961600	26.638659	0.000646	20.820827
1565.434817	-3.001800	3.349000	-10.052000	26.650724	0.000648	20.798343
1566.434891	-3.010000	3.348400	-10.078000	26.650600	0.000647	20.817184
1567.437480	-3.004600	3.347700	-10.057000	26.686221	0.000650	20.796097
1568.426657	-3.001200	3.348200	-10.048000	26.715735	0.000646	20.808698
1569.423140	-3.022600	3.346800	-10.115000	26.682125	0.000644	20.800039
1570.441715	-3.008900	3.346700	-10.069000	26.688702	0.000645	20.816609
1571.455916	-3.014900	3.344300	-10.081000	26.663854	0.000643	20.811543
1572.430355	-2.996000	3.347000	-10.027000	26.636944	0.000644	20.809621
1573.423804	-2.981200	3.347800	-9.979900	26.643647	0.000643	20.818255
1574.427737	-3.004300	3.346200	-10.052000	26.627114	0.000642	20.795945
1575.423157	-2.999800	3.345400	-10.034000	26.631681	0.000643	20.785363
1576.423838	-3.010700	3.344900	-10.070000	26.666658	0.000642	20.809620
1577.461210	-3.009700	3.345800	-10.069000	26.681577	0.000641	20.808497
1578.424800	-2.983800	3.345200	-9.980500	26.672615	0.000640	20.798065
1579.449441	-3.003200	3.342500	-10.037000	26.651912	0.000640	20.809969
1580.424316	-3.004000	3.343900	-10.044000	26.625201	0.000639	20.822471
1581.429160	-2.983800	3.341800	-9.969700	26.575650	0.000641	20.824816
1582.447212	-2.994000	3.341800	-10.004000	26.482301	0.000636	20.803055
1583.449409	-2.999500	3.343300	-10.027000	26.424599	0.000636	20.823768
1584.460266	-2.996500	3.342300	-10.015000	26.393190	0.000634	20.822545
1585.451552	-2.979400	3.342200	-9.956200	26.390905	0.000636	20.808395
1586.457228	-2.985700	3.343000	-9.980000	26.406151	0.000634	20.803803
1587.444905	-3.018300	3.339900	-10.079000	26.428646	0.000633	20.807446
1588.443082	-3.008300	3.338800	-10.043000	26.452456	0.000631	20.801033
1589.444821	-2.984300	3.340100	-9.967200	26.416454	0.000631	20.807047
1590.448997	-2.988500	3.340700	-9.983300	26.418093	0.000629	20.812013
1591.454894	-2.984600	3.339000	-9.964100	26.451860	0.000630	20.803753
1592.430570	-2.994600	3.337500	-9.992700	26.505711	0.000629	20.822793
1593.426533	-3.010400	3.336800	-10.043000	26.535926	0.000631	20.816654
1594.431942	-3.035900	3.336800	-10.129000	26.517157	0.000630	20.805848
1595.451525	-3.013900	3.335700	-10.052000	26.510875	0.000630	20.808069
1596.448816	-2.989800	3.338800	-9.981000	26.535230	0.000628	20.787506
1597.452309	-3.003300	3.338400	-10.024000	26.547792	0.000629	20.826685
1598.460304	-3.021000	3.335800	-10.075000	26.556581	0.000628	20.818450
1599.452183	-3.010100	3.335800	-10.040000	26.616137	0.000627	20.794867
1600.437590	-3.015800	3.334500	-10.055000	26.622740	0.000627	20.799134
1601.431805	-3.019300	3.334900	-10.068000	26.593173	0.000627	20.795017
1602.439593	-2.996500	3.334800	-9.991700	26.585924	0.000624	20.803851
1603.431951	-3.002900	3.334200	-10.012000	26.586147	0.000625	20.819248
1604.433907	-2.982100	3.334000	-9.940200	26.617650	0.000625	20.827208
1605.449517	-3.000100	3.333900	-10.001000	26.602433	0.000623	20.806221
1606.462679	-2.993000	3.333600	-9.975100	26.584906	0.000622	20.818474
1607.460523	-2.989300	3.332800	-9.961300	26.602581	0.000622	20.806845
1608.435650	-3.019300	3.330900	-10.056000	26.624601	0.000623	20.811437
1609.434553	-2.993700	3.333500	-9.978700	26.620654	0.000622	20.800356
1610.436136	-3.004600	3.332500	-10.011000	26.650269	0.000621	20.819222
1611.443066	-2.996000	3.332000	-9.981400	26.647960	0.000622	20.815005
1612.456429	-3.011500	3.330800	-10.029000	26.607025	0.000620	20.807044
1613.455460	-3.016000	3.330600	-10.043000	26.595704	0.000618	20.812734
1614.434517	-2.970100	3.330700	-9.891300	26.621745	0.000619	20.814730
1615.441002	-3.002900	3.328900	-9.995600	26.633338	0.000618	20.796038
1616.444510	-2.992100	3.329100	-9.958600	26.643541	0.000618	20.804398
1617.462363	-3.001900	3.328900	-9.992100	26.636739	0.000617	20.791396
1618.461725	-3.023000	3.326400	-10.054000	26.651013	0.000618	20.797211
1619.468164	-2.998800	3.329200	-9.983300	26.607396	0.000618	20.795564
1620.458965	-2.999600	3.328700	-9.983300	26.625717	0.000616	20.799282
1621.452652	-3.029300	3.326300	-10.075000	26.666503	0.000611	20.820843
1622.452902	-2.989100	3.327700	-9.945400	26.684077	0.000617	20.822865
1623.436171	-2.986500	3.327500	-9.937100	26.697134	0.000615	20.803749
1624.460146	-3.010900	3.326300	-10.014000	26.719028	0.000612	20.813432
1625.453139	-2.978300	3.328000	-9.910500	26.707461	0.000613	20.810811
1626.461155	-3.007400	3.324800	-9.997900	26.673130	0.000611	20.799057
1627.447792	-2.994300	3.326200	-9.958700	26.648828	0.000611	20.797385
1628.469087	-2.993700	3.325900	-9.955500	26.646618	0.000610	20.809389
1629.443440	-2.978500	3.325100	-9.903000	26.624450	0.000610	20.796112
1630.440248	-2.982100	3.325000	-9.914000	26.626610	0.000606	20.794016
1631.461237	-3.021600	3.322700	-10.039000	26.605434	0.000608	20.792643
1632.438232	-3.006000	3.322000	-9.985500	26.618517	0.000609	20.816700
1633.453538	-3.011600	3.322300	-10.004000	26.578747	0.000606	20.813706
1634.442152	-3.009400	3.322600	-9.997800	26.601686	0.000607	20.799781
1635.468457	-2.996500	3.320700	-9.949100	26.624773	0.000604	20.821092
1636.467586	-3.023000	3.320400	-10.034000	26.644508	0.000605	20.817224
1637.469091	-3.002900	3.320500	-9.969800	26.678765	0.000604	20.813730
1638.441847	-3.005900	3.322900	-9.986800	26.661736	0.000604	20.802301
1639.443032	-2.989800	3.320300	-9.924300	26.677399	0.000605	20.791495
1640.439891	-2.985500	3.321800	-9.916500	26.716073	0.000605	20.831324
1641.439804	-3.005700	3.319000	-9.975100	26.786294	0.000602	20.824636
1642.442534	-2.993500	3.319400	-9.934700	26.827421	0.000600	20.807666
1643.447266	-2.997200	3.319500	-9.948900	26.825634	0.000600	20.824835
1644.465168	-3.000400	3.317900	-9.953800	26.804512	0.000601	20.814504
1645.449433	-3.020100	3.318000	-10.019000	26.759934	0.000600	20.836065
1646.444493	-3.005200	3.317800	-9.970000	26.749707	0.000598	20.823413
1647.445924	-3.007900	3.318900	-9.982000	26.769093	0.000597	20.832945
1648.447082	-3.004500	3.316800	-9.964000	26.767876	0.000596	20.833145
1649.442323	-3.015800	3.315300	-9.997500	26.792399	0.000597	20.818921
1650.476446	-3.009700	3.316000	-9.979300	26.806572	0.000596	20.806618
1651.476898	-3.017400	3.315900	-10.005000	26.807887	0.000596	20.833070
1652.442517	-3.013300	3.314100	-9.985800	26.823698	0.000596	20.820992
1653.447881	-2.974800	3.315700	-9.862100	26.818709	0.000594	20.829252
1654.445291	-3.001200	3.315600	-9.949800	26.810394	0.000597	20.816151
1655.445261	-2.981100	3.314100	-9.877900	26.798009	0.000596	20.819819
1656.446032	-2.977000	3.313900	-9.864400	26.781950	0.000592	20.833544
1657.443197	-3.016700	3.313300	-9.994000	26.829282	0.000593	20.806219
1658.447073	-2.979000	3.313500	-9.870100	26.839905	0.000591	20.807416
1659.450523	-2.976700	3.313400	-9.862000	26.868298	0.000593	20.830749
1660.450087	-3.003600	3.312900	-9.949400	26.885150	0.000590	20.827305
1661.464406	-3.007500	3.311300	-9.958100	26.922178	0.000590	20.829451
1662.447215	-3.013500	3.311200	-9.974900	26.878896	0.000590	20.836189
1663.445331	-3.012400	3.312000	-9.975300	26.865965	0.000590	20.839309
1664.448218	-3.002900	3.311600	-9.943400	26.884678	0.000586	20.832995
1665.448248	-3.033500	3.309000	-10.037000	26.860827	0.000587	20.831772
1666.449117	-3.031400	3.308700	-10.028000	26.855963	0.000590	20.824985
1667.450618	-3.021100	3.310100	-9.999200	26.835983	0.000586	20.822439
1668.447798	-3.026700	3.308300	-10.013000	26.805628	0.000587	20.817049
1669.452063	-2.984300	3.309700	-9.875700	26.773560	0.000585	20.823687
1670.466259	-3.002000	3.308100	-9.928600	26.761522	0.000587	20.824386
1671.479444	-3.006600	3.307900	-9.944800	26.749359	0.000582	20.846296
1672.483505	-3.017300	3.307200	-9.977100	26.758816	0.000583	20.839209
1673.478697	-2.998900	3.307800	-9.918600	26.757873	0.000584	20.828778
1674.452637	-2.996000	3.309200	-9.913500	26.762837	0.000582	20.815751
1675.454998	-3.026100	3.307200	-10.006000	26.747224	0.000580	20.837986
1676.454778	-2.991200	3.307100	-9.890000	26.755192	0.000582	20.858324
1677.457500	-2.993500	3.306400	-9.896600	26.724140	0.000582	20.848442
1678.457623	-2.999900	3.306200	-9.917400	26.772418	0.000581	20.822539
1679.451899	-2.996600	3.304000	-9.899300	26.784258	0.000580	20.827804
1680.474765	-2.987700	3.304700	-9.872200	26.805206	0.000580	20.818047
1681.477991	-3.004000	3.305100	-9.927600	26.801856	0.000580	20.839807
1682.469976	-3.005000	3.304400	-9.928600	26.819949	0.000579	20.833344
1683.472864	-3.013500	3.302400	-9.951000	26.840103	0.000578	20.837961
1684.481297	-2.993500	3.303000	-9.886800	26.864674	0.000577	20.856028
1685.478223	-3.009700	3.303000	-9.940400	26.905600	0.000578	20.814204
1686.461619	-3.001800	3.303100	-9.914500	26.899941	0.000576	20.822264
1687.467603	-2.998300	3.302700	-9.901000	26.950122	0.000575	20.833369
1688.457492	-2.994200	3.301200	-9.882500	26.975460	0.000578	20.843201
1689.460974	-3.011700	3.301100	-9.940700	26.949601	0.000577	20.842802
1690.469747	-3.005800	3.302200	-9.925200	26.956153	0.000575	20.849390
1691.476471	-3.013600	3.298300	-9.938800	26.939401	0.000576	20.846295
1692.456228	-3.010800	3.300700	-9.936100	26.919795	0.000575	20.851710
1693.456260	-2.999100	3.299300	-9.893900	26.935654	0.000573	20.855329
1694.475031	-2.964300	3.300100	-9.781300	26.916991	0.000574	20.844149
1695.455066	-3.002900	3.298400	-9.902700	26.922302	0.000575	20.841903
1696.455857	-3.016100	3.298000	-9.946200	26.928630	0.000571	20.845422
1697.453864	-3.024800	3.297300	-9.972000	26.945456	0.000572	20.842427
1698.454888	-2.990200	3.299400	-9.862900	26.921880	0.000569	20.836738
1699.455751	-2.989400	3.298700	-9.860400	26.912896	0.000569	20.868005
1700.455944	-3.027200	3.296900	-9.978700	26.946796	0.000570	20.853731
1701.456574	-2.999200	3.296800	-9.886900	26.967320	0.000571	20.862041
1702.458673	-2.989900	3.297300	-9.857800	26.972755	0.000569	20.857075
1703.460574	-3.031000	3.294400	-9.985400	26.977966	0.000567	20.822962
1704.458779	-2.990100	3.297800	-9.858500	26.995883	0.000565	20.849040
1705.461205	-2.997900	3.294400	-9.875200	26.969429	0.000566	20.837137
1706.475470	-3.015900	3.294300	-9.933500	26.927885	0.000565	20.836138
1707.483403	-2.988300	3.293800	-9.842000	26.927563	0.000566	20.844823
1708.458405	-2.996400	3.294300	-9.869200	26.910091	0.000563	20.844323
1709.485017	-2.998200	3.295200	-9.879000	26.887804	0.000564	20.857474
1710.477567	-3.019200	3.293600	-9.941300	26.918604	0.000563	20.863313
1711.479370	-3.003700	3.292400	-9.888700	26.941684	0.000563	20.842427
1712.486219	-3.007200	3.293700	-9.903600	26.984716	0.000561	20.873844
1713.490860	-3.036800	3.291700	-9.995300	26.964267	0.000562	20.860868
1714.462317	-3.000400	3.291800	-9.875600	26.966054	0.000559	20.867880
1715.472089	-3.014500	3.291300	-9.920200	26.993178	0.000559	20.841578
1716.489241	-2.990000	3.291000	-9.839100	26.975956	0.000561	20.879259
1717.462539	-3.013500	3.290200	-9.913900	26.971514	0.000558	20.860568
1718.468931	-3.002100	3.290800	-9.878500	26.980745	0.000557	20.862739
1719.460915	-2.998100	3.289400	-9.861200	26.943148	0.000560	20.850063
1720.486433	-2.999300	3.288900	-9.863000	26.878646	0.000558	20.849688
1721.465228	-2.977700	3.289900	-9.794800	26.843602	0.000557	20.832470
1722.486618	-3.006700	3.289400	-9.888800	26.799447	0.000558	20.874368
1723.479181	-2.996200	3.289200	-9.854100	26.827990	0.000556	20.867031
1724.466576	-2.990500	3.289200	-9.834200	26.848044	0.000554	20.862540
1725.464833	-3.014100	3.287700	-9.908600	26.882170	0.000554	20.870774
1726.468423	-2.989400	3.288800	-9.829700	26.885024	0.000553	20.878385
1727.468956	-2.983000	3.286600	-9.802700	26.867205	0.000552	20.854305
1728.467502	-2.987500	3.286500	-9.817400	26.892569	0.000552	20.870799
1729.476367	-3.016900	3.284700	-9.908600	26.912448	0.000551	20.866133
1730.492877	-2.983200	3.286200	-9.802800	26.950816	0.000553	20.855403
1731.489076	-3.010900	3.284900	-9.887500	26.976998	0.000550	20.881255
1732.471197	-3.011700	3.285100	-9.892500	27.011690	0.000550	20.863987
1733.470370	-3.009800	3.283900	-9.881700	26.991341	0.000546	20.862964
1734.472514	-2.996300	3.285200	-9.842400	27.004792	0.000550	20.861791
1735.498670	-3.023400	3.284100	-9.926700	27.032684	0.000545	20.872771
1736.500319	-3.001100	3.282700	-9.849500	27.064769	0.000547	20.874692
1737.496884	-2.952500	3.284300	-9.695100	27.113156	0.000548	20.897749
1738.475760	-3.009500	3.283000	-9.877500	27.140624	0.000546	20.902141
1739.476263	-3.008800	3.283300	-9.877600	27.163228	0.000544	20.867031
1740.487928	-3.011000	3.283000	-9.883500	27.197840	0.000544	20.880506
1741.498918	-3.013300	3.280400	-9.884100	27.202083	0.000544	20.875765
1742.477582	-2.996600	3.281800	-9.833700	27.250687	0.000542	20.883401
1743.476581	-2.985300	3.280500	-9.792400	27.246792	0.000540	20.891336
1744.482046	-2.994000	3.279400	-9.817500	27.272098	0.000542	20.875540
1745.481454	-3.005800	3.278400	-9.853000	27.271254	0.000540	20.882278
1746.475879	-2.992400	3.279500	-9.811800	27.226646	0.000543	20.865384
1747.476220	-3.007000	3.279300	-9.859100	27.193647	0.000541	20.879608
1748.493890	-3.011700	3.278000	-9.871500	27.166354	0.000539	20.896726
1749.507076	-2.997100	3.279200	-9.826800	27.143502	0.000540	20.887967
1750.500223	-2.996700	3.278200	-9.822600	27.163898	0.000539	20.884773
1751.480109	-2.996800	3.278400	-9.824000	27.173153	0.000538	20.893607
1752.502269	-2.993300	3.276500	-9.806400	27.222279	0.000537	20.872845
1753.494615	-3.019100	3.277100	-9.893600	27.239944	0.000536	20.888716
1754.510245	-2.992800	3.277000	-9.806000	27.239745	0.000536	20.890887
1755.493616	-3.005700	3.277100	-9.849000	27.261405	0.000536	20.878061
1756.486694	-2.985900	3.276100	-9.781600	27.299611	0.000535	20.874767
1757.478597	-3.014800	3.275400	-9.873700	27.300330	0.000534	20.883076
1758.483279	-2.981700	3.275500	-9.765500	27.229747	0.000535	20.894106
1759.482765	-3.022300	3.274300	-9.894400	27.233593	0.000536	20.875690
1760.503339	-2.985300	3.275100	-9.776200	27.243417	0.000532	20.909751
1761.491575	-2.978300	3.275500	-9.754700	27.253664	0.000534	20.895403
1762.480052	-3.006600	3.272700	-9.839300	27.248677	0.000529	20.904137
1763.481362	-3.025400	3.272100	-9.898300	27.204614	0.000531	20.893956
1764.480856	-3.002900	3.273000	-9.826700	27.152633	0.000530	20.890987
1765.483586	-2.985400	3.272500	-9.768700	27.109782	0.000528	20.898148
1766.480907	-3.008200	3.271200	-9.839500	27.065365	0.000529	20.888566
1767.505217	-2.985800	3.271800	-9.766900	27.091147	0.000530	20.898847
1768.483176	-2.981000	3.272000	-9.753100	27.113454	0.000525	20.892359
1769.483611	-2.979400	3.270600	-9.743400	27.103007	0.000526	20.883750
1770.478728	-3.003000	3.269600	-9.817800	27.127572	0.000526	20.917462
1771.499547	-2.989200	3.269800	-9.773200	27.158141	0.000527	20.905534
1772.487606	-2.988300	3.270200	-9.771400	27.151864	0.000523	20.894954
1773.483162	-3.000600	3.269000	-9.808800	27.152385	0.000524	20.887892
1774.503434	-2.996700	3.270400	-9.799100	27.160499	0.000523	20.908853
1775.507256	-3.004300	3.268400	-9.818900	27.178959	0.000521	20.889015
1776.519830	-3.006200	3.267800	-9.822400	27.203448	0.000524	20.919333
1777.501990	-2.989700	3.268100	-9.769100	27.206847	0.000520	20.897624
1778.503939	-2.993800	3.266800	-9.778900	27.220865	0.000521	20.891810
1779.485848	-2.993700	3.267900	-9.782500	27.252275	0.000521	20.912022
1780.510322	-2.979300	3.267700	-9.734500	27.266466	0.000518	20.901168
1781.486041	-3.020200	3.266700	-9.864900	27.279193	0.000519	20.901642
1782.487905	-2.988000	3.264500	-9.753200	27.254805	0.000516	20.903663
1783.492612	-2.967400	3.266300	-9.690000	27.181093	0.000518	20.910126
1784.486298	-2.989500	3.266200	-9.763900	27.154693	0.000516	20.903962
1785.492993	-3.022900	3.263400	-9.863500	27.149805	0.000517	20.911848
1786.515048	-3.001900	3.263500	-9.795700	27.158861	0.000515	20.922852
1787.516465	-2.988800	3.264400	-9.755900	27.240391	0.000515	20.908130
1788.521629	-3.011400	3.264100	-9.828500	27.257113	0.000513	20.896976
1789.515218	-2.997900	3.263400	-9.782600	27.250265	0.000512	20.910949
1790.507200	-2.983700	3.263200	-9.735000	27.266714	0.000512	20.906632
1791.493430	-3.011000	3.262100	-9.821200	27.260015	0.000512	20.919333
1792.513744	-3.025300	3.261000	-9.864500	27.212826	0.000510	20.903638
1793.507399	-2.996800	3.260000	-9.768600	27.151790	0.000509	20.927119
1794.494116	-2.968000	3.261500	-9.678900	27.138515	0.000510	20.900968
1795.514743	-2.996200	3.260500	-9.768400	27.126158	0.000507	20.925048
1796.492169	-2.997500	3.259900	-9.770700	27.131890	0.000510	20.918485
1797.493984	-3.013900	3.259400	-9.822800	27.122635	0.000507	20.925297
1798.496593	-2.987200	3.259900	-9.736200	27.121990	0.000507	20.917537
1799.493878	-2.994800	3.258600	-9.758200	27.163799	0.000505	20.912172
1800.498118	-2.991900	3.259700	-9.751200	27.180150	0.000506	20.918186
1801.519035	-2.991500	3.259900	-9.751300	27.194689	0.000505	20.929489
1802.509773	-2.971100	3.258300	-9.679000	27.237835	0.000506	20.918360
1803.520685	-2.994900	3.256500	-9.752300	27.251828	0.000505	20.932908
1804.496418	-3.011600	3.256400	-9.805200	27.255401	0.000503	20.924648
1805.492769	-2.998300	3.256900	-9.763600	27.270931	0.000505	20.932683
1806.499134	-3.014400	3.256300	-9.814700	27.271676	0.000504	20.913045
1807.518408	-2.964300	3.257400	-9.654500	27.308641	0.000501	20.932209
1808.515292	-3.005900	3.255500	-9.784100	27.349451	0.000499	20.926794
1809.517743	-3.006200	3.254300	-9.782500	27.383238	0.000502	20.934230
1810.520117	-2.994200	3.255600	-9.746000	27.427294	0.000499	20.939670
1811.494417	-3.008400	3.255400	-9.792900	27.426451	0.000498	20.933132
1812.519570	-2.999100	3.254200	-9.758400	27.472291	0.000499	20.933257
1813.514090	-2.997800	3.254600	-9.754900	27.462543	0.000500	20.920132
1814.521092	-3.003900	3.254100	-9.774100	27.448057	0.000497	20.923101
1815.513886	-3.016100	3.252200	-9.806600	27.432553	0.000497	20.923151
1816.518929	-3.016700	3.250800	-9.805100	27.455101	0.000496	20.940144
1817.516497	-2.997100	3.252200	-9.746400	27.468992	0.000495	20.930412
1818.501993	-2.998300	3.252500	-9.750900	27.486951	0.000496	20.941367
1819.546793	-2.991600	3.251200	-9.725000	27.509647	0.000494	20.920581
1820.503681	-3.018200	3.251500	-9.813000	27.456540	0.000493	20.947280
1821.503601	-2.978800	3.250900	-9.682900	27.483602	0.000493	20.950324
1822.507847	-2.972100	3.250300	-9.659400	27.483900	0.000492	20.925971
1823.500917	-3.008900	3.248600	-9.772900	27.515674	0.000493	20.937075
1824.506351	-3.013400	3.248200	-9.786200	27.518576	0.000490	20.930038
1825.528870	-2.987100	3.250500	-9.707500	27.465867	0.000491	20.928691
1826.530718	-2.982000	3.249500	-9.689000	27.441334	0.000491	20.932933
1827.535652	-3.011400	3.248400	-9.780700	27.406457	0.000489	20.936725
1828.552453	-2.984600	3.248900	-9.695600	27.433273	0.000488	20.934305
1829.527355	-2.994500	3.247600	-9.724300	27.454382	0.000487	20.927094
1830.509517	-3.011600	3.247600	-9.779000	27.489307	0.000489	20.958908
1831.502388	-2.983900	3.247500	-9.688600	27.524281	0.000486	20.950948
1832.528983	-2.978900	3.247500	-9.673200	27.500221	0.000484	20.965620
1833.536026	-2.987500	3.246000	-9.696400	27.535715	0.000483	20.948228
1834.534696	-2.993000	3.244500	-9.710200	27.529390	0.000485	20.948029
1835.534945	-2.978500	3.246800	-9.669500	27.553995	0.000483	20.956662
1836.508842	-3.003900	3.245200	-9.747600	27.574135	0.000483	20.952745
1837.518822	-2.987500	3.243600	-9.689200	27.548117	0.000481	20.973979
1838.526873	-2.978100	3.244100	-9.660100	27.486976	0.000482	20.950873
1839.509256	-3.017700	3.242700	-9.783800	27.473928	0.000480	20.940119
1840.506627	-3.013400	3.243600	-9.773300	27.496624	0.000482	20.954417
1841.528586	-2.995400	3.243900	-9.715900	27.515351	0.000479	20.956188
1842.504785	-3.006200	3.241400	-9.743200	27.565876	0.000481	20.958658
1843.521080	-2.964900	3.244200	-9.617800	27.567612	0.000478	20.960879
1844.509516	-3.012800	3.241500	-9.765200	27.555657	0.000478	20.950275
1845.507472	-2.998600	3.241700	-9.719300	27.510416	0.000477	20.959756
1846.509443	-3.017200	3.239800	-9.773600	27.469786	0.000475	20.964871
1847.515311	-3.027400	3.238500	-9.803400	27.457235	0.000476	20.971209
1848.529466	-2.979600	3.239400	-9.649600	27.437862	0.000475	20.957411
1849.535013	-2.993000	3.239500	-9.695300	27.434761	0.000475	20.983211
1850.535921	-2.970000	3.238800	-9.617100	27.463659	0.000473	20.953968
1851.512146	-3.001000	3.240600	-9.724400	27.487273	0.000474	20.970610
1852.508458	-3.016400	3.238700	-9.768500	27.507315	0.000471	20.958060
1853.516270	-3.014300	3.237100	-9.757300	27.532466	0.000473	20.954916
1854.514525	-3.026800	3.236500	-9.794900	27.505306	0.000471	20.954616
1855.511151	-3.006600	3.239400	-9.738200	27.519668	0.000468	20.962426
1856.515972	-3.001600	3.237800	-9.717300	27.519742	0.000469	20.961553
1857.518358	-2.982000	3.237100	-9.650800	27.515178	0.000468	20.972607
1858.532206	-3.026100	3.233900	-9.783900	27.483826	0.000467	20.960505
1859.538830	-2.984200	3.235900	-9.655600	27.464925	0.000465	20.962826
1860.519173	-2.996500	3.234500	-9.691400	27.426873	0.000467	20.955839
1861.514030	-2.975800	3.233700	-9.622100	27.433422	0.000464	20.960530
1862.518581	-3.018000	3.233500	-9.757700	27.447090	0.000466	20.966219
1863.517076	-2.994400	3.233900	-9.682100	27.484868	0.000462	20.975776
1864.522557	-2.986100	3.233300	-9.654600	27.524306	0.000462	20.967093
1865.518508	-2.991700	3.234000	-9.673500	27.534178	0.000462	20.967542
1866.517200	-3.007100	3.232100	-9.718200	27.570762	0.000461	20.962152
1867.531149	-2.994700	3.232900	-9.680100	27.602236	0.000463	20.963475
1868.518346	-3.024000	3.230100	-9.766400	27.615977	0.000459	20.961654
1869.550281	-3.014200	3.231500	-9.739000	27.622103	0.000460	20.968291
1870.521872	-3.003700	3.231100	-9.703100	27.593109	0.000459	20.956663
1871.522264	-3.012600	3.229900	-9.728800	27.609603	0.000459	20.970886
1872.520038	-3.010100	3.229800	-9.720400	27.631800	0.000459	20.951024
1873.522319	-2.998400	3.229000	-9.679600	27.669869	0.000457	20.966095
1874.526288	-3.005200	3.228300	-9.699700	27.648664	0.000455	20.952821
1875.528769	-3.030500	3.228300	-9.783200	27.645887	0.000455	20.941966
1876.523761	-3.010300	3.227600	-9.714600	27.684923	0.000454	20.927669
1877.551325	-3.005800	3.227600	-9.700700	27.692015	0.000453	20.940494
1878.530910	-3.007500	3.227200	-9.704300	27.722221	0.000453	20.942915
1879.526648	-3.012800	3.226600	-9.719800	27.745730	0.000453	20.968466
1880.525273	-3.016400	3.227700	-9.735400	27.723337	0.000453	20.959682
1881.524729	-3.006900	3.225800	-9.698700	27.665033	0.000450	20.955540
1882.549264	-2.999200	3.226900	-9.676900	27.621433	0.000450	20.933483
1883.523864	-2.986700	3.226500	-9.635500	27.560098	0.000449	20.940993
1884.523746	-3.002300	3.224400	-9.679200	27.536485	0.000450	20.926721
1885.525448	-2.992700	3.225400	-9.651600	27.458203	0.000450	20.924774
1886.523468	-3.021100	3.222300	-9.732700	27.460039	0.000448	20.932310
1887.522145	-3.000300	3.224800	-9.674900	27.411420	0.000450	20.963051
1888.522830	-3.002300	3.223300	-9.676700	27.391550	0.000447	20.947805
1889.526144	-3.032600	3.221800	-9.769400	27.375797	0.000445	20.930538
1890.522909	-3.002900	3.223700	-9.679100	27.356224	0.000446	20.935504
1891.528312	-3.009800	3.221500	-9.695200	27.355951	0.000446	20.935704
1892.538085	-3.003400	3.222100	-9.675700	27.373565	0.000445	20.930663
1893.543542	-3.005100	3.221800	-9.680500	27.412759	0.000442	20.931686
1894.550164	-2.985600	3.222100	-9.618600	27.463636	0.000442	20.929765
1895.549562	-2.987100	3.220500	-9.619500	27.503620	0.000442	20.920682
1896.550092	-3.004800	3.220700	-9.676000	27.489259	0.000440	20.937999
1897.527372	-3.010500	3.218300	-9.687500	27.497692	0.000442	20.922304
1898.529233	-3.002400	3.219200	-9.664000	27.490301	0.000437	20.941892
1899.526712	-2.999800	3.219900	-9.657000	27.467406	0.000437	20.926920
1900.547232	-2.982500	3.218500	-9.597900	27.484496	0.000439	20.946483
1901.546065	-2.974900	3.218000	-9.571400	27.515105	0.000436	20.934606
1902.554842	-2.993200	3.217500	-9.629300	27.525919	0.000436	20.929366
1903.526296	-3.000100	3.218200	-9.652600	27.559924	0.000433	20.937026
1904.549430	-3.015400	3.214400	-9.691800	27.602708	0.000436	20.916540
1905.531731	-2.988100	3.216900	-9.611300	27.646904	0.000434	20.930189
1906.531142	-3.001400	3.215100	-9.648100	27.617713	0.000434	20.919784
1907.543684	-3.033100	3.213600	-9.745600	27.628328	0.000430	20.917663
1908.534893	-3.005500	3.216700	-9.666800	27.639538	0.000429	20.930364
1909.530201	-2.989000	3.214400	-9.606700	27.744069	0.000429	20.946408
1910.553795	-2.988300	3.215800	-9.608800	27.734249	0.000428	20.924201
1911.552335	-3.012100	3.215100	-9.682400	27.761130	0.000427	20.904313
1912.544193	-2.993300	3.213800	-9.618500	27.801600	0.000425	20.917538
1913.552773	-2.998300	3.212900	-9.631400	27.861731	0.000429	20.923527
1914.530464	-2.983800	3.213200	-9.587200	27.880006	0.000427	20.921057
1915.539464	-3.037000	3.210600	-9.749700	27.887841	0.000426	20.911400
1916.553662	-2.996600	3.213100	-9.627800	27.905470	0.000422	20.925348
1917.553628	-2.977900	3.210400	-9.558900	27.907528	0.000423	20.921256
1918.530942	-3.015600	3.212000	-9.684900	27.873559	0.000422	20.917888
1919.530353	-2.991900	3.209300	-9.600900	27.887469	0.000423	20.919085
1920.548368	-3.005200	3.209500	-9.643900	27.889775	0.000421	20.915243
1921.552519	-3.025300	3.208300	-9.705700	27.864037	0.000421	20.929640
1922.550566	-3.000200	3.209900	-9.629500	27.873559	0.000421	20.933059
1923.549416	-2.990600	3.210100	-9.599200	27.906214	0.000416	20.915667
1924.546172	-2.983900	3.208100	-9.571200	27.917594	0.000417	20.925698
1925.551760	-2.988700	3.208600	-9.588500	27.884097	0.000414	20.915692
1926.558952	-3.010200	3.208800	-9.658000	27.850970	0.000417	20.916965
1927.556248	-2.962600	3.208200	-9.503100	27.841994	0.000414	20.899872
1928.553702	-3.009900	3.205400	-9.647300	27.859401	0.000412	20.914544
1929.555075	-3.012700	3.206300	-9.658100	27.900536	0.000414	20.923228
1930.548284	-2.983000	3.208100	-9.568400	27.906958	0.000410	20.900296
1931.558374	-3.007600	3.206400	-9.643000	27.890345	0.000411	20.899697
1932.552370	-3.038200	3.205500	-9.737900	27.877179	0.000412	20.914419
1933.552889	-3.012500	3.203700	-9.649800	27.838547	0.000410	20.904937
1934.557840	-3.000900	3.204400	-9.614400	27.842043	0.000410	20.909404
1935.562130	-2.981700	3.204400	-9.553400	27.893023	0.000410	20.902392
1936.537486	-2.985000	3.203800	-9.561600	27.869096	0.000408	20.924775
1937.531923	-3.013100	3.202400	-9.647500	27.883403	0.000408	20.904563
1938.536250	-3.003900	3.201400	-9.616000	27.859549	0.000407	20.908530
1939.554173	-2.987200	3.202700	-9.566400	27.828827	0.000408	20.899897
1940.536827	-2.988100	3.201600	-9.565000	27.854689	0.000409	20.896528
1941.537931	-3.027200	3.199000	-9.682500	27.904652	0.000407	20.910302
1942.556041	-2.993700	3.201000	-9.581500	27.876510	0.000406	20.926546
1943.538309	-3.028900	3.199700	-9.690100	27.819256	0.000405	20.915867
1944.538878	-2.995900	3.202200	-9.592100	27.835101	0.000402	20.905262
1945.538842	-2.990300	3.199600	-9.566900	27.856574	0.000403	20.897476
1946.535014	-3.014200	3.199200	-9.641700	27.895726	0.000401	20.901793
1947.543982	-2.977000	3.198300	-9.519000	27.900734	0.000400	20.897826
1948.535616	-2.988300	3.197500	-9.553100	27.923967	0.000397	20.911725
1949.558987	-2.988600	3.196100	-9.551400	27.921859	0.000400	20.902018
1950.573565	-2.994400	3.198000	-9.575300	27.961976	0.000396	20.911575
1951.557661	-3.003700	3.196400	-9.600600	27.994951	0.000395	20.888818
1952.560974	-2.990200	3.196700	-9.557500	27.993190	0.000394	20.901743
1953.534442	-2.994200	3.195300	-9.566100	27.984587	0.000397	20.899248
1954.535972	-2.998700	3.195000	-9.580400	27.999760	0.000395	20.906934
1955.535792	-3.004100	3.194200	-9.594500	27.991108	0.000394	20.890165
1956.542090	-2.988800	3.195100	-9.548600	27.908520	0.000392	20.900920
1957.535100	-2.977200	3.194500	-9.509800	27.881940	0.000393	20.907358
1958.537598	-2.978600	3.192700	-9.509000	27.884544	0.000391	20.908082
1959.563833	-2.995200	3.192800	-9.562500	27.867385	0.000387	20.884651
1960.544341	-3.012800	3.192100	-9.616400	27.870807	0.000388	20.912274
1961.542415	-3.017700	3.193600	-9.636200	27.826819	0.000389	20.882704
1962.579171	-2.979500	3.192700	-9.512000	27.840829	0.000385	20.900122
1963.548696	-3.009700	3.191900	-9.605800	27.806659	0.000384	20.885649
1964.542806	-2.998600	3.191200	-9.567500	27.839118	0.000386	20.914520
1965.538282	-3.030600	3.189800	-9.665300	27.875543	0.000382	20.899024
1966.539326	-3.000900	3.189400	-9.569900	27.807775	0.000384	20.899099
1967.554909	-2.993200	3.189500	-9.546000	27.770951	0.000382	20.896653
1968.538357	-2.992100	3.188800	-9.538800	27.741838	0.000384	20.875892
1969.541870	-2.986600	3.189000	-9.523100	27.715179	0.000382	20.900746
1970.547329	-3.010900	3.188700	-9.600200	27.723809	0.000383	20.889991
1971.573993	-3.023400	3.186700	-9.632900	27.681179	0.000381	20.893559
1972.569369	-2.993900	3.186900	-9.539900	27.669920	0.000378	20.895506
1973.564322	-3.013500	3.185000	-9.596100	27.644673	0.000378	20.894757
1974.568131	-2.995700	3.189900	-9.555000	27.623989	0.000376	20.889118
1975.569145	-2.996800	3.185700	-9.546100	27.603875	0.000376	20.883104
1976.560571	-2.995400	3.186100	-9.542400	27.576990	0.000377	20.884027
1977.562886	-2.985200	3.186300	-9.510600	27.588002	0.000376	20.881831
1978.579014	-3.012700	3.184900	-9.594400	27.567912	0.000372	20.878687
1979.572130	-2.993200	3.183400	-9.527900	27.594302	0.000371	20.870153
1980.567479	-2.991400	3.185600	-9.528700	27.586167	0.000371	20.882829
1981.566243	-3.007200	3.183500	-9.572600	27.602288	0.000370	20.871551
1982.547262	-2.998500	3.183900	-9.545400	27.624262	0.000371	20.880858
1983.560067	-3.038900	3.181700	-9.667400	27.652510	0.000372	20.894109
1984.565360	-2.982300	3.181100	-9.485900	27.681378	0.000370	20.898500
1985.563444	-2.987800	3.181600	-9.505200	27.751807	0.000368	20.897303
1986.569420	-3.018100	3.180700	-9.598900	27.785905	0.000368	20.882306
1987.548886	-3.003400	3.181600	-9.553400	27.850748	0.000365	20.875493
1988.566284	-3.019900	3.179900	-9.602000	27.876188	0.000365	20.884027
1989.566973	-3.014400	3.177500	-9.577000	27.872444	0.000363	20.893061
1990.573513	-2.970800	3.180600	-9.447900	27.843409	0.000366	20.895606
1991.549132	-3.005600	3.177200	-9.547000	27.872196	0.000364	20.869105
1992.555533	-2.987700	3.177400	-9.492000	27.874651	0.000360	20.886748
1993.556782	-3.005100	3.176500	-9.544800	27.932993	0.000358	20.868656
1994.550866	-2.973300	3.176900	-9.445000	27.966737	0.000362	20.881283
1995.548867	-3.009300	3.174800	-9.553200	27.996192	0.000362	20.878688
1996.552615	-2.972900	3.177100	-9.443700	27.997257	0.000359	20.893984
1997.567008	-3.015500	3.176500	-9.578500	28.039156	0.000358	20.853185
1998.575274	-3.020900	3.174700	-9.589000	28.077805	0.000357	20.869804
1999.584434	-3.001100	3.173300	-9.521300	28.033107	0.000354	20.869854
2000.565163	-3.005400	3.173500	-9.536700	28.096894	0.000353	20.858200
2001.577449	-3.006200	3.174200	-9.541200	28.062609	0.000354	20.879636
2002.573556	-3.001500	3.173600	-9.524700	28.061716	0.000352	20.868781
2003.557708	-3.008100	3.173700	-9.545400	28.066649	0.000354	20.858100
2004.547922	-3.025600	3.171600	-9.594800	28.107975	0.000352	20.861295
2005.570385	-3.021000	3.171400	-9.578500	28.119230	0.000351	20.870253
2006.555013	-2.984900	3.170900	-9.462700	28.078375	0.000350	20.859473
2007.553514	-3.000200	3.169800	-9.508400	28.054378	0.000348	20.861869
2008.552493	-2.998000	3.170000	-9.502600	27.995100	0.000347	20.878538
2009.559871	-3.002500	3.169200	-9.514600	27.998943	0.000347	20.880983
2010.576446	-3.008100	3.167300	-9.526100	27.972440	0.000348	20.880384
2011.576250	-3.022900	3.167500	-9.573300	27.960068	0.000346	20.858924
2012.558327	-2.996300	3.167100	-9.488800	27.971770	0.000349	20.866435
2013.570578	-2.999900	3.169500	-9.507100	28.000728	0.000346	20.844850
2014.566211	-2.999400	3.166400	-9.496500	28.008562	0.000344	20.844675
2015.551468	-3.013900	3.166000	-9.541200	28.081201	0.000345	20.857576
2016.578829	-2.985000	3.166700	-9.451900	28.086308	0.000343	20.846596
2017.572989	-2.994800	3.165100	-9.477900	28.093770	0.000341	20.865012
2018.555624	-3.018100	3.165600	-9.553100	28.112982	0.000344	20.854007
2019.555126	-2.995300	3.163900	-9.476300	28.133582	0.000340	20.854357
2020.555414	-2.977800	3.164200	-9.421100	28.118411	0.000340	20.834817
2021.556304	-3.016100	3.162200	-9.536400	28.080036	0.000340	20.852610
2022.555160	-2.984900	3.162700	-9.438900	28.086308	0.000337	20.861768
2023.555977	-3.014700	3.163800	-9.536700	28.088266	0.000336	20.858524
2024.562069	-3.007300	3.161500	-9.506100	28.077160	0.000337	20.844026
2025.559621	-3.002800	3.161200	-9.491700	28.121584	0.000334	20.837537
2026.556374	-3.002300	3.160100	-9.485900	28.145407	0.000338	20.831174
2027.561434	-3.008100	3.159700	-9.503500	28.186233	0.000337	20.843826
2028.557766	-3.016700	3.159300	-9.530300	28.177979	0.000334	20.841206
2029.561182	-3.014400	3.158000	-9.518300	28.212137	0.000334	20.858050
2030.556059	-3.026200	3.157800	-9.555200	28.222200	0.000332	20.850164
2031.572077	-3.010200	3.156900	-9.501900	28.277128	0.000331	20.842404
2032.586349	-2.981900	3.158300	-9.416300	28.273707	0.000330	20.847969
2033.582001	-3.000900	3.157600	-9.475200	28.258191	0.000329	20.833295
2034.563093	-3.009300	3.156900	-9.498400	28.219771	0.000329	20.828279
2035.564994	-3.016200	3.154400	-9.513700	28.232066	0.000328	20.820743
2036.581765	-3.001600	3.155000	-9.468800	28.270287	0.000327	20.833146
2037.563268	-2.971500	3.156900	-9.380300	28.262454	0.000328	20.839010
2038.560827	-2.996300	3.154400	-9.449800	28.266023	0.000326	20.852560
2039.559947	-2.954400	3.154800	-9.319600	28.271303	0.000327	20.827531
2040.561801	-3.018900	3.151200	-9.512200	28.238783	0.000324	20.845997
2041.556899	-2.999800	3.153000	-9.457400	28.216846	0.000324	20.834343
2042.556752	-3.012200	3.151600	-9.493000	28.146745	0.000322	20.826358
2043.557628	-2.997200	3.150900	-9.443200	28.114841	0.000323	20.838810
2044.571805	-3.026400	3.148700	-9.527400	28.120196	0.000323	20.841830
2045.581824	-2.997300	3.149600	-9.439200	28.163627	0.000320	20.816800
2046.573805	-2.982400	3.150700	-9.395200	28.203436	0.000319	20.827955
2047.572166	-3.019700	3.148300	-9.506100	28.176046	0.000319	20.828354
2048.581262	-2.996400	3.149000	-9.434900	28.152025	0.000317	20.828354
2049.587176	-2.981300	3.147500	-9.382000	28.194414	0.000315	20.804173
2050.586226	-2.969300	3.148000	-9.345700	28.231793	0.000316	20.839908
2051.583683	-3.000900	3.146100	-9.440500	28.257894	0.000315	20.825410
2052.560551	-3.018100	3.145300	-9.490900	28.278144	0.000316	20.834892
2053.561297	-3.001100	3.147000	-9.442900	28.276979	0.000316	20.821392
2054.565424	-2.988800	3.144900	-9.398300	28.321122	0.000314	20.812258
2055.560230	-2.986700	3.146400	-9.396500	28.343726	0.000314	20.821741
2056.571967	-2.967800	3.144200	-9.330400	28.314554	0.000311	20.832197
2057.587064	-2.994400	3.144500	-9.415000	28.318668	0.000311	20.826857
2058.558365	-2.999700	3.143800	-9.429800	28.266767	0.000308	20.840981
2059.561301	-3.026000	3.142900	-9.508900	28.217640	0.000308	20.810012
2060.558286	-3.005300	3.140600	-9.436900	28.243765	0.000309	20.822564
2061.564369	-3.018700	3.138900	-9.474700	28.268502	0.000309	20.820443
2062.564542	-3.018500	3.140200	-9.477700	28.296832	0.000307	20.828104
2063.559797	-3.025300	3.137700	-9.492300	28.317230	0.000308	20.802176
2064.561568	-2.987400	3.140600	-9.381200	28.267560	0.000308	20.821391
2065.562437	-3.000100	3.138500	-9.414500	28.299583	0.000305	20.832771
2066.578291	-2.980000	3.138400	-9.351400	28.319709	0.000305	20.805620
2067.575475	-2.993600	3.138200	-9.393300	28.314405	0.000305	20.818297
2068.591810	-3.010600	3.136800	-9.442500	28.363552	0.000304	20.813730
2069.578190	-3.005100	3.135000	-9.420600	28.387617	0.000303	20.828478
2070.582114	-2.979000	3.136500	-9.343300	28.380876	0.000303	20.803673
2071.587852	-3.005500	3.134600	-9.420300	28.383875	0.000300	20.818072
2072.579922	-3.014900	3.135400	-9.450500	28.395895	0.000300	20.813580
2073.587805	-3.004000	3.133900	-9.413500	28.383354	0.000299	20.806643
2074.565317	-2.988400	3.133500	-9.362600	28.415350	0.000298	20.801876
2075.563824	-2.992300	3.133400	-9.375500	28.424222	0.000298	20.821241
2076.565347	-3.022200	3.130800	-9.461000	28.423007	0.000296	20.796785
2077.564648	-3.013500	3.131500	-9.435600	28.408286	0.000298	20.808040
2078.566013	-3.020900	3.129800	-9.453500	28.410566	0.000297	20.831198
2079.569566	-3.003300	3.129900	-9.399200	28.345856	0.000295	20.823413
2080.567690	-2.981100	3.128200	-9.324700	28.283249	0.000294	20.805894
2081.574461	-2.994600	3.129500	-9.369800	28.237221	0.000295	20.784208
2082.567516	-3.009500	3.127300	-9.410400	28.220713	0.000294	20.788450
2083.601743	-2.978100	3.129700	-9.319700	28.210352	0.000293	20.813580
2084.589688	-2.977100	3.126900	-9.306300	28.243641	0.000292	20.801577
2085.598842	-2.992800	3.126200	-9.355300	28.250755	0.000292	20.791196
2086.567170	-3.014100	3.124300	-9.415400	28.283646	0.000292	20.816725
2087.593040	-3.015700	3.124100	-9.420000	28.295642	0.000289	20.809363
2088.578428	-2.996700	3.123700	-9.359000	28.260124	0.000289	20.815327
2089.568398	-3.033700	3.121700	-9.470000	28.215780	0.000287	20.797235
2090.567404	-3.003100	3.122800	-9.375800	28.182813	0.000289	20.809089
2091.568170	-3.010400	3.123000	-9.400500	28.128401	0.000288	20.789399
2092.596156	-3.010700	3.120400	-9.393700	28.111941	0.000287	20.809812
2093.592201	-2.978600	3.121700	-9.297400	28.102000	0.000286	20.797909
2094.578917	-3.027700	3.117000	-9.436000	28.121658	0.000286	20.785930
2095.568013	-3.005400	3.118700	-9.372000	28.150488	0.000285	20.788401
2096.588097	-2.984700	3.119600	-9.310200	28.198305	0.000283	20.797185
2097.569068	-3.026100	3.116700	-9.428700	28.236131	0.000282	20.789749
2098.575899	-3.015500	3.116600	-9.397100	28.291752	0.000283	20.787428
2099.593428	-3.017600	3.116800	-9.402800	28.328136	0.000283	20.796088
2100.588105	-3.003600	3.116600	-9.360400	28.341173	0.000283	20.813007
2101.572813	-2.989200	3.114900	-9.310600	28.386825	0.000280	20.810137
2102.588496	-3.002600	3.114000	-9.348100	28.419266	0.000281	20.778793
2103.584470	-3.012500	3.114100	-9.380500	28.474505	0.000279	20.800754
2104.575917	-2.986900	3.115000	-9.303300	28.506919	0.000280	20.803050
2105.586470	-2.997500	3.112600	-9.329200	28.522060	0.000278	20.811186
2106.593999	-3.008200	3.112900	-9.362700	28.508109	0.000279	20.785282
2107.600808	-2.997400	3.111300	-9.325500	28.502682	0.000280	20.800680
2108.595460	-2.996500	3.108700	-9.313700	28.469599	0.000277	20.805297
2109.571098	-3.011400	3.108900	-9.360900	28.467295	0.000278	20.789700
2110.574713	-3.002200	3.110400	-9.336300	28.485930	0.000278	20.790448
2111.580104	-3.019600	3.108900	-9.386800	28.503475	0.000276	20.788202
2112.575684	-3.022200	3.108400	-9.393000	28.501641	0.000272	20.813382
2113.601080	-2.969000	3.107300	-9.224500	28.473738	0.000275	20.784334
2114.576185	-2.986300	3.105900	-9.274500	28.444743	0.000272	20.784534
2115.573147	-3.009100	3.106000	-9.345000	28.452128	0.000273	20.788178
2116.577224	-3.014500	3.105200	-9.359800	28.510141	0.000272	20.803450
2117.582724	-3.004500	3.103900	-9.325200	28.521144	0.000273	20.811212
2118.573564	-3.018400	3.103400	-9.366200	28.542157	0.000271	20.789700
2119.575020	-3.003400	3.101900	-9.313400	28.550062	0.000272	20.800506
2120.577816	-2.986500	3.101500	-9.261400	28.576279	0.000271	20.788976
2121.575515	-3.035900	3.100200	-9.410800	28.560049	0.000270	20.808192
2122.594223	-3.014100	3.100900	-9.345100	28.533807	0.000269	20.786032
2123.601046	-3.006200	3.101100	-9.321100	28.542505	0.000269	20.803326
2124.605035	-3.004000	3.099300	-9.309400	28.558165	0.000267	20.792545
2125.574532	-2.989100	3.100100	-9.265700	28.544933	0.000266	20.782064
2126.579092	-3.021100	3.097000	-9.355400	28.600860	0.000264	20.802353
2127.592395	-3.009100	3.096700	-9.317200	28.613199	0.000265	20.819522
2128.601689	-3.002500	3.096800	-9.296700	28.637259	0.000265	20.797761
2129.574393	-2.996500	3.095500	-9.273500	28.633641	0.000263	20.806920
2130.580134	-3.002400	3.094900	-9.292000	28.630296	0.000262	20.803077
2131.574919	-2.999600	3.093200	-9.277000	28.626134	0.000263	20.787979
2132.595088	-3.023400	3.091500	-9.344600	28.659806	0.000262	20.799134
2133.591372	-2.997900	3.092700	-9.270600	28.657898	0.000260	20.810963
2134.593128	-3.016600	3.091100	-9.323200	28.601058	0.000260	20.799708
2135.594274	-2.991800	3.091400	-9.248300	28.553582	0.000260	20.803102
2136.591853	-2.977200	3.091600	-9.203500	28.553185	0.000259	20.808392
2137.597569	-3.019500	3.090100	-9.329400	28.566244	0.000259	20.790724
2138.576433	-2.995000	3.089400	-9.251700	28.563890	0.000258	20.813009
2139.585263	-2.996500	3.088700	-9.253200	28.519955	0.000257	20.821868
2140.581088	-2.996400	3.087800	-9.251100	28.457953	0.000259	20.803052
2141.583178	-2.993400	3.087700	-9.241900	28.475672	0.000256	20.811412
2142.579417	-3.009700	3.086200	-9.286400	28.505607	0.000258	20.811686
2143.580015	-2.986500	3.086400	-9.216600	28.518592	0.000257	20.820970
2144.584563	-2.986600	3.083900	-9.209100	28.516808	0.000255	20.811587
2145.580754	-3.004200	3.083600	-9.262700	28.514528	0.000257	20.821144
2146.584976	-2.983500	3.082800	-9.197000	28.561858	0.000255	20.813807
2147.583086	-2.993100	3.081300	-9.221000	28.560123	0.000254	20.805423
2148.583565	-3.024000	3.079300	-9.310300	28.580888	0.000256	20.823964
2149.615993	-3.001200	3.078300	-9.237600	28.591841	0.000251	20.805123
2150.595836	-2.981900	3.081000	-9.185900	28.580839	0.000252	20.815380
2151.585844	-3.008600	3.077900	-9.258800	28.574719	0.000252	20.812535
2152.600440	-2.993500	3.077500	-9.212100	28.577098	0.000249	20.811138
2153.607346	-2.996700	3.077000	-9.219900	28.596177	0.000251	20.818500
2154.579439	-3.014700	3.075700	-9.271300	28.624821	0.000250	20.804201
2155.603278	-3.021800	3.074800	-9.290700	28.626729	0.000250	20.805648
2156.607035	-3.017700	3.074700	-9.277700	28.620658	0.000250	20.806646
2157.606400	-3.009500	3.072500	-9.245400	28.625391	0.000248	20.823741
2158.606461	-2.990100	3.073200	-9.188600	28.624004	0.000247	20.828033
2159.603513	-2.977200	3.071700	-9.144300	28.591172	0.000249	20.831476
2160.611525	-2.990000	3.071300	-9.182700	28.616620	0.000247	20.806846
2161.586142	-3.000400	3.069300	-9.208200	28.648534	0.000247	20.821919
2162.589207	-3.002100	3.069400	-9.211900	28.674351	0.000246	20.828008
2163.587385	-2.982900	3.068300	-9.151900	28.701110	0.000246	20.846899
2164.587368	-2.979000	3.068500	-9.139400	28.735300	0.000245	20.827758
2165.593583	-2.995600	3.065100	-9.180600	28.712234	0.000244	20.814483
2166.586363	-2.999100	3.064400	-9.189100	28.695510	0.000242	20.812811
2167.592306	-2.993300	3.065400	-9.173900	28.697641	0.000242	20.825862
2168.588043	-3.016600	3.063500	-9.240900	28.703117	0.000243	20.819049
2169.592680	-3.002800	3.061700	-9.193000	28.668603	0.000243	20.846874
2170.612226	-3.005500	3.061800	-9.201100	28.639242	0.000242	20.802604
2171.611950	-3.003900	3.061100	-9.193000	28.587407	0.000244	20.831951
2172.612287	-2.997700	3.059100	-9.168800	28.560744	0.000242	20.815531
2173.616189	-2.998100	3.058600	-9.169200	28.552369	0.000243	20.839338
2174.601818	-2.989300	3.057100	-9.136900	28.566419	0.000242	20.832625
2175.593086	-3.010300	3.057600	-9.201900	28.605495	0.000241	20.844478
2176.598668	-2.992300	3.057000	-9.146100	28.649525	0.000239	20.826237
2177.597084	-2.994600	3.055700	-9.149500	28.717487	0.000239	20.820722
2178.593528	-2.996100	3.055600	-9.153200	28.782893	0.000240	20.827809
2179.596692	-2.974000	3.053800	-9.080700	28.762801	0.000240	20.806622
2180.596950	-2.999200	3.052200	-9.152700	28.784231	0.000239	20.825363
2181.593837	-3.002600	3.051700	-9.162200	28.773281	0.000241	20.817178
2182.598523	-2.971000	3.052200	-9.067400	28.786262	0.000241	20.853013
2183.618742	-2.982800	3.050600	-9.097700	28.733269	0.000237	20.824765
2184.624238	-3.038300	3.045700	-9.252000	28.718355	0.000237	20.823018
2185.618596	-2.984500	3.048900	-9.097800	28.688029	0.000238	20.829930
2186.602493	-2.988800	3.046800	-9.104500	28.699054	0.000238	20.818277
2187.604618	-3.010300	3.045800	-9.168200	28.673088	0.000237	20.826736
2188.612155	-2.986200	3.045400	-9.093700	28.650715	0.000236	20.841660
2189.615060	-2.981100	3.044700	-9.075500	28.655423	0.000236	20.836918
2190.636112	-2.983000	3.042700	-9.074700	28.692762	0.000237	20.829956
2191.620431	-3.008400	3.040700	-9.146600	28.704679	0.000237	20.853813
2192.606078	-2.995800	3.039800	-9.106000	28.694025	0.000235	20.838341
2193.623564	-2.983300	3.039000	-9.065900	28.737333	0.000239	20.835496
2194.603578	-2.979100	3.038800	-9.051300	28.737532	0.000236	20.839489
2195.601696	-2.991900	3.037500	-9.086700	28.727374	0.000235	20.834947
2196.603539	-2.988600	3.036000	-9.072800	28.708693	0.000237	20.836994
2197.615094	-3.012100	3.034900	-9.140600	28.677376	0.000234	20.827736
2198.626980	-2.989400	3.034400	-9.070600	28.667936	0.000237	20.851892
2199.628443	-3.031800	3.031100	-9.187900	28.696529	0.000236	20.855560
2200.626875	-3.000500	3.031000	-9.093300	28.684636	0.000232	20.835048
2201.636513	-2.965800	3.031200	-8.988600	28.648685	0.000235	20.849097
2202.619422	-3.018800	3.028300	-9.140800	28.592191	0.000235	20.857632
2203.636567	-3.006900	3.028600	-9.106000	28.620588	0.000232	20.851144
2204.639988	-2.987500	3.027900	-9.044800	28.658423	0.000232	20.833776
2205.610231	-3.027700	3.023800	-9.154400	28.660752	0.000234	20.845130
2206.608511	-3.024900	3.024000	-9.146600	28.662957	0.000232	20.853515
2207.614872	-3.006700	3.023500	-9.089000	28.658696	0.000232	20.849697
2208.613110	-2.996600	3.021500	-9.052200	28.649851	0.000233	20.867814
2209.604180	-2.986100	3.021400	-9.020200	28.640113	0.000235	20.859904
2210.610537	-3.010000	3.021200	-9.092000	28.640733	0.000231	20.851994
2211.607334	-2.997900	3.019200	-9.050600	28.651907	0.000230	20.847128
2212.607366	-3.008800	3.018200	-9.079900	28.668409	0.000230	20.864696
2213.615194	-2.994500	3.016200	-9.031700	28.657756	0.000234	20.856336
2214.609711	-3.008400	3.014400	-9.067900	28.658994	0.000230	20.860429
2215.628656	-2.996900	3.013700	-9.030800	28.615807	0.000231	20.842063
2216.638944	-3.011800	3.012200	-9.071700	28.600073	0.000232	20.874578
2217.636513	-3.002700	3.012700	-9.045200	28.582059	0.000230	20.850273
2218.623645	-3.001700	3.011200	-9.038000	28.603493	0.000230	20.858583
2219.628786	-2.964700	3.011300	-8.926600	28.634416	0.000230	20.844684
2220.626955	-3.033100	3.007700	-9.121200	28.686175	0.000230	20.852245
2221.638817	-3.010200	3.006000	-9.047800	28.677925	0.000230	20.855314
2222.613678	-3.012900	3.005600	-9.054600	28.629139	0.000232	20.853593
2223.608094	-3.000100	3.004500	-9.013000	28.669749	0.000229	20.861303
2224.611856	-2.981400	3.003800	-8.954300	28.682212	0.000228	20.867692
2225.614647	-3.004500	3.002700	-9.020900	28.722770	0.000229	20.856862
2226.612289	-3.010100	3.001500	-9.034500	28.787705	0.000227	20.861104
2227.612313	-2.993400	3.000100	-8.979200	28.834453	0.000227	20.868840
2228.612051	-3.024900	2.999900	-9.073000	28.822611	0.000227	20.873981
2229.613976	-3.020700	2.997400	-9.053100	28.829745	0.000229	20.862676
2230.612457	-3.004600	2.997100	-9.003100	28.801752	0.000227	20.858658
2231.611010	-3.005600	2.994300	-8.999100	28.792511	0.000224	20.863574
2232.609458	-2.992300	2.995200	-8.961200	28.787283	0.000227	20.871584
2233.612525	-3.021100	2.990500	-9.033700	28.813444	0.000227	20.866643
2234.616268	-3.022900	2.989500	-9.035300	28.790801	0.000229	20.867542
2235.619641	-2.999400	2.990100	-8.966600	28.766770	0.000227	20.853767
2236.614964	-3.005700	2.988500	-8.981600	28.735628	0.000225	20.870286
2237.616138	-3.009200	2.987300	-8.988500	28.734042	0.000226	20.887180
2238.620910	-3.004800	2.985700	-8.969700	28.770486	0.000223	20.863199
2239.614729	-2.999700	2.984200	-8.950500	28.752846	0.000226	20.887629
2240.615197	-3.003800	2.984200	-8.962500	28.715138	0.000225	20.868140
2241.617228	-3.014000	2.981800	-8.985900	28.696135	0.000222	20.876499
2242.618771	-2.993100	2.979900	-8.918500	28.678395	0.000224	20.868589
2243.617461	-2.989600	2.978300	-8.903200	28.723091	0.000224	20.892270
2244.618528	-2.999100	2.977800	-8.929000	28.754951	0.000223	20.870784
2245.620915	-2.982400	2.976100	-8.874900	28.818819	0.000225	20.858781
2246.620255	-2.989600	2.975600	-8.894700	28.857712	0.000224	20.873779
2247.620145	-3.006200	2.973200	-8.937100	28.846787	0.000224	20.882213
2248.618280	-2.978000	2.972200	-8.850400	28.864772	0.000223	20.882787
2249.622233	-2.966100	2.970200	-8.809200	28.812625	0.000223	20.865818
2250.617475	-2.989300	2.968400	-8.872400	28.801700	0.000222	20.894639
2251.618595	-3.001200	2.967500	-8.905300	28.819091	0.000223	20.874227
2252.618450	-2.974300	2.966300	-8.821700	28.831898	0.000221	20.887128
2253.622600	-2.990600	2.966000	-8.868500	28.837546	0.000222	20.872430
2254.623588	-2.987300	2.962800	-8.850000	28.888751	0.000222	20.866167
2255.618089	-2.999500	2.962600	-8.885400	28.913001	0.000221	20.888226
2256.624958	-2.988100	2.960800	-8.846200	28.923281	0.000222	20.887203
2257.622248	-3.022900	2.956900	-8.937100	28.902474	0.000222	20.881413
2258.620321	-2.955800	2.959800	-8.747700	28.934403	0.000223	20.882287
2259.622149	-3.000000	2.954600	-8.862500	28.917980	0.000221	20.888025
2260.621834	-2.989500	2.954200	-8.829800	28.876488	0.000224	20.878468
2261.624590	-3.006700	2.953900	-8.879800	28.951841	0.000221	20.887526
2262.622729	-2.986400	2.952300	-8.815800	28.970666	0.000219	20.880888
2263.621174	-3.011200	2.948000	-8.875100	29.008216	0.000219	20.878418
2264.627294	-3.000700	2.948400	-8.845700	28.982605	0.000220	20.882485
2265.619126	-3.004500	2.946400	-8.851600	28.934897	0.000221	20.897008
2266.622128	-3.027900	2.943400	-8.910800	28.964646	0.000223	20.870557
2267.623991	-2.971500	2.944300	-8.748000	28.953128	0.000222	20.901624
2268.622781	-2.989200	2.941100	-8.790000	29.014903	0.000220	20.891792
2269.626107	-3.015400	2.942000	-8.869500	29.075312	0.000221	20.898130
2270.623913	-2.985400	2.939200	-8.773900	29.075089	0.000220	20.897431
2271.622126	-3.011500	2.935600	-8.839800	29.086606	0.000223	20.889596
2272.625927	-3.006800	2.935100	-8.822700	29.107112	0.000221	20.875173
2273.624406	-3.003200	2.934200	-8.811200	29.092673	0.000220	20.882434
2274.622118	-2.985900	2.932000	-8.752700	29.094927	0.000221	20.908410
2275.628401	-2.979400	2.931700	-8.733900	29.094629	0.000222	20.901947
2276.623258	-2.999500	2.929800	-8.786700	29.063769	0.000220	20.883182
2277.627532	-3.027600	2.927200	-8.861500	29.025007	0.000220	20.907661
2278.632293	-2.995700	2.926600	-8.766500	29.030605	0.000219	20.904766
2279.628120	-2.985400	2.924700	-8.729700	29.028573	0.000220	20.890867
2280.626461	-3.013100	2.922700	-8.806000	29.021787	0.000218	20.892564
2281.629064	-2.979300	2.921900	-8.704100	28.971827	0.000219	20.901971
2282.623961	-3.026800	2.917600	-8.830000	28.952457	0.000218	20.888146
2283.627326	-2.972200	2.919400	-8.675200	28.925061	0.000218	20.893262
2284.625695	-2.991800	2.916100	-8.722200	28.901255	0.000219	20.909107
2285.627507	-2.994800	2.913900	-8.725700	28.858895	0.000218	20.890616
2286.627388	-3.000000	2.912400	-8.736400	28.844973	0.000217	20.901246
2287.627639	-2.982300	2.911600	-8.683100	28.813486	0.000220	20.893710
2288.629826	-2.998000	2.908400	-8.718000	28.835237	0.000217	20.901396
2289.628773	-2.970600	2.909400	-8.640900	28.860876	0.000217	20.910628
2290.630119	-2.996200	2.905800	-8.706000	28.927660	0.000218	20.895407
2291.628669	-2.993800	2.905200	-8.697500	29.000137	0.000217	20.902992
2292.628625	-2.996500	2.903600	-8.700100	29.042243	0.000218	20.894209
2293.630503	-2.970800	2.902000	-8.620300	29.100149	0.000221	20.892811
2294.634474	-3.002700	2.899300	-8.704400	29.103319	0.000219	20.905013
2295.631760	-2.984200	2.896500	-8.641700	29.117981	0.000218	20.917414
2296.626390	-3.013100	2.894400	-8.719900	29.072162	0.000218	20.891164
2297.629681	-3.005400	2.893700	-8.695900	29.097177	0.000218	20.912573
2298.634554	-3.000900	2.890900	-8.672600	29.111665	0.000220	20.894931
2299.636391	-3.030700	2.888500	-8.753300	29.102650	0.000218	20.881107
2300.629399	-3.015100	2.886900	-8.701700	29.076793	0.000219	20.911949
2301.630301	-2.974200	2.886700	-8.584800	29.045462	0.000219	20.910252
2302.632776	-3.004400	2.883700	-8.662800	29.046576	0.000221	20.890988
2303.626479	-3.004500	2.879700	-8.651500	29.028743	0.000217	20.888667
2304.627461	-3.015500	2.878000	-8.677600	29.037214	0.000215	20.927070
2305.626358	-3.003000	2.876400	-8.636100	29.011256	0.000216	20.919883
2306.626916	-2.972900	2.876500	-8.550800	28.973681	0.000218	20.911424
2307.630352	-3.019900	2.873000	-8.675400	28.948441	0.000219	20.883152
2308.630193	-3.013000	2.871600	-8.651500	28.963278	0.000218	20.905211
2309.631535	-3.010800	2.869200	-8.635400	28.982127	0.000217	20.908555
2310.631513	-3.008100	2.867300	-8.623700	29.013634	0.000215	20.895254
2311.634724	-2.998100	2.866300	-8.591700	29.076074	0.000218	20.886096
2312.631382	-2.994100	2.862600	-8.569100	29.132492	0.000216	20.910226
2313.628765	-3.028600	2.861500	-8.665600	29.154756	0.000217	20.903738
2314.627587	-3.014800	2.859800	-8.620200	29.200348	0.000217	20.903214
2315.630155	-3.012000	2.858100	-8.607900	29.193439	0.000217	20.908579
2316.631256	-3.019000	2.854000	-8.614600	29.197104	0.000216	20.909902
2317.632854	-3.011100	2.853500	-8.591600	29.250644	0.000216	20.908853
2318.632766	-2.960700	2.853600	-8.447500	29.308662	0.000217	20.909477
2319.632795	-2.995800	2.850100	-8.536900	29.365415	0.000217	20.905984
2320.632002	-3.003200	2.848900	-8.554200	29.368931	0.000217	20.902890
2321.630068	-2.978700	2.846500	-8.478000	29.361923	0.000216	20.925222
2322.630953	-3.023300	2.843600	-8.596600	29.355585	0.000218	20.898922
2323.632800	-3.004400	2.841100	-8.534500	29.345433	0.000216	20.920930
2324.631021	-3.004500	2.839600	-8.529600	29.346250	0.000215	20.933132
2325.632950	-2.995200	2.837500	-8.498100	29.306582	0.000217	20.919708
2326.635036	-3.020600	2.834500	-8.561100	29.246260	0.000217	20.924349
2327.639017	-2.998000	2.832600	-8.491600	29.222537	0.000217	20.914193
2328.632780	-2.993300	2.830400	-8.471700	29.226647	0.000217	20.903638
2329.633160	-2.977100	2.828700	-8.419800	29.252921	0.000216	20.927742
2330.638284	-3.015600	2.826300	-8.522300	29.259409	0.000218	20.918161
2331.640760	-2.985400	2.823300	-8.428100	29.278204	0.000216	20.923351
2332.635565	-2.999200	2.821000	-8.458700	29.358234	0.000216	20.912970
2333.637493	-3.040700	2.818600	-8.569500	29.410131	0.000218	20.913594
2334.635002	-3.003300	2.816800	-8.458500	29.445809	0.000216	20.912097
2335.635225	-3.011700	2.814600	-8.475800	29.426769	0.000215	20.916139
2336.640389	-2.972100	2.814000	-8.362600	29.431003	0.000218	20.925147
2337.639683	-2.995300	2.809000	-8.412800	29.423179	0.000217	20.922952
2338.636941	-2.995500	2.808200	-8.410600	29.443234	0.000216	20.906183
2339.637491	-3.031300	2.803900	-8.497400	29.488863	0.000217	20.921829
2340.636374	-2.996000	2.802600	-8.395200	29.512284	0.000217	20.941167
2341.640005	-2.990900	2.798300	-8.368900	29.500004	0.000218	20.928791
2342.635894	-3.017600	2.796000	-8.435900	29.508892	0.000217	20.930637
2343.636291	-3.005600	2.794800	-8.399000	29.537560	0.000217	20.931561
2344.635932	-3.001000	2.791400	-8.375300	29.487576	0.000219	20.921954
2345.634713	-3.014400	2.788900	-8.406200	29.364548	0.000216	20.913171
2346.639163	-2.980700	2.785900	-8.302500	29.302224	0.000216	20.930014
2347.640837	-3.003500	2.783500	-8.357700	29.279914	0.000216	20.937874
2348.637990	-2.988700	2.782200	-8.314100	29.222736	0.000216	20.922453
2349.647390	-3.018700	2.778800	-8.387800	29.194306	0.000217	20.929839
2350.640860	-2.976000	2.777100	-8.264000	29.220680	0.000216	20.926546
2351.638272	-2.977500	2.774200	-8.258800	29.256439	0.000218	20.935080
2352.644644	-2.970000	2.770700	-8.227700	29.316710	0.000215	20.938922
2353.639900	-2.971400	2.767700	-8.222700	29.369476	0.000216	20.927619
2354.640281	-3.009000	2.764000	-8.316100	29.419590	0.000219	20.926920
2355.636278	-2.989900	2.761300	-8.255300	29.454748	0.000216	20.944811
2356.647325	-2.998400	2.758300	-8.268800	29.507135	0.000217	20.932659
2357.641583	-2.970500	2.758100	-8.191600	29.510205	0.000215	20.920108
2358.638030	-2.981900	2.753500	-8.209500	29.531372	0.000215	20.919160
2359.641027	-2.987500	2.749300	-8.213300	29.542488	0.000215	20.925623
2360.639333	-2.988300	2.747400	-8.208100	29.547489	0.000216	20.906010
2361.639841	-2.987500	2.744500	-8.197100	29.552044	0.000218	20.930514
2362.641155	-2.969200	2.740600	-8.135900	29.582568	0.000217	20.920982
2363.639322	-2.990100	2.737500	-8.184400	29.593361	0.000219	20.919061
2364.636754	-3.010700	2.733600	-8.228100	29.625988	0.000219	20.926821
2365.638018	-3.004200	2.731300	-8.203600	29.650519	0.000216	20.930689
2366.639576	-2.993400	2.728000	-8.164400	29.689952	0.000217	20.917813
2367.637027	-2.985700	2.723500	-8.130200	29.702180	0.000218	20.928243
2368.642838	-3.028700	2.720600	-8.238800	29.710249	0.000217	20.919310
2369.642259	-2.995600	2.718600	-8.143300	29.721759	0.000216	20.929491
2370.645424	-2.974600	2.715700	-8.077400	29.736189	0.000218	20.933134
2371.641218	-3.008000	2.710700	-8.151800	29.725571	0.000216	20.911525
2372.641017	-3.019000	2.706600	-8.169600	29.728120	0.000219	20.902242
2373.649843	-3.000300	2.704500	-8.112200	29.770098	0.000213	20.921331
2374.642701	-2.996900	2.700600	-8.092200	29.736486	0.000212	20.923003
2375.640388	-2.999700	2.696200	-8.087400	29.702897	0.000215	20.911899
2376.637886	-2.982800	2.693700	-8.034600	29.640098	0.000215	20.905486
2377.641412	-3.014100	2.689500	-8.106100	29.634256	0.000214	20.893908
2378.643367	-3.000100	2.685500	-8.055900	29.641138	0.000217	20.921706
2379.646785	-2.994800	2.683000	-8.034000	29.690422	0.000217	20.888418
2380.645018	-2.996500	2.677700	-8.021700	29.708665	0.000216	20.901594
2381.643488	-3.004800	2.673200	-8.030300	29.700645	0.000215	20.919585
2382.646346	-2.998700	2.669200	-8.003300	29.728491	0.000214	20.896453
2383.643484	-3.009000	2.666300	-8.021200	29.747996	0.000215	20.910901
2384.648329	-3.011600	2.662300	-8.017200	29.729209	0.000216	20.902866
2385.644233	-3.019200	2.656100	-8.018400	29.753763	0.000215	20.902492
2386.643662	-2.962000	2.655600	-7.865000	29.783019	0.000217	20.883627
2387.643782	-2.935800	2.651700	-7.783700	29.790295	0.000217	20.902817
2388.646832	-2.998100	2.644700	-7.928600	29.751511	0.000219	20.877938
2389.646415	-2.992500	2.640500	-7.900900	29.759085	0.000217	20.886522
2390.644673	-3.004800	2.636500	-7.921800	29.765025	0.000217	20.921906
2391.644174	-2.978200	2.632000	-7.836300	29.713715	0.000216	20.887246
2392.648681	-2.994500	2.627700	-7.867700	29.694804	0.000219	20.908955
2393.646113	-2.982400	2.623200	-7.822400	29.599229	0.000220	20.901744
2394.649144	-2.970400	2.618500	-7.777300	29.623043	0.000218	20.882604
2395.647518	-2.992600	2.612100	-7.815700	29.676412	0.000217	20.903216
2396.644911	-2.988100	2.609300	-7.794900	29.716239	0.000220	20.884102
2397.657631	-3.026600	2.601600	-7.872900	29.692304	0.000218	20.896479
2398.647217	-2.991000	2.599200	-7.772700	29.710200	0.000219	20.890814
2399.650893	-3.012500	2.591900	-7.807200	29.685893	0.000219	20.882430
2400.656102	-2.996300	2.587000	-7.750100	29.690620	0.000219	20.890515
2401.649857	-2.970300	2.581800	-7.667600	29.728294	0.000221	20.880608
2402.649928	-2.980000	2.575900	-7.674300	29.706932	0.000217	20.867133
2403.650017	-2.986100	2.570300	-7.673900	29.662303	0.000219	20.901319
2404.651595	-2.998100	2.565600	-7.691400	29.643465	0.000219	20.893709
2405.658050	-2.991800	2.558300	-7.653600	29.602199	0.000217	20.888618
2406.652544	-2.994200	2.554400	-7.647200	29.678145	0.000217	20.891687
2407.647818	-3.034000	2.547600	-7.727200	29.668887	0.000216	20.870976
2408.648716	-2.994600	2.540600	-7.607400	29.694507	0.000217	20.874045
2409.651971	-3.021600	2.534200	-7.656800	29.736833	0.000217	20.868830
2410.648145	-2.994800	2.527800	-7.569700	29.803512	0.000219	20.885324
2411.654654	-2.995400	2.522600	-7.555000	29.876003	0.000219	20.865486
2412.651078	-3.023000	2.515300	-7.603200	29.886620	0.000216	20.879036
2413.660528	-2.985100	2.510000	-7.491600	29.893228	0.000216	20.884750
2414.649060	-3.004400	2.503500	-7.520000	29.875483	0.000218	20.865910
2415.650166	-3.011200	2.496800	-7.516400	29.908101	0.000217	20.873671
