LabVIEW Measurement	
Writer_Version	2
Reader_Version	2
Separator	Tab
Decimal_Separator	.
Multi_Headings	No
X_Columns	One
Time_Pref	Absolute
Operator	admin
Description	Clolumns are: time, Current, Voltage, Power, Battery Temp, and Chamber Temp
Date	2024/08/16
Time	13:59:35.9411449432373046875
***End_of_Header***	
	
Channels	6						
Samples	1	1	1	1	1	1	
Date	2024/09/20	2024/09/20	2024/09/20	2024/09/20	2024/09/20	2024/09/20	
Time	11:57:45.0654926300048828125	11:57:45.0731015205383300781	11:57:45.0791378021240234375	11:57:45.0489602088928222656	11:57:45.0489602088928222656	11:57:45.0489602088928222656	
X_Dimension	Time	Time	Time	Time	Time	Time	
X0	0.0000000000000000E+0	0.0000000000000000E+0	0.0000000000000000E+0	0.0000000000000000E+0	0.0000000000000000E+0	0.0000000000000000E+0	
Delta_X	1.000000	1.000000	1.000000	1.000000	1.000000	1.000000	
***End_of_Header***							
X_Value	Untitled	Untitled 1	Untitled 2	Untitled 3	Untitled 4	Untitled 5	Comment
0.000000	0.019362	4.101400	0.079410	20.793251	0.000405	20.717383
0.999670	-3.025600	3.936300	-11.907000	20.773964	0.000405	20.720382
2.004099	-2.989400	3.929400	-11.745000	20.762263	0.000405	20.714846
3.000431	-2.991600	3.923100	-11.735000	20.798749	0.000403	20.720511
4.001696	-2.984300	3.920600	-11.699000	20.763445	0.000402	20.703224
5.004578	-3.009800	3.917600	-11.790000	20.798281	0.000403	20.729052
6.002007	-3.003800	3.913700	-11.755000	20.768322	0.000401	20.719482
7.001743	-3.005800	3.910400	-11.753000	20.761406	0.000399	20.715885
8.007044	-3.002400	3.908200	-11.734000	20.792380	0.000399	20.700391
9.001926	-3.026800	3.905000	-11.818000	20.777435	0.000399	20.719586
10.002613	-2.988000	3.904100	-11.664000	20.790243	0.000399	20.719117
11.008728	-2.984700	3.902400	-11.646000	20.797761	0.000399	20.727585
12.002913	-2.998800	3.900600	-11.696000	20.779645	0.000397	20.719899
13.005763	-3.015400	3.899800	-11.759000	20.806327	0.000395	20.723347
14.008963	-2.977700	3.897800	-11.605000	20.784897	0.000396	20.724203
15.002224	-3.006700	3.897400	-11.717000	20.811573	0.000393	20.730016
16.004340	-2.997300	3.896300	-11.678000	20.820039	0.000393	20.733742
17.006504	-3.022400	3.894500	-11.770000	20.807065	0.000393	20.720292
18.004416	-2.983700	3.893800	-11.617000	20.820069	0.000392	20.748946
19.005890	-2.978700	3.892800	-11.594000	20.825113	0.000392	20.736919
20.009025	-3.017000	3.891700	-11.740000	20.845654	0.000391	20.732805
21.004933	-3.003700	3.891300	-11.687000	20.848751	0.000391	20.734480
22.006419	-3.016400	3.889200	-11.730000	20.858807	0.000391	20.736475
23.008015	-3.008500	3.889800	-11.701000	20.861337	0.000391	20.718141
24.006751	-3.005600	3.888700	-11.687000	20.857217	0.000390	20.732989
25.007154	-2.989700	3.887100	-11.620000	20.858492	0.000391	20.727151
26.013000	-2.973400	3.887800	-11.559000	20.881373	0.000389	20.734387
27.007826	-2.994400	3.886200	-11.636000	20.853855	0.000387	20.732471
28.007804	-3.002400	3.885400	-11.665000	20.885868	0.000390	20.730821
29.015322	-3.007200	3.884500	-11.680000	20.900017	0.000389	20.726480
30.009180	-2.995000	3.884700	-11.634000	20.898343	0.000388	20.730495
31.009260	-2.970900	3.885600	-11.542000	20.902283	0.000387	20.742497
32.011260	-2.954900	3.884600	-11.477000	20.909987	0.000388	20.744037
33.009959	-2.994200	3.882600	-11.624000	20.914229	0.000386	20.731684
34.010356	-2.990900	3.882300	-11.610000	20.927874	0.000389	20.758607
35.012323	-3.011800	3.882700	-11.693000	20.935785	0.000387	20.757511
36.010877	-3.006300	3.880800	-11.666000	20.935152	0.000387	20.739807
37.010934	-3.025300	3.880900	-11.739000	20.948347	0.000387	20.749685
38.019315	-3.009200	3.880600	-11.677000	20.954756	0.000386	20.749932
39.012042	-2.984900	3.880800	-11.582000	20.955575	0.000384	20.754544
40.014418	-2.992100	3.880800	-11.611000	20.981823	0.000386	20.741440
41.014198	-2.997800	3.879900	-11.630000	20.983381	0.000386	20.750112
42.013669	-3.013100	3.879000	-11.686000	20.981608	0.000384	20.756873
43.012883	-3.013500	3.879400	-11.689000	20.995320	0.000385	20.764898
44.015972	-3.006900	3.878400	-11.661000	21.008920	0.000383	20.743887
45.014525	-3.015100	3.877600	-11.690000	21.020588	0.000385	20.742280
46.018714	-2.987800	3.877000	-11.582000	21.009654	0.000384	20.782554
47.014851	-3.017300	3.875800	-11.693000	21.014542	0.000382	20.770374
48.015333	-2.984800	3.877200	-11.571000	21.019894	0.000382	20.752966
49.016470	-3.014000	3.876700	-11.683000	21.020140	0.000379	20.780714
50.015444	-2.983700	3.876500	-11.565000	21.042920	0.000381	20.736641
51.014801	-2.993600	3.876400	-11.603000	21.054685	0.000381	20.747461
52.016880	-2.971900	3.876300	-11.519000	21.062166	0.000379	20.763479
53.016291	-2.974400	3.875300	-11.525000	21.055677	0.000379	20.778800
54.016194	-2.996600	3.875000	-11.611000	21.060313	0.000379	20.782489
55.019617	-3.024000	3.872500	-11.709000	21.089249	0.000381	20.760696
56.016759	-3.017400	3.873500	-11.688000	21.088947	0.000379	20.762292
57.016795	-3.006300	3.873600	-11.644000	21.079990	0.000381	20.754280
58.022700	-3.006000	3.873600	-11.643000	21.105538	0.000379	20.773671
59.017343	-3.008200	3.873300	-11.651000	21.103938	0.000377	20.782502
60.018949	-3.004700	3.872900	-11.637000	21.117531	0.000379	20.772865
61.020826	-2.992600	3.872700	-11.588000	21.122290	0.000378	20.772884
62.024523	-2.984000	3.872700	-11.555000	21.150583	0.000377	20.763253
63.018839	-3.013400	3.871900	-11.666000	21.138955	0.000378	20.780071
64.025331	-2.988000	3.873000	-11.572000	21.148361	0.000377	20.782368
65.020171	-2.999700	3.871400	-11.612000	21.153994	0.000376	20.771407
66.021798	-3.019700	3.871600	-11.691000	21.173004	0.000378	20.751541
67.021909	-3.020800	3.870500	-11.690000	21.185599	0.000378	20.777417
68.020149	-3.013600	3.871400	-11.666000	21.177017	0.000376	20.772626
69.021874	-3.003900	3.871500	-11.629000	21.177960	0.000377	20.787794
70.021832	-3.006900	3.871400	-11.640000	21.199246	0.000377	20.772577
71.020300	-2.982000	3.870900	-11.543000	21.203616	0.000377	20.808717
72.019615	-3.004900	3.870700	-11.631000	21.208246	0.000375	20.786796
73.023325	-2.984700	3.870200	-11.550000	21.196224	0.000375	20.775244
74.020835	-3.007900	3.868600	-11.636000	21.222342	0.000377	20.785250
75.044217	-2.987200	3.869200	-11.557000	21.219468	0.000376	20.780004
76.023717	-3.012900	3.868900	-11.656000	21.217745	0.000375	20.787763
77.020942	-2.992400	3.869700	-11.578000	21.228468	0.000376	20.806077
78.020656	-2.998400	3.868600	-11.599000	21.230931	0.000376	20.800006
79.024187	-2.983800	3.868700	-11.543000	21.259073	0.000377	20.792124
80.021791	-3.017500	3.868600	-11.672000	21.261782	0.000377	20.788670
81.020806	-3.004000	3.867900	-11.618000	21.253799	0.000377	20.788744
82.025947	-3.009200	3.867900	-11.638000	21.271853	0.000378	20.806806
83.020529	-3.020500	3.866400	-11.677000	21.298937	0.000376	20.812089
84.023030	-3.006800	3.867200	-11.627000	21.289077	0.000376	20.804596
85.022370	-3.013500	3.867200	-11.653000	21.296057	0.000375	20.800674
86.023716	-3.012800	3.866300	-11.647000	21.302582	0.000377	20.822375
87.023770	-2.996500	3.866900	-11.586000	21.293621	0.000377	20.797763
88.026158	-2.988900	3.867000	-11.557000	21.302621	0.000377	20.800602
89.024460	-2.991900	3.867100	-11.569000	21.315603	0.000375	20.796047
90.024963	-2.976600	3.867700	-11.511000	21.331920	0.000376	20.808103
91.028096	-3.008300	3.865100	-11.627000	21.340815	0.000376	20.808468
92.024707	-2.986100	3.865900	-11.543000	21.335497	0.000375	20.800777
93.028028	-3.006400	3.864800	-11.618000	21.366321	0.000375	20.790839
94.028872	-3.010000	3.865500	-11.634000	21.383525	0.000375	20.815163
95.027880	-2.977500	3.865100	-11.507000	21.394301	0.000375	20.817884
96.027170	-2.989300	3.866000	-11.555000	21.365929	0.000375	20.807042
97.032599	-2.988300	3.866000	-11.552000	21.390691	0.000373	20.814746
98.028100	-2.983100	3.864800	-11.528000	21.379667	0.000376	20.805140
99.028518	-2.994000	3.864600	-11.570000	21.434358	0.000376	20.828090
100.033195	-2.997900	3.864100	-11.582000	21.404226	0.000375	20.813589
101.029500	-3.005300	3.864700	-11.613000	21.398133	0.000377	20.811761
102.032871	-3.005400	3.864600	-11.614000	21.429416	0.000377	20.822198
103.035919	-2.998000	3.864300	-11.584000	21.430180	0.000377	20.836712
104.031571	-2.990400	3.865000	-11.556000	21.461955	0.000375	20.828202
105.030312	-2.989600	3.863200	-11.548000	21.447043	0.000375	20.825136
106.033050	-3.008800	3.862200	-11.620000	21.455839	0.000375	20.818289
107.031860	-3.001700	3.862200	-11.592000	21.467858	0.000376	20.831738
108.031058	-2.992300	3.863000	-11.558000	21.450029	0.000376	20.816743
109.037158	-3.001500	3.862800	-11.593000	21.480628	0.000376	20.828394
110.031675	-2.990100	3.862500	-11.548000	21.491305	0.000375	20.819163
111.030488	-3.005700	3.863100	-11.610000	21.496660	0.000374	20.818358
112.034859	-3.003100	3.861900	-11.597000	21.492722	0.000377	20.818210
113.033419	-3.009800	3.862900	-11.624000	21.516864	0.000377	20.839521
114.031532	-3.008700	3.860900	-11.616000	21.501799	0.000375	20.825870
115.035757	-2.998300	3.862800	-11.581000	21.521775	0.000375	20.823573
116.033530	-2.997500	3.862400	-11.577000	21.527111	0.000375	20.831757
117.032741	-3.001200	3.862300	-11.591000	21.547935	0.000374	20.827465
118.034536	-3.006000	3.860200	-11.603000	21.528256	0.000375	20.840014
119.032471	-2.996000	3.860500	-11.566000	21.542575	0.000375	20.833007
120.035998	-2.994800	3.860400	-11.560000	21.548187	0.000375	20.835303
121.032218	-2.999700	3.861400	-11.582000	21.541904	0.000377	20.840396
122.032143	-3.002600	3.859700	-11.588000	21.552206	0.000378	20.843117
123.031182	-2.999600	3.860200	-11.578000	21.574002	0.000376	20.837427
124.034387	-2.984000	3.860600	-11.519000	21.588335	0.000377	20.835649
125.034142	-3.011600	3.859600	-11.622000	21.591208	0.000378	20.831412
126.034600	-3.010000	3.859100	-11.614000	21.582704	0.000378	20.842341
127.032938	-3.018600	3.858600	-11.647000	21.612678	0.000378	20.867594
128.032689	-2.994700	3.859700	-11.558000	21.598094	0.000374	20.852052
129.034572	-3.024600	3.858100	-11.669000	21.609890	0.000377	20.855321
130.033933	-3.011900	3.858800	-11.622000	21.621593	0.000378	20.832894
131.034423	-3.007400	3.858400	-11.602000	21.616529	0.000377	20.851534
132.036430	-2.986600	3.858700	-11.524000	21.633986	0.000377	20.856675
133.034840	-2.967800	3.859100	-11.453000	21.642115	0.000376	20.838258
134.034463	-2.984100	3.859100	-11.515000	21.640200	0.000379	20.849144
135.034776	-3.005000	3.859300	-11.597000	21.666610	0.000379	20.851391
136.036239	-3.000100	3.857200	-11.571000	21.683242	0.000379	20.855234
137.036472	-3.001900	3.858800	-11.582000	21.685660	0.000378	20.878041
138.035935	-3.013600	3.858800	-11.627000	21.669182	0.000378	20.859180
139.036855	-3.025300	3.856400	-11.666000	21.694397	0.000376	20.844112
140.038162	-3.011600	3.857800	-11.617000	21.698187	0.000378	20.861181
141.040616	-3.004800	3.857000	-11.588000	21.697048	0.000378	20.850558
142.037134	-2.991100	3.857600	-11.537000	21.672362	0.000379	20.858569
143.037064	-3.000300	3.856700	-11.571000	21.701841	0.000380	20.859622
144.039243	-2.998200	3.857400	-11.564000	21.707176	0.000378	20.848366
145.039839	-2.981500	3.858200	-11.502000	21.716035	0.000380	20.859603
146.039896	-2.992900	3.855700	-11.539000	21.719880	0.000380	20.864399
147.038050	-2.980700	3.857900	-11.497000	21.744744	0.000379	20.845187
148.039719	-3.008800	3.857300	-11.605000	21.733447	0.000381	20.848580
149.045989	-3.012500	3.855200	-11.612000	21.731287	0.000382	20.860168
150.041755	-3.001200	3.854900	-11.569000	21.762733	0.000380	20.857501
151.041908	-3.003600	3.854800	-11.578000	21.747376	0.000381	20.851614
152.040516	-2.990900	3.856300	-11.532000	21.785731	0.000380	20.844957
153.040974	-3.002400	3.854400	-11.571000	21.760775	0.000379	20.852223
154.042480	-2.992000	3.854500	-11.532000	21.769708	0.000380	20.839353
155.044430	-3.004900	3.854700	-11.582000	21.783318	0.000381	20.852500
156.043133	-2.998300	3.854400	-11.555000	21.788812	0.000379	20.847567
157.043399	-2.995900	3.855000	-11.548000	21.803325	0.000380	20.842179
158.047274	-2.997800	3.853500	-11.550000	21.804832	0.000383	20.859333
159.044731	-3.013900	3.854800	-11.617000	21.824101	0.000382	20.838791
160.043793	-3.001000	3.853100	-11.562000	21.811519	0.000383	20.831888
161.045642	-2.994000	3.854100	-11.538000	21.824833	0.000383	20.830989
162.045669	-2.989900	3.853800	-11.522000	21.836706	0.000384	20.841924
163.044709	-2.999400	3.853300	-11.556000	21.852013	0.000384	20.852503
164.047650	-3.011900	3.853000	-11.604000	21.853415	0.000383	20.841105
165.049216	-3.009600	3.853100	-11.596000	21.850548	0.000385	20.835391
166.044915	-3.023700	3.852600	-11.648000	21.844248	0.000384	20.834300
167.048970	-2.991000	3.853000	-11.523000	21.873969	0.000385	20.824694
168.049644	-2.989600	3.851800	-11.515000	21.879936	0.000384	20.824977
169.046419	-3.000600	3.852800	-11.560000	21.874952	0.000385	20.820937
170.055707	-2.996200	3.852100	-11.541000	21.903079	0.000385	20.813055
171.048958	-3.004200	3.851200	-11.568000	21.888400	0.000386	20.814009
172.047170	-2.996700	3.852400	-11.543000	21.902137	0.000385	20.825862
173.054305	-2.995700	3.851200	-11.535000	21.880328	0.000386	20.824421
174.049592	-2.997000	3.851700	-11.543000	21.906412	0.000386	20.821606
175.050037	-3.003000	3.852000	-11.567000	21.905095	0.000386	20.818866
176.052905	-2.992300	3.851100	-11.523000	21.917669	0.000386	20.814856
177.052555	-2.987600	3.851900	-11.507000	21.911541	0.000389	20.807775
178.050840	-3.007600	3.850400	-11.579000	21.927628	0.000390	20.798273
179.054138	-3.003900	3.850900	-11.566000	21.918830	0.000389	20.813174
180.051051	-3.004400	3.849700	-11.565000	21.929786	0.000387	20.817976
181.049417	-3.001200	3.850800	-11.556000	21.934246	0.000388	20.815803
182.054488	-2.993700	3.849500	-11.524000	21.951359	0.000388	20.807329
183.050591	-2.988000	3.849700	-11.502000	21.951316	0.000389	20.815820
184.054229	-3.023700	3.847600	-11.634000	21.953241	0.000390	20.823437
185.052173	-3.010400	3.848600	-11.584000	21.947113	0.000389	20.798337
186.054035	-3.014700	3.848300	-11.600000	21.966515	0.000391	20.788835
187.053592	-3.001800	3.848900	-11.553000	21.976991	0.000389	20.815917
188.053823	-2.995300	3.849800	-11.531000	21.967948	0.000389	20.813029
189.054302	-3.000800	3.848600	-11.547000	21.968476	0.000390	20.796014
190.058426	-3.007800	3.848600	-11.575000	21.977156	0.000390	20.809918
191.054246	-3.006500	3.847400	-11.566000	21.963751	0.000392	20.817837
192.055698	-3.006800	3.847200	-11.567000	21.989360	0.000391	20.793685
193.055708	-3.017900	3.847400	-11.610000	22.008681	0.000394	20.793587
194.053872	-3.000600	3.847800	-11.544000	22.021254	0.000392	20.782465
195.053293	-3.019900	3.847100	-11.616000	22.011584	0.000392	20.805501
196.058143	-2.999400	3.847800	-11.540000	22.021758	0.000393	20.804307
197.055623	-3.013000	3.847900	-11.592000	22.029588	0.000393	20.782748
198.056540	-3.044900	3.846700	-11.712000	22.037000	0.000395	20.792538
199.058527	-2.990400	3.847500	-11.505000	22.034829	0.000393	20.798900
200.059460	-2.992700	3.846600	-11.512000	22.039694	0.000394	20.791442
201.057558	-3.033600	3.846700	-11.668000	22.047555	0.000394	20.785087
202.059414	-2.992100	3.847200	-11.509000	22.071568	0.000396	20.796324
203.058230	-2.980400	3.846900	-11.464000	22.067798	0.000394	20.785912
204.058660	-2.999600	3.847500	-11.540000	22.051276	0.000397	20.793553
205.059217	-2.988700	3.847200	-11.496000	22.068584	0.000396	20.784328
206.057063	-3.006800	3.844600	-11.559000	22.087529	0.000395	20.776268
207.061199	-2.991700	3.846100	-11.505000	22.075498	0.000396	20.775128
208.058665	-2.994800	3.844400	-11.513000	22.077890	0.000397	20.777523
209.056979	-2.995000	3.845200	-11.515000	22.086994	0.000398	20.788533
210.064071	-2.986300	3.844300	-11.478000	22.105791	0.000397	20.770367
211.057969	-2.991700	3.845500	-11.504000	22.101934	0.000397	20.778360
212.060327	-3.008600	3.844300	-11.565000	22.103650	0.000399	20.781027
213.063044	-2.989900	3.844100	-11.493000	22.117440	0.000398	20.770176
214.058635	-3.028100	3.842300	-11.633000	22.119814	0.000398	20.779665
215.058402	-2.994900	3.843700	-11.511000	22.120386	0.000400	20.765539
216.064866	-3.000600	3.844000	-11.533000	22.134674	0.000398	20.804500
217.060799	-3.008400	3.844600	-11.565000	22.138118	0.000401	20.774283
218.059181	-3.004900	3.843700	-11.549000	22.138567	0.000401	20.781845
219.063528	-2.983500	3.844600	-11.469000	22.152627	0.000401	20.767946
220.060750	-2.994700	3.844400	-11.511000	22.166668	0.000401	20.771573
221.062186	-3.010900	3.843300	-11.571000	22.177339	0.000403	20.800749
222.068371	-3.002900	3.843500	-11.541000	22.177265	0.000402	20.771751
223.061580	-3.009300	3.843200	-11.564000	22.171490	0.000403	20.800108
224.061584	-3.007100	3.843300	-11.556000	22.188908	0.000403	20.774873
225.067053	-3.010500	3.842200	-11.566000	22.170616	0.000403	20.777896
226.063410	-2.965200	3.843500	-11.395000	22.217679	0.000403	20.783291
227.062321	-2.999500	3.843100	-11.526000	22.208207	0.000404	20.764798
228.066895	-3.004300	3.843000	-11.545000	22.177461	0.000405	20.762464
229.063700	-3.021500	3.841200	-11.605000	22.212456	0.000406	20.753405
230.070071	-3.007000	3.842700	-11.554000	22.213680	0.000406	20.775968
231.065584	-3.010100	3.842300	-11.565000	22.215254	0.000406	20.773751
232.065158	-3.025200	3.840400	-11.618000	22.222451	0.000406	20.766257
233.065752	-3.009200	3.841500	-11.559000	22.237167	0.000407	20.771509
234.069757	-3.005800	3.840500	-11.543000	22.233182	0.000409	20.777002
235.068707	-2.988700	3.840800	-11.478000	22.264166	0.000408	20.759661
236.069499	-2.973700	3.841400	-11.421000	22.240789	0.000406	20.754273
237.072481	-2.992600	3.840400	-11.491000	22.246896	0.000408	20.767026
238.071155	-3.016900	3.840100	-11.584000	22.271423	0.000409	20.789213
239.078430	-3.004300	3.839500	-11.534000	22.272474	0.000410	20.778886
240.071995	-3.026900	3.839200	-11.620000	22.255174	0.000409	20.790487
241.071752	-3.005200	3.840500	-11.541000	22.278359	0.000408	20.773399
242.072067	-2.995700	3.839600	-11.501000	22.292486	0.000410	20.770948
243.074566	-2.992400	3.840700	-11.492000	22.298500	0.000411	20.757055
244.072174	-3.023700	3.838200	-11.605000	22.305080	0.000410	20.771231
245.073473	-3.028300	3.838600	-11.623000	22.287461	0.000411	20.761649
246.073478	-3.007100	3.838600	-11.542000	22.310664	0.000412	20.780142
247.074701	-3.024500	3.838100	-11.607000	22.311765	0.000413	20.764174
248.073192	-3.000600	3.837800	-11.515000	22.317650	0.000412	20.766748
249.073822	-3.011300	3.837700	-11.556000	22.316936	0.000412	20.763662
250.073678	-2.995900	3.839000	-11.500000	22.320718	0.000412	20.768398
251.074172	-3.013700	3.837400	-11.564000	22.318953	0.000411	20.743396
252.073335	-3.022300	3.837400	-11.597000	22.337703	0.000413	20.759327
253.075130	-2.997500	3.837800	-11.503000	22.329850	0.000413	20.756205
254.075036	-2.982700	3.838100	-11.447000	22.350765	0.000415	20.763397
255.076072	-2.988200	3.837200	-11.466000	22.355930	0.000413	20.757189
256.075342	-3.008500	3.837100	-11.542000	22.349479	0.000412	20.750255
257.077361	-3.008200	3.836200	-11.539000	22.365258	0.000416	20.755151
258.076699	-3.014500	3.835200	-11.560000	22.354318	0.000415	20.762688
259.079854	-3.000200	3.836100	-11.508000	22.356372	0.000415	20.756210
260.076381	-2.969600	3.837100	-11.394000	22.366838	0.000415	20.741560
261.077346	-2.992800	3.837900	-11.485000	22.374242	0.000414	20.764621
262.079366	-2.970100	3.836900	-11.395000	22.382150	0.000416	20.755944
263.081656	-2.981800	3.836200	-11.438000	22.372335	0.000417	20.739478
264.077677	-2.995000	3.835000	-11.485000	22.404410	0.000419	20.780133
265.081504	-2.991400	3.836300	-11.475000	22.398980	0.000418	20.748616
266.076842	-2.999900	3.835300	-11.504000	22.386552	0.000418	20.740912
267.077760	-2.985300	3.835100	-11.448000	22.398297	0.000417	20.728491
268.081208	-2.989500	3.835900	-11.467000	22.441409	0.000419	20.740370
269.081115	-3.009900	3.833600	-11.538000	22.433119	0.000418	20.753406
270.078687	-3.006100	3.834000	-11.524000	22.428858	0.000418	20.748665
271.080693	-3.002400	3.833700	-11.510000	22.428698	0.000418	20.747081
272.079111	-3.008900	3.833600	-11.534000	22.432387	0.000420	20.754570
273.078077	-3.004400	3.834000	-11.517000	22.450207	0.000418	20.743491
274.082917	-3.000200	3.833800	-11.502000	22.436107	0.000420	20.740277
275.079205	-3.005200	3.833500	-11.520000	22.427215	0.000422	20.727104
276.079466	-2.983400	3.834000	-11.438000	22.447507	0.000421	20.755961
277.083628	-3.007200	3.832400	-11.523000	22.466329	0.000421	20.737825
278.079941	-3.002900	3.832900	-11.509000	22.461299	0.000421	20.738004
279.078797	-2.980600	3.832300	-11.421000	22.485703	0.000422	20.737788
280.083151	-2.999700	3.832500	-11.496000	22.490715	0.000422	20.734271
281.081748	-2.981800	3.833500	-11.430000	22.469938	0.000423	20.759458
282.082867	-2.987500	3.832800	-11.449000	22.482002	0.000423	20.729813
283.085298	-2.986600	3.833600	-11.449000	22.480071	0.000424	20.745897
284.084442	-3.020800	3.832000	-11.575000	22.487326	0.000424	20.730878
285.087268	-2.994600	3.832800	-11.477000	22.503005	0.000424	20.719553
286.085601	-3.007700	3.832300	-11.525000	22.516366	0.000424	20.737676
287.082790	-2.994400	3.831200	-11.472000	22.505557	0.000423	20.742498
288.081863	-2.977300	3.831000	-11.405000	22.500927	0.000425	20.740706
289.085580	-2.984700	3.831700	-11.435000	22.524156	0.000426	20.738366
290.085253	-3.004300	3.831000	-11.508000	22.524635	0.000426	20.723198
291.081220	-3.008900	3.830800	-11.525000	22.516366	0.000425	20.733882
292.088115	-3.004200	3.830200	-11.506000	22.527181	0.000425	20.730015
293.082902	-2.990500	3.830300	-11.453000	22.530827	0.000425	20.754530
294.085811	-2.991200	3.830400	-11.457000	22.546573	0.000428	20.739954
295.086551	-2.973600	3.830300	-11.389000	22.564391	0.000427	20.746894
296.087988	-2.976900	3.829100	-11.398000	22.552310	0.000428	20.720094
297.083818	-2.992500	3.829000	-11.457000	22.533852	0.000429	20.722945
298.086635	-3.010000	3.829500	-11.526000	22.554234	0.000430	20.712538
299.089180	-3.000100	3.828900	-11.486000	22.558003	0.000428	20.709674
300.085963	-2.990300	3.827500	-11.444000	22.569863	0.000429	20.728666
301.089754	-3.003800	3.828800	-11.500000	22.577093	0.000428	20.723579
302.087330	-3.017300	3.828600	-11.551000	22.582178	0.000430	20.722508
303.087840	-3.009500	3.827300	-11.517000	22.563788	0.000431	20.722107
304.091233	-3.014300	3.826900	-11.536000	22.583752	0.000430	20.734042
305.092218	-2.993400	3.827300	-11.456000	22.597149	0.000431	20.730390
306.088126	-3.014900	3.826100	-11.535000	22.590509	0.000432	20.726110
307.090836	-2.988600	3.827800	-11.439000	22.596165	0.000431	20.723714
308.089947	-3.000500	3.827200	-11.483000	22.596767	0.000434	20.707247
309.090912	-3.000000	3.826800	-11.479000	22.605436	0.000433	20.723992
310.091631	-3.010900	3.824900	-11.514000	22.611123	0.000434	20.698392
311.092917	-3.020900	3.826500	-11.559000	22.602098	0.000434	20.725864
312.091708	-3.004800	3.826100	-11.495000	22.620093	0.000435	20.716386
313.094179	-3.004800	3.826600	-11.497000	22.632906	0.000434	20.704088
314.093032	-2.990900	3.826800	-11.445000	22.641500	0.000434	20.689936
315.092579	-3.025900	3.824300	-11.571000	22.635002	0.000433	20.709981
316.096786	-3.017500	3.824800	-11.540000	22.620425	0.000434	20.709132
317.092782	-3.009500	3.824900	-11.510000	22.645964	0.000437	20.707684
318.095706	-3.018300	3.824300	-11.542000	22.637123	0.000434	20.704519
319.098012	-3.005100	3.824400	-11.493000	22.653273	0.000436	20.712636
320.095724	-3.000300	3.823800	-11.471000	22.643584	0.000435	20.718104
321.099462	-3.009400	3.823300	-11.505000	22.652905	0.000437	20.725069
322.100565	-3.004700	3.824400	-11.490000	22.659618	0.000437	20.713775
323.097909	-2.981600	3.824100	-11.401000	22.667413	0.000438	20.705461
324.097379	-3.012600	3.822600	-11.515000	22.691156	0.000438	20.706958
325.100111	-2.991600	3.823300	-11.437000	22.679979	0.000437	20.696710
326.097137	-2.998600	3.822600	-11.461000	22.696701	0.000438	20.719151
327.098746	-3.010800	3.822700	-11.508000	22.685697	0.000437	20.718560
328.100701	-3.000900	3.821900	-11.468000	22.685844	0.000439	20.710646
329.100373	-2.981300	3.822700	-11.396000	22.716963	0.000439	20.709100
330.099834	-2.973900	3.823100	-11.368000	22.712562	0.000437	20.704217
331.103939	-2.996000	3.820900	-11.447000	22.698656	0.000438	20.704513
332.100687	-3.000100	3.821400	-11.463000	22.725650	0.000440	20.707370
333.099620	-3.007900	3.820900	-11.492000	22.730561	0.000439	20.714661
334.108574	-3.022400	3.820400	-11.546000	22.733383	0.000440	20.708004
335.102256	-2.987600	3.820900	-11.414000	22.733156	0.000441	20.690231
336.105730	-3.003000	3.821100	-11.474000	22.751173	0.000442	20.708281
337.103775	-2.995100	3.821600	-11.445000	22.734059	0.000441	20.704888
338.105109	-2.990700	3.820800	-11.426000	22.727992	0.000441	20.707345
339.104991	-2.999000	3.820400	-11.456000	22.759380	0.000442	20.682361
340.106186	-3.004600	3.821100	-11.480000	22.771466	0.000443	20.696839
341.106096	-2.993700	3.821300	-11.439000	22.766068	0.000443	20.674835
342.105674	-3.010200	3.819400	-11.496000	22.767630	0.000443	20.716232
343.110807	-2.994800	3.820500	-11.440000	22.755956	0.000443	20.684621
344.105183	-3.005300	3.820100	-11.479000	22.770181	0.000442	20.691284
345.106891	-3.002500	3.819300	-11.467000	22.788340	0.000444	20.699992
346.105356	-3.015700	3.819400	-11.518000	22.781295	0.000443	20.686770
347.105397	-2.984900	3.818800	-11.396000	22.792286	0.000444	20.696833
348.105915	-2.997300	3.818900	-11.445000	22.798962	0.000447	20.691192
349.113057	-2.994000	3.819200	-11.434000	22.800560	0.000445	20.697061
350.105427	-2.991200	3.819800	-11.425000	22.820366	0.000445	20.700306
351.108464	-3.007300	3.817800	-11.480000	22.808514	0.000444	20.715462
352.110260	-2.994400	3.817300	-11.429000	22.788333	0.000445	20.704728
353.107416	-3.003300	3.816900	-11.462000	22.800499	0.000445	20.686567
354.107204	-3.011000	3.817800	-11.495000	22.802017	0.000447	20.700892
355.108718	-3.017300	3.817600	-11.517000	22.832119	0.000449	20.696433
356.109362	-3.009700	3.817900	-11.490000	22.822794	0.000448	20.707007
357.107797	-2.997000	3.817700	-11.440000	22.837915	0.000449	20.698447
358.110096	-3.004500	3.817600	-11.470000	22.831713	0.000450	20.674213
359.108671	-2.999400	3.817300	-11.449000	22.837872	0.000448	20.696981
360.107615	-3.000700	3.816300	-11.451000	22.848106	0.000449	20.692535
361.110870	-2.999800	3.815600	-11.445000	22.865907	0.000451	20.694721
362.108810	-2.986100	3.815900	-11.394000	22.858488	0.000452	20.682546
363.110849	-2.987900	3.815500	-11.399000	22.876695	0.000452	20.699838
364.110143	-2.991400	3.814600	-11.410000	22.872730	0.000451	20.706298
365.107194	-2.984500	3.814500	-11.384000	22.871654	0.000452	20.699056
366.108322	-2.996500	3.814100	-11.428000	22.875158	0.000452	20.690237
367.110108	-2.997200	3.815500	-11.435000	22.873111	0.000453	20.702413
368.109210	-3.002600	3.813800	-11.451000	22.891532	0.000453	20.702376
369.110207	-2.984000	3.814600	-11.381000	22.870579	0.000456	20.712678
370.114003	-3.005800	3.813400	-11.462000	22.889406	0.000454	20.693606
371.110160	-2.995200	3.813900	-11.423000	22.899738	0.000455	20.688310
372.113192	-2.995400	3.813700	-11.423000	22.905866	0.000454	20.691605
373.112186	-3.009100	3.812400	-11.471000	22.921847	0.000456	20.705720
374.112731	-3.001800	3.812500	-11.442000	22.907894	0.000454	20.701698
375.113728	-3.005700	3.811300	-11.454000	22.927821	0.000455	20.690841
376.113538	-2.983600	3.812800	-11.375000	22.932824	0.000456	20.705338
377.114153	-3.011400	3.812200	-11.479000	22.952050	0.000456	20.686191
378.117478	-2.989800	3.813500	-11.401000	22.947059	0.000454	20.709642
379.114925	-2.994800	3.812000	-11.415000	22.946039	0.000454	20.698188
380.115765	-3.030200	3.811800	-11.549000	22.945707	0.000455	20.730100
381.117360	-2.996400	3.811000	-11.418000	22.931607	0.000456	20.696057
382.114923	-2.990200	3.811100	-11.395000	22.950218	0.000458	20.708540
383.116158	-3.004700	3.810500	-11.449000	22.961736	0.000457	20.703010
384.119398	-2.974700	3.810700	-11.335000	22.978878	0.000457	20.707857
385.115565	-2.975200	3.811200	-11.337000	22.980297	0.000456	20.700270
386.115421	-2.977600	3.811000	-11.346000	22.960452	0.000457	20.701723
387.123487	-2.994000	3.811100	-11.409000	22.964975	0.000455	20.730913
388.115448	-2.997600	3.809500	-11.417000	22.994114	0.000457	20.710320
389.116452	-3.016400	3.809400	-11.490000	22.983954	0.000460	20.721953
390.118502	-3.010900	3.808400	-11.466000	22.993770	0.000458	20.726097
391.117352	-3.022300	3.808200	-11.508000	22.987593	0.000458	20.728444
392.116819	-3.019900	3.808700	-11.502000	22.990057	0.000458	20.682072
393.120625	-3.012900	3.808300	-11.473000	23.013670	0.000459	20.709051
394.118327	-3.007500	3.808900	-11.454000	23.000671	0.000460	20.733961
395.117904	-3.000000	3.809300	-11.427000	23.001188	0.000457	20.709347
396.125626	-3.009800	3.808600	-11.462000	23.016184	0.000461	20.713941
397.118203	-3.007000	3.807700	-11.449000	23.012023	0.000461	20.714040
398.118559	-2.999800	3.807200	-11.420000	23.024806	0.000462	20.727797
399.120606	-2.999100	3.806800	-11.416000	23.036705	0.000461	20.717433
400.118607	-3.002800	3.807000	-11.431000	23.038333	0.000461	20.724281
401.118171	-3.010900	3.808000	-11.465000	23.047896	0.000461	20.716318
402.122854	-2.995800	3.806800	-11.404000	23.030504	0.000462	20.733980
403.118611	-3.025100	3.806500	-11.514000	23.066622	0.000463	20.721331
404.118817	-3.005800	3.806400	-11.440000	23.049684	0.000462	20.747509
405.118823	-3.009800	3.805100	-11.451000	23.069166	0.000463	20.736683
406.119792	-3.011400	3.806300	-11.462000	23.083878	0.000462	20.719182
407.119078	-3.001400	3.807500	-11.426000	23.061767	0.000462	20.718363
408.125113	-2.972900	3.806200	-11.314000	23.076756	0.000463	20.728641
409.122900	-3.000200	3.805100	-11.415000	23.078974	0.000463	20.719958
410.121843	-2.974800	3.804900	-11.317000	23.112325	0.000463	20.725401
411.121610	-3.003400	3.805000	-11.427000	23.077837	0.000465	20.731621
412.122125	-3.008400	3.804100	-11.444000	23.111637	0.000464	20.726608
413.121738	-3.006500	3.803200	-11.433000	23.100545	0.000463	20.726399
414.121807	-2.999600	3.803700	-11.409000	23.097964	0.000463	20.717174
415.122381	-2.989100	3.804300	-11.371000	23.110113	0.000464	20.735987
416.120836	-3.008500	3.803800	-11.443000	23.117211	0.000463	20.727452
417.122612	-3.002000	3.803000	-11.416000	23.102567	0.000465	20.725106
418.121430	-3.009900	3.803300	-11.446000	23.116092	0.000467	20.722064
419.122766	-3.021000	3.804100	-11.491000	23.124044	0.000465	20.730981
420.124271	-3.017900	3.802400	-11.474000	23.121125	0.000466	20.747971
421.123045	-2.981900	3.803900	-11.342000	23.118409	0.000466	20.716798
422.122306	-3.002100	3.802400	-11.414000	23.140372	0.000465	20.742601
423.123485	-3.010300	3.800700	-11.440000	23.145903	0.000467	20.720641
424.124608	-3.012200	3.801000	-11.448000	23.166077	0.000465	20.728530
425.123144	-3.009700	3.800600	-11.438000	23.144766	0.000464	20.730882
426.126423	-3.005300	3.801000	-11.422000	23.154254	0.000466	20.733278
427.123786	-2.994500	3.801700	-11.384000	23.165659	0.000467	20.730008
428.128800	-3.001100	3.799600	-11.402000	23.153394	0.000468	20.749960
429.125805	-2.994300	3.800600	-11.380000	23.154758	0.000466	20.729041
430.122739	-3.020000	3.799500	-11.473000	23.188555	0.000465	20.736357
431.127539	-2.987700	3.800600	-11.354000	23.188156	0.000466	20.749233
432.125015	-2.985900	3.799600	-11.344000	23.176880	0.000467	20.733191
433.125167	-2.987800	3.800100	-11.352000	23.203229	0.000465	20.727354
434.130131	-3.013500	3.799400	-11.447000	23.173476	0.000469	20.760601
435.131833	-3.001400	3.798300	-11.400000	23.199549	0.000468	20.741209
436.129033	-2.997400	3.799000	-11.386000	23.198455	0.000470	20.764770
437.136585	-3.010600	3.799100	-11.437000	23.204858	0.000470	20.745107
438.127869	-3.005200	3.798700	-11.415000	23.202523	0.000470	20.725223
439.128716	-2.975600	3.799500	-11.305000	23.210738	0.000467	20.722550
440.130823	-3.009000	3.797200	-11.424000	23.217965	0.000469	20.742595
441.128454	-2.970900	3.799000	-11.286000	23.228626	0.000470	20.746641
442.128581	-2.998900	3.797800	-11.388000	23.211973	0.000468	20.751290
443.130816	-3.013500	3.796400	-11.440000	23.204833	0.000471	20.737970
444.129410	-2.991100	3.797900	-11.359000	23.215943	0.000471	20.747682
445.130988	-3.005500	3.796900	-11.411000	23.223065	0.000471	20.745809
446.140615	-3.008800	3.796500	-11.422000	23.246955	0.000470	20.748414
447.131549	-3.039400	3.794900	-11.534000	23.225191	0.000473	20.749837
448.132031	-2.999000	3.796600	-11.386000	23.225768	0.000473	20.739984
449.133592	-3.004900	3.795900	-11.405000	23.243072	0.000474	20.731720
450.131480	-3.013300	3.794800	-11.434000	23.259336	0.000475	20.725734
451.134007	-3.015100	3.794400	-11.440000	23.251545	0.000475	20.760127
452.133876	-3.009400	3.794200	-11.417000	23.263201	0.000474	20.734823
453.142256	-2.997600	3.793900	-11.372000	23.259011	0.000474	20.745323
454.135007	-2.979700	3.795200	-11.308000	23.280879	0.000477	20.759653
455.141262	-3.004200	3.795100	-11.400000	23.274329	0.000475	20.738389
456.134565	-2.995400	3.793900	-11.364000	23.267300	0.000473	20.737508
457.133002	-2.990500	3.792900	-11.341000	23.282784	0.000476	20.739276
458.140415	-3.001700	3.793200	-11.385000	23.284996	0.000477	20.741493
459.138613	-2.980200	3.794500	-11.308000	23.289702	0.000477	20.746210
460.135950	-2.987500	3.793400	-11.331000	23.314900	0.000477	20.771464
461.139475	-2.993000	3.792200	-11.348000	23.297782	0.000478	20.765214
462.134686	-2.989600	3.791400	-11.334000	23.313739	0.000477	20.740901
463.137196	-2.988100	3.793100	-11.333000	23.319582	0.000480	20.748180
464.139265	-2.991400	3.792500	-11.344000	23.322168	0.000478	20.756937
465.134800	-2.967300	3.792400	-11.253000	23.316006	0.000479	20.764037
466.136161	-3.004900	3.790400	-11.388000	23.342014	0.000478	20.751223
467.140994	-3.032200	3.789400	-11.489000	23.309094	0.000479	20.761377
468.136575	-2.999200	3.790700	-11.368000	23.351138	0.000479	20.762264
469.136548	-2.981800	3.790900	-11.303000	23.341344	0.000480	20.769992
470.151296	-3.017100	3.789300	-11.432000	23.321118	0.000481	20.757307
471.137695	-3.006600	3.789900	-11.393000	23.362634	0.000480	20.778053
472.135314	-3.004600	3.789700	-11.386000	23.349031	0.000481	20.774377
473.139988	-3.013400	3.789700	-11.420000	23.337818	0.000481	20.773096
474.135180	-3.010200	3.788600	-11.403000	23.365706	0.000481	20.748889
475.136735	-2.995600	3.789000	-11.349000	23.343913	0.000481	20.756445
476.139273	-3.008000	3.788100	-11.395000	23.360367	0.000481	20.765350
477.139169	-3.004900	3.786100	-11.375000	23.384175	0.000481	20.777358
478.146462	-3.027900	3.787200	-11.467000	23.397434	0.000481	20.774526
479.140451	-2.999000	3.787500	-11.358000	23.399314	0.000482	20.777359
480.141708	-2.996000	3.786800	-11.345000	23.388532	0.000482	20.792156
481.141798	-3.005400	3.786900	-11.380000	23.408511	0.000484	20.807915
482.141351	-3.012400	3.786500	-11.405000	23.408131	0.000483	20.795679
483.139465	-2.984400	3.787800	-11.303000	23.415319	0.000482	20.782970
484.146889	-3.004200	3.786500	-11.373000	23.411670	0.000482	20.774571
485.142426	-3.023500	3.785100	-11.444000	23.430986	0.000484	20.795828
486.143780	-3.004500	3.784900	-11.370000	23.423749	0.000483	20.794264
487.147671	-3.015100	3.785300	-11.412000	23.442174	0.000482	20.793765
488.143248	-3.021500	3.784100	-11.433000	23.428541	0.000484	20.797645
489.144842	-3.000400	3.785400	-11.357000	23.443225	0.000483	20.800983
490.145005	-3.014400	3.784900	-11.409000	23.458873	0.000481	20.793434
491.143336	-3.001100	3.785100	-11.359000	23.447680	0.000483	20.786482
492.142686	-3.007800	3.783700	-11.380000	23.458130	0.000483	20.810707
493.150575	-2.979000	3.784400	-11.273000	23.453437	0.000484	20.794624
494.142597	-3.002200	3.783300	-11.357000	23.465257	0.000484	20.801256
495.140849	-2.995200	3.782900	-11.330000	23.478472	0.000484	20.793639
496.143796	-3.005400	3.782600	-11.367000	23.474804	0.000483	20.813196
497.142950	-3.010400	3.782600	-11.387000	23.482564	0.000483	20.807698
498.142129	-3.023000	3.782700	-11.435000	23.478497	0.000483	20.792716
499.142947	-2.998200	3.781800	-11.338000	23.491435	0.000485	20.804737
500.144033	-3.012000	3.781200	-11.388000	23.498273	0.000483	20.794521
501.146787	-2.998700	3.781200	-11.338000	23.504662	0.000483	20.820840
502.144495	-3.011000	3.781700	-11.386000	23.501228	0.000484	20.809337
503.142832	-2.989000	3.781900	-11.303000	23.521562	0.000486	20.826401
504.146239	-2.999100	3.780000	-11.335000	23.506635	0.000484	20.821395
505.144466	-3.025200	3.779400	-11.433000	23.498791	0.000484	20.821118
506.143156	-3.000400	3.780800	-11.343000	23.543697	0.000486	20.817769
507.147820	-3.017600	3.780000	-11.405000	23.525121	0.000484	20.837553
508.146782	-3.005300	3.779600	-11.357000	23.536823	0.000483	20.820361
509.146286	-3.027300	3.778600	-11.437000	23.531147	0.000483	20.820835
510.150762	-3.005500	3.778400	-11.355000	23.541123	0.000483	20.810922
511.148806	-3.007600	3.780000	-11.368000	23.548784	0.000484	20.810066
512.145270	-3.028900	3.778500	-11.444000	23.555283	0.000485	20.813262
513.150163	-3.009500	3.778400	-11.370000	23.553514	0.000484	20.820023
514.147329	-3.019200	3.778200	-11.406000	23.546493	0.000483	20.820097
515.147487	-2.993000	3.778200	-11.307000	23.559037	0.000484	20.808490
516.157239	-2.997400	3.778200	-11.324000	23.544822	0.000483	20.809888
517.148204	-3.027300	3.776200	-11.430000	23.566058	0.000483	20.814106
518.147396	-3.016700	3.777300	-11.394000	23.588086	0.000485	20.833343
519.149869	-2.997500	3.776500	-11.320000	23.575561	0.000484	20.825055
520.146544	-3.009400	3.776100	-11.363000	23.569940	0.000484	20.823213
521.147100	-3.009000	3.776500	-11.362000	23.576906	0.000485	20.818343
522.147361	-3.011800	3.775200	-11.369000	23.579493	0.000484	20.832789
523.147800	-2.994400	3.776500	-11.308000	23.584671	0.000485	20.825178
524.147330	-2.986500	3.776600	-11.278000	23.596741	0.000484	20.828269
525.151290	-2.995100	3.775500	-11.307000	23.604708	0.000484	20.826773
526.147253	-3.003300	3.775200	-11.337000	23.597037	0.000487	20.820979
527.147644	-3.007300	3.774400	-11.350000	23.601441	0.000485	20.826342
528.150771	-2.998600	3.774800	-11.319000	23.623321	0.000484	20.835948
529.149659	-3.006200	3.775600	-11.350000	23.621503	0.000486	20.828910
530.148755	-3.012400	3.775100	-11.370000	23.609132	0.000488	20.822672
531.147038	-2.985000	3.773700	-11.264000	23.620901	0.000486	20.835893
532.148027	-3.007400	3.773800	-11.348000	23.642971	0.000485	20.840475
533.148130	-3.011900	3.773100	-11.363000	23.613543	0.000486	20.838474
534.151404	-3.007600	3.773300	-11.348000	23.622333	0.000488	20.817415
535.149532	-3.008200	3.772100	-11.346000	23.637634	0.000486	20.837969
536.149220	-3.006400	3.772400	-11.340000	23.653764	0.000488	20.843234
537.153127	-3.022800	3.772500	-11.402000	23.649643	0.000487	20.821560
538.150301	-2.998600	3.771500	-11.309000	23.648022	0.000488	20.829417
539.151687	-2.999800	3.771800	-11.314000	23.666585	0.000486	20.828113
540.156757	-3.004100	3.770600	-11.326000	23.679895	0.000488	20.845250
541.150801	-3.014900	3.770400	-11.366000	23.643969	0.000486	20.841475
542.150838	-3.020500	3.770400	-11.388000	23.662256	0.000488	20.852221
543.153695	-3.027000	3.770200	-11.412000	23.668349	0.000488	20.846002
544.152320	-2.958000	3.772000	-11.156000	23.678374	0.000489	20.846569
545.157922	-2.993600	3.770400	-11.286000	23.680008	0.000490	20.852001
546.151492	-3.016400	3.768100	-11.365000	23.686446	0.000489	20.857032
547.152926	-2.996500	3.769500	-11.295000	23.688449	0.000489	20.851454
548.155200	-3.009000	3.770200	-11.344000	23.707355	0.000490	20.865193
549.152918	-3.000800	3.768600	-11.307000	23.690619	0.000488	20.844621
550.152884	-2.999200	3.767800	-11.299000	23.711122	0.000491	20.863279
551.153264	-2.997700	3.768200	-11.295000	23.712259	0.000489	20.857307
552.155443	-3.006700	3.767800	-11.328000	23.720331	0.000490	20.863977
553.157286	-3.023900	3.767200	-11.390000	23.718729	0.000490	20.878491
554.152818	-3.021200	3.767700	-11.382000	23.748383	0.000489	20.868394
555.155040	-3.010400	3.767000	-11.339000	23.737046	0.000489	20.861295
556.165996	-3.011900	3.767000	-11.345000	23.738558	0.000489	20.868500
557.157717	-3.010700	3.766500	-11.339000	23.720250	0.000489	20.877645
558.154572	-2.996900	3.766500	-11.287000	23.738756	0.000492	20.855898
559.154185	-2.985000	3.766800	-11.243000	23.717433	0.000490	20.862495
560.156233	-2.979700	3.765200	-11.218000	23.749710	0.000488	20.887267
561.154486	-3.002200	3.765600	-11.304000	23.743427	0.000488	20.857262
562.153708	-2.991800	3.765700	-11.266000	23.745756	0.000492	20.875243
563.157650	-3.006300	3.763500	-11.313000	23.745365	0.000492	20.866317
564.153950	-3.015000	3.763500	-11.346000	23.764418	0.000492	20.894901
565.154541	-3.013700	3.763000	-11.340000	23.762638	0.000493	20.858980
566.159645	-2.980700	3.764900	-11.221000	23.751001	0.000490	20.867700
567.157772	-3.001300	3.763600	-11.295000	23.753833	0.000491	20.880970
568.156638	-2.983200	3.763100	-11.225000	23.782793	0.000488	20.879186
569.161200	-3.025300	3.762600	-11.381000	23.783082	0.000490	20.867623
570.158087	-2.987100	3.763400	-11.240000	23.796160	0.000490	20.871252
571.162663	-2.997000	3.762200	-11.273000	23.803070	0.000488	20.872490
572.157443	-3.013300	3.761800	-11.335000	23.798158	0.000490	20.889849
573.157817	-2.994100	3.762200	-11.264000	23.788093	0.000491	20.887818
574.160815	-2.988700	3.761600	-11.241000	23.812224	0.000489	20.887358
575.160217	-2.998400	3.761500	-11.278000	23.818243	0.000488	20.882014
576.161837	-2.998900	3.761000	-11.277000	23.800287	0.000488	20.880605
577.164245	-2.988600	3.762000	-11.241000	23.835896	0.000489	20.889756
578.160823	-2.994600	3.761700	-11.263000	23.833477	0.000488	20.880219
579.163218	-3.016700	3.760000	-11.342000	23.841461	0.000486	20.878742
580.164253	-2.977300	3.761800	-11.199000	23.837594	0.000486	20.879605
581.160688	-3.014200	3.759100	-11.330000	23.836263	0.000489	20.886331
582.161462	-2.968100	3.761400	-11.163000	23.836085	0.000488	20.868610
583.164874	-3.012600	3.758700	-11.322000	23.817016	0.000488	20.877465
584.164122	-3.004100	3.758500	-11.290000	23.860491	0.000489	20.889288
585.166827	-2.989600	3.758000	-11.233000	23.845182	0.000489	20.885317
586.168435	-2.992200	3.758000	-11.244000	23.863810	0.000490	20.893089
587.167019	-3.008800	3.758300	-11.307000	23.873016	0.000488	20.874821
588.165645	-2.992700	3.757000	-11.242000	23.864794	0.000489	20.884594
589.168153	-2.978700	3.757400	-11.191000	23.848214	0.000491	20.874607
590.165015	-2.996600	3.756800	-11.257000	23.862414	0.000491	20.869880
591.167691	-3.001800	3.755900	-11.273000	23.843942	0.000490	20.896874
592.166516	-3.006100	3.756500	-11.291000	23.869993	0.000490	20.882221
593.165573	-3.012800	3.755800	-11.315000	23.877934	0.000490	20.875484
594.165943	-2.970000	3.757700	-11.160000	23.878820	0.000491	20.878269
595.171340	-3.015900	3.755200	-11.325000	23.880148	0.000491	20.890506
596.166637	-3.006800	3.755700	-11.291000	23.861830	0.000491	20.869294
597.168954	-3.021100	3.755100	-11.343000	23.882428	0.000489	20.884258
598.169334	-3.000400	3.755600	-11.267000	23.878236	0.000492	20.869149
599.169790	-2.985200	3.754200	-11.206000	23.882590	0.000490	20.878256
600.168403	-2.993800	3.754600	-11.239000	23.900001	0.000492	20.866319
601.172794	-2.992000	3.755500	-11.236000	23.921840	0.000494	20.865458
602.169419	-2.992800	3.754800	-11.236000	23.903437	0.000490	20.868816
603.168586	-3.009000	3.753300	-11.292000	23.894650	0.000492	20.877074
604.175260	-3.003000	3.753200	-11.270000	23.890753	0.000489	20.854201
605.171108	-2.993500	3.753300	-11.235000	23.889526	0.000490	20.878099
606.172843	-3.018300	3.752300	-11.324000	23.896234	0.000489	20.873920
607.175910	-2.983900	3.753500	-11.199000	23.897623	0.000491	20.853503
608.174231	-3.006500	3.751400	-11.277000	23.924786	0.000489	20.853715
609.173263	-2.993100	3.751600	-11.227000	23.906690	0.000490	20.852638
610.179271	-3.008500	3.752000	-11.286000	23.912998	0.000491	20.841421
611.174184	-3.001000	3.751400	-11.256000	23.921598	0.000490	20.847199
612.174751	-2.994300	3.752500	-11.235000	23.934532	0.000490	20.862538
613.177402	-2.996400	3.751100	-11.239000	23.926759	0.000490	20.843839
614.173830	-2.998300	3.750800	-11.245000	23.914331	0.000490	20.859352
615.172946	-3.014600	3.750600	-11.306000	23.931619	0.000489	20.860566
616.178499	-3.012400	3.750400	-11.296000	23.952719	0.000489	20.865604
617.176472	-2.955100	3.751500	-11.084000	23.944198	0.000491	20.858956
618.176194	-2.996200	3.749800	-11.234000	23.927515	0.000490	20.848865
619.176483	-2.991800	3.748800	-11.215000	23.960382	0.000489	20.866650
620.178736	-2.993200	3.748400	-11.218000	23.964307	0.000489	20.847827
621.179385	-3.022400	3.747700	-11.326000	23.951486	0.000489	20.871953
622.180552	-3.015100	3.748000	-11.299000	23.957598	0.000489	20.867651
623.179554	-3.020100	3.747900	-11.318000	23.974117	0.000488	20.854346
624.179232	-3.008700	3.747200	-11.273000	23.976195	0.000489	20.862119
625.183434	-2.978200	3.748400	-11.162000	23.980465	0.000490	20.860711
626.181732	-2.983800	3.748900	-11.185000	23.968639	0.000490	20.860706
627.180779	-2.952400	3.749100	-11.067000	23.991404	0.000490	20.852241
628.184059	-3.003400	3.747000	-11.252000	23.971116	0.000492	20.855604
629.187122	-2.989500	3.748100	-11.204000	23.969215	0.000490	20.845163
630.184228	-3.010600	3.746900	-11.278000	23.982242	0.000489	20.841631
631.183718	-3.018700	3.746100	-11.307000	23.990674	0.000490	20.860991
632.187438	-2.988700	3.745900	-11.194000	23.999425	0.000489	20.821880
633.182965	-2.993000	3.747600	-11.215000	23.987294	0.000490	20.853336
634.182965	-3.015700	3.745500	-11.294000	23.987861	0.000488	20.838257
635.187524	-3.001700	3.745600	-11.242000	24.003902	0.000487	20.852920
636.185245	-2.980600	3.746200	-11.165000	24.009945	0.000486	20.861351
637.183415	-3.017600	3.743700	-11.296000	23.997592	0.000487	20.848016
638.187935	-3.005800	3.743700	-11.252000	24.009063	0.000487	20.841975
639.187522	-3.016300	3.743400	-11.290000	24.004773	0.000487	20.850949
640.190169	-3.012000	3.743500	-11.275000	24.018479	0.000488	20.856160
641.189631	-2.992600	3.744600	-11.205000	24.022675	0.000486	20.854204
642.186470	-3.028900	3.743200	-11.336000	24.014810	0.000486	20.839678
643.186122	-3.003500	3.742600	-11.240000	23.997360	0.000486	20.834981
644.189737	-2.988700	3.742000	-11.182000	24.024379	0.000486	20.834102
645.185780	-3.004400	3.742800	-11.244000	24.015371	0.000484	20.843560
646.186247	-3.020400	3.741400	-11.299000	24.025344	0.000486	20.858303
647.190011	-2.985700	3.742600	-11.173000	24.031811	0.000485	20.865736
648.187304	-3.024400	3.741200	-11.314000	24.027107	0.000486	20.843950
649.187640	-3.000300	3.740900	-11.223000	24.032254	0.000485	20.857646
650.194513	-2.990000	3.741500	-11.186000	24.031451	0.000486	20.849255
651.190308	-2.990900	3.741100	-11.188000	24.045014	0.000486	20.847210
652.187770	-2.996300	3.740000	-11.205000	24.043271	0.000485	20.855418
653.190719	-2.998300	3.740700	-11.215000	24.062256	0.000485	20.821829
654.189662	-3.000300	3.738500	-11.216000	24.049068	0.000484	20.828990
655.188677	-3.021700	3.739000	-11.297000	24.062852	0.000486	20.824323
656.193072	-2.985400	3.740300	-11.165000	24.033165	0.000484	20.835801
657.190528	-2.978400	3.740800	-11.140000	24.067201	0.000483	20.839589
658.190100	-3.019300	3.737900	-11.285000	24.055534	0.000484	20.826466
659.193048	-3.014700	3.738900	-11.271000	24.059912	0.000484	20.850297
660.191794	-2.986800	3.738200	-11.163000	24.056002	0.000483	20.822668
661.190805	-3.015500	3.738100	-11.272000	24.058218	0.000487	20.832477
662.194358	-3.004600	3.737500	-11.229000	24.071505	0.000484	20.830630
663.190709	-3.005800	3.737900	-11.234000	24.088151	0.000484	20.832625
664.192146	-2.994000	3.737100	-11.188000	24.063419	0.000483	20.813985
665.194312	-2.991600	3.736300	-11.177000	24.091022	0.000484	20.833608
666.190654	-3.002800	3.736400	-11.219000	24.085846	0.000484	20.833633
667.192016	-3.006400	3.735800	-11.231000	24.082561	0.000483	20.817537
668.195819	-2.997700	3.736400	-11.199000	24.079153	0.000485	20.821705
669.191354	-2.984100	3.736600	-11.149000	24.071614	0.000483	20.822204
670.192590	-2.993800	3.735900	-11.184000	24.083960	0.000484	20.807086
671.194227	-3.000500	3.736000	-11.209000	24.090475	0.000482	20.829267
672.192557	-2.998700	3.735300	-11.200000	24.093440	0.000482	20.809481
673.195223	-3.011900	3.735200	-11.249000	24.099512	0.000483	20.823157
674.198476	-2.999500	3.735700	-11.205000	24.108293	0.000482	20.817739
675.199453	-2.999000	3.735000	-11.200000	24.114069	0.000483	20.828274
676.196212	-2.996000	3.734000	-11.186000	24.092376	0.000483	20.811733
677.201974	-2.989800	3.733900	-11.163000	24.105860	0.000481	20.821463
678.198198	-2.979200	3.733600	-11.123000	24.112809	0.000481	20.814208
679.197349	-2.979900	3.734000	-11.126000	24.103777	0.000483	20.812262
680.200947	-3.003200	3.733000	-11.209000	24.108657	0.000481	20.787285
681.196098	-2.989500	3.732500	-11.157000	24.112563	0.000481	20.813961
682.198667	-2.983000	3.734000	-11.138000	24.111770	0.000481	20.816959
683.199534	-2.971600	3.733300	-11.093000	24.117418	0.000481	20.797494
684.198005	-3.011200	3.731300	-11.235000	24.108190	0.000484	20.822851
685.199273	-2.998000	3.732400	-11.189000	24.129789	0.000482	20.811798
686.204328	-3.022300	3.730500	-11.273000	24.114887	0.000480	20.800171
687.201656	-2.998100	3.731500	-11.186000	24.131926	0.000481	20.796398
688.200305	-2.997600	3.731400	-11.185000	24.132630	0.000481	20.797578
689.203007	-3.000800	3.731300	-11.196000	24.134152	0.000482	20.800527
690.201387	-3.025200	3.729500	-11.282000	24.113001	0.000480	20.777891
691.202325	-3.000800	3.731000	-11.196000	24.124604	0.000481	20.824141
692.202717	-3.000300	3.729200	-11.188000	24.136944	0.000481	20.794793
693.201460	-2.989500	3.730800	-11.152000	24.139333	0.000480	20.797662
694.203830	-3.001600	3.728500	-11.190000	24.133187	0.000482	20.818051
695.206091	-2.995500	3.729500	-11.171000	24.137796	0.000480	20.799441
696.203973	-2.982300	3.728400	-11.117000	24.144292	0.000482	20.783196
697.203749	-2.977000	3.727400	-11.095000	24.151506	0.000480	20.807027
698.207485	-2.981500	3.728500	-11.115000	24.148374	0.000480	20.801989
699.205326	-2.999700	3.727800	-11.181000	24.146710	0.000481	20.787518
700.205453	-2.984300	3.728600	-11.127000	24.154697	0.000479	20.797900
701.209944	-2.998900	3.727300	-11.177000	24.143504	0.000479	20.777664
702.206246	-2.980100	3.726700	-11.105000	24.144051	0.000479	20.790540
703.206270	-2.987500	3.726800	-11.133000	24.138333	0.000481	20.800927
704.210504	-3.004000	3.726400	-11.193000	24.151368	0.000479	20.775120
705.207070	-3.007400	3.725000	-11.202000	24.160380	0.000479	20.790323
706.206073	-3.012900	3.726200	-11.225000	24.152718	0.000478	20.767939
707.212075	-3.012400	3.726400	-11.225000	24.135502	0.000477	20.787182
708.207833	-2.987500	3.725900	-11.130000	24.152969	0.000477	20.769613
709.208338	-3.020400	3.724700	-11.248000	24.154067	0.000479	20.802483
710.209264	-3.010300	3.724800	-11.211000	24.169555	0.000477	20.772498
711.207690	-3.002500	3.723900	-11.180000	24.155116	0.000476	20.782199
712.208519	-2.995900	3.724500	-11.158000	24.163207	0.000476	20.781305
713.215659	-2.982800	3.723800	-11.106000	24.161567	0.000476	20.782505
714.207044	-3.012800	3.723100	-11.216000	24.173563	0.000477	20.792640
715.209428	-3.004000	3.723000	-11.184000	24.178591	0.000476	20.797209
716.215515	-3.011200	3.723000	-11.210000	24.173421	0.000477	20.763573
717.213512	-2.986500	3.724400	-11.122000	24.157776	0.000477	20.772538
718.210418	-3.012400	3.723000	-11.215000	24.172057	0.000476	20.769792
719.214721	-3.004800	3.721400	-11.181000	24.166512	0.000477	20.776559
720.211158	-3.013900	3.721800	-11.216000	24.160972	0.000476	20.780960
721.211779	-3.004600	3.722900	-11.185000	24.180502	0.000475	20.755503
722.214790	-3.001800	3.722200	-11.172000	24.195408	0.000475	20.781360
723.212474	-3.013800	3.721800	-11.216000	24.183048	0.000475	20.773704
724.211222	-2.986300	3.722300	-11.115000	24.197334	0.000475	20.788033
725.215965	-2.994300	3.720900	-11.141000	24.189273	0.000476	20.780896
726.211616	-2.985000	3.720700	-11.105000	24.195399	0.000474	20.771393
727.213324	-2.997100	3.720100	-11.149000	24.210457	0.000474	20.760418
728.215936	-2.989200	3.720800	-11.121000	24.200830	0.000474	20.787273
729.212626	-3.001000	3.720200	-11.163000	24.209295	0.000474	20.757830
730.211719	-2.992700	3.719100	-11.128000	24.196286	0.000473	20.756161
731.216536	-2.990100	3.720000	-11.122000	24.204721	0.000472	20.747078
732.213442	-2.987300	3.719400	-11.110000	24.196419	0.000473	20.754872
733.212824	-2.995900	3.718200	-11.139000	24.215505	0.000473	20.760740
734.218263	-3.010800	3.718300	-11.194000	24.208917	0.000476	20.761244
735.215126	-3.001800	3.718600	-11.161000	24.207799	0.000473	20.747794
736.215568	-2.978200	3.717700	-11.072000	24.218376	0.000472	20.761249
737.218586	-3.002400	3.717800	-11.161000	24.205071	0.000473	20.763551
738.214957	-2.990100	3.718100	-11.116000	24.221794	0.000474	20.745236
739.214180	-3.023600	3.716600	-11.237000	24.237344	0.000472	20.744713
740.216858	-3.007500	3.717400	-11.179000	24.201300	0.000473	20.746491
741.216113	-2.979700	3.717100	-11.075000	24.198862	0.000473	20.762065
742.214771	-3.009300	3.716100	-11.182000	24.206598	0.000474	20.765083
743.221699	-2.990500	3.716600	-11.113000	24.225936	0.000474	20.756978
744.217712	-2.984500	3.716300	-11.091000	24.213566	0.000473	20.736983
745.219182	-3.009200	3.714800	-11.177000	24.235070	0.000470	20.739586
746.219330	-3.012300	3.714300	-11.187000	24.227974	0.000471	20.757126
747.218935	-2.991400	3.714900	-11.112000	24.233371	0.000472	20.743572
748.219037	-3.020000	3.714400	-11.216000	24.259877	0.000472	20.749771
749.224045	-2.995200	3.714400	-11.124000	24.236040	0.000471	20.752414
750.218491	-3.009200	3.714600	-11.176000	24.249522	0.000471	20.740332
751.219448	-3.001000	3.714300	-11.146000	24.250669	0.000471	20.733896
752.223164	-2.993400	3.714800	-11.119000	24.253998	0.000471	20.732019
753.222084	-3.001200	3.714300	-11.146000	24.246134	0.000470	20.739305
754.220557	-2.989900	3.714800	-11.106000	24.262728	0.000471	20.732241
755.223773	-3.000700	3.712900	-11.140000	24.268750	0.000472	20.738756
756.222826	-3.008100	3.713200	-11.169000	24.247527	0.000469	20.730270
757.221699	-3.004600	3.712400	-11.154000	24.265692	0.000471	20.753234
758.226102	-2.986600	3.713200	-11.088000	24.264249	0.000471	20.738984
759.221344	-3.013000	3.711600	-11.181000	24.242052	0.000468	20.737106
760.223059	-2.997600	3.712500	-11.128000	24.252624	0.000468	20.733486
761.224323	-2.985800	3.712500	-11.084000	24.244218	0.000470	20.763937
762.224578	-2.995100	3.711200	-11.115000	24.273797	0.000467	20.734335
763.224420	-2.994000	3.711200	-11.110000	24.254165	0.000470	20.735506
764.224294	-2.989300	3.711600	-11.094000	24.263840	0.000472	20.724348
765.224159	-2.977800	3.710700	-11.048000	24.263895	0.000470	20.724402
766.223403	-2.996100	3.709400	-11.113000	24.273191	0.000470	20.725192
767.225603	-2.982800	3.710000	-11.064000	24.263515	0.000468	20.743463
768.224293	-2.982000	3.711400	-11.066000	24.261551	0.000469	20.733431
769.223581	-2.996100	3.709700	-11.113000	24.257843	0.000468	20.728289
770.229017	-3.004600	3.708700	-11.142000	24.247364	0.000466	20.738168
771.224529	-2.994900	3.709700	-11.109000	24.278606	0.000467	20.719245
772.226155	-3.013400	3.707400	-11.170000	24.288036	0.000467	20.735342
773.227433	-3.016100	3.708000	-11.182000	24.294052	0.000468	20.734266
774.224388	-3.003100	3.708300	-11.135000	24.276484	0.000467	20.729919
775.224791	-3.010500	3.708400	-11.163000	24.276440	0.000465	20.731297
776.226159	-3.022800	3.707700	-11.207000	24.289547	0.000468	20.742075
777.224698	-2.996100	3.708000	-11.109000	24.270241	0.000466	20.726501
778.225940	-3.027000	3.706800	-11.219000	24.325643	0.000466	20.725177
779.226635	-3.025800	3.707500	-11.217000	24.294495	0.000465	20.735184
780.224879	-2.997200	3.707500	-11.112000	24.305761	0.000464	20.727044
781.225787	-3.029300	3.705300	-11.223000	24.298474	0.000466	20.733485
782.225026	-2.993400	3.707200	-11.096000	24.320635	0.000466	20.737698
783.232529	-2.993300	3.707200	-11.096000	24.292398	0.000464	20.728338
784.229131	-3.011700	3.705000	-11.158000	24.284392	0.000464	20.729790
785.226789	-3.032100	3.704600	-11.231000	24.312029	0.000467	20.738073
786.227432	-3.012700	3.704500	-11.158000	24.312147	0.000464	20.741985
787.227411	-2.983000	3.705600	-11.052000	24.316805	0.000464	20.719630
788.228195	-3.010400	3.703800	-11.149000	24.310034	0.000463	20.729908
789.235265	-2.997000	3.704900	-11.101000	24.321723	0.000465	20.731677
790.229641	-2.990300	3.705000	-11.077000	24.309212	0.000465	20.739515
791.228782	-2.998500	3.704600	-11.107000	24.316824	0.000466	20.713011
792.227762	-3.004300	3.703500	-11.125000	24.291969	0.000467	20.711786
793.227979	-2.998400	3.703600	-11.104000	24.326120	0.000463	20.728026
794.230696	-2.989000	3.703500	-11.069000	24.330196	0.000465	20.714571
795.227885	-2.992800	3.703400	-11.083000	24.335918	0.000466	20.742123
796.233783	-3.004000	3.702900	-11.123000	24.331112	0.000464	20.736354
797.230070	-2.987200	3.703200	-11.061000	24.337976	0.000463	20.729014
798.228779	-2.994100	3.702100	-11.084000	24.326572	0.000464	20.743180
799.229137	-2.985000	3.702500	-11.050000	24.341279	0.000465	20.719525
800.230863	-3.012800	3.701500	-11.151000	24.340698	0.000463	20.754031
801.228072	-3.010900	3.701800	-11.144000	24.337064	0.000463	20.740428
802.229674	-3.023100	3.701900	-11.190000	24.341687	0.000463	20.739850
803.232179	-2.992600	3.701200	-11.075000	24.330393	0.000463	20.722355
804.231060	-3.010800	3.701600	-11.144000	24.336660	0.000462	20.735281
805.229969	-3.009700	3.700200	-11.136000	24.345163	0.000463	20.721999
806.237310	-3.008100	3.700200	-11.129000	24.344789	0.000461	20.743910
807.232908	-2.985800	3.701000	-11.050000	24.334784	0.000461	20.758056
808.232787	-3.007800	3.700300	-11.130000	24.373335	0.000461	20.739830
809.236193	-3.011300	3.698600	-11.136000	24.337763	0.000462	20.744922
810.232940	-3.009900	3.699200	-11.133000	24.332534	0.000463	20.741573
811.232843	-2.986200	3.699300	-11.046000	24.344946	0.000461	20.734584
812.236576	-2.990100	3.698800	-11.058000	24.348747	0.000462	20.737449
813.234371	-3.003300	3.698300	-11.106000	24.338516	0.000461	20.727185
814.232886	-2.999600	3.698900	-11.095000	24.351051	0.000463	20.732648
815.236669	-3.008100	3.698400	-11.124000	24.352159	0.000461	20.742294
816.233961	-3.015300	3.696600	-11.145000	24.354768	0.000460	20.731161
817.233172	-2.984400	3.697600	-11.034000	24.351277	0.000460	20.742358
818.237635	-3.007500	3.697700	-11.120000	24.372566	0.000462	20.737162
819.232676	-2.979500	3.697900	-11.017000	24.357609	0.000462	20.748236
820.234447	-2.990500	3.697300	-11.056000	24.350937	0.000459	20.746759
821.235409	-3.005400	3.696100	-11.106000	24.361498	0.000461	20.750715
822.233386	-2.992800	3.697400	-11.065000	24.367160	0.000459	20.724151
823.234429	-2.968200	3.697600	-10.974000	24.378794	0.000463	20.738668
824.234655	-2.997100	3.696500	-11.077000	24.389655	0.000462	20.745770
825.237923	-3.011300	3.694700	-11.125000	24.389650	0.000463	20.735808
826.239660	-2.992400	3.694000	-11.052000	24.370010	0.000461	20.752616
827.237784	-3.032900	3.694000	-11.202000	24.383781	0.000459	20.741300
828.241022	-3.013900	3.693400	-11.130000	24.406207	0.000461	20.755264
829.242358	-2.991800	3.693800	-11.050000	24.389960	0.000460	20.740387
830.246829	-2.990600	3.693600	-11.045000	24.406389	0.000460	20.740747
831.240734	-3.000200	3.693200	-11.080000	24.392949	0.000458	20.767568
832.243304	-3.012000	3.693100	-11.123000	24.395671	0.000459	20.758445
833.240882	-3.013200	3.693900	-11.129000	24.419864	0.000459	20.753792
834.240500	-2.995200	3.693200	-11.061000	24.415680	0.000457	20.758603
835.243437	-3.022300	3.693100	-11.161000	24.425024	0.000459	20.747589
836.238549	-3.026800	3.691500	-11.172000	24.406779	0.000457	20.744457
837.241846	-2.987100	3.692300	-11.028000	24.402245	0.000458	20.749866
838.242717	-3.001800	3.692600	-11.082000	24.425419	0.000460	20.748933
839.239330	-3.002300	3.691700	-11.082000	24.407198	0.000460	20.757206
840.244867	-3.008900	3.690900	-11.104000	24.451492	0.000458	20.741425
841.240664	-2.991200	3.691500	-11.041000	24.437924	0.000459	20.769540
842.242629	-3.010000	3.691300	-11.110000	24.425676	0.000457	20.760571
843.245485	-3.011100	3.690300	-11.111000	24.426188	0.000457	20.781948
844.243376	-3.015800	3.689600	-11.125000	24.428295	0.000458	20.756086
845.243577	-3.000900	3.690500	-11.074000	24.422063	0.000457	20.744144
846.246678	-3.000700	3.689900	-11.071000	24.434066	0.000457	20.763298
847.245227	-3.035500	3.688400	-11.195000	24.445749	0.000455	20.766485
848.242416	-3.016300	3.689100	-11.127000	24.451480	0.000456	20.788356
849.245840	-3.011700	3.689600	-11.111000	24.442068	0.000455	20.783180
850.247306	-2.996900	3.689900	-11.057000	24.447405	0.000456	20.754869
851.243027	-2.967600	3.689900	-10.949000	24.444983	0.000455	20.785631
852.246445	-3.017900	3.689000	-11.131000	24.455568	0.000456	20.776810
853.243383	-3.018700	3.687100	-11.129000	24.462968	0.000454	20.773329
854.245088	-3.018000	3.689100	-11.133000	24.474528	0.000454	20.774969
855.244875	-2.993400	3.687300	-11.037000	24.461630	0.000454	20.779573
856.245568	-3.010800	3.686000	-11.096000	24.454433	0.000455	20.790845
857.244175	-3.000000	3.686300	-11.058000	24.464999	0.000452	20.781530
858.248033	-3.005400	3.686900	-11.079000	24.472226	0.000451	20.763651
859.245145	-3.018300	3.687200	-11.128000	24.467339	0.000451	20.789093
860.245119	-3.009400	3.685900	-11.091000	24.482802	0.000450	20.786115
861.246876	-2.983300	3.687400	-11.000000	24.472647	0.000448	20.778771
862.242190	-3.026000	3.685800	-11.152000	24.488932	0.000449	20.806964
863.244130	-2.993200	3.686400	-11.033000	24.486486	0.000448	20.798346
864.247688	-3.010700	3.685600	-11.096000	24.483173	0.000451	20.777005
865.244784	-3.015900	3.684600	-11.111000	24.491927	0.000449	20.788632
866.245138	-3.000700	3.684900	-11.055000	24.495600	0.000449	20.792791
867.250335	-3.002300	3.685200	-11.064000	24.490298	0.000447	20.777989
868.247138	-3.002600	3.684800	-11.063000	24.501513	0.000448	20.793034
869.248563	-2.988700	3.684000	-11.009000	24.484244	0.000448	20.811743
870.258030	-3.005300	3.683300	-11.068000	24.504836	0.000447	20.805851
871.248784	-3.000500	3.682300	-11.048000	24.493711	0.000448	20.779516
872.248435	-2.994200	3.683900	-11.030000	24.497911	0.000447	20.794636
873.252449	-2.997700	3.682900	-11.040000	24.508702	0.000448	20.799773
874.250850	-2.994900	3.683000	-11.029000	24.502283	0.000448	20.785271
875.250950	-2.987200	3.683200	-11.001000	24.495613	0.000447	20.789959
876.253554	-2.995900	3.682100	-11.029000	24.468921	0.000449	20.795896
877.249454	-3.000800	3.682400	-11.049000	24.513168	0.000447	20.786710
878.250072	-3.016900	3.681700	-11.107000	24.506991	0.000447	20.777667
879.254746	-2.992600	3.681500	-11.016000	24.505421	0.000447	20.802170
880.251703	-3.015100	3.680900	-11.098000	24.490145	0.000449	20.809129
881.252338	-2.974700	3.682400	-10.953000	24.500361	0.000447	20.800413
882.256866	-2.985100	3.681700	-10.988000	24.507219	0.000445	20.792121
883.252174	-3.020700	3.680100	-11.115000	24.506195	0.000446	20.787300
884.255005	-3.017800	3.680400	-11.106000	24.534871	0.000449	20.798527
885.255391	-3.001200	3.680400	-11.045000	24.529688	0.000445	20.777206
886.253869	-2.997200	3.679700	-11.028000	24.538166	0.000448	20.792824
887.253292	-3.000000	3.679600	-11.038000	24.527464	0.000445	20.796312
888.257627	-3.008500	3.679400	-11.069000	24.533377	0.000445	20.812676
889.253001	-3.013900	3.679200	-11.088000	24.518246	0.000444	20.779476
890.252723	-3.010700	3.679200	-11.076000	24.540896	0.000445	20.814055
891.255691	-2.989400	3.678600	-10.996000	24.556211	0.000446	20.799076
892.254615	-3.005900	3.677500	-11.053000	24.535935	0.000444	20.813820
893.255072	-3.000500	3.677800	-11.035000	24.559777	0.000445	20.797438
894.257904	-3.006900	3.679600	-11.064000	24.540664	0.000445	20.816667
895.254384	-2.999300	3.679400	-11.034000	24.528923	0.000445	20.823379
896.253880	-3.001200	3.678900	-11.039000	24.552617	0.000442	20.802108
897.255495	-3.009100	3.678100	-11.067000	24.554124	0.000444	20.807414
898.255698	-2.987400	3.677500	-10.985000	24.538048	0.000444	20.811198
899.256418	-3.015000	3.675800	-11.082000	24.545330	0.000445	20.824194
900.257422	-2.985500	3.678300	-10.981000	24.540895	0.000443	20.810262
901.255711	-3.011100	3.675700	-11.066000	24.537357	0.000444	20.836108
902.256029	-2.986200	3.677400	-10.980000	24.549310	0.000441	20.806851
903.259514	-2.997100	3.676500	-11.017000	24.558354	0.000441	20.814977
904.256028	-2.997800	3.676000	-11.019000	24.539122	0.000439	20.822233
905.255395	-2.989700	3.675400	-10.988000	24.554064	0.000440	20.821103
906.258357	-3.000100	3.675500	-11.025000	24.593052	0.000441	20.813281
907.257276	-2.980600	3.676800	-10.958000	24.581607	0.000440	20.824083
908.255932	-2.993400	3.674100	-10.997000	24.568215	0.000440	20.822025
909.257571	-2.977900	3.676500	-10.948000	24.566271	0.000439	20.825765
910.258636	-2.995800	3.674500	-11.007000	24.566415	0.000439	20.810736
911.259023	-3.018300	3.673700	-11.087000	24.579046	0.000439	20.834316
912.259519	-3.024400	3.673800	-11.111000	24.560608	0.000436	20.821979
913.258852	-3.008000	3.674200	-11.052000	24.569710	0.000438	20.820206
914.259301	-3.006300	3.673700	-11.043000	24.587733	0.000437	20.825488
915.266686	-3.003100	3.672400	-11.027000	24.605414	0.000438	20.810987
916.259820	-3.017100	3.672700	-11.079000	24.591036	0.000437	20.829276
917.261197	-2.980500	3.672900	-10.946000	24.585131	0.000435	20.820507
918.265643	-2.993600	3.672600	-10.993000	24.606092	0.000435	20.822098
919.260869	-2.981800	3.673400	-10.952000	24.611812	0.000435	20.837320
920.262853	-2.998500	3.671600	-11.007000	24.601185	0.000436	20.829503
921.264539	-3.006000	3.671800	-11.036000	24.610636	0.000434	20.840882
922.260379	-3.018700	3.671100	-11.081000	24.591705	0.000435	20.827103
923.261468	-2.995300	3.671900	-10.997000	24.601949	0.000434	20.851131
924.263069	-2.996300	3.670400	-10.997000	24.594656	0.000433	20.844761
925.262919	-3.003100	3.671000	-11.023000	24.600996	0.000433	20.854916
926.260254	-3.017700	3.669900	-11.073000	24.610295	0.000431	20.837694
927.266582	-3.015400	3.669800	-11.065000	24.608577	0.000431	20.839290
928.262418	-3.003700	3.669400	-11.021000	24.622104	0.000430	20.836268
929.264125	-2.983500	3.670400	-10.950000	24.629932	0.000432	20.842699
930.271017	-3.015400	3.669200	-11.062000	24.615756	0.000431	20.839381
931.264756	-2.994600	3.670100	-10.989000	24.631497	0.000431	20.839055
932.264509	-2.986200	3.669300	-10.956000	24.626595	0.000430	20.845989
933.268248	-2.999900	3.668700	-11.005000	24.640595	0.000431	20.841545
934.265291	-2.995000	3.668600	-10.987000	24.624824	0.000432	20.860333
935.265254	-2.997200	3.668800	-10.996000	24.595600	0.000430	20.826269
936.269953	-3.009600	3.667100	-11.035000	24.614502	0.000431	20.825795
937.267358	-3.009500	3.666700	-11.034000	24.641778	0.000429	20.830879
938.267070	-3.001300	3.667600	-11.006000	24.648139	0.000430	20.832045
939.267306	-3.002900	3.666800	-11.011000	24.630827	0.000430	20.863986
940.271460	-3.012500	3.667000	-11.046000	24.647317	0.000429	20.849712
941.268806	-2.990800	3.666600	-10.965000	24.657186	0.000428	20.845391
942.267307	-3.009100	3.666800	-11.033000	24.646536	0.000429	20.854144
943.269181	-2.985000	3.666800	-10.944000	24.655563	0.000429	20.853720
944.269636	-3.009800	3.666400	-11.034000	24.663395	0.000428	20.851621
945.272003	-3.014900	3.665600	-11.050000	24.652745	0.000430	20.841883
946.274711	-3.000800	3.665800	-11.000000	24.651360	0.000426	20.863726
947.270258	-3.000700	3.666500	-11.001000	24.659709	0.000428	20.856931
948.271557	-3.005200	3.664900	-11.013000	24.645057	0.000428	20.842703
949.275634	-3.002800	3.664800	-11.004000	24.643565	0.000427	20.846422
950.272128	-3.011300	3.664600	-11.034000	24.660892	0.000427	20.856222
951.270844	-3.000600	3.665400	-10.996000	24.653603	0.000426	20.846063
952.274282	-3.022500	3.663900	-11.073000	24.658205	0.000425	20.844043
953.272896	-2.996700	3.665300	-10.983000	24.655017	0.000425	20.866447
954.273065	-3.002500	3.664300	-11.001000	24.665310	0.000425	20.853542
955.275274	-3.026100	3.663300	-11.085000	24.663440	0.000425	20.845977
956.273034	-3.013300	3.664600	-11.041000	24.674530	0.000425	20.839561
957.272187	-3.013300	3.662900	-11.036000	24.655600	0.000424	20.852808
958.272908	-3.006000	3.663000	-11.010000	24.684469	0.000425	20.858543
959.273834	-3.017200	3.662300	-11.049000	24.681162	0.000423	20.854276
960.272767	-3.013700	3.661800	-11.035000	24.665392	0.000424	20.860262
961.276459	-3.020000	3.661800	-11.058000	24.680784	0.000421	20.859112
962.274868	-2.985700	3.661900	-10.932000	24.692321	0.000423	20.855517
963.277056	-2.990300	3.661800	-10.948000	24.683043	0.000423	20.863750
964.282091	-2.999900	3.662200	-10.985000	24.707963	0.000422	20.871213
965.277238	-2.983400	3.661900	-10.924000	24.686918	0.000420	20.861949
966.276085	-3.004200	3.660800	-10.997000	24.698283	0.000422	20.858180
967.276623	-3.000300	3.660800	-10.982000	24.699125	0.000421	20.867086
968.275464	-2.995000	3.659800	-10.960000	24.681273	0.000420	20.873827
969.275185	-2.999400	3.660500	-10.978000	24.696668	0.000420	20.864146
970.280963	-2.989000	3.659600	-10.937000	24.681494	0.000421	20.873575
971.277697	-2.998200	3.660000	-10.972000	24.714693	0.000420	20.872276
972.277276	-2.971800	3.659800	-10.875000	24.713223	0.000420	20.866059
973.277631	-3.006400	3.658900	-10.998000	24.704943	0.000418	20.872450
974.278800	-3.007900	3.659100	-11.006000	24.718868	0.000419	20.866509
975.278289	-2.996900	3.659200	-10.966000	24.715113	0.000418	20.857051
976.277476	-2.988400	3.658800	-10.932000	24.714541	0.000418	20.872124
977.280804	-2.977900	3.659800	-10.898000	24.712623	0.000418	20.873992
978.278826	-3.003100	3.657600	-10.983000	24.700563	0.000419	20.880382
979.280387	-3.014000	3.658000	-11.023000	24.700490	0.000420	20.865610
980.279819	-3.007300	3.657000	-10.997000	24.722845	0.000418	20.861491
981.280577	-3.003500	3.655700	-10.979000	24.680640	0.000416	20.864183
982.285239	-3.005300	3.656400	-10.988000	24.717648	0.000415	20.874767
983.280820	-2.966600	3.657800	-10.850000	24.709184	0.000418	20.886187
984.282877	-3.009400	3.655800	-11.001000	24.722619	0.000415	20.884971
985.283894	-2.995400	3.655500	-10.948000	24.708588	0.000416	20.861883
986.283118	-2.994200	3.656200	-10.946000	24.715006	0.000415	20.861685
987.282392	-2.988600	3.655900	-10.925000	24.723457	0.000414	20.878700
988.284219	-3.000400	3.655200	-10.966000	24.701003	0.000417	20.870392
989.282432	-2.989900	3.655000	-10.927000	24.724082	0.000415	20.865577
990.286795	-2.990000	3.655200	-10.928000	24.727061	0.000417	20.900332
991.284805	-3.002700	3.653300	-10.969000	24.720023	0.000414	20.885210
992.283228	-2.997000	3.654700	-10.952000	24.709032	0.000417	20.874181
993.282627	-2.999100	3.653700	-10.957000	24.722233	0.000415	20.881738
994.282527	-3.001400	3.654200	-10.967000	24.715191	0.000416	20.883206
995.282826	-2.995000	3.654400	-10.943000	24.730681	0.000415	20.885948
996.286410	-3.004300	3.653400	-10.975000	24.722923	0.000415	20.899973
997.284735	-3.005900	3.653100	-10.980000	24.733931	0.000414	20.875934
998.285245	-3.012800	3.652400	-11.003000	24.762699	0.000413	20.886311
999.285495	-3.002600	3.653200	-10.969000	24.723680	0.000413	20.892198
1000.285479	-3.011500	3.651100	-10.994000	24.762001	0.000412	20.894144
1001.285012	-3.015500	3.651300	-11.009000	24.759034	0.000413	20.893064
1002.289285	-3.011500	3.652200	-10.998000	24.766763	0.000413	20.898449
1003.286783	-2.997200	3.652100	-10.946000	24.772207	0.000412	20.884947
1004.288584	-3.008100	3.650000	-10.978000	24.742136	0.000410	20.864254
1005.289978	-2.995000	3.652200	-10.936000	24.765358	0.000413	20.880445
1006.289814	-2.992400	3.650800	-10.923000	24.766003	0.000412	20.891997
1007.289916	-2.994400	3.650400	-10.930000	24.750802	0.000411	20.891440
1008.289699	-2.983000	3.651300	-10.891000	24.777412	0.000410	20.886852
1009.289308	-3.008000	3.650400	-10.979000	24.779570	0.000410	20.883801
1010.288278	-2.991000	3.650100	-10.916000	24.770116	0.000410	20.907977
1011.289602	-3.033600	3.649200	-11.069000	24.777873	0.000408	20.893951
1012.291946	-2.996200	3.649700	-10.934000	24.754319	0.000408	20.898289
1013.290537	-3.005000	3.649500	-10.965000	24.773186	0.000408	20.922436
1014.295322	-2.997400	3.649200	-10.937000	24.782463	0.000408	20.887652
1015.292075	-2.981200	3.649500	-10.878000	24.771916	0.000407	20.910257
1016.294079	-3.014700	3.649000	-10.999000	24.769328	0.000407	20.921883
1017.292597	-3.005500	3.647600	-10.962000	24.793543	0.000408	20.911573
1018.291508	-2.990800	3.647800	-10.909000	24.784291	0.000407	20.920779
1019.295069	-2.996300	3.647000	-10.926000	24.792077	0.000408	20.927169
1020.293175	-2.993800	3.648700	-10.923000	24.790680	0.000405	20.892105
1021.293639	-2.987200	3.647900	-10.895000	24.772052	0.000408	20.919402
1022.296206	-3.000900	3.647200	-10.943000	24.789702	0.000406	20.892073
1023.293291	-2.991000	3.646600	-10.905000	24.789805	0.000405	20.920622
1024.294750	-3.010100	3.646600	-10.976000	24.790196	0.000407	20.916273
1025.293643	-3.007800	3.646100	-10.966000	24.792579	0.000404	20.911079
1026.293636	-2.995600	3.645800	-10.920000	24.790562	0.000404	20.909529
1027.294362	-2.993700	3.646200	-10.914000	24.787825	0.000404	20.928592
1028.296660	-2.987500	3.645800	-10.891000	24.810640	0.000402	20.912135
1029.293716	-2.998200	3.645000	-10.927000	24.782395	0.000402	20.900385
1030.295014	-2.988400	3.646000	-10.895000	24.813076	0.000402	20.920743
1031.297983	-2.979200	3.644600	-10.856000	24.801462	0.000402	20.921889
1032.294640	-2.985700	3.644800	-10.881000	24.811799	0.000401	20.912350
1033.294654	-3.021600	3.642200	-11.005000	24.817842	0.000403	20.915096
1034.296413	-2.991000	3.644400	-10.899000	24.817045	0.000401	20.913822
1035.294060	-3.004600	3.644300	-10.947000	24.831938	0.000401	20.928292
1036.298495	-2.995200	3.642000	-10.908000	24.848223	0.000402	20.918559
1037.299656	-3.003700	3.642900	-10.942000	24.828750	0.000400	20.904233
1038.296382	-3.002900	3.642500	-10.937000	24.848417	0.000399	20.915908
1039.296636	-2.989800	3.642600	-10.889000	24.832452	0.000399	20.919326
1040.299095	-3.011000	3.641800	-10.965000	24.829318	0.000398	20.912862
1041.295053	-2.997700	3.642200	-10.918000	24.849608	0.000401	20.928008
1042.296961	-3.017200	3.640400	-10.983000	24.845426	0.000398	20.913381
1043.301580	-2.999000	3.642100	-10.922000	24.848458	0.000400	20.920217
1044.295506	-2.996900	3.641100	-10.911000	24.845024	0.000399	20.933838
1045.295719	-3.001800	3.640500	-10.927000	24.850817	0.000398	20.910257
1046.303524	-3.001300	3.640900	-10.926000	24.845969	0.000398	20.917719
1047.296303	-2.977900	3.641200	-10.843000	24.851384	0.000399	20.898025
1048.298326	-3.033900	3.639400	-11.040000	24.830941	0.000399	20.902164
1049.300770	-3.011400	3.639700	-10.960000	24.848098	0.000398	20.904209
1050.298458	-3.006800	3.639700	-10.943000	24.854289	0.000397	20.902362
1051.300607	-3.031300	3.638500	-11.028000	24.834869	0.000397	20.924122
1052.300615	-2.999000	3.639400	-10.913000	24.852469	0.000396	20.901959
1053.299618	-3.004000	3.639600	-10.932000	24.843415	0.000396	20.899984
1054.298875	-3.002000	3.639700	-10.926000	24.843337	0.000395	20.899906
1055.304964	-2.980400	3.638100	-10.842000	24.842857	0.000397	20.886149
1056.299446	-2.978900	3.638100	-10.835000	24.861603	0.000394	20.908280
1057.302122	-2.996500	3.639000	-10.903000	24.868315	0.000394	20.891785
1058.304375	-2.976100	3.639500	-10.830000	24.865029	0.000395	20.902711
1059.302020	-2.999300	3.636400	-10.906000	24.860202	0.000394	20.890755
1060.302501	-3.005000	3.637100	-10.928000	24.870243	0.000396	20.904150
1061.303846	-3.012100	3.635700	-10.950000	24.889605	0.000394	20.894660
1062.302367	-2.991000	3.636100	-10.874000	24.863967	0.000393	20.894532
1063.302667	-3.006300	3.635900	-10.930000	24.876870	0.000394	20.882828
1064.307038	-2.998400	3.636600	-10.902000	24.854933	0.000391	20.904906
1065.310173	-2.996900	3.635500	-10.895000	24.865298	0.000391	20.907722
1066.304742	-3.009200	3.635200	-10.938000	24.867304	0.000389	20.887925
1067.304663	-2.996400	3.634200	-10.889000	24.862181	0.000390	20.896534
1068.305162	-3.009300	3.634800	-10.937000	24.864042	0.000390	20.889393
1069.302773	-2.975100	3.635100	-10.813000	24.891444	0.000390	20.878489
1070.305732	-3.004500	3.633600	-10.915000	24.884625	0.000389	20.892033
1071.304109	-2.998400	3.633900	-10.895000	24.879026	0.000390	20.899215
1072.302531	-2.993600	3.633200	-10.875000	24.887328	0.000389	20.891901
1073.307150	-3.022200	3.632700	-10.978000	24.901173	0.000388	20.880193
1074.301178	-2.988700	3.634500	-10.861000	24.892267	0.000389	20.866988
1075.303575	-2.989300	3.633500	-10.860000	24.879631	0.000388	20.878013
1076.310600	-3.009300	3.632900	-10.932000	24.890818	0.000387	20.890188
1077.303104	-2.997900	3.632500	-10.889000	24.913240	0.000389	20.878554
1078.304284	-2.983400	3.631800	-10.834000	24.884073	0.000389	20.888160
1079.304913	-3.003500	3.632600	-10.910000	24.895506	0.000387	20.909116
1080.303610	-2.981700	3.631800	-10.828000	24.910620	0.000387	20.892044
1081.303779	-2.985000	3.631000	-10.837000	24.900420	0.000387	20.891291
1082.307136	-3.022600	3.630100	-10.971000	24.904820	0.000385	20.867733
1083.307457	-2.995800	3.631600	-10.879000	24.898375	0.000384	20.885919
1084.304270	-2.981700	3.630700	-10.825000	24.917490	0.000385	20.878078
1085.305038	-2.996900	3.631000	-10.881000	24.897522	0.000382	20.892648
1086.305592	-3.000000	3.629400	-10.888000	24.904855	0.000383	20.856863
1087.305102	-3.009000	3.629400	-10.919000	24.901092	0.000382	20.884379
1088.306368	-2.983600	3.628900	-10.827000	24.911034	0.000384	20.878711
1089.308010	-2.995000	3.629200	-10.869000	24.916030	0.000383	20.878983
1090.307507	-3.002800	3.628300	-10.894000	24.904343	0.000381	20.864409
1091.307692	-2.997300	3.628100	-10.874000	24.910727	0.000382	20.890730
1092.307414	-3.011900	3.627600	-10.925000	24.916216	0.000382	20.873481
1093.308281	-2.989400	3.628400	-10.846000	24.914274	0.000380	20.869635
1094.312604	-2.999000	3.628400	-10.880000	24.937841	0.000380	20.883805
1095.308399	-3.008200	3.627500	-10.911000	24.920880	0.000380	20.867731
1096.308914	-2.999400	3.626500	-10.876000	24.904970	0.000382	20.868357
1097.309197	-3.002700	3.626900	-10.890000	24.932091	0.000380	20.883249
1098.309705	-3.029800	3.625400	-10.983000	24.917689	0.000380	20.889183
1099.311074	-2.998500	3.625600	-10.870000	24.929820	0.000379	20.890453
1100.311378	-3.006300	3.625000	-10.897000	24.944563	0.000381	20.863527
1101.311107	-2.996400	3.624800	-10.861000	24.924687	0.000378	20.887198
1102.311386	-2.993100	3.624300	-10.847000	24.937022	0.000378	20.880139
1103.309753	-2.977100	3.626200	-10.794000	24.921898	0.000379	20.878235
1104.310844	-2.983500	3.624600	-10.812000	24.939148	0.000376	20.868997
1105.310250	-3.005500	3.623400	-10.889000	24.944690	0.000379	20.877404
1106.309803	-3.017000	3.623300	-10.930000	24.924919	0.000377	20.870362
1107.310788	-3.018400	3.622900	-10.935000	24.924196	0.000375	20.857784
1108.311743	-2.982400	3.623800	-10.807000	24.920311	0.000376	20.879487
1109.314920	-3.009300	3.623300	-10.903000	24.935203	0.000374	20.865037
1110.315580	-3.006500	3.622900	-10.892000	24.927091	0.000376	20.879653
1111.314487	-2.992600	3.621700	-10.838000	24.941735	0.000372	20.870171
1112.313827	-2.991300	3.621700	-10.832000	24.944862	0.000376	20.855293
1113.312462	-3.008000	3.621400	-10.893000	24.930933	0.000375	20.868812
1114.312436	-2.993400	3.622100	-10.842000	24.958234	0.000374	20.872506
1115.312069	-2.987800	3.622000	-10.821000	24.946991	0.000372	20.868809
1116.317949	-3.007200	3.620400	-10.887000	24.946561	0.000371	20.884497
1117.312510	-2.987700	3.621200	-10.818000	24.953397	0.000372	20.832566
1118.313122	-2.999900	3.620400	-10.860000	24.966049	0.000373	20.847161
1119.315809	-3.007900	3.619500	-10.886000	24.947277	0.000373	20.843966
1120.313666	-3.002800	3.618900	-10.867000	24.938245	0.000372	20.849599
1121.312640	-2.996400	3.619400	-10.843000	24.965817	0.000370	20.850247
1122.315996	-2.998900	3.619500	-10.854000	24.942218	0.000370	20.873026
1123.311491	-2.956500	3.620500	-10.703000	24.972867	0.000369	20.860642
1124.312972	-2.981500	3.619200	-10.790000	24.966920	0.000372	20.866526
1125.315168	-2.986100	3.619100	-10.806000	24.963289	0.000372	20.854822
1126.312100	-2.990700	3.618300	-10.820000	24.967410	0.000368	20.857062
1127.314635	-2.983700	3.618000	-10.794000	24.979417	0.000369	20.856786
1128.318910	-2.992400	3.618100	-10.827000	24.988611	0.000370	20.863643
1129.317178	-3.003000	3.618200	-10.865000	24.984924	0.000369	20.860416
1130.315993	-3.017800	3.617000	-10.913000	24.983158	0.000368	20.863859
1131.318882	-3.006000	3.616200	-10.869000	24.984568	0.000369	20.872386
1132.315274	-3.003900	3.616300	-10.861000	24.988548	0.000366	20.868321
1133.316667	-3.001100	3.616600	-10.853000	24.985858	0.000366	20.852820
1134.318255	-2.986100	3.617300	-10.801000	24.984188	0.000365	20.850194
1135.317067	-2.999800	3.616000	-10.846000	24.973689	0.000367	20.853881
1136.315354	-2.993400	3.615100	-10.820000	24.968243	0.000366	20.861216
1137.321012	-3.010100	3.614800	-10.879000	24.979901	0.000367	20.868650
1138.319676	-2.994900	3.615300	-10.826000	24.962694	0.000367	20.840949
1139.316495	-3.007300	3.614700	-10.870000	24.957064	0.000367	20.857583
1140.317414	-3.006600	3.614300	-10.866000	24.977155	0.000365	20.840765
1141.318746	-3.020000	3.613800	-10.912000	24.965762	0.000362	20.859200
1142.321006	-2.996000	3.611800	-10.819000	24.981548	0.000363	20.848493
1143.329501	-2.985000	3.613700	-10.786000	24.984499	0.000363	20.831541
1144.321203	-2.987000	3.612800	-10.791000	24.968089	0.000363	20.847786
1145.321943	-3.010100	3.612100	-10.872000	24.968702	0.000363	20.854091
1146.325486	-3.014500	3.611800	-10.887000	24.969795	0.000361	20.851395
1147.321025	-3.001000	3.611500	-10.837000	24.983015	0.000361	20.858500
1148.322690	-3.002300	3.611300	-10.840000	24.970906	0.000362	20.845398
1149.324657	-2.979800	3.612300	-10.762000	24.981891	0.000360	20.854527
1150.325024	-3.011100	3.611200	-10.873000	24.997875	0.000359	20.855398
1151.322583	-2.998100	3.610100	-10.822000	24.996056	0.000359	20.849305
1152.326854	-2.996600	3.610500	-10.818000	24.985759	0.000360	20.852719
1153.323758	-3.005900	3.609700	-10.850000	24.987352	0.000359	20.837724
1154.323387	-2.992000	3.610300	-10.801000	25.001492	0.000356	20.835322
1155.325197	-3.017200	3.610200	-10.893000	24.991096	0.000358	20.841008
1156.329654	-2.991300	3.609300	-10.795000	25.002662	0.000357	20.855462
1157.324496	-2.988200	3.609500	-10.785000	25.017151	0.000354	20.860996
1158.326331	-3.005500	3.608700	-10.845000	25.003202	0.000358	20.837986
1159.324287	-3.005000	3.609200	-10.845000	24.975652	0.000355	20.848740
1160.323603	-2.982700	3.609100	-10.764000	25.007700	0.000356	20.833493
1161.325954	-3.003400	3.607200	-10.833000	24.991287	0.000352	20.838829
1162.322863	-2.981200	3.607700	-10.754000	25.001782	0.000354	20.840354
1163.323499	-3.004900	3.607800	-10.840000	25.017370	0.000352	20.842250
1164.324255	-2.992100	3.607400	-10.792000	24.994248	0.000353	20.845120
1165.324693	-3.009100	3.607000	-10.853000	25.006601	0.000352	20.857518
1166.323798	-2.996500	3.607700	-10.809000	24.993427	0.000352	20.847140
1167.332915	-3.020600	3.605100	-10.888000	25.044369	0.000353	20.852281
1168.325468	-3.004700	3.605600	-10.832000	25.033304	0.000351	20.832166
1169.328515	-2.998800	3.605100	-10.810000	25.020158	0.000350	20.833670
1170.330104	-3.003900	3.605500	-10.830000	24.995891	0.000351	20.850088
1171.325615	-3.003000	3.605100	-10.825000	25.017268	0.000349	20.840251
1172.324889	-3.009500	3.605100	-10.848000	25.010186	0.000349	20.813703
1173.326783	-3.018400	3.602400	-10.873000	24.999843	0.000348	20.833192
1174.325102	-2.969500	3.605200	-10.705000	25.009988	0.000348	20.845746
1175.326498	-2.976800	3.605000	-10.730000	25.004295	0.000348	20.860419
1176.326560	-2.993700	3.603300	-10.786000	25.027124	0.000348	20.835446
1177.333305	-3.006400	3.602600	-10.830000	25.016432	0.000348	20.834671
1178.328654	-3.004900	3.602200	-10.823000	25.011683	0.000348	20.841758
1179.333332	-3.009300	3.601600	-10.837000	25.021878	0.000348	20.803154
1180.329182	-3.004500	3.602800	-10.824000	25.010619	0.000346	20.825043
1181.328390	-2.999100	3.601500	-10.801000	25.018028	0.000345	20.834377
1182.334650	-3.015500	3.600200	-10.856000	25.016886	0.000344	20.826118
1183.329935	-3.002400	3.600200	-10.809000	25.025639	0.000346	20.833482
1184.329722	-2.978800	3.600600	-10.724000	25.023355	0.000346	20.820283
1185.330216	-3.025700	3.600500	-10.893000	25.030793	0.000343	20.810206
1186.329799	-2.994000	3.601600	-10.782000	25.054883	0.000342	20.828697
1187.329944	-3.023400	3.599400	-10.882000	25.031889	0.000345	20.821263
1188.330256	-2.985000	3.601800	-10.750000	25.028237	0.000344	20.828028
1189.330136	-2.996200	3.599100	-10.783000	25.044149	0.000343	20.816974
1190.330955	-2.990800	3.599000	-10.763000	25.023097	0.000344	20.804852
1191.331512	-2.988700	3.599300	-10.756000	25.023544	0.000344	20.806249
1192.337042	-2.969100	3.599600	-10.686000	25.049154	0.000341	20.792601
1193.336464	-2.984600	3.599300	-10.741000	25.036277	0.000341	20.798167
1194.331703	-3.002000	3.597200	-10.798000	25.021912	0.000340	20.809826
1195.332001	-3.008100	3.597200	-10.820000	25.033795	0.000340	20.824125
1196.335486	-3.000500	3.596900	-10.792000	25.026343	0.000340	20.807162
1197.331095	-2.976000	3.597900	-10.707000	25.036837	0.000340	20.812954
1198.331710	-2.990800	3.596500	-10.755000	25.034877	0.000339	20.804823
1199.332903	-2.968300	3.596900	-10.676000	25.030132	0.000338	20.813810
1200.331954	-2.999800	3.595300	-10.783000	25.040376	0.000339	20.807497
1201.336344	-2.970200	3.596000	-10.680000	25.034961	0.000340	20.782622
1202.335596	-2.990400	3.595800	-10.752000	25.043939	0.000338	20.807281
1203.332072	-2.999000	3.595200	-10.780000	25.040361	0.000339	20.789939
1204.331404	-2.989500	3.595100	-10.747000	25.049837	0.000336	20.802296
1205.337080	-2.989500	3.595000	-10.746000	25.037235	0.000337	20.793913
1206.332550	-2.975700	3.596300	-10.700000	25.048571	0.000336	20.786801
1207.333704	-3.005700	3.594000	-10.801000	25.041042	0.000337	20.804847
1208.336181	-3.003300	3.594600	-10.794000	25.040650	0.000337	20.796393
1209.333384	-3.025700	3.592800	-10.870000	25.046297	0.000335	20.811071
1210.332279	-3.000100	3.594700	-10.783000	25.043044	0.000333	20.780778
1211.336819	-3.009100	3.593600	-10.813000	25.019027	0.000333	20.792706
1212.333279	-3.017800	3.591900	-10.838000	25.040636	0.000335	20.786422
1213.335053	-3.012400	3.592700	-10.822000	25.040364	0.000331	20.798477
1214.332032	-2.998300	3.593500	-10.773000	25.042850	0.000332	20.798127
1215.333868	-2.991600	3.592900	-10.746000	25.025499	0.000332	20.783081
1216.334696	-2.999500	3.591900	-10.773000	25.039698	0.000331	20.782635
1217.333146	-3.007400	3.590900	-10.798000	25.035574	0.000330	20.794142
1218.333507	-3.003900	3.591200	-10.787000	25.049025	0.000333	20.787256
1219.334529	-3.007000	3.589700	-10.793000	25.046590	0.000331	20.780544
1220.332413	-2.997900	3.590900	-10.765000	25.042391	0.000333	20.806676
1221.332624	-2.991000	3.590900	-10.739000	25.038020	0.000331	20.767200
1222.334393	-3.020600	3.590100	-10.843000	25.013725	0.000332	20.777901
1223.333028	-2.994900	3.589100	-10.747000	25.029169	0.000330	20.776807
1224.334802	-2.995600	3.588000	-10.747000	25.035958	0.000330	20.785993
1225.341556	-3.011900	3.588000	-10.806000	25.008289	0.000329	20.787617
1226.334940	-3.002600	3.588100	-10.773000	25.020098	0.000330	20.751581
1227.336471	-3.016200	3.587900	-10.821000	25.036360	0.000331	20.784500
1228.336062	-3.009300	3.586800	-10.793000	25.027385	0.000329	20.781655
1229.335613	-3.012600	3.587500	-10.807000	25.028379	0.000330	20.775540
1230.335263	-2.999000	3.586700	-10.755000	25.020373	0.000328	20.776988
1231.337589	-2.994800	3.586900	-10.740000	25.027610	0.000327	20.787097
1232.335912	-2.990400	3.587000	-10.726000	25.015653	0.000329	20.769405
1233.336628	-2.968900	3.586000	-10.645000	25.012717	0.000328	20.783527
1234.337312	-2.994400	3.586000	-10.737000	25.027113	0.000328	20.777589
1235.336161	-2.989800	3.584400	-10.716000	25.026962	0.000327	20.778860
1236.338019	-2.993300	3.585500	-10.732000	25.010827	0.000326	20.770724
1237.337644	-2.998200	3.585200	-10.748000	25.040837	0.000325	20.768131
1238.336761	-2.983900	3.584800	-10.695000	25.026119	0.000327	20.762366
1239.337796	-2.985000	3.584100	-10.698000	25.022517	0.000324	20.759698
1240.338770	-3.002600	3.584800	-10.762000	25.039472	0.000322	20.764390
1241.336960	-3.000100	3.584000	-10.750000	25.047481	0.000321	20.779068
1242.337221	-2.990500	3.584000	-10.717000	25.033384	0.000322	20.757805
1243.341066	-2.990900	3.584300	-10.719000	25.049445	0.000321	20.782936
1244.338597	-2.984700	3.583500	-10.695000	25.054866	0.000323	20.767515
1245.340332	-3.007900	3.582300	-10.774000	25.065684	0.000319	20.780271
1246.346232	-3.020300	3.582000	-10.819000	25.049924	0.000320	20.757338
1247.342070	-3.016400	3.582500	-10.805000	25.043635	0.000317	20.769518
1248.342353	-3.006700	3.581700	-10.768000	25.043639	0.000317	20.749606
1249.348032	-3.025900	3.580700	-10.833000	25.071684	0.000318	20.760215
1250.341832	-3.005300	3.581000	-10.761000	25.041749	0.000317	20.743442
1251.343104	-2.991800	3.581600	-10.714000	25.070225	0.000319	20.763492
1252.346910	-3.006100	3.579900	-10.761000	25.051704	0.000318	20.750590
1253.344113	-2.992000	3.579800	-10.710000	25.078805	0.000318	20.730852
1254.343102	-3.009100	3.580300	-10.772000	25.061233	0.000316	20.760155
1255.346865	-3.008300	3.578900	-10.765000	25.050668	0.000313	20.752869
1256.343796	-2.998900	3.578600	-10.730000	25.076055	0.000314	20.743739
1257.344666	-3.009700	3.578200	-10.768000	25.055973	0.000312	20.747763
1258.347010	-2.993600	3.579000	-10.713000	25.057049	0.000314	20.738884
1259.343953	-3.007400	3.578100	-10.760000	25.048796	0.000314	20.735342
1260.345015	-3.003400	3.578100	-10.746000	25.072664	0.000314	20.738913
1261.347834	-2.991800	3.578500	-10.705000	25.040128	0.000313	20.747505
1262.345654	-3.013500	3.576100	-10.776000	25.049480	0.000312	20.750728
1263.345441	-3.033600	3.576400	-10.848000	25.059425	0.000313	20.740796
1264.348270	-2.976200	3.577700	-10.647000	25.045060	0.000313	20.764310
1265.352128	-2.990800	3.576000	-10.694000	25.049516	0.000312	20.728004
1266.352191	-3.000300	3.575500	-10.726000	25.053943	0.000312	20.751415
1267.350791	-3.013800	3.574900	-10.773000	25.062104	0.000311	20.753443
1268.349238	-2.999300	3.575600	-10.723000	25.055244	0.000311	20.724745
1269.354862	-3.022100	3.574500	-10.801000	25.061762	0.000309	20.750255
1270.348727	-3.016600	3.573200	-10.778000	25.067854	0.000310	20.748309
1271.350830	-2.990900	3.576400	-10.696000	25.091950	0.000309	20.740729
1272.352435	-3.002900	3.573400	-10.729000	25.068855	0.000309	20.755952
1273.349481	-2.997700	3.573600	-10.712000	25.076839	0.000308	20.735517
1274.350374	-3.029700	3.572800	-10.822000	25.068365	0.000309	20.731752
1275.353902	-3.000300	3.572700	-10.718000	25.071326	0.000308	20.745631
1276.350449	-3.009800	3.572500	-10.751000	25.070135	0.000307	20.741590
1277.350537	-3.006800	3.573100	-10.743000	25.072574	0.000307	20.743564
1278.351795	-2.981800	3.573000	-10.653000	25.075359	0.000306	20.731186
1279.350748	-3.004900	3.571700	-10.731000	25.078764	0.000306	20.716585
1280.349189	-3.020200	3.571000	-10.784000	25.072081	0.000304	20.720782
1281.353515	-3.005000	3.571400	-10.729000	25.075264	0.000307	20.741997
1282.350985	-2.990500	3.570200	-10.675000	25.089484	0.000304	20.740624
1283.352135	-2.964300	3.572200	-10.588000	25.076907	0.000304	20.749336
1284.354434	-2.981400	3.570300	-10.643000	25.088014	0.000303	20.724448
1285.350811	-2.997500	3.569600	-10.698000	25.084982	0.000306	20.733260
1286.364716	-2.993900	3.569100	-10.684000	25.101859	0.000303	20.734081
1287.356403	-2.994300	3.568600	-10.685000	25.071157	0.000305	20.735503
1288.354933	-3.012600	3.567100	-10.744000	25.075757	0.000304	20.728267
1289.354690	-2.997600	3.568500	-10.696000	25.086970	0.000303	20.730988
1290.355614	-3.002200	3.567300	-10.708000	25.077692	0.000303	20.744435
1291.353142	-2.984600	3.569200	-10.651000	25.093230	0.000301	20.749601
1292.352981	-3.008300	3.566000	-10.727000	25.100365	0.000301	20.741115
1293.351672	-3.006900	3.566800	-10.724000	25.071770	0.000300	20.740386
1294.356194	-2.990000	3.566300	-10.662000	25.094467	0.000298	20.726660
1295.357681	-2.957300	3.567600	-10.550000	25.083974	0.000300	20.727505
1296.355242	-2.999000	3.565900	-10.693000	25.081337	0.000300	20.740032
1297.355067	-2.995100	3.565600	-10.677000	25.081855	0.000301	20.746717
1298.359554	-2.995200	3.566000	-10.680000	25.089084	0.000300	20.724575
1299.356583	-3.038200	3.563300	-10.824000	25.088813	0.000299	20.718138
1300.356710	-3.014500	3.564400	-10.744000	25.084435	0.000299	20.743617
1301.358680	-2.996100	3.565200	-10.681000	25.093480	0.000297	20.749377
1302.355834	-3.010700	3.563800	-10.729000	25.072549	0.000297	20.720778
1303.357094	-2.988700	3.564600	-10.652000	25.091093	0.000297	20.755517
1304.359664	-3.010700	3.563100	-10.726000	25.122859	0.000298	20.727186
1305.359351	-3.000900	3.563300	-10.692000	25.102623	0.000296	20.739589
1306.360164	-2.990900	3.562100	-10.653000	25.120399	0.000294	20.745580
1307.361647	-3.016400	3.563600	-10.749000	25.115598	0.000296	20.749770
1308.363454	-3.019800	3.562200	-10.756000	25.124100	0.000293	20.741235
1309.360161	-2.991000	3.563300	-10.656000	25.119574	0.000293	20.737165
1310.361920	-2.995500	3.562700	-10.671000	25.107121	0.000292	20.742208
1311.361799	-3.000500	3.561900	-10.686000	25.113935	0.000291	20.745255
1312.361975	-2.995900	3.561500	-10.669000	25.115623	0.000291	20.749795
1313.363313	-2.990300	3.561800	-10.650000	25.105482	0.000290	20.729656
1314.362482	-3.004900	3.561500	-10.701000	25.120596	0.000292	20.754313
1315.362498	-2.985400	3.560300	-10.628000	25.084177	0.000289	20.748574
1316.365660	-2.987900	3.561000	-10.639000	25.101555	0.000290	20.758432
1317.361642	-2.991300	3.559700	-10.647000	25.121693	0.000288	20.766794
1318.361900	-2.979600	3.559300	-10.603000	25.103596	0.000287	20.725867
1319.362986	-2.980800	3.559000	-10.606000	25.106677	0.000289	20.745555
1320.362378	-2.990400	3.559600	-10.643000	25.108919	0.000289	20.731684
1321.367032	-2.988400	3.559800	-10.637000	25.103850	0.000288	20.747934
1322.369821	-3.006600	3.557000	-10.694000	25.076701	0.000288	20.744862
1323.363174	-2.990000	3.557600	-10.636000	25.129631	0.000286	20.761961
1324.366055	-2.988700	3.557700	-10.632000	25.109543	0.000289	20.735156
1325.365215	-3.008500	3.557600	-10.702000	25.103702	0.000288	20.741147
1326.364279	-2.974300	3.556900	-10.578000	25.099328	0.000287	20.740549
1327.366029	-2.991300	3.556000	-10.635000	25.103582	0.000288	20.745294
1328.364532	-2.990400	3.556000	-10.632000	25.113473	0.000287	20.747162
1329.365492	-2.972600	3.556200	-10.570000	25.149447	0.000285	20.759094
1330.364842	-2.990300	3.555000	-10.628000	25.119737	0.000287	20.764356
1331.366352	-2.990300	3.554900	-10.630000	25.108926	0.000285	20.753978
1332.367297	-2.964500	3.555600	-10.540000	25.118172	0.000284	20.775588
1333.367603	-3.004300	3.553800	-10.676000	25.119539	0.000283	20.748985
1334.370373	-3.001900	3.553900	-10.667000	25.121778	0.000282	20.750758
1335.367446	-2.986800	3.553700	-10.613000	25.105045	0.000283	20.764781
1336.367403	-2.993200	3.552900	-10.633000	25.113099	0.000282	20.767651
1337.367011	-2.982600	3.554300	-10.600000	25.117823	0.000281	20.741097
1338.368002	-2.974700	3.554500	-10.573000	25.113621	0.000284	20.752053
1339.366069	-2.991500	3.552500	-10.627000	25.122193	0.000282	20.774409
1340.370759	-2.973600	3.553500	-10.565000	25.124033	0.000281	20.761557
1341.368227	-3.006700	3.552200	-10.680000	25.144442	0.000282	20.747431
1342.369218	-2.994200	3.552500	-10.636000	25.138552	0.000280	20.795573
1343.369560	-2.991400	3.551700	-10.624000	25.106709	0.000280	20.761709
1344.371423	-3.001100	3.549900	-10.653000	25.139398	0.000280	20.758489
1345.370187	-2.983700	3.551400	-10.595000	25.130448	0.000279	20.776532
1346.369483	-2.982900	3.551100	-10.591000	25.135073	0.000279	20.765053
1347.374316	-3.009400	3.549500	-10.680000	25.121626	0.000276	20.759615
1348.371524	-3.005900	3.549300	-10.667000	25.154089	0.000277	20.756642
1349.373044	-3.008800	3.549600	-10.679000	25.155658	0.000278	20.764855
1350.375287	-3.027900	3.549500	-10.746000	25.139222	0.000277	20.761157
1351.379034	-2.987300	3.549200	-10.601000	25.128045	0.000275	20.779335
1352.377737	-3.010200	3.548900	-10.682000	25.143131	0.000275	20.736157
1353.377628	-2.997200	3.548500	-10.634000	25.129388	0.000273	20.778312
1354.375124	-2.984500	3.549300	-10.592000	25.134062	0.000273	20.769728
1355.375878	-3.014300	3.548000	-10.694000	25.140378	0.000273	20.788871
1356.377946	-3.021300	3.546500	-10.714000	25.158876	0.000272	20.769509
1357.377525	-3.003300	3.548500	-10.656000	25.142994	0.000272	20.768737
1358.376194	-2.998600	3.545900	-10.631000	25.145010	0.000274	20.763649
1359.377276	-3.028100	3.547000	-10.739000	25.151101	0.000271	20.777350
1360.376534	-3.005800	3.546200	-10.658000	25.160473	0.000271	20.756413
1361.376986	-3.006900	3.545700	-10.661000	25.166666	0.000271	20.754569
1362.377894	-3.007500	3.545900	-10.663000	25.134306	0.000270	20.779930
1363.378461	-2.996900	3.544700	-10.622000	25.142540	0.000271	20.775868
1364.377262	-2.985600	3.545400	-10.584000	25.144626	0.000269	20.770851
1365.378677	-2.991200	3.545000	-10.601000	25.143957	0.000270	20.777765
1366.379843	-2.987700	3.545500	-10.592000	25.135931	0.000270	20.792942
1367.378468	-2.988900	3.544400	-10.593000	25.170537	0.000266	20.794017
1368.378376	-2.993100	3.543300	-10.604000	25.168951	0.000268	20.753070
1369.382254	-2.996400	3.543800	-10.618000	25.154560	0.000266	20.775607
1370.377893	-2.999300	3.543700	-10.628000	25.167213	0.000269	20.787362
1371.382610	-3.016400	3.542300	-10.685000	25.167640	0.000269	20.785419
1372.377677	-3.013200	3.541700	-10.671000	25.138800	0.000268	20.778753
1373.380150	-3.001000	3.542800	-10.629000	25.184692	0.000265	20.785943
1374.381410	-3.007300	3.541600	-10.650000	25.161877	0.000266	20.779634
1375.378282	-2.986400	3.540600	-10.573000	25.166399	0.000267	20.767578
1376.378644	-2.969400	3.541500	-10.514000	25.168412	0.000264	20.765805
1377.379649	-2.977800	3.541100	-10.544000	25.178105	0.000265	20.789761
1378.378928	-2.983200	3.541000	-10.563000	25.189316	0.000265	20.771619
1379.378573	-2.982700	3.540000	-10.558000	25.170625	0.000265	20.753803
1380.381675	-2.985900	3.540500	-10.571000	25.173311	0.000266	20.761241
1381.378907	-3.027300	3.538300	-10.711000	25.176289	0.000264	20.756644
1382.379006	-2.984900	3.539500	-10.565000	25.173878	0.000264	20.776035
1383.379729	-2.983200	3.539800	-10.559000	25.165828	0.000263	20.778859
1384.377443	-3.008100	3.538500	-10.643000	25.190208	0.000263	20.775833
1385.380325	-3.032900	3.537400	-10.727000	25.175764	0.000262	20.785041
1386.383080	-2.988100	3.538200	-10.571000	25.169800	0.000263	20.787114
1387.380943	-2.987300	3.539500	-10.572000	25.164207	0.000262	20.766800
1388.379746	-2.983300	3.537900	-10.554000	25.190056	0.000262	20.784216
1389.382200	-2.984200	3.537400	-10.555000	25.175443	0.000261	20.764804
1390.380855	-3.002200	3.536500	-10.615000	25.169205	0.000259	20.776085
1391.381410	-2.997600	3.536300	-10.599000	25.207711	0.000260	20.789613
1392.381841	-2.984500	3.536700	-10.555000	25.189390	0.000262	20.778806
1393.381747	-3.031500	3.535200	-10.715000	25.173307	0.000258	20.772143
1394.383044	-2.978700	3.536300	-10.533000	25.186877	0.000257	20.799042
1395.382288	-2.998900	3.535900	-10.603000	25.195756	0.000256	20.770972
1396.381195	-2.992000	3.536200	-10.579000	25.187801	0.000254	20.782426
1397.382928	-2.979400	3.536400	-10.534000	25.189817	0.000257	20.787295
1398.382679	-2.985900	3.535300	-10.555000	25.183328	0.000253	20.793109
1399.381964	-2.980800	3.535300	-10.537000	25.180618	0.000254	20.770473
1400.384986	-2.992000	3.534700	-10.573000	25.201381	0.000253	20.794638
1401.383415	-2.993300	3.534100	-10.577000	25.194991	0.000255	20.791067
1402.382858	-2.990000	3.533500	-10.564000	25.194346	0.000252	20.800377
1403.382727	-2.993000	3.533100	-10.574000	25.185080	0.000252	20.780169
1404.382888	-3.000700	3.531700	-10.596000	25.168377	0.000252	20.777625
1405.381316	-3.010600	3.532100	-10.632000	25.200917	0.000254	20.800335
1406.385115	-2.996100	3.532500	-10.583000	25.183544	0.000252	20.797119
1407.382680	-2.998600	3.531100	-10.588000	25.192074	0.000253	20.794776
1408.384879	-3.008200	3.531300	-10.621000	25.200279	0.000251	20.812497
1409.382533	-3.002300	3.531800	-10.603000	25.198394	0.000250	20.801595
1410.382662	-3.018200	3.530400	-10.655000	25.189794	0.000250	20.804815
1411.383808	-3.016400	3.529600	-10.646000	25.165587	0.000249	20.791419
1412.384334	-2.993400	3.530300	-10.567000	25.214410	0.000251	20.822890
1413.384790	-3.002100	3.529700	-10.596000	25.194454	0.000249	20.821822
1414.383492	-2.987500	3.528800	-10.541000	25.203456	0.000248	20.797669
1415.386920	-3.013800	3.528700	-10.634000	25.191078	0.000247	20.807527
1416.389760	-2.998800	3.529900	-10.585000	25.198737	0.000249	20.807629
1417.384042	-3.000700	3.528800	-10.588000	25.215217	0.000246	20.779605
1418.384167	-3.007200	3.527500	-10.607000	25.183754	0.000247	20.804916
1419.384645	-3.019800	3.526600	-10.648000	25.199992	0.000246	20.785656
1420.386654	-3.006800	3.526800	-10.603000	25.175289	0.000245	20.806849
1421.386948	-3.013200	3.527800	-10.629000	25.168828	0.000246	20.815061
1422.385211	-2.995700	3.527200	-10.566000	25.176886	0.000246	20.801814
1423.388330	-3.009200	3.526200	-10.610000	25.197050	0.000243	20.808781
1424.385701	-2.988800	3.526600	-10.540000	25.167825	0.000245	20.828278
1425.385759	-2.988200	3.526400	-10.536000	25.206585	0.000243	20.820725
1426.387586	-3.001800	3.526200	-10.584000	25.186379	0.000244	20.814189
1427.385456	-3.004100	3.524900	-10.588000	25.185562	0.000243	20.794877
1428.384099	-3.009200	3.524700	-10.606000	25.199438	0.000242	20.822558
1429.387658	-2.992000	3.524800	-10.544000	25.177967	0.000242	20.801951
1430.389958	-3.006100	3.523500	-10.591000	25.195947	0.000243	20.794871
1431.394655	-3.023900	3.523200	-10.653000	25.205023	0.000242	20.813466
1432.388710	-2.988000	3.524600	-10.530000	25.203934	0.000241	20.805261
1433.388398	-3.002100	3.523900	-10.578000	25.202669	0.000238	20.822008
1434.392586	-2.983900	3.523500	-10.513000	25.191317	0.000242	20.833371
1435.387817	-2.979200	3.523900	-10.497000	25.221925	0.000241	20.797244
1436.389842	-3.013700	3.522300	-10.614000	25.217054	0.000239	20.820329
1437.392320	-2.986000	3.521600	-10.515000	25.219070	0.000238	20.812871
1438.388375	-2.976700	3.521900	-10.483000	25.226183	0.000238	20.799623
1439.389568	-3.011500	3.520400	-10.601000	25.219776	0.000238	20.812157
1440.389663	-2.984300	3.522100	-10.510000	25.202112	0.000239	20.796320
1441.387128	-3.020300	3.520700	-10.632000	25.233833	0.000238	20.809674
1442.393079	-2.972000	3.521000	-10.463000	25.208633	0.000237	20.802867
1443.389540	-3.012200	3.520300	-10.602000	25.209931	0.000236	20.789945
1444.390512	-3.009600	3.519900	-10.593000	25.204888	0.000236	20.813805
1445.389810	-3.007300	3.519000	-10.582000	25.216276	0.000235	20.815755
1446.392001	-3.011100	3.519700	-10.597000	25.214542	0.000234	20.825868
1447.396930	-3.003800	3.519300	-10.570000	25.222279	0.000234	20.791436
1448.390619	-3.005500	3.519500	-10.577000	25.220764	0.000235	20.813148
1449.394622	-2.976200	3.519500	-10.474000	25.217466	0.000233	20.827855
1450.406634	-3.002700	3.519100	-10.566000	25.231663	0.000233	20.830728
1451.399507	-2.998400	3.517800	-10.546000	25.221946	0.000232	20.812439
1452.397172	-2.996900	3.518000	-10.542000	25.199506	0.000233	20.804609
1453.395491	-3.026600	3.517800	-10.646000	25.218677	0.000233	20.812949
1454.395138	-3.020000	3.517500	-10.621000	25.229022	0.000232	20.820016
1455.395181	-3.007200	3.516800	-10.574000	25.221966	0.000233	20.811510
1456.395378	-3.006500	3.517100	-10.573000	25.219810	0.000232	20.813139
1457.400741	-3.013900	3.515800	-10.596000	25.212360	0.000231	20.790012
1458.396460	-3.006000	3.515700	-10.566000	25.222007	0.000229	20.809180
1459.396276	-2.989200	3.515400	-10.507000	25.216294	0.000231	20.813876
1460.396756	-3.000000	3.515500	-10.545000	25.214659	0.000229	20.821718
1461.396742	-2.984200	3.515300	-10.489000	25.232581	0.000229	20.803676
1462.399733	-3.008000	3.514300	-10.569000	25.206564	0.000229	20.823074
1463.403050	-2.990600	3.514700	-10.510000	25.237246	0.000227	20.818316
1464.400204	-3.002200	3.513800	-10.548000	25.238844	0.000226	20.819446
1465.399476	-3.001100	3.513900	-10.545000	25.226269	0.000226	20.823416
1466.399922	-2.980500	3.514700	-10.473000	25.219562	0.000229	20.825692
1467.399899	-3.003000	3.513100	-10.549000	25.238535	0.000228	20.824826
1468.400769	-2.996500	3.513100	-10.526000	25.227932	0.000225	20.815603
1469.399474	-2.979600	3.513900	-10.469000	25.238079	0.000226	20.818204
1470.399801	-2.992800	3.512000	-10.510000	25.222667	0.000225	20.818378
1471.399240	-2.994500	3.512000	-10.516000	25.217903	0.000226	20.817388
1472.401168	-2.988100	3.511700	-10.492000	25.237669	0.000225	20.811154
1473.406971	-2.999300	3.510000	-10.527000	25.224478	0.000224	20.832998
1474.400048	-3.003400	3.510900	-10.544000	25.217472	0.000224	20.818852
1475.401069	-2.989000	3.510800	-10.493000	25.215040	0.000222	20.836325
1476.406559	-2.996600	3.510800	-10.520000	25.242687	0.000224	20.826624
1477.399322	-2.992200	3.510100	-10.502000	25.241570	0.000224	20.811752
1478.403095	-3.010500	3.509900	-10.566000	25.254498	0.000222	20.816671
1479.404514	-2.986800	3.508800	-10.478000	25.243841	0.000222	20.814506
1480.400766	-2.989700	3.509200	-10.491000	25.254009	0.000222	20.828034
1481.400961	-2.964400	3.509600	-10.402000	25.241036	0.000221	20.851044
1482.405988	-2.980000	3.510000	-10.458000	25.235747	0.000221	20.813966
1483.402323	-2.993800	3.507600	-10.500000	25.243135	0.000221	20.846039
1484.403303	-3.004400	3.507700	-10.537000	25.258469	0.000223	20.826347
1485.400288	-3.013500	3.506600	-10.566000	25.222576	0.000219	20.826822
1486.403064	-3.022900	3.507100	-10.600000	25.236975	0.000219	20.833216
1487.402030	-2.993300	3.507400	-10.498000	25.253007	0.000220	20.835562
1488.403666	-3.018800	3.506000	-10.583000	25.230293	0.000220	20.822715
1489.402337	-2.989900	3.506600	-10.483000	25.230815	0.000220	20.845997
1490.403343	-2.989000	3.507300	-10.483000	25.254585	0.000218	20.820077
1491.400511	-3.003500	3.504600	-10.525000	25.238306	0.000220	20.827440
1492.408426	-2.988200	3.505700	-10.475000	25.252626	0.000219	20.850826
1493.407357	-2.985100	3.505000	-10.462000	25.248199	0.000218	20.833105
1494.404826	-2.983300	3.505100	-10.456000	25.240573	0.000218	20.852475
1495.409996	-2.997300	3.504400	-10.504000	25.243833	0.000217	20.836783
1496.407068	-2.979000	3.503800	-10.437000	25.251690	0.000217	20.826179
1497.405353	-3.012600	3.503800	-10.554000	25.263919	0.000215	20.834190
1498.419831	-2.982900	3.504200	-10.452000	25.229275	0.000216	20.852986
1499.407884	-2.986000	3.504000	-10.462000	25.252569	0.000214	20.837492
1500.412671	-2.990900	3.503300	-10.477000	25.257242	0.000214	20.848822
1501.408152	-3.010200	3.503200	-10.544000	25.251727	0.000213	20.848026
1502.406579	-3.000300	3.501600	-10.505000	25.266942	0.000214	20.847181
1503.410009	-3.010000	3.501500	-10.539000	25.260236	0.000213	20.859888
1504.408687	-2.997400	3.502000	-10.496000	25.262047	0.000213	20.848431
1505.411540	-2.989400	3.501700	-10.467000	25.263123	0.000213	20.846666
1506.410790	-2.979300	3.501700	-10.432000	25.252088	0.000212	20.837485
1507.409229	-2.983800	3.501400	-10.447000	25.248187	0.000211	20.833094
1508.420151	-3.002300	3.500900	-10.510000	25.274938	0.000213	20.828183
1509.413110	-3.003200	3.500100	-10.511000	25.268322	0.000211	20.836239
1510.410871	-2.999500	3.499800	-10.497000	25.271854	0.000211	20.845001
1511.415090	-3.002400	3.500000	-10.507000	25.275882	0.000210	20.828183
1512.411186	-3.011100	3.499800	-10.538000	25.277776	0.000211	20.833877
1513.410858	-2.982900	3.499400	-10.437000	25.260734	0.000209	20.837155
1514.413764	-3.004900	3.498900	-10.513000	25.267817	0.000209	20.826724
1515.412317	-3.020800	3.498600	-10.567000	25.282683	0.000208	20.826003
1516.413012	-3.030400	3.497300	-10.596000	25.281246	0.000208	20.829775
1517.412870	-2.982200	3.497400	-10.429000	25.262906	0.000207	20.821793
1518.415101	-3.004600	3.496100	-10.503000	25.261666	0.000206	20.814384
1519.417946	-2.999700	3.496700	-10.489000	25.262763	0.000207	20.830184
1520.418835	-3.004100	3.496000	-10.501000	25.269030	0.000207	20.834105
1521.421545	-2.998500	3.495300	-10.480000	25.282031	0.000207	20.832460
1522.420459	-3.005200	3.495100	-10.502000	25.259548	0.000206	20.822215
1523.419271	-2.977200	3.496000	-10.408000	25.280529	0.000205	20.824788
1524.414718	-3.023400	3.494100	-10.562000	25.277822	0.000205	20.801682
1525.419836	-3.008100	3.493600	-10.508000	25.309788	0.000204	20.810543
1526.417413	-2.995800	3.494100	-10.467000	25.255438	0.000204	20.810502
1527.414514	-2.984000	3.495800	-10.431000	25.284944	0.000202	20.824005
1528.415531	-2.989800	3.493800	-10.445000	25.265787	0.000203	20.818047
1529.417254	-3.007200	3.493700	-10.506000	25.297256	0.000201	20.804124
1530.417753	-3.007200	3.493900	-10.506000	25.277922	0.000203	20.796092
1531.416418	-3.010200	3.492600	-10.513000	25.296373	0.000200	20.794703
1532.417719	-2.997500	3.493100	-10.470000	25.272740	0.000202	20.791838
1533.416532	-2.997100	3.492500	-10.466000	25.280276	0.000200	20.812206
1534.418286	-3.013500	3.492500	-10.524000	25.285426	0.000202	20.797462
1535.417502	-3.004100	3.492000	-10.489000	25.288416	0.000202	20.794300
1536.419525	-2.999200	3.492000	-10.472000	25.281110	0.000199	20.792655
1537.421682	-3.000700	3.491500	-10.476000	25.289595	0.000200	20.787424
1538.422521	-2.998300	3.490700	-10.465000	25.275308	0.000198	20.820495
1539.419850	-3.014800	3.490400	-10.521000	25.273753	0.000198	20.806605
1540.423368	-3.017900	3.488900	-10.529000	25.279547	0.000199	20.804836
1541.420344	-3.006800	3.489600	-10.492000	25.253479	0.000199	20.790992
1542.420846	-3.017700	3.489000	-10.528000	25.288706	0.000198	20.778470
1543.424492	-3.003400	3.489200	-10.478000	25.263089	0.000196	20.783097
1544.422166	-3.001200	3.489200	-10.471000	25.279352	0.000195	20.800847
1545.421095	-2.987300	3.489400	-10.423000	25.292559	0.000196	20.801305
1546.422599	-3.006300	3.488000	-10.485000	25.282995	0.000194	20.798341
1547.421763	-3.013000	3.486700	-10.504000	25.290211	0.000194	20.788042
1548.424770	-2.983800	3.488600	-10.407000	25.274902	0.000195	20.794957
1549.422397	-3.001900	3.486700	-10.465000	25.288488	0.000195	20.780148
1550.426650	-2.998100	3.486900	-10.453000	25.290332	0.000193	20.780103
1551.425384	-2.982400	3.487800	-10.401000	25.275598	0.000194	20.767680
1552.426257	-3.007000	3.485600	-10.480000	25.286719	0.000193	20.777898
1553.430118	-2.996100	3.485600	-10.442000	25.284781	0.000190	20.780220
1554.426738	-2.992200	3.485800	-10.430000	25.269062	0.000191	20.774869
1555.428971	-3.006800	3.484900	-10.478000	25.284233	0.000191	20.770186
1556.426300	-2.994500	3.484500	-10.433000	25.303501	0.000191	20.781471
1557.427008	-2.989600	3.485300	-10.419000	25.300426	0.000190	20.780754
1558.427412	-2.966600	3.485700	-10.338000	25.289347	0.000191	20.771527
1559.430123	-3.001800	3.483400	-10.455000	25.268301	0.000191	20.766044
1560.430255	-3.018500	3.482500	-10.512000	25.292096	0.000192	20.754372
1561.433561	-3.002400	3.483200	-10.457000	25.293940	0.000189	20.787519
1562.427497	-3.016300	3.482100	-10.502000	25.307890	0.000187	20.785878
1563.433651	-2.994700	3.481900	-10.427000	25.298996	0.000190	20.780267
1564.427608	-3.011200	3.481900	-10.483000	25.298410	0.000189	20.774937
1565.426988	-2.995500	3.481700	-10.428000	25.282608	0.000188	20.771400
1566.430179	-3.000900	3.481000	-10.445000	25.300858	0.000188	20.763171
1567.427105	-2.992100	3.481700	-10.417000	25.293612	0.000188	20.755894
1568.429777	-2.993800	3.480400	-10.419000	25.272389	0.000188	20.763984
1569.429854	-2.993800	3.480700	-10.420000	25.284952	0.000187	20.766167
1570.428400	-2.992000	3.480500	-10.413000	25.291047	0.000186	20.752845
1571.428290	-2.971100	3.481100	-10.342000	25.284297	0.000187	20.768354
1572.428521	-2.992700	3.480100	-10.414000	25.292355	0.000185	20.743726
1573.429789	-3.018400	3.478800	-10.499000	25.289801	0.000187	20.777199
1574.439430	-3.026700	3.478000	-10.525000	25.289466	0.000185	20.753154
1575.431974	-3.011800	3.478500	-10.475000	25.301252	0.000187	20.739383
1576.431693	-3.016600	3.477400	-10.489000	25.278667	0.000184	20.759382
1577.434108	-3.008800	3.477500	-10.462000	25.279896	0.000186	20.733588
1578.431155	-2.988100	3.478100	-10.392000	25.283728	0.000183	20.754031
1579.437036	-3.007400	3.476700	-10.455000	25.287412	0.000185	20.760101
1580.432385	-2.988500	3.476800	-10.390000	25.301014	0.000183	20.754317
1581.432388	-2.991600	3.476800	-10.400000	25.279246	0.000184	20.741944
1582.431146	-3.000800	3.477400	-10.433000	25.296104	0.000184	20.747016
1583.435034	-3.006000	3.476200	-10.448000	25.291509	0.000182	20.740506
1584.436042	-2.992100	3.475700	-10.399000	25.297776	0.000184	20.752963
1585.431296	-2.983100	3.476000	-10.368000	25.291440	0.000183	20.745179
1586.433451	-2.985400	3.475300	-10.375000	25.289231	0.000181	20.761927
1587.436715	-3.002900	3.475000	-10.434000	25.305287	0.000182	20.750073
1588.433108	-2.974200	3.475800	-10.337000	25.302557	0.000182	20.759186
1589.437691	-2.995600	3.474500	-10.407000	25.294357	0.000183	20.747159
1590.444022	-3.020600	3.473800	-10.493000	25.298508	0.000180	20.746112
1591.435474	-2.997200	3.473700	-10.410000	25.297215	0.000181	20.723000
1592.435711	-2.997200	3.474200	-10.412000	25.300397	0.000178	20.749431
1593.435829	-3.002900	3.473100	-10.428000	25.293791	0.000180	20.743745
1594.436135	-3.025300	3.470700	-10.499000	25.295822	0.000177	20.755743
1595.440879	-3.004600	3.472100	-10.431000	25.300623	0.000178	20.747287
1596.436968	-3.010800	3.472200	-10.453000	25.295212	0.000181	20.731422
1597.436741	-2.988800	3.472500	-10.378000	25.283903	0.000179	20.730024
1598.439007	-3.020100	3.470200	-10.479000	25.314726	0.000177	20.740584
1599.435627	-2.998400	3.471400	-10.408000	25.297180	0.000177	20.735768
1600.436753	-3.003200	3.471500	-10.425000	25.300096	0.000176	20.726368
1601.440039	-2.997200	3.470600	-10.401000	25.302354	0.000177	20.744757
1602.438442	-2.990000	3.470200	-10.375000	25.289584	0.000176	20.727193
1603.438248	-3.012500	3.470200	-10.453000	25.295678	0.000174	20.736158
1604.436879	-2.989200	3.469800	-10.370000	25.289195	0.000173	20.740079
1605.437987	-2.989500	3.468400	-10.368000	25.283655	0.000174	20.734043
1606.439632	-3.011000	3.468700	-10.444000	25.294847	0.000173	20.729158
1607.439195	-2.994700	3.468100	-10.385000	25.297508	0.000174	20.723295
1608.440401	-3.003800	3.468300	-10.418000	25.266368	0.000174	20.751301
1609.438410	-2.988200	3.467700	-10.361000	25.307410	0.000173	20.722805
1610.439935	-3.005500	3.467900	-10.421000	25.290635	0.000171	20.741051
1611.441312	-3.019000	3.466900	-10.466000	25.299086	0.000170	20.751908
1612.439521	-3.019700	3.466400	-10.467000	25.319275	0.000173	20.715752
1613.441893	-2.992200	3.466700	-10.372000	25.309038	0.000171	20.720172
1614.440894	-3.001700	3.467400	-10.407000	25.318881	0.000170	20.729582
1615.443262	-3.011200	3.465600	-10.434000	25.299327	0.000170	20.715164
1616.443445	-2.996900	3.466400	-10.387000	25.328114	0.000171	20.734585
1617.445170	-3.005700	3.466300	-10.417000	25.313027	0.000171	20.724652
1618.444591	-2.989100	3.465600	-10.357000	25.313081	0.000168	20.744148
1619.442125	-2.998200	3.464800	-10.386000	25.301407	0.000166	20.732900
1620.443114	-3.020800	3.464100	-10.463000	25.325816	0.000166	20.723743
1621.446041	-3.017100	3.463800	-10.450000	25.320430	0.000168	20.734930
1622.442083	-3.003400	3.464100	-10.403000	25.322196	0.000166	20.718210
1623.443336	-3.008500	3.463100	-10.417000	25.327646	0.000166	20.730796
1624.442442	-3.023000	3.463200	-10.468000	25.325388	0.000164	20.719519
1625.446550	-3.003800	3.463500	-10.402000	25.319898	0.000165	20.719697
1626.446858	-3.001900	3.461900	-10.392000	25.307128	0.000164	20.725367
1627.444548	-3.012700	3.462000	-10.429000	25.329082	0.000163	20.725599
1628.443046	-3.029800	3.461200	-10.485000	25.297043	0.000163	20.713344
1629.448722	-3.008800	3.462100	-10.415000	25.326302	0.000161	20.735611
1630.442880	-3.013000	3.461100	-10.427000	25.321344	0.000163	20.707397
1631.444918	-3.007100	3.460800	-10.406000	25.320822	0.000162	20.707348
1632.446088	-2.994400	3.460400	-10.361000	25.323267	0.000161	20.729244
1633.442667	-2.980700	3.460600	-10.314000	25.321732	0.000161	20.722961
1634.449607	-3.011400	3.459600	-10.417000	25.329317	0.000161	20.734845
1635.443926	-2.994100	3.459800	-10.358000	25.328776	0.000162	20.712489
1636.446307	-2.998100	3.459300	-10.371000	25.321697	0.000162	20.705381
1637.461754	-2.995500	3.458000	-10.358000	25.336194	0.000160	20.700496
1638.444797	-3.004200	3.457800	-10.387000	25.333144	0.000157	20.716875
1639.445951	-2.969900	3.458900	-10.272000	25.323926	0.000160	20.723741
1640.445858	-2.975700	3.459900	-10.295000	25.331939	0.000158	20.719933
1641.445346	-2.991000	3.457400	-10.340000	25.333660	0.000157	20.716920
1642.449573	-3.023200	3.456100	-10.447000	25.332721	0.000158	20.715028
1643.444742	-3.006500	3.457100	-10.393000	25.319902	0.000157	20.720649
1644.446208	-2.993300	3.456600	-10.346000	25.325573	0.000156	20.716860
1645.450536	-2.987500	3.455900	-10.324000	25.311391	0.000157	20.714474
1646.447732	-3.004500	3.456400	-10.384000	25.333168	0.000156	20.697458
1647.454583	-2.996300	3.455400	-10.353000	25.305188	0.000158	20.713462
1648.448352	-2.970000	3.455300	-10.261000	25.327344	0.000154	20.718638
1649.448268	-3.014600	3.455200	-10.415000	25.313280	0.000156	20.713052
1650.452792	-3.038500	3.453700	-10.492000	25.331530	0.000157	20.698184
1651.448002	-3.002800	3.454700	-10.372000	25.329450	0.000154	20.708424
1652.451532	-3.002000	3.454400	-10.369000	25.331565	0.000157	20.695848
1653.450613	-2.978700	3.454900	-10.290000	25.338112	0.000153	20.711906
1654.448515	-3.010000	3.452500	-10.392000	25.322534	0.000153	20.707169
1655.452773	-3.003200	3.453600	-10.371000	25.330842	0.000153	20.702235
1656.453276	-2.989300	3.453400	-10.322000	25.312877	0.000153	20.703164
1657.450032	-3.008000	3.452100	-10.382000	25.326656	0.000152	20.711783
1658.453867	-2.975700	3.453300	-10.275000	25.327286	0.000153	20.692025
1659.451704	-2.987800	3.452300	-10.314000	25.340213	0.000153	20.690781
1660.451901	-2.988700	3.453100	-10.319000	25.315913	0.000151	20.701944
1661.452261	-3.003800	3.451500	-10.367000	25.323523	0.000150	20.711482
1662.454683	-2.969300	3.452500	-10.249000	25.330538	0.000149	20.692920
1663.459873	-3.022000	3.449100	-10.422000	25.320601	0.000152	20.697642
1664.458628	-2.987600	3.450600	-10.308000	25.324537	0.000149	20.697800
1665.460623	-3.007000	3.450100	-10.374000	25.325658	0.000149	20.705091
1666.457495	-2.980200	3.450600	-10.283000	25.330986	0.000149	20.676299
1667.455517	-2.983900	3.449100	-10.291000	25.334425	0.000148	20.694926
1668.456261	-2.996300	3.448800	-10.333000	25.340116	0.000149	20.714392
1669.458665	-2.993400	3.449200	-10.323000	25.337962	0.000148	20.671448
1670.457034	-2.991100	3.448600	-10.314000	25.342192	0.000147	20.711735
1671.457038	-2.983900	3.448200	-10.289000	25.319456	0.000149	20.713089
1672.458366	-3.000900	3.448400	-10.347000	25.336314	0.000149	20.676433
1673.456717	-3.017400	3.447000	-10.400000	25.336437	0.000148	20.690308
1674.459798	-3.001000	3.446900	-10.343000	25.331007	0.000147	20.702875
1675.456941	-3.026000	3.445900	-10.426000	25.345253	0.000146	20.697264
1676.460394	-2.989700	3.446400	-10.302000	25.334121	0.000146	20.676602
1677.459168	-2.982700	3.447200	-10.282000	25.362007	0.000146	20.684688
1678.459339	-3.016800	3.446100	-10.395000	25.331091	0.000146	20.680198
1679.465010	-3.006300	3.445600	-10.357000	25.342031	0.000145	20.667473
1680.460976	-3.012000	3.443900	-10.372000	25.327220	0.000144	20.697649
1681.462874	-2.992000	3.444400	-10.305000	25.335794	0.000146	20.701517
1682.462798	-2.992900	3.444000	-10.307000	25.341741	0.000145	20.680934
1683.465512	-3.013300	3.443700	-10.375000	25.343478	0.000145	20.686471
1684.465239	-3.000300	3.444100	-10.333000	25.327899	0.000147	20.692641
1685.462615	-2.998400	3.443300	-10.323000	25.332223	0.000143	20.696983
1686.462035	-3.022700	3.443700	-10.408000	25.324790	0.000145	20.701848
1687.473778	-3.004700	3.442700	-10.343000	25.333389	0.000144	20.693886
1688.462739	-3.009000	3.441300	-10.354000	25.327643	0.000145	20.700919
1689.467202	-3.022000	3.441600	-10.400000	25.342105	0.000143	20.689835
1690.464967	-3.023000	3.441500	-10.402000	25.351072	0.000146	20.707375
1691.467911	-3.003500	3.440900	-10.333000	25.332380	0.000143	20.690027
1692.466844	-2.978800	3.441600	-10.251000	25.324991	0.000142	20.700153
1693.463669	-2.983300	3.440700	-10.264000	25.338391	0.000143	20.687528
1694.467122	-2.991500	3.441000	-10.293000	25.336369	0.000144	20.688342
1695.473000	-3.021200	3.439200	-10.389000	25.337584	0.000145	20.700943
1696.465534	-2.986500	3.438600	-10.269000	25.323239	0.000140	20.696023
1697.466799	-3.006900	3.438700	-10.339000	25.349128	0.000142	20.672229
1698.465790	-3.000100	3.438900	-10.316000	25.340721	0.000141	20.689394
1699.471581	-2.996800	3.437900	-10.302000	25.347322	0.000142	20.693652
1700.467532	-2.989700	3.437900	-10.277000	25.350353	0.000143	20.703333
1701.466116	-2.989200	3.438700	-10.278000	25.364337	0.000141	20.699356
1702.471959	-3.002900	3.437100	-10.321000	25.355532	0.000140	20.687669
1703.470119	-3.006500	3.437800	-10.335000	25.354902	0.000140	20.710272
1704.471619	-2.988500	3.436400	-10.269000	25.342890	0.000139	20.673077
1705.468383	-2.986900	3.437200	-10.266000	25.365055	0.000138	20.704819
1706.474571	-2.997600	3.436400	-10.300000	25.372846	0.000138	20.705056
1707.467958	-3.006100	3.436600	-10.328000	25.359043	0.000139	20.703999
1708.467146	-2.994600	3.435600	-10.288000	25.366741	0.000138	20.695132
1709.467851	-2.978800	3.436200	-10.235000	25.372447	0.000135	20.692800
1710.467464	-2.999200	3.435200	-10.301000	25.357331	0.000139	20.718876
1711.475427	-3.010400	3.434100	-10.337000	25.354089	0.000137	20.699498
1712.468546	-3.012400	3.433100	-10.341000	25.359023	0.000137	20.704452
1713.467759	-2.992800	3.434400	-10.278000	25.387021	0.000137	20.696529
1714.468440	-3.029700	3.433400	-10.400000	25.352717	0.000136	20.706655
1715.471007	-3.003000	3.432900	-10.308000	25.398094	0.000136	20.720925
1716.470133	-2.993000	3.433600	-10.276000	25.383795	0.000137	20.700402
1717.471772	-2.996300	3.432400	-10.284000	25.377425	0.000136	20.721034
1718.470574	-3.008500	3.431000	-10.321000	25.377538	0.000134	20.720673
1719.488192	-3.015300	3.431100	-10.345000	25.379815	0.000133	20.724857
1720.494418	-3.011300	3.431300	-10.332000	25.390770	0.000132	20.683222
1721.498987	-2.993800	3.432700	-10.275000	25.386067	0.000132	20.721177
1722.493652	-3.021100	3.430800	-10.364000	25.386087	0.000133	20.710291
1723.505372	-2.991000	3.430600	-10.260000	25.382349	0.000130	20.724556
1724.473460	-2.997000	3.430200	-10.280000	25.400238	0.000133	20.727347
1725.476711	-2.977300	3.429400	-10.209000	25.387730	0.000131	20.732805
1726.475141	-2.981000	3.430300	-10.225000	25.397848	0.000131	20.732533
1727.499788	-3.006700	3.429400	-10.310000	25.401316	0.000128	20.721790
1728.501283	-3.000700	3.429900	-10.291000	25.393859	0.000130	20.734218
1729.508965	-3.019800	3.429000	-10.354000	25.415103	0.000128	20.695330
1730.512040	-3.009400	3.428200	-10.315000	25.386048	0.000126	20.717839
1731.474387	-3.003400	3.428500	-10.296000	25.375605	0.000126	20.729165
1732.475764	-3.010500	3.427900	-10.318000	25.398394	0.000127	20.725495
1733.479353	-3.030600	3.427400	-10.387000	25.396702	0.000128	20.695345
1734.478742	-2.985800	3.427900	-10.234000	25.407357	0.000124	20.716002
1735.476882	-3.002800	3.426400	-10.288000	25.399850	0.000125	20.724586
1736.477092	-2.993900	3.427000	-10.259000	25.424203	0.000123	20.723435
1737.478197	-2.993500	3.426800	-10.257000	25.400687	0.000123	20.754351
1738.479653	-3.036200	3.423500	-10.393000	25.397180	0.000123	20.720008
1739.509299	-3.010500	3.424700	-10.309000	25.415394	0.000124	20.733557
1740.497283	-3.000000	3.425500	-10.275000	25.405748	0.000123	20.739044
1741.500106	-2.988100	3.424700	-10.232000	25.396024	0.000122	20.722167
1742.509017	-3.005200	3.425300	-10.292000	25.391199	0.000123	20.725382
1743.509383	-3.001500	3.423900	-10.276000	25.412369	0.000125	20.740477
1744.502599	-3.017600	3.423100	-10.328000	25.389399	0.000122	20.750603
1745.498490	-2.983400	3.424600	-10.216000	25.399704	0.000122	20.737242
1746.500147	-3.016200	3.423300	-10.324000	25.401937	0.000124	20.732846
1747.480032	-2.998300	3.424500	-10.267000	25.425961	0.000122	20.724252
1748.484493	-3.016300	3.421600	-10.320000	25.401923	0.000123	20.745635
1749.500953	-2.992800	3.422400	-10.242000	25.406016	0.000124	20.721768
1750.508642	-2.993100	3.422300	-10.242000	25.408647	0.000122	20.735317
1751.509429	-2.994100	3.421000	-10.242000	25.422277	0.000121	20.755642
1752.504143	-2.979300	3.421100	-10.192000	25.403606	0.000119	20.744480
1753.520963	-3.013300	3.420100	-10.304000	25.423458	0.000120	20.752087
1754.506024	-2.985000	3.420500	-10.209000	25.417861	0.000121	20.748363
1755.504039	-3.009400	3.418600	-10.287000	25.428088	0.000120	20.722595
1756.501159	-2.986900	3.420300	-10.215000	25.417493	0.000121	20.746571
1757.507632	-3.005000	3.418900	-10.273000	25.440350	0.000120	20.755299
1758.484444	-3.000300	3.417600	-10.253000	25.438383	0.000118	20.738149
1759.488585	-2.989600	3.418500	-10.219000	25.423859	0.000117	20.731625
1760.482211	-3.000600	3.418400	-10.256000	25.429171	0.000115	20.749288
1761.487905	-2.994100	3.418200	-10.234000	25.443928	0.000115	20.755572
1762.487544	-3.008200	3.417000	-10.278000	25.459205	0.000116	20.762852
1763.496956	-3.028700	3.416400	-10.346000	25.439295	0.000115	20.760877
1764.514011	-2.986800	3.416000	-10.202000	25.436954	0.000115	20.754733
1765.502213	-2.991300	3.416900	-10.220000	25.444077	0.000115	20.764256
1766.514975	-2.983800	3.416000	-10.192000	25.456049	0.000116	20.768218
1767.483213	-3.011100	3.415800	-10.283000	25.445582	0.000115	20.768139
1768.485213	-3.000700	3.415500	-10.248000	25.460880	0.000115	20.758844
1769.485152	-2.996500	3.415900	-10.235000	25.452100	0.000114	20.778952
1770.486942	-3.011400	3.415200	-10.282000	25.456001	0.000113	20.762006
1771.482861	-2.995900	3.415100	-10.231000	25.457704	0.000114	20.767035
1772.484222	-3.008500	3.414400	-10.271000	25.445172	0.000112	20.766778
1773.509852	-3.001200	3.413300	-10.243000	25.459106	0.000112	20.772711
1774.501270	-2.985100	3.413700	-10.189000	25.455167	0.000112	20.776816
1775.506445	-2.993600	3.415000	-10.221000	25.463761	0.000113	20.780704
1776.504729	-3.011000	3.412400	-10.274000	25.480282	0.000113	20.780699
1777.502536	-3.026800	3.411500	-10.325000	25.452041	0.000112	20.770831
1778.502730	-3.009300	3.412300	-10.267000	25.475517	0.000112	20.786820
1779.493398	-3.010200	3.412200	-10.271000	25.452770	0.000112	20.773935
1780.504174	-2.989400	3.411900	-10.199000	25.485838	0.000110	20.764467
1781.511692	-3.030600	3.410000	-10.334000	25.480163	0.000110	20.769199
1782.505368	-3.008000	3.410800	-10.259000	25.469569	0.000112	20.779898
1783.486310	-2.982100	3.411300	-10.172000	25.472093	0.000109	20.792390
1784.485051	-3.020100	3.410700	-10.300000	25.466620	0.000110	20.773617
1785.485820	-3.016500	3.407800	-10.278000	25.466906	0.000109	20.783388
1786.489822	-2.993200	3.409700	-10.205000	25.472440	0.000108	20.792264
1787.488328	-3.004200	3.408700	-10.239000	25.465427	0.000108	20.790438
1788.486145	-2.999300	3.409800	-10.226000	25.461115	0.000108	20.781366
1789.489395	-3.024200	3.408300	-10.306000	25.483750	0.000107	20.784656
1790.509902	-3.001800	3.408400	-10.231000	25.477976	0.000107	20.792134
1791.510012	-3.007900	3.408200	-10.251000	25.470487	0.000107	20.786984
1792.509186	-2.999000	3.407400	-10.218000	25.477786	0.000106	20.791943
1793.504280	-2.993000	3.406900	-10.196000	25.482224	0.000107	20.792606
1794.518026	-3.013600	3.406400	-10.265000	25.489647	0.000105	20.796267
1795.507787	-3.022600	3.406800	-10.297000	25.508750	0.000105	20.791744
1796.517671	-2.980800	3.407900	-10.158000	25.505913	0.000103	20.812128
1797.489043	-3.021400	3.406400	-10.291000	25.476207	0.000105	20.795099
1798.490612	-2.998100	3.406100	-10.211000	25.471358	0.000104	20.803032
1799.512872	-3.013700	3.405100	-10.261000	25.501917	0.000104	20.798632
1800.509320	-3.001900	3.405400	-10.222000	25.515005	0.000103	20.819836
1801.509572	-3.003800	3.403700	-10.223000	25.489401	0.000102	20.797918
1802.492812	-2.995000	3.405400	-10.198000	25.503907	0.000101	20.804423
1803.491515	-2.980200	3.404200	-10.143000	25.491203	0.000102	20.799253
1804.493017	-3.002300	3.403600	-10.217000	25.502999	0.000103	20.812520
1805.491184	-2.971900	3.404400	-10.117000	25.495990	0.000103	20.800267
1806.494587	-2.988200	3.403400	-10.169000	25.490139	0.000102	20.823314
1807.517815	-3.016400	3.402700	-10.264000	25.496071	9.890230E-5	20.795607
1808.495183	-2.996800	3.401900	-10.194000	25.514255	9.946321E-5	20.800591
1809.501744	-2.995800	3.402600	-10.192000	25.526818	9.811042E-5	20.804672
1810.491555	-2.968600	3.402700	-10.101000	25.510317	9.989214E-5	20.815128
1811.497559	-2.969700	3.402100	-10.102000	25.516623	9.632869E-5	20.822409
1812.497659	-2.998600	3.400400	-10.195000	25.505735	9.903428E-5	20.814794
1813.492696	-2.984100	3.402000	-10.151000	25.522001	9.784646E-5	20.819749
1814.496212	-2.987200	3.401300	-10.160000	25.507709	9.497590E-5	20.827208
1815.515409	-2.981500	3.400700	-10.138000	25.489143	9.408504E-5	20.815676
1816.523877	-2.999200	3.400300	-10.198000	25.495577	9.807742E-5	20.829248
1817.514719	-2.999800	3.399800	-10.197000	25.504642	9.576778E-5	20.844990
1818.497438	-3.015900	3.399100	-10.250000	25.491589	9.316118E-5	20.817658
1819.496325	-2.993800	3.398600	-10.174000	25.526373	9.477793E-5	20.818450
1820.515245	-3.003900	3.398000	-10.207000	25.512976	9.276524E-5	20.813531
1821.498023	-2.991200	3.398100	-10.163000	25.516769	9.352413E-5	20.823978
1822.523232	-3.001400	3.398000	-10.198000	25.513542	9.332616E-5	20.831643
1823.525242	-2.980000	3.398900	-10.128000	25.533019	9.467895E-5	20.837452
1824.516599	-2.998800	3.398000	-10.189000	25.520518	9.260027E-5	20.832958
1825.521287	-2.985700	3.396800	-10.141000	25.529681	9.174240E-5	20.831255
1826.519783	-3.004400	3.396400	-10.203000	25.524085	9.180839E-5	20.833221
1827.514843	-3.024000	3.396600	-10.270000	25.516104	9.088453E-5	20.849861
1828.500878	-2.987700	3.396200	-10.146000	25.530987	9.055458E-5	20.848686
1829.524066	-3.000800	3.395800	-10.189000	25.524229	9.236930E-5	20.844271
1830.522065	-2.993300	3.396600	-10.166000	25.529615	9.200636E-5	20.814594
1831.514526	-2.997800	3.394700	-10.176000	25.543825	8.900382E-5	20.834553
1832.528990	-3.004200	3.395200	-10.198000	25.549663	8.877286E-5	20.839941
1833.517365	-2.993100	3.393500	-10.157000	25.543324	8.910281E-5	20.833101
1834.522703	-2.995200	3.394900	-10.168000	25.552742	8.949875E-5	20.838292
1835.525253	-2.982900	3.394600	-10.125000	25.556264	8.807996E-5	20.840407
1836.516063	-3.003300	3.393000	-10.189000	25.546928	8.639722E-5	20.841463
1837.525822	-3.010500	3.392600	-10.212000	25.539222	8.606727E-5	20.832776
1838.501905	-2.999000	3.392600	-10.174000	25.552487	8.580331E-5	20.818123
1839.507062	-2.975100	3.392700	-10.093000	25.545331	8.649621E-5	20.847445
1840.510900	-3.004100	3.392200	-10.188000	25.537005	8.286677E-5	20.833394
1841.509793	-3.010200	3.391500	-10.208000	25.573758	8.524240E-5	20.857501
1842.502075	-3.005900	3.391200	-10.193000	25.556116	8.491245E-5	20.842155
1843.506266	-2.989700	3.391000	-10.137000	25.553633	8.296575E-5	20.851040
1844.523609	-2.976000	3.390600	-10.089000	25.560292	8.184392E-5	20.823590
1845.527649	-2.990500	3.389900	-10.136000	25.563174	8.369164E-5	20.848768
1846.526705	-2.994800	3.391300	-10.155000	25.550952	8.293276E-5	20.840288
1847.504816	-2.996600	3.389900	-10.157000	25.563051	8.115103E-5	20.843429
1848.504838	-3.026600	3.388400	-10.254000	25.558030	7.897337E-5	20.851663
1849.507860	-3.003900	3.389300	-10.179000	25.554950	8.197590E-5	20.856157
1850.505581	-2.999800	3.388700	-10.164000	25.569016	8.095306E-5	20.856532
1851.503966	-3.007000	3.388500	-10.188000	25.561987	7.913834E-5	20.837146
1852.505995	-2.983900	3.389100	-10.112000	25.566906	7.814849E-5	20.848249
1853.508511	-3.012500	3.387600	-10.204000	25.557714	7.953428E-5	20.866992
1854.504314	-2.994900	3.387200	-10.144000	25.567780	7.887438E-5	20.847705
1855.511783	-2.991600	3.386900	-10.131000	25.579337	7.936930E-5	20.871164
1856.506831	-2.998100	3.387600	-10.155000	25.575860	7.818149E-5	20.841121
1857.507120	-2.994200	3.386700	-10.139000	25.570597	7.610281E-5	20.843421
1858.527733	-2.976600	3.386600	-10.080000	25.571866	7.663073E-5	20.852756
1859.529813	-2.989600	3.387400	-10.126000	25.571270	7.372717E-5	20.838882
1860.525284	-3.000600	3.385500	-10.158000	25.565634	7.587184E-5	20.867359
1861.540616	-3.010100	3.385500	-10.190000	25.582733	7.550890E-5	20.864143
1862.530425	-3.004800	3.385400	-10.171000	25.580323	7.336423E-5	20.863146
1863.523859	-3.002700	3.384500	-10.161000	25.585939	7.478301E-5	20.858355
1864.525412	-3.012700	3.383700	-10.194000	25.576702	7.501397E-5	20.834854
1865.527309	-3.015300	3.384400	-10.205000	25.573225	7.418910E-5	20.847483
1866.509704	-2.997100	3.383500	-10.140000	25.583591	7.382616E-5	20.865479
1867.505066	-3.009800	3.382000	-10.178000	25.598851	7.316626E-5	20.849512
1868.506811	-2.997900	3.382500	-10.139000	25.590780	7.329824E-5	20.874595
1869.506691	-2.994900	3.382900	-10.131000	25.589191	7.402413E-5	20.845026
1870.506878	-2.997800	3.382200	-10.137000	25.580800	7.366118E-5	20.841815
1871.505922	-3.007700	3.381200	-10.169000	25.606496	7.253936E-5	20.871887
1872.529906	-2.992600	3.382100	-10.121000	25.598179	7.247337E-5	20.864008
1873.509942	-2.996500	3.381600	-10.133000	25.614506	6.900890E-5	20.858121
1874.508388	-3.001700	3.380100	-10.145000	25.624120	6.986677E-5	20.832217
1875.507951	-2.984300	3.381000	-10.089000	25.591754	7.022971E-5	20.841436
1876.519407	-2.997400	3.381400	-10.134000	25.611140	7.032870E-5	20.853793
1877.507828	-2.985500	3.380600	-10.093000	25.601653	6.993276E-5	20.869394
1878.508625	-3.002300	3.380300	-10.148000	25.626551	6.897590E-5	20.855994
1879.532243	-2.991000	3.380100	-10.108000	25.601932	6.818403E-5	20.848338
1880.535285	-3.018400	3.379500	-10.199000	25.624150	6.966880E-5	20.880134
1881.525783	-3.005100	3.377500	-10.148000	25.606091	6.821702E-5	20.856308
1882.540400	-3.003100	3.377600	-10.142000	25.629426	6.907489E-5	20.858407
1883.526443	-3.002600	3.378700	-10.144000	25.599839	6.554443E-5	20.861409
1884.528131	-3.005800	3.377200	-10.150000	25.605706	6.709519E-5	20.851654
1885.531537	-3.030800	3.376200	-10.231000	25.589855	6.689722E-5	20.853753
1886.512700	-2.992200	3.378100	-10.107000	25.613740	6.498352E-5	20.866361
1887.533251	-2.983400	3.378900	-10.079000	25.601716	6.544545E-5	20.877517
1888.534744	-3.009800	3.376300	-10.161000	25.611536	6.554443E-5	20.870785
1889.512614	-2.998100	3.376800	-10.122000	25.616015	6.303682E-5	20.865327
1890.531818	-2.998400	3.376500	-10.124000	25.626451	6.290484E-5	20.844989
1891.514107	-2.995500	3.376600	-10.114000	25.630158	6.247590E-5	20.863884
1892.528994	-3.004600	3.374900	-10.138000	25.628073	6.363073E-5	20.871746
1893.531479	-2.988900	3.375600	-10.088000	25.610240	6.066118E-5	20.865690
1894.540386	-3.005700	3.373700	-10.140000	25.632532	6.221194E-5	20.861052
1895.518130	-3.023800	3.373000	-10.199000	25.633653	6.128809E-5	20.879721
1896.539003	-2.998200	3.374600	-10.116000	25.634129	6.112311E-5	20.876406
1897.517166	-3.023400	3.372500	-10.195000	25.632697	6.099113E-5	20.859796
1898.515272	-3.009800	3.372300	-10.149000	25.629117	6.122210E-5	20.886545
1899.516371	-3.003600	3.372800	-10.129000	25.643034	5.920941E-5	20.867807
1900.516377	-3.022000	3.373200	-10.192000	25.633522	5.986930E-5	20.854935
1901.519945	-3.001400	3.371700	-10.119000	25.637131	5.739469E-5	20.873732
1902.516976	-2.999000	3.372300	-10.113000	25.649981	5.947337E-5	20.869568
1903.516598	-2.977600	3.372900	-10.042000	25.653787	5.838453E-5	20.864382
1904.518749	-2.991900	3.372200	-10.088000	25.638335	5.673479E-5	20.873044
1905.518820	-3.014900	3.370700	-10.161000	25.619357	5.706474E-5	20.848295
1906.519533	-2.994600	3.371600	-10.096000	25.637276	5.663580E-5	20.879093
1907.518883	-2.997900	3.370700	-10.104000	25.658073	5.590991E-5	20.881488
1908.520818	-3.026300	3.369600	-10.196000	25.682581	5.590991E-5	20.871017
1909.519604	-3.005500	3.369000	-10.125000	25.646284	5.521702E-5	20.878657
1910.523082	-3.003900	3.368700	-10.118000	25.653719	5.640484E-5	20.865736
1911.531888	-2.996400	3.369000	-10.094000	25.664852	5.435915E-5	20.864116
1912.522809	-2.990400	3.370100	-10.077000	25.657820	5.290737E-5	20.876019
1913.520302	-2.984000	3.368700	-10.050000	25.651770	5.376524E-5	20.876580
1914.524158	-2.993700	3.368800	-10.084000	25.661216	5.485408E-5	20.864258
1915.521318	-3.010900	3.368300	-10.140000	25.661639	5.356727E-5	20.864682
1916.524418	-3.014100	3.368000	-10.151000	25.653795	5.066372E-5	20.859649
1917.523154	-3.024100	3.366100	-10.178000	25.669009	5.353428E-5	20.841265
1918.535519	-3.000200	3.367400	-10.102000	25.667823	5.046575E-5	20.848135
1919.536675	-2.999100	3.367000	-10.097000	25.670208	5.208250E-5	20.878029
1920.521244	-2.995000	3.367100	-10.084000	25.670164	5.016880E-5	20.845744
1921.523868	-2.992200	3.366200	-10.072000	25.670812	5.016880E-5	20.844973
1922.524242	-2.986400	3.365900	-10.051000	25.665830	4.987184E-5	20.848977
1923.547547	-2.997500	3.365700	-10.088000	25.689635	5.129062E-5	20.843964
1924.555140	-3.012100	3.364000	-10.132000	25.654878	4.756220E-5	20.836081
1925.553644	-2.995200	3.365400	-10.079000	25.674936	4.776017E-5	20.861916
1926.530317	-2.988900	3.366000	-10.060000	25.682592	4.828809E-5	20.819347
1927.525303	-3.012000	3.364500	-10.133000	25.691045	5.020179E-5	20.841113
1928.523914	-2.989700	3.363600	-10.055000	25.697437	4.696829E-5	20.832360
1929.526858	-3.010200	3.364200	-10.126000	25.690159	4.495560E-5	20.860137
1930.524693	-3.008600	3.364500	-10.121000	25.676198	4.584646E-5	20.842796
1931.526465	-3.014000	3.363100	-10.135000	25.687812	4.594545E-5	20.828857
1932.527058	-2.999100	3.362700	-10.085000	25.698768	4.459265E-5	20.845077
1933.553092	-3.013100	3.363300	-10.133000	25.692784	4.376778E-5	20.834325
1934.544680	-3.006800	3.362800	-10.110000	25.705263	4.409773E-5	20.829316
1935.547282	-2.996600	3.363200	-10.076000	25.684812	4.459265E-5	20.849077
1936.545868	-2.992300	3.362000	-10.059000	25.694164	4.505458E-5	20.822435
1937.552531	-3.021700	3.360800	-10.154000	25.684723	4.455966E-5	20.825754
1938.565020	-3.008900	3.361000	-10.112000	25.691981	4.482362E-5	20.835889
1939.546145	-3.019200	3.359400	-10.142000	25.680906	4.370179E-5	20.835197
1940.551763	-3.012800	3.360000	-10.122000	25.698825	4.225001E-5	20.816211
1941.530587	-2.994900	3.359800	-10.061000	25.699174	4.221702E-5	20.819407
1942.553643	-2.986400	3.359300	-10.031000	25.669364	4.116118E-5	20.818863
1943.552860	-3.012300	3.357800	-10.113000	25.701170	4.419671E-5	20.843222
1944.557580	-2.985600	3.359800	-10.030000	25.710444	4.013834E-5	20.837838
1945.547543	-3.005300	3.359200	-10.094000	25.704056	4.165610E-5	20.827155
1946.536178	-3.009700	3.358400	-10.107000	25.707021	4.142514E-5	20.832977
1947.532840	-3.004900	3.357000	-10.087000	25.712090	4.056727E-5	20.838543
1948.537880	-2.982100	3.358600	-10.014000	25.695725	4.000636E-5	20.826847
1949.567664	-3.010400	3.356300	-10.103000	25.699658	3.994037E-5	20.813255
1950.534329	-3.024300	3.355500	-10.148000	25.700528	3.706981E-5	20.812232
1951.535205	-3.011200	3.356800	-10.108000	25.689302	3.904950E-5	20.813758
1952.536978	-2.991300	3.355700	-10.036000	25.698895	3.980839E-5	20.810118
1953.536447	-2.995400	3.357300	-10.055000	25.695822	3.720179E-5	20.815091
1954.534670	-3.024800	3.354700	-10.146000	25.719101	3.528808E-5	20.827567
1955.536804	-3.021000	3.355400	-10.135000	25.706585	3.891753E-5	20.807411
1956.554058	-3.019800	3.354600	-10.129000	25.716976	3.677285E-5	20.808838
1957.563100	-3.001700	3.355000	-10.070000	25.707986	3.568402E-5	20.788903
1958.547865	-2.975300	3.353800	-9.978200	25.737160	3.673986E-5	20.806353
1959.542174	-3.020300	3.353100	-10.127000	25.732941	3.532108E-5	20.803537
1960.541878	-3.009800	3.353700	-10.093000	25.738340	3.525509E-5	20.814175
1961.539543	-3.010300	3.353200	-10.093000	25.727782	3.291245E-5	20.810209
1962.565423	-3.002000	3.354300	-10.069000	25.724601	3.287945E-5	20.816023
1963.557731	-3.003200	3.353000	-10.069000	25.728854	3.495813E-5	20.799432
1964.564824	-2.954700	3.353100	-9.906800	25.740660	3.291245E-5	20.827886
1965.564195	-3.017300	3.353200	-10.117000	25.747175	3.172463E-5	20.819257
1966.560954	-2.991300	3.351400	-10.025000	25.761243	3.162565E-5	20.801145
1967.565320	-3.001300	3.351700	-10.058000	25.717391	3.304443E-5	20.796453
1968.566709	-2.976000	3.352300	-9.976100	25.734139	3.410027E-5	20.791464
1969.566525	-2.995400	3.350300	-10.035000	25.742518	3.050382E-5	20.799880
1970.541607	-3.012500	3.350300	-10.092000	25.729054	3.235153E-5	20.787305
1971.542437	-3.022200	3.350100	-10.123000	25.739617	3.096575E-5	20.774681
1972.542832	-3.014400	3.350000	-10.098000	25.761926	3.175763E-5	20.796141
1973.543728	-3.009100	3.349000	-10.077000	25.758080	2.885407E-5	20.791330
1974.545012	-3.002200	3.348700	-10.053000	25.744666	3.152666E-5	20.792555
1975.543493	-3.002900	3.348200	-10.054000	25.767054	3.033884E-5	20.790861
1976.543468	-2.979400	3.349700	-9.979600	25.756192	2.944798E-5	20.785166
1977.545319	-3.010500	3.348400	-10.079000	25.765347	2.855712E-5	20.788198
1978.542261	-2.984900	3.348600	-9.993800	25.770314	2.793021E-5	20.776117
1979.575664	-3.003100	3.348100	-10.053000	25.747562	2.892006E-5	20.794515
1980.549200	-2.989100	3.347500	-10.006000	25.774046	2.670940E-5	20.785082
1981.564933	-3.007300	3.346800	-10.065000	25.753207	2.829316E-5	20.787383
1982.544751	-3.019100	3.346400	-10.102000	25.739193	2.736930E-5	20.800807
1983.542413	-2.989700	3.347300	-10.007000	25.777654	2.651143E-5	20.802931
1984.546539	-3.018800	3.346300	-10.101000	25.756762	2.703935E-5	20.801385
1985.565500	-2.982800	3.346300	-9.980000	25.770878	2.618148E-5	20.787590
1986.541621	-2.990900	3.346100	-10.008000	25.766158	2.591752E-5	20.795177
1987.543987	-3.011500	3.344400	-10.070000	25.762087	2.614849E-5	20.799622
1988.575806	-3.002000	3.343900	-10.038000	25.770313	2.416879E-5	20.767107
1989.546828	-3.001400	3.343900	-10.035000	25.770859	2.426778E-5	20.797053
1990.545409	-2.992200	3.344000	-10.004000	25.776621	2.486168E-5	20.800945
1991.567070	-2.999000	3.343800	-10.027000	25.771980	2.347590E-5	20.805766
1992.567856	-3.007800	3.343800	-10.057000	25.761742	2.489468E-5	20.797379
1993.546493	-3.031800	3.341400	-10.130000	25.789991	2.350889E-5	20.798253
1994.550269	-3.012700	3.342700	-10.069000	25.794760	2.172717E-5	20.786449
1995.547894	-3.020500	3.343400	-10.097000	25.787036	2.334392E-5	20.779638
1996.548945	-2.997200	3.342600	-10.017000	25.809870	2.205711E-5	20.777919
1997.548176	-3.011100	3.342300	-10.063000	25.805848	2.044036E-5	20.774353
1998.568699	-3.010300	3.341200	-10.057000	25.806787	1.789975E-5	20.803271
1999.549312	-3.007200	3.340500	-10.045000	25.811266	1.862564E-5	20.781218
2000.552507	-3.001800	3.340600	-10.026000	25.810548	2.179316E-5	20.794247
2001.552322	-3.001900	3.341500	-10.029000	25.801329	1.898859E-5	20.775503
2002.552975	-3.009200	3.340000	-10.050000	25.801530	1.879062E-5	20.778076
2003.551517	-3.002500	3.339900	-10.027000	25.815470	1.879062E-5	20.800614
2004.554147	-2.989400	3.339900	-9.982700	25.820933	1.565610E-5	20.787135
2005.549765	-2.988300	3.339100	-9.977300	25.815421	1.443528E-5	20.784917
2006.557479	-2.993600	3.338700	-9.993200	25.810602	1.453427E-5	20.793353
2007.553148	-2.983400	3.339500	-9.962000	25.813513	1.407234E-5	20.797225
2008.572163	-2.988900	3.338600	-9.977400	25.812146	1.268655E-5	20.771670
2009.554852	-3.014100	3.337900	-10.060000	25.816399	1.219163E-5	20.803443
2010.551307	-2.997900	3.338800	-10.008000	25.820647	1.502919E-5	20.786848
2011.552516	-3.018500	3.338000	-10.075000	25.822215	1.014594E-5	20.769931
2012.553089	-3.021700	3.337000	-10.082000	25.832752	1.275254E-5	20.771507
2013.571621	-3.008900	3.336000	-10.037000	25.814225	1.370940E-5	20.785613
2014.550828	-3.014900	3.336100	-10.057000	25.822894	1.225762E-5	20.779147
2015.574122	-2.993000	3.337000	-9.987000	25.824142	1.149874E-5	20.780402
2016.552571	-3.005400	3.336500	-10.027000	25.830180	1.060787E-5	20.769871
2017.556881	-3.012800	3.335800	-10.050000	25.823100	1.196066E-5	20.785045
2018.552801	-3.001900	3.335600	-10.012000	25.818758	1.196066E-5	20.788270
2019.556288	-2.997900	3.335200	-9.997600	25.839778	1.027792E-5	20.769081
2020.556881	-3.021000	3.334300	-10.071000	25.824855	1.027792E-5	20.788704
2021.556838	-3.004800	3.334500	-10.019000	25.830047	7.473353E-6	20.791075
2022.571481	-3.026800	3.333500	-10.089000	25.857030	1.001396E-5	20.782619
2023.558234	-2.999300	3.333500	-9.997000	25.845781	9.585029E-6	20.787439
2024.554790	-3.002700	3.333100	-10.008000	25.869164	7.110409E-6	20.772523
2025.554904	-2.998400	3.333200	-9.993200	25.844472	6.879445E-6	20.748192
2026.554767	-3.015000	3.332500	-10.046000	25.848302	7.737313E-6	20.778593
2027.552047	-2.991300	3.332800	-9.969100	25.848583	6.615485E-6	20.758011
2028.554097	-3.013300	3.330800	-10.035000	25.839664	6.582490E-6	20.751896
2029.553874	-2.990600	3.331900	-9.962900	25.875565	4.239850E-6	20.773263
2030.593630	-2.997900	3.330400	-9.982800	25.840145	5.559647E-6	20.756648
2031.569087	-2.997900	3.329900	-9.981300	25.872940	6.153556E-6	20.757349
2032.574409	-3.016200	3.330700	-10.045000	25.856125	4.833758E-6	20.755630
2033.583543	-3.002700	3.330000	-9.997900	25.853170	3.513961E-6	20.761671
2034.574535	-3.021500	3.329200	-10.058000	25.883358	3.381981E-6	20.749323
2035.554730	-2.988200	3.329900	-9.948600	25.868829	2.623098E-6	20.755590
2036.563378	-3.005300	3.328400	-10.002000	25.863072	4.107870E-6	20.761661
2037.578274	-2.988600	3.328700	-9.947000	25.865835	3.019037E-6	20.764911
2038.579202	-2.995800	3.329100	-9.971700	25.864296	3.711931E-6	20.770951
2039.583346	-2.989600	3.328800	-9.949900	25.869689	1.534265E-6	20.763093
2040.570766	-3.013900	3.328100	-10.029000	25.872949	9.733507E-7	20.754513
2041.560570	-2.988900	3.328800	-9.948600	25.878618	1.567260E-6	20.758786
2042.560603	-3.012300	3.327500	-10.022000	25.896381	1.006346E-6	20.749604
2043.563420	-2.994000	3.327200	-9.960900	25.866203	1.484772E-7	20.763384
2044.561518	-2.984400	3.327800	-9.930900	25.885009	-1.633249E-6	20.758094
2045.563965	-2.991600	3.326500	-9.950900	25.865982	-1.649747E-8	20.745618
2046.563715	-3.015800	3.326300	-10.030000	25.866513	-1.171320E-6	20.759428
2047.563835	-3.016700	3.325000	-10.029000	25.874635	-4.949241E-8	20.742930
2048.580056	-3.004600	3.325500	-9.990400	25.884424	-5.444165E-7	20.742807
2049.580211	-3.001500	3.325500	-9.980800	25.879960	-1.963199E-6	20.738322
2050.591883	-3.005600	3.324800	-9.991600	25.869527	-8.743659E-7	20.730212
2051.585017	-2.981000	3.325300	-9.910800	25.890997	-3.282996E-6	20.757472
2052.562894	-2.994700	3.324900	-9.955700	25.897207	-3.085027E-6	20.727673
2053.568932	-3.001900	3.324700	-9.979400	25.886130	-4.041880E-6	20.750685
2054.564965	-2.978700	3.323700	-9.897600	25.904611	-6.120561E-6	20.763088
2055.567173	-2.984400	3.324600	-9.921000	25.915718	-5.328683E-6	20.746269
2056.564623	-2.994000	3.323500	-9.950100	25.926652	-3.546956E-6	20.748719
2057.566675	-2.982500	3.324200	-9.912500	25.908068	-4.536804E-6	20.732419
2058.579731	-2.995300	3.322300	-9.949800	25.927419	-3.546956E-6	20.738584
2059.591755	-3.006100	3.322700	-9.987900	25.954645	-6.681475E-6	20.772102
2060.567352	-3.014700	3.320900	-10.010000	25.930575	-5.625637E-6	20.729426
2061.565553	-3.008400	3.322500	-9.994700	25.928638	-8.991121E-6	20.753560
2062.565173	-2.995100	3.321600	-9.946400	25.925187	-7.506349E-6	20.760998
2063.565034	-2.991000	3.320300	-9.930100	25.939670	-8.826146E-6	20.752315
2064.568886	-3.003800	3.320800	-9.974300	25.932124	-1.116879E-5	20.749949
2065.564145	-2.990000	3.320500	-9.927300	25.923254	-1.067386E-5	20.748151
2066.565413	-2.996300	3.319900	-9.945700	25.930899	-1.024493E-5	20.732597
2067.566455	-2.990700	3.320200	-9.927800	25.931947	-9.914979E-6	20.745504
2068.565802	-2.984400	3.320100	-9.907800	25.966798	-9.750005E-6	20.757758
2069.566095	-3.009200	3.317800	-9.982700	25.936145	-1.182869E-5	20.743558
2070.568226	-2.997400	3.318200	-9.944900	25.938431	-1.176270E-5	20.754864
2071.566942	-2.996800	3.317900	-9.941300	25.925216	-1.186168E-5	20.738268
2072.568736	-2.987500	3.318400	-9.912400	25.949213	-1.172970E-5	20.731555
2073.569335	-2.987100	3.317400	-9.909300	25.952865	-1.271955E-5	20.724793
2074.567932	-3.019700	3.316700	-10.014000	25.947925	-1.314848E-5	20.732632
2075.590242	-2.986200	3.318100	-9.907500	25.945393	-1.347843E-5	20.739097
2076.567356	-2.976900	3.317100	-9.874000	25.962206	-1.506219E-5	20.757886
2077.570306	-3.008400	3.316800	-9.977800	25.932600	-1.400635E-5	20.747583
2078.575613	-2.991700	3.316600	-9.921800	25.945068	-1.780077E-5	20.742091
2079.570103	-3.005300	3.315700	-9.964300	25.966759	-1.638199E-5	20.716465
2080.572806	-2.992400	3.316100	-9.921600	25.960348	-1.674493E-5	20.743691
2081.573486	-3.011100	3.314900	-9.980800	25.971729	-1.836168E-5	20.739004
2082.571063	-3.011200	3.314300	-9.978900	25.948328	-1.651397E-5	20.721182
2083.569756	-3.006800	3.314500	-9.965400	25.953446	-1.720686E-5	20.718737
2084.569417	-2.961800	3.314500	-9.816100	25.988567	-1.809772E-5	20.742644
2085.570418	-2.967200	3.314800	-9.835000	25.966346	-1.852666E-5	20.729327
2086.573158	-3.006600	3.313500	-9.959800	25.998905	-2.172717E-5	20.740228
2087.569306	-3.005800	3.312200	-9.953400	26.014877	-2.011042E-5	20.744896
2088.569752	-3.008600	3.312000	-9.963500	25.999131	-2.070433E-5	20.726704
2089.574189	-2.988300	3.312400	-9.897200	25.993198	-2.222209E-5	20.752513
2090.579031	-2.989200	3.311900	-9.898700	25.993222	-2.321194E-5	20.742580
2091.574887	-3.003800	3.311900	-9.947800	25.998861	-2.251905E-5	20.725484
2092.591313	-3.012200	3.310700	-9.971300	26.002096	-2.397082E-5	20.738692
2093.597243	-3.021000	3.309900	-9.998000	26.002194	-2.215610E-5	20.724092
2094.590007	-2.999100	3.310400	-9.927000	25.973961	-2.298098E-5	20.746936
2095.592155	-3.006900	3.309300	-9.949800	25.990818	-2.575255E-5	20.734000
2096.590927	-2.997100	3.310700	-9.921800	26.002052	-2.568656E-5	20.726793
2097.573642	-3.022100	3.310100	-10.003000	26.000665	-2.634646E-5	20.714494
2098.572655	-2.978800	3.309500	-9.857500	26.016932	-2.529062E-5	20.712820
2099.576257	-3.006000	3.309200	-9.946300	26.020560	-2.674240E-5	20.710301
2100.595706	-3.025200	3.308800	-10.009000	26.034571	-2.588453E-5	20.729120
2101.573794	-2.991000	3.308500	-9.895100	26.030874	-2.700636E-5	20.711654
2102.576073	-2.988400	3.308100	-9.884500	26.014701	-2.756727E-5	20.727648
2103.573422	-2.993800	3.307600	-9.901300	26.040141	-2.875509E-5	20.718120
2104.574808	-2.994000	3.308000	-9.902500	26.012252	-2.657743E-5	20.728507
2105.604374	-3.019000	3.305200	-9.977900	26.011161	-2.816118E-5	20.721247
2106.575351	-2.999400	3.306300	-9.914500	26.044968	-2.720433E-5	20.729135
2107.578962	-2.985000	3.306800	-9.869300	26.036773	-3.103174E-5	20.731807
2108.574446	-2.993600	3.307300	-9.900000	26.041266	-2.961296E-5	20.720674
2109.593546	-3.017400	3.305800	-9.974300	26.042387	-2.964596E-5	20.712790
2110.599032	-3.008400	3.305000	-9.941700	26.032973	-3.221956E-5	20.726566
2111.602854	-3.018600	3.303500	-9.971200	26.032206	-3.106474E-5	20.719631
2112.576240	-3.006300	3.304200	-9.932000	26.029793	-3.027286E-5	20.712464
2113.580685	-3.006000	3.304300	-9.931100	26.034866	-3.393530E-5	20.736529
2114.578556	-2.973200	3.304200	-9.823200	26.033524	-3.000890E-5	20.709101
2115.575346	-2.997300	3.303400	-9.899900	26.046639	-3.192261E-5	20.706631
2116.577610	-2.999500	3.303300	-9.906600	26.039261	-3.456220E-5	20.720555
2117.595248	-2.988000	3.302900	-9.867800	26.057720	-3.476017E-5	20.708281
2118.581709	-3.031200	3.301500	-10.006000	26.056623	-3.561804E-5	20.714292
2119.581292	-3.032500	3.301100	-10.010000	26.045002	-3.568403E-5	20.729169
2120.580267	-2.967800	3.303500	-9.803700	26.057862	-3.568403E-5	20.725494
2121.577117	-3.021600	3.300400	-9.971500	26.075397	-3.542007E-5	20.692850
2122.578522	-2.996100	3.300400	-9.887700	26.073135	-3.426525E-5	20.702432
2123.583970	-2.983200	3.300500	-9.845400	26.075465	-3.650890E-5	20.698609
2124.597650	-3.021900	3.300200	-9.971800	26.053713	-3.687185E-5	20.698565
2125.600069	-2.992500	3.301100	-9.877800	26.089800	-3.598098E-5	20.722022
2126.581552	-2.984600	3.299300	-9.846200	26.100250	-3.703682E-5	20.719246
2127.582767	-2.970300	3.301500	-9.804100	26.100304	-3.660789E-5	20.710291
2128.581573	-2.990200	3.299600	-9.864600	26.092479	-3.947845E-5	20.711911
2129.605744	-3.001700	3.299300	-9.903000	26.102610	-3.687185E-5	20.708814
2130.600255	-2.992100	3.298500	-9.868800	26.098191	-4.056728E-5	20.716228
2131.603268	-3.021000	3.298200	-9.962700	26.086486	-3.997337E-5	20.725806
2132.584372	-2.993200	3.297200	-9.868000	26.097045	-4.093023E-5	20.733096
2133.582228	-2.987600	3.297200	-9.850300	26.112888	-4.271195E-5	20.706813
2134.581105	-2.973300	3.299200	-9.808400	26.130766	-4.168911E-5	20.711501
2135.597992	-2.984900	3.297400	-9.840900	26.103003	-4.145815E-5	20.721538
2136.582259	-2.971600	3.297400	-9.798500	26.121554	-4.112820E-5	20.716470
2137.608828	-3.005400	3.296200	-9.905000	26.122449	-4.182109E-5	20.726379
2138.597685	-2.999200	3.296000	-9.883700	26.145748	-4.142515E-5	20.716124
2139.604887	-2.989800	3.295000	-9.850600	26.127959	-4.568150E-5	20.716742
2140.585111	-3.008100	3.296300	-9.914600	26.137274	-4.320688E-5	20.699547
2141.605890	-2.989800	3.294500	-9.848800	26.153273	-4.290992E-5	20.716574
2142.585064	-3.020900	3.293600	-9.948600	26.150039	-4.267896E-5	20.707159
2143.589033	-3.015700	3.293300	-9.930600	26.162878	-4.663835E-5	20.699197
2144.609128	-2.983200	3.294900	-9.828400	26.156694	-4.911297E-5	20.706734
2145.604458	-3.017000	3.293200	-9.935400	26.142243	-4.739724E-5	20.700274
2146.582464	-3.012900	3.293300	-9.920500	26.156945	-4.947592E-5	20.713625
2147.586510	-3.019200	3.292900	-9.940200	26.141127	-4.825511E-5	20.704368
2148.583509	-2.992600	3.292100	-9.850900	26.126470	-4.947592E-5	20.699597
2149.590245	-3.000700	3.292700	-9.879400	26.151479	-4.950891E-5	20.703865
2150.585537	-3.005900	3.291100	-9.892300	26.152477	-5.013582E-5	20.729051
2151.586168	-2.999300	3.291000	-9.870400	26.168491	-5.102668E-5	20.716218
2152.621281	-2.992000	3.290900	-9.846100	26.173962	-5.290739E-5	20.703222
2153.603294	-3.002800	3.290200	-9.879000	26.188339	-5.059775E-5	20.710558
2154.619584	-2.999300	3.290800	-9.869100	26.170536	-5.138963E-5	20.698831
2155.585230	-3.006000	3.289300	-9.886000	26.180416	-5.280841E-5	20.730098
2156.587631	-2.991700	3.289900	-9.842000	26.162932	-5.218150E-5	20.708261
2157.587978	-3.017400	3.289000	-9.923500	26.190723	-5.386425E-5	20.711531
2158.607315	-2.988100	3.289300	-9.828400	26.181782	-5.584394E-5	20.709184
2159.600656	-3.018400	3.287600	-9.922800	26.198720	-5.567897E-5	20.721464
2160.620822	-2.994400	3.288700	-9.847000	26.188467	-5.630587E-5	20.707367
2161.586260	-2.987600	3.288000	-9.822500	26.182976	-5.508506E-5	20.717498
2162.585775	-2.997400	3.286900	-9.851400	26.195146	-5.689978E-5	20.718347
2163.585288	-2.992000	3.287700	-9.835800	26.210491	-5.673481E-5	20.723810
2164.587019	-3.017700	3.285800	-9.914700	26.195068	-5.765867E-5	20.723484
2165.591899	-3.013900	3.285500	-9.900900	26.189160	-5.990232E-5	20.724185
2166.587410	-2.988000	3.285600	-9.816500	26.175574	-6.029826E-5	20.747045
2167.621778	-3.019600	3.284900	-9.918800	26.197353	-6.049623E-5	20.699226
2168.614442	-2.992300	3.284900	-9.828700	26.207365	-5.993532E-5	20.731575
2169.588927	-2.988200	3.284600	-9.814000	26.222189	-5.887948E-5	20.733669
2170.592336	-2.993300	3.284700	-9.831000	26.220051	-6.072720E-5	20.722511
2171.594770	-2.980200	3.284300	-9.787100	26.214812	-6.306984E-5	20.735739
2172.591773	-3.043800	3.283200	-9.992200	26.220651	-6.250892E-5	20.711259
2173.613910	-3.016300	3.283200	-9.902700	26.235701	-6.013329E-5	20.733022
2174.592491	-2.989500	3.283800	-9.816000	26.226185	-6.452162E-5	20.725830
2175.591895	-2.982300	3.282600	-9.788800	26.236045	-6.386172E-5	20.739532
2176.593812	-3.024600	3.281700	-9.923700	26.250873	-6.310283E-5	20.729303
2177.590066	-2.997600	3.282500	-9.839000	26.231523	-6.452162E-5	20.719814
2178.591761	-2.990100	3.281100	-9.810500	26.246106	-6.481857E-5	20.707915
2179.590508	-2.985400	3.281800	-9.797100	26.230211	-6.557745E-5	20.727505
2180.590658	-2.994800	3.280100	-9.822400	26.249482	-6.594040E-5	20.726008
2181.598975	-3.018600	3.279200	-9.898000	26.243520	-6.551146E-5	20.710533
2182.617337	-3.011300	3.279600	-9.874900	26.251001	-6.587441E-5	20.730379
2183.593631	-2.988100	3.280300	-9.801000	26.246351	-6.570943E-5	20.735190
2184.594055	-2.988500	3.280400	-9.802700	26.244838	-6.643532E-5	20.723711
2185.593647	-2.985600	3.280100	-9.792200	26.248784	-6.828304E-5	20.711555
2186.593231	-3.008300	3.277600	-9.857900	26.270739	-6.930588E-5	20.723188
2187.598412	-2.999500	3.277100	-9.827900	26.269746	-6.825005E-5	20.728354
2188.593276	-2.991400	3.278400	-9.805300	26.272651	-7.135157E-5	20.735067
2189.598362	-3.000700	3.277200	-9.832000	26.288496	-7.082365E-5	20.738189
2190.613283	-2.987300	3.277500	-9.790500	26.265333	-7.095563E-5	20.739093
2191.597423	-2.971500	3.277800	-9.739700	26.266448	-7.121959E-5	20.739740
2192.614818	-2.985400	3.277000	-9.781800	26.252367	-7.164853E-5	20.744081
2193.611204	-3.012300	3.274800	-9.862800	26.281448	-7.240741E-5	20.715458
2194.612301	-2.999000	3.275000	-9.820800	26.287508	-7.313330E-5	20.748576
2195.611970	-2.988300	3.275000	-9.784900	26.297171	-7.319929E-5	20.704230
2196.608885	-2.999100	3.273800	-9.816300	26.298709	-7.303431E-5	20.725218
2197.609441	-3.017900	3.274300	-9.880700	26.273413	-7.379320E-5	20.716865
2198.595488	-3.008100	3.274000	-9.847400	26.309221	-7.432112E-5	20.735309
2199.611959	-2.992100	3.273400	-9.794100	26.296311	-7.448609E-5	20.742723
2200.616812	-3.017900	3.272400	-9.874300	26.325961	-7.626782E-5	20.733165
2201.599338	-3.023100	3.271200	-9.887800	26.313074	-7.692772E-5	20.747717
2202.600843	-3.021900	3.271900	-9.885900	26.307241	-7.692772E-5	20.734741
2203.598811	-3.000600	3.273200	-9.820600	26.326934	-7.626782E-5	20.747420
2204.598340	-3.017000	3.270900	-9.867500	26.322889	-7.732366E-5	20.740036
2205.603500	-3.005300	3.270100	-9.826900	26.349334	-7.861046E-5	20.723939
2206.614405	-3.020200	3.270400	-9.876200	26.332006	-7.785158E-5	20.748250
2207.614697	-3.025100	3.269400	-9.889200	26.340021	-8.151402E-5	20.734968
2208.600532	-2.998200	3.270200	-9.803600	26.318849	-8.101909E-5	20.727441
2209.606492	-2.994900	3.268600	-9.788400	26.335637	-8.055716E-5	20.754746
2210.599476	-3.005900	3.269200	-9.826300	26.358632	-7.887442E-5	20.740871
2211.599774	-3.025000	3.268600	-9.885200	26.338547	-8.273483E-5	20.742022
2212.601009	-2.998600	3.268100	-9.798900	26.355330	-8.240488E-5	20.753200
2213.602348	-3.005200	3.267600	-9.819000	26.371921	-8.230590E-5	20.749011
2214.600435	-2.995800	3.268200	-9.789400	26.366731	-8.372468E-5	20.745692
2215.604162	-2.986100	3.267400	-9.755800	26.370137	-8.336173E-5	20.753382
2216.618716	-2.984400	3.266900	-9.749100	26.397652	-8.369168E-5	20.747371
2217.629878	-2.999500	3.266800	-9.797200	26.377096	-8.728813E-5	20.731926
2218.621181	-3.011100	3.266400	-9.834200	26.369724	-8.478052E-5	20.749174
2219.627308	-2.984500	3.267100	-9.749600	26.401534	-8.534143E-5	20.740368
2220.605994	-2.994900	3.265300	-9.778800	26.405835	-8.382366E-5	20.740422
2221.603786	-3.008100	3.263800	-9.816900	26.408046	-8.527544E-5	20.735532
2222.605958	-3.016400	3.265600	-9.849800	26.398763	-8.692519E-5	20.730469
2223.609023	-3.005100	3.264100	-9.808100	26.399112	-8.682621E-5	20.742200
2224.607536	-3.006500	3.263300	-9.810200	26.394198	-8.890489E-5	20.728252
2225.609075	-3.025400	3.262900	-9.869500	26.401181	-8.923484E-5	20.735745
2226.625223	-2.989200	3.263100	-9.753000	26.412331	-8.831098E-5	20.746952
2227.625479	-3.008200	3.262500	-9.813600	26.436371	-8.939981E-5	20.735552
2228.631014	-3.011000	3.260200	-9.816200	26.423781	-8.890489E-5	20.737123
2229.632867	-2.996000	3.262200	-9.772400	26.434804	-8.992773E-5	20.754366
2230.626038	-3.003200	3.261200	-9.793100	26.422096	-9.081860E-5	20.749180
2231.625859	-2.968600	3.260800	-9.679100	26.431389	-9.091758E-5	20.750459
2232.605744	-2.976000	3.261100	-9.704000	26.447133	-9.154448E-5	20.743999
2233.607723	-2.990800	3.260600	-9.751500	26.418204	-8.722214E-5	20.764235
2234.608597	-2.979000	3.260100	-9.711500	26.441197	-9.111555E-5	20.767905
2235.605627	-2.982800	3.259300	-9.720900	26.434150	-8.986174E-5	20.761296
2236.605504	-2.984600	3.259200	-9.725400	26.429585	-9.302926E-5	20.763820
2237.621741	-3.003100	3.259100	-9.786600	26.415801	-9.273230E-5	20.757078
2238.624951	-2.986800	3.257600	-9.728800	26.454888	-9.345819E-5	20.743732
2239.607979	-2.973800	3.259500	-9.690500	26.463453	-9.260032E-5	20.741910
2240.608722	-3.001000	3.256100	-9.769400	26.446426	-9.593281E-5	20.765100
2241.607293	-2.993000	3.256500	-9.745800	26.463831	-9.375515E-5	20.766473
2242.609470	-3.015100	3.255900	-9.815000	26.459193	-9.342520E-5	20.762284
2243.607868	-3.011500	3.255400	-9.802400	26.468278	-9.372215E-5	20.767624
2244.607247	-3.007000	3.255400	-9.787800	26.453433	-9.484398E-5	20.761711
2245.610746	-3.016700	3.254400	-9.816300	26.458077	-9.606479E-5	20.761637
2246.608787	-2.987000	3.254800	-9.721700	26.468485	-9.438205E-5	20.761193
2247.607833	-2.998800	3.255300	-9.761000	26.474790	-9.735160E-5	20.756150
2248.607781	-3.006700	3.253100	-9.778800	26.481379	-9.682368E-5	20.750920
2249.609855	-3.001500	3.253700	-9.764100	26.491212	-9.560286E-5	20.768864
2250.614031	-3.003600	3.253000	-9.769800	26.514228	-9.741759E-5	20.753592
2251.610462	-3.011500	3.252500	-9.794300	26.500150	-9.715363E-5	20.781167
2252.609540	-3.001500	3.252400	-9.760900	26.507029	-9.817647E-5	20.764848
2253.613294	-2.970800	3.252200	-9.661400	26.495045	-9.824246E-5	20.774613
2254.609895	-2.970500	3.251800	-9.658200	26.511575	-9.629576E-5	20.765150
2255.609266	-3.015100	3.251300	-9.801900	26.497256	-9.695566E-5	20.741273
2256.617292	-2.996400	3.249900	-9.736900	26.496465	-9.867140E-5	20.759445
2257.610698	-2.960600	3.251700	-9.625600	26.501330	-9.936429E-5	20.777612
2258.612847	-2.991900	3.250600	-9.724500	26.504509	-9.959525E-5	20.759944
2259.629098	-2.987500	3.249700	-9.707100	26.501586	-0.000100	20.776920
2260.611163	-2.998300	3.249200	-9.739600	26.515806	-0.000100	20.784576
2261.617753	-2.996600	3.248000	-9.732000	26.532866	-9.910033E-5	20.781336
2262.612813	-3.010000	3.247400	-9.773000	26.524307	-9.989221E-5	20.758033
2263.628726	-2.992900	3.247000	-9.717000	26.531102	-0.000100	20.785253
2264.636456	-2.998000	3.247700	-9.734900	26.542924	-0.000101	20.741659
2265.633211	-3.000900	3.246600	-9.741900	26.549479	-0.000101	20.772431
2266.641688	-2.989200	3.245900	-9.702300	26.531554	-0.000101	20.786181
2267.635087	-3.016400	3.245800	-9.790000	26.557527	-0.000102	20.771512
2268.641828	-2.993600	3.245100	-9.713500	26.556181	-0.000102	20.784383
2269.641726	-3.015800	3.244400	-9.782100	26.548934	-0.000103	20.783262
2270.634299	-2.984000	3.244000	-9.678900	26.560849	-0.000103	20.790498
2271.642346	-2.993400	3.245700	-9.715200	26.562293	-0.000103	20.776777
2272.634912	-2.973700	3.245300	-9.649500	26.558643	-0.000103	20.771211
2273.635847	-3.030000	3.241600	-9.821600	26.600225	-0.000104	20.775078
2274.638939	-3.009500	3.244100	-9.762100	26.569423	-0.000106	20.792953
2275.641931	-3.001000	3.242200	-9.729100	26.573516	-0.000104	20.783791
2276.639791	-2.992500	3.243500	-9.705100	26.581829	-0.000104	20.785510
2277.637475	-2.995700	3.241200	-9.708100	26.594570	-0.000104	20.788360
2278.633931	-2.991100	3.241100	-9.693400	26.588983	-0.000106	20.797443
2279.632511	-2.989500	3.242200	-9.691800	26.582557	-0.000107	20.770120
2280.636784	-3.012200	3.240500	-9.760600	26.603610	-0.000107	20.792706
2281.621985	-2.967400	3.240800	-9.616400	26.591740	-0.000106	20.800214
2282.621805	-3.004400	3.240100	-9.734500	26.606170	-0.000107	20.772046
2283.620156	-3.007800	3.239700	-9.743200	26.601404	-0.000105	20.784325
2284.619714	-3.001600	3.239300	-9.722300	26.598353	-0.000108	20.788844
2285.637634	-2.993900	3.239100	-9.696400	26.602427	-0.000107	20.785826
2286.636235	-2.987600	3.238700	-9.675100	26.603920	-0.000107	20.798234
2287.659016	-2.990200	3.237000	-9.678200	26.624777	-0.000110	20.788854
2288.640719	-3.035600	3.235600	-9.820100	26.615344	-0.000107	20.777000
2289.621275	-2.995100	3.236800	-9.693100	26.640465	-0.000109	20.811263
2290.619435	-3.015700	3.235900	-9.757500	26.622051	-0.000110	20.809821
2291.639747	-2.993000	3.235700	-9.683700	26.640175	-0.000109	20.783471
2292.645898	-3.008300	3.235700	-9.732800	26.616695	-0.000111	20.815343
2293.637567	-2.991500	3.235600	-9.678600	26.625627	-0.000110	20.798244
2294.622850	-2.969900	3.235100	-9.607000	26.625583	-0.000112	20.799148
2295.624370	-2.992300	3.233900	-9.676000	26.642018	-0.000111	20.808083
2296.621443	-2.988500	3.233200	-9.661700	26.625638	-0.000113	20.793987
2297.621614	-2.974100	3.234100	-9.618100	26.646641	-0.000112	20.807989
2298.623906	-2.989200	3.232800	-9.663200	26.634845	-0.000109	20.833588
2299.622900	-3.026500	3.231000	-9.778000	26.640142	-0.000114	20.792446
2300.624816	-2.988700	3.231400	-9.657200	26.642195	-0.000114	20.816795
2301.625811	-3.011100	3.230600	-9.726700	26.641955	-0.000112	20.803752
2302.628170	-3.002700	3.230100	-9.698100	26.662879	-0.000111	20.797286
2303.630838	-3.009500	3.229300	-9.717800	26.662059	-0.000109	20.795039
2304.645866	-3.000100	3.228600	-9.685400	26.664329	-0.000112	20.806804
2305.649077	-3.027200	3.229000	-9.773700	26.667734	-0.000113	20.800270
2306.641143	-3.014500	3.228800	-9.731800	26.680940	-0.000113	20.812124
2307.644115	-2.997600	3.227900	-9.674300	26.684296	-0.000114	20.786574
2308.647311	-3.009900	3.228900	-9.717700	26.682733	-0.000113	20.805392
2309.627675	-3.011000	3.227100	-9.715200	26.698248	-0.000113	20.808188
2310.628922	-2.997400	3.227800	-9.673000	26.705156	-0.000114	20.792847
2311.628266	-3.003300	3.227500	-9.691900	26.695061	-0.000113	20.814940
2312.641138	-3.004900	3.226800	-9.695600	26.693921	-0.000114	20.823751
2313.642814	-3.012600	3.225500	-9.716200	26.698387	-0.000114	20.814965
2314.645571	-3.012500	3.225400	-9.716100	26.718549	-0.000115	20.812002
2315.647462	-2.992500	3.224900	-9.649800	26.707652	-0.000115	20.810056
2316.650620	-3.007800	3.223000	-9.693100	26.707009	-0.000117	20.816521
2317.651824	-2.994700	3.223400	-9.652900	26.708110	-0.000114	20.808145
2318.652167	-2.978600	3.222300	-9.596900	26.710149	-0.000116	20.813514
2319.649734	-2.998300	3.222000	-9.658800	26.707191	-0.000114	20.790626
2320.628495	-3.005600	3.222000	-9.683400	26.731647	-0.000116	20.827067
2321.643906	-2.976700	3.222500	-9.590300	26.710626	-0.000115	20.822528
2322.634299	-2.978500	3.221500	-9.594000	26.709412	-0.000116	20.825101
2323.631109	-3.008900	3.220800	-9.689400	26.728852	-0.000116	20.830895
2324.632550	-3.001700	3.220600	-9.666600	26.709982	-0.000118	20.817614
2325.636055	-2.992600	3.219600	-9.634000	26.739346	-0.000117	20.832910
2326.631991	-3.003400	3.218200	-9.664800	26.739542	-0.000115	20.814615
2327.654587	-3.024600	3.218000	-9.731900	26.743944	-0.000117	20.817619
2328.668533	-2.988600	3.219100	-9.619200	26.737764	-0.000117	20.855026
2329.647237	-3.009900	3.217800	-9.684700	26.754314	-0.000116	20.820458
2330.652290	-2.994500	3.217200	-9.632800	26.750149	-0.000117	20.845667
2331.653154	-2.997700	3.215900	-9.639100	26.760298	-0.000117	20.828845
2332.651859	-2.974400	3.217000	-9.567800	26.771371	-0.000120	20.814848
2333.655097	-2.980500	3.216700	-9.585700	26.788973	-0.000117	20.814053
2334.657060	-3.005800	3.215400	-9.662800	26.783363	-0.000117	20.834491
2335.654049	-2.998700	3.214300	-9.637600	26.764223	-0.000117	20.797230
2336.650877	-2.997600	3.214200	-9.634200	26.790805	-0.000114	20.822533
2337.663342	-2.997600	3.214900	-9.635200	26.784876	-0.000118	20.822736
2338.659169	-3.002100	3.213700	-9.646400	26.798522	-0.000118	20.819387
2339.650275	-3.027400	3.213900	-9.728800	26.813013	-0.000118	20.826370
2340.633883	-3.009000	3.212800	-9.665800	26.783750	-0.000118	20.838673
2341.636901	-3.004100	3.212300	-9.649000	26.795437	-0.000118	20.843311
2342.654554	-2.998400	3.211300	-9.627900	26.802638	-0.000118	20.836327
2343.635339	-2.983800	3.210300	-9.578000	26.811648	-0.000118	20.849178
2344.655612	-3.002100	3.209800	-9.635100	26.806111	-0.000118	20.838397
2345.651898	-2.978500	3.210700	-9.561100	26.804299	-0.000120	20.850798
2346.653076	-2.999000	3.210100	-9.626000	26.809491	-0.000119	20.838950
2347.653961	-2.990500	3.209500	-9.596700	26.805021	-0.000118	20.850102
2348.637120	-2.991300	3.208500	-9.596400	26.813283	-0.000120	20.822375
2349.643023	-3.013400	3.208000	-9.666100	26.813485	-0.000121	20.836327
2350.638278	-2.983300	3.208400	-9.570700	26.820657	-0.000122	20.855391
2351.638314	-2.970000	3.208000	-9.527500	26.836096	-0.000120	20.843415
2352.642337	-2.989800	3.207900	-9.589800	26.829739	-0.000121	20.852196
2353.638562	-2.997000	3.206200	-9.608200	26.852001	-0.000120	20.872682
2354.638291	-3.005900	3.205600	-9.635100	26.851058	-0.000121	20.883587
2355.638456	-3.008000	3.206200	-9.643100	26.856246	-0.000121	20.834752
2356.637690	-3.007400	3.205700	-9.639800	26.856191	-0.000122	20.853662
2357.642150	-2.993500	3.204400	-9.590900	26.849074	-0.000121	20.872583
2358.638238	-2.999600	3.202400	-9.604900	26.882309	-0.000121	20.869492
2359.657198	-2.991800	3.202700	-9.580600	26.867460	-0.000121	20.852665
2360.655363	-2.984600	3.203700	-9.560300	26.859615	-0.000121	20.857105
2361.656111	-3.006100	3.201700	-9.623600	26.894957	-0.000122	20.835270
2362.669708	-3.011500	3.200700	-9.637200	26.893837	-0.000120	20.858799
2363.642143	-3.010900	3.200400	-9.635400	26.894927	-0.000124	20.834766
2364.640996	-2.994600	3.201000	-9.585200	26.871742	-0.000124	20.873091
2365.647567	-2.987700	3.199900	-9.558600	26.892117	-0.000122	20.861337
2366.641317	-2.998900	3.199500	-9.593700	26.898817	-0.000122	20.856694
2367.658348	-2.978100	3.199200	-9.527200	26.899019	-0.000123	20.866853
2368.643842	-2.994100	3.197800	-9.573700	26.900178	-0.000123	20.865648
2369.659259	-3.002900	3.197000	-9.599200	26.882834	-0.000122	20.873812
2370.663982	-2.992800	3.197000	-9.567000	26.901464	-0.000122	20.859830
2371.644068	-3.013800	3.197000	-9.634100	26.897294	-0.000121	20.862749
2372.641674	-2.979000	3.196300	-9.521000	26.902732	-0.000123	20.870113
2373.645778	-3.008600	3.197000	-9.617100	26.896474	-0.000124	20.869510
2374.642066	-2.986000	3.195100	-9.539900	26.904785	-0.000122	20.882607
2375.642371	-3.003200	3.194300	-9.591900	26.908532	-0.000120	20.864566
2376.645588	-3.008900	3.193300	-9.607100	26.918258	-0.000122	20.861069
2377.663353	-2.994700	3.193300	-9.561600	26.919997	-0.000122	20.866136
2378.665198	-3.009500	3.193200	-9.609000	26.926819	-0.000123	20.856402
2379.669602	-3.013900	3.191900	-9.618400	26.921504	-0.000124	20.842049
2380.661357	-2.993300	3.192500	-9.555200	26.937040	-0.000122	20.871421
2381.679871	-2.985700	3.191600	-9.527900	26.934186	-0.000123	20.861439
2382.657684	-3.008900	3.191900	-9.604000	26.961824	-0.000125	20.843239
2383.668430	-2.990300	3.190300	-9.539500	26.957502	-0.000125	20.875401
2384.669903	-3.005300	3.189000	-9.583100	26.929981	-0.000125	20.841565
2385.666568	-3.000400	3.189100	-9.567100	26.932182	-0.000122	20.840458
2386.670129	-3.005200	3.188700	-9.581200	26.962261	-0.000124	20.860273
2387.649498	-2.994800	3.189000	-9.549000	26.957113	-0.000121	20.825226
2388.649050	-2.996600	3.187200	-9.549600	26.965841	-0.000122	20.833054
2389.659287	-3.001600	3.186400	-9.563700	26.944549	-0.000122	20.857635
2390.650203	-2.991400	3.187300	-9.533000	26.967157	-0.000126	20.840542
2391.645941	-2.985900	3.186900	-9.515000	26.967520	-0.000123	20.845648
2392.655118	-3.000500	3.185800	-9.558200	26.962304	-0.000123	20.849411
2393.649016	-3.001000	3.184900	-9.556400	26.983866	-0.000125	20.863507
2394.649078	-2.998500	3.184600	-9.548000	26.959366	-0.000125	20.832708
2395.651190	-3.028700	3.183000	-9.639600	26.991223	-0.000125	20.850991
2396.663770	-3.004400	3.183200	-9.562800	26.978443	-0.000125	20.834347
2397.648829	-3.000900	3.182800	-9.550600	26.982131	-0.000125	20.835685
2398.649026	-3.008000	3.182400	-9.572000	26.976620	-0.000124	20.838204
2399.652564	-2.994700	3.181400	-9.527000	26.983761	-0.000125	20.837799
2400.656406	-3.008100	3.181200	-9.567700	26.973383	-0.000124	20.830682
2401.697464	-3.003900	3.180800	-9.553700	26.999512	-0.000125	20.842258
2402.692765	-3.023300	3.179700	-9.612500	27.003235	-0.000125	20.828459
2403.689623	-2.983500	3.181800	-9.492500	27.010799	-0.000124	20.831323
2404.697690	-3.005100	3.179000	-9.551900	27.021840	-0.000123	20.857598
2405.687420	-2.993700	3.178100	-9.513800	27.015135	-0.000126	20.836158
2406.699118	-3.011600	3.176900	-9.567100	27.026593	-0.000126	20.837724
2407.693258	-3.018700	3.176600	-9.588300	27.025351	-0.000127	20.838845
2408.693521	-2.992900	3.176800	-9.507200	27.019889	-0.000126	20.831456
2409.690275	-3.006400	3.176100	-9.547300	27.028597	-0.000126	20.810816
2410.698743	-3.022600	3.175400	-9.596900	27.046906	-0.000126	20.836815
2411.650910	-3.006200	3.174900	-9.543400	27.034397	-0.000125	20.833244
2412.651066	-3.004100	3.175000	-9.536500	27.037417	-0.000124	20.837230
2413.650436	-2.998800	3.174100	-9.517600	27.057441	-0.000125	20.802365
2414.648227	-3.005400	3.173800	-9.537100	27.070023	-0.000127	20.828769
2415.651865	-3.014200	3.172500	-9.562300	27.076938	-0.000124	20.838094
2416.650405	-2.992800	3.171800	-9.491700	27.075749	-0.000125	20.820304
2417.651100	-2.994000	3.172500	-9.497200	27.065195	-0.000126	20.824862
2418.661051	-3.009000	3.170200	-9.537900	27.058614	-0.000127	20.834365
2419.655033	-2.991500	3.170400	-9.483500	27.046955	-0.000128	20.808415
2420.651109	-3.015800	3.168600	-9.553900	27.043595	-0.000125	20.815468
2421.652506	-3.001900	3.169400	-9.513500	27.080247	-0.000127	20.805861
2422.651024	-2.999600	3.168200	-9.502500	27.072851	-0.000127	20.829717
2423.654799	-3.001800	3.167000	-9.505500	27.065971	-0.000128	20.829909
2424.658166	-2.984000	3.167500	-9.451100	27.064826	-0.000129	20.815957
2425.679405	-2.987800	3.168100	-9.465000	27.100137	-0.000126	20.818278
2426.653696	-3.004500	3.165600	-9.510000	27.067179	-0.000129	20.800779
2427.660546	-2.997200	3.165000	-9.485400	27.070675	-0.000126	20.835115
2428.655222	-2.988700	3.166600	-9.463000	27.088439	-0.000126	20.832117
2429.654608	-3.014000	3.163900	-9.535000	27.078233	-0.000127	20.828966
2430.654700	-3.032100	3.162300	-9.587200	27.090369	-0.000126	20.821730
2431.652067	-2.994100	3.164500	-9.473600	27.090590	-0.000126	20.813892
2432.656301	-3.008900	3.162100	-9.513300	27.086415	-0.000128	20.828659
2433.654757	-2.998900	3.161600	-9.479400	27.098595	-0.000128	20.824787
2434.651970	-2.995000	3.162700	-9.471300	27.118224	-0.000127	20.825563
2435.654274	-3.000300	3.161300	-9.483400	27.100677	-0.000127	20.817398
2436.653983	-3.007300	3.160400	-9.503100	27.102857	-0.000130	20.826703
2437.652266	-3.008300	3.159000	-9.502200	27.109625	-0.000127	20.833983
2438.656931	-2.997100	3.160200	-9.470500	27.121111	-0.000129	20.803337
2439.654459	-3.001000	3.158800	-9.479000	27.136742	-0.000128	20.820006
2440.651508	-3.008900	3.157800	-9.499900	27.137037	-0.000128	20.827889
2441.655669	-3.019200	3.157200	-9.531500	27.138893	-0.000129	20.843506
2442.652026	-3.022500	3.155500	-9.536100	27.147006	-0.000129	20.835544
2443.656942	-2.987700	3.156300	-9.429300	27.145223	-0.000130	20.831855
2444.654929	-2.973200	3.155700	-9.381400	27.160574	-0.000128	20.827854
2445.653812	-3.007400	3.153800	-9.483700	27.154495	-0.000128	20.807041
2446.659831	-3.002300	3.153800	-9.467800	27.151612	-0.000130	20.806987
2447.654460	-3.009500	3.153400	-9.489100	27.155978	-0.000129	20.806636
2448.654826	-3.017900	3.152000	-9.511100	27.150969	-0.000131	20.810133
2449.655006	-2.998800	3.153500	-9.455700	27.150168	-0.000129	20.817862
2450.655631	-2.992200	3.150800	-9.426200	27.143446	-0.000129	20.823903
2451.656515	-3.015200	3.149100	-9.493600	27.159671	-0.000127	20.808928
2452.685380	-3.009400	3.149300	-9.476800	27.155644	-0.000128	20.805352
2453.669847	-2.992700	3.148900	-9.423300	27.159789	-0.000128	20.818055
2454.677676	-3.032000	3.147300	-9.540500	27.171874	-0.000127	20.803184
2455.671417	-2.977500	3.148100	-9.372900	27.180826	-0.000128	20.815507
2456.691550	-3.005300	3.149000	-9.463100	27.195680	-0.000127	20.818119
2457.677381	-2.998300	3.146600	-9.434000	27.166673	-0.000127	20.798427
2458.678386	-2.987700	3.145000	-9.395200	27.174309	-0.000127	20.804211
2459.676823	-3.002800	3.145000	-9.442900	27.179741	-0.000126	20.805880
2460.668928	-3.000700	3.145000	-9.436300	27.166880	-0.000125	20.795790
2461.689672	-2.995600	3.143600	-9.416200	27.186179	-0.000128	20.815200
2462.685428	-2.975100	3.144200	-9.353400	27.203719	-0.000124	20.803445
2463.689198	-2.968400	3.142700	-9.328100	27.188005	-0.000127	20.828891
2464.696248	-2.963200	3.142300	-9.310200	27.210997	-0.000126	20.802230
2465.697079	-2.996300	3.141200	-9.410600	27.204289	-0.000125	20.799277
2466.700642	-2.993300	3.140100	-9.397900	27.195180	-0.000127	20.814297
2467.713975	-3.016700	3.139100	-9.468700	27.217901	-0.000126	20.814865
2468.699141	-3.006500	3.139800	-9.438000	27.207795	-0.000128	20.799485
2469.696669	-2.997600	3.138400	-9.406400	27.224982	-0.000126	20.794012
2470.692010	-2.998900	3.137100	-9.407100	27.214704	-0.000125	20.818762
2471.677099	-3.014400	3.136300	-9.453500	27.217553	-0.000126	20.802187
2472.687956	-2.986200	3.137500	-9.368400	27.221216	-0.000128	20.811087
2473.656798	-3.015400	3.135200	-9.453100	27.237062	-0.000127	20.821810
2474.658359	-3.010600	3.134300	-9.435000	27.229760	-0.000129	20.810198
2475.661393	-3.008600	3.134600	-9.429300	27.246549	-0.000128	20.828507
2476.659905	-3.010200	3.133000	-9.430100	27.266342	-0.000127	20.803373
2477.660935	-3.009900	3.133300	-9.429900	27.241477	-0.000128	20.815345
2478.659737	-3.001400	3.131500	-9.398100	27.249014	-0.000128	20.809176
2479.662665	-2.990400	3.129500	-9.357600	27.238855	-0.000125	20.789000
2480.660490	-2.993200	3.130900	-9.371000	27.258752	-0.000128	20.792892
2481.660464	-3.007400	3.128600	-9.407900	27.273537	-0.000128	20.820092
2482.660363	-3.016000	3.128400	-9.434500	27.269437	-0.000128	20.809330
2483.662961	-2.974000	3.127100	-9.299200	27.290276	-0.000128	20.809429
2484.659188	-3.012700	3.126700	-9.418600	27.280843	-0.000129	20.816536
2485.659084	-2.974600	3.127800	-9.303200	27.303661	-0.000127	20.806298
2486.669437	-3.015800	3.124400	-9.421400	27.309042	-0.000131	20.818823
2487.663511	-3.008400	3.124300	-9.398000	27.296262	-0.000130	20.819243
2488.662945	-2.999700	3.124100	-9.370700	27.291248	-0.000128	20.813726
2489.664517	-3.020800	3.122200	-9.430100	27.307791	-0.000128	20.817090
2490.663033	-3.002500	3.122100	-9.373300	27.309897	-0.000129	20.821106
2491.662029	-3.005600	3.123300	-9.387000	27.304737	-0.000129	20.809751
2492.692770	-3.000200	3.121000	-9.362800	27.297170	-0.000131	20.790286
2493.675940	-3.014600	3.120900	-9.407800	27.322393	-0.000130	20.818503
2494.678059	-2.962200	3.120300	-9.241900	27.321156	-0.000129	20.793551
2495.676870	-2.990300	3.120700	-9.331300	27.303117	-0.000132	20.793897
2496.680996	-2.997900	3.117700	-9.345100	27.333156	-0.000130	20.813208
2497.664080	-2.984500	3.117500	-9.303000	27.315146	-0.000130	20.795092
2498.660845	-2.962000	3.117000	-9.231300	27.319663	-0.000130	20.799636
2499.661122	-2.995800	3.114800	-9.330800	27.331889	-0.000129	20.803874
2500.669595	-3.011400	3.113100	-9.373900	27.323155	-0.000130	20.791768
2501.664417	-3.014200	3.114400	-9.386700	27.334123	-0.000129	20.800905
2502.683529	-2.999600	3.112300	-9.335100	27.321024	-0.000132	20.811910
2503.691834	-3.002800	3.111500	-9.343100	27.342407	-0.000131	20.793591
2504.680312	-3.005700	3.110400	-9.347400	27.319384	-0.000129	20.793665
2505.699544	-2.989500	3.110500	-9.297600	27.327372	-0.000129	20.790795
2506.713894	-2.994700	3.108700	-9.308200	27.347567	-0.000128	20.794040
2507.695262	-2.994300	3.108100	-9.305400	27.359125	-0.000130	20.797132
2508.702811	-3.012400	3.107100	-9.358300	27.357470	-0.000130	20.804002
2509.715571	-3.018000	3.107000	-9.375700	27.346796	-0.000130	20.796110
2510.700098	-2.998200	3.107300	-9.316400	27.355162	-0.000131	20.803103
2511.714002	-3.006800	3.104600	-9.334400	27.363170	-0.000132	20.786977
2512.702111	-2.995900	3.102300	-9.293600	27.342338	-0.000133	20.807746
2513.707972	-3.013500	3.101800	-9.346800	27.370044	-0.000132	20.800530
2514.704623	-2.990600	3.101400	-9.274400	27.348357	-0.000133	20.774447
2515.706523	-2.990500	3.100700	-9.271700	27.353272	-0.000130	20.798831
2516.702837	-3.009100	3.099200	-9.324500	27.379868	-0.000130	20.782438
2517.710603	-3.013500	3.099400	-9.339300	27.362851	-0.000131	20.786656
2518.711631	-3.012400	3.098400	-9.333300	27.374413	-0.000130	20.792598
2519.720187	-2.996600	3.096700	-9.278000	27.362178	-0.000131	20.784083
2520.723046	-3.028800	3.095500	-9.374800	27.359429	-0.000131	20.794119
2521.718503	-2.985500	3.096000	-9.242200	27.363150	-0.000132	20.790276
2522.711713	-2.983000	3.094500	-9.229800	27.383963	-0.000128	20.792721
2523.708036	-2.995400	3.093900	-9.266100	27.370319	-0.000131	20.805548
2524.710441	-2.994500	3.093000	-9.261000	27.399094	-0.000131	20.781391
2525.687917	-3.008900	3.091400	-9.300900	27.398132	-0.000130	20.789432
2526.666559	-3.004100	3.090800	-9.285000	27.414697	-0.000132	20.786182
2527.712527	-2.984200	3.089300	-9.218300	27.384287	-0.000133	20.805375
2528.714296	-2.983400	3.088200	-9.212200	27.407234	-0.000133	20.793847
2529.719003	-3.001400	3.087200	-9.265000	27.393468	-0.000132	20.776679
2530.717772	-2.990800	3.086700	-9.230600	27.422022	-0.000132	20.779326
2531.711992	-3.002800	3.084700	-9.261200	27.417878	-0.000131	20.791279
2532.714814	-3.030100	3.083800	-9.342300	27.394292	-0.000132	20.768025
2533.718570	-3.006500	3.083600	-9.270000	27.406871	-0.000133	20.767403
2534.715554	-2.998800	3.081900	-9.241400	27.412203	-0.000130	20.788888
2535.710195	-2.976000	3.081700	-9.170200	27.404018	-0.000129	20.773068
2536.707584	-2.996900	3.079800	-9.229400	27.430839	-0.000133	20.778239
2537.713834	-2.982300	3.079800	-9.184200	27.408982	-0.000131	20.782329
2538.701820	-2.999400	3.077900	-9.231400	27.412875	-0.000132	20.788616
2539.699348	-3.006500	3.076300	-9.247200	27.436278	-0.000131	20.760477
2540.720358	-2.994400	3.075600	-9.208900	27.455028	-0.000131	20.756580
2541.717708	-3.003800	3.075000	-9.235500	27.441807	-0.000132	20.769358
2542.715405	-2.993000	3.074300	-9.200000	27.466343	-0.000131	20.764646
2543.720660	-3.007700	3.071900	-9.238300	27.451340	-0.000133	20.752397
2544.724675	-3.008000	3.070000	-9.233800	27.471110	-0.000131	20.754268
2545.720991	-2.980200	3.070700	-9.149600	27.470516	-0.000132	20.762680
2546.723493	-3.006800	3.068600	-9.225000	27.480340	-0.000132	20.755493
2547.717063	-2.968400	3.068300	-9.106100	27.475852	-0.000133	20.759040
2548.742550	-2.987500	3.067100	-9.162000	27.458940	-0.000132	20.769051
2549.720335	-2.998900	3.065400	-9.191300	27.477693	-0.000132	20.770849
2550.728503	-3.003100	3.064000	-9.200000	27.445002	-0.000131	20.763090
2551.729512	-3.001200	3.062600	-9.190000	27.485955	-0.000132	20.769679
2552.717977	-2.970900	3.061800	-9.095600	27.468846	-0.000132	20.781863
2553.715744	-2.986100	3.060700	-9.138900	27.468675	-0.000133	20.757982
2554.715836	-3.008600	3.059400	-9.204000	27.458974	-0.000131	20.757232
2555.723987	-3.001900	3.058400	-9.180200	27.456396	-0.000131	20.774079
2556.722098	-2.967700	3.058100	-9.073800	27.491031	-0.000132	20.770992
2557.712046	-2.984900	3.056800	-9.123200	27.487560	-0.000129	20.779828
2558.698303	-2.998100	3.054800	-9.157500	27.485056	-0.000130	20.737479
2559.705080	-2.989600	3.054300	-9.130400	27.495572	-0.000131	20.755172
2560.686045	-3.011300	3.052400	-9.191100	27.488802	-0.000132	20.728919
2561.709964	-2.993300	3.052200	-9.135400	27.505847	-0.000131	20.742275
2562.699952	-2.997400	3.049800	-9.140700	27.488684	-0.000133	20.753457
2563.709180	-2.979900	3.048700	-9.084200	27.501713	-0.000132	20.755186
2564.721982	-2.996800	3.047800	-9.132800	27.503549	-0.000132	20.763197
2565.725433	-2.962000	3.046700	-9.022400	27.500152	-0.000132	20.750296
2566.720410	-3.003500	3.044500	-9.143800	27.514938	-0.000134	20.764699
2567.723038	-3.000600	3.042300	-9.127600	27.532596	-0.000130	20.761128
2568.722736	-2.990600	3.042100	-9.096700	27.530991	-0.000131	20.745762
2569.730778	-2.987300	3.040800	-9.082700	27.546321	-0.000132	20.757394
2570.737634	-2.995300	3.039100	-9.102400	27.554063	-0.000132	20.765657
2571.729944	-3.021000	3.038100	-9.177100	27.536528	-0.000134	20.732366
2572.743270	-3.011300	3.037100	-9.144900	27.542193	-0.000135	20.764619
2573.734325	-3.022600	3.034700	-9.171900	27.539164	-0.000133	20.737389
2574.735113	-3.016600	3.034600	-9.153300	27.507152	-0.000131	20.747855
2575.735728	-2.985700	3.034000	-9.057800	27.540636	-0.000133	20.734129
2576.738043	-2.994500	3.033000	-9.081500	27.544711	-0.000131	20.744393
2577.732949	-2.989800	3.030100	-9.058100	27.527971	-0.000132	20.740827
2578.731551	-3.010800	3.029000	-9.118600	27.559477	-0.000132	20.744551
2579.756908	-2.997200	3.027600	-9.073600	27.544622	-0.000132	20.753313
2580.742908	-2.969200	3.028000	-8.990100	27.559584	-0.000132	20.734228
2581.727085	-3.046300	3.024600	-9.213100	27.564621	-0.000129	20.739295
2582.736862	-3.023800	3.024400	-9.144100	27.561995	-0.000133	20.736653
2583.753020	-2.996600	3.023100	-9.057800	27.575322	-0.000133	20.742476
2584.738490	-2.986500	3.022100	-9.024700	27.566545	-0.000133	20.748818
2585.741585	-3.006100	3.020500	-9.078700	27.578179	-0.000130	20.746299
2586.742494	-2.979400	3.020100	-8.996900	27.576898	-0.000132	20.752122
2587.730287	-3.009600	3.017800	-9.081300	27.569088	-0.000132	20.722452
2588.747107	-3.005300	3.016100	-9.063800	27.572558	-0.000132	20.734479
2589.743950	-3.015300	3.013600	-9.086500	27.582332	-0.000132	20.722501
2590.739202	-3.005500	3.013600	-9.056200	27.597544	-0.000132	20.751559
2591.736336	-3.010200	3.011900	-9.064500	27.608186	-0.000133	20.739033
2592.741475	-3.001900	3.010500	-9.036400	27.598462	-0.000131	20.726877
2593.729939	-2.987800	3.010200	-8.993300	27.612064	-0.000131	20.753841
2594.740027	-3.027900	3.007600	-9.105800	27.598496	-0.000134	20.732128
2595.740925	-2.996900	3.005800	-9.007400	27.586715	-0.000132	20.721222
2596.729888	-3.004400	3.006200	-9.031100	27.586838	-0.000132	20.756434
2597.727846	-3.016700	3.003400	-9.059400	27.608098	-0.000130	20.724719
2598.741649	-2.998400	3.001900	-8.998900	27.592625	-0.000131	20.756568
2599.741835	-2.999500	3.000600	-8.998500	27.595006	-0.000131	20.750902
2600.738908	-2.992300	2.999100	-8.972700	27.599974	-0.000132	20.749737
2601.738883	-2.994700	2.998200	-8.977700	27.618131	-0.000134	20.740031
2602.744326	-2.977100	2.996700	-8.920100	27.614582	-0.000132	20.732666
2603.732208	-3.003100	2.994800	-8.992500	27.620791	-0.000131	20.737492
2604.733093	-3.007600	2.994100	-9.004100	27.629690	-0.000133	20.729377
2605.745804	-2.979200	2.993000	-8.916000	27.624114	-0.000133	20.752216
2606.741440	-2.974300	2.992600	-8.900100	27.630613	-0.000131	20.748798
2607.746778	-2.990500	2.989500	-8.939000	27.622406	-0.000132	20.730108
2608.743255	-2.997500	2.988800	-8.958100	27.613330	-0.000132	20.748003
2609.737178	-2.999500	2.987300	-8.958500	27.641432	-0.000133	20.729811
2610.743097	-3.027600	2.983400	-9.031300	27.659097	-0.000133	20.757072
2611.736465	-2.989900	2.983900	-8.919900	27.657316	-0.000131	20.734415
2612.747294	-3.011500	2.982300	-8.980200	27.646944	-0.000134	20.747687
2613.740133	-2.996300	2.981400	-8.930900	27.663044	-0.000132	20.741602
2614.735414	-2.970700	2.980700	-8.854300	27.664953	-0.000132	20.743049
2615.732623	-3.047500	2.976900	-9.071000	27.678991	-0.000132	20.742002
2616.738010	-3.026100	2.975300	-9.003100	27.665601	-0.000133	20.748443
2617.740287	-2.986300	2.975200	-8.882600	27.667957	-0.000136	20.746546
2618.731528	-3.010700	2.973100	-8.949700	27.675300	-0.000133	20.764841
2619.734581	-3.019700	2.971500	-8.972400	27.690727	-0.000132	20.742432
2620.732100	-3.001100	2.971100	-8.915400	27.691100	-0.000133	20.757980
2621.744024	-2.985900	2.968700	-8.863300	27.668929	-0.000131	20.756533
2622.750787	-2.993000	2.967800	-8.881900	27.694300	-0.000131	20.759778
2623.740011	-3.042900	2.965300	-9.022100	27.704352	-0.000132	20.762307
2624.738641	-3.031200	2.963300	-8.981600	27.707724	-0.000133	20.746734
2625.748267	-2.980500	2.963900	-8.832800	27.686221	-0.000132	20.754019
2626.741280	-2.994600	2.961000	-8.866400	27.711891	-0.000133	20.748556
2627.744670	-3.033600	2.958700	-8.973700	27.697657	-0.000131	20.743716
2628.745318	-3.022300	2.957100	-8.936200	27.736496	-0.000132	20.761937
2629.755134	-3.015400	2.957200	-8.915900	27.712863	-0.000133	20.774665
2630.762853	-3.024700	2.955300	-8.937500	27.722665	-0.000133	20.743276
2631.743593	-3.009700	2.953100	-8.886700	27.718871	-0.000132	20.738036
2632.738501	-2.994000	2.953300	-8.841500	27.721256	-0.000133	20.739014
2633.747694	-2.979400	2.950400	-8.788800	27.708755	-0.000129	20.740658
2634.742749	-3.018300	2.947700	-8.896500	27.704146	-0.000132	20.752142
2635.741034	-3.017400	2.947500	-8.892100	27.755755	-0.000133	20.748601
2636.754648	-3.023600	2.945400	-8.904400	27.753698	-0.000131	20.750325
2637.741568	-3.005900	2.944700	-8.850100	27.727563	-0.000131	20.769069
2638.755412	-2.991300	2.943900	-8.804900	27.743141	-0.000131	20.741123
2639.739139	-2.992000	2.942300	-8.802700	27.757379	-0.000129	20.748339
2640.752718	-3.004700	2.940100	-8.833400	27.761031	-0.000132	20.726409
2641.747365	-2.995000	2.937800	-8.797300	27.742930	-0.000130	20.749920
2642.748340	-2.989200	2.937100	-8.778600	27.755132	-0.000134	20.744181
2643.757277	-2.976900	2.935200	-8.737000	27.769767	-0.000131	20.758435
2644.751257	-2.992000	2.933900	-8.776700	27.764712	-0.000133	20.760461
2645.746096	-2.999200	2.931600	-8.791500	27.772825	-0.000132	20.747762
2646.752414	-3.011000	2.929500	-8.819700	27.780418	-0.000132	20.753980
2647.739727	-3.003300	2.928100	-8.792900	27.783618	-0.000132	20.759572
2648.745253	-2.993800	2.926500	-8.760800	27.792329	-0.000133	20.758382
2649.756896	-2.994000	2.925000	-8.756800	27.810630	-0.000132	20.759256
2650.741138	-3.039000	2.921800	-8.878300	27.813334	-0.000132	20.772883
2651.753205	-3.003000	2.921100	-8.770600	27.808280	-0.000131	20.762580
2652.758010	-2.989500	2.920500	-8.730500	27.808186	-0.000133	20.766280
2653.750795	-2.970800	2.918300	-8.668400	27.828225	-0.000133	20.761790
2654.747476	-2.996000	2.916600	-8.737200	27.832568	-0.000134	20.755730
2655.749338	-2.976100	2.915600	-8.676600	27.812805	-0.000131	20.735839
2656.756417	-3.005700	2.912900	-8.753900	27.827121	-0.000134	20.785810
2657.743730	-2.987400	2.911900	-8.697600	27.835154	-0.000131	20.762600
2658.758571	-2.996300	2.909400	-8.717400	27.844327	-0.000132	20.781789
2659.749067	-2.988900	2.906600	-8.686800	27.830605	-0.000133	20.763238
2660.742384	-3.023100	2.905500	-8.782500	27.856610	-0.000134	20.759538
2661.749303	-2.962500	2.904400	-8.603200	27.838193	-0.000132	20.787469
2662.763039	-2.940600	2.903700	-8.536900	27.830281	-0.000133	20.773343
2663.743574	-2.997700	2.900200	-8.692500	27.851585	-0.000133	20.762067
2664.746932	-2.972400	2.898800	-8.615500	27.861901	-0.000134	20.783829
2665.748890	-3.004000	2.897000	-8.701400	27.848268	-0.000132	20.773902
2666.751246	-3.009800	2.893700	-8.708600	27.851075	-0.000134	20.757286
2667.752624	-3.004300	2.892200	-8.688100	27.864193	-0.000131	20.780446
2668.749954	-2.986300	2.891500	-8.634300	27.869901	-0.000129	20.770069
2669.747704	-3.002900	2.889200	-8.674800	27.865935	-0.000133	20.766078
2670.755011	-3.007200	2.887100	-8.679100	27.849103	-0.000132	20.769526
2671.751547	-2.979400	2.886500	-8.598700	27.900454	-0.000133	20.772371
2672.747348	-2.998500	2.881900	-8.640200	27.867850	-0.000132	20.792187
2673.756962	-2.962000	2.882300	-8.536100	27.878911	-0.000132	20.768232
2674.758033	-3.012300	2.879500	-8.673000	27.894286	-0.000131	20.771853
2675.748060	-3.013200	2.877000	-8.668200	27.908296	-0.000132	20.798756
2676.764904	-3.016200	2.874500	-8.668700	27.902123	-0.000131	20.773577
2677.756019	-3.017400	2.872600	-8.666600	27.896671	-0.000132	20.761925
2678.747086	-3.023700	2.871300	-8.680800	27.904410	-0.000129	20.777775
2679.751586	-3.020900	2.869200	-8.666500	27.910735	-0.000132	20.765649
2680.750055	-2.976700	2.868900	-8.538600	27.929923	-0.000131	20.777849
2681.755281	-3.015300	2.865800	-8.641000	27.934688	-0.000130	20.763679
2682.763723	-2.999400	2.862500	-8.585400	27.933971	-0.000131	20.763906
2683.749714	-3.016800	2.860400	-8.627200	27.935335	-0.000131	20.769072
2684.754740	-3.066200	2.858600	-8.763700	27.949699	-0.000130	20.780685
2685.765203	-3.002100	2.857100	-8.576000	27.954061	-0.000132	20.774644
2686.753762	-3.025100	2.854000	-8.632500	27.964180	-0.000134	20.779613
2687.773326	-2.993100	2.850800	-8.532100	27.965298	-0.000133	20.793067
2688.757751	-2.994900	2.851100	-8.537900	27.955705	-0.000130	20.790524
2689.753831	-3.010700	2.847600	-8.572700	27.965495	-0.000132	20.783782
2690.764534	-3.016000	2.846000	-8.582400	27.973974	-0.000130	20.783308
2691.759153	-3.017000	2.843400	-8.576900	27.960863	-0.000129	20.794766
2692.760743	-2.990800	2.842000	-8.498800	27.983773	-0.000131	20.772308
2693.769936	-3.002400	2.839600	-8.525100	27.996394	-0.000128	20.768416
2694.760874	-2.990900	2.837200	-8.484500	28.009167	-0.000132	20.783170
2695.758249	-2.967900	2.836300	-8.417300	28.013754	-0.000132	20.779253
2696.767600	-2.996500	2.832300	-8.485600	28.004382	-0.000133	20.791630
2697.763556	-3.027000	2.829800	-8.564800	28.019785	-0.000130	20.787220
2698.773078	-2.986300	2.827300	-8.442500	28.006498	-0.000134	20.789018
2699.763072	-3.021600	2.824700	-8.534300	28.014628	-0.000132	20.806211
2700.754255	-2.992100	2.823400	-8.446600	28.027872	-0.000130	20.793463
2701.764252	-2.976700	2.822000	-8.398800	28.012052	-0.000131	20.784652
2702.769240	-3.024200	2.818100	-8.521400	28.025943	-0.000131	20.785833
2703.776324	-3.001900	2.816100	-8.452700	28.044706	-0.000133	20.790495
2704.764175	-3.040200	2.813000	-8.551200	28.052096	-0.000132	20.805520
2705.770844	-2.989900	2.812300	-8.408000	28.051282	-0.000131	20.778621
2706.765690	-3.006200	2.808600	-8.442300	28.053558	-0.000130	20.784706
2707.769965	-2.986200	2.806900	-8.381300	28.070618	-0.000132	20.807095
2708.763790	-2.993400	2.804200	-8.393500	28.077041	-0.000133	20.786534
2709.780358	-3.040000	2.800700	-8.513100	28.072135	-0.000132	20.807674
2710.755677	-2.992000	2.799400	-8.375200	28.057263	-0.000133	20.767099
2711.755050	-3.009600	2.796400	-8.415500	28.099532	-0.000132	20.792580
2712.759155	-2.978800	2.794000	-8.321600	28.076305	-0.000130	20.805708
2713.761656	-2.994500	2.790800	-8.356400	28.097305	-0.000132	20.810726
2714.753828	-3.011400	2.787200	-8.392800	28.114512	-0.000132	20.810504
2715.766335	-3.004900	2.786300	-8.371500	28.118500	-0.000133	20.793657
2716.768153	-3.003200	2.784200	-8.359900	28.113943	-0.000133	20.807086
2717.754654	-3.008500	2.780200	-8.361900	28.144489	-0.000135	20.798483
2718.769119	-3.002500	2.777000	-8.336800	28.132616	-0.000133	20.813083
2719.775220	-3.008500	2.776200	-8.351600	28.129668	-0.000131	20.805373
2720.764525	-2.981600	2.772900	-8.266700	28.131429	-0.000132	20.800034
2721.759270	-3.019000	2.768700	-8.356900	28.160307	-0.000131	20.801604
2722.772021	-2.986100	2.766800	-8.261100	28.173647	-0.000133	20.815034
2723.761617	-2.978900	2.763800	-8.232000	28.151633	-0.000132	20.805200
2724.762943	-2.993200	2.760400	-8.262000	28.162152	-0.000133	20.807729
2725.764866	-3.021200	2.756800	-8.328000	28.182129	-0.000132	20.794176
2726.773777	-2.988400	2.754900	-8.231600	28.178361	-0.000133	20.807453
2727.772336	-3.001900	2.751700	-8.259500	28.175958	-0.000134	20.814515
2728.767666	-3.027800	2.748600	-8.320800	28.204221	-0.000132	20.815943
2729.764673	-2.998100	2.745700	-8.230800	28.204790	-0.000131	20.816516
2730.771494	-3.018300	2.741100	-8.272500	28.217506	-0.000132	20.828844
2731.769351	-3.005000	2.738900	-8.229900	28.219267	-0.000132	20.810229
2732.763872	-3.008100	2.736300	-8.230900	28.215671	-0.000134	20.835531
2733.772056	-3.020100	2.731700	-8.248700	28.230723	-0.000132	20.819391
2734.758192	-2.970800	2.730500	-8.111000	28.240985	-0.000132	20.825930
2735.773296	-2.981800	2.725200	-8.125400	28.242080	-0.000133	20.824187
2736.771168	-2.999600	2.721300	-8.162100	28.231302	-0.000132	20.827560
2737.771845	-3.004100	2.717700	-8.163000	28.237424	-0.000133	20.801482
2738.776277	-3.013700	2.714700	-8.179400	28.255198	-0.000134	20.801359
2739.774944	-3.015400	2.710600	-8.172300	28.256753	-0.000133	20.822364
2740.771534	-3.032000	2.706800	-8.206400	28.270219	-0.000133	20.812689
2741.762355	-3.008600	2.703500	-8.132500	28.275649	-0.000134	20.822424
2742.768618	-3.036300	2.698400	-8.192000	28.274982	-0.000133	20.814166
2743.781819	-3.002600	2.694300	-8.089300	28.290395	-0.000132	20.826365
2744.782013	-3.005100	2.691500	-8.087700	28.300241	-0.000131	20.827269
2745.769417	-3.010000	2.687400	-8.087900	28.302748	-0.000133	20.838328
2746.769574	-3.042500	2.682800	-8.161500	28.298362	-0.000132	20.825852
2747.765376	-3.013000	2.678500	-8.069100	28.297372	-0.000131	20.821535
2748.770257	-3.002600	2.673300	-8.026300	28.296381	-0.000132	20.828124
2749.774665	-2.998000	2.670500	-8.005000	28.315247	-0.000133	20.817723
2750.774763	-2.980100	2.666700	-7.946000	28.336120	-0.000132	20.836842
2751.782364	-3.017300	2.659800	-8.024400	28.341569	-0.000131	20.833320
2752.774424	-3.016300	2.656200	-8.010900	28.330646	-0.000134	20.828011
2753.776034	-3.005800	2.651900	-7.970000	28.356001	-0.000132	20.825566
2754.774655	-2.983700	2.646800	-7.896800	28.360514	-0.000133	20.852869
2755.786020	-2.982400	2.642500	-7.880600	28.366788	-0.000132	20.837850
2756.768795	-3.005000	2.635900	-7.920100	28.367111	-0.000133	20.833909
2757.786963	-2.997400	2.631800	-7.886800	28.374248	-0.000133	20.824026
2758.777618	-2.965500	2.627300	-7.790000	28.381665	-0.000132	20.831968
2759.772552	-3.012400	2.620800	-7.893700	28.388356	-0.000132	20.861463
2760.773704	-3.002800	2.616000	-7.854000	28.388704	-0.000132	20.857547
2761.778259	-3.014500	2.611200	-7.869800	28.418747	-0.000130	20.835169
2762.770380	-3.023700	2.605100	-7.876700	28.424226	-0.000131	20.841634
2763.785392	-3.002200	2.599400	-7.803000	28.427228	-0.000132	20.842286
2764.777216	-2.962800	2.594800	-7.687400	28.458330	-0.000133	20.845630
2765.767552	-2.972300	2.589000	-7.694400	28.452709	-0.000132	20.840444
2766.777483	-2.996500	2.582400	-7.737100	28.458982	-0.000131	20.842968
2767.785479	-2.978100	2.578000	-7.676200	28.469513	-0.000131	20.850727
2768.785638	-3.000600	2.570800	-7.712500	28.479724	-0.000132	20.851527
2769.787274	-2.984300	2.565500	-7.655300	28.484340	-0.000131	20.847641
2770.778931	-2.989600	2.558100	-7.646800	28.501045	-0.000132	20.829377
2771.784637	-2.986300	2.553600	-7.625000	28.527284	-0.000129	20.849162
2772.778159	-3.004200	2.546000	-7.648000	28.533331	-0.000131	20.835812
2773.794018	-3.013800	2.540100	-7.654700	28.541737	-0.000133	20.856131
2774.805604	-3.005100	2.534100	-7.614600	28.554846	-0.000131	20.853212
2775.785745	-2.995800	2.527900	-7.572600	28.566641	-0.000134	20.847547
2776.786267	-3.007800	2.519900	-7.578700	28.585356	-0.000131	20.846481
2777.786823	-2.957300	2.515100	-7.436600	28.575023	-0.000133	20.844609
2778.783432	-3.023400	2.505900	-7.574200	28.579486	-0.000133	20.874706
2779.789982	-3.040200	2.499200	-7.597000	28.599828	-0.000132	20.854892
