LabVIEW Measurement	
Writer_Version	2
Reader_Version	2
Separator	Tab
Decimal_Separator	.
Multi_Headings	No
X_Columns	One
Time_Pref	Absolute
Operator	admin
Description	Clolumns are: time, Current, Voltage, Power, Battery Temp, and Chamber Temp
Date	2024/08/16
Time	13:59:35.9411449432373046875
***End_of_Header***	
	
Channels	6						
Samples	1	1	1	1	1	1	
Date	2024/09/18	2024/09/18	2024/09/18	2024/09/18	2024/09/18	2024/09/18	
Time	21:49:53.7011270523071289063	21:49:53.7072405815124511719	21:49:53.7151818275451660156	21:49:53.6824917793273925781	21:49:53.6824917793273925781	21:49:53.6824917793273925781	
X_Dimension	Time	Time	Time	Time	Time	Time	
X0	0.0000000000000000E+0	0.0000000000000000E+0	0.0000000000000000E+0	0.0000000000000000E+0	0.0000000000000000E+0	0.0000000000000000E+0	
Delta_X	1.000000	1.000000	1.000000	1.000000	1.000000	1.000000	
***End_of_Header***							
X_Value	Untitled	Untitled 1	Untitled 2	Untitled 3	Untitled 4	Untitled 5	Comment
0.000000	0.029854	4.099900	0.122430	20.819867	0.000398	20.772452
0.997380	-2.993000	3.937000	-11.782000	20.825799	0.000398	20.751357
2.001157	-2.990300	3.929200	-11.749000	20.827815	0.000399	20.765701
3.000164	-2.985700	3.924500	-11.716000	20.823498	0.000395	20.764229
4.005675	-3.034300	3.919000	-11.890000	20.849951	0.000396	20.771717
4.999754	-2.988800	3.917000	-11.706000	20.858337	0.000395	20.763982
6.001278	-3.013900	3.912700	-11.792000	20.830003	0.000391	20.765519
7.004279	-3.003700	3.910400	-11.745000	20.846351	0.000394	20.759581
8.002276	-2.986100	3.909400	-11.673000	20.859123	0.000394	20.757655
9.003171	-3.012000	3.905400	-11.762000	20.857602	0.000392	20.770833
10.003330	-3.021800	3.903000	-11.793000	20.840059	0.000390	20.764669
11.013425	-3.003300	3.902700	-11.718000	20.851706	0.000390	20.774894
12.011490	-2.988400	3.901600	-11.658000	20.851582	0.000391	20.772399
12.999490	-3.004000	3.898700	-11.710000	20.873520	0.000387	20.760673
13.999552	-3.002600	3.898700	-11.704000	20.877535	0.000387	20.753309
15.002723	-3.001600	3.896400	-11.694000	20.875812	0.000387	20.757750
16.000629	-3.011200	3.895000	-11.728000	20.866750	0.000385	20.760541
17.001610	-3.020600	3.892900	-11.757000	20.887991	0.000385	20.750489
18.004870	-3.017600	3.891800	-11.742000	20.886894	0.000385	20.779265
19.005426	-2.996400	3.892600	-11.663000	20.868325	0.000385	20.757374
20.005484	-3.027000	3.890500	-11.775000	20.896248	0.000385	20.742626
21.004519	-2.989600	3.889800	-11.628000	20.903513	0.000382	20.754633
22.008295	-2.996800	3.889600	-11.655000	20.897576	0.000382	20.767662
23.007351	-3.005600	3.888700	-11.688000	20.916545	0.000381	20.771460
24.005476	-2.991100	3.888100	-11.628000	20.914867	0.000382	20.770256
25.004431	-2.975000	3.887400	-11.565000	20.912155	0.000380	20.765173
26.002755	-2.968800	3.887300	-11.540000	20.932838	0.000378	20.757408
27.012520	-2.982600	3.886100	-11.589000	20.935485	0.000378	20.751046
28.009077	-3.002400	3.884500	-11.661000	20.945218	0.000380	20.757936
29.005122	-3.003800	3.884800	-11.669000	20.941879	0.000378	20.745114
30.007833	-3.005300	3.884300	-11.673000	20.941203	0.000380	20.730686
31.008690	-3.000000	3.883700	-11.650000	20.963362	0.000378	20.748581
32.008037	-3.001800	3.882900	-11.654000	20.971545	0.000376	20.741592
33.008612	-3.021000	3.882500	-11.728000	20.968552	0.000375	20.749505
34.005937	-3.023300	3.882000	-11.736000	20.972345	0.000376	20.742392
35.006883	-3.014500	3.880500	-11.696000	20.985347	0.000375	20.750655
36.009775	-2.987600	3.881300	-11.595000	20.994829	0.000375	20.753500
37.006146	-3.003100	3.880500	-11.653000	20.984102	0.000375	20.735185
38.009215	-2.993400	3.880200	-11.613000	21.000097	0.000375	20.758770
39.008913	-3.007600	3.878900	-11.666000	21.005040	0.000374	20.745696
40.009951	-3.021800	3.878400	-11.718000	20.999075	0.000373	20.758222
41.006731	-2.981200	3.879400	-11.564000	21.006438	0.000374	20.741878
42.009779	-2.986100	3.878200	-11.580000	21.032017	0.000370	20.742332
43.012214	-3.003400	3.877400	-11.645000	21.043597	0.000372	20.749172
44.012131	-3.006600	3.876500	-11.655000	21.013228	0.000372	20.737763
45.011182	-3.009400	3.875700	-11.663000	21.046165	0.000373	20.748896
46.014319	-2.993200	3.877400	-11.605000	21.060460	0.000370	20.742332
47.012629	-2.997000	3.876100	-11.616000	21.037380	0.000372	20.732522
48.010647	-3.008800	3.875600	-11.660000	21.059413	0.000370	20.765941
49.016248	-2.986300	3.876700	-11.576000	21.053379	0.000369	20.745680
50.012096	-3.012700	3.876000	-11.675000	21.073111	0.000370	20.732226
51.012112	-3.007900	3.874900	-11.655000	21.080967	0.000368	20.723488
52.015654	-2.998400	3.875100	-11.618000	21.106767	0.000370	20.738390
53.013424	-2.986100	3.874300	-11.568000	21.077802	0.000368	20.734547
54.013404	-2.986600	3.875900	-11.575000	21.094418	0.000368	20.733149
55.015959	-3.000400	3.873300	-11.620000	21.105197	0.000368	20.749622
56.012166	-3.007300	3.874000	-11.649000	21.099983	0.000368	20.738716
57.012731	-3.017800	3.872300	-11.685000	21.112959	0.000366	20.741264
58.016396	-3.003900	3.872600	-11.631000	21.114624	0.000366	20.761422
59.014675	-3.003000	3.872300	-11.628000	21.116648	0.000366	20.727410
60.013180	-2.972100	3.874300	-11.514000	21.135757	0.000365	20.711910
61.016122	-2.995000	3.872900	-11.598000	21.139830	0.000366	20.758660
62.013239	-2.991000	3.871600	-11.578000	21.141524	0.000367	20.748501
63.017818	-3.013900	3.871400	-11.667000	21.160385	0.000365	20.738444
64.012188	-3.001900	3.870300	-11.618000	21.175987	0.000365	20.742197
65.014729	-2.991600	3.871200	-11.581000	21.166029	0.000363	20.752624
66.014287	-2.991200	3.870600	-11.576000	21.157447	0.000364	20.753523
67.014042	-2.992000	3.870700	-11.581000	21.184816	0.000366	20.722578
68.014733	-3.004400	3.869800	-11.625000	21.167949	0.000364	20.731785
69.014711	-3.016800	3.870300	-11.675000	21.197890	0.000364	20.730442
70.012887	-2.985300	3.870800	-11.554000	21.186015	0.000365	20.726149
71.020747	-3.001700	3.868500	-11.609000	21.199015	0.000365	20.723506
72.017731	-3.012700	3.869600	-11.657000	21.216029	0.000364	20.718715
73.012682	-3.010900	3.868100	-11.645000	21.219100	0.000364	20.720365
74.018557	-2.983600	3.868900	-11.542000	21.219742	0.000363	20.724327
75.015266	-3.013800	3.868500	-11.659000	21.227607	0.000364	20.725082
76.018523	-2.990200	3.867400	-11.564000	21.258444	0.000363	20.717050
77.017129	-2.998600	3.868800	-11.600000	21.246467	0.000363	20.700325
78.019547	-3.010300	3.868100	-11.643000	21.256953	0.000362	20.753966
79.015828	-3.024300	3.866300	-11.692000	21.245850	0.000363	20.735271
80.018763	-3.014400	3.866800	-11.655000	21.261318	0.000362	20.728934
81.024204	-3.010700	3.866000	-11.639000	21.294993	0.000363	20.746503
82.018522	-2.996300	3.866500	-11.584000	21.258928	0.000363	20.714688
83.023667	-3.017100	3.866700	-11.665000	21.277387	0.000362	20.747856
84.018803	-3.006100	3.866400	-11.622000	21.282132	0.000363	20.719884
85.023759	-2.999000	3.866800	-11.596000	21.285054	0.000363	20.719015
86.022583	-3.009900	3.866600	-11.637000	21.307310	0.000362	20.726107
87.020128	-3.010200	3.866100	-11.637000	21.321874	0.000362	20.717444
88.024083	-2.989200	3.866600	-11.557000	21.319133	0.000363	20.718022
89.023143	-3.024600	3.864100	-11.687000	21.333954	0.000364	20.729056
90.021833	-3.009900	3.864200	-11.630000	21.319311	0.000362	20.717251
91.025105	-2.997900	3.864700	-11.585000	21.329338	0.000362	20.727283
92.026579	-2.983100	3.865300	-11.530000	21.339468	0.000363	20.735521
93.024243	-2.967300	3.865500	-11.469000	21.355433	0.000362	20.718777
94.024138	-3.004300	3.865500	-11.612000	21.350674	0.000365	20.706428
95.034354	-3.014200	3.864300	-11.647000	21.348403	0.000361	20.736875
96.026777	-3.012700	3.864800	-11.642000	21.350896	0.000361	20.745533
97.026417	-3.018000	3.864100	-11.661000	21.391505	0.000362	20.694173
98.027286	-2.982600	3.864400	-11.524000	21.364319	0.000363	20.723400
99.026858	-3.007700	3.862900	-11.617000	21.375244	0.000363	20.704457
100.026590	-3.015000	3.862500	-11.644000	21.400687	0.000362	20.720431
101.034931	-3.011100	3.862100	-11.629000	21.396022	0.000362	20.702486
102.027939	-3.024600	3.862900	-11.683000	21.396792	0.000363	20.713215
103.032980	-2.997100	3.862800	-11.576000	21.409365	0.000361	20.722002
104.029426	-3.032700	3.862500	-11.713000	21.401235	0.000362	20.728092
105.034176	-2.997200	3.862400	-11.575000	21.432838	0.000363	20.721305
106.034349	-2.991200	3.862900	-11.554000	21.414479	0.000362	20.707677
107.031139	-2.997300	3.862900	-11.578000	21.450046	0.000364	20.728092
108.031846	-2.988800	3.862000	-11.542000	21.430572	0.000364	20.726625
109.032209	-2.976500	3.862500	-11.494000	21.453590	0.000364	20.729742
110.030909	-2.969500	3.862100	-11.468000	21.455708	0.000363	20.703410
111.028576	-2.988700	3.861500	-11.539000	21.459050	0.000364	20.730937
112.030953	-3.006000	3.860500	-11.603000	21.460323	0.000365	20.717986
113.029408	-2.995600	3.861400	-11.565000	21.460377	0.000365	20.721359
114.033518	-3.011500	3.860200	-11.624000	21.488159	0.000363	20.735881
115.031330	-3.011600	3.860300	-11.624000	21.482423	0.000364	20.740574
116.033387	-3.007300	3.861300	-11.610000	21.485740	0.000364	20.723977
117.035691	-3.010200	3.860000	-11.618000	21.519932	0.000363	20.745864
118.033325	-3.006200	3.860200	-11.604000	21.513846	0.000365	20.745464
119.033920	-3.011300	3.860900	-11.625000	21.508757	0.000365	20.727569
120.037947	-2.987400	3.860600	-11.532000	21.521280	0.000364	20.716865
121.035450	-3.010800	3.860100	-11.621000	21.508881	0.000365	20.736702
122.034386	-3.000700	3.860200	-11.583000	21.549158	0.000363	20.740021
123.036994	-3.013700	3.858700	-11.628000	21.543497	0.000365	20.724398
124.036050	-2.983400	3.860400	-11.516000	21.524370	0.000364	20.718060
125.045198	-3.000600	3.859700	-11.581000	21.547939	0.000367	20.736430
126.038187	-3.003400	3.857900	-11.585000	21.566192	0.000367	20.734306
127.040993	-2.982600	3.858600	-11.508000	21.572958	0.000365	20.729223
128.034696	-2.992400	3.858500	-11.545000	21.585850	0.000367	20.748289
129.034446	-2.999300	3.859000	-11.573000	21.571636	0.000365	20.730744
130.040602	-3.005300	3.857500	-11.592000	21.574779	0.000368	20.740055
131.037386	-3.000800	3.858300	-11.577000	21.587726	0.000366	20.718870
132.048972	-2.997300	3.858800	-11.565000	21.593935	0.000365	20.722238
133.036863	-3.005700	3.857300	-11.593000	21.611999	0.000367	20.741264
134.039431	-3.017700	3.858100	-11.642000	21.615607	0.000366	20.738237
135.036455	-3.029300	3.856800	-11.682000	21.602972	0.000369	20.730808
136.037295	-2.992300	3.857300	-11.541000	21.614343	0.000367	20.717530
137.039360	-3.005000	3.856100	-11.585000	21.646464	0.000366	20.718854
138.038719	-2.987400	3.857700	-11.524000	21.633794	0.000366	20.725616
139.038651	-2.975800	3.857100	-11.478000	21.636696	0.000367	20.729468
140.039662	-2.989700	3.856300	-11.529000	21.644677	0.000366	20.739826
141.038823	-2.976600	3.856300	-11.478000	21.643408	0.000367	20.748989
142.039398	-2.996400	3.857000	-11.556000	21.678597	0.000367	20.749591
143.039676	-3.000100	3.854700	-11.563000	21.669595	0.000371	20.743901
144.040385	-3.020100	3.855300	-11.642000	21.673065	0.000367	20.721293
145.044450	-3.014300	3.854600	-11.618000	21.685087	0.000368	20.745654
146.041625	-2.983500	3.856200	-11.503000	21.677778	0.000366	20.738339
147.040516	-2.996400	3.855000	-11.550000	21.690678	0.000368	20.740344
148.042926	-3.014900	3.855200	-11.622000	21.701382	0.000368	20.717390
149.042268	-3.020900	3.853600	-11.640000	21.703223	0.000370	20.743416
150.045501	-3.002000	3.854800	-11.572000	21.687894	0.000370	20.739454
151.045592	-3.002900	3.854100	-11.573000	21.712654	0.000370	20.725352
152.042940	-2.991000	3.854000	-11.526000	21.725801	0.000368	20.750839
153.047185	-3.016100	3.853400	-11.621000	21.728521	0.000369	20.745500
154.044133	-2.993700	3.854700	-11.539000	21.733959	0.000368	20.730553
155.050790	-3.005600	3.854300	-11.583000	21.723392	0.000371	20.750799
156.047886	-3.017200	3.854000	-11.627000	21.736436	0.000370	20.754370
157.045340	-2.997200	3.853600	-11.548000	21.746113	0.000372	20.732761
158.047190	-2.998600	3.853600	-11.554000	21.760302	0.000372	20.730839
159.054881	-3.002700	3.852100	-11.566000	21.760657	0.000372	20.750636
160.047519	-3.009800	3.852100	-11.593000	21.775866	0.000371	20.736460
161.053017	-3.002400	3.853400	-11.569000	21.785000	0.000372	20.721893
162.051592	-3.001800	3.852300	-11.562000	21.791983	0.000371	20.732676
163.052466	-3.013400	3.850900	-11.603000	21.757976	0.000374	20.747953
164.054294	-2.990400	3.853000	-11.521000	21.804729	0.000371	20.756340
165.053202	-3.023300	3.851000	-11.641000	21.808800	0.000376	20.742870
166.052753	-3.029400	3.850600	-11.663000	21.822736	0.000374	20.739274
167.056816	-2.976500	3.853100	-11.468000	21.809476	0.000373	20.741176
168.054272	-2.982600	3.853000	-11.491000	21.814016	0.000373	20.757574
169.053574	-3.006100	3.850900	-11.575000	21.813893	0.000373	20.744648
170.057808	-3.008300	3.851000	-11.584000	21.852911	0.000376	20.741028
171.055230	-3.001700	3.850200	-11.557000	21.857002	0.000373	20.749864
172.058207	-2.973600	3.850100	-11.447000	21.830981	0.000374	20.741363
173.055820	-3.000700	3.849600	-11.550000	21.863017	0.000375	20.771058
174.055658	-2.994100	3.850400	-11.527000	21.874011	0.000376	20.756932
175.057875	-2.991000	3.851100	-11.517000	21.868726	0.000375	20.742158
176.055314	-2.989500	3.850600	-11.510000	21.858956	0.000376	20.753716
177.057130	-2.986900	3.849100	-11.496000	21.866111	0.000377	20.745705
178.055619	-2.984700	3.850500	-11.492000	21.875590	0.000376	20.761357
179.056447	-2.979000	3.849900	-11.468000	21.906351	0.000378	20.754689
180.056798	-2.977200	3.849600	-11.459000	21.898801	0.000376	20.748080
181.057595	-3.005600	3.849800	-11.570000	21.906134	0.000377	20.754946
182.059733	-2.994300	3.849800	-11.527000	21.921168	0.000377	20.757193
183.058464	-3.005500	3.849000	-11.567000	21.915509	0.000379	20.770969
184.060295	-2.993100	3.848600	-11.517000	21.916057	0.000379	20.738799
185.059566	-3.017800	3.849100	-11.615000	21.910027	0.000381	20.772120
186.058912	-3.011000	3.849100	-11.588000	21.936006	0.000380	20.764933
187.060716	-3.026500	3.848300	-11.646000	21.945385	0.000378	20.762468
188.060139	-3.004000	3.848600	-11.561000	21.945509	0.000379	20.766385
189.060359	-2.985500	3.848800	-11.490000	21.948923	0.000380	20.764587
190.059338	-3.009600	3.847200	-11.578000	21.961865	0.000379	20.754783
191.061055	-2.999000	3.847700	-11.539000	21.954992	0.000380	20.770188
192.065365	-2.987700	3.847700	-11.495000	21.975458	0.000382	20.754165
193.061310	-2.997400	3.846300	-11.527000	21.967505	0.000382	20.758531
194.061725	-3.005800	3.846700	-11.561000	21.975661	0.000381	20.765273
195.062966	-3.000400	3.846900	-11.541000	21.992017	0.000382	20.752722
196.063231	-3.005600	3.845800	-11.558000	21.995609	0.000381	20.749206
197.062542	-3.009000	3.846100	-11.572000	21.984843	0.000382	20.753601
198.063922	-3.020700	3.845800	-11.616000	22.001598	0.000381	20.763737
199.062628	-3.010600	3.845400	-11.576000	22.009581	0.000381	20.781211
200.062852	-3.016300	3.845100	-11.597000	22.001055	0.000384	20.742804
201.063319	-3.018800	3.845600	-11.607000	22.010652	0.000382	20.768533
202.062806	-3.011500	3.843800	-11.574000	22.029080	0.000383	20.779868
203.069136	-2.995900	3.845300	-11.519000	22.035765	0.000385	20.756214
204.064374	-3.003900	3.845600	-11.550000	22.044991	0.000384	20.761183
205.062967	-2.994800	3.845500	-11.515000	22.019271	0.000385	20.761988
206.066562	-3.018800	3.843200	-11.602000	22.059526	0.000385	20.768147
207.063710	-3.033600	3.844400	-11.660000	22.050610	0.000385	20.769653
208.066900	-2.997100	3.845200	-11.523000	22.053003	0.000387	20.766359
209.066024	-3.016500	3.844000	-11.594000	22.061188	0.000387	20.758431
210.064883	-3.017600	3.844400	-11.600000	22.077642	0.000387	20.763523
211.064806	-3.005900	3.844100	-11.554000	22.094845	0.000386	20.771263
212.065372	-3.000000	3.842600	-11.527000	22.079936	0.000389	20.778623
213.069499	-3.017400	3.843100	-11.595000	22.086547	0.000387	20.770542
214.069750	-2.989700	3.844700	-11.494000	22.099759	0.000388	20.768596
215.065747	-3.012800	3.843000	-11.578000	22.097869	0.000387	20.795154
216.066084	-3.002500	3.841900	-11.535000	22.109162	0.000389	20.768052
217.067312	-3.020500	3.842500	-11.605000	22.122245	0.000389	20.771194
218.067556	-3.001100	3.842300	-11.530000	22.133138	0.000388	20.774513
219.069634	-3.012200	3.841800	-11.572000	22.138723	0.000388	20.754973
220.070384	-3.004800	3.842200	-11.544000	22.162925	0.000389	20.769722
221.067704	-2.996600	3.841800	-11.512000	22.138279	0.000391	20.763064
222.069708	-3.004600	3.842600	-11.545000	22.150794	0.000389	20.806889
223.068710	-2.981000	3.842300	-11.453000	22.161011	0.000389	20.772547
224.069346	-2.997500	3.840800	-11.512000	22.158421	0.000391	20.767583
225.068664	-3.012100	3.842200	-11.572000	22.169141	0.000391	20.785428
226.069625	-3.006900	3.841100	-11.549000	22.165204	0.000392	20.782435
227.070545	-3.015600	3.839700	-11.578000	22.181232	0.000393	20.784732
228.068721	-3.010200	3.840800	-11.561000	22.183723	0.000393	20.769682
229.070963	-3.010000	3.840800	-11.559000	22.185120	0.000393	20.761597
230.072755	-3.012600	3.841400	-11.572000	22.176496	0.000392	20.798482
231.070312	-3.019600	3.839700	-11.594000	22.198459	0.000392	20.797238
232.070838	-2.991200	3.840100	-11.485000	22.230415	0.000394	20.782292
233.071818	-3.016000	3.839200	-11.578000	22.214358	0.000393	20.770482
234.070864	-2.990400	3.840700	-11.484000	22.206756	0.000395	20.800330
235.074191	-3.011800	3.839300	-11.563000	22.246654	0.000396	20.800922
236.074143	-2.977000	3.839700	-11.430000	22.215058	0.000395	20.798685
237.070136	-3.009200	3.839300	-11.552000	22.250324	0.000395	20.807442
238.074233	-3.003500	3.839600	-11.531000	22.252716	0.000394	20.791820
239.072878	-3.009600	3.838400	-11.552000	22.262883	0.000398	20.804844
240.076891	-2.988200	3.838600	-11.470000	22.252963	0.000395	20.784954
241.076393	-3.001400	3.839600	-11.524000	22.265823	0.000399	20.793089
242.073156	-3.038000	3.837900	-11.658000	22.293441	0.000395	20.786604
243.074318	-3.024700	3.837900	-11.607000	22.281953	0.000399	20.786006
244.072697	-3.005900	3.836900	-11.533000	22.275792	0.000397	20.786475
245.075366	-3.015300	3.837000	-11.569000	22.290398	0.000399	20.794936
246.076222	-3.005500	3.837500	-11.533000	22.307963	0.000397	20.775540
247.076381	-2.976100	3.838300	-11.422000	22.293762	0.000398	20.793563
248.079995	-2.993900	3.838700	-11.492000	22.317986	0.000399	20.797905
249.079393	-2.991900	3.838900	-11.485000	22.315519	0.000401	20.805866
250.076747	-3.004800	3.837500	-11.530000	22.316772	0.000400	20.808069
251.079040	-2.995400	3.837300	-11.494000	22.318563	0.000400	20.807017
252.079130	-3.012400	3.837400	-11.559000	22.311983	0.000400	20.810860
253.078735	-2.989600	3.837000	-11.471000	22.348321	0.000402	20.806943
254.078443	-3.001500	3.836500	-11.514000	22.337706	0.000403	20.831401
255.079844	-2.987500	3.836900	-11.461000	22.353159	0.000402	20.807047
256.084243	-2.991700	3.836500	-11.477000	22.342717	0.000403	20.819824
257.079347	-3.004300	3.837400	-11.528000	22.369007	0.000402	20.811062
258.081169	-2.992800	3.836200	-11.479000	22.383488	0.000404	20.795218
259.078871	-3.006500	3.835800	-11.531000	22.358792	0.000403	20.790876
260.077710	-2.979500	3.837400	-11.433000	22.382521	0.000402	20.780499
261.079686	-3.002600	3.834700	-11.513000	22.392139	0.000405	20.811467
262.079406	-2.979600	3.836200	-11.430000	22.407518	0.000404	20.829238
263.079459	-2.999100	3.834900	-11.500000	22.401293	0.000405	20.799297
264.079151	-3.021400	3.834000	-11.583000	22.386507	0.000406	20.810568
265.078838	-2.995500	3.835200	-11.487000	22.392840	0.000408	20.831134
266.084071	-3.000800	3.834800	-11.507000	22.430348	0.000406	20.822703
267.078124	-3.008500	3.834800	-11.535000	22.428430	0.000406	20.798023
268.078652	-2.997400	3.833900	-11.491000	22.409816	0.000405	20.820160
269.082495	-2.959600	3.834500	-11.348000	22.429505	0.000407	20.826600
270.084116	-3.010900	3.832300	-11.538000	22.435034	0.000407	20.824550
271.080166	-3.014600	3.833400	-11.556000	22.424450	0.000408	20.817744
272.082849	-3.001300	3.832700	-11.502000	22.460458	0.000409	20.825355
273.079283	-2.985100	3.832600	-11.440000	22.449371	0.000410	20.809985
274.082202	-2.999500	3.833400	-11.497000	22.480921	0.000409	20.833519
275.082626	-3.000200	3.833600	-11.500000	22.467664	0.000409	20.817873
276.079582	-2.975500	3.833300	-11.405000	22.460340	0.000411	20.831401
277.083615	-3.007500	3.831500	-11.522000	22.479831	0.000410	20.819626
278.079897	-3.005200	3.831900	-11.515000	22.484886	0.000409	20.819473
279.080220	-2.988100	3.831400	-11.448000	22.504125	0.000409	20.839688
280.083093	-2.996000	3.831300	-11.478000	22.508810	0.000410	20.832527
281.081831	-2.992100	3.831400	-11.462000	22.510235	0.000411	20.828738
282.083055	-2.962700	3.832600	-11.354000	22.500519	0.000415	20.822328
283.082945	-2.985300	3.831600	-11.436000	22.510511	0.000414	20.843713
284.082107	-2.998000	3.830900	-11.484000	22.516247	0.000412	20.828595
285.084550	-2.989300	3.831800	-11.453000	22.541511	0.000413	20.828768
286.083789	-3.018000	3.829000	-11.554000	22.536136	0.000413	20.830971
287.085264	-3.007700	3.830600	-11.520000	22.515102	0.000413	20.837406
288.087756	-2.988900	3.829900	-11.446000	22.529957	0.000413	20.837584
289.086067	-3.000700	3.829500	-11.490000	22.547079	0.000415	20.837663
290.087135	-2.991600	3.830700	-11.459000	22.540081	0.000415	20.842508
291.087609	-2.999100	3.829800	-11.484000	22.545718	0.000415	20.852894
292.087240	-3.002300	3.829400	-11.496000	22.578581	0.000415	20.845980
293.089492	-2.999900	3.828200	-11.484000	22.560769	0.000418	20.826718
294.087704	-2.997200	3.828300	-11.474000	22.565577	0.000415	20.832008
295.087353	-3.002700	3.829400	-11.498000	22.587384	0.000415	20.822555
296.087142	-3.030800	3.829100	-11.604000	22.582877	0.000420	20.838428
297.088594	-2.999200	3.829500	-11.485000	22.590352	0.000416	20.812726
298.089905	-3.002000	3.827700	-11.490000	22.621124	0.000417	20.827424
299.089082	-2.999100	3.827800	-11.479000	22.605852	0.000418	20.857645
300.088954	-3.007300	3.827400	-11.510000	22.619063	0.000416	20.845274
301.091543	-2.996600	3.827200	-11.468000	22.608268	0.000420	20.841574
302.089020	-2.985000	3.827300	-11.424000	22.622376	0.000418	20.866609
303.088257	-3.005800	3.826800	-11.502000	22.604441	0.000420	20.860026
304.090438	-2.995700	3.826500	-11.462000	22.636336	0.000418	20.843135
305.090380	-2.987600	3.827100	-11.433000	22.653704	0.000422	20.861952
306.092090	-3.012100	3.824900	-11.520000	22.638156	0.000422	20.849699
307.088198	-3.001700	3.826000	-11.483000	22.649749	0.000423	20.852776
308.089232	-2.997300	3.826000	-11.467000	22.656253	0.000421	20.859764
309.091838	-2.999000	3.825600	-11.472000	22.662757	0.000421	20.847787
310.088979	-2.996900	3.825600	-11.464000	22.652841	0.000422	20.866777
311.088268	-3.006300	3.825900	-11.500000	22.674587	0.000423	20.872437
312.087350	-2.998600	3.825200	-11.469000	22.683512	0.000422	20.856248
313.089543	-2.999900	3.826900	-11.480000	22.665824	0.000423	20.845644
314.093581	-3.011000	3.824300	-11.514000	22.668369	0.000422	20.846770
315.091724	-3.008900	3.824100	-11.505000	22.672304	0.000424	20.867306
316.092563	-3.008600	3.825200	-11.508000	22.706766	0.000426	20.892340
317.091320	-2.994200	3.824700	-11.450000	22.705538	0.000424	20.864086
318.091302	-3.013800	3.824500	-11.525000	22.710923	0.000423	20.859048
319.094632	-3.020800	3.823600	-11.550000	22.694409	0.000425	20.881386
320.092729	-2.992100	3.823800	-11.440000	22.719867	0.000426	20.840982
321.093409	-3.020300	3.822400	-11.543000	22.729487	0.000423	20.852040
322.094127	-2.993200	3.823300	-11.443000	22.744634	0.000426	20.889021
323.093048	-3.001800	3.823900	-11.478000	22.741148	0.000427	20.867987
324.094329	-2.982200	3.823900	-11.403000	22.741000	0.000426	20.854089
325.094887	-2.967400	3.824100	-11.347000	22.755876	0.000425	20.865197
326.095146	-2.979200	3.822900	-11.388000	22.753184	0.000426	20.845906
327.096659	-3.007700	3.820900	-11.491000	22.751947	0.000428	20.839451
328.096107	-2.992900	3.822100	-11.438000	22.770653	0.000427	20.861034
329.096182	-3.000300	3.821800	-11.466000	22.765131	0.000427	20.859295
330.097108	-3.009700	3.821600	-11.501000	22.775273	0.000428	20.870877
331.097415	-2.996800	3.821700	-11.451000	22.768523	0.000429	20.885925
332.097486	-2.980900	3.822300	-11.392000	22.783946	0.000429	20.858702
333.096890	-3.009400	3.821900	-11.500000	22.786762	0.000430	20.858204
334.105526	-3.000100	3.822400	-11.467000	22.804156	0.000429	20.845758
335.103824	-3.007100	3.821300	-11.490000	22.803160	0.000430	20.852820
336.096507	-2.990600	3.820700	-11.425000	22.795143	0.000429	20.844790
337.097075	-2.999600	3.821400	-11.462000	22.819041	0.000429	20.845970
338.099486	-3.007800	3.820000	-11.489000	22.809673	0.000430	20.847966
339.099219	-3.010100	3.820000	-11.498000	22.816724	0.000429	20.828951
340.098729	-2.997100	3.820800	-11.450000	22.810127	0.000430	20.841782
341.102939	-2.989700	3.819900	-11.419000	22.828241	0.000432	20.845230
342.103704	-3.013500	3.820900	-11.513000	22.820397	0.000433	20.838320
343.099956	-3.008800	3.819700	-11.492000	22.819505	0.000431	20.838374
344.101262	-3.011800	3.818900	-11.501000	22.840631	0.000433	20.823503
345.100168	-3.012100	3.819100	-11.502000	22.845813	0.000432	20.839599
346.106669	-2.995400	3.819600	-11.440000	22.863399	0.000433	20.840147
347.102634	-2.987500	3.819600	-11.410000	22.844600	0.000436	20.828902
348.106539	-2.995400	3.818700	-11.437000	22.839670	0.000436	20.814006
349.102005	-3.022200	3.818000	-11.538000	22.871706	0.000435	20.815280
350.103654	-2.985200	3.818400	-11.397000	22.867950	0.000435	20.844706
351.104329	-2.982500	3.818700	-11.389000	22.876193	0.000435	20.811240
352.104795	-2.985900	3.818800	-11.402000	22.871638	0.000435	20.816159
353.104409	-2.996000	3.817500	-11.436000	22.890224	0.000434	20.812495
354.106534	-2.988000	3.817400	-11.405000	22.865791	0.000437	20.832586
355.105236	-2.996200	3.816400	-11.433000	22.890106	0.000437	20.805738
356.109083	-3.013700	3.815500	-11.498000	22.892300	0.000438	20.833066
357.110334	-3.022500	3.816800	-11.535000	22.897112	0.000435	20.816550
358.104956	-2.990200	3.817700	-11.415000	22.897664	0.000438	20.810465
359.105967	-2.995500	3.818400	-11.437000	22.904413	0.000438	20.807269
360.106017	-2.987900	3.816300	-11.402000	22.926233	0.000437	20.826285
361.106812	-2.999600	3.816500	-11.448000	22.893429	0.000441	20.815231
362.110039	-2.995500	3.815400	-11.428000	22.928027	0.000441	20.812436
363.109959	-2.997200	3.814300	-11.431000	22.924867	0.000435	20.809744
364.110159	-2.991400	3.815100	-11.411000	22.918868	0.000439	20.815113
365.109498	-2.999500	3.813800	-11.437000	22.922955	0.000440	20.813517
366.109684	-3.007300	3.814200	-11.470000	22.927214	0.000440	20.806405
367.112375	-3.013300	3.814000	-11.492000	22.941190	0.000439	20.808554
368.113684	-2.996400	3.814700	-11.430000	22.955985	0.000439	20.814841
369.109898	-2.997000	3.813600	-11.428000	22.972455	0.000438	20.812851
370.113345	-3.013400	3.813100	-11.490000	22.951528	0.000442	20.782401
371.111062	-3.007700	3.812700	-11.465000	22.975166	0.000442	20.811774
372.111331	-3.013500	3.813200	-11.490000	22.984212	0.000440	20.809932
373.112181	-3.002800	3.813000	-11.449000	22.970734	0.000444	20.826774
374.111989	-3.009600	3.812900	-11.475000	22.959948	0.000442	20.799846
375.111918	-3.008000	3.813600	-11.470000	22.999060	0.000442	20.795411
376.111676	-3.001500	3.812900	-11.444000	22.981900	0.000442	20.821840
377.112154	-3.021600	3.811500	-11.516000	22.985859	0.000443	20.810159
378.115910	-3.003500	3.811400	-11.446000	22.988279	0.000444	20.795515
379.112884	-3.010500	3.811200	-11.473000	23.016205	0.000445	20.811167
380.111551	-3.010400	3.811100	-11.472000	23.013888	0.000443	20.796518
381.115133	-3.014500	3.811700	-11.490000	23.013538	0.000443	20.814185
382.112800	-3.011700	3.810300	-11.475000	23.012493	0.000444	20.816931
383.113735	-3.012900	3.809700	-11.477000	23.034139	0.000443	20.794522
384.111687	-3.021900	3.811000	-11.515000	23.014071	0.000445	20.795278
385.112357	-3.011400	3.811500	-11.477000	23.038526	0.000444	20.817884
386.112002	-3.023600	3.809700	-11.518000	23.024280	0.000447	20.783222
387.113619	-2.985500	3.810500	-11.375000	23.034947	0.000445	20.791065
388.113690	-3.025500	3.809400	-11.525000	23.028672	0.000447	20.806115
389.112355	-3.022500	3.808300	-11.510000	23.052708	0.000447	20.785627
390.111807	-2.999000	3.810200	-11.425000	23.038137	0.000448	20.790468
391.113219	-2.997600	3.809700	-11.419000	23.056740	0.000449	20.818116
392.112975	-2.988000	3.809300	-11.382000	23.045689	0.000447	20.790448
393.114445	-2.995700	3.808100	-11.407000	23.055922	0.000448	20.785529
394.119174	-2.997200	3.808600	-11.414000	23.064795	0.000447	20.792048
395.115450	-2.993400	3.809400	-11.402000	23.076453	0.000448	20.791401
396.118201	-3.008400	3.807400	-11.454000	23.071676	0.000448	20.780451
397.114758	-3.004000	3.806600	-11.434000	23.086863	0.000449	20.785711
398.114346	-2.990100	3.809100	-11.388000	23.088110	0.000450	20.786961
399.117739	-2.982300	3.809300	-11.360000	23.079124	0.000448	20.796924
400.114846	-2.997400	3.807600	-11.411000	23.105919	0.000450	20.783469
401.114862	-2.983700	3.807800	-11.361000	23.106338	0.000450	20.781992
402.119199	-2.980300	3.806900	-11.344000	23.111346	0.000448	20.807873
403.116476	-3.015200	3.807200	-11.479000	23.104347	0.000450	20.779049
404.122755	-3.002500	3.806200	-11.428000	23.095381	0.000451	20.800410
405.120045	-3.012400	3.805600	-11.463000	23.115482	0.000453	20.777878
406.117938	-2.994800	3.806800	-11.400000	23.107132	0.000450	20.765718
407.116980	-2.987800	3.805800	-11.370000	23.112391	0.000453	20.803705
408.118400	-2.991900	3.805900	-11.386000	23.118537	0.000454	20.789475
409.120637	-2.983000	3.806300	-11.354000	23.155692	0.000449	20.784032
410.120969	-3.003900	3.804600	-11.428000	23.145977	0.000452	20.774771
411.118480	-3.008400	3.806100	-11.449000	23.141294	0.000453	20.780984
412.117937	-3.013700	3.804300	-11.464000	23.140170	0.000454	20.790764
413.118530	-3.026600	3.802700	-11.508000	23.159571	0.000456	20.780807
414.118994	-3.011600	3.804300	-11.457000	23.172198	0.000456	20.790142
415.123559	-2.979100	3.803900	-11.331000	23.142457	0.000455	20.796849
416.121133	-2.999700	3.802700	-11.406000	23.180587	0.000452	20.801393
417.120423	-2.995800	3.802700	-11.391000	23.168679	0.000455	20.776657
418.121272	-2.999000	3.803000	-11.405000	23.167733	0.000455	20.771916
419.120670	-3.003200	3.801800	-11.417000	23.186782	0.000456	20.781997
420.120633	-2.985600	3.803800	-11.355000	23.174647	0.000455	20.806820
421.123486	-2.997700	3.801800	-11.395000	23.183145	0.000457	20.772187
422.122076	-3.006400	3.801700	-11.429000	23.178157	0.000456	20.777146
423.121424	-2.997200	3.803200	-11.398000	23.186102	0.000456	20.811661
424.121664	-2.998800	3.800200	-11.395000	23.198251	0.000456	20.784007
425.120480	-3.003500	3.802100	-11.419000	23.200070	0.000458	20.761647
426.128539	-3.006900	3.800200	-11.426000	23.205127	0.000457	20.788052
427.126012	-3.010300	3.801500	-11.443000	23.208355	0.000456	20.781329
428.120066	-3.020900	3.800200	-11.480000	23.211701	0.000458	20.783261
429.126047	-2.991600	3.800000	-11.367000	23.212840	0.000456	20.780134
430.120982	-3.013700	3.800100	-11.451000	23.214949	0.000457	20.756169
431.120927	-3.013100	3.798700	-11.444000	23.212362	0.000457	20.778232
432.125729	-2.980400	3.800700	-11.327000	23.246206	0.000459	20.791761
433.124310	-2.995100	3.799600	-11.380000	23.248123	0.000458	20.802691
434.121902	-2.993900	3.799700	-11.375000	23.240080	0.000456	20.777561
435.121403	-2.993100	3.798600	-11.368000	23.236319	0.000459	20.782327
436.126688	-3.013600	3.798300	-11.445000	23.247029	0.000460	20.776939
437.126928	-3.008100	3.799900	-11.429000	23.259355	0.000459	20.786921
438.123302	-3.011200	3.798100	-11.437000	23.267423	0.000459	20.776514
439.125090	-3.007600	3.798700	-11.424000	23.256817	0.000460	20.764936
440.123516	-2.994800	3.797100	-11.372000	23.259631	0.000460	20.782930
441.122828	-3.007000	3.797000	-11.416000	23.265659	0.000459	20.773323
442.126301	-2.998800	3.797400	-11.387000	23.273401	0.000459	20.775867
443.122300	-2.989000	3.798400	-11.353000	23.284086	0.000459	20.778040
444.123071	-2.983600	3.798300	-11.332000	23.266107	0.000461	20.783256
445.124835	-2.974900	3.795800	-11.290000	23.298255	0.000460	20.767584
446.122753	-2.993400	3.796500	-11.363000	23.306416	0.000461	20.770547
447.123950	-2.992300	3.796000	-11.358000	23.294046	0.000461	20.774746
448.124943	-3.001400	3.795500	-11.391000	23.296934	0.000460	20.781433
449.133437	-2.998900	3.796200	-11.384000	23.292528	0.000463	20.765164
450.125881	-3.003700	3.795100	-11.397000	23.304454	0.000458	20.778065
451.124403	-3.023000	3.794700	-11.470000	23.318948	0.000459	20.785478
452.126422	-3.031600	3.794400	-11.502000	23.312246	0.000462	20.783977
453.128437	-3.002500	3.794200	-11.391000	23.322531	0.000460	20.771051
454.125844	-3.021200	3.793100	-11.459000	23.320880	0.000461	20.764180
455.137111	-2.991400	3.793600	-11.347000	23.344416	0.000461	20.795357
456.125309	-2.999900	3.793800	-11.380000	23.343869	0.000461	20.770626
457.126244	-2.998300	3.792900	-11.372000	23.329701	0.000461	20.762116
458.129890	-3.002000	3.792600	-11.384000	23.342396	0.000460	20.773417
459.129881	-3.009900	3.792200	-11.413000	23.339138	0.000462	20.757350
460.125600	-2.992500	3.793400	-11.351000	23.335004	0.000461	20.762215
461.128248	-2.989200	3.793500	-11.339000	23.331293	0.000462	20.766556
462.126217	-3.013500	3.791200	-11.423000	23.353030	0.000463	20.776963
463.125992	-3.000700	3.791900	-11.377000	23.344066	0.000464	20.751383
464.133433	-3.009200	3.791100	-11.408000	23.364187	0.000463	20.783404
465.129567	-3.000700	3.791000	-11.374000	23.359604	0.000462	20.756525
466.136083	-3.018400	3.789600	-11.437000	23.369919	0.000463	20.750267
467.127248	-2.999900	3.791500	-11.372000	23.377690	0.000466	20.763272
468.126931	-2.994800	3.791000	-11.352000	23.372604	0.000463	20.758174
469.127079	-3.013100	3.789300	-11.416000	23.366563	0.000465	20.740739
470.126865	-3.026400	3.789000	-11.466000	23.373334	0.000465	20.744681
471.130006	-3.006700	3.790300	-11.395000	23.382500	0.000465	20.768567
472.127707	-3.009200	3.789900	-11.404000	23.389345	0.000466	20.766418
473.133709	-2.987300	3.790600	-11.322000	23.399131	0.000465	20.765322
474.135972	-2.974800	3.790100	-11.274000	23.389779	0.000464	20.764482
475.127261	-2.984700	3.789000	-11.308000	23.395953	0.000464	20.755972
476.128057	-2.976100	3.789200	-11.276000	23.379898	0.000466	20.770227
477.128095	-3.001100	3.787900	-11.367000	23.403577	0.000465	20.760294
478.133521	-3.008400	3.788300	-11.395000	23.405819	0.000466	20.754955
479.134190	-3.013700	3.787600	-11.414000	23.411377	0.000466	20.760526
480.137695	-2.996900	3.789000	-11.354000	23.404735	0.000466	20.748653
481.129955	-3.001100	3.788600	-11.369000	23.411910	0.000466	20.742567
482.132690	-2.997400	3.787200	-11.350000	23.432976	0.000465	20.753251
483.129800	-2.985600	3.787500	-11.307000	23.426008	0.000465	20.751957
484.134184	-3.003300	3.786800	-11.372000	23.413763	0.000467	20.780936
485.130936	-2.981000	3.787600	-11.289000	23.437145	0.000465	20.754585
486.129579	-2.984200	3.787500	-11.301000	23.421638	0.000467	20.739515
487.142484	-3.000600	3.786800	-11.362000	23.435105	0.000467	20.734522
488.141212	-2.989600	3.787100	-11.321000	23.447237	0.000467	20.752373
489.134676	-3.032100	3.783800	-11.471000	23.438648	0.000467	20.751824
490.132060	-3.008000	3.784600	-11.383000	23.451327	0.000468	20.744144
491.132859	-3.007400	3.784700	-11.381000	23.461912	0.000467	20.756176
492.135371	-3.011300	3.784800	-11.396000	23.451278	0.000468	20.767329
493.140628	-3.016900	3.783500	-11.412000	23.461045	0.000469	20.747246
494.137574	-3.015300	3.784500	-11.411000	23.466899	0.000470	20.747424
495.135098	-3.014700	3.783200	-11.404000	23.466352	0.000469	20.735970
496.132978	-2.996400	3.783600	-11.336000	23.475659	0.000468	20.730126
497.146046	-2.999400	3.782400	-11.344000	23.462296	0.000467	20.748027
498.133154	-2.993000	3.783800	-11.323000	23.486249	0.000467	20.734577
499.132751	-3.021500	3.781900	-11.427000	23.480247	0.000469	20.730932
500.144996	-2.964500	3.783900	-11.216000	23.487742	0.000471	20.737022
501.134763	-3.004800	3.781700	-11.362000	23.501736	0.000470	20.758637
502.135665	-3.002800	3.782100	-11.356000	23.496931	0.000468	20.735802
503.133734	-2.999300	3.781200	-11.340000	23.498148	0.000470	20.756463
504.140265	-3.012400	3.781100	-11.390000	23.514404	0.000469	20.720599
505.135116	-3.012200	3.781200	-11.389000	23.509723	0.000469	20.727287
506.144620	-3.019100	3.779300	-11.409000	23.501110	0.000471	20.726714
507.143379	-2.992800	3.781000	-11.315000	23.512832	0.000470	20.721868
508.136850	-2.977600	3.781300	-11.259000	23.526781	0.000469	20.739171
509.136364	-2.977500	3.780300	-11.255000	23.522721	0.000471	20.741739
510.147442	-3.004900	3.779600	-11.356000	23.512309	0.000471	20.744105
511.137342	-2.970200	3.781000	-11.228000	23.531526	0.000471	20.756255
512.137520	-2.987700	3.779500	-11.291000	23.532866	0.000470	20.715397
513.141804	-3.016200	3.778400	-11.396000	23.530574	0.000471	20.730645
514.142080	-2.989300	3.779600	-11.297000	23.550909	0.000471	20.734907
515.137391	-2.980500	3.779300	-11.263000	23.541872	0.000471	20.742919
516.142766	-2.991900	3.780000	-11.308000	23.541424	0.000472	20.723502
517.138606	-3.008000	3.777200	-11.361000	23.544109	0.000470	20.733307
518.140246	-2.986200	3.778600	-11.282000	23.579278	0.000471	20.743907
519.141434	-2.995900	3.777700	-11.317000	23.524153	0.000474	20.749814
520.141363	-3.017200	3.776900	-11.394000	23.562590	0.000472	20.731444
521.143340	-3.007200	3.776600	-11.356000	23.564925	0.000473	20.748485
522.140366	-2.989200	3.776800	-11.288000	23.555638	0.000473	20.752451
523.139719	-2.972800	3.776700	-11.226000	23.585836	0.000472	20.746213
524.141719	-2.994100	3.775500	-11.303000	23.572360	0.000472	20.745980
525.151559	-3.020300	3.775200	-11.401000	23.560929	0.000472	20.733098
526.142790	-2.987000	3.776100	-11.278000	23.572202	0.000472	20.768108
527.142078	-3.003300	3.774900	-11.336000	23.584919	0.000472	20.738655
528.149919	-2.990000	3.774100	-11.284000	23.600177	0.000471	20.740201
529.141045	-3.018100	3.774100	-11.389000	23.587653	0.000472	20.736654
530.146997	-2.996900	3.774300	-11.310000	23.562855	0.000473	20.745461
531.148700	-3.006000	3.773800	-11.343000	23.590308	0.000472	20.720823
532.143659	-2.984200	3.773100	-11.259000	23.618830	0.000473	20.746572
533.154769	-3.025300	3.773400	-11.415000	23.607651	0.000471	20.744374
534.145804	-3.030000	3.771700	-11.428000	23.599107	0.000473	20.757147
535.152723	-3.030400	3.771200	-11.426000	23.638015	0.000472	20.736881
536.147568	-2.978500	3.773500	-11.238000	23.594446	0.000475	20.718333
537.152976	-3.010800	3.773400	-11.359000	23.618317	0.000472	20.734678
538.145596	-3.033700	3.771600	-11.440000	23.613232	0.000474	20.744754
539.152361	-3.012800	3.771900	-11.363000	23.620830	0.000472	20.738145
540.146474	-2.998200	3.772700	-11.310000	23.631082	0.000476	20.720922
541.150251	-2.996200	3.770900	-11.297000	23.635388	0.000473	20.738516
542.146166	-2.998600	3.771000	-11.307000	23.646887	0.000473	20.741035
543.145770	-2.969200	3.771200	-11.196000	23.641108	0.000473	20.743302
544.149167	-3.014100	3.770300	-11.363000	23.641551	0.000473	20.750385
545.147716	-3.003100	3.770100	-11.320000	23.644320	0.000475	20.730400
546.152103	-2.976100	3.771800	-11.224000	23.653080	0.000475	20.736811
547.152314	-2.994400	3.770700	-11.291000	23.656962	0.000473	20.748765
548.152423	-2.995400	3.771200	-11.295000	23.666219	0.000475	20.757571
549.154064	-3.013000	3.769500	-11.357000	23.659100	0.000474	20.762762
550.150349	-3.002500	3.768700	-11.315000	23.678817	0.000474	20.733216
551.152581	-3.016200	3.767400	-11.362000	23.692527	0.000475	20.739375
552.152431	-3.008500	3.768900	-11.338000	23.677398	0.000474	20.742699
553.162456	-3.013700	3.767700	-11.355000	23.664027	0.000474	20.732613
554.150751	-2.995600	3.769800	-11.292000	23.695414	0.000473	20.742743
555.157833	-3.026100	3.767700	-11.401000	23.676176	0.000475	20.754277
556.151976	-2.981700	3.767800	-11.234000	23.715706	0.000472	20.750760
557.154758	-2.980900	3.767400	-11.230000	23.697084	0.000476	20.764333
558.158159	-2.994500	3.767100	-11.280000	23.696513	0.000475	20.751906
559.150016	-2.979600	3.767500	-11.225000	23.705424	0.000473	20.759893
560.153504	-3.011400	3.765800	-11.339000	23.705277	0.000476	20.737933
561.154694	-2.996500	3.765700	-11.283000	23.690916	0.000473	20.760994
562.156940	-3.019400	3.764600	-11.366000	23.704853	0.000472	20.759794
563.155890	-3.008600	3.764500	-11.325000	23.724539	0.000475	20.762461
564.153779	-2.977000	3.764600	-11.206000	23.705651	0.000475	20.763913
565.153370	-3.010600	3.764300	-11.331000	23.720657	0.000474	20.733912
566.154035	-2.997600	3.764000	-11.282000	23.703557	0.000476	20.735735
567.154603	-2.998100	3.764100	-11.283000	23.734456	0.000473	20.759601
568.154520	-2.989300	3.765100	-11.254000	23.712316	0.000475	20.762061
569.155062	-2.985000	3.763500	-11.234000	23.713292	0.000474	20.761617
570.160161	-2.986700	3.762900	-11.238000	23.711676	0.000474	20.761419
571.153658	-3.006700	3.763400	-11.313000	23.738737	0.000477	20.742082
572.151993	-3.023500	3.761200	-11.371000	23.733382	0.000475	20.752360
573.158497	-3.018100	3.761200	-11.351000	23.733515	0.000476	20.753916
574.155391	-2.989500	3.762800	-11.248000	23.721219	0.000474	20.750123
575.157310	-3.009700	3.761700	-11.320000	23.733466	0.000474	20.766195
576.155963	-3.020400	3.761600	-11.361000	23.737801	0.000475	20.752998
577.155873	-3.005700	3.762100	-11.307000	23.757585	0.000476	20.753867
578.172597	-3.011400	3.760500	-11.324000	23.750914	0.000475	20.747653
579.157148	-3.015300	3.759500	-11.335000	23.767644	0.000474	20.760160
580.158956	-2.985400	3.761500	-11.228000	23.765427	0.000473	20.763627
581.158672	-2.983100	3.760700	-11.218000	23.768639	0.000474	20.747881
582.162797	-3.012300	3.759400	-11.324000	23.752565	0.000473	20.762111
583.156917	-3.024000	3.758900	-11.366000	23.768619	0.000475	20.756870
584.169550	-2.993200	3.759800	-11.253000	23.796649	0.000473	20.757473
585.159147	-3.004400	3.758700	-11.292000	23.789531	0.000473	20.768354
586.168632	-3.004300	3.758200	-11.290000	23.770964	0.000475	20.744522
587.169654	-2.986500	3.758400	-11.224000	23.789757	0.000475	20.762417
588.160153	-3.005100	3.758600	-11.294000	23.806131	0.000474	20.761765
589.165124	-2.977300	3.757700	-11.187000	23.786669	0.000477	20.766907
590.161262	-2.987000	3.758700	-11.227000	23.775299	0.000476	20.773526
591.163746	-3.031400	3.757500	-11.389000	23.806437	0.000474	20.768710
592.167108	-2.984300	3.756800	-11.210000	23.809496	0.000474	20.762294
593.171184	-2.992700	3.757500	-11.244000	23.815673	0.000474	20.784609
594.165387	-3.002200	3.756200	-11.276000	23.795910	0.000475	20.760526
595.165685	-2.988900	3.757000	-11.228000	23.801413	0.000473	20.778371
596.167382	-3.019900	3.756000	-11.342000	23.818417	0.000476	20.768868
597.171164	-2.999300	3.756100	-11.265000	23.817846	0.000475	20.772563
598.176217	-3.026000	3.756100	-11.365000	23.826358	0.000472	20.777779
599.166239	-2.984000	3.755900	-11.207000	23.849504	0.000474	20.770167
600.168796	-2.991400	3.755900	-11.235000	23.822678	0.000474	20.778831
601.165251	-3.009400	3.753600	-11.295000	23.830791	0.000473	20.774163
602.170774	-2.994700	3.754800	-11.242000	23.820989	0.000474	20.765283
603.169417	-2.981400	3.755100	-11.195000	23.837417	0.000475	20.778436
604.167675	-2.985000	3.754800	-11.207000	23.840426	0.000475	20.797575
605.172043	-2.993000	3.752900	-11.232000	23.852603	0.000476	20.769007
606.168231	-3.005900	3.754100	-11.283000	23.849790	0.000475	20.772825
607.176148	-2.983500	3.752900	-11.196000	23.854667	0.000474	20.781982
608.184263	-3.017900	3.752200	-11.323000	23.844441	0.000474	20.784057
609.173834	-2.997800	3.753400	-11.251000	23.855888	0.000474	20.771827
610.168143	-2.994900	3.753200	-11.240000	23.858859	0.000473	20.775754
611.176339	-3.003700	3.751500	-11.268000	23.872690	0.000475	20.794365
612.168442	-2.993000	3.750800	-11.225000	23.864154	0.000474	20.779641
613.184045	-3.010600	3.751200	-11.291000	23.885236	0.000474	20.793668
614.174842	-2.994300	3.751600	-11.232000	23.887073	0.000474	20.793140
615.170240	-2.994900	3.751200	-11.234000	23.873237	0.000474	20.790645
616.167367	-3.016800	3.750200	-11.312000	23.877345	0.000474	20.772953
617.171518	-2.993800	3.752200	-11.231000	23.902879	0.000474	20.775324
618.180660	-3.011500	3.750500	-11.293000	23.898998	0.000475	20.802252
619.168709	-3.017900	3.749000	-11.313000	23.891004	0.000474	20.797555
620.171456	-3.036800	3.749100	-11.383000	23.875429	0.000477	20.772455
621.167939	-2.982600	3.749400	-11.182000	23.889019	0.000473	20.771383
622.169549	-3.003000	3.748800	-11.256000	23.884137	0.000475	20.793041
623.171690	-2.996500	3.749500	-11.234000	23.877769	0.000473	20.785232
624.173106	-3.001700	3.748300	-11.250000	23.924103	0.000474	20.781908
625.189886	-2.989900	3.748300	-11.205000	23.918005	0.000474	20.805191
626.180926	-2.999500	3.747100	-11.239000	23.916557	0.000473	20.798049
627.174305	-3.001600	3.747500	-11.248000	23.922453	0.000472	20.808228
628.174947	-3.013400	3.746100	-11.287000	23.930619	0.000474	20.783701
629.183262	-2.987400	3.747000	-11.193000	23.905356	0.000475	20.807206
630.172229	-3.012000	3.747200	-11.286000	23.924394	0.000473	20.786467
631.174529	-2.995900	3.747300	-11.226000	23.929614	0.000474	20.804030
632.171186	-2.990200	3.747200	-11.203000	23.931811	0.000475	20.789638
633.173410	-3.025500	3.744900	-11.329000	23.942282	0.000474	20.813888
634.172281	-2.990800	3.745900	-11.203000	23.949769	0.000474	20.794369
635.182951	-3.018200	3.745200	-11.303000	23.956586	0.000475	20.791247
636.175431	-3.004600	3.745100	-11.252000	23.960644	0.000472	20.789627
637.171725	-2.979200	3.745500	-11.158000	23.947272	0.000473	20.806563
638.171624	-2.989900	3.744700	-11.195000	23.970219	0.000474	20.819143
639.176665	-3.000000	3.743500	-11.230000	23.960383	0.000474	20.800271
640.181919	-2.981200	3.744600	-11.162000	23.975336	0.000475	20.798671
641.171898	-2.966400	3.743700	-11.104000	23.947242	0.000475	20.827870
642.182783	-3.000800	3.743900	-11.234000	23.977202	0.000476	20.794853
643.182061	-3.001000	3.741700	-11.227000	23.985511	0.000473	20.793702
644.179220	-3.007300	3.741800	-11.251000	23.979113	0.000472	20.803407
645.171238	-2.983300	3.742700	-11.165000	23.981448	0.000474	20.812386
646.176633	-3.009100	3.741400	-11.258000	23.983935	0.000474	20.811561
647.196663	-3.005300	3.742100	-11.245000	23.986767	0.000473	20.812979
648.172730	-3.008800	3.741800	-11.258000	23.990249	0.000474	20.815996
649.176685	-3.000300	3.741900	-11.226000	24.000124	0.000474	20.810726
650.172815	-2.989000	3.742500	-11.185000	24.013160	0.000473	20.831386
651.175083	-2.987400	3.740700	-11.174000	24.005733	0.000472	20.815878
652.179525	-3.003800	3.741000	-11.237000	23.992746	0.000473	20.811388
653.174026	-3.001100	3.740400	-11.225000	23.999961	0.000474	20.829055
654.173366	-2.992600	3.740800	-11.194000	24.019218	0.000473	20.811383
655.176950	-3.005300	3.739600	-11.237000	24.023173	0.000475	20.823409
656.178476	-3.019100	3.738100	-11.284000	24.028024	0.000473	20.820214
657.180207	-3.002600	3.739800	-11.227000	24.033195	0.000473	20.823503
658.185173	-3.005800	3.739900	-11.241000	24.024803	0.000472	20.810346
659.190484	-3.001000	3.738300	-11.218000	24.019951	0.000474	20.827291
660.179512	-3.001000	3.739700	-11.222000	24.035401	0.000473	20.829035
661.175143	-3.026900	3.737800	-11.313000	24.042365	0.000472	20.833174
662.181148	-3.002800	3.738000	-11.224000	24.035603	0.000472	20.822125
663.186736	-3.004500	3.738100	-11.230000	24.045251	0.000472	20.826585
664.177810	-3.003800	3.739200	-11.231000	24.055726	0.000474	20.829504
665.182178	-3.006500	3.736500	-11.233000	24.047443	0.000471	20.831154
666.182443	-3.001000	3.736500	-11.213000	24.063635	0.000473	20.836013
667.179262	-2.989800	3.736800	-11.171000	24.058405	0.000472	20.836932
668.185085	-3.001100	3.735600	-11.210000	24.081227	0.000473	20.836586
669.181840	-2.992200	3.735900	-11.178000	24.077917	0.000472	20.836586
670.178654	-2.992400	3.736700	-11.181000	24.067910	0.000471	20.832240
671.180172	-3.006600	3.735500	-11.230000	24.081123	0.000473	20.835534
672.180787	-3.005400	3.734400	-11.222000	24.089082	0.000471	20.850628
673.183041	-2.990500	3.735200	-11.170000	24.088437	0.000473	20.846662
674.187795	-2.995700	3.736300	-11.192000	24.099586	0.000471	20.834137
675.184851	-2.998800	3.735100	-11.200000	24.079178	0.000474	20.833109
676.191644	-2.990600	3.734600	-11.168000	24.098665	0.000472	20.834635
677.198412	-2.997800	3.733900	-11.193000	24.092519	0.000473	20.839377
678.183692	-3.030100	3.733600	-11.311000	24.109361	0.000469	20.841095
679.184002	-3.012000	3.732900	-11.242000	24.078607	0.000471	20.851502
680.187089	-3.011300	3.733800	-11.242000	24.102418	0.000469	20.835554
681.181133	-2.979100	3.734400	-11.124000	24.078557	0.000470	20.831065
682.187119	-3.017000	3.732900	-11.261000	24.118472	0.000470	20.855922
683.184721	-3.011700	3.732900	-11.241000	24.102600	0.000469	20.857073
684.188846	-3.014300	3.731700	-11.247000	24.112957	0.000468	20.847546
685.185977	-3.001700	3.732500	-11.203000	24.118851	0.000469	20.849665
686.185775	-3.019500	3.731700	-11.267000	24.128508	0.000470	20.840859
687.193882	-3.021700	3.731300	-11.274000	24.113252	0.000470	20.862066
688.184086	-2.987000	3.731900	-11.146000	24.115517	0.000471	20.861493
689.189839	-2.982800	3.731300	-11.128000	24.120969	0.000469	20.841832
690.189289	-2.997200	3.731200	-11.183000	24.135728	0.000469	20.856633
691.185735	-2.978600	3.730400	-11.110000	24.133339	0.000471	20.858505
692.185085	-2.982400	3.730000	-11.123000	24.132620	0.000470	20.841190
693.188629	-2.997900	3.730400	-11.183000	24.123810	0.000470	20.842785
694.185727	-3.013600	3.727900	-11.233000	24.153495	0.000471	20.848850
695.202273	-2.997100	3.730100	-11.178000	24.164895	0.000469	20.852223
696.197548	-2.998100	3.728400	-11.177000	24.143321	0.000470	20.854292
697.197267	-2.990400	3.728800	-11.150000	24.171366	0.000466	20.862506
698.189085	-2.992100	3.728100	-11.154000	24.139667	0.000467	20.850154
699.194622	-3.013000	3.727000	-11.229000	24.153151	0.000467	20.856090
700.194759	-3.002200	3.728200	-11.192000	24.164073	0.000467	20.865622
701.198193	-2.999700	3.727600	-11.181000	24.155391	0.000467	20.865449
702.210843	-2.993300	3.727400	-11.156000	24.151412	0.000468	20.867622
703.197569	-2.994800	3.726900	-11.161000	24.153574	0.000467	20.878325
704.203136	-3.002700	3.726400	-11.188000	24.153500	0.000467	20.880147
705.198247	-2.979100	3.726700	-11.101000	24.169726	0.000468	20.882197
706.190622	-2.971200	3.728600	-11.077000	24.166510	0.000469	20.867119
707.192899	-2.982100	3.726000	-11.110000	24.176167	0.000467	20.862106
708.191130	-3.046900	3.724700	-11.348000	24.159124	0.000467	20.864926
709.193786	-3.000700	3.724100	-11.174000	24.186917	0.000466	20.853922
710.194381	-3.013300	3.724800	-11.223000	24.190945	0.000466	20.863652
711.195649	-3.016900	3.724000	-11.234000	24.204925	0.000466	20.880043
712.194676	-2.986600	3.724900	-11.124000	24.186690	0.000466	20.871712
713.199512	-2.995300	3.724900	-11.156000	24.187611	0.000466	20.877851
714.199601	-3.015800	3.723200	-11.227000	24.190428	0.000466	20.882098
715.196891	-3.033900	3.723100	-11.294000	24.205255	0.000467	20.879426
716.204219	-3.031100	3.723300	-11.284000	24.217004	0.000465	20.878883
717.194366	-2.976700	3.724400	-11.085000	24.214365	0.000467	20.884770
718.194932	-2.989900	3.724100	-11.133000	24.227477	0.000464	20.870897
719.195201	-3.000900	3.723600	-11.172000	24.197401	0.000466	20.862540
720.202342	-2.999600	3.722700	-11.165000	24.191999	0.000465	20.881303
721.201818	-3.020700	3.722300	-11.243000	24.218373	0.000466	20.893057
722.197379	-3.002700	3.721800	-11.175000	24.214232	0.000464	20.884637
723.200754	-3.009400	3.722100	-11.200000	24.226714	0.000464	20.871554
724.206163	-2.993600	3.721700	-11.140000	24.238788	0.000464	20.886034
725.200867	-3.004800	3.721800	-11.182000	24.238665	0.000463	20.881170
726.199511	-3.013100	3.720900	-11.211000	24.232968	0.000464	20.898213
727.199559	-2.990600	3.720800	-11.126000	24.222303	0.000465	20.874241
728.197937	-2.980300	3.720600	-11.087000	24.251212	0.000465	20.875737
729.201693	-3.000200	3.720200	-11.161000	24.254870	0.000464	20.895053
730.199767	-2.984600	3.721200	-11.106000	24.245219	0.000465	20.884425
731.212484	-2.983700	3.720600	-11.100000	24.245328	0.000462	20.913454
732.203335	-2.996300	3.719300	-11.144000	24.264482	0.000465	20.886203
733.209579	-3.001100	3.719600	-11.162000	24.237789	0.000463	20.896411
734.200090	-3.010000	3.719000	-11.193000	24.250808	0.000463	20.893349
735.200599	-3.019800	3.719100	-11.229000	24.262232	0.000462	20.882050
736.201397	-3.000300	3.718100	-11.154000	24.263355	0.000463	20.904985
737.204978	-3.015400	3.719100	-11.214000	24.257185	0.000462	20.887892
738.199120	-2.998300	3.718000	-11.147000	24.267245	0.000463	20.881388
739.201262	-2.999700	3.718800	-11.154000	24.281120	0.000464	20.892935
740.207228	-3.003800	3.718800	-11.170000	24.260829	0.000463	20.898659
741.203242	-3.006100	3.717100	-11.173000	24.270736	0.000462	20.907173
742.208824	-2.989900	3.716500	-11.111000	24.268353	0.000464	20.886767
743.205107	-2.992900	3.717200	-11.124000	24.284154	0.000460	20.903563
744.202155	-3.008000	3.715600	-11.176000	24.273883	0.000461	20.870504
745.201389	-2.988200	3.716600	-11.105000	24.273735	0.000463	20.895958
746.201631	-3.004600	3.715300	-11.161000	24.282249	0.000460	20.898333
747.203303	-3.003800	3.716100	-11.162000	24.273224	0.000459	20.893548
748.204826	-3.012200	3.714900	-11.189000	24.317557	0.000461	20.884915
749.202583	-3.006700	3.714600	-11.167000	24.302388	0.000460	20.892931
750.203491	-3.020800	3.715000	-11.220000	24.312511	0.000458	20.908300
751.218456	-3.010700	3.714500	-11.181000	24.316204	0.000462	20.907263
752.210302	-3.004700	3.713600	-11.157000	24.310832	0.000461	20.890022
753.207782	-2.996200	3.713900	-11.127000	24.307848	0.000460	20.893667
754.207187	-3.000500	3.713600	-11.142000	24.332186	0.000460	20.879676
755.205080	-2.969600	3.714500	-11.029000	24.324038	0.000461	20.904691
756.225497	-2.993200	3.712900	-11.112000	24.319883	0.000458	20.907160
757.222680	-2.988100	3.713300	-11.095000	24.319164	0.000459	20.864243
758.212398	-2.988800	3.712600	-11.096000	24.329317	0.000459	20.881065
759.209699	-3.003800	3.712300	-11.150000	24.314122	0.000460	20.870091
760.207947	-2.977100	3.712700	-11.053000	24.306491	0.000459	20.852953
761.209858	-3.010500	3.711500	-11.172000	24.337668	0.000459	20.858149
762.207762	-3.005800	3.711800	-11.156000	24.318613	0.000458	20.853260
763.216890	-3.022100	3.710400	-11.212000	24.318870	0.000457	20.870111
764.211330	-3.006400	3.710300	-11.153000	24.343552	0.000457	20.870215
765.210667	-3.004200	3.711400	-11.148000	24.319874	0.000455	20.871119
766.206519	-2.981100	3.711300	-11.062000	24.316669	0.000455	20.847517
767.210367	-2.973600	3.711100	-11.034000	24.333193	0.000456	20.860299
768.208204	-2.984100	3.710200	-11.071000	24.340485	0.000456	20.862872
769.209698	-2.979500	3.711400	-11.057000	24.349318	0.000455	20.873629
770.219964	-3.010100	3.709300	-11.164000	24.338649	0.000457	20.875254
771.220266	-2.985900	3.710100	-11.076000	24.332706	0.000458	20.865500
772.213032	-3.007500	3.709600	-11.156000	24.353435	0.000456	20.836509
773.210983	-3.012600	3.708500	-11.171000	24.337921	0.000457	20.868360
774.209244	-2.991100	3.708700	-11.092000	24.334047	0.000455	20.845034
775.213547	-3.021100	3.707900	-11.201000	24.349142	0.000454	20.844056
776.215550	-3.006900	3.708000	-11.149000	24.350920	0.000456	20.845840
777.211679	-3.016300	3.707200	-11.181000	24.344726	0.000455	20.848161
778.212238	-3.002200	3.707300	-11.128000	24.340699	0.000454	20.831320
779.212814	-3.003900	3.708000	-11.138000	24.364785	0.000455	20.840309
780.212296	-3.014500	3.705900	-11.170000	24.362555	0.000455	20.865097
781.212987	-3.003500	3.707800	-11.135000	24.358922	0.000455	20.882788
782.213590	-2.989200	3.707500	-11.081000	24.353157	0.000454	20.879376
783.217716	-3.004200	3.707100	-11.135000	24.359528	0.000455	20.844044
784.223019	-3.017400	3.705100	-11.179000	24.341400	0.000455	20.835342
785.217225	-2.993700	3.706500	-11.095000	24.358066	0.000452	20.850637
786.218198	-2.996200	3.705200	-11.100000	24.377179	0.000454	20.838044
787.226412	-2.995200	3.705700	-11.098000	24.359746	0.000452	20.844736
788.218870	-3.007700	3.704300	-11.139000	24.368333	0.000452	20.845289
789.215809	-2.984900	3.705000	-11.058000	24.366496	0.000452	20.838232
790.221641	-2.979300	3.705600	-11.040000	24.361297	0.000455	20.852930
791.232919	-2.981900	3.704400	-11.045000	24.378140	0.000453	20.853706
792.222954	-3.009800	3.703300	-11.146000	24.360909	0.000452	20.836894
793.217518	-3.002400	3.704400	-11.122000	24.341609	0.000452	20.834129
794.220059	-2.984300	3.704700	-11.054000	24.365960	0.000451	20.854763
795.221758	-3.002800	3.704500	-11.121000	24.338035	0.000451	20.849983
796.220250	-2.966400	3.705000	-10.989000	24.372943	0.000452	20.834742
797.226998	-2.998200	3.703100	-11.102000	24.364804	0.000452	20.828474
798.219445	-3.000800	3.701600	-11.106000	24.395758	0.000451	20.836767
799.225340	-2.988400	3.702100	-11.063000	24.362003	0.000451	20.823768
800.220259	-2.986000	3.702800	-11.055000	24.374421	0.000451	20.841440
801.220508	-2.993300	3.702200	-11.081000	24.394843	0.000449	20.820676
802.220549	-2.980500	3.701800	-11.032000	24.391215	0.000450	20.850701
803.235465	-2.994300	3.702200	-11.085000	24.384923	0.000452	20.812147
804.220236	-2.998400	3.701400	-11.097000	24.388974	0.000453	20.832333
805.230170	-3.010700	3.700600	-11.141000	24.394179	0.000451	20.822855
806.221714	-2.984900	3.701200	-11.047000	24.405399	0.000450	20.831266
807.235510	-3.006200	3.699800	-11.122000	24.401618	0.000451	20.829844
808.222135	-3.009600	3.699000	-11.131000	24.387488	0.000449	20.836057
809.228604	-2.984100	3.701100	-11.044000	24.414275	0.000449	20.818835
810.229804	-2.987800	3.700400	-11.055000	24.424108	0.000450	20.839603
811.229942	-2.979700	3.699600	-11.022000	24.411440	0.000449	20.832585
812.224248	-2.986900	3.698700	-11.047000	24.425594	0.000448	20.830663
813.225748	-2.987100	3.699900	-11.051000	24.421616	0.000447	20.816716
814.227783	-2.986000	3.698500	-11.043000	24.408003	0.000449	20.789309
815.227568	-2.981900	3.699300	-11.030000	24.426239	0.000448	20.810922
816.227420	-3.001300	3.698100	-11.098000	24.412582	0.000447	20.813342
817.226307	-3.011300	3.697600	-11.134000	24.439866	0.000448	20.815110
818.238171	-2.994400	3.697000	-11.069000	24.446802	0.000447	20.814957
819.230884	-3.007300	3.695600	-11.113000	24.435588	0.000447	20.831206
820.231204	-2.995100	3.696700	-11.070000	24.442046	0.000447	20.842901
821.231648	-3.008200	3.696800	-11.119000	24.431225	0.000446	20.834416
822.231074	-2.987400	3.696900	-11.043000	24.443366	0.000447	20.821466
823.230030	-2.999400	3.697000	-11.088000	24.449387	0.000445	20.825610
824.230830	-2.983500	3.697400	-11.030000	24.455801	0.000444	20.828252
825.233775	-2.972300	3.697700	-10.989000	24.458637	0.000446	20.807390
826.233066	-2.988500	3.695800	-11.044000	24.450927	0.000444	20.815302
827.236582	-2.977900	3.696900	-11.008000	24.462167	0.000445	20.799077
828.235947	-3.002600	3.695100	-11.094000	24.463491	0.000444	20.835493
829.232837	-2.998700	3.696000	-11.082000	24.456077	0.000445	20.850813
830.233410	-2.990000	3.695300	-11.048000	24.467119	0.000444	20.831072
831.236167	-3.012900	3.693400	-11.127000	24.457815	0.000445	20.818893
832.238758	-3.001300	3.693600	-11.084000	24.448269	0.000443	20.835868
833.231656	-2.996000	3.694900	-11.069000	24.476350	0.000443	20.825161
834.232227	-3.014600	3.694200	-11.135000	24.454438	0.000443	20.823091
835.234715	-3.016700	3.693300	-11.140000	24.471728	0.000443	20.805350
836.238784	-3.008400	3.694000	-11.112000	24.457279	0.000443	20.815510
837.248009	-2.994100	3.691900	-11.054000	24.488392	0.000441	20.826810
838.236198	-3.009300	3.692200	-11.110000	24.458421	0.000442	20.832303
839.234096	-3.014600	3.692100	-11.128000	24.459519	0.000443	20.806378
840.247797	-2.992200	3.692100	-11.047000	24.472998	0.000442	20.810892
841.237337	-3.015300	3.691600	-11.129000	24.464589	0.000442	20.813836
842.236126	-3.003600	3.691700	-11.087000	24.480688	0.000441	20.811495
843.243510	-3.005100	3.691000	-11.090000	24.469242	0.000441	20.825141
844.236875	-2.969800	3.691500	-10.961000	24.457727	0.000441	20.811218
845.236883	-2.994200	3.690800	-11.050000	24.467750	0.000443	20.831231
846.243290	-2.993300	3.690100	-11.045000	24.491582	0.000441	20.816261
847.242588	-3.001400	3.691100	-11.078000	24.486679	0.000441	20.801384
848.238611	-2.978900	3.691800	-10.996000	24.485113	0.000440	20.800762
849.246850	-3.002000	3.689600	-11.075000	24.485236	0.000438	20.798989
850.241545	-3.000200	3.690000	-11.069000	24.493541	0.000439	20.821071
851.242608	-2.995300	3.688800	-11.048000	24.489066	0.000438	20.819901
852.239238	-3.000400	3.688400	-11.066000	24.467007	0.000438	20.806778
853.244723	-2.999300	3.689300	-11.065000	24.475164	0.000439	20.807376
854.245862	-2.989600	3.688400	-11.026000	24.495786	0.000438	20.808151
855.239420	-3.001500	3.689000	-11.072000	24.492749	0.000437	20.825966
856.238722	-3.003600	3.687700	-11.075000	24.493626	0.000437	20.797449
857.239144	-3.030800	3.686900	-11.173000	24.497002	0.000435	20.824544
858.241612	-3.010400	3.687600	-11.099000	24.507380	0.000437	20.813145
859.256881	-3.001700	3.687400	-11.068000	24.495418	0.000437	20.801617
860.238479	-3.010800	3.686900	-11.100000	24.501941	0.000437	20.805317
861.240200	-3.004600	3.687700	-11.080000	24.491563	0.000435	20.776413
862.247182	-2.983000	3.688200	-11.001000	24.499130	0.000436	20.823833
863.239572	-3.016000	3.685500	-11.115000	24.531788	0.000437	20.809658
864.243426	-3.029700	3.687600	-11.172000	24.513012	0.000439	20.805520
865.240993	-3.009700	3.687200	-11.096000	24.525453	0.000438	20.822742
866.242097	-3.004900	3.685700	-11.074000	24.536524	0.000436	20.803031
867.243074	-2.994100	3.685300	-11.033000	24.491451	0.000435	20.792421
868.249532	-2.997100	3.685400	-11.043000	24.518123	0.000434	20.806854
869.242431	-2.989700	3.685500	-11.017000	24.536475	0.000435	20.793024
870.244895	-3.010500	3.685500	-11.094000	24.521805	0.000434	20.800591
871.248089	-2.983600	3.685400	-10.995000	24.505093	0.000435	20.809428
872.244196	-2.992900	3.684900	-11.028000	24.547079	0.000435	20.793707
873.243822	-2.995900	3.683700	-11.034000	24.531140	0.000434	20.800473
874.249680	-2.996300	3.683800	-11.036000	24.505398	0.000432	20.805467
875.255182	-2.997200	3.682800	-11.037000	24.536846	0.000432	20.806673
876.244928	-2.991200	3.683500	-11.018000	24.494116	0.000433	20.795570
877.245291	-2.992300	3.683500	-11.021000	24.536103	0.000434	20.783642
878.246930	-3.001800	3.682600	-11.053000	24.539913	0.000433	20.803586
879.264021	-2.975300	3.683300	-10.958000	24.521365	0.000432	20.819115
880.258672	-2.964600	3.684000	-10.920000	24.532652	0.000434	20.793931
881.245176	-2.984700	3.682300	-10.989000	24.531092	0.000433	20.798529
882.254639	-3.009500	3.682100	-11.080000	24.541716	0.000433	20.787851
883.248494	-2.981400	3.683100	-10.980000	24.551866	0.000432	20.784760
884.256379	-3.043900	3.680700	-11.202000	24.552517	0.000432	20.799162
885.253898	-3.014700	3.681700	-11.098000	24.545310	0.000431	20.790035
886.259631	-3.007600	3.681000	-11.069000	24.557573	0.000431	20.808503
887.254221	-3.011300	3.680300	-11.082000	24.545581	0.000429	20.787462
888.251628	-2.999500	3.680000	-11.037000	24.555308	0.000430	20.787739
889.261305	-2.997000	3.680200	-11.028000	24.538282	0.000430	20.775397
890.263697	-3.001400	3.680000	-11.044000	24.571908	0.000429	20.775945
891.250265	-3.013600	3.679900	-11.089000	24.565489	0.000431	20.771401
892.256214	-2.987100	3.679900	-10.991000	24.556166	0.000430	20.796660
893.261227	-3.013700	3.679900	-11.089000	24.564175	0.000430	20.803273
894.251983	-3.025400	3.679200	-11.130000	24.564063	0.000429	20.789410
895.265117	-3.012300	3.678900	-11.080000	24.550648	0.000429	20.774528
896.251915	-3.001200	3.679100	-11.041000	24.568163	0.000429	20.794947
897.251807	-2.983300	3.680300	-10.979000	24.559829	0.000428	20.770937
898.255570	-3.009000	3.678100	-11.067000	24.564554	0.000431	20.806973
899.255789	-3.003200	3.678500	-11.046000	24.562142	0.000427	20.804553
900.259130	-2.999500	3.678400	-11.032000	24.561995	0.000428	20.787810
901.255879	-2.993400	3.678600	-11.011000	24.579056	0.000427	20.788807
902.251976	-3.001100	3.677100	-11.034000	24.570752	0.000427	20.777630
903.258549	-2.998900	3.676700	-11.026000	24.583659	0.000426	20.781097
904.255699	-2.986900	3.677200	-10.982000	24.569684	0.000427	20.766601
905.257872	-2.999100	3.677300	-11.028000	24.574907	0.000425	20.764729
906.257931	-2.987600	3.676400	-10.982000	24.573962	0.000425	20.792230
907.257598	-3.001300	3.676500	-11.033000	24.594331	0.000426	20.783745
908.257474	-2.987400	3.677000	-10.983000	24.599092	0.000425	20.779513
909.258235	-3.019200	3.675600	-11.096000	24.587844	0.000425	20.764907
910.255778	-2.989200	3.675400	-10.985000	24.589906	0.000426	20.784995
911.257607	-3.006800	3.675200	-11.049000	24.578368	0.000425	20.791910
912.260431	-2.994300	3.674800	-11.003000	24.591176	0.000423	20.756871
913.263522	-3.005200	3.675200	-11.042000	24.579908	0.000421	20.772592
914.261653	-3.025900	3.674100	-11.116000	24.594238	0.000423	20.771323
915.257583	-3.004400	3.674900	-11.040000	24.597650	0.000425	20.778066
916.260679	-2.998700	3.673700	-11.015000	24.593845	0.000422	20.765713
917.260942	-3.038000	3.672800	-11.158000	24.569695	0.000424	20.763293
918.257232	-2.994600	3.673500	-10.998000	24.574770	0.000423	20.773127
919.257703	-2.999900	3.673700	-11.020000	24.617767	0.000422	20.760793
920.269964	-2.988900	3.674100	-10.981000	24.610611	0.000421	20.763569
921.255732	-3.001800	3.672600	-11.023000	24.592132	0.000421	20.797185
922.265407	-2.997000	3.672400	-11.005000	24.596164	0.000420	20.767091
923.269987	-2.994300	3.672100	-10.993000	24.602410	0.000421	20.764825
924.264305	-3.016600	3.671500	-11.074000	24.615046	0.000422	20.768020
925.268698	-2.983600	3.672800	-10.957000	24.599600	0.000420	20.781919
926.265062	-2.993600	3.671700	-10.990000	24.605841	0.000418	20.775380
927.264057	-2.987200	3.672200	-10.968000	24.603582	0.000418	20.777380
928.261701	-3.016800	3.671300	-11.074000	24.606093	0.000419	20.800288
929.259065	-3.017700	3.670300	-11.074000	24.611867	0.000419	20.765304
930.260094	-3.019400	3.672000	-11.086000	24.604153	0.000418	20.763254
931.258512	-3.008200	3.670200	-11.039000	24.610228	0.000420	20.768875
932.269182	-2.991900	3.670000	-10.979000	24.583967	0.000418	20.772872
933.260847	-2.995800	3.670600	-10.996000	24.613033	0.000419	20.753198
934.262764	-2.994400	3.670300	-10.990000	24.627786	0.000419	20.763259
935.266192	-2.993600	3.669200	-10.983000	24.619083	0.000419	20.759743
936.267753	-2.987300	3.669400	-10.961000	24.597174	0.000418	20.758622
937.269000	-3.004500	3.666900	-11.016000	24.616549	0.000415	20.747242
938.264015	-3.000200	3.668400	-11.005000	24.615677	0.000416	20.750635
939.264780	-3.016400	3.667600	-11.062000	24.609884	0.000415	20.761418
940.264403	-3.010400	3.666500	-11.036000	24.620954	0.000417	20.772526
941.268204	-3.002000	3.668300	-11.012000	24.639359	0.000415	20.758276
942.265082	-3.001800	3.667600	-11.007000	24.620733	0.000416	20.759502
943.275750	-3.002900	3.667700	-11.013000	24.620211	0.000414	20.739063
944.274095	-2.999300	3.666600	-10.996000	24.601241	0.000416	20.782144
945.263506	-2.995700	3.667000	-10.984000	24.621959	0.000415	20.761681
946.269644	-3.009400	3.667600	-11.037000	24.619272	0.000414	20.758984
947.268577	-3.026300	3.665300	-11.091000	24.612612	0.000412	20.756569
948.265206	-3.004500	3.666700	-11.014000	24.633675	0.000415	20.753521
949.269547	-3.005400	3.666500	-11.018000	24.642161	0.000412	20.752553
950.272745	-3.008100	3.666900	-11.030000	24.636821	0.000412	20.771378
951.265766	-2.986100	3.666000	-10.945000	24.635128	0.000413	20.736012
952.268987	-2.983100	3.666000	-10.935000	24.630875	0.000411	20.763988
953.265460	-2.966500	3.667700	-10.879000	24.637924	0.000410	20.750199
954.274044	-2.992000	3.665500	-10.966000	24.642202	0.000410	20.747853
955.269489	-2.989300	3.664400	-10.953000	24.644761	0.000411	20.738092
956.267301	-3.003400	3.663700	-11.002000	24.627007	0.000410	20.758210
957.272331	-2.989300	3.664500	-10.953000	24.635745	0.000409	20.735683
958.269456	-3.037400	3.662700	-11.124000	24.604153	0.000411	20.758512
959.270522	-2.985900	3.664900	-10.941000	24.639580	0.000412	20.739057
960.270401	-3.008200	3.663400	-11.019000	24.654971	0.000411	20.753079
961.273057	-3.009200	3.662800	-11.021000	24.653958	0.000408	20.746847
962.275143	-3.003200	3.663400	-11.001000	24.644483	0.000408	20.741606
963.276191	-2.992600	3.662900	-10.961000	24.639787	0.000408	20.757284
964.274515	-2.978100	3.664000	-10.912000	24.655160	0.000410	20.733353
965.288070	-3.001900	3.661500	-10.991000	24.666156	0.000408	20.731111
966.285955	-2.979500	3.661900	-10.909000	24.653502	0.000409	20.726948
967.274667	-2.999800	3.661300	-10.983000	24.678950	0.000408	20.754855
968.273398	-3.011900	3.661200	-11.027000	24.640773	0.000408	20.738358
969.274052	-2.995800	3.660700	-10.966000	24.659478	0.000407	20.738161
970.275046	-3.000900	3.661300	-10.986000	24.689050	0.000405	20.733696
971.270571	-3.006300	3.660000	-11.001000	24.658440	0.000407	20.756086
972.287974	-2.999500	3.660500	-10.979000	24.660961	0.000407	20.745339
973.268060	-2.997300	3.659300	-10.966000	24.675205	0.000405	20.733553
974.278488	-3.012800	3.659000	-11.023000	24.669668	0.000407	20.742697
975.270782	-2.991100	3.658900	-10.943000	24.677155	0.000405	20.727923
976.282506	-2.994800	3.659800	-10.959000	24.679444	0.000403	20.734488
977.275211	-3.006200	3.659900	-11.001000	24.666489	0.000403	20.715797
978.278701	-2.982500	3.660700	-10.917000	24.678357	0.000403	20.748571
979.274648	-3.027000	3.658400	-11.073000	24.657921	0.000403	20.730434
980.277739	-2.988900	3.658600	-10.935000	24.694054	0.000403	20.728759
981.270086	-2.993700	3.658500	-10.951000	24.670207	0.000402	20.720476
982.274954	-2.998600	3.658000	-10.968000	24.662155	0.000404	20.745115
983.277441	-2.971600	3.658700	-10.871000	24.697372	0.000403	20.734461
984.281643	-3.012900	3.657100	-11.018000	24.659117	0.000405	20.745860
985.284463	-2.995800	3.658000	-10.958000	24.687529	0.000402	20.748765
986.279560	-2.999000	3.656800	-10.966000	24.702196	0.000402	20.739775
987.274031	-2.988300	3.657700	-10.929000	24.671291	0.000402	20.734367
988.272979	-2.992000	3.657600	-10.943000	24.696261	0.000401	20.747096
989.274470	-2.994600	3.656100	-10.948000	24.697506	0.000401	20.754985
990.275327	-3.018400	3.655700	-11.033000	24.707276	0.000401	20.725906
991.273421	-2.999100	3.655400	-10.962000	24.714546	0.000401	20.739367
992.277194	-3.005700	3.656900	-10.990000	24.706986	0.000399	20.747428
993.287100	-3.016700	3.653800	-11.022000	24.686374	0.000400	20.752348
994.279223	-3.005700	3.655000	-10.985000	24.682520	0.000401	20.712917
995.284719	-3.007100	3.653600	-10.986000	24.709428	0.000400	20.740869
996.282758	-2.990300	3.655400	-10.930000	24.703291	0.000401	20.739926
997.285136	-2.982800	3.655000	-10.901000	24.718608	0.000400	20.733011
998.285112	-2.985200	3.654100	-10.907000	24.694436	0.000399	20.732937
999.283004	-3.017500	3.652600	-11.020000	24.718908	0.000397	20.739477
1000.285401	-2.997200	3.653800	-10.951000	24.717988	0.000398	20.744717
1001.285464	-3.041100	3.651400	-11.102000	24.730868	0.000397	20.737254
1002.283015	-3.004300	3.653300	-10.974000	24.740201	0.000397	20.740455
1003.285486	-2.983300	3.652400	-10.896000	24.717354	0.000397	20.727011
1004.284991	-2.995200	3.652500	-10.939000	24.731273	0.000395	20.754256
1005.283469	-2.986900	3.652100	-10.908000	24.689771	0.000396	20.729204
1006.287572	-3.023900	3.650900	-11.039000	24.706224	0.000397	20.715367
1007.290431	-3.005700	3.651100	-10.972000	24.732641	0.000397	20.739981
1008.285193	-3.014600	3.650100	-11.003000	24.707077	0.000398	20.733767
1009.280758	-3.001900	3.650500	-10.958000	24.720105	0.000396	20.761541
1010.287198	-3.001600	3.651400	-10.960000	24.702032	0.000397	20.738189
1011.287566	-3.002500	3.650300	-10.959000	24.730549	0.000396	20.744520
1012.280438	-3.003000	3.650900	-10.963000	24.716079	0.000394	20.721938
1013.297225	-3.036800	3.649200	-11.081000	24.720252	0.000393	20.754576
1014.302121	-3.017300	3.650500	-11.013000	24.732941	0.000394	20.726057
1015.295122	-3.013700	3.649500	-10.996000	24.712367	0.000395	20.734809
1016.289863	-2.981400	3.650100	-10.882000	24.752229	0.000393	20.738301
1017.284329	-3.022600	3.648100	-11.025000	24.743729	0.000393	20.762015
1018.287159	-3.004400	3.648300	-10.960000	24.738035	0.000392	20.745394
1019.289947	-2.993300	3.648600	-10.920000	24.730150	0.000392	20.757871
1020.289242	-3.001300	3.648700	-10.949000	24.752229	0.000394	20.746836
1021.289626	-3.008200	3.648500	-10.974000	24.747405	0.000394	20.737254
1022.289310	-2.997400	3.647600	-10.930000	24.739747	0.000392	20.742371
1023.298700	-2.996900	3.648300	-10.932000	24.736115	0.000391	20.751054
1024.301681	-2.997600	3.647300	-10.932000	24.730770	0.000391	20.749010
1025.303181	-2.991900	3.647500	-10.911000	24.742257	0.000390	20.751528
1026.290088	-3.008100	3.647300	-10.970000	24.751437	0.000389	20.738454
1027.294294	-3.002600	3.646900	-10.948000	24.750467	0.000390	20.740326
1028.291054	-3.012300	3.647000	-10.986000	24.770011	0.000390	20.764208
1029.290624	-2.982700	3.647400	-10.879000	24.746122	0.000389	20.758252
1030.293328	-2.996300	3.646100	-10.924000	24.735924	0.000389	20.761768
1031.293546	-2.971300	3.645200	-10.829000	24.747938	0.000388	20.746324
1032.306687	-3.009400	3.644900	-10.968000	24.763058	0.000388	20.743953
1033.301325	-2.999600	3.644700	-10.931000	24.759253	0.000388	20.754360
1034.293177	-2.995200	3.645000	-10.916000	24.772660	0.000390	20.746477
1035.297438	-2.997200	3.643900	-10.920000	24.757639	0.000390	20.761749
1036.290491	-3.005400	3.643100	-10.948000	24.782607	0.000387	20.761201
1037.298564	-3.021400	3.645200	-11.013000	24.781790	0.000387	20.763701
1038.289124	-3.005900	3.642800	-10.949000	24.769831	0.000388	20.746008
1039.300981	-3.002000	3.643400	-10.936000	24.781839	0.000388	20.759008
1040.290029	-2.994500	3.643200	-10.909000	24.782686	0.000387	20.750375
1041.304084	-2.997200	3.642100	-10.914000	24.772371	0.000387	20.768947
1042.294371	-3.040400	3.642000	-11.072000	24.775782	0.000386	20.779483
1043.294440	-2.986600	3.641200	-10.874000	24.783839	0.000386	20.760067
1044.288812	-2.995400	3.642400	-10.909000	24.816960	0.000386	20.756797
1045.295605	-3.001100	3.641500	-10.927000	24.766013	0.000384	20.764937
1046.290900	-3.001100	3.641900	-10.929000	24.778598	0.000384	20.770929
1047.290725	-2.997700	3.641400	-10.915000	24.800902	0.000386	20.774821
1048.293303	-3.014800	3.640200	-10.974000	24.799362	0.000381	20.763317
1049.291580	-2.983400	3.641300	-10.862000	24.767215	0.000382	20.753341
1050.293242	-2.998400	3.639200	-10.911000	24.790360	0.000382	20.766138
1051.293738	-2.990000	3.639900	-10.882000	24.773835	0.000384	20.742440
1052.310094	-3.019100	3.638100	-10.983000	24.795312	0.000384	20.777271
1053.300318	-3.016900	3.639300	-10.978000	24.812867	0.000382	20.784457
1054.297595	-3.002100	3.639800	-10.926000	24.805657	0.000382	20.775325
1055.296906	-2.979500	3.639800	-10.844000	24.816652	0.000382	20.764548
1056.303514	-2.998000	3.639600	-10.911000	24.809541	0.000382	20.785387
1057.295046	-3.007400	3.638800	-10.942000	24.804816	0.000380	20.759782
1058.296150	-2.999100	3.637100	-10.908000	24.823935	0.000378	20.764271
1059.304642	-2.983400	3.639100	-10.854000	24.802650	0.000379	20.766617
1060.301832	-3.008500	3.637500	-10.943000	24.815185	0.000380	20.764973
1061.302111	-2.995000	3.637600	-10.894000	24.808787	0.000379	20.769457
1062.299489	-3.013600	3.637100	-10.960000	24.830132	0.000378	20.777603
1063.308530	-2.991900	3.637700	-10.882000	24.802282	0.000378	20.783791
1064.313398	-3.014600	3.637000	-10.964000	24.823119	0.000380	20.781944
1065.302682	-3.004900	3.636900	-10.927000	24.815830	0.000379	20.770836
1066.299743	-3.005800	3.637100	-10.931000	24.822671	0.000379	20.793349
1067.306629	-2.989700	3.636800	-10.872000	24.816057	0.000378	20.766321
1068.306754	-2.994000	3.635600	-10.884000	24.834715	0.000376	20.790737
1069.310113	-2.973400	3.636600	-10.811000	24.826708	0.000377	20.773692
1070.315536	-2.973500	3.636300	-10.811000	24.839311	0.000377	20.783970
1071.313332	-3.010300	3.633500	-10.937000	24.845728	0.000378	20.787566
1072.310498	-2.992800	3.634500	-10.877000	24.835163	0.000377	20.781703
1073.315096	-3.003200	3.634200	-10.914000	24.841176	0.000374	20.767823
1074.310976	-2.996700	3.634100	-10.890000	24.838445	0.000372	20.763660
1075.319920	-3.014400	3.632600	-10.950000	24.846569	0.000374	20.770392
1076.318669	-3.007100	3.633300	-10.925000	24.842421	0.000375	20.795152
1077.316684	-3.006300	3.632700	-10.920000	24.863829	0.000374	20.764480
1078.300190	-3.001100	3.633400	-10.903000	24.847066	0.000372	20.770890
1079.308375	-3.019600	3.632200	-10.967000	24.841790	0.000372	20.773182
1080.301438	-2.992400	3.632000	-10.868000	24.876076	0.000374	20.782462
1081.309988	-3.002700	3.632100	-10.906000	24.884389	0.000374	20.779425
1082.320200	-2.986000	3.632700	-10.846000	24.869689	0.000373	20.770836
1083.310558	-2.997300	3.632300	-10.886000	24.865762	0.000371	20.791551
1084.323302	-2.993800	3.631200	-10.870000	24.881322	0.000372	20.791994
1085.315421	-3.011700	3.631000	-10.934000	24.874727	0.000371	20.802919
1086.322278	-2.979700	3.631200	-10.819000	24.858836	0.000370	20.807359
1087.307744	-3.020000	3.630400	-10.963000	24.861794	0.000370	20.782352
1088.312580	-3.037300	3.628200	-11.019000	24.879924	0.000371	20.803867
1089.306514	-3.002100	3.630300	-10.898000	24.860131	0.000370	20.797753
1090.311934	-3.006200	3.629200	-10.909000	24.859997	0.000368	20.796196
1091.310225	-3.003700	3.628700	-10.898000	24.865592	0.000369	20.801338
1092.317822	-2.989700	3.628700	-10.848000	24.867452	0.000368	20.795143
1093.319758	-3.030600	3.628000	-10.994000	24.870096	0.000368	20.794003
1094.313859	-2.986800	3.629200	-10.838000	24.868077	0.000367	20.786288
1095.322630	-3.001500	3.627900	-10.889000	24.874213	0.000367	20.806671
1096.313341	-3.015700	3.627500	-10.938000	24.877422	0.000366	20.807046
1097.316622	-3.017700	3.627400	-10.946000	24.866207	0.000366	20.793419
1098.311343	-2.978900	3.628100	-10.807000	24.908780	0.000366	20.807699
1099.318602	-2.996100	3.627500	-10.868000	24.894779	0.000366	20.816880
1100.322622	-3.012100	3.625400	-10.919000	24.898509	0.000365	20.813986
1101.313084	-3.019400	3.625400	-10.945000	24.898381	0.000363	20.804848
1102.313928	-2.996400	3.626300	-10.865000	24.889086	0.000363	20.801209
1103.325191	-3.006000	3.626500	-10.901000	24.879711	0.000363	20.803653
1104.311208	-3.002100	3.625300	-10.883000	24.878220	0.000364	20.808795
1105.308683	-3.003300	3.625600	-10.887000	24.890478	0.000363	20.825366
1106.319256	-3.007800	3.626100	-10.905000	24.889785	0.000363	20.798591
1107.310194	-2.982800	3.625800	-10.814000	24.886901	0.000362	20.822249
1108.316750	-3.028300	3.625200	-10.977000	24.888417	0.000364	20.811443
1109.314947	-3.009400	3.623600	-10.904000	24.914528	0.000362	20.797821
1110.318779	-2.999100	3.623500	-10.865000	24.899362	0.000361	20.813893
1111.333779	-2.994300	3.623200	-10.848000	24.908829	0.000363	20.811541
1112.311946	-3.004400	3.623200	-10.885000	24.910350	0.000361	20.807852
1113.319830	-2.989800	3.623100	-10.831000	24.915620	0.000361	20.816461
1114.326449	-2.995000	3.623200	-10.850000	24.913264	0.000360	20.831639
1115.324615	-2.993200	3.622000	-10.840000	24.925669	0.000359	20.820383
1116.336079	-2.990400	3.622000	-10.830000	24.926338	0.000359	20.817261
1117.319285	-3.007800	3.622200	-10.893000	24.937750	0.000359	20.826818
1118.323822	-3.006600	3.621500	-10.886000	24.924798	0.000358	20.834207
1119.327932	-2.993400	3.621900	-10.841000	24.908791	0.000358	20.829521
1120.323423	-2.988000	3.620800	-10.818000	24.896453	0.000359	20.825198
1121.325403	-3.021700	3.621100	-10.941000	24.897527	0.000358	20.815844
1122.333807	-3.008500	3.620200	-10.891000	24.915233	0.000358	20.824132
1123.326810	-3.008500	3.618900	-10.887000	24.916718	0.000357	20.807132
1124.323275	-2.995900	3.620700	-10.846000	24.942804	0.000360	20.812926
1125.324038	-3.000200	3.618700	-10.855000	24.899736	0.000356	20.835605
1126.320325	-3.012700	3.619100	-10.902000	24.921639	0.000356	20.820131
1127.330480	-3.004500	3.619300	-10.873000	24.931338	0.000356	20.830814
1128.330620	-2.974700	3.619500	-10.767000	24.923529	0.000355	20.833881
1129.321889	-2.988200	3.619400	-10.815000	24.936903	0.000354	20.829762
1130.336245	-2.999400	3.618100	-10.851000	24.929197	0.000355	20.824398
1131.338487	-3.018700	3.617900	-10.920000	24.939492	0.000353	20.831307
1132.324978	-2.993400	3.617900	-10.828000	24.946898	0.000353	20.843111
1133.329438	-3.018200	3.615700	-10.911000	24.947616	0.000353	20.837668
1134.326347	-2.997800	3.617100	-10.843000	24.949063	0.000353	20.839595
1135.333642	-2.999600	3.616000	-10.846000	24.951867	0.000353	20.835772
1136.327026	-3.003800	3.615700	-10.860000	24.942646	0.000352	20.833155
1137.330658	-2.963200	3.615900	-10.713000	24.954573	0.000352	20.836591
1138.322053	-3.013300	3.615200	-10.893000	24.962113	0.000350	20.840839
1139.325257	-2.993400	3.616400	-10.825000	24.939112	0.000350	20.850944
1140.340292	-2.985800	3.616000	-10.795000	24.961389	0.000351	20.841061
1141.333072	-2.990200	3.614900	-10.809000	24.965499	0.000352	20.821005
1142.336015	-2.984500	3.614500	-10.787000	24.956720	0.000349	20.829737
1143.343950	-2.997200	3.614400	-10.832000	24.968057	0.000350	20.839220
1144.334262	-2.994800	3.614900	-10.825000	24.943419	0.000349	20.844835
1145.344996	-3.012200	3.613600	-10.883000	24.969529	0.000351	20.846535
1146.359795	-3.013000	3.611500	-10.881000	24.972590	0.000348	20.836183
1147.329759	-3.000700	3.614000	-10.843000	24.958645	0.000349	20.837359
1148.329710	-3.028400	3.611500	-10.935000	24.984853	0.000348	20.853233
1149.334640	-2.990500	3.612900	-10.803000	24.964314	0.000348	20.840204
1150.334909	-3.018100	3.611700	-10.899000	24.967498	0.000347	20.850986
1151.346372	-3.016400	3.611200	-10.892000	24.972620	0.000348	20.830050
1152.347400	-3.006100	3.611400	-10.854000	24.987865	0.000346	20.860049
1153.333055	-3.011300	3.611800	-10.875000	24.970362	0.000345	20.834895
1154.337950	-3.016000	3.609900	-10.886000	24.970190	0.000345	20.840886
1155.341048	-3.004400	3.609500	-10.843000	24.970215	0.000346	20.825739
1156.332822	-3.023300	3.610200	-10.914000	24.957736	0.000345	20.833128
1157.354062	-2.987100	3.609700	-10.781000	24.999257	0.000345	20.840664
1158.342272	-3.010100	3.610000	-10.866000	24.976484	0.000343	20.843885
1159.340681	-2.994800	3.609500	-10.809000	24.976386	0.000345	20.863225
1160.348342	-3.002200	3.608900	-10.834000	24.977508	0.000345	20.848231
1161.348471	-2.986400	3.609700	-10.779000	24.952245	0.000343	20.869814
1162.347255	-2.995000	3.609300	-10.809000	24.971760	0.000346	20.860005
1163.335846	-3.004700	3.607800	-10.840000	24.975023	0.000343	20.858065
1164.354702	-2.990400	3.607400	-10.787000	24.987655	0.000344	20.853674
1165.340535	-3.010800	3.606400	-10.857000	25.003164	0.000340	20.858810
1166.337511	-3.007700	3.605500	-10.843000	24.982729	0.000342	20.854894
1167.349686	-2.994900	3.607500	-10.803000	24.997771	0.000342	20.850079
1168.336914	-3.002600	3.606000	-10.827000	24.998293	0.000339	20.877153
1169.344033	-3.002100	3.605900	-10.825000	24.997815	0.000339	20.864346
1170.336158	-3.014600	3.606500	-10.872000	25.018526	0.000339	20.872332
1171.356665	-2.993800	3.605600	-10.793000	24.987005	0.000340	20.861082
1172.337806	-2.992500	3.606800	-10.792000	25.001250	0.000340	20.861630
1173.339316	-3.006300	3.603800	-10.832000	25.013734	0.000339	20.866100
1174.345551	-3.019900	3.604400	-10.884000	24.982827	0.000338	20.864475
1175.339492	-2.985200	3.605100	-10.760000	25.011096	0.000337	20.858238
1176.344716	-3.002700	3.604900	-10.823000	25.019501	0.000339	20.869518
1177.343624	-2.983100	3.604400	-10.751000	25.009139	0.000336	20.854850
1178.342963	-2.991200	3.604300	-10.780000	25.004729	0.000338	20.858484
1179.340891	-3.021600	3.602900	-10.886000	25.017114	0.000334	20.866649
1180.343531	-2.988800	3.602700	-10.767000	25.044481	0.000335	20.877997
1181.340271	-3.011800	3.602300	-10.848000	25.010796	0.000335	20.855565
1182.353848	-2.998700	3.602100	-10.801000	25.036678	0.000335	20.887233
1183.345184	-3.004400	3.602200	-10.822000	25.022955	0.000336	20.873933
1184.347014	-3.015600	3.600700	-10.856000	25.032752	0.000334	20.873810
1185.359264	-2.982600	3.600600	-10.738000	25.003508	0.000334	20.877646
1186.346955	-3.013300	3.602500	-10.854000	25.041530	0.000333	20.873138
1187.353115	-3.006200	3.602100	-10.827000	25.037052	0.000334	20.888557
1188.344135	-2.994300	3.601000	-10.781000	25.044653	0.000332	20.872955
1189.345037	-3.001200	3.599600	-10.802000	25.037268	0.000332	20.886402
1190.347330	-3.001200	3.599300	-10.801000	25.045421	0.000334	20.873250
1191.346584	-2.984300	3.601200	-10.746000	25.054267	0.000332	20.901569
1192.367121	-2.982600	3.599500	-10.735000	25.037360	0.000334	20.874643
1193.346471	-3.025500	3.599000	-10.888000	25.056771	0.000331	20.891280
1194.355382	-2.995000	3.599500	-10.780000	25.070567	0.000331	20.890905
1195.348146	-2.958400	3.599100	-10.646000	25.044754	0.000331	20.901977
1196.354431	-3.001800	3.598300	-10.800000	25.058428	0.000334	20.881091
1197.353674	-3.000300	3.598500	-10.796000	25.049625	0.000331	20.905443
1198.363062	-3.025300	3.597200	-10.881000	25.052227	0.000330	20.890039
1199.365980	-3.016800	3.596600	-10.849000	25.049436	0.000329	20.897194
1200.350940	-2.989800	3.596000	-10.750000	25.052467	0.000329	20.885539
1201.349095	-3.015600	3.596100	-10.843000	25.061172	0.000328	20.896646
1202.349438	-2.997000	3.596000	-10.777000	25.065191	0.000328	20.894517
1203.352388	-2.960600	3.596300	-10.646000	25.061977	0.000328	20.887498
1204.353709	-3.016300	3.595500	-10.844000	25.048972	0.000326	20.868755
1205.356039	-3.018300	3.594600	-10.849000	25.066498	0.000326	20.885399
1206.367531	-3.023200	3.594700	-10.866000	25.078897	0.000327	20.886939
1207.360091	-3.006300	3.595100	-10.807000	25.079541	0.000328	20.898964
1208.354007	-3.004700	3.595000	-10.800000	25.062635	0.000327	20.880573
1209.355742	-3.014600	3.592900	-10.829000	25.080469	0.000325	20.877139
1210.356787	-3.001600	3.594500	-10.788000	25.083781	0.000326	20.878092
1211.357174	-3.019400	3.593400	-10.849000	25.071642	0.000324	20.867804
1212.359910	-2.978100	3.594200	-10.702000	25.081084	0.000323	20.878703
1213.355500	-2.979900	3.595200	-10.712000	25.086304	0.000326	20.885366
1214.365023	-3.017000	3.592900	-10.839000	25.093831	0.000322	20.865897
1215.359381	-2.991800	3.593000	-10.748000	25.088109	0.000323	20.871531
1216.353268	-3.013800	3.591700	-10.824000	25.090814	0.000322	20.887522
1217.358423	-2.986200	3.593400	-10.728000	25.079920	0.000321	20.896026
1218.363423	-2.988600	3.592600	-10.736000	25.084319	0.000321	20.875787
1219.371484	-2.996500	3.591300	-10.761000	25.096024	0.000323	20.896544
1220.358140	-2.995600	3.591100	-10.757000	25.094454	0.000321	20.877900
1221.370489	-3.029700	3.590800	-10.877000	25.107930	0.000320	20.857765
1222.354608	-3.002900	3.590900	-10.783000	25.098306	0.000320	20.879871
1223.355648	-3.000000	3.590900	-10.771000	25.112722	0.000320	20.876799
1224.354193	-2.999200	3.590300	-10.768000	25.101853	0.000320	20.853561
1225.354751	-2.995000	3.589500	-10.750000	25.111127	0.000320	20.860500
1226.356455	-2.991000	3.590600	-10.738000	25.124205	0.000319	20.852766
1227.383446	-3.001600	3.589400	-10.774000	25.118139	0.000318	20.862323
1228.366274	-3.010100	3.588200	-10.799000	25.100864	0.000318	20.859207
1229.377140	-3.009900	3.588200	-10.799000	25.110232	0.000317	20.855808
1230.392539	-2.998100	3.588600	-10.758000	25.120844	0.000318	20.858875
1231.385159	-3.012800	3.587600	-10.808000	25.113508	0.000317	20.857201
1232.378262	-2.996900	3.589200	-10.755000	25.125720	0.000316	20.847175
1233.362355	-3.007700	3.586500	-10.786000	25.112397	0.000315	20.852292
1234.359818	-2.991000	3.586800	-10.727000	25.134124	0.000315	20.863197
1235.359528	-2.996200	3.586700	-10.745000	25.128352	0.000314	20.859774
1236.362467	-3.019900	3.585000	-10.825000	25.132860	0.000314	20.853394
1237.366121	-3.016100	3.585800	-10.814000	25.113170	0.000313	20.849275
1238.371547	-3.012900	3.585300	-10.801000	25.105214	0.000313	20.834176
1239.367526	-2.999100	3.584800	-10.750000	25.108796	0.000314	20.864798
1240.365142	-2.979600	3.584800	-10.681000	25.127645	0.000312	20.864754
1241.368430	-3.004100	3.585900	-10.771000	25.101544	0.000312	20.845665
1242.386111	-2.995600	3.585200	-10.739000	25.096146	0.000309	20.853523
1243.365159	-2.991800	3.584100	-10.722000	25.112187	0.000309	20.854452
1244.370167	-2.966800	3.584500	-10.633000	25.122854	0.000310	20.832444
1245.359156	-3.022800	3.582100	-10.827000	25.116296	0.000311	20.859050
1246.381134	-3.005400	3.584000	-10.771000	25.112940	0.000309	20.849519
1247.381472	-3.028700	3.580500	-10.844000	25.136783	0.000310	20.852591
1248.389510	-3.009500	3.582300	-10.779000	25.107603	0.000307	20.851747
1249.399153	-3.001700	3.581800	-10.750000	25.102033	0.000309	20.843785
1250.394597	-2.969500	3.583100	-10.638000	25.108179	0.000307	20.843791
1251.364743	-3.025600	3.580900	-10.834000	25.104695	0.000307	20.858785
1252.375059	-2.975900	3.582300	-10.659000	25.123962	0.000311	20.840669
1253.364696	-2.993200	3.581200	-10.718000	25.125188	0.000308	20.855649
1254.365688	-3.003600	3.580200	-10.753000	25.122949	0.000308	20.836807
1255.373990	-2.989600	3.580500	-10.704000	25.139486	0.000306	20.857675
1256.391569	-2.986700	3.580200	-10.692000	25.142252	0.000306	20.843382
1257.389814	-3.002400	3.580400	-10.749000	25.118237	0.000304	20.812163
1258.402216	-2.994800	3.580200	-10.721000	25.128082	0.000306	20.839589
1259.380860	-3.006600	3.578800	-10.758000	25.138773	0.000306	20.823770
1260.400169	-2.989800	3.579000	-10.700000	25.152495	0.000307	20.807674
1261.385977	-3.008700	3.577300	-10.762000	25.136909	0.000306	20.819527
1262.390978	-3.006800	3.577000	-10.753000	25.141987	0.000305	20.830789
1263.387861	-2.984100	3.578600	-10.678000	25.139153	0.000304	20.827470
1264.372790	-2.984800	3.577900	-10.678000	25.143379	0.000306	20.823178
1265.371691	-3.018900	3.576100	-10.795000	25.131645	0.000305	20.834631
1266.384174	-3.006400	3.576000	-10.750000	25.140177	0.000304	20.839877
1267.371266	-2.996700	3.576000	-10.714000	25.122130	0.000304	20.833615
1268.366494	-3.015100	3.575400	-10.779000	25.127129	0.000302	20.824409
1269.379175	-2.998000	3.576200	-10.721000	25.140925	0.000303	20.824981
1270.370824	-2.991600	3.575400	-10.695000	25.146322	0.000302	20.832296
1271.377278	-2.974000	3.575600	-10.634000	25.142618	0.000301	20.809137
1272.373755	-3.001100	3.575700	-10.729000	25.152989	0.000297	20.811963
1273.376197	-3.005900	3.574700	-10.744000	25.141678	0.000301	20.818152
1274.389264	-2.989500	3.574100	-10.684000	25.143863	0.000300	20.825086
1275.375903	-2.995900	3.574900	-10.709000	25.135017	0.000299	20.808145
1276.378517	-3.005400	3.573800	-10.739000	25.119332	0.000300	20.821323
1277.376237	-3.018600	3.574100	-10.788000	25.129122	0.000299	20.797012
1278.373735	-3.005300	3.572000	-10.734000	25.151897	0.000298	20.813238
1279.385914	-3.019500	3.572800	-10.787000	25.158480	0.000297	20.824113
1280.371929	-3.007900	3.572400	-10.745000	25.157958	0.000298	20.820744
1281.379037	-2.987200	3.573400	-10.674000	25.156940	0.000296	20.798860
1282.382426	-2.975100	3.574000	-10.631000	25.159479	0.000296	20.800934
1283.374367	-3.001000	3.572500	-10.720000	25.160596	0.000297	20.810590
1284.379614	-3.011000	3.570400	-10.749000	25.158510	0.000296	20.820350
1285.376915	-2.996200	3.572400	-10.702000	25.157038	0.000296	20.817450
1286.367594	-3.017100	3.569600	-10.769000	25.172231	0.000294	20.828435
1287.376680	-2.999500	3.571300	-10.711000	25.180364	0.000294	20.809573
1288.379978	-3.002700	3.570800	-10.721000	25.170397	0.000293	20.822326
1289.371141	-3.002500	3.568600	-10.713000	25.174145	0.000293	20.810916
1290.375434	-2.985800	3.570600	-10.660000	25.157620	0.000294	20.789585
1291.381445	-3.000600	3.568300	-10.704000	25.163981	0.000291	20.824894
1292.379467	-3.002100	3.568500	-10.712000	25.147578	0.000291	20.808902
1293.385650	-2.989000	3.568800	-10.667000	25.177236	0.000293	20.801217
1294.373225	-2.975500	3.568100	-10.616000	25.178633	0.000290	20.825379
1295.381356	-3.018400	3.568000	-10.769000	25.161232	0.000292	20.801272
1296.376945	-3.000800	3.567700	-10.704000	25.183657	0.000289	20.797232
1297.381447	-3.012200	3.566900	-10.744000	25.157208	0.000290	20.815249
1298.382085	-2.989700	3.567100	-10.663000	25.149779	0.000290	20.788826
1299.376689	-2.990000	3.567800	-10.667000	25.150582	0.000289	20.815236
1300.385053	-3.002800	3.566600	-10.709000	25.140903	0.000288	20.811684
1301.380428	-3.027400	3.566400	-10.796000	25.154753	0.000288	20.793820
1302.384387	-3.016800	3.566200	-10.757000	25.144343	0.000288	20.788585
1303.384241	-3.007300	3.564600	-10.720000	25.158685	0.000285	20.827638
1304.393171	-2.997700	3.564800	-10.684000	25.190231	0.000287	20.810470
1305.384074	-2.998600	3.564800	-10.688000	25.152176	0.000287	20.798819
1306.384034	-2.994700	3.564600	-10.673000	25.172761	0.000284	20.805260
1307.381935	-2.997300	3.563800	-10.681000	25.163940	0.000284	20.801620
1308.388635	-2.987600	3.563800	-10.646000	25.158548	0.000284	20.791465
1309.385422	-3.032400	3.562600	-10.802000	25.164492	0.000285	20.775147
1310.382277	-3.006400	3.563600	-10.712000	25.168178	0.000283	20.795917
1311.379649	-3.006000	3.562000	-10.706000	25.166834	0.000282	20.792672
1312.379400	-3.010400	3.561800	-10.721000	25.162958	0.000284	20.787357
1313.382209	-2.979400	3.562900	-10.614000	25.177575	0.000282	20.793022
1314.385556	-3.017400	3.561200	-10.744000	25.153271	0.000282	20.778107
1315.386326	-2.973900	3.562400	-10.593000	25.174230	0.000281	20.796303
1316.380926	-2.995800	3.562100	-10.671000	25.197250	0.000281	20.795706
1317.387819	-3.000900	3.562700	-10.691000	25.166182	0.000283	20.797707
1318.393659	-3.006800	3.560800	-10.705000	25.179461	0.000280	20.786856
1319.379304	-3.018900	3.558300	-10.741000	25.175492	0.000279	20.786664
1320.386272	-3.002700	3.560100	-10.689000	25.175817	0.000281	20.777507
1321.383748	-2.995700	3.559700	-10.662000	25.182055	0.000280	20.778080
1322.383039	-2.984600	3.559100	-10.621000	25.194046	0.000278	20.793437
1323.384605	-3.014700	3.558900	-10.728000	25.174780	0.000279	20.768879
1324.389983	-2.977100	3.559200	-10.595000	25.195119	0.000279	20.789299
1325.386611	-3.004200	3.558900	-10.691000	25.188807	0.000279	20.783910
1326.398798	-3.000800	3.558300	-10.677000	25.174466	0.000275	20.787057
1327.386372	-3.012700	3.557400	-10.716000	25.188346	0.000276	20.811896
1328.385404	-3.011300	3.558100	-10.714000	25.178924	0.000278	20.796274
1329.381126	-2.994700	3.556000	-10.648000	25.177538	0.000277	20.790615
1330.394970	-3.000400	3.558100	-10.675000	25.181292	0.000276	20.781581
1331.385974	-3.004200	3.556600	-10.684000	25.157480	0.000276	20.781858
1332.396002	-2.994100	3.556200	-10.647000	25.176329	0.000275	20.764270
1333.393895	-3.012300	3.554800	-10.707000	25.177249	0.000273	20.759978
1334.382674	-3.000400	3.555700	-10.667000	25.153510	0.000275	20.795891
1335.390062	-3.011900	3.554800	-10.706000	25.162018	0.000274	20.780723
1336.391539	-2.990500	3.555600	-10.632000	25.181603	0.000275	20.779997
1337.386628	-2.999700	3.555200	-10.664000	25.187939	0.000274	20.798686
1338.390772	-2.994700	3.555500	-10.646000	25.174764	0.000274	20.777873
1339.391217	-2.994300	3.555300	-10.645000	25.176432	0.000271	20.771013
1340.397896	-3.037900	3.552300	-10.791000	25.195827	0.000273	20.806605
1341.392146	-2.999400	3.553300	-10.657000	25.170391	0.000272	20.764947
1342.387784	-3.012100	3.553100	-10.701000	25.165343	0.000273	20.784062
1343.394394	-2.998100	3.552500	-10.650000	25.183817	0.000273	20.770366
1344.401068	-3.003400	3.552600	-10.669000	25.177126	0.000272	20.781666
1345.398418	-3.012200	3.551800	-10.698000	25.194877	0.000269	20.744484
1346.391534	-3.004300	3.552000	-10.670000	25.187197	0.000270	20.773759
1347.385391	-3.020000	3.551100	-10.723000	25.182591	0.000268	20.769135
1348.392357	-2.985800	3.552000	-10.604000	25.197336	0.000269	20.787257
1349.391680	-3.005600	3.550800	-10.671000	25.184560	0.000269	20.763525
1350.392567	-3.006100	3.549500	-10.669000	25.200637	0.000266	20.777294
1351.403762	-2.994600	3.550300	-10.631000	25.187467	0.000267	20.776875
1352.394406	-2.995300	3.549300	-10.630000	25.207107	0.000267	20.768143
1353.399006	-2.960000	3.551000	-10.511000	25.177800	0.000268	20.765747
1354.396847	-2.998600	3.549400	-10.642000	25.180487	0.000265	20.763703
1355.393287	-2.990100	3.548800	-10.610000	25.197042	0.000265	20.775107
1356.389838	-3.007600	3.548400	-10.671000	25.177077	0.000264	20.761702
1357.394297	-3.011000	3.548000	-10.682000	25.197538	0.000265	20.779874
1358.398471	-3.019700	3.548400	-10.713000	25.219687	0.000266	20.772712
1359.391281	-3.004300	3.547300	-10.657000	25.198434	0.000262	20.773186
1360.400656	-3.011000	3.546700	-10.678000	25.198109	0.000262	20.766696
1361.392448	-3.014300	3.546000	-10.687000	25.197189	0.000264	20.781420
1362.396017	-3.001200	3.546400	-10.642000	25.207033	0.000262	20.767595
1363.400540	-3.008000	3.546400	-10.666000	25.186160	0.000263	20.756596
1364.398767	-3.011100	3.546900	-10.679000	25.204819	0.000261	20.769165
1365.400476	-2.994500	3.546400	-10.619000	25.215264	0.000262	20.768272
1366.402866	-3.017500	3.545200	-10.697000	25.213621	0.000260	20.747655
1367.396353	-3.008900	3.544900	-10.665000	25.210910	0.000262	20.775280
1368.392653	-3.001400	3.545500	-10.640000	25.212627	0.000260	20.767047
1369.400585	-3.005500	3.544300	-10.650000	25.208101	0.000258	20.748751
1370.397639	-3.015200	3.543000	-10.681000	25.217596	0.000259	20.757810
1371.398944	-3.009600	3.543900	-10.665000	25.234739	0.000260	20.773600
1372.390644	-2.990100	3.542800	-10.593000	25.222111	0.000260	20.755231
1373.403204	-3.021100	3.543200	-10.704000	25.239634	0.000258	20.775669
1374.406858	-2.975400	3.543900	-10.544000	25.209108	0.000258	20.763988
1375.396839	-2.999300	3.543900	-10.627000	25.223006	0.000257	20.752810
1376.401183	-3.017400	3.541200	-10.685000	25.211592	0.000257	20.756050
1377.400577	-2.988800	3.542900	-10.588000	25.218253	0.000254	20.778385
1378.417786	-3.042000	3.541400	-10.772000	25.212212	0.000255	20.771371
1379.404070	-3.003500	3.542100	-10.638000	25.236415	0.000255	20.758686
1380.399929	-3.003600	3.540600	-10.633000	25.213126	0.000254	20.759961
1381.400127	-2.991100	3.540700	-10.590000	25.224461	0.000254	20.755219
1382.398493	-2.993600	3.540100	-10.597000	25.209814	0.000256	20.755214
1383.407275	-2.990200	3.539800	-10.583000	25.216254	0.000254	20.740342
1384.397091	-2.985600	3.539000	-10.565000	25.186476	0.000253	20.754542
1385.415620	-2.974700	3.539300	-10.528000	25.213587	0.000253	20.755682
1386.406265	-3.008600	3.538100	-10.644000	25.220076	0.000251	20.757930
1387.400163	-2.979200	3.538500	-10.541000	25.203754	0.000251	20.747707
1388.408729	-2.984000	3.539100	-10.560000	25.219574	0.000253	20.778763
1389.409174	-2.984200	3.539500	-10.562000	25.238269	0.000251	20.761021
1390.402914	-3.004700	3.539100	-10.633000	25.212244	0.000251	20.755282
1391.399162	-2.990500	3.538300	-10.580000	25.223726	0.000251	20.749740
1392.409626	-3.007700	3.537400	-10.638000	25.226762	0.000250	20.757530
1393.405877	-2.977100	3.538100	-10.532000	25.227786	0.000248	20.771834
1394.406976	-3.014900	3.537000	-10.662000	25.225763	0.000248	20.758423
1395.407327	-2.970400	3.536100	-10.502000	25.235558	0.000249	20.750239
1396.408982	-3.005300	3.536000	-10.626000	25.233442	0.000247	20.750485
1397.405185	-3.012300	3.536500	-10.652000	25.232252	0.000248	20.752610
1398.414315	-2.998500	3.534800	-10.598000	25.233742	0.000247	20.762167
1399.411952	-2.972400	3.536200	-10.510000	25.207988	0.000248	20.745793
1400.400186	-2.987500	3.535800	-10.561000	25.223371	0.000245	20.754599
1401.414028	-3.010800	3.533300	-10.637000	25.243581	0.000247	20.751656
1402.411474	-3.004600	3.534900	-10.619000	25.226904	0.000247	20.755301
1403.408000	-3.015400	3.533100	-10.653000	25.249769	0.000243	20.741273
1404.430130	-3.016400	3.533100	-10.656000	25.221157	0.000246	20.736255
1405.412959	-2.983200	3.534400	-10.543000	25.235951	0.000244	20.753478
1406.411508	-3.016200	3.532900	-10.655000	25.221703	0.000242	20.739648
1407.412995	-2.994400	3.534000	-10.580000	25.200824	0.000244	20.746188
1408.405863	-2.994200	3.532700	-10.577000	25.231596	0.000242	20.744839
1409.409355	-3.001000	3.533100	-10.603000	25.223587	0.000242	20.747703
1410.418911	-2.984800	3.532000	-10.542000	25.217300	0.000243	20.757513
1411.411419	-3.006000	3.529900	-10.609000	25.222814	0.000242	20.744557
1412.424969	-2.996400	3.530500	-10.578000	25.218509	0.000242	20.743553
1413.407422	-3.008800	3.530500	-10.621000	25.227728	0.000240	20.734316
1414.415512	-3.000600	3.530100	-10.591000	25.247612	0.000240	20.750962
1415.407553	-2.983000	3.530500	-10.530000	25.227348	0.000237	20.721132
1416.416422	-2.983600	3.529600	-10.530000	25.245767	0.000241	20.728719
1417.408010	-3.008000	3.529900	-10.617000	25.243228	0.000238	20.756992
1418.413617	-3.007800	3.529000	-10.613000	25.231519	0.000238	20.735278
1419.412655	-3.008500	3.528100	-10.614000	25.221853	0.000239	20.731263
1420.406298	-3.010300	3.528200	-10.620000	25.226423	0.000238	20.744386
1421.415380	-3.014300	3.528300	-10.634000	25.241382	0.000236	20.736172
1422.411014	-3.010600	3.527900	-10.620000	25.221749	0.000236	20.726891
1423.415913	-3.015300	3.526200	-10.631000	25.218861	0.000235	20.738691
1424.412054	-2.980000	3.527500	-10.511000	25.224522	0.000238	20.736314
1425.416671	-2.994600	3.526900	-10.560000	25.246394	0.000234	20.738359
1426.422897	-3.002100	3.526500	-10.585000	25.241180	0.000236	20.710837
1427.414597	-2.983700	3.526000	-10.519000	25.241199	0.000235	20.714176
1428.423517	-2.993600	3.526800	-10.557000	25.247978	0.000236	20.735681
1429.425545	-2.999500	3.526100	-10.576000	25.228811	0.000234	20.740146
1430.417712	-3.015100	3.526200	-10.630000	25.232939	0.000233	20.740971
1431.417089	-3.007400	3.526000	-10.603000	25.233056	0.000232	20.726389
1432.409355	-3.017800	3.523800	-10.633000	25.217539	0.000235	20.733570
1433.416724	-2.982700	3.524100	-10.510000	25.219349	0.000232	20.747242
1434.415871	-2.979000	3.524400	-10.498000	25.239406	0.000232	20.737032
1435.408221	-2.987700	3.523400	-10.526000	25.249072	0.000233	20.744366
1436.412759	-2.988200	3.524900	-10.533000	25.224508	0.000232	20.736774
1437.419705	-2.985300	3.523700	-10.518000	25.242356	0.000231	20.732408
1438.421352	-2.990000	3.522900	-10.532000	25.256636	0.000231	20.744849
1439.419806	-3.005600	3.522400	-10.586000	25.229894	0.000230	20.745975
1440.411734	-3.000400	3.521800	-10.566000	25.248976	0.000230	20.752331
1441.413591	-3.000300	3.521100	-10.564000	25.238335	0.000230	20.748286
1442.416558	-3.022400	3.520900	-10.640000	25.236121	0.000229	20.735157
1443.416023	-2.990300	3.521900	-10.530000	25.227738	0.000229	20.741439
1444.411446	-2.980000	3.520700	-10.490000	25.256068	0.000229	20.739537
1445.417567	-3.024200	3.519700	-10.643000	25.256590	0.000229	20.745276
1446.424437	-2.974200	3.522700	-10.476000	25.239858	0.000226	20.750763
1447.419156	-3.018700	3.519300	-10.622000	25.240945	0.000225	20.746638
1448.414058	-3.016700	3.520600	-10.620000	25.237038	0.000227	20.746984
1449.431370	-2.989000	3.520900	-10.523000	25.238755	0.000226	20.731637
1450.419060	-3.007600	3.519200	-10.583000	25.247270	0.000226	20.754411
1451.421038	-2.992300	3.519200	-10.530000	25.251269	0.000227	20.758427
1452.422541	-3.001300	3.519000	-10.561000	25.254900	0.000226	20.740260
1453.421764	-2.985100	3.518800	-10.503000	25.233893	0.000223	20.758051
1454.431200	-2.979300	3.518900	-10.482000	25.236924	0.000223	20.746394
1455.422187	-2.997500	3.518300	-10.545000	25.251092	0.000223	20.737385
1456.416183	-3.004400	3.516800	-10.565000	25.260428	0.000224	20.757665
1457.429097	-2.992200	3.516600	-10.521000	25.278920	0.000223	20.777654
1458.420418	-3.018300	3.516100	-10.611000	25.236238	0.000224	20.747129
1459.421762	-3.007700	3.515800	-10.574000	25.241857	0.000224	20.744235
1460.427042	-3.022000	3.516600	-10.626000	25.254234	0.000223	20.729160
1461.414453	-2.969000	3.516400	-10.439000	25.258957	0.000222	20.750497
1462.419744	-3.002000	3.515400	-10.552000	25.263324	0.000221	20.755831
1463.415987	-3.001600	3.514100	-10.547000	25.261662	0.000221	20.754162
1464.432261	-3.009000	3.513500	-10.571000	25.248359	0.000223	20.758350
1465.427777	-3.004200	3.513300	-10.553000	25.261454	0.000218	20.765334
1466.417486	-3.022000	3.514200	-10.619000	25.230388	0.000220	20.766860
1467.425837	-3.020100	3.514800	-10.614000	25.248433	0.000219	20.766011
1468.422602	-3.023100	3.512600	-10.618000	25.264411	0.000218	20.732739
1469.422931	-2.998400	3.513400	-10.534000	25.252053	0.000219	20.759214
1470.422253	-3.004700	3.512100	-10.552000	25.277752	0.000219	20.761308
1471.422135	-3.000100	3.512900	-10.538000	25.272925	0.000217	20.768316
1472.420448	-3.007200	3.511500	-10.558000	25.273073	0.000218	20.757084
1473.435830	-3.003300	3.512000	-10.547000	25.267878	0.000219	20.767041
1474.422011	-2.990500	3.511900	-10.501000	25.277146	0.000216	20.753112
1475.418639	-2.998700	3.511400	-10.530000	25.266751	0.000218	20.766858
1476.424601	-3.007600	3.510800	-10.558000	25.246369	0.000217	20.754456
1477.423444	-3.022700	3.509300	-10.606000	25.288125	0.000215	20.757024
1478.420236	-3.000200	3.509100	-10.527000	25.272707	0.000215	20.759088
1479.422228	-3.011200	3.508800	-10.564000	25.263251	0.000216	20.773302
1480.424625	-2.999400	3.510900	-10.530000	25.270542	0.000216	20.761182
1481.424620	-2.998600	3.511100	-10.527000	25.289973	0.000214	20.765992
1482.444368	-3.001300	3.510000	-10.533000	25.259896	0.000214	20.782736
1483.419675	-2.995000	3.507800	-10.505000	25.260308	0.000214	20.782675
1484.423848	-3.016200	3.508000	-10.580000	25.239386	0.000213	20.777317
1485.424342	-3.017100	3.507200	-10.580000	25.256427	0.000212	20.768347
1486.421339	-3.034100	3.507200	-10.640000	25.260898	0.000212	20.764775
1487.434287	-2.995300	3.506700	-10.503000	25.244664	0.000209	20.762700
1488.428364	-2.997900	3.507400	-10.514000	25.240634	0.000210	20.767664
1489.426453	-2.994400	3.506300	-10.498000	25.240108	0.000210	20.775670
1490.432752	-3.009200	3.507400	-10.554000	25.264586	0.000210	20.777013
1491.430196	-3.014300	3.506500	-10.569000	25.260085	0.000208	20.778658
1492.427816	-3.005300	3.505800	-10.535000	25.250014	0.000212	20.769021
1493.426738	-3.017400	3.505400	-10.577000	25.276732	0.000210	20.771189
1494.431300	-3.012200	3.504900	-10.556000	25.266962	0.000209	20.774656
1495.427146	-3.017700	3.504100	-10.572000	25.264791	0.000208	20.768684
1496.422270	-3.014100	3.505100	-10.564000	25.281321	0.000207	20.777219
1497.428894	-2.985200	3.504200	-10.461000	25.281217	0.000208	20.776167
1498.427309	-3.012400	3.503300	-10.552000	25.270006	0.000207	20.800946
1499.424574	-2.993000	3.503100	-10.484000	25.274084	0.000205	20.777540
1500.428030	-3.018700	3.503200	-10.574000	25.283922	0.000208	20.780306
1501.424835	-3.004500	3.502200	-10.521000	25.291306	0.000206	20.773969
1502.434303	-2.982900	3.504200	-10.451000	25.292890	0.000205	20.775559
1503.428351	-3.002000	3.503800	-10.517000	25.285456	0.000205	20.782794
1504.427244	-2.999600	3.501900	-10.504000	25.296992	0.000206	20.786316
1505.433939	-3.010600	3.501300	-10.540000	25.276937	0.000203	20.764757
1506.436524	-3.019700	3.501800	-10.573000	25.254184	0.000204	20.789328
1507.429940	-3.029000	3.501400	-10.605000	25.273650	0.000201	20.772837
1508.433513	-3.000700	3.501100	-10.505000	25.289259	0.000202	20.793725
1509.431740	-3.007000	3.502000	-10.529000	25.326340	0.000202	20.782117
1510.432024	-3.016000	3.500100	-10.555000	25.280163	0.000202	20.771790
1511.433184	-2.970900	3.500700	-10.399000	25.308296	0.000201	20.791502
1512.434132	-2.993500	3.499600	-10.474000	25.290498	0.000200	20.794021
1513.436856	-2.999100	3.499400	-10.495000	25.293534	0.000200	20.782370
1514.432951	-2.988300	3.499100	-10.455000	25.302010	0.000202	20.797044
1515.438021	-3.020100	3.498000	-10.563000	25.312399	0.000200	20.792776
1516.429590	-2.997300	3.498700	-10.486000	25.293859	0.000198	20.801188
1517.439721	-2.999000	3.497700	-10.488000	25.309841	0.000197	20.785941
1518.437754	-3.002100	3.497800	-10.500000	25.305965	0.000198	20.782523
1519.453250	-3.000800	3.497300	-10.493000	25.292344	0.000198	20.804882
1520.434986	-3.006200	3.496600	-10.511000	25.307928	0.000197	20.787339
1521.437740	-2.995300	3.497000	-10.473000	25.307707	0.000196	20.800867
1522.439343	-3.017400	3.497300	-10.552000	25.291325	0.000199	20.773514
1523.435862	-2.995600	3.496800	-10.475000	25.312729	0.000197	20.795004
1524.433472	-3.022700	3.495300	-10.564000	25.314244	0.000196	20.795577
1525.432822	-3.009300	3.495300	-10.518000	25.300224	0.000196	20.799993
1526.438778	-2.967400	3.496200	-10.373000	25.318279	0.000196	20.797257
1527.436514	-3.025600	3.493900	-10.570000	25.288847	0.000196	20.789517
1528.442307	-3.014300	3.494000	-10.530000	25.311269	0.000195	20.792115
1529.444287	-2.986000	3.494200	-10.432000	25.315647	0.000195	20.795563
1530.437466	-2.998200	3.494700	-10.477000	25.316125	0.000192	20.773283
1531.440834	-3.008300	3.493800	-10.510000	25.278492	0.000192	20.801407
1532.436619	-3.005200	3.493800	-10.499000	25.307581	0.000192	20.811172
1533.433637	-2.987400	3.492700	-10.432000	25.315412	0.000194	20.785370
1534.434790	-3.006800	3.492000	-10.498000	25.298510	0.000191	20.803961
1535.445123	-2.997700	3.493700	-10.472000	25.291431	0.000190	20.820561
1536.437934	-2.999400	3.492000	-10.473000	25.286984	0.000191	20.778164
1537.438393	-2.989200	3.492100	-10.438000	25.290271	0.000192	20.786206
1538.444256	-3.004200	3.491100	-10.487000	25.287694	0.000188	20.807326
1539.440245	-3.025000	3.490200	-10.557000	25.309043	0.000191	20.799364
1540.440327	-3.015200	3.489900	-10.522000	25.295010	0.000190	20.808981
1541.438099	-3.019000	3.490600	-10.537000	25.300750	0.000191	20.810952
1542.444941	-3.017400	3.489600	-10.529000	25.305901	0.000191	20.787200
1543.448079	-3.025000	3.488400	-10.552000	25.308342	0.000188	20.798660
1544.440753	-3.004300	3.489100	-10.482000	25.293511	0.000188	20.799416
1545.436862	-3.016800	3.489200	-10.526000	25.319981	0.000188	20.802760
1546.442840	-2.994600	3.490400	-10.452000	25.317478	0.000188	20.787918
1547.436512	-3.001600	3.489900	-10.474000	25.292927	0.000186	20.803571
1548.463387	-2.984700	3.487600	-10.409000	25.323672	0.000186	20.803620
1549.441846	-2.995600	3.488700	-10.449000	25.307296	0.000185	20.802825
1550.447770	-3.003500	3.487100	-10.473000	25.313520	0.000186	20.796746
1551.441655	-3.003800	3.488400	-10.478000	25.311655	0.000187	20.797719
1552.441752	-2.987400	3.487100	-10.417000	25.308079	0.000187	20.810724
1553.447560	-2.984200	3.486500	-10.404000	25.323270	0.000184	20.821235
1554.452994	-3.008600	3.486500	-10.489000	25.298566	0.000185	20.801647
1555.447488	-2.990600	3.485700	-10.423000	25.333370	0.000186	20.801030
1556.446543	-2.983500	3.486700	-10.401000	25.319424	0.000182	20.806942
1557.448275	-2.984100	3.485900	-10.401000	25.325604	0.000182	20.811250
1558.449151	-3.001200	3.485700	-10.460000	25.340170	0.000182	20.814495
1559.448391	-2.990300	3.483900	-10.416000	25.319416	0.000183	20.806459
1560.445014	-3.032200	3.483500	-10.562000	25.317336	0.000182	20.792517
1561.449750	-2.991800	3.484100	-10.423000	25.330962	0.000182	20.814260
1562.445086	-3.014000	3.483000	-10.496000	25.320622	0.000181	20.800559
1563.450553	-2.990800	3.484300	-10.420000	25.308890	0.000181	20.807271
1564.449323	-2.982700	3.483800	-10.390000	25.317071	0.000180	20.796519
1565.448179	-2.962900	3.484200	-10.322000	25.329931	0.000179	20.819388
1566.447288	-3.008300	3.483200	-10.477000	25.321234	0.000181	20.794534
1567.451520	-3.000600	3.482400	-10.448000	25.323884	0.000179	20.793877
1568.449641	-3.027300	3.481600	-10.539000	25.330359	0.000179	20.811757
1569.455141	-3.011800	3.481200	-10.484000	25.326478	0.000180	20.817817
1570.456865	-3.041700	3.479400	-10.582000	25.328391	0.000181	20.832540
1571.446014	-3.017700	3.481000	-10.504000	25.309532	0.000179	20.812656
1572.452734	-3.019400	3.480100	-10.508000	25.345121	0.000178	20.799079
1573.449679	-2.993500	3.480900	-10.418000	25.329985	0.000176	20.833667
1574.445971	-2.998600	3.480200	-10.435000	25.321829	0.000176	20.818365
1575.452838	-3.001700	3.480500	-10.446000	25.334781	0.000175	20.814301
1576.452339	-2.990800	3.481100	-10.410000	25.333168	0.000175	20.812207
1577.454372	-3.013000	3.478800	-10.480000	25.327569	0.000174	20.820810
1578.449089	-2.998500	3.479200	-10.431000	25.345643	0.000176	20.806714
1579.449721	-3.021500	3.477800	-10.506000	25.323516	0.000175	20.815318
1580.453465	-3.011900	3.477400	-10.473000	25.341761	0.000175	20.820835
1581.458659	-2.982400	3.478600	-10.374000	25.348446	0.000175	20.802891
1582.448434	-3.014100	3.477900	-10.481000	25.351083	0.000175	20.814547
1583.460034	-3.004300	3.477000	-10.445000	25.345263	0.000175	20.823403
1584.453658	-2.995100	3.476500	-10.412000	25.333605	0.000175	20.813594
1585.451294	-3.006300	3.476600	-10.451000	25.336261	0.000172	20.823847
1586.455636	-2.987200	3.476000	-10.383000	25.351672	0.000174	20.840743
1587.453696	-3.023300	3.474800	-10.504000	25.341805	0.000174	20.818034
1588.454720	-3.011200	3.475100	-10.463000	25.356788	0.000171	20.859155
1589.454727	-2.996700	3.475000	-10.412000	25.339984	0.000173	20.839913
1590.460600	-2.996000	3.475500	-10.411000	25.337205	0.000171	20.819579
1591.458963	-2.986400	3.476900	-10.382000	25.363369	0.000172	20.827357
1592.456878	-2.979100	3.474400	-10.350000	25.346497	0.000167	20.837443
1593.459908	-2.997900	3.474800	-10.416000	25.349557	0.000170	20.827714
1594.454586	-2.985800	3.474400	-10.373000	25.353029	0.000170	20.810812
1595.458985	-3.002600	3.474200	-10.430000	25.357082	0.000169	20.831003
1596.467229	-2.969500	3.474200	-10.316000	25.361302	0.000170	20.823386
1597.470311	-2.987100	3.474100	-10.377000	25.356231	0.000169	20.831570
1598.455731	-3.007800	3.472200	-10.442000	25.354268	0.000168	20.816797
1599.464279	-2.991500	3.471800	-10.385000	25.382626	0.000169	20.827727
1600.461943	-3.003500	3.471300	-10.424000	25.379129	0.000168	20.836544
1601.457315	-3.000000	3.471400	-10.412000	25.371274	0.000167	20.851415
1602.462636	-3.008800	3.471000	-10.442000	25.360535	0.000165	20.836840
1603.458504	-2.993500	3.471100	-10.390000	25.376020	0.000166	20.846698
1604.464757	-3.022400	3.470600	-10.488000	25.381436	0.000165	20.851188
1605.463430	-3.006300	3.469700	-10.430000	25.380933	0.000165	20.859218
1606.469402	-3.005300	3.469000	-10.424000	25.382833	0.000163	20.852117
1607.457095	-2.978600	3.469500	-10.334000	25.387875	0.000163	20.842006
1608.461768	-2.995300	3.468900	-10.389000	25.374584	0.000163	20.839567
1609.458107	-2.995100	3.468800	-10.389000	25.378712	0.000163	20.845134
1610.467744	-2.992700	3.469100	-10.381000	25.351844	0.000164	20.866993
1611.469899	-2.995100	3.467900	-10.385000	25.378136	0.000164	20.852141
1612.464076	-2.979900	3.468400	-10.335000	25.368844	0.000163	20.870312
1613.460293	-2.996700	3.468400	-10.392000	25.362110	0.000163	20.846956
1614.462939	-3.018800	3.466600	-10.465000	25.392902	0.000161	20.850374
1615.466596	-3.008500	3.467300	-10.431000	25.376233	0.000160	20.842645
1616.467588	-2.995500	3.466500	-10.382000	25.361540	0.000159	20.862504
1617.467158	-3.028700	3.466100	-10.497000	25.396759	0.000161	20.860884
1618.461381	-3.002500	3.465200	-10.404000	25.367335	0.000159	20.858365
1619.467700	-2.998900	3.465300	-10.392000	25.378392	0.000160	20.841968
1620.465505	-2.996100	3.466200	-10.384000	25.386848	0.000161	20.848562
1621.467983	-3.006500	3.464700	-10.415000	25.379337	0.000160	20.855244
1622.470742	-3.003800	3.463900	-10.404000	25.391718	0.000160	20.856296
1623.472900	-3.008500	3.465800	-10.426000	25.373430	0.000159	20.870175
1624.466425	-3.008700	3.463600	-10.420000	25.379151	0.000157	20.851264
1625.465514	-2.985500	3.465000	-10.343000	25.386554	0.000158	20.846370
1626.483225	-2.981200	3.464400	-10.328000	25.388595	0.000158	20.858376
1627.461465	-3.005000	3.463400	-10.407000	25.384965	0.000157	20.863266
1628.469635	-3.016200	3.463200	-10.444000	25.398487	0.000157	20.873524
1629.472812	-3.018100	3.462300	-10.447000	25.388920	0.000156	20.875297
1630.466327	-2.984200	3.462700	-10.332000	25.385743	0.000154	20.864995
1631.477270	-3.006300	3.461300	-10.405000	25.401896	0.000155	20.875050
1632.472780	-2.968600	3.462200	-10.277000	25.408532	0.000153	20.864644
1633.476979	-2.992900	3.461800	-10.360000	25.400534	0.000155	20.879846
1634.467662	-3.013800	3.461200	-10.431000	25.404888	0.000154	20.889907
1635.469014	-2.991900	3.461100	-10.353000	25.405685	0.000156	20.891655
1636.486633	-2.987400	3.461600	-10.340000	25.396836	0.000153	20.855745
1637.471136	-2.991600	3.460300	-10.351000	25.409665	0.000154	20.879057
1638.471852	-2.994200	3.459300	-10.357000	25.408376	0.000154	20.866859
1639.463823	-2.998600	3.459200	-10.372000	25.420702	0.000152	20.876390
1640.477703	-2.982000	3.460300	-10.317000	25.413527	0.000151	20.866341
1641.469310	-3.013800	3.458400	-10.421000	25.402740	0.000151	20.875423
1642.471852	-3.004800	3.458300	-10.391000	25.386016	0.000151	20.878545
1643.467333	-3.007600	3.458100	-10.399000	25.418156	0.000152	20.877627
1644.473057	-2.994900	3.457400	-10.354000	25.390547	0.000151	20.864603
1645.471858	-3.028300	3.456800	-10.468000	25.408117	0.000150	20.895994
1646.475220	-3.010400	3.457800	-10.408000	25.408172	0.000150	20.882773
1647.468024	-2.994400	3.456900	-10.351000	25.412176	0.000149	20.866407
1648.477540	-2.991400	3.457000	-10.341000	25.413696	0.000148	20.882631
1649.475502	-2.989200	3.456000	-10.330000	25.398971	0.000147	20.887759
1650.471328	-3.009600	3.456500	-10.402000	25.414351	0.000147	20.869065
1651.465310	-2.994400	3.456900	-10.351000	25.406624	0.000149	20.879797
1652.467667	-2.989400	3.456600	-10.332000	25.420397	0.000149	20.876558
1653.476182	-2.974300	3.455900	-10.278000	25.415828	0.000148	20.901840
1654.474767	-3.018600	3.455000	-10.427000	25.441676	0.000148	20.892708
1655.474190	-3.002500	3.455100	-10.374000	25.438996	0.000145	20.897129
1656.474943	-3.005100	3.453800	-10.378000	25.426596	0.000146	20.875670
1657.475586	-2.989500	3.454100	-10.325000	25.425141	0.000145	20.873262
1658.476881	-2.986600	3.453800	-10.314000	25.417635	0.000146	20.895594
1659.478121	-2.996500	3.453400	-10.346000	25.420572	0.000145	20.889535
1660.481611	-2.983500	3.453000	-10.301000	25.440183	0.000144	20.896425
1661.478959	-3.020300	3.453000	-10.429000	25.413844	0.000143	20.877090
1662.480062	-2.983400	3.452700	-10.300000	25.417426	0.000142	20.889220
1663.472170	-3.000000	3.452600	-10.357000	25.407436	0.000142	20.888198
1664.475150	-2.984500	3.451900	-10.301000	25.422686	0.000141	20.894502
1665.473327	-3.009000	3.450900	-10.382000	25.430167	0.000142	20.885894
1666.478196	-2.990900	3.451000	-10.320000	25.436649	0.000141	20.874860
1667.486363	-3.017800	3.449900	-10.410000	25.445877	0.000141	20.879859
1668.483331	-2.994800	3.450400	-10.333000	25.440634	0.000144	20.881706
1669.475494	-2.998700	3.450100	-10.345000	25.425996	0.000141	20.872698
1670.487062	-2.991600	3.450100	-10.321000	25.430675	0.000142	20.892567
1671.486813	-2.994600	3.448800	-10.327000	25.423169	0.000141	20.872229
1672.479840	-3.010000	3.448600	-10.379000	25.424886	0.000141	20.881065
1673.482008	-2.976100	3.449500	-10.265000	25.436194	0.000140	20.892419
1674.479997	-2.990800	3.448500	-10.313000	25.424867	0.000141	20.889106
1675.479954	-3.013500	3.448800	-10.392000	25.449789	0.000140	20.876675
1676.476946	-3.001000	3.448500	-10.348000	25.430509	0.000139	20.886711
1677.475350	-2.983800	3.447900	-10.286000	25.448397	0.000138	20.877173
1678.483376	-3.011400	3.447800	-10.382000	25.432711	0.000138	20.875173
1679.481991	-3.031700	3.445100	-10.444000	25.434974	0.000139	20.881712
1680.477995	-2.990700	3.447200	-10.309000	25.441210	0.000138	20.869009
1681.484790	-2.979800	3.448400	-10.274000	25.429400	0.000137	20.856202
1682.476336	-3.016300	3.447300	-10.397000	25.437801	0.000137	20.865112
1683.488462	-2.996700	3.445900	-10.326000	25.440787	0.000139	20.864317
1684.480760	-3.020400	3.444900	-10.403000	25.447815	0.000139	20.859047
1685.482693	-3.016600	3.444000	-10.388000	25.429149	0.000136	20.865906
1686.485326	-3.015900	3.444000	-10.385000	25.441819	0.000137	20.872465
1687.484251	-3.026600	3.443300	-10.420000	25.444750	0.000135	20.867348
1688.481335	-3.011600	3.443500	-10.368000	25.455285	0.000135	20.872237
1689.486917	-2.994700	3.443200	-10.310000	25.418676	0.000135	20.867718
1690.482042	-2.981800	3.443600	-10.267000	25.426201	0.000135	20.863420
1691.485644	-2.969200	3.443700	-10.223000	25.423092	0.000134	20.841334
1692.491130	-3.019200	3.441700	-10.391000	25.421768	0.000135	20.869874
1693.481957	-2.997600	3.442200	-10.316000	25.439687	0.000133	20.855152
1694.485212	-2.993400	3.443800	-10.308000	25.430936	0.000136	20.869597
1695.485316	-3.004000	3.440700	-10.335000	25.432347	0.000135	20.863902
1696.485780	-3.003100	3.442500	-10.338000	25.444073	0.000135	20.868564
1697.487725	-3.013900	3.440300	-10.368000	25.437107	0.000132	20.850191
1698.488310	-3.015900	3.441000	-10.376000	25.445232	0.000131	20.863091
1699.486271	-2.992400	3.440300	-10.294000	25.447367	0.000130	20.878510
1700.486771	-3.003900	3.440100	-10.333000	25.437028	0.000131	20.846792
1701.488912	-3.003900	3.439300	-10.331000	25.443608	0.000129	20.855771
1702.497688	-3.016100	3.437900	-10.368000	25.456805	0.000129	20.861436
1703.488388	-3.006500	3.438700	-10.337000	25.454187	0.000129	20.872557
1704.496432	-2.961400	3.439500	-10.184000	25.452470	0.000128	20.844282
1705.494785	-3.012200	3.436700	-10.351000	25.455353	0.000130	20.863770
1706.501331	-2.997100	3.437800	-10.302000	25.449957	0.000127	20.844128
1707.497919	-3.008400	3.437300	-10.340000	25.471996	0.000128	20.829751
1708.490830	-3.024300	3.437500	-10.395000	25.472719	0.000126	20.858451
1709.511409	-2.991700	3.436700	-10.281000	25.474897	0.000127	20.859215
1710.499179	-3.011800	3.435700	-10.347000	25.451687	0.000124	20.865305
1711.498548	-3.001900	3.437100	-10.316000	25.469458	0.000127	20.852331
1712.490693	-2.997500	3.436200	-10.299000	25.468366	0.000126	20.861665
1713.491657	-2.994200	3.435600	-10.286000	25.481134	0.000123	20.844142
1714.496985	-2.990100	3.435000	-10.270000	25.456532	0.000123	20.835084
1715.496463	-3.011900	3.435300	-10.346000	25.463639	0.000122	20.840798
1716.494122	-2.994100	3.436000	-10.287000	25.479018	0.000123	20.843914
1717.492674	-2.998800	3.435500	-10.302000	25.491289	0.000124	20.840116
1718.507489	-2.979900	3.435200	-10.235000	25.467514	0.000126	20.841371
1719.496855	-3.009000	3.434200	-10.333000	25.481005	0.000123	20.849702
1720.493103	-2.998100	3.432800	-10.290000	25.455085	0.000124	20.845010
1721.503737	-2.995400	3.433000	-10.282000	25.487518	0.000124	20.850078
1722.501347	-2.991300	3.432600	-10.267000	25.475541	0.000122	20.825724
1723.496065	-2.989900	3.432200	-10.260000	25.477902	0.000123	20.838526
1724.498329	-2.996400	3.431900	-10.283000	25.480159	0.000122	20.848853
1725.499189	-3.003100	3.430800	-10.302000	25.467613	0.000119	20.841944
1726.501712	-2.994200	3.431200	-10.272000	25.459255	0.000121	20.852517
1727.501551	-2.982200	3.431800	-10.233000	25.490301	0.000122	20.836279
1728.514305	-2.994600	3.430900	-10.274000	25.488082	0.000118	20.835473
1729.500452	-2.992000	3.431100	-10.265000	25.476726	0.000118	20.828810
1730.505999	-3.005400	3.429900	-10.307000	25.477474	0.000119	20.839044
1731.495048	-2.999900	3.430700	-10.291000	25.496355	0.000118	20.835720
1732.495601	-3.012500	3.428600	-10.328000	25.477296	0.000117	20.824642
1733.497555	-3.004900	3.429600	-10.305000	25.502296	0.000117	20.826514
1734.506558	-2.990600	3.430000	-10.257000	25.495705	0.000119	20.836490
1735.496904	-2.989600	3.429700	-10.252000	25.488726	0.000118	20.829482
1736.498631	-3.019800	3.427100	-10.348000	25.497122	0.000119	20.818472
1737.504626	-3.000000	3.428300	-10.284000	25.517547	0.000115	20.838035
1738.499593	-3.003400	3.427600	-10.294000	25.472342	0.000115	20.826779
1739.500223	-2.999800	3.426900	-10.279000	25.482681	0.000114	20.819618
1740.505682	-3.011600	3.426100	-10.316000	25.486611	0.000114	20.821668
1741.505590	-3.001800	3.427300	-10.287000	25.498882	0.000114	20.815973
1742.506027	-3.007600	3.426100	-10.303000	25.490604	0.000113	20.830893
1743.509442	-2.983900	3.427100	-10.223000	25.474324	0.000114	20.815493
1744.507118	-3.001300	3.425600	-10.280000	25.484338	0.000113	20.829342
1745.500732	-3.018100	3.423500	-10.330000	25.494578	0.000114	20.829668
1746.516484	-2.984000	3.425400	-10.221000	25.479493	0.000115	20.828744
1747.504242	-2.989600	3.424100	-10.235000	25.488754	0.000113	20.839466
1748.505038	-2.993300	3.424000	-10.248000	25.476576	0.000111	20.840039
1749.502251	-3.005200	3.423500	-10.288000	25.504979	0.000111	20.823044
1750.507649	-3.003000	3.423200	-10.278000	25.480328	0.000111	20.832428
1751.501110	-3.004500	3.423200	-10.284000	25.504275	0.000112	20.853630
1752.515549	-2.997300	3.423000	-10.259000	25.521174	0.000109	20.825083
1753.508123	-2.992300	3.423200	-10.242000	25.504993	0.000109	20.804566
1754.505968	-3.001300	3.422500	-10.271000	25.509758	0.000110	20.833058
1755.502358	-3.014400	3.421800	-10.313000	25.511174	0.000108	20.813144
1756.514465	-2.986700	3.422100	-10.219000	25.490989	0.000108	20.815633
1757.506662	-3.003600	3.421200	-10.274000	25.488401	0.000110	20.829155
1758.509343	-2.983300	3.421800	-10.208000	25.500206	0.000108	20.814931
1759.506001	-3.020600	3.419400	-10.328000	25.493014	0.000108	20.817192
1760.514100	-3.030900	3.419300	-10.362000	25.485006	0.000106	20.823849
1761.517289	-3.016600	3.419500	-10.313000	25.500391	0.000107	20.835031
1762.508443	-2.973900	3.419500	-10.169000	25.490347	0.000106	20.829687
1763.508004	-2.971600	3.420200	-10.162000	25.501073	0.000106	20.822915
1764.509433	-2.993700	3.418900	-10.233000	25.481016	0.000106	20.812730
1765.511576	-3.001300	3.418500	-10.259000	25.503773	0.000105	20.831789
1766.507031	-2.990700	3.418900	-10.223000	25.496641	0.000102	20.828895
1767.524098	-3.025500	3.417500	-10.339000	25.499346	0.000104	20.838249
1768.507884	-2.994700	3.417600	-10.234000	25.497004	0.000103	20.830208
1769.509860	-3.008400	3.417200	-10.279000	25.481595	0.000103	20.828010
1770.510726	-3.011700	3.417300	-10.291000	25.493172	0.000104	20.832998
1771.507063	-3.015700	3.416200	-10.302000	25.508705	0.000102	20.798336
1772.509166	-2.987100	3.417500	-10.207000	25.503830	0.000103	20.804821
1773.505764	-3.006800	3.415200	-10.268000	25.499403	0.000104	20.822660
1774.509057	-3.024700	3.415900	-10.331000	25.538513	0.000101	20.816417
1775.512647	-2.994400	3.415000	-10.225000	25.511306	0.000101	20.824181
1776.513354	-3.028800	3.414800	-10.342000	25.527029	9.995813E-5	20.833807
1777.512747	-3.018700	3.413000	-10.302000	25.513140	0.000101	20.834557
1778.518011	-2.977800	3.416700	-10.173000	25.522479	9.830839E-5	20.815488
1779.521359	-3.011000	3.413600	-10.277000	25.540764	0.000101	20.803979
1780.514168	-3.023900	3.412800	-10.318000	25.528011	9.702159E-5	20.815828
1781.511067	-3.012000	3.413100	-10.280000	25.520009	9.880331E-5	20.806844
1782.511280	-2.982100	3.413100	-10.177000	25.548185	9.979316E-5	20.828975
1783.509254	-2.988400	3.412900	-10.198000	25.532683	0.000100	20.825735
1784.517011	-2.981800	3.411900	-10.172000	25.520530	9.682362E-5	20.827755
1785.514416	-3.003500	3.412500	-10.248000	25.534640	9.527286E-5	20.813002
1786.516236	-2.999600	3.411400	-10.232000	25.543341	9.771448E-5	20.820317
1787.520452	-3.006000	3.411000	-10.252000	25.519182	9.467895E-5	20.809806
1788.515741	-3.006400	3.411100	-10.255000	25.550388	9.764849E-5	20.812695
1789.521030	-3.028300	3.410100	-10.326000	25.540650	9.702159E-5	20.801968
1790.512790	-2.988700	3.410500	-10.192000	25.528920	9.490991E-5	20.811051
1791.522147	-3.004600	3.409800	-10.244000	25.529368	9.438199E-5	20.813397
1792.510497	-2.992100	3.410200	-10.202000	25.555404	9.629570E-5	20.810620
1793.519321	-3.015200	3.408000	-10.274000	25.537708	9.454697E-5	20.806600
1794.514841	-2.997400	3.409300	-10.218000	25.540394	9.679062E-5	20.800288
1795.519635	-3.002800	3.408400	-10.234000	25.549236	9.461296E-5	20.805849
1796.515730	-3.030400	3.407000	-10.324000	25.532337	9.467895E-5	20.830129
1797.518289	-2.986000	3.408300	-10.176000	25.562303	9.487692E-5	20.813282
1798.515519	-3.015200	3.407100	-10.272000	25.548483	9.527286E-5	20.812679
1799.526623	-2.984800	3.408100	-10.171000	25.540555	9.378808E-5	20.819416
1800.522302	-3.003800	3.407300	-10.233000	25.535036	9.335915E-5	20.815296
1801.529640	-2.997800	3.406600	-10.210000	25.548778	9.365610E-5	20.810130
1802.519408	-2.999900	3.406800	-10.219000	25.528623	9.161042E-5	20.801743
1803.525191	-3.001700	3.406300	-10.223000	25.556179	9.253428E-5	20.810925
1804.522679	-2.983900	3.406100	-10.163000	25.532370	9.154443E-5	20.794127
1805.517631	-2.981700	3.405300	-10.153000	25.557265	9.203935E-5	20.815335
1806.519699	-2.986000	3.405700	-10.168000	25.557664	9.058758E-5	20.794872
1807.519578	-2.989500	3.405300	-10.179000	25.543322	9.075255E-5	20.812238
1808.523201	-3.029100	3.404600	-10.312000	25.548614	8.834392E-5	20.786732
1809.521012	-2.996500	3.403000	-10.196000	25.563024	8.893783E-5	20.808316
1810.527762	-3.017700	3.404000	-10.271000	25.544985	9.085154E-5	20.804424
1811.534063	-3.008800	3.404100	-10.241000	25.556813	8.963072E-5	20.822466
1812.536156	-3.000800	3.403700	-10.213000	25.546420	8.920179E-5	20.812504
1813.527649	-2.974400	3.404400	-10.125000	25.543440	8.906981E-5	20.795287
1814.525099	-2.995000	3.402500	-10.189000	25.561307	8.481347E-5	20.801377
1815.521583	-3.021900	3.400800	-10.276000	25.545579	8.831093E-5	20.783685
1816.528363	-3.005300	3.403000	-10.225000	25.536082	8.593529E-5	20.817769
1817.524686	-3.003200	3.401500	-10.214000	25.560172	8.567133E-5	20.794072
1818.527663	-2.999700	3.400500	-10.199000	25.574429	8.629824E-5	20.814554
1819.523416	-2.993500	3.401200	-10.181000	25.558248	8.369164E-5	20.792614
1820.526033	-2.988800	3.402500	-10.169000	25.565729	8.428555E-5	20.782583
1821.530300	-2.987300	3.401500	-10.161000	25.556463	8.237184E-5	20.813107
1822.525700	-2.994700	3.400700	-10.183000	25.551117	8.349367E-5	20.802996
1823.522906	-3.018200	3.400000	-10.261000	25.541374	8.296575E-5	20.795108
1824.526719	-2.999400	3.399700	-10.196000	25.553950	8.233885E-5	20.790668
1825.530118	-3.034700	3.397600	-10.310000	25.548456	8.293276E-5	20.783255
1826.524628	-3.004300	3.398400	-10.208000	25.544305	8.237184E-5	20.778612
1827.530020	-3.000600	3.397600	-10.194000	25.564833	8.217387E-5	20.777417
1828.524031	-3.000700	3.397800	-10.195000	25.571591	7.887438E-5	20.787522
1829.529263	-3.010800	3.397900	-10.230000	25.559487	8.059012E-5	20.785324
1830.533452	-2.995700	3.398900	-10.180000	25.546690	7.923732E-5	20.799973
1831.526398	-2.995600	3.397800	-10.178000	25.574645	8.049113E-5	20.780157
1832.535278	-2.991900	3.396000	-10.160000	25.546194	7.831347E-5	20.808009
1833.532714	-3.001200	3.395500	-10.189000	25.554245	7.867641E-5	20.788119
1834.527049	-2.996000	3.396900	-10.175000	25.550511	7.841245E-5	20.787689
1835.531407	-3.006900	3.395000	-10.207000	25.536928	7.752159E-5	20.801075
1836.534155	-3.004500	3.394600	-10.198000	25.563136	7.765357E-5	20.782824
1837.531106	-3.006500	3.393400	-10.201000	25.554466	7.702666E-5	20.781703
1838.530006	-3.001000	3.395000	-10.187000	25.560677	7.507996E-5	20.775139
1839.530432	-2.989700	3.394500	-10.148000	25.563835	7.603682E-5	20.790638
1840.532367	-3.005100	3.393800	-10.198000	25.554840	7.663073E-5	20.797726
1841.536846	-2.993500	3.393600	-10.158000	25.559512	7.501397E-5	20.778710
1842.534770	-3.005500	3.393200	-10.197000	25.572928	7.527793E-5	20.778434
1843.543115	-2.973200	3.395300	-10.094000	25.552400	7.382616E-5	20.764930
1844.539618	-3.004400	3.393700	-10.195000	25.562768	7.517895E-5	20.785299
1845.536723	-3.000500	3.393600	-10.182000	25.551387	7.277032E-5	20.771499
1846.532032	-3.009300	3.392400	-10.208000	25.559891	7.234139E-5	20.768185
1847.538547	-3.002200	3.392400	-10.184000	25.564888	7.412311E-5	20.779368
1848.537979	-2.989900	3.391900	-10.141000	25.559866	7.240738E-5	20.770532
1849.542738	-3.015300	3.390800	-10.223000	25.589788	7.171448E-5	20.783512
1850.532882	-3.026500	3.389800	-10.258000	25.573465	7.118656E-5	20.775654
1851.536661	-3.015300	3.390500	-10.221000	25.573809	7.154951E-5	20.772680
1852.534948	-2.998700	3.390600	-10.166000	25.579529	6.943783E-5	20.770838
1853.536000	-2.997500	3.390500	-10.163000	25.594490	7.032870E-5	20.755043
1854.535186	-3.005500	3.388900	-10.184000	25.583385	7.006474E-5	20.765228
1855.539617	-3.019600	3.388300	-10.230000	25.552525	6.930585E-5	20.805833
1856.537659	-2.997900	3.389200	-10.159000	25.568725	6.986677E-5	20.759987
1857.535677	-3.009000	3.388800	-10.196000	25.586469	6.937184E-5	20.770222
1858.549368	-3.026900	3.388200	-10.255000	25.590876	6.844798E-5	20.777019
1859.554730	-3.026500	3.388000	-10.253000	25.569159	6.904189E-5	20.771803
1860.536095	-3.009700	3.388100	-10.196000	25.567398	6.825002E-5	20.757707
1861.539700	-3.015900	3.386700	-10.213000	25.586957	6.811804E-5	20.776402
1862.539446	-3.006100	3.385700	-10.176000	25.564123	6.735915E-5	20.769591
1863.537239	-3.010900	3.387500	-10.198000	25.585595	6.679824E-5	20.749429
1864.541593	-2.976400	3.387200	-10.081000	25.585822	6.881093E-5	20.776684
1865.537508	-3.016500	3.384800	-10.210000	25.602671	6.594037E-5	20.771794
1866.537766	-2.979400	3.386400	-10.088000	25.586177	6.511550E-5	20.749539
1867.541767	-2.998600	3.384700	-10.148000	25.581013	6.564342E-5	20.758578
1868.540972	-3.004200	3.385300	-10.169000	25.584466	6.567641E-5	20.762045
1869.546944	-3.009900	3.384300	-10.185000	25.564390	6.468656E-5	20.742832
1870.541422	-3.011500	3.383800	-10.189000	25.583925	6.462057E-5	20.768141
1871.540627	-3.004700	3.383500	-10.166000	25.570411	6.429062E-5	20.755991
1872.543330	-3.007400	3.383400	-10.174000	25.586818	6.194798E-5	20.749234
1873.549587	-3.011100	3.383200	-10.186000	25.588141	6.422463E-5	20.775694
1874.541951	-3.007500	3.382600	-10.172000	25.600490	6.412565E-5	20.763440
1875.547811	-2.992800	3.383600	-10.124000	25.590409	5.920941E-5	20.746203
1876.545054	-2.994700	3.382900	-10.130000	25.579605	6.161804E-5	20.745783
1877.543009	-3.000100	3.383200	-10.149000	25.587655	6.201397E-5	20.759085
1878.549721	-3.027400	3.381300	-10.235000	25.606019	6.247590E-5	20.756190
1879.543182	-2.986900	3.381700	-10.100000	25.603964	6.003428E-5	20.730892
1880.545321	-3.009700	3.380600	-10.173000	25.585704	6.201397E-5	20.755702
1881.546126	-2.970800	3.381500	-10.044000	25.606133	5.841753E-5	20.758676
1882.548311	-2.995800	3.380700	-10.126000	25.594208	6.013326E-5	20.754760
1883.563444	-3.008600	3.380400	-10.169000	25.591779	5.957235E-5	20.726715
1884.548582	-3.028500	3.378400	-10.231000	25.606838	5.957235E-5	20.768393
1885.547971	-3.001300	3.379100	-10.141000	25.609591	5.953936E-5	20.737492
1886.547905	-2.981700	3.379500	-10.076000	25.599559	5.729570E-5	20.745909
1887.550724	-3.003300	3.379900	-10.150000	25.607659	5.627286E-5	20.761631
1888.551085	-3.012800	3.377800	-10.176000	25.622944	5.769164E-5	20.768922
1889.561494	-3.022300	3.377300	-10.206000	25.620013	5.719672E-5	20.754124
1890.559269	-2.998200	3.379800	-10.132000	25.593225	5.683377E-5	20.745712
1891.554100	-2.971400	3.379100	-10.040000	25.614899	5.472210E-5	20.753729
1892.561416	-2.996300	3.377800	-10.120000	25.628437	5.765864E-5	20.751679
1893.552231	-2.979300	3.378200	-10.064000	25.611324	5.475509E-5	20.742552
1894.559380	-2.990900	3.377100	-10.099000	25.613139	5.416118E-5	20.741529
1895.550746	-2.997400	3.375900	-10.118000	25.617609	5.581093E-5	20.752657
1896.553200	-2.999500	3.376900	-10.128000	25.606204	5.459012E-5	20.754954
1897.560753	-2.997200	3.375700	-10.117000	25.621686	5.201651E-5	20.745846
1898.566992	-3.001600	3.375900	-10.133000	25.599748	5.191753E-5	20.743727
1899.562730	-3.009200	3.375100	-10.155000	25.633297	5.142260E-5	20.745654
1900.566869	-2.993100	3.375900	-10.102000	25.618779	5.089468E-5	20.744350
1901.554496	-2.989000	3.374600	-10.085000	25.640600	5.284139E-5	20.745876
1902.559106	-2.984600	3.374500	-10.071000	25.620177	5.066372E-5	20.743856
1903.557580	-3.001400	3.373800	-10.124000	25.623457	4.927793E-5	20.768014
1904.560606	-2.985300	3.373100	-10.069000	25.629491	4.921194E-5	20.737563
1905.557366	-3.002300	3.373400	-10.126000	25.610568	5.013580E-5	20.773562
1906.565890	-3.001900	3.373200	-10.126000	25.642739	4.891499E-5	20.741861
1907.567158	-3.011600	3.372700	-10.156000	25.642169	4.818910E-5	20.749823
1908.554015	-3.018900	3.371600	-10.177000	25.654517	4.934392E-5	20.756061
1909.561409	-2.989800	3.374000	-10.086000	25.631537	4.924494E-5	20.761431
1910.557843	-3.004200	3.371200	-10.126000	25.615510	4.835407E-5	20.754343
1911.566087	-3.000100	3.371300	-10.113000	25.644352	4.802413E-5	20.753438
1912.562165	-2.993400	3.372700	-10.095000	25.645332	4.644037E-5	20.743516
1913.560042	-3.016100	3.370200	-10.163000	25.637178	4.848605E-5	20.728214
1914.555607	-2.992900	3.371000	-10.088000	25.654296	4.766118E-5	20.759633
1915.557731	-2.984000	3.370800	-10.057000	25.636755	4.521956E-5	20.751498
1916.566926	-3.012000	3.370300	-10.150000	25.636332	4.561550E-5	20.756763
1917.555766	-3.003600	3.369600	-10.121000	25.629722	4.531854E-5	20.755341
1918.561927	-3.006500	3.367800	-10.124000	25.653548	4.597844E-5	20.749398
1919.564086	-2.996400	3.369300	-10.095000	25.650072	4.475763E-5	20.748752
1920.567298	-3.011400	3.368300	-10.142000	25.646743	4.432869E-5	20.761055
1921.564727	-2.999700	3.368800	-10.104000	25.638540	4.228301E-5	20.746652
1922.559778	-2.999300	3.367100	-10.099000	25.647761	4.241499E-5	20.765397
1923.572213	-2.987400	3.368100	-10.062000	25.639729	4.257996E-5	20.737889
1924.574249	-3.004900	3.367600	-10.118000	25.648153	4.327286E-5	20.750618
1925.574376	-3.005500	3.368000	-10.122000	25.664357	4.225001E-5	20.755039
1926.584894	-3.006000	3.367000	-10.120000	25.650244	4.343783E-5	20.747502
1927.570994	-2.994300	3.367500	-10.081000	25.657344	3.842260E-5	20.732347
1928.558543	-2.990700	3.366000	-10.066000	25.657227	3.967641E-5	20.745506
1929.565019	-2.994300	3.366200	-10.079000	25.666478	4.093022E-5	20.746737
1930.562180	-2.987600	3.366300	-10.056000	25.656411	3.974240E-5	20.757015
1931.563823	-2.982600	3.364900	-10.035000	25.660911	3.964341E-5	20.763906
1932.568672	-2.999000	3.365200	-10.091000	25.666822	3.871956E-5	20.753247
1933.569660	-2.995400	3.365100	-10.078000	25.653884	3.819164E-5	20.756848
1934.560997	-2.995300	3.365100	-10.079000	25.667526	3.908250E-5	20.754428
1935.560688	-2.993300	3.363600	-10.067000	25.658782	3.885154E-5	20.754655
1936.577850	-2.985300	3.363800	-10.041000	25.654111	3.700382E-5	20.748541
1937.561595	-2.985000	3.362700	-10.036000	25.645097	3.617895E-5	20.765567
1938.582809	-3.006400	3.361700	-10.106000	25.670418	3.683884E-5	20.757333
1939.573787	-2.981300	3.362400	-10.023000	25.673998	3.667387E-5	20.759981
1940.572198	-2.999700	3.362200	-10.085000	25.671938	3.690483E-5	20.782568
1941.570209	-2.995600	3.363200	-10.073000	25.660785	3.538707E-5	20.751926
1942.568701	-3.018100	3.361300	-10.144000	25.675027	3.532108E-5	20.760066
1943.567153	-2.991900	3.361500	-10.057000	25.683102	3.479316E-5	20.768176
1944.574279	-2.992400	3.362900	-10.062000	25.662704	3.340737E-5	20.755275
1945.563900	-2.994600	3.361200	-10.065000	25.669889	3.466118E-5	20.755853
1946.573212	-3.018400	3.359400	-10.139000	25.669810	3.340737E-5	20.764783
1947.569426	-2.997300	3.360500	-10.072000	25.660373	3.363834E-5	20.766211
1948.568866	-3.002400	3.358400	-10.082000	25.689869	3.337438E-5	20.743204
1949.574418	-3.020200	3.358400	-10.142000	25.679262	3.208757E-5	20.763372
1950.568966	-3.020400	3.358600	-10.143000	25.667559	3.152666E-5	20.768686
1951.566920	-3.042000	3.358200	-10.215000	25.675467	3.030585E-5	20.749601
1952.570861	-3.027800	3.357700	-10.166000	25.673491	3.126270E-5	20.753781
1953.571358	-3.006400	3.357900	-10.094000	25.669090	3.278047E-5	20.768801
1954.569952	-3.001800	3.358000	-10.079000	25.684177	3.155966E-5	20.763566
1955.570782	-2.999500	3.357800	-10.071000	25.677942	2.987691E-5	20.776744
1956.567235	-2.990500	3.357500	-10.040000	25.676954	2.802920E-5	20.768166
1957.572471	-3.028600	3.356000	-10.163000	25.689965	2.766625E-5	20.770328
1958.587705	-3.005300	3.356600	-10.086000	25.675459	2.892006E-5	20.774250
1959.571836	-2.993900	3.357200	-10.050000	25.679296	2.766625E-5	20.723100
1960.580477	-2.978400	3.356500	-9.996100	25.681809	2.905204E-5	20.764981
1961.572668	-3.010400	3.355100	-10.099000	25.670730	2.644544E-5	20.748637
1962.571840	-2.989800	3.356000	-10.033000	25.686603	2.565356E-5	20.758416
1963.578739	-2.996200	3.355100	-10.052000	25.691280	2.740229E-5	20.779710
1964.570351	-3.012000	3.353600	-10.100000	25.706387	2.614849E-5	20.756002
1965.578807	-2.998800	3.355200	-10.061000	25.705847	2.763326E-5	20.752614
1966.572789	-2.983100	3.354100	-10.004000	25.714840	2.496067E-5	20.770657
1967.575543	-2.988400	3.353300	-10.020000	25.711468	2.423478E-5	20.762528
1968.585487	-2.990300	3.353000	-10.026000	25.707200	2.380585E-5	20.766302
1969.580422	-2.970700	3.354000	-9.962800	25.723821	2.307996E-5	20.766401
1970.573224	-2.981300	3.352800	-9.994800	25.718658	2.248605E-5	20.758370
1971.577131	-2.989000	3.351900	-10.018000	25.703459	2.212310E-5	20.763493
1972.589338	-2.995600	3.351400	-10.038000	25.719480	2.271701E-5	20.776740
1973.581730	-3.018800	3.350400	-10.113000	25.733745	2.218909E-5	20.768309
1974.576012	-3.027900	3.350200	-10.143000	25.717302	2.011041E-5	20.771708
1975.579118	-3.019500	3.351100	-10.118000	25.707646	2.202412E-5	20.760585
1976.575500	-2.983500	3.351700	-9.999000	25.720342	2.083630E-5	20.787089
1977.574782	-2.985500	3.350100	-10.001000	25.704366	2.133123E-5	20.755394
1978.578309	-2.990400	3.351200	-10.020000	25.725191	2.129823E-5	20.778683
1979.582931	-2.984600	3.350700	-9.999500	25.729268	1.806473E-5	20.775191
1980.577465	-2.990000	3.349600	-10.014000	25.748677	1.796574E-5	20.794687
1981.576666	-2.983100	3.349300	-9.990500	25.760852	2.080331E-5	20.773725
1982.590856	-3.000700	3.347800	-10.045000	25.745899	2.040737E-5	20.758705
1983.579710	-2.984200	3.347600	-9.989100	25.747812	1.931854E-5	20.773429
1984.576743	-2.995000	3.348600	-10.027000	25.743318	1.677793E-5	20.781243
1985.596036	-2.989600	3.348500	-10.009000	25.749455	1.684392E-5	20.780769
1986.599420	-3.007300	3.346700	-10.064000	25.752385	1.529315E-5	20.785135
1987.588456	-2.990100	3.347000	-10.007000	25.747547	1.638199E-5	20.773638
1988.588675	-3.000400	3.346900	-10.041000	25.772817	1.677793E-5	20.776261
1989.594362	-2.973000	3.347100	-9.950600	25.743998	1.390737E-5	20.778607
1990.580789	-2.990600	3.346000	-10.006000	25.762953	1.364341E-5	20.783897
1991.581955	-2.988500	3.346000	-9.998100	25.763578	1.657996E-5	20.788792
1992.591990	-3.002100	3.345200	-10.042000	25.754885	1.344544E-5	20.779586
1993.589245	-2.979000	3.346100	-9.966600	25.781374	1.466625E-5	20.769209
1994.582857	-3.026500	3.344200	-10.120000	25.785996	1.347843E-5	20.764843
1995.581519	-2.980300	3.344200	-9.966300	25.763712	1.344544E-5	20.762848
1996.581231	-2.993500	3.344300	-10.010000	25.761849	1.271955E-5	20.775200
1997.584831	-2.978900	3.345000	-9.963300	25.773925	1.364341E-5	20.775952
1998.583089	-3.003000	3.343100	-10.038000	25.788883	1.242259E-5	20.781494
1999.586015	-3.001600	3.343400	-10.035000	25.773600	1.130077E-5	20.761875
2000.589616	-3.006900	3.343000	-10.051000	25.800040	1.034391E-5	20.788907
2001.594991	-2.983400	3.343100	-9.972400	25.792242	9.815994E-6	20.793877
2002.602890	-2.994300	3.342700	-10.009000	25.793088	1.163072E-5	20.789036
2003.586143	-2.978900	3.341100	-9.951600	25.786829	1.126777E-5	20.785594
2004.584266	-2.980300	3.340800	-9.955500	25.795222	9.684014E-6	20.782645
2005.588109	-2.989600	3.340900	-9.986900	25.811699	1.050889E-5	20.785920
2006.588284	-3.010200	3.340100	-10.052000	25.809511	8.661171E-6	20.792257
2007.591403	-2.984800	3.341300	-9.971400	25.800572	8.034267E-6	20.793710
2008.587582	-2.994100	3.339100	-9.997200	25.806040	7.704318E-6	20.784029
2009.590683	-2.988700	3.340300	-9.982900	25.801148	5.889596E-6	20.781486
2010.585211	-2.984500	3.340200	-9.968200	25.794319	7.836298E-6	20.795963
2011.589712	-3.017300	3.339200	-10.073000	25.807536	8.298227E-6	20.781264
2012.588998	-2.975600	3.339500	-9.936300	25.815118	7.374369E-6	20.787458
2013.588388	-2.973300	3.339800	-9.928000	25.815143	6.153556E-6	20.784164
2014.590242	-2.998700	3.340000	-10.015000	25.818674	6.120561E-6	20.798142
2015.586924	-2.998900	3.338900	-10.012000	25.812243	4.866753E-6	20.798320
2016.588788	-3.001700	3.338600	-10.020000	25.810207	3.777920E-6	20.782525
2017.588574	-2.986000	3.337700	-9.965000	25.807277	2.854062E-6	20.798074
2018.593171	-3.004900	3.338100	-10.030000	25.827929	4.140865E-6	20.803172
2019.599641	-3.012400	3.336300	-10.049000	25.826513	4.470814E-6	20.804594
2020.589940	-3.021700	3.335000	-10.076000	25.829492	2.986042E-6	20.788147
2021.600294	-2.979200	3.337200	-9.940700	25.836903	3.711931E-6	20.801755
2022.596450	-2.999000	3.335900	-10.003000	25.838938	2.656093E-6	20.796213
2023.591786	-3.064400	3.333300	-10.214000	25.840611	2.804570E-7	20.790781
2024.602160	-3.002900	3.336200	-10.017000	25.839459	1.798224E-6	20.780141
2025.604718	-3.003600	3.334400	-10.013000	25.843792	7.753811E-7	20.811046
2026.593287	-3.050100	3.334800	-10.170000	25.855587	5.774114E-7	20.799661
2027.605981	-3.017800	3.334000	-10.060000	25.844638	-7.423861E-7	20.792456
2028.596953	-3.002400	3.333500	-10.007000	25.845490	-8.413709E-7	20.814174
2029.600449	-2.998700	3.334700	-9.998900	25.857388	-6.104064E-7	20.796729
2030.592582	-3.029800	3.334000	-10.100000	25.866460	-1.633249E-6	20.787824
2031.592621	-2.993400	3.335000	-9.981600	25.860220	-2.722082E-6	20.803367
2032.594356	-2.997400	3.332500	-9.987900	25.857320	-3.645941E-6	20.813256
2033.594812	-2.995100	3.332800	-9.980100	25.851907	-2.623098E-6	20.800232
2034.598759	-3.011900	3.332200	-10.035000	25.860856	-1.435280E-6	20.796894
2035.597717	-2.992900	3.331100	-9.968600	25.863382	-2.986042E-6	20.825035
2036.596196	-2.979800	3.331900	-9.927000	25.869922	-3.414976E-6	20.815484
2037.597623	-3.020200	3.331100	-10.060000	25.880729	-3.381981E-6	20.789831
2038.604650	-3.000500	3.331500	-9.995600	25.879068	-3.810915E-6	20.822775
2039.599632	-2.996900	3.331900	-9.984900	25.896930	-5.493657E-6	20.789984
2040.607648	-3.009700	3.331100	-10.025000	25.896114	-6.813455E-6	20.795803
2041.604086	-3.020000	3.328800	-10.052000	25.893577	-5.394673E-6	20.795625
2042.597975	-3.012500	3.330300	-10.033000	25.905854	-9.123101E-6	20.814123
2043.601201	-3.009000	3.328500	-10.015000	25.897511	-8.133253E-6	20.813328
2044.609159	-3.017500	3.328100	-10.042000	25.900883	-6.714470E-6	20.820508
2045.607063	-2.978900	3.330600	-9.920300	25.897137	-7.242389E-6	20.828125
2046.598008	-3.030500	3.328300	-10.085000	25.920246	-7.341374E-6	20.811511
2047.607673	-2.992400	3.328000	-9.957300	25.902310	-8.133253E-6	20.800131
2048.608075	-3.001300	3.327900	-9.987100	25.900575	-7.110409E-6	20.823518
2049.603838	-2.994100	3.327600	-9.961900	25.927055	-9.881984E-6	20.822619
2050.604510	-2.977900	3.327300	-9.906800	25.910591	-6.945435E-6	20.818881
2051.607946	-2.997200	3.328600	-9.975200	25.903015	-1.037691E-5	20.833555
2052.611367	-2.995800	3.326900	-9.965800	25.925320	-9.222086E-6	20.811393
2053.605918	-2.996200	3.327000	-9.967800	25.912730	-1.067386E-5	20.798745
2054.603940	-2.979900	3.326600	-9.911400	25.952026	-1.133376E-5	20.824472
2055.607872	-3.011200	3.325500	-10.012000	25.920950	-1.182869E-5	20.812218
2056.615023	-3.013600	3.325200	-10.019000	25.931983	-1.331346E-5	20.808129
2057.603936	-3.006100	3.325200	-9.995100	25.921667	-1.222463E-5	20.814836
2058.615211	-2.988700	3.324300	-9.934000	25.944947	-1.064087E-5	20.817360
2059.610007	-2.995100	3.324900	-9.956900	25.931486	-1.423732E-5	20.816165
2060.617862	-2.989700	3.323300	-9.933300	25.935507	-1.314848E-5	20.813567
2061.615440	-3.010800	3.324100	-10.007000	25.951904	-1.423732E-5	20.814392
2062.620728	-3.028400	3.322600	-10.061000	25.925915	-1.479823E-5	20.844707
2063.605574	-3.018600	3.322900	-10.030000	25.940944	-1.460026E-5	20.827090
2064.608899	-3.021300	3.323200	-10.039000	25.938069	-1.562310E-5	20.833684
2065.612330	-2.989300	3.322400	-9.930200	25.939381	-1.522716E-5	20.829312
2066.614410	-3.028500	3.321500	-10.058000	25.940994	-1.631600E-5	20.849423
2067.607295	-3.010800	3.322200	-10.001000	25.936280	-1.463326E-5	20.838050
2068.616672	-2.996600	3.321800	-9.952600	25.978726	-1.681092E-5	20.834226
2069.611049	-3.007300	3.320800	-9.985800	25.967129	-1.631600E-5	20.835852
2070.616674	-3.005200	3.320100	-9.976700	25.973485	-1.849366E-5	20.840341
2071.604629	-2.998800	3.320600	-9.957000	25.980098	-1.836168E-5	20.832760
2072.606119	-3.017300	3.318700	-10.012000	25.942017	-1.938453E-5	20.843813
2073.604937	-2.995900	3.319500	-9.944100	25.964873	-1.826270E-5	20.836430
2074.609008	-2.986500	3.319200	-9.911500	25.957941	-1.941752E-5	20.836104
2075.607572	-2.997700	3.318600	-9.946000	25.967061	-1.981346E-5	20.832464
2076.613214	-2.971600	3.319000	-9.861600	25.957095	-2.172717E-5	20.823875
2077.607373	-3.009000	3.317600	-9.981700	25.964273	-2.007742E-5	20.843413
2078.618478	-2.995900	3.318700	-9.941300	25.979302	-2.281600E-5	20.859460
2079.612607	-2.964900	3.318100	-9.837100	25.994600	-2.268402E-5	20.847329
2080.611958	-2.992500	3.317500	-9.926600	25.972909	-2.205712E-5	20.848771
2081.607738	-2.985500	3.317500	-9.904100	25.999859	-2.185915E-5	20.855932
2082.612552	-2.999800	3.315300	-9.944600	26.001079	-2.416879E-5	20.845778
2083.608993	-3.006700	3.316000	-9.969300	25.997353	-2.472971E-5	20.842983
2084.608194	-2.989700	3.316100	-9.913400	26.002096	-2.509265E-5	20.834947
2085.613345	-2.985300	3.315500	-9.896900	26.007337	-2.393783E-5	20.835945
2086.620638	-2.992400	3.316300	-9.922900	26.003507	-2.406981E-5	20.833045
2087.610807	-3.019700	3.314800	-10.008000	26.009942	-2.515864E-5	20.847096
2088.615590	-2.997100	3.315000	-9.934200	26.013810	-2.657743E-5	20.853353
2089.625864	-3.010900	3.314800	-9.979600	26.012743	-2.809519E-5	20.863186
2090.613479	-3.015000	3.313700	-9.989400	26.024989	-2.802920E-5	20.865532
2091.611022	-3.003300	3.313800	-9.951500	26.038626	-2.763326E-5	20.848888
2092.617642	-3.005900	3.313400	-9.958700	26.026847	-2.703935E-5	20.831838
2093.622339	-3.011400	3.312500	-9.974000	26.024315	-2.862311E-5	20.880975
2094.611987	-3.002900	3.312100	-9.944500	26.023966	-2.875509E-5	20.872090
2095.613178	-3.017500	3.311700	-9.991700	26.046269	-2.862311E-5	20.865576
2096.620473	-2.974900	3.312400	-9.853400	26.052183	-3.083377E-5	20.845440
2097.614703	-2.997700	3.310500	-9.923700	26.049242	-3.004189E-5	20.867140
2098.619958	-2.984100	3.312900	-9.885400	26.046834	-3.113073E-5	20.869462
2099.624148	-3.017200	3.309600	-9.984700	26.066881	-3.109773E-5	20.845035
2100.627426	-2.990800	3.310600	-9.901000	26.064993	-3.221956E-5	20.857362
2101.621284	-3.002500	3.309700	-9.935600	26.041716	-3.142768E-5	20.866691
2102.621387	-2.990000	3.310100	-9.896400	26.051902	-3.261550E-5	20.855589
2103.617496	-3.001300	3.309900	-9.932400	26.059704	-3.165865E-5	20.850151
2104.624611	-3.014500	3.309100	-9.974000	26.074431	-3.410027E-5	20.873482
2105.620071	-2.996400	3.309400	-9.914800	26.074303	-3.423225E-5	20.875250
2106.622883	-3.013700	3.308500	-9.969400	26.081442	-3.400129E-5	20.874362
2107.632487	-2.996000	3.308600	-9.911700	26.063228	-3.449621E-5	20.861278
2108.626133	-3.000800	3.307500	-9.924300	26.074259	-3.528809E-5	20.876154
2109.623213	-2.994400	3.308500	-9.905200	26.094649	-3.439723E-5	20.867719
2110.630000	-3.016300	3.306800	-9.973800	26.096414	-3.700383E-5	20.880871
2111.627305	-3.014000	3.306200	-9.963500	26.103640	-3.670687E-5	20.876752
2112.628733	-3.015900	3.305600	-9.968800	26.087252	-3.772972E-5	20.873562
2113.620247	-3.008600	3.306600	-9.947500	26.114322	-3.700383E-5	20.875631
2114.619864	-3.022400	3.305900	-9.990400	26.120849	-3.895053E-5	20.856586
2115.624886	-3.001200	3.306400	-9.922400	26.101065	-3.937946E-5	20.870846
2116.634979	-3.019600	3.304900	-9.978800	26.118801	-4.060028E-5	20.870649
2117.623642	-2.997500	3.305400	-9.906600	26.119445	-4.116119E-5	20.880304
2118.632001	-2.997000	3.305300	-9.904500	26.126989	-3.947845E-5	20.881246
2119.623729	-3.004300	3.304600	-9.927200	26.131836	-3.792769E-5	20.897969
2120.633184	-3.011200	3.304400	-9.949200	26.149149	-4.248099E-5	20.882650
2121.626906	-3.029000	3.303400	-10.005000	26.123225	-4.201906E-5	20.871775
2122.625918	-3.013900	3.304000	-9.957200	26.131493	-4.175510E-5	20.867281
2123.634359	-3.006400	3.303500	-9.930800	26.139681	-4.053429E-5	20.878352
2124.630548	-2.990500	3.303100	-9.877800	26.133601	-4.241500E-5	20.882200
2125.627975	-2.997100	3.301600	-9.894100	26.148701	-4.182109E-5	20.889312
2126.627831	-2.976100	3.303200	-9.828900	26.147905	-4.380079E-5	20.870969
2127.628863	-3.019300	3.303000	-9.972500	26.137529	-4.482363E-5	20.882354
2128.627325	-2.996900	3.302600	-9.896500	26.148131	-4.373480E-5	20.872145
2129.631185	-2.985300	3.302000	-9.855500	26.138178	-4.300891E-5	20.892489
2130.634159	-2.994600	3.300200	-9.881700	26.135121	-4.512059E-5	20.874719
2131.634021	-2.985400	3.299800	-9.850000	26.153352	-4.584647E-5	20.874072
2132.633348	-2.978000	3.300300	-9.828000	26.132835	-4.297591E-5	20.882379
2133.639855	-2.978700	3.299700	-9.827800	26.167374	-4.640739E-5	20.869196
2134.632528	-2.990800	3.300000	-9.868300	26.171498	-4.660536E-5	20.871444
2135.633449	-2.988900	3.300000	-9.862900	26.164114	-4.627541E-5	20.874455
2136.635492	-2.998300	3.300000	-9.893400	26.170941	-4.620942E-5	20.865195
2137.633361	-3.012000	3.297800	-9.932000	26.181740	-5.069673E-5	20.894061
2138.633302	-2.996600	3.299200	-9.885900	26.167982	-4.779318E-5	20.875496
2139.630846	-2.995100	3.298400	-9.877600	26.174730	-4.772719E-5	20.853355
2140.633090	-3.007500	3.297700	-9.915900	26.190448	-5.069673E-5	20.861563
2141.640841	-2.986400	3.297300	-9.846000	26.185503	-5.046577E-5	20.866551
2142.632643	-2.969200	3.297700	-9.790500	26.207350	-4.891500E-5	20.872856
2143.632852	-3.000500	3.296900	-9.891700	26.183359	-4.934394E-5	20.878620
2144.640945	-2.986400	3.296600	-9.844200	26.174767	-5.115866E-5	20.876151
2145.634835	-3.024900	3.294800	-9.965400	26.190063	-5.148861E-5	20.851219
2146.639688	-3.007700	3.294400	-9.908200	26.198428	-5.185155E-5	20.874797
2147.637306	-3.031100	3.295500	-9.987600	26.220256	-5.211551E-5	20.860222
2148.636062	-3.000900	3.295000	-9.886400	26.185511	-5.247846E-5	20.865136
2149.637641	-3.030000	3.294200	-9.979800	26.204385	-5.208252E-5	20.858024
2150.653156	-2.981900	3.294900	-9.823400	26.217468	-5.442516E-5	20.859317
2151.648767	-2.988300	3.293900	-9.842300	26.204606	-5.393024E-5	20.854927
2152.642688	-2.984400	3.294300	-9.830300	26.201371	-5.284140E-5	20.873012
2153.640534	-2.999500	3.293600	-9.878400	26.199685	-5.531602E-5	20.858043
2154.642628	-3.009900	3.292000	-9.907600	26.211059	-5.379826E-5	20.853825
2155.640939	-3.008700	3.292500	-9.904700	26.228143	-5.643785E-5	20.852501
2156.636565	-3.006100	3.291600	-9.893900	26.228787	-5.653684E-5	20.841769
2157.639616	-2.983800	3.292600	-9.823800	26.237078	-5.521704E-5	20.855790
2158.638854	-2.997100	3.291100	-9.863100	26.230099	-5.920943E-5	20.834078
2159.643409	-3.014600	3.291300	-9.921400	26.235589	-5.683379E-5	20.863302
2160.639628	-2.997900	3.291800	-9.867900	26.233156	-5.924242E-5	20.856116
2161.645938	-2.989000	3.290500	-9.834400	26.243905	-5.947339E-5	20.849848
2162.645504	-2.992900	3.290200	-9.846000	26.264267	-5.802161E-5	20.856560
2163.645130	-3.015100	3.289000	-9.915900	26.255823	-6.003430E-5	20.837644
2164.643851	-3.006000	3.290200	-9.889400	26.257465	-6.148608E-5	20.843561
2165.645068	-3.027300	3.288100	-9.953400	26.279090	-6.333380E-5	20.847749
2166.646698	-2.989600	3.290000	-9.833800	26.276327	-6.033126E-5	20.846395
2167.649303	-3.008600	3.288100	-9.892100	26.272528	-6.234395E-5	20.868180
2168.645254	-2.997500	3.287400	-9.853000	26.276848	-6.069420E-5	20.854504
2169.645255	-3.015300	3.286000	-9.907900	26.275825	-6.204699E-5	20.840200
2170.647171	-2.982500	3.287000	-9.803200	26.263822	-6.320182E-5	20.847104
2171.647474	-2.974100	3.286800	-9.774000	26.286726	-6.534649E-5	20.864905
2172.649304	-3.008500	3.285400	-9.882800	26.289693	-6.475258E-5	20.839912
2173.647274	-2.989600	3.286000	-9.822800	26.297640	-6.633634E-5	20.843157
2174.646063	-2.988600	3.285800	-9.818200	26.301188	-6.838203E-5	20.852887
2175.645841	-2.980400	3.285600	-9.790400	26.322891	-6.719421E-5	20.824438
2176.647142	-2.987200	3.284800	-9.812100	26.309754	-6.699624E-5	20.853435
2177.649086	-2.988600	3.284300	-9.814500	26.321445	-6.735918E-5	20.841951
2178.647593	-2.989500	3.283700	-9.815700	26.294926	-6.947086E-5	20.852283
2179.648299	-3.010100	3.281300	-9.874800	26.344037	-6.775512E-5	20.846638
2180.649579	-2.984600	3.283600	-9.799300	26.333161	-6.772213E-5	20.844242
2181.651638	-2.993900	3.283600	-9.830000	26.321617	-6.884395E-5	20.847813
2182.651801	-2.965300	3.283000	-9.734100	26.324546	-7.135157E-5	20.846490
2183.649855	-3.002400	3.281900	-9.852700	26.341034	-7.240741E-5	20.849310
2184.648844	-2.985200	3.282500	-9.798100	26.331396	-7.201147E-5	20.849581
2185.649046	-2.977200	3.281400	-9.768700	26.336867	-7.300132E-5	20.834691
2186.651729	-3.021500	3.280600	-9.911300	26.328645	-7.494802E-5	20.832592
2187.650124	-3.008500	3.279300	-9.864900	26.311286	-7.158254E-5	20.835061
2188.654073	-2.992300	3.280000	-9.813400	26.331849	-7.521198E-5	20.849562
2189.650558	-2.983200	3.280500	-9.785900	26.318688	-7.283634E-5	20.847241
2190.651593	-2.989600	3.278600	-9.800700	26.320122	-7.405716E-5	20.809803
2191.655286	-2.996400	3.278800	-9.823500	26.337432	-7.478305E-5	20.827198
2192.651383	-2.996900	3.278100	-9.823600	26.341953	-7.425513E-5	20.837432
2193.655392	-2.990400	3.278700	-9.803000	26.359636	-7.725767E-5	20.823435
2194.652943	-2.988900	3.278200	-9.797700	26.353497	-7.709269E-5	20.835757
2195.653049	-2.957800	3.279300	-9.698100	26.345177	-7.501401E-5	20.839249
2196.655248	-3.008200	3.277100	-9.856900	26.361346	-7.808254E-5	20.830843
2197.653054	-2.979800	3.278000	-9.767000	26.371829	-7.801655E-5	20.836637
2198.653950	-2.987900	3.276900	-9.789600	26.350819	-7.861046E-5	20.829273
2199.655103	-2.995000	3.276500	-9.812200	26.358043	-7.861046E-5	20.831317
2200.654742	-2.982600	3.277000	-9.773900	26.375057	-7.950132E-5	20.829451
2201.655848	-3.009600	3.275200	-9.856300	26.373263	-7.950132E-5	20.806311
2202.653329	-2.993200	3.274500	-9.800300	26.391171	-8.214092E-5	20.835215
2203.658379	-2.991500	3.275400	-9.797400	26.369396	-7.989726E-5	20.838460
2204.655927	-2.986600	3.274000	-9.776700	26.388616	-8.105209E-5	20.831224
2205.656302	-3.013000	3.274400	-9.864400	26.380645	-8.313077E-5	20.834118
2206.660573	-2.999400	3.274600	-9.820900	26.390705	-8.316376E-5	20.826686
2207.656672	-3.017800	3.273400	-9.877300	26.383830	-8.082112E-5	20.834949
2208.657557	-2.999700	3.274600	-9.821500	26.385540	-8.385666E-5	20.830504
2209.656662	-3.019700	3.272000	-9.878500	26.417350	-8.494549E-5	20.829758
2210.657257	-3.004300	3.272200	-9.829600	26.388843	-8.484651E-5	20.823391
2211.663134	-3.009100	3.272000	-9.844100	26.384976	-8.619930E-5	20.824721
2212.662496	-3.006300	3.271100	-9.833300	26.399974	-8.478052E-5	20.807553
2213.658036	-3.016700	3.271400	-9.867400	26.393419	-8.623230E-5	20.827042
2214.660847	-3.017100	3.269600	-9.863200	26.394441	-8.732113E-5	20.822380
2215.658262	-3.005900	3.270400	-9.829200	26.418556	-8.906986E-5	20.809633
2216.660021	-3.009200	3.270300	-9.840100	26.388388	-8.936682E-5	20.813925
2217.661893	-2.988100	3.269500	-9.768100	26.408423	-8.712316E-5	20.812251
2218.661383	-2.977700	3.269900	-9.735800	26.400286	-9.098357E-5	20.820668
2219.666254	-2.993300	3.268300	-9.782100	26.420596	-9.042266E-5	20.804097
2220.661136	-2.973100	3.269300	-9.718200	26.443349	-9.058763E-5	20.820328
2221.660696	-2.989800	3.269100	-9.772700	26.433958	-9.104956E-5	20.795242
2222.663775	-2.981900	3.268200	-9.744000	26.444091	-9.029068E-5	20.820125
2223.661072	-2.996100	3.267300	-9.787900	26.435850	-9.302926E-5	20.800463
2224.662081	-2.983400	3.267000	-9.745800	26.444966	-9.121453E-5	20.806307
2225.662979	-3.010500	3.266500	-9.833000	26.459462	-9.137951E-5	20.793850
2226.662903	-2.974900	3.267000	-9.716600	26.446033	-9.170946E-5	20.812120
2227.662947	-3.007200	3.265300	-9.818500	26.441094	-9.322723E-5	20.811424
2228.662985	-2.999600	3.264500	-9.791400	26.450063	-9.441505E-5	20.809533
2229.662588	-3.016100	3.265100	-9.847100	26.422402	-9.342520E-5	20.800222
2230.664195	-2.992600	3.265800	-9.771800	26.470274	-9.382114E-5	20.805666
2231.664608	-2.996000	3.265500	-9.782600	26.447802	-9.309525E-5	20.821485
2232.664129	-3.008300	3.264200	-9.818800	26.461685	-9.514093E-5	20.815524
2233.664686	-3.005500	3.262900	-9.805900	26.458609	-9.533890E-5	20.805795
2234.666651	-3.019500	3.262600	-9.850500	26.456973	-9.471200E-5	20.813159
2235.665623	-3.012800	3.263100	-9.830500	26.476186	-9.652672E-5	20.804495
2236.676113	-2.997800	3.261900	-9.777000	26.449603	-9.745058E-5	20.781095
2237.664717	-2.984800	3.263300	-9.738600	26.476644	-9.523992E-5	20.791206
2238.665235	-3.004200	3.261400	-9.797200	26.491323	-9.570185E-5	20.799796
2239.667032	-2.989800	3.261300	-9.749700	26.508446	-9.580083E-5	20.802783
2240.668859	-3.001300	3.260400	-9.785100	26.505573	-9.761556E-5	20.785670
2241.667635	-2.982500	3.260500	-9.723000	26.496040	-9.603180E-5	20.774191
2242.670281	-2.992400	3.260300	-9.755600	26.504482	-9.886936E-5	20.797850
2243.667431	-3.008600	3.259100	-9.803700	26.489215	-9.966124E-5	20.792461
2244.681709	-2.986200	3.258300	-9.729100	26.513267	-0.000100	20.790559
2245.670451	-2.984200	3.258700	-9.723500	26.521788	-9.820947E-5	20.795331
2246.666437	-3.010100	3.258400	-9.806700	26.527253	-9.913332E-5	20.796082
2247.667555	-2.988200	3.257400	-9.732900	26.512158	-0.000101	20.799401
2248.673895	-2.983800	3.257100	-9.717200	26.527056	-0.000101	20.791617
2249.668043	-2.993400	3.257800	-9.751200	26.531498	-9.906733E-5	20.798453
2250.672551	-3.010300	3.255300	-9.798200	26.548430	-9.985921E-5	20.802671
2251.668162	-2.996200	3.256400	-9.755600	26.528000	-0.000100	20.792092
2252.669994	-3.000900	3.255000	-9.767000	26.547787	-0.000100	20.786851
2253.672935	-3.021800	3.255500	-9.836700	26.537789	-0.000101	20.784862
2254.669602	-2.988600	3.253900	-9.723400	26.549826	-0.000102	20.808342
2255.671410	-3.018500	3.253900	-9.820900	26.514252	-0.000101	20.786333
2256.670438	-3.008800	3.253100	-9.787300	26.539651	-0.000103	20.755913
2257.670469	-3.005000	3.252600	-9.773400	26.534260	-0.000103	20.786057
2258.671310	-3.020400	3.252200	-9.821600	26.544013	-0.000101	20.777368
2259.670262	-3.004200	3.251700	-9.768000	26.555787	-0.000106	20.780194
2260.669338	-2.984500	3.252500	-9.705200	26.572517	-0.000104	20.784683
2261.671201	-3.011200	3.252100	-9.791300	26.542053	-0.000105	20.782036
2262.675189	-2.994900	3.251300	-9.736200	26.557741	-0.000106	20.789745
2263.674256	-2.985400	3.251800	-9.707000	26.561338	-0.000105	20.785774
2264.672398	-3.003900	3.250800	-9.764400	26.556670	-0.000105	20.790565
2265.675149	-3.020500	3.250500	-9.817500	26.573975	-0.000104	20.779511
2266.676326	-3.033100	3.249000	-9.853200	26.555298	-0.000107	20.792031
2267.671380	-3.012000	3.249800	-9.787500	26.566821	-0.000105	20.795079
2268.673534	-3.010800	3.248100	-9.778700	26.563464	-0.000108	20.787911
2269.677477	-2.993500	3.248400	-9.723200	26.590075	-0.000106	20.804230
2270.672818	-2.998500	3.247400	-9.736200	26.576096	-0.000107	20.781643
2271.674433	-3.019200	3.248100	-9.805300	26.595680	-0.000106	20.778096
2272.677146	-3.004600	3.245900	-9.751900	26.589794	-0.000108	20.813430
2273.674131	-2.987700	3.247400	-9.701300	26.590535	-0.000107	20.769131
2274.677030	-2.993500	3.246700	-9.718200	26.590205	-0.000108	20.783972
2275.674686	-2.996100	3.246300	-9.725100	26.579926	-0.000109	20.783597
2276.680836	-3.020200	3.244300	-9.797100	26.612496	-0.000108	20.785044
2277.675299	-3.008900	3.245600	-9.764900	26.618524	-0.000109	20.787784
2278.674982	-3.005100	3.245200	-9.751000	26.595884	-0.000109	20.782095
2279.677984	-3.001300	3.243800	-9.734300	26.605686	-0.000109	20.791948
2280.674631	-3.000200	3.243900	-9.731700	26.620179	-0.000112	20.772378
2281.676942	-3.030600	3.242600	-9.826000	26.632074	-0.000111	20.768215
2282.678185	-2.987400	3.243400	-9.688000	26.632516	-0.000111	20.787151
2283.675467	-2.998700	3.242100	-9.721200	26.640289	-0.000112	20.769360
2284.676506	-3.024500	3.240500	-9.799600	26.627671	-0.000112	20.788445
2285.678037	-2.986400	3.241700	-9.680300	26.634550	-0.000111	20.767858
2286.676823	-2.999100	3.240200	-9.716400	26.625234	-0.000113	20.789313
2287.676635	-3.001400	3.241400	-9.727500	26.636406	-0.000113	20.778260
2288.685818	-2.991000	3.240600	-9.691900	26.621760	-0.000112	20.779183
2289.679120	-2.988900	3.240800	-9.684200	26.622232	-0.000114	20.767329
2290.678727	-2.995400	3.239800	-9.703700	26.637325	-0.000112	20.754053
2291.683680	-3.030700	3.238800	-9.814500	26.630692	-0.000114	20.769670
2292.680253	-2.969000	3.238800	-9.614300	26.633497	-0.000116	20.763481
2293.681024	-3.010100	3.237200	-9.743900	26.654673	-0.000114	20.775760
2294.684528	-3.007700	3.237700	-9.737600	26.649509	-0.000112	20.780052
2295.680122	-2.996100	3.236300	-9.695100	26.670114	-0.000115	20.768524
2296.681299	-2.998100	3.237400	-9.704500	26.657350	-0.000113	20.763278
2297.680586	-3.001300	3.236700	-9.713700	26.636897	-0.000115	20.778279
2298.680360	-3.008000	3.236100	-9.733200	26.660883	-0.000113	20.767779
2299.679982	-3.014400	3.234300	-9.748400	26.665870	-0.000117	20.775637
2300.681922	-2.996800	3.234900	-9.692400	26.649515	-0.000115	20.767255
2301.684961	-2.971700	3.235500	-9.613500	26.645889	-0.000116	20.768826
2302.684097	-2.969900	3.233600	-9.602800	26.644847	-0.000117	20.757347
2303.684146	-3.017100	3.233400	-9.754500	26.646783	-0.000117	20.760716
2304.683836	-2.969500	3.233600	-9.601500	26.670714	-0.000116	20.743996
2305.685065	-2.997900	3.233300	-9.692000	26.636908	-0.000117	20.763591
2306.685863	-2.988900	3.232400	-9.659900	26.644902	-0.000117	20.777791
2307.685531	-2.993200	3.231600	-9.672200	26.659493	-0.000116	20.761639
2308.688726	-3.001900	3.231500	-9.700000	26.655578	-0.000119	20.763394
2309.687389	-3.016900	3.230700	-9.746100	26.678836	-0.000117	20.780611
2310.687378	-2.989500	3.231100	-9.658300	26.677470	-0.000119	20.773074
2311.691239	-2.975500	3.231200	-9.612900	26.699515	-0.000118	20.741182
2312.688519	-2.998900	3.230800	-9.687900	26.673318	-0.000119	20.763210
2313.690358	-2.973200	3.229600	-9.601900	26.679902	-0.000118	20.755604
2314.689012	-2.973700	3.229800	-9.602600	26.695919	-0.000119	20.755111
2315.687631	-2.999800	3.229000	-9.685200	26.711207	-0.000119	20.735867
2316.688537	-3.003100	3.227200	-9.690800	26.698124	-0.000118	20.748793
2317.688098	-2.986900	3.227300	-9.638800	26.714288	-0.000120	20.749396
2318.689142	-3.022400	3.226900	-9.751800	26.742629	-0.000121	20.758923
2319.688274	-3.003200	3.226600	-9.689300	26.725124	-0.000120	20.734211
2320.690076	-2.991000	3.226800	-9.650300	26.721957	-0.000121	20.757106
2321.693755	-2.993300	3.226300	-9.656900	26.737692	-0.000120	20.752537
2322.692818	-2.995500	3.224400	-9.657000	26.742113	-0.000122	20.738016
2323.694241	-2.996600	3.225600	-9.664700	26.731345	-0.000122	20.750424
2324.692721	-3.007800	3.224200	-9.696800	26.722654	-0.000122	20.737893
2325.692758	-2.988300	3.223800	-9.632200	26.733368	-0.000123	20.759096
2326.694053	-3.005200	3.223100	-9.685300	26.742634	-0.000122	20.758455
2327.696826	-3.001100	3.222700	-9.670800	26.753855	-0.000123	20.743657
2328.693326	-2.993800	3.222000	-9.644900	26.735481	-0.000124	20.738934
2329.692563	-2.990400	3.221400	-9.633000	26.750106	-0.000122	20.736095
2330.693050	-2.980600	3.221400	-9.600500	26.746726	-0.000123	20.727954
2331.694788	-2.998800	3.219900	-9.655100	26.744349	-0.000124	20.748799
2332.696184	-2.998400	3.220300	-9.654000	26.765522	-0.000123	20.752069
2333.694338	-2.976000	3.220300	-9.583000	26.761804	-0.000124	20.740269
2334.693365	-2.999300	3.219500	-9.654300	26.754651	-0.000125	20.752518
2335.694731	-2.996800	3.220100	-9.648300	26.744423	-0.000123	20.747924
2336.695656	-2.985200	3.219600	-9.610100	26.756837	-0.000124	20.728162
2337.697746	-2.980300	3.218600	-9.590800	26.761731	-0.000125	20.747782
2338.696664	-2.988100	3.216900	-9.611200	26.752342	-0.000125	20.753042
2339.695271	-2.982800	3.218000	-9.598000	26.770765	-0.000125	20.750227
2340.697258	-3.009000	3.217000	-9.678400	26.755875	-0.000125	20.739998
2341.697769	-3.010600	3.215000	-9.677500	26.773973	-0.000127	20.725002
2342.695363	-3.028400	3.215400	-9.735900	26.760046	-0.000126	20.753675
2343.699343	-2.998400	3.214900	-9.638200	26.767365	-0.000128	20.742067
2344.698566	-2.996900	3.215500	-9.635900	26.793230	-0.000125	20.742467
2345.698357	-2.987300	3.214900	-9.603000	26.768044	-0.000126	20.747018
2346.704623	-2.994600	3.213900	-9.623600	26.759678	-0.000124	20.746667
2347.698904	-2.994600	3.213200	-9.621000	26.756254	-0.000126	20.764562
2348.696871	-2.982600	3.213800	-9.584000	26.779834	-0.000125	20.725680
2349.700590	-2.976800	3.213100	-9.563400	26.780306	-0.000125	20.746069
2350.699319	-2.993100	3.212700	-9.615400	26.789964	-0.000126	20.752461
2351.697639	-2.981000	3.211900	-9.573400	26.783062	-0.000127	20.733192
2352.699968	-2.986400	3.211200	-9.588500	26.811210	-0.000127	20.723087
2353.701700	-3.023700	3.208600	-9.700700	26.800315	-0.000128	20.730624
2354.696726	-3.000300	3.209900	-9.629500	26.793988	-0.000128	20.739436
2355.699044	-3.009800	3.208900	-9.657600	26.792892	-0.000128	20.739283
2356.702994	-3.009900	3.208600	-9.656700	26.796817	-0.000127	20.751291
2357.697339	-3.028400	3.207500	-9.713200	26.798385	-0.000129	20.728210
2358.700609	-3.001700	3.207400	-9.625900	26.786497	-0.000127	20.740440
2359.705142	-3.023600	3.207200	-9.695300	26.802659	-0.000127	20.725869
2360.700396	-2.975000	3.207900	-9.542700	26.808913	-0.000129	20.730734
2361.702918	-2.997100	3.207000	-9.610700	26.808447	-0.000128	20.717463
2362.698948	-3.014000	3.205400	-9.660600	26.805893	-0.000126	20.710627
2363.698367	-3.001300	3.204600	-9.617600	26.802114	-0.000128	20.735753
2364.700311	-3.008600	3.205000	-9.641600	26.800332	-0.000129	20.736331
2365.697449	-3.012000	3.202700	-9.645500	26.794354	-0.000130	20.728898
2366.699500	-2.992800	3.204500	-9.589900	26.816041	-0.000128	20.727470
2367.705422	-2.999800	3.203400	-9.608500	26.808771	-0.000127	20.724902
2368.700219	-3.035700	3.201400	-9.717600	26.804404	-0.000128	20.730943
2369.703007	-2.997000	3.201300	-9.593000	26.801403	-0.000130	20.728399
2370.713517	-2.966600	3.202800	-9.500000	26.826427	-0.000129	20.722265
2371.707148	-3.006900	3.200400	-9.622600	26.804012	-0.000130	20.732445
2372.703138	-2.993300	3.199900	-9.577600	26.821559	-0.000131	20.726379
2373.704706	-2.994300	3.200700	-9.582700	26.837243	-0.000130	20.733615
2374.706150	-3.012300	3.199400	-9.636600	26.841787	-0.000128	20.741504
2375.703355	-2.999500	3.199600	-9.597000	26.838584	-0.000130	20.726429
2376.708256	-2.994400	3.198700	-9.577000	26.854948	-0.000130	20.733399
2377.703962	-2.990900	3.197900	-9.563700	26.852394	-0.000132	20.720873
2378.711082	-3.005200	3.197800	-9.609000	26.858818	-0.000132	20.722592
2379.706936	-3.016700	3.196900	-9.643100	26.877711	-0.000129	20.722148
2380.712742	-3.002900	3.196700	-9.599000	26.869596	-0.000133	20.748129
2381.705730	-3.000800	3.194800	-9.585600	26.857060	-0.000131	20.726040
2382.705742	-3.018000	3.195700	-9.644000	26.877313	-0.000131	20.745931
2383.706944	-2.996600	3.195000	-9.573600	26.866001	-0.000130	20.734556
2384.713811	-3.001300	3.194000	-9.585600	26.896530	-0.000131	20.723053
2385.707438	-3.008300	3.194100	-9.607500	26.889107	-0.000132	20.738350
2386.706262	-2.965100	3.194700	-9.472000	26.883503	-0.000131	20.742672
2387.721587	-3.007800	3.193000	-9.602900	26.876553	-0.000131	20.736631
2388.713124	-3.009900	3.192000	-9.606500	26.870796	-0.000131	20.751232
2389.720590	-3.022900	3.191100	-9.645500	26.876902	-0.000132	20.729395
2390.709888	-2.989800	3.191600	-9.541200	26.879461	-0.000133	20.737659
2391.707007	-2.996500	3.190500	-9.559200	26.874299	-0.000132	20.735787
2392.720484	-3.010800	3.189600	-9.602400	26.880331	-0.000132	20.741379
2393.714552	-2.995000	3.190400	-9.554700	26.901875	-0.000132	20.740282
2394.710358	-3.003800	3.187900	-9.575000	26.906492	-0.000132	20.737339
2395.708611	-3.013800	3.189100	-9.611000	26.883558	-0.000132	20.751262
2396.706182	-2.986400	3.189200	-9.522600	26.918109	-0.000130	20.739063
2397.714017	-3.010800	3.188200	-9.598100	26.904140	-0.000134	20.719800
2398.707932	-2.996000	3.187100	-9.547900	26.898139	-0.000132	20.742215
2399.709862	-3.018200	3.186600	-9.615700	26.908611	-0.000134	20.728088
2400.707652	-3.014900	3.185500	-9.602500	26.902933	-0.000134	20.738501
2401.715833	-2.976500	3.185800	-9.481900	26.908248	-0.000134	20.722034
2402.716534	-3.006100	3.184500	-9.572300	26.918121	-0.000131	20.744764
2403.720994	-3.000600	3.184000	-9.552800	26.927012	-0.000134	20.722884
2404.713919	-2.999100	3.182900	-9.545000	26.922817	-0.000134	20.720562
2405.711573	-3.012600	3.182700	-9.587300	26.927483	-0.000133	20.736635
2406.708199	-2.984000	3.183200	-9.497200	26.940318	-0.000133	20.744800
2407.718760	-3.017100	3.182000	-9.599500	26.937091	-0.000135	20.749142
2408.713826	-2.966800	3.181600	-9.438300	26.927844	-0.000134	20.725617
2409.717687	-3.014800	3.180700	-9.588200	26.933330	-0.000133	20.732557
2410.713639	-3.018900	3.180200	-9.599600	26.930679	-0.000133	20.727520
2411.711951	-3.002100	3.180300	-9.546800	26.942344	-0.000135	20.721706
2412.715015	-2.992900	3.179600	-9.514700	26.948150	-0.000135	20.735605
2413.718248	-2.977700	3.179500	-9.467200	26.954378	-0.000134	20.739972
2414.723009	-3.009900	3.178400	-9.566100	26.947335	-0.000134	20.713922
2415.716273	-2.994300	3.177800	-9.514300	26.974640	-0.000134	20.748494
2416.713402	-3.012200	3.176800	-9.568400	26.951015	-0.000133	20.714777
2417.715402	-3.025400	3.176400	-9.608500	26.978785	-0.000133	20.748869
2418.714554	-2.973000	3.175900	-9.441500	26.980500	-0.000134	20.724513
2419.714052	-2.995600	3.175400	-9.511200	26.992483	-0.000135	20.726607
2420.720506	-2.991300	3.175100	-9.496800	26.997547	-0.000136	20.730278
2421.717594	-3.002600	3.173900	-9.528900	26.985741	-0.000134	20.734052
2422.727719	-3.000300	3.173300	-9.519600	27.001649	-0.000135	20.743412
2423.715517	-2.979800	3.173400	-9.454900	26.992170	-0.000133	20.750950
2424.722077	-2.976600	3.173400	-9.445400	26.984577	-0.000134	20.725769
2425.717380	-3.002700	3.171800	-9.522400	27.000516	-0.000137	20.741798
2426.729921	-2.987100	3.171700	-9.473400	26.993462	-0.000133	20.738024
2427.723212	-3.039200	3.169500	-9.631100	27.004086	-0.000136	20.729267
2428.720844	-3.004500	3.169700	-9.522900	26.988282	-0.000135	20.753203
2429.717457	-3.023200	3.169600	-9.581200	26.998483	-0.000134	20.740702
2430.730059	-3.004700	3.169100	-9.521300	26.999028	-0.000134	20.727025
2431.719048	-2.984900	3.169700	-9.460300	27.012549	-0.000133	20.736829
2432.720199	-2.980800	3.167900	-9.442200	27.032082	-0.000134	20.760741
2433.721722	-2.988400	3.168100	-9.466800	27.016553	-0.000135	20.763142
2434.721555	-3.001200	3.165300	-9.498100	27.035486	-0.000134	20.734291
2435.722440	-3.019700	3.165900	-9.558700	27.013969	-0.000135	20.742999
2436.723566	-3.017600	3.164900	-9.549600	27.014912	-0.000138	20.737783
2437.730751	-2.992800	3.165200	-9.471600	27.016332	-0.000136	20.752488
2438.727440	-2.985000	3.164900	-9.446700	27.024642	-0.000137	20.752784
2439.731603	-3.013900	3.162700	-9.530700	27.039656	-0.000135	20.750813
2440.737654	-3.001700	3.163400	-9.494600	27.026032	-0.000133	20.744699
2441.728979	-3.007500	3.162800	-9.511700	27.040776	-0.000136	20.746250
2442.736840	-3.034000	3.160700	-9.588300	27.034837	-0.000135	20.747864
2443.730500	-2.990100	3.161500	-9.452000	27.068685	-0.000134	20.758671
2444.743582	-3.005200	3.161000	-9.498500	27.047273	-0.000135	20.744249
2445.729850	-3.012300	3.160700	-9.520000	27.064044	-0.000134	20.742149
2446.738087	-2.997800	3.159200	-9.470500	27.058166	-0.000134	20.753782
2447.729791	-3.005400	3.159000	-9.493300	27.078592	-0.000136	20.761048
2448.722907	-3.032800	3.159100	-9.579700	27.057547	-0.000137	20.726132
2449.723995	-3.001100	3.157800	-9.475900	27.077594	-0.000136	20.749613
2450.727039	-2.992500	3.158700	-9.451500	27.089283	-0.000135	20.751411
2451.722656	-2.989700	3.157700	-9.439700	27.097990	-0.000135	20.749736
2452.723236	-3.006900	3.154700	-9.484700	27.082431	-0.000135	20.768229
2453.727329	-2.992100	3.156000	-9.442300	27.074196	-0.000135	20.772748
2454.729979	-3.018600	3.154200	-9.520600	27.056697	-0.000136	20.756572
2455.729403	-3.004600	3.156100	-9.481900	27.074215	-0.000134	20.752852
2456.728262	-3.021400	3.152600	-9.524400	27.068655	-0.000137	20.779030
2457.732121	-3.040600	3.151200	-9.579800	27.093894	-0.000135	20.742771
2458.731345	-3.000600	3.152500	-9.458800	27.063965	-0.000133	20.776210
2459.731596	-3.042900	3.150400	-9.585400	27.073566	-0.000135	20.760735
2460.731617	-2.995100	3.149700	-9.432900	27.074907	-0.000135	20.759238
2461.727107	-2.968500	3.150800	-9.352500	27.085922	-0.000136	20.762730
2462.746810	-2.985800	3.149600	-9.403400	27.082793	-0.000135	20.758635
2463.735104	-3.007300	3.149900	-9.471900	27.085175	-0.000134	20.769092
2464.727758	-2.972700	3.150900	-9.364700	27.098891	-0.000136	20.762971
2465.739048	-3.013400	3.147200	-9.482200	27.108791	-0.000134	20.755384
2466.727098	-3.001300	3.146900	-9.442700	27.119163	-0.000136	20.765816
2467.727395	-3.013700	3.147700	-9.485500	27.123450	-0.000135	20.765859
2468.733023	-3.003500	3.146800	-9.450500	27.103251	-0.000136	20.768304
2469.737270	-2.990300	3.144900	-9.403400	27.117541	-0.000135	20.777935
2470.734913	-3.002500	3.142200	-9.433600	27.109625	-0.000136	20.769025
2471.735587	-2.982100	3.143500	-9.373500	27.137985	-0.000136	20.769099
2472.730718	-2.990500	3.142500	-9.396500	27.153635	-0.000135	20.775830
2473.730092	-2.990500	3.142400	-9.396300	27.139290	-0.000134	20.767566
2474.732466	-2.997700	3.141300	-9.414900	27.151743	-0.000135	20.774876
2475.731518	-3.005800	3.140700	-9.439000	27.148364	-0.000134	20.785702
2476.731248	-3.004700	3.140400	-9.434700	27.149282	-0.000137	20.770978
2477.735060	-3.021000	3.138600	-9.481200	27.153318	-0.000135	20.775037
2478.738424	-2.996900	3.138600	-9.405100	27.164461	-0.000135	20.782451
2479.734352	-2.998700	3.137300	-9.406800	27.169543	-0.000137	20.780450
2480.732011	-3.013000	3.137200	-9.452000	27.184279	-0.000134	20.788634
2481.742987	-3.022800	3.135900	-9.478500	27.173780	-0.000135	20.777125
2482.732604	-2.985400	3.136700	-9.362100	27.161670	-0.000136	20.782963
2483.733559	-2.969300	3.135400	-9.309100	27.189459	-0.000135	20.783887
2484.733376	-2.964700	3.133900	-9.290200	27.180478	-0.000135	20.773431
2485.733091	-3.003200	3.132900	-9.407600	27.194296	-0.000136	20.789700
2486.736628	-2.975200	3.133000	-9.320400	27.194816	-0.000136	20.778369
2487.730382	-2.988300	3.130900	-9.355600	27.193647	-0.000136	20.792367
2488.735339	-3.013700	3.129700	-9.430100	27.189184	-0.000136	20.793567
2489.742259	-2.979100	3.132900	-9.332500	27.201129	-0.000136	20.782349
2490.733094	-2.986300	3.129000	-9.342600	27.186772	-0.000136	20.788296
2491.742719	-3.004400	3.130200	-9.402200	27.218724	-0.000135	20.771597
2492.743004	-3.002300	3.127200	-9.388000	27.185971	-0.000136	20.787016
2493.742451	-3.008200	3.126400	-9.404300	27.212498	-0.000135	20.814646
2494.735210	-3.011300	3.127400	-9.416900	27.213062	-0.000136	20.784867
2495.734864	-2.998500	3.126800	-9.374400	27.210778	-0.000136	20.788260
2496.737149	-2.990200	3.126800	-9.348400	27.230149	-0.000136	20.787830
2497.748940	-2.983100	3.124300	-9.319100	27.223555	-0.000136	20.797793
2498.744223	-3.013400	3.123600	-9.411500	27.237550	-0.000136	20.793852
2499.736189	-3.041100	3.120800	-9.490100	27.239999	-0.000135	20.765021
2500.734704	-3.002400	3.121700	-9.372200	27.243623	-0.000136	20.793322
2501.739072	-3.003700	3.120400	-9.372400	27.246520	-0.000136	20.795762
2502.743638	-2.973400	3.120600	-9.278000	27.257888	-0.000137	20.797713
2503.734033	-2.988700	3.119800	-9.323800	27.226335	-0.000135	20.792528
2504.736662	-2.984900	3.119000	-9.308800	27.247315	-0.000137	20.789924
2505.738638	-2.982100	3.118300	-9.297500	27.263667	-0.000136	20.782663
2506.741206	-3.011300	3.115500	-9.380800	27.269103	-0.000135	20.790976
2507.741661	-3.019800	3.115700	-9.408000	27.275947	-0.000137	20.810663
2508.740022	-2.988000	3.115900	-9.309800	27.273492	-0.000136	20.798237
2509.742754	-3.020100	3.113200	-9.401800	27.274043	-0.000136	20.805429
2510.762126	-3.009700	3.114100	-9.371200	27.279002	-0.000136	20.798563
2511.743711	-2.996900	3.112700	-9.327500	27.274588	-0.000133	20.801709
2512.745880	-2.975800	3.112400	-9.261400	27.302448	-0.000134	20.800336
2513.741434	-2.992200	3.111300	-9.309000	27.307284	-0.000134	20.778174
2514.756419	-2.995500	3.110700	-9.315900	27.299748	-0.000136	20.805207
2515.739893	-2.972800	3.109300	-9.242700	27.292598	-0.000136	20.811765
2516.740515	-2.999200	3.108500	-9.322000	27.327455	-0.000135	20.798464
2517.744600	-3.007400	3.108700	-9.348700	27.311881	-0.000137	20.783272
2518.742307	-3.025800	3.106200	-9.397000	27.295255	-0.000136	20.830558
2519.743333	-3.022600	3.104900	-9.384200	27.328152	-0.000137	20.797744
2520.745505	-3.019000	3.103900	-9.370000	27.332492	-0.000137	20.817756
2521.743252	-3.011000	3.105000	-9.348600	27.322128	-0.000135	20.779356
2522.742918	-3.000100	3.103600	-9.310100	27.307020	-0.000136	20.785021
2523.744864	-3.007600	3.103100	-9.331700	27.340756	-0.000135	20.821328
2524.743820	-2.982000	3.101200	-9.246700	27.344184	-0.000136	20.780205
2525.744655	-3.009400	3.100900	-9.330800	27.325978	-0.000137	20.815945
2526.750004	-3.000100	3.099800	-9.299100	27.353164	-0.000139	20.819585
2527.746095	-2.995300	3.098400	-9.280100	27.327436	-0.000137	20.802713
2528.756941	-2.998300	3.096800	-9.284000	27.353807	-0.000136	20.812645
2529.756259	-2.994900	3.096600	-9.272300	27.345843	-0.000138	20.806056
2530.755815	-2.990500	3.095400	-9.255800	27.348371	-0.000135	20.823772
2531.749146	-2.998400	3.097500	-9.286700	27.369906	-0.000136	20.827892
2532.757422	-2.990500	3.094400	-9.253100	27.360675	-0.000137	20.805330
2533.763982	-3.004400	3.092000	-9.288500	27.385435	-0.000136	20.804634
2534.756114	-2.982400	3.091300	-9.217700	27.373205	-0.000138	20.823624
2535.751651	-2.993700	3.092100	-9.255700	27.389347	-0.000134	20.802880
2536.750855	-2.977700	3.090700	-9.202400	27.371559	-0.000137	20.829555
2537.751279	-2.998600	3.089600	-9.263300	27.354744	-0.000134	20.813114
2538.752646	-2.994300	3.088200	-9.246200	27.409192	-0.000137	20.823791
2539.754645	-2.985000	3.087000	-9.213600	27.366056	-0.000137	20.835398
2540.752019	-2.998600	3.086800	-9.255100	27.420675	-0.000136	20.815429
2541.754804	-2.989900	3.084500	-9.221200	27.398749	-0.000136	20.822769
2542.755979	-2.996800	3.084100	-9.241200	27.415766	-0.000136	20.825189
2543.753527	-3.014000	3.082200	-9.288100	27.389941	-0.000137	20.834296
2544.753563	-2.988700	3.081600	-9.209700	27.401081	-0.000135	20.822270
2545.755174	-2.970900	3.080700	-9.151900	27.402397	-0.000135	20.839715
2546.755775	-3.009200	3.079100	-9.264200	27.417817	-0.000138	20.840054
2547.755561	-2.992200	3.079000	-9.211900	27.439331	-0.000136	20.821396
2548.763691	-3.004800	3.077300	-9.246000	27.415790	-0.000135	20.815731
2549.760609	-2.982800	3.077000	-9.177100	27.431044	-0.000135	20.841981
2550.760473	-2.996400	3.076000	-9.216300	27.436277	-0.000137	20.835393
2551.759544	-2.996500	3.074900	-9.212500	27.429232	-0.000136	20.826409
2552.765181	-3.026100	3.072800	-9.297800	27.437569	-0.000136	20.830528
2553.763127	-2.980600	3.072600	-9.156600	27.430548	-0.000138	20.830577
2554.758850	-3.024000	3.070300	-9.284000	27.429655	-0.000135	20.837739
2555.762663	-3.006800	3.069300	-9.227700	27.442184	-0.000135	20.841334
2556.762548	-2.993700	3.069500	-9.188000	27.467953	-0.000137	20.856827
2557.775263	-2.996900	3.067200	-9.190800	27.467212	-0.000140	20.837591
2558.761495	-3.014300	3.065100	-9.238700	27.480010	-0.000136	20.835294
2559.760479	-3.003400	3.064800	-9.203100	27.469464	-0.000137	20.841754
2560.760738	-2.982600	3.063900	-9.137700	27.482391	-0.000138	20.835319
2561.765089	-3.004700	3.062900	-9.201600	27.471227	-0.000135	20.838311
2562.762198	-3.027800	3.060900	-9.266700	27.492808	-0.000138	20.837739
2563.763590	-3.005700	3.061400	-9.200500	27.503005	-0.000137	20.857480
2564.770591	-3.010700	3.059200	-9.209300	27.488420	-0.000136	20.841858
2565.765141	-2.979400	3.058600	-9.111800	27.498262	-0.000135	20.864087
2566.768200	-2.991100	3.057600	-9.144500	27.521134	-0.000137	20.844900
2567.767695	-3.000200	3.055400	-9.166200	27.545217	-0.000136	20.858225
2568.771593	-3.010100	3.053900	-9.191300	27.511090	-0.000137	20.850916
2569.770359	-2.974000	3.054900	-9.083800	27.527658	-0.000134	20.839610
2570.766828	-3.003400	3.052400	-9.166300	27.523025	-0.000136	20.843483
2571.772545	-2.990100	3.051900	-9.124500	27.532126	-0.000132	20.858803
2572.771451	-3.008100	3.049900	-9.173400	27.532719	-0.000134	20.859875
2573.768123	-3.001700	3.048300	-9.149600	27.552390	-0.000135	20.853588
2574.772116	-3.004900	3.047500	-9.156600	27.545144	-0.000136	20.860047
2575.771807	-3.011100	3.046400	-9.171400	27.547549	-0.000136	20.836390
2576.769686	-3.003100	3.045100	-9.143900	27.544354	-0.000134	20.845503
2577.769291	-3.006500	3.043800	-9.150300	27.564795	-0.000136	20.876025
2578.773332	-2.998600	3.042200	-9.121200	27.579796	-0.000135	20.842757
2579.768718	-3.008600	3.040800	-9.147500	27.570352	-0.000137	20.856488
2580.770391	-2.990000	3.040300	-9.089300	27.570548	-0.000136	20.849573
2581.779673	-2.998700	3.037600	-9.108200	27.593933	-0.000135	20.846550
2582.770936	-2.989600	3.036600	-9.077300	27.572757	-0.000137	20.862701
2583.771399	-2.992500	3.035900	-9.084400	27.563449	-0.000135	20.867085
2584.773266	-2.982900	3.036300	-9.055200	27.556833	-0.000135	20.849050
2585.772782	-2.996200	3.034200	-9.089600	27.545297	-0.000137	20.860675
2586.771705	-2.981600	3.032100	-9.040200	27.577244	-0.000135	20.885705
2587.775555	-2.987700	3.031400	-9.055700	27.583768	-0.000135	20.867140
2588.774627	-3.008900	3.030300	-9.116800	27.593290	-0.000137	20.853963
2589.774611	-3.004400	3.026900	-9.092800	27.590463	-0.000136	20.856808
2590.778516	-2.990300	3.027400	-9.051800	27.605984	-0.000138	20.882381
2591.776296	-3.001900	3.025800	-9.081900	27.603756	-0.000137	20.855010
2592.774193	-2.973600	3.024600	-8.993300	27.624637	-0.000137	20.877916
2593.775582	-2.987000	3.024100	-9.031600	27.597801	-0.000137	20.874148
2594.773923	-3.013100	3.021200	-9.102200	27.604349	-0.000136	20.856556
2595.781640	-2.997900	3.019800	-9.051500	27.618590	-0.000136	20.884159
2596.777026	-2.995800	3.019900	-9.045200	27.630738	-0.000136	20.877892
2597.777206	-2.972600	3.018200	-8.970900	27.631332	-0.000136	20.880860
2598.776870	-3.013000	3.015100	-9.083700	27.626418	-0.000136	20.873545
2599.775434	-3.010400	3.014300	-9.073500	27.620916	-0.000138	20.885551
2600.782412	-3.000500	3.014500	-9.044000	27.638223	-0.000136	20.871199
2601.777524	-3.016500	3.011800	-9.084000	27.666098	-0.000136	20.875540
2602.779548	-3.008600	3.010800	-9.057100	27.646778	-0.000133	20.873643
2603.776295	-2.991500	3.010200	-9.003900	27.639141	-0.000136	20.881605
2604.776788	-3.029000	3.007700	-9.109800	27.642562	-0.000136	20.880306
2605.780777	-2.989600	3.007800	-8.991200	27.659446	-0.000136	20.877381
2606.778971	-3.008700	3.006200	-9.043900	27.648804	-0.000134	20.886587
2607.782630	-3.007500	3.004500	-9.035000	27.652060	-0.000134	20.881328
2608.778642	-2.985300	3.002800	-8.962700	27.655548	-0.000137	20.882942
2609.778644	-3.007600	3.000700	-9.024800	27.657488	-0.000134	20.855972
2610.785225	-2.979600	3.001100	-8.940900	27.664305	-0.000137	20.878478
2611.778148	-3.023300	2.998000	-9.062900	27.665743	-0.000137	20.870916
2612.781287	-3.007200	2.996600	-9.009800	27.690717	-0.000138	20.892252
2613.784942	-2.966600	2.996300	-8.888300	27.702761	-0.000139	20.860277
2614.781484	-3.016500	2.995000	-9.032800	27.676973	-0.000134	20.860406
2615.780413	-2.991500	2.993100	-8.952000	27.683442	-0.000137	20.873552
2616.782845	-2.989300	2.991100	-8.940500	27.678460	-0.000138	20.864747
2617.785497	-2.973600	2.990700	-8.891600	27.684788	-0.000136	20.865424
2618.783639	-2.993400	2.988700	-8.945500	27.681239	-0.000136	20.849526
2619.786162	-2.998900	2.988000	-8.959800	27.684335	-0.000137	20.860702
2620.784018	-3.046900	2.984300	-9.091600	27.681911	-0.000138	20.851625
2621.781638	-3.023400	2.984400	-9.022500	27.683987	-0.000138	20.839489
2622.781385	-3.005900	2.983200	-8.965900	27.716994	-0.000135	20.856583
2623.781777	-3.003800	2.981300	-8.954500	27.722801	-0.000135	20.840616
2624.782662	-2.998200	2.979200	-8.931700	27.703856	-0.000137	20.828664
2625.791924	-3.032700	2.977300	-9.028200	27.692768	-0.000135	20.842161
2626.781064	-2.996400	2.975600	-8.914400	27.704640	-0.000136	20.844625
2627.781532	-2.979300	2.976100	-8.865500	27.720739	-0.000137	20.859403
2628.784492	-3.001800	2.974500	-8.927600	27.724882	-0.000136	20.826115
2629.782079	-3.019500	2.970900	-8.970000	27.706353	-0.000138	20.843030
2630.784603	-2.987700	2.972300	-8.879500	27.736043	-0.000136	20.831656
2631.785572	-3.017200	2.968700	-8.955800	27.729392	-0.000137	20.831127
2632.781346	-3.022600	2.966100	-8.964500	27.737089	-0.000138	20.833183
2633.785872	-2.966500	2.967500	-8.801600	27.722232	-0.000138	20.835776
2634.785326	-2.971600	2.965700	-8.811700	27.724863	-0.000138	20.833208
2635.784879	-3.017300	2.962800	-8.938900	27.760501	-0.000136	20.844889
2636.785408	-2.983400	2.963100	-8.839900	27.751322	-0.000139	20.850351
2637.786687	-3.000700	2.960700	-8.882900	27.739268	-0.000138	20.814987
2638.784064	-3.022300	2.959000	-8.942700	27.740063	-0.000136	20.840917
2639.790138	-2.998700	2.957500	-8.867500	27.747210	-0.000138	20.834833
2640.784449	-3.018500	2.954400	-8.917000	27.761320	-0.000138	20.817739
2641.785370	-3.001300	2.953700	-8.864200	27.744487	-0.000138	20.842049
2642.784261	-2.988300	2.952600	-8.822400	27.754632	-0.000137	20.844198
2643.785225	-3.030000	2.951800	-8.943100	27.766209	-0.000137	20.830719
2644.787169	-2.993500	2.948900	-8.826400	27.754877	-0.000136	20.839229
2645.786540	-3.004700	2.947100	-8.854500	27.760384	-0.000139	20.847142
2646.787121	-2.999900	2.947000	-8.839400	27.788207	-0.000136	20.833890
2647.786442	-2.990300	2.945700	-8.807800	27.780674	-0.000137	20.829629
2648.790020	-3.018000	2.943200	-8.880900	27.758382	-0.000139	20.813834
2649.787436	-2.990900	2.942500	-8.799700	27.782283	-0.000137	20.823188
2650.790926	-3.006800	2.940200	-8.839900	27.803362	-0.000140	20.811211
2651.788026	-2.995900	2.938700	-8.803600	27.795952	-0.000138	20.819875
2652.790779	-3.006500	2.937100	-8.829300	27.780459	-0.000136	20.817085
2653.789007	-3.029600	2.934500	-8.889200	27.798229	-0.000138	20.795614
2654.795938	-2.977700	2.935400	-8.739700	27.811225	-0.000139	20.799210
2655.790572	-3.006700	2.932400	-8.815700	27.803717	-0.000137	20.826740
2656.790249	-2.984300	2.931300	-8.747300	27.798804	-0.000138	20.838391
2657.802567	-2.998000	2.928400	-8.778700	27.802347	-0.000138	20.814930
2658.792539	-2.971000	2.929000	-8.700900	27.791883	-0.000136	20.817203
2659.808332	-2.999300	2.926900	-8.777500	27.800781	-0.000136	20.816199
2660.788662	-2.985900	2.925200	-8.733400	27.810056	-0.000136	20.811784
2661.791048	-2.989100	2.922900	-8.736300	27.807799	-0.000138	20.812831
2662.794446	-2.997400	2.921800	-8.757300	27.812535	-0.000137	20.830873
2663.789720	-2.974400	2.921400	-8.688700	27.822821	-0.000137	20.799500
2664.791800	-2.998200	2.918800	-8.750200	27.827434	-0.000137	20.820738
2665.790251	-2.984800	2.914900	-8.699400	27.844945	-0.000136	20.794265
2666.791093	-2.973300	2.914600	-8.664800	27.856516	-0.000139	20.813022
2667.794992	-3.018100	2.911900	-8.787800	27.863087	-0.000139	20.824377
2668.804971	-3.004600	2.910800	-8.745000	27.856344	-0.000138	20.810953
2669.792535	-3.013900	2.908100	-8.763300	27.892070	-0.000137	20.790485
2670.804033	-3.045900	2.905600	-8.848800	27.878059	-0.000136	20.795350
2671.795092	-3.012400	2.905600	-8.752000	27.889690	-0.000138	20.813220
2672.796684	-2.994500	2.904300	-8.695700	27.888246	-0.000137	20.825517
2673.794116	-2.981300	2.902000	-8.650700	27.880335	-0.000138	20.821823
2674.797420	-2.997300	2.898700	-8.687500	27.875183	-0.000136	20.802887
2675.799333	-2.971400	2.898900	-8.612000	27.896053	-0.000138	20.816306
2676.793190	-2.975800	2.897200	-8.619700	27.890553	-0.000137	20.822623
2677.798106	-2.984600	2.894200	-8.637600	27.876267	-0.000136	20.800659
2678.793907	-3.014800	2.892100	-8.718100	27.886307	-0.000138	20.798910
2679.801965	-3.016200	2.889600	-8.715000	27.906589	-0.000137	20.807943
2680.795656	-2.981400	2.888000	-8.609200	27.895631	-0.000137	20.819674
2681.796373	-2.991800	2.887000	-8.635900	27.916929	-0.000138	20.813134
2682.798846	-3.025700	2.884600	-8.726700	27.901333	-0.000138	20.790326
2683.801677	-2.999000	2.883700	-8.647100	27.902875	-0.000138	20.805154
2684.796505	-2.989900	2.880900	-8.612900	27.905176	-0.000137	20.809840
2685.813170	-3.006000	2.879100	-8.654000	27.893330	-0.000139	20.812617
2686.796659	-2.973400	2.876900	-8.553600	27.903640	-0.000138	20.805449
2687.804975	-2.989900	2.875100	-8.594900	27.923205	-0.000137	20.799064
2688.796125	-3.001800	2.873100	-8.623800	27.932646	-0.000139	20.805246
2689.795408	-3.014300	2.870800	-8.652400	27.942642	-0.000140	20.789230
2690.812515	-3.003100	2.870000	-8.618000	27.925310	-0.000138	20.786483
2691.794574	-2.997600	2.866500	-8.591400	27.939565	-0.000138	20.793719
2692.803079	-3.021300	2.864900	-8.654700	27.929825	-0.000137	20.783441
2693.809643	-3.013200	2.860900	-8.619700	27.939320	-0.000136	20.789679
2694.800783	-3.011100	2.861300	-8.614400	27.934860	-0.000138	20.803682
2695.803774	-3.007600	2.858100	-8.595900	27.949959	-0.000136	20.790430
2696.802298	-3.002700	2.858100	-8.581100	27.930939	-0.000135	20.789304
2697.803240	-2.979500	2.855600	-8.508000	27.940415	-0.000138	20.801212
2698.797663	-3.008000	2.850900	-8.575000	27.980432	-0.000137	20.802610
2699.810929	-3.019000	2.850000	-8.603600	27.993243	-0.000137	20.797962
2700.801595	-3.012800	2.847500	-8.578100	27.974986	-0.000138	20.797129
2701.814480	-3.012500	2.846000	-8.572100	27.985644	-0.000137	20.787468
2702.812559	-2.992300	2.843900	-8.509000	27.994845	-0.000138	20.810005
2703.800758	-2.965500	2.843400	-8.431600	27.990893	-0.000137	20.808399
2704.805472	-3.006600	2.838600	-8.533400	27.999629	-0.000136	20.795854
2705.806727	-2.965800	2.838000	-8.416000	28.007068	-0.000137	20.785324
2706.805161	-2.976800	2.836000	-8.440700	28.001244	-0.000136	20.791790
2707.809786	-3.005800	2.833900	-8.517100	28.013932	-0.000137	20.786070
2708.807597	-3.016300	2.830500	-8.537200	28.033024	-0.000137	20.786796
2709.812145	-2.988100	2.828700	-8.451900	28.035135	-0.000137	20.798878
2710.817819	-2.992700	2.826200	-8.457000	28.027200	-0.000137	20.766709
2711.810993	-2.990500	2.824000	-8.444700	28.046984	-0.000138	20.802745
2712.808505	-2.986800	2.822000	-8.428100	28.029757	-0.000136	20.779714
2713.810964	-2.996500	2.818000	-8.443000	28.042053	-0.000138	20.803471
2714.811663	-3.010500	2.815900	-8.476100	28.046219	-0.000139	20.775896
2715.809955	-3.007700	2.814600	-8.465000	28.047779	-0.000138	20.781260
2716.812026	-2.971200	2.813300	-8.358100	28.044977	-0.000137	20.779862
2717.810774	-2.995200	2.808900	-8.412800	28.061518	-0.000138	20.788926
2718.811870	-3.011300	2.807000	-8.452100	28.080879	-0.000138	20.787553
2719.811198	-3.014400	2.804800	-8.453200	28.070217	-0.000139	20.776346
2720.810089	-3.006600	2.800500	-8.419500	28.063525	-0.000139	20.783834
2721.810383	-2.988300	2.799500	-8.365000	28.049277	-0.000136	20.792251
2722.814567	-2.989200	2.798200	-8.362400	28.078372	-0.000140	20.787399
2723.813673	-2.970200	2.794400	-8.298700	28.063623	-0.000135	20.780613
2724.833895	-2.984700	2.791700	-8.331400	28.080806	-0.000136	20.777047
2725.814902	-2.980800	2.789900	-8.315100	28.094343	-0.000138	20.771234
2726.812806	-3.013000	2.786400	-8.394500	28.099940	-0.000137	20.787301
2727.815116	-2.997000	2.783900	-8.342900	28.113673	-0.000139	20.778366
2728.816933	-3.014400	2.780800	-8.381600	28.104008	-0.000138	20.774800
2729.815977	-2.972700	2.779800	-8.262800	28.111495	-0.000138	20.780441
2730.823035	-3.013800	2.775700	-8.364500	28.114248	-0.000137	20.784634
2731.821434	-2.951000	2.773300	-8.183100	28.117191	-0.000137	20.786648
2732.814466	-2.973700	2.769300	-8.234100	28.131596	-0.000138	20.787399
2733.821396	-2.973700	2.767300	-8.228600	28.134397	-0.000137	20.763192
2734.816105	-3.019200	2.763400	-8.342700	28.119796	-0.000138	20.764141
2735.819502	-3.009300	2.760400	-8.305200	28.136747	-0.000137	20.768877
2736.817117	-3.001600	2.759800	-8.283400	28.162975	-0.000135	20.774419
2737.819766	-3.019000	2.755900	-8.319200	28.150705	-0.000137	20.760169
2738.820788	-3.010300	2.753200	-8.287700	28.178389	-0.000139	20.792308
2739.819586	-3.015300	2.749100	-8.288800	28.182261	-0.000139	20.780084
2740.816785	-2.988500	2.746900	-8.208100	28.198984	-0.000138	20.777480
2741.820158	-3.012500	2.743500	-8.263300	28.191999	-0.000138	20.756222
2742.820987	-2.991700	2.741100	-8.199800	28.220306	-0.000137	20.780928
2743.825566	-3.000200	2.737700	-8.213100	28.197168	-0.000138	20.768539
2744.821504	-3.006900	2.733500	-8.218500	28.208844	-0.000139	20.769389
2745.818042	-3.008100	2.730300	-8.211700	28.226490	-0.000139	20.784784
2746.819311	-2.994600	2.727300	-8.166100	28.211988	-0.000138	20.779193
2747.820282	-3.021000	2.722500	-8.223500	28.230552	-0.000137	20.760897
2748.818291	-3.008400	2.719400	-8.180600	28.247250	-0.000138	20.764907
2749.819807	-2.987500	2.717000	-8.116100	28.249158	-0.000137	20.781053
2750.824330	-3.028500	2.712100	-8.212700	28.265328	-0.000138	20.758927
2751.823099	-2.958300	2.710400	-8.016900	28.276870	-0.000138	20.763909
2752.821338	-2.990000	2.705200	-8.087900	28.264449	-0.000139	20.760886
2753.826089	-3.018200	2.701000	-8.150700	28.271042	-0.000138	20.774637
2754.822475	-3.002700	2.697000	-8.097500	28.287573	-0.000137	20.772315
2755.822918	-3.001000	2.693700	-8.082700	28.286705	-0.000137	20.778553
2756.824459	-3.009000	2.689700	-8.091600	28.284124	-0.000137	20.750824
2757.827450	-3.012300	2.684500	-8.085600	28.290002	-0.000137	20.770019
2758.829780	-3.016600	2.680600	-8.084800	28.315151	-0.000137	20.757408
2759.832743	-3.015300	2.676600	-8.069900	28.313940	-0.000137	20.762352
2760.825269	-3.048900	2.670900	-8.142400	28.324368	-0.000138	20.761472
2761.827727	-3.031000	2.667200	-8.083500	28.335688	-0.000136	20.754853
2762.827082	-3.003100	2.662800	-7.996100	28.343547	-0.000138	20.760395
2763.831806	-3.062300	2.657100	-8.135000	28.349644	-0.000138	20.758474
2764.828805	-3.014400	2.653900	-7.999100	28.361936	-0.000137	20.780335
2765.828687	-3.003800	2.649600	-7.958700	28.365007	-0.000136	20.747389
2766.829218	-3.008900	2.645800	-7.959500	28.372394	-0.000137	20.756725
2767.827710	-3.019800	2.639800	-7.970800	28.372688	-0.000137	20.767453
2768.828596	-3.002300	2.634700	-7.909300	28.387849	-0.000136	20.760907
2769.831422	-2.995100	2.631100	-7.878200	28.397988	-0.000136	20.751676
2770.829270	-2.999200	2.624300	-7.870500	28.395658	-0.000137	20.748856
2771.829900	-2.978900	2.619500	-7.802600	28.393499	-0.000137	20.739095
2772.829163	-2.992700	2.614600	-7.823900	28.421104	-0.000138	20.747452
2773.830033	-2.996200	2.610600	-7.821300	28.417435	-0.000139	20.753241
2774.831273	-3.042100	2.602300	-7.914900	28.424223	-0.000136	20.754861
2775.829635	-2.984900	2.599400	-7.758100	28.430766	-0.000137	20.746276
2776.830861	-3.005900	2.593200	-7.794200	28.443926	-0.000136	20.756683
2777.832852	-2.990100	2.587700	-7.736700	28.446525	-0.000136	20.769258
2778.838488	-3.017300	2.580100	-7.784100	28.429873	-0.000136	20.761499
2779.834342	-3.006400	2.575400	-7.741300	28.442031	-0.000139	20.767578
2780.832708	-2.980500	2.570200	-7.659100	28.456878	-0.000139	20.761666
2781.833803	-2.983300	2.565300	-7.652300	28.472985	-0.000139	20.749436
2782.846187	-2.995200	2.557500	-7.659300	28.465745	-0.000139	20.762061
2783.838939	-3.006400	2.551800	-7.670600	28.459801	-0.000139	20.769825
2784.836910	-2.977700	2.544900	-7.577100	28.479131	-0.000137	20.758944
2785.838239	-3.024300	2.539400	-7.678400	28.487257	-0.000135	20.761913
2786.839984	-3.002100	2.531200	-7.598500	28.499774	-0.000137	20.756499
2787.838006	-2.983300	2.528600	-7.542700	28.512016	-0.000136	20.744645
2788.840260	-3.021300	2.518400	-7.608400	28.524630	-0.000135	20.779635
2789.838109	-3.040900	2.512600	-7.639500	28.536877	-0.000136	20.745026
2790.844624	-3.058300	2.503400	-7.655400	28.542246	-0.000136	20.758021
2791.842775	-2.994800	2.498600	-7.482000	28.548397	-0.000136	20.737661
