LabVIEW Measurement	
Writer_Version	2
Reader_Version	2
Separator	Tab
Decimal_Separator	.
Multi_Headings	No
X_Columns	One
Time_Pref	Absolute
Operator	admin
Description	Clolumns are: time, Current, Voltage, Power, Battery Temp, and Chamber Temp
Date	2024/08/16
Time	13:59:35.9411449432373046875
***End_of_Header***	
	
Channels	6						
Samples	1	1	1	1	1	1	
Date	2024/09/17	2024/09/17	2024/09/17	2024/09/17	2024/09/17	2024/09/17	
Time	15:16:40.4876255989074707031	15:16:40.4947352409362792969	15:16:40.5007662773132324219	15:16:40.4715166091918945313	15:16:40.4715166091918945313	15:16:40.4715166091918945313	
X_Dimension	Time	Time	Time	Time	Time	Time	
X0	0.0000000000000000E+0	0.0000000000000000E+0	0.0000000000000000E+0	0.0000000000000000E+0	0.0000000000000000E+0	0.0000000000000000E+0	
Delta_X	1.000000	1.000000	1.000000	1.000000	1.000000	1.000000	
***End_of_Header***							
X_Value	Untitled	Untitled 1	Untitled 2	Untitled 3	Untitled 4	Untitled 5	Comment
0.000000	-0.006468	4.100200	-0.026478	20.803128	0.000395	20.833473
1.000807	-2.986100	3.939000	-11.761000	20.811564	0.000396	20.819625
2.007307	-2.998100	3.932100	-11.787000	20.813307	0.000393	20.847919
3.001137	-2.998700	3.925700	-11.771000	20.807420	0.000393	20.841558
4.002232	-3.012600	3.922600	-11.816000	20.805597	0.000392	20.830253
5.005247	-3.009200	3.918500	-11.791000	20.825684	0.000391	20.827106
6.003426	-3.030400	3.915400	-11.865000	20.816872	0.000390	20.843898
7.003146	-3.007300	3.912800	-11.766000	20.819988	0.000389	20.855549
8.006900	-3.020700	3.909900	-11.810000	20.835512	0.000388	20.859693
9.001275	-2.993900	3.909600	-11.704000	20.815770	0.000389	20.858443
10.001956	-2.988200	3.907200	-11.674000	20.832365	0.000387	20.848012
11.004203	-2.991500	3.904900	-11.680000	20.839650	0.000387	20.885166
12.001874	-2.978500	3.903100	-11.624000	20.840173	0.000385	20.840647
13.001770	-2.991600	3.901700	-11.670000	20.844139	0.000387	20.851251
14.005641	-3.004900	3.899900	-11.719000	20.851072	0.000385	20.853443
15.002003	-2.980400	3.900400	-11.624000	20.852445	0.000384	20.851971
16.002247	-3.001700	3.898200	-11.700000	20.866226	0.000382	20.864803
17.007690	-3.009400	3.896100	-11.724000	20.848307	0.000383	20.863005
18.002684	-3.015600	3.895400	-11.746000	20.856515	0.000382	20.854145
19.002923	-2.992400	3.895700	-11.657000	20.867094	0.000382	20.872309
20.008246	-2.992900	3.893200	-11.651000	20.867993	0.000381	20.826743
21.004311	-3.016600	3.891900	-11.739000	20.877549	0.000379	20.858110
22.004302	-3.011100	3.890900	-11.715000	20.890320	0.000379	20.861398
23.007152	-3.005600	3.891100	-11.694000	20.883085	0.000379	20.876921
24.004129	-3.017600	3.891200	-11.741000	20.903546	0.000379	20.864668
25.006878	-3.009400	3.888800	-11.702000	20.914505	0.000378	20.867094
26.006962	-3.009000	3.888900	-11.700000	20.927577	0.000379	20.884907
27.003445	-3.007100	3.888400	-11.691000	20.941295	0.000376	20.852162
28.005011	-3.000400	3.887600	-11.664000	20.912203	0.000376	20.880437
29.007542	-3.002400	3.887300	-11.670000	20.937675	0.000377	20.893109
30.005970	-2.983600	3.886200	-11.594000	20.935834	0.000375	20.860924
31.007059	-2.991300	3.886300	-11.624000	20.951750	0.000375	20.849816
32.012549	-2.996900	3.884600	-11.641000	20.957968	0.000376	20.862199
33.007643	-2.986700	3.884600	-11.601000	20.954194	0.000373	20.867907
34.009439	-3.028100	3.884000	-11.760000	20.976372	0.000372	20.863061
35.011671	-3.011400	3.882200	-11.690000	20.988076	0.000372	20.858646
36.008360	-3.023200	3.882800	-11.737000	20.977320	0.000375	20.882500
37.009309	-3.012800	3.882400	-11.696000	20.999275	0.000373	20.881700
38.011120	-3.000000	3.883000	-11.649000	20.985373	0.000371	20.888183
39.007823	-3.016400	3.881700	-11.708000	21.013719	0.000372	20.868172
40.008220	-3.011700	3.880800	-11.687000	20.998321	0.000372	20.879797
41.013411	-2.980200	3.882400	-11.568000	21.023200	0.000370	20.875758
42.010614	-3.001600	3.880200	-11.645000	21.031875	0.000370	20.868788
43.008347	-2.978200	3.880000	-11.554000	21.036443	0.000369	20.859607
44.012441	-2.987500	3.879700	-11.590000	21.056994	0.000368	20.871626
45.010910	-2.978500	3.881100	-11.559000	21.037964	0.000368	20.876774
46.017102	-2.985500	3.880300	-11.584000	21.064006	0.000369	20.856356
47.012269	-2.993600	3.880200	-11.615000	21.079969	0.000367	20.890813
48.013733	-3.022200	3.878100	-11.720000	21.067552	0.000369	20.885979
49.018145	-2.978000	3.880100	-11.554000	21.076128	0.000367	20.870851
50.013072	-2.993600	3.878300	-11.609000	21.097866	0.000367	20.873627
51.024323	-2.979400	3.879200	-11.557000	21.099356	0.000366	20.886497
52.018216	-3.000100	3.878100	-11.634000	21.106792	0.000367	20.877815
53.012841	-2.989500	3.877400	-11.590000	21.106417	0.000366	20.875542
54.013669	-3.004100	3.876400	-11.644000	21.096259	0.000366	20.864909
55.020525	-2.995900	3.876400	-11.612000	21.133362	0.000365	20.885425
56.014798	-2.991800	3.876500	-11.597000	21.117018	0.000367	20.877137
57.015598	-3.009300	3.875400	-11.661000	21.108910	0.000365	20.855278
58.017516	-2.996200	3.876100	-11.613000	21.137044	0.000367	20.882470
59.014885	-2.987800	3.875600	-11.578000	21.148124	0.000365	20.865106
60.016166	-3.015900	3.874100	-11.683000	21.135498	0.000366	20.863856
61.017795	-2.995200	3.875000	-11.605000	21.143557	0.000365	20.856270
62.017210	-3.011100	3.873500	-11.662000	21.145471	0.000365	20.855814
63.016605	-3.007300	3.873400	-11.647000	21.164659	0.000364	20.864576
64.019671	-3.020000	3.873000	-11.696000	21.185626	0.000365	20.851886
65.017649	-2.995000	3.873800	-11.600000	21.183490	0.000366	20.853068
66.018331	-3.008500	3.873200	-11.651000	21.186586	0.000364	20.843364
67.021226	-2.990600	3.873400	-11.583000	21.188655	0.000365	20.861079
68.018045	-2.996000	3.872000	-11.600000	21.211579	0.000364	20.849872
69.018727	-3.003800	3.871800	-11.629000	21.202524	0.000363	20.855987
70.024629	-2.984300	3.872800	-11.556000	21.213770	0.000363	20.883357
71.017808	-3.002400	3.872300	-11.626000	21.208562	0.000363	20.852545
72.031494	-3.003000	3.871700	-11.626000	21.217390	0.000364	20.850944
73.024096	-3.015600	3.871800	-11.674000	21.244431	0.000364	20.844805
74.021891	-3.028800	3.870900	-11.722000	21.231092	0.000363	20.857538
75.022263	-3.003400	3.869900	-11.622000	21.242412	0.000363	20.856061
76.023755	-3.000400	3.871100	-11.613000	21.260349	0.000363	20.857883
77.023544	-3.014200	3.869900	-11.664000	21.252913	0.000363	20.842859
78.022930	-3.003200	3.870000	-11.622000	21.261167	0.000364	20.849694
79.023170	-3.004900	3.870900	-11.631000	21.282151	0.000364	20.848875
80.022227	-2.979400	3.870400	-11.531000	21.269902	0.000362	20.844681
81.022346	-3.012000	3.869700	-11.654000	21.300032	0.000363	20.834521
82.026664	-2.990400	3.870400	-11.573000	21.287660	0.000362	20.833524
83.024657	-2.990500	3.869800	-11.572000	21.315500	0.000366	20.859952
84.026309	-3.012400	3.868900	-11.653000	21.315998	0.000362	20.870408
85.039367	-2.990200	3.870300	-11.572000	21.313856	0.000364	20.856412
86.025432	-2.966900	3.869800	-11.480000	21.326277	0.000364	20.861725
87.027493	-3.020000	3.867300	-11.678000	21.324880	0.000363	20.843733
88.033465	-2.984800	3.869200	-11.548000	21.328874	0.000362	20.837298
89.030165	-3.015200	3.867800	-11.660000	21.353365	0.000362	20.831455
90.029084	-2.999000	3.868800	-11.601000	21.340895	0.000362	20.830833
91.027910	-2.994000	3.867400	-11.578000	21.363791	0.000363	20.826239
92.029730	-2.997900	3.867000	-11.593000	21.344588	0.000362	20.841640
93.029412	-3.012800	3.867300	-11.650000	21.355341	0.000364	20.817785
94.029568	-3.002300	3.866600	-11.608000	21.366395	0.000363	20.830740
95.032365	-2.991900	3.867300	-11.569000	21.377738	0.000362	20.843037
96.029123	-3.021000	3.866600	-11.680000	21.383850	0.000365	20.850100
97.032428	-3.016700	3.866200	-11.663000	21.384502	0.000364	20.854546
98.029366	-3.008800	3.866400	-11.633000	21.401735	0.000363	20.840494
99.030263	-3.002600	3.866400	-11.609000	21.399119	0.000365	20.827920
100.031453	-3.016900	3.866200	-11.663000	21.401538	0.000362	20.837452
101.031790	-3.027500	3.865700	-11.702000	21.421122	0.000363	20.827175
102.036377	-2.979400	3.865500	-11.516000	21.421073	0.000362	20.839928
103.032468	-3.020200	3.864200	-11.669000	21.430151	0.000364	20.839053
104.034917	-2.979800	3.864800	-11.515000	21.434613	0.000364	20.833561
105.036082	-2.986600	3.866600	-11.547000	21.431917	0.000364	20.847458
106.032259	-3.020500	3.864800	-11.673000	21.457359	0.000363	20.807009
107.034667	-2.993100	3.864800	-11.566000	21.471385	0.000366	20.840007
108.040647	-2.978800	3.865200	-11.513000	21.461624	0.000364	20.842095
109.033775	-3.025000	3.863500	-11.686000	21.470283	0.000364	20.838431
110.035197	-3.004700	3.863800	-11.608000	21.483029	0.000364	20.829373
111.037429	-3.002400	3.864400	-11.600000	21.472979	0.000365	20.823585
112.034020	-3.004900	3.864200	-11.609000	21.487669	0.000363	20.840654
113.036894	-3.009300	3.864100	-11.627000	21.503079	0.000363	20.841375
114.036745	-3.021100	3.862500	-11.668000	21.507067	0.000365	20.815968
115.035531	-2.994600	3.864400	-11.571000	21.516298	0.000364	20.811454
116.034137	-2.989400	3.862900	-11.547000	21.509491	0.000362	20.822187
117.038610	-3.013400	3.862400	-11.638000	21.537270	0.000363	20.806362
118.035493	-2.983900	3.863100	-11.525000	21.535523	0.000363	20.815044
119.038165	-3.017400	3.862500	-11.654000	21.536796	0.000366	20.823431
120.041314	-2.982400	3.863700	-11.522000	21.547467	0.000364	20.816091
121.040524	-3.010300	3.862100	-11.625000	21.554926	0.000367	20.833037
122.038189	-3.018200	3.861400	-11.654000	21.572556	0.000365	20.812748
123.041461	-2.995100	3.862600	-11.567000	21.575122	0.000366	20.830014
124.038321	-3.012900	3.860500	-11.630000	21.577393	0.000365	20.808105
125.037003	-2.995800	3.862100	-11.569000	21.577812	0.000363	20.816584
126.040052	-3.008000	3.861100	-11.613000	21.564150	0.000364	20.823302
127.037805	-3.008300	3.861500	-11.616000	21.557215	0.000365	20.837699
128.038641	-3.011100	3.861200	-11.625000	21.593774	0.000366	20.820703
129.043991	-3.008300	3.860200	-11.612000	21.604500	0.000365	20.829066
130.040156	-3.010200	3.860200	-11.620000	21.629661	0.000366	20.805882
131.041994	-3.019100	3.860100	-11.653000	21.600882	0.000366	20.809324
132.044919	-3.015700	3.860500	-11.642000	21.606992	0.000366	20.831085
133.040472	-2.991400	3.861500	-11.550000	21.628788	0.000363	20.812120
134.041223	-3.011600	3.860200	-11.624000	21.625569	0.000366	20.797519
135.042551	-3.000100	3.859900	-11.579000	21.645340	0.000364	20.817305
136.042179	-3.011100	3.858700	-11.618000	21.636190	0.000365	20.813364
137.042935	-3.003400	3.859600	-11.591000	21.624493	0.000368	20.834374
138.044430	-2.996300	3.860300	-11.566000	21.635919	0.000366	20.822101
139.042074	-2.998300	3.859500	-11.571000	21.656188	0.000366	20.828635
140.042270	-2.998500	3.858900	-11.570000	21.685342	0.000367	20.810395
141.043977	-3.014300	3.859500	-11.633000	21.685219	0.000368	20.826867
142.044367	-3.001500	3.858900	-11.582000	21.673196	0.000368	20.808671
143.045890	-2.997200	3.858300	-11.563000	21.680654	0.000367	20.817557
144.050290	-3.009500	3.857100	-11.607000	21.672027	0.000367	20.825519
145.047565	-2.990200	3.858600	-11.537000	21.709708	0.000368	20.816288
146.050629	-2.989400	3.858700	-11.533000	21.711751	0.000368	20.816436
147.049722	-2.973100	3.858300	-11.470000	21.702300	0.000370	20.810771
148.046710	-3.007200	3.856500	-11.597000	21.723878	0.000368	20.830469
149.049957	-2.979000	3.858200	-11.493000	21.708459	0.000371	20.809823
150.050536	-3.012500	3.856500	-11.616000	21.719030	0.000370	20.826566
151.047957	-2.977800	3.857900	-11.486000	21.715289	0.000367	20.810020
152.047105	-3.000600	3.856800	-11.572000	21.739654	0.000369	20.826818
153.052268	-2.988100	3.856300	-11.521000	21.740509	0.000370	20.820562
154.049839	-2.985800	3.856500	-11.514000	21.745592	0.000370	20.815217
155.048854	-2.973700	3.856600	-11.468000	21.757589	0.000370	20.797353
156.052433	-2.987600	3.856400	-11.521000	21.766794	0.000370	20.813203
157.048610	-2.988100	3.856400	-11.522000	21.775469	0.000370	20.791540
158.049949	-2.971200	3.856600	-11.457000	21.751831	0.000369	20.809133
159.051815	-2.980300	3.856900	-11.494000	21.777364	0.000371	20.816196
160.049588	-2.973100	3.856200	-11.463000	21.777038	0.000370	20.808757
161.049858	-2.996800	3.855200	-11.552000	21.793152	0.000373	20.800703
162.053707	-2.994000	3.855300	-11.542000	21.802103	0.000371	20.812981
163.050822	-3.000400	3.855000	-11.566000	21.819256	0.000369	20.814977
164.049820	-3.015400	3.855300	-11.624000	21.799009	0.000371	20.822212
165.056069	-3.023800	3.853700	-11.651000	21.799212	0.000373	20.806294
166.049625	-3.011400	3.854600	-11.606000	21.825735	0.000372	20.814349
167.050777	-2.991100	3.853600	-11.525000	21.836385	0.000372	20.802723
168.053128	-2.978200	3.854700	-11.479000	21.847415	0.000372	20.806651
169.050262	-2.995900	3.853700	-11.545000	21.839504	0.000372	20.815802
170.051227	-2.997500	3.854200	-11.552000	21.843072	0.000372	20.803726
171.051889	-2.993300	3.853400	-11.533000	21.852023	0.000373	20.779021
172.050610	-2.999400	3.853700	-11.558000	21.875488	0.000373	20.798714
173.051024	-3.000200	3.852600	-11.557000	21.861547	0.000373	20.818425
174.053659	-2.990700	3.852900	-11.522000	21.864961	0.000376	20.791023
175.051390	-2.977400	3.852600	-11.470000	21.877579	0.000375	20.807446
176.051984	-2.983500	3.852900	-11.494000	21.890296	0.000376	20.784612
177.062367	-2.971500	3.853700	-11.450000	21.892633	0.000376	20.797858
178.053503	-3.001100	3.852500	-11.561000	21.901615	0.000375	20.798313
179.054097	-2.995400	3.852200	-11.538000	21.898090	0.000375	20.805217
180.053987	-2.991500	3.851500	-11.521000	21.902434	0.000376	20.785382
181.053410	-2.990100	3.851600	-11.516000	21.894227	0.000376	20.808936
182.052842	-2.984600	3.851200	-11.493000	21.890093	0.000377	20.807643
183.056879	-3.000400	3.851100	-11.554000	21.922618	0.000378	20.793258
184.053944	-3.020100	3.850600	-11.628000	21.914313	0.000378	20.800118
185.055779	-3.029400	3.851400	-11.666000	21.923018	0.000375	20.789391
186.056755	-3.006600	3.850800	-11.577000	21.917420	0.000376	20.786158
187.056527	-3.013000	3.850900	-11.602000	21.939689	0.000377	20.792328
188.056459	-3.006800	3.850400	-11.576000	21.936177	0.000379	20.785493
189.057531	-2.993000	3.850600	-11.523000	21.956563	0.000379	20.795943
190.055448	-3.009900	3.850500	-11.588000	21.957117	0.000380	20.789385
191.054738	-3.010200	3.850100	-11.589000	21.969199	0.000379	20.788203
192.058214	-3.004500	3.850700	-11.569000	21.984996	0.000378	20.780783
193.056246	-3.000600	3.850800	-11.554000	21.976476	0.000381	20.769409
194.056140	-2.999900	3.849900	-11.548000	21.979017	0.000381	20.806091
195.058609	-3.013000	3.850500	-11.601000	21.993774	0.000383	20.789570
196.055958	-2.990900	3.849300	-11.512000	21.999034	0.000381	20.766860
197.056186	-3.000000	3.848800	-11.545000	22.007830	0.000381	20.778510
198.060370	-2.980600	3.849700	-11.474000	22.007775	0.000382	20.779403
199.056542	-3.004700	3.848600	-11.563000	22.032632	0.000380	20.782950
200.056008	-3.009600	3.847900	-11.580000	22.017974	0.000380	20.796726
201.058661	-2.997700	3.848700	-11.536000	22.020189	0.000381	20.791356
202.057847	-2.990100	3.847900	-11.503000	22.026463	0.000383	20.778671
203.060616	-2.998900	3.847300	-11.537000	22.025584	0.000382	20.787274
204.060730	-3.017000	3.846200	-11.603000	22.040691	0.000383	20.780586
205.060478	-3.000500	3.847600	-11.544000	22.025479	0.000386	20.774841
206.059483	-2.996300	3.846200	-11.523000	22.044099	0.000385	20.787317
207.060513	-2.984500	3.847300	-11.481000	22.046338	0.000384	20.779601
208.059264	-2.993200	3.847100	-11.514000	22.059145	0.000386	20.789577
209.061255	-3.005000	3.845900	-11.556000	22.076915	0.000387	20.783185
210.062211	-3.000700	3.846300	-11.541000	22.080895	0.000387	20.790489
211.058996	-2.995800	3.845900	-11.520000	22.064441	0.000387	20.783026
212.060374	-2.982300	3.847200	-11.473000	22.082538	0.000388	20.766054
213.065968	-3.003200	3.846100	-11.550000	22.091973	0.000388	20.796838
214.060694	-3.004300	3.846600	-11.556000	22.111084	0.000388	20.777090
215.060240	-2.997800	3.844900	-11.525000	22.099786	0.000389	20.772890
216.066360	-3.007400	3.845700	-11.565000	22.120047	0.000388	20.779898
217.062733	-2.995600	3.845600	-11.519000	22.102843	0.000391	20.795392
218.060870	-3.009300	3.844100	-11.567000	22.118140	0.000389	20.780835
219.065387	-2.988000	3.846200	-11.492000	22.111947	0.000389	20.785066
220.061598	-2.997700	3.844100	-11.522000	22.122342	0.000389	20.783144
221.061702	-3.008700	3.845200	-11.567000	22.141545	0.000389	20.770127
222.066642	-2.996200	3.844700	-11.518000	22.111529	0.000392	20.777535
223.060256	-3.000900	3.843700	-11.533000	22.139515	0.000391	20.763828
224.060539	-2.992700	3.844400	-11.503000	22.146109	0.000389	20.774697
225.065763	-3.012800	3.843300	-11.578000	22.148816	0.000393	20.774088
226.063362	-2.999900	3.844600	-11.533000	22.153546	0.000390	20.774556
227.060947	-3.004700	3.844000	-11.548000	22.166598	0.000394	20.772451
228.066243	-2.990600	3.844400	-11.496000	22.178856	0.000392	20.764809
229.062494	-2.998300	3.842700	-11.521000	22.190112	0.000393	20.771811
230.061628	-2.994100	3.842800	-11.505000	22.183169	0.000395	20.768178
231.065042	-3.003800	3.844500	-11.547000	22.166587	0.000394	20.780501
232.061940	-3.009400	3.842300	-11.562000	22.189461	0.000395	20.783014
233.066382	-2.996000	3.843300	-11.514000	22.196904	0.000393	20.780034
234.069146	-2.995400	3.842200	-11.508000	22.217803	0.000395	20.769664
235.064856	-3.003200	3.842600	-11.539000	22.212988	0.000395	20.771007
236.068278	-2.981100	3.842700	-11.455000	22.214465	0.000396	20.775805
237.070262	-2.996000	3.841000	-11.507000	22.239760	0.000395	20.758932
238.066382	-3.018900	3.841700	-11.597000	22.216372	0.000399	20.753532
239.066585	-3.018600	3.841600	-11.595000	22.212977	0.000395	20.784747
240.071958	-3.010000	3.840700	-11.559000	22.230813	0.000397	20.765147
241.066256	-3.007300	3.840700	-11.550000	22.257850	0.000397	20.768510
242.066020	-3.008700	3.841400	-11.557000	22.255667	0.000398	20.761583
243.070410	-3.005300	3.841800	-11.544000	22.276325	0.000400	20.763301
244.067479	-3.001800	3.841100	-11.529000	22.269930	0.000397	20.764485
245.067590	-2.994100	3.842000	-11.501000	22.281738	0.000398	20.776783
246.070343	-2.999700	3.840100	-11.519000	22.281604	0.000397	20.770484
247.068203	-3.038900	3.839200	-11.665000	22.284365	0.000398	20.769930
248.070433	-3.014600	3.840200	-11.576000	22.290688	0.000398	20.772942
249.072222	-2.990800	3.839700	-11.483000	22.291383	0.000400	20.775060
250.069347	-3.012800	3.838900	-11.565000	22.294637	0.000401	20.778318
251.069891	-3.003100	3.839200	-11.529000	22.293014	0.000400	20.761046
252.069693	-3.013500	3.839800	-11.571000	22.315116	0.000402	20.740028
253.071415	-2.994000	3.838300	-11.491000	22.308900	0.000401	20.751348
254.070174	-3.005600	3.839400	-11.539000	22.331500	0.000402	20.778720
255.075175	-2.979500	3.838900	-11.437000	22.324214	0.000401	20.753880
256.074706	-2.993000	3.838900	-11.489000	22.326797	0.000403	20.754570
257.073626	-3.007500	3.838300	-11.542000	22.316122	0.000403	20.758580
258.080686	-3.013400	3.836600	-11.560000	22.356415	0.000404	20.771900
259.073375	-2.982200	3.838600	-11.446000	22.343870	0.000405	20.758864
260.074168	-3.020200	3.837000	-11.587000	22.334764	0.000404	20.768238
261.080636	-3.019200	3.836000	-11.581000	22.368624	0.000406	20.758995
262.077052	-2.993200	3.836800	-11.484000	22.341973	0.000406	20.767396
263.077849	-2.987200	3.838300	-11.465000	22.369726	0.000406	20.756780
264.079865	-3.012400	3.836400	-11.556000	22.380162	0.000407	20.763437
265.080548	-3.008500	3.835600	-11.538000	22.374819	0.000408	20.774683
266.080669	-3.008600	3.836000	-11.540000	22.378725	0.000405	20.759627
267.083107	-3.006300	3.836500	-11.533000	22.387956	0.000408	20.764604
268.080179	-3.022600	3.835300	-11.591000	22.378609	0.000407	20.759511
269.080440	-3.004300	3.836200	-11.524000	22.406682	0.000407	20.758700
270.084927	-2.990600	3.835900	-11.470000	22.406425	0.000409	20.759865
271.081964	-3.002900	3.835200	-11.515000	22.408565	0.000409	20.767224
272.082059	-2.969800	3.836000	-11.392000	22.419868	0.000409	20.743929
273.088760	-2.995800	3.836000	-11.491000	22.428010	0.000409	20.762040
274.082698	-2.998300	3.835100	-11.498000	22.423984	0.000410	20.784562
275.082202	-3.003900	3.834800	-11.517000	22.431209	0.000410	20.766193
276.088094	-2.992200	3.836300	-11.479000	22.434783	0.000410	20.758866
277.082649	-3.009500	3.834100	-11.538000	22.431759	0.000412	20.752044
278.082108	-2.989500	3.835000	-11.464000	22.446708	0.000412	20.757531
279.086259	-3.008000	3.834200	-11.532000	22.441562	0.000412	20.764706
280.083456	-3.013300	3.834700	-11.553000	22.465802	0.000410	20.767645
281.085068	-3.001100	3.833900	-11.505000	22.451759	0.000411	20.762590
282.086719	-3.000300	3.835800	-11.508000	22.471393	0.000411	20.750484
283.085243	-2.983300	3.835200	-11.440000	22.469341	0.000413	20.751747
284.084394	-3.017600	3.832600	-11.564000	22.453785	0.000412	20.752764
285.087716	-3.009000	3.833800	-11.534000	22.471243	0.000415	20.784947
286.087663	-3.010700	3.833600	-11.541000	22.482373	0.000415	20.751523
287.090243	-3.005100	3.832900	-11.517000	22.495717	0.000415	20.748291
288.093706	-2.999100	3.832800	-11.494000	22.481705	0.000417	20.759389
289.087238	-2.986900	3.832500	-11.445000	22.504997	0.000416	20.763750
290.087393	-2.991800	3.832200	-11.464000	22.523495	0.000417	20.763308
291.089273	-3.005800	3.832100	-11.518000	22.523391	0.000417	20.765575
292.088261	-2.988700	3.831400	-11.450000	22.525550	0.000416	20.781488
293.086113	-3.001100	3.831200	-11.497000	22.542864	0.000415	20.735291
294.089672	-3.012800	3.830700	-11.539000	22.541359	0.000415	20.753699
295.092316	-3.006300	3.832300	-11.519000	22.541275	0.000417	20.776374
296.090931	-3.022400	3.830200	-11.576000	22.529748	0.000418	20.761037
297.095139	-2.997000	3.830400	-11.477000	22.553089	0.000417	20.775878
298.088511	-3.005200	3.830700	-11.510000	22.543284	0.000416	20.776016
299.090534	-3.005900	3.832000	-11.517000	22.563488	0.000419	20.756896
300.090077	-3.003900	3.829600	-11.503000	22.567861	0.000420	20.773604
301.090194	-3.010300	3.829200	-11.525000	22.563398	0.000418	20.760125
302.090591	-3.009700	3.829200	-11.523000	22.544494	0.000418	20.775331
303.092211	-3.008100	3.828600	-11.517000	22.581993	0.000420	20.769740
304.093066	-2.995200	3.829400	-11.469000	22.588936	0.000420	20.765314
305.093011	-3.015800	3.828400	-11.545000	22.607659	0.000420	20.775532
306.095362	-2.995400	3.829000	-11.468000	22.607703	0.000420	20.780317
307.093594	-2.972100	3.829600	-11.380000	22.606948	0.000419	20.789993
308.090385	-2.994900	3.828900	-11.466000	22.611228	0.000421	20.762511
309.096572	-2.994000	3.828100	-11.460000	22.617070	0.000422	20.778320
310.096576	-3.008600	3.829300	-11.519000	22.612780	0.000422	20.791092
311.102209	-3.000300	3.827900	-11.484000	22.620122	0.000419	20.784222
312.099908	-2.982300	3.828700	-11.417000	22.637331	0.000422	20.774432
313.095537	-3.020300	3.826200	-11.555000	22.620910	0.000422	20.797813
314.096718	-3.012400	3.828100	-11.530000	22.621575	0.000422	20.768608
315.097196	-2.997000	3.826500	-11.466000	22.640230	0.000422	20.771171
316.096412	-2.989800	3.826300	-11.440000	22.627024	0.000421	20.774065
317.094805	-2.983500	3.826900	-11.416000	22.666102	0.000421	20.793292
318.097750	-3.000000	3.827300	-11.481000	22.657858	0.000423	20.766542
319.096355	-3.007300	3.827400	-11.509000	22.663785	0.000423	20.777694
320.097977	-3.014600	3.825200	-11.530000	22.679001	0.000423	20.783927
321.100233	-3.009000	3.826000	-11.511000	22.670032	0.000423	20.796280
322.096703	-3.000400	3.825600	-11.477000	22.684006	0.000423	20.785621
323.098659	-2.989200	3.825600	-11.434000	22.685219	0.000424	20.780197
324.099451	-2.978200	3.825900	-11.393000	22.674011	0.000423	20.792679
325.099543	-3.001700	3.825600	-11.482000	22.694158	0.000427	20.772082
326.106401	-3.004700	3.825200	-11.492000	22.677412	0.000425	20.792767
327.098630	-3.007600	3.824500	-11.501000	22.702299	0.000427	20.791616
328.104570	-3.006900	3.824700	-11.500000	22.699404	0.000427	20.788717
329.104845	-3.007300	3.823800	-11.497000	22.698783	0.000426	20.799948
330.100776	-2.991200	3.824900	-11.439000	22.708048	0.000427	20.786943
331.099950	-3.001300	3.823900	-11.475000	22.704833	0.000428	20.779456
332.101289	-2.997400	3.824200	-11.462000	22.715572	0.000427	20.799222
333.099231	-2.993800	3.824000	-11.448000	22.725587	0.000428	20.766105
334.100523	-2.982100	3.823600	-11.402000	22.714354	0.000429	20.798002
335.103442	-3.005700	3.823100	-11.490000	22.734452	0.000430	20.786365
336.101800	-2.980100	3.822900	-11.392000	22.716090	0.000431	20.786938
337.100253	-3.004800	3.823700	-11.488000	22.740753	0.000429	20.793151
338.103415	-3.035800	3.821600	-11.600000	22.747607	0.000431	20.788163
339.101575	-3.007400	3.822700	-11.496000	22.763350	0.000429	20.793028
340.103125	-3.023500	3.821500	-11.554000	22.747252	0.000430	20.782117
341.103173	-2.955000	3.823800	-11.299000	22.752483	0.000433	20.784039
342.100013	-3.005500	3.822100	-11.487000	22.774557	0.000431	20.776753
343.103221	-2.984900	3.822400	-11.408000	22.762073	0.000433	20.796490
344.106533	-3.015400	3.821700	-11.523000	22.772092	0.000432	20.783767
345.103510	-2.996900	3.821300	-11.451000	22.771515	0.000433	20.777499
346.104038	-2.976100	3.822100	-11.373000	22.791720	0.000431	20.791102
347.107112	-2.985700	3.821200	-11.408000	22.802558	0.000433	20.797216
348.101973	-3.002800	3.821400	-11.473000	22.794013	0.000431	20.754991
349.103327	-2.986800	3.819400	-11.407000	22.788960	0.000434	20.787862
350.108732	-2.990300	3.820900	-11.424000	22.810653	0.000434	20.774032
351.104622	-2.980900	3.820200	-11.387000	22.822733	0.000434	20.777124
352.104197	-2.990100	3.819500	-11.419000	22.801961	0.000433	20.772437
353.105156	-3.019300	3.819200	-11.530000	22.809283	0.000435	20.793996
354.107252	-2.987500	3.819500	-11.410000	22.813217	0.000435	20.794618
355.106789	-3.001000	3.820100	-11.463000	22.801162	0.000435	20.780171
356.106530	-3.016800	3.818700	-11.519000	22.824429	0.000436	20.789728
357.104547	-3.007500	3.819000	-11.485000	22.851954	0.000435	20.795018
358.105334	-2.976900	3.820000	-11.371000	22.834368	0.000437	20.784039
359.106760	-2.993100	3.819200	-11.430000	22.821890	0.000435	20.773434
360.104875	-2.998800	3.817400	-11.447000	22.863171	0.000437	20.790134
361.106610	-2.992600	3.817900	-11.425000	22.846655	0.000436	20.791606
362.106545	-3.003400	3.817700	-11.465000	22.887328	0.000439	20.793946
363.107526	-2.986800	3.817700	-11.402000	22.867130	0.000437	20.777504
364.106143	-2.991500	3.817700	-11.419000	22.904046	0.000439	20.793626
365.108566	-3.009200	3.816800	-11.484000	22.850707	0.000437	20.789027
366.107189	-2.992100	3.816900	-11.420000	22.875072	0.000437	20.795892
367.106958	-3.013000	3.816100	-11.497000	22.891312	0.000438	20.779919
368.108367	-2.991900	3.816500	-11.417000	22.894018	0.000438	20.814873
369.108643	-2.978200	3.816400	-11.364000	22.863856	0.000439	20.793190
370.109735	-2.999900	3.817400	-11.451000	22.868988	0.000439	20.811134
371.108834	-3.010100	3.815700	-11.484000	22.891775	0.000440	20.785599
372.111937	-3.004100	3.816300	-11.463000	22.915330	0.000440	20.794498
373.112021	-3.004200	3.815600	-11.462000	22.892243	0.000442	20.796025
374.111501	-3.008700	3.814700	-11.476000	22.923326	0.000441	20.777854
375.115165	-3.000400	3.815700	-11.448000	22.896669	0.000439	20.789554
376.113875	-2.977100	3.815100	-11.356000	22.916917	0.000441	20.779967
377.112255	-2.989300	3.815300	-11.404000	22.920604	0.000440	20.801205
378.112989	-3.000300	3.814000	-11.442000	22.912381	0.000442	20.786329
379.113212	-2.996600	3.813900	-11.427000	22.929720	0.000443	20.812708
380.111747	-2.998400	3.813600	-11.434000	22.948670	0.000444	20.787598
381.118348	-3.016400	3.813100	-11.501000	22.941245	0.000443	20.786324
382.114963	-3.028300	3.813400	-11.547000	22.929236	0.000443	20.796103
383.118783	-2.996800	3.813500	-11.427000	22.941388	0.000442	20.785992
384.115125	-3.026900	3.812100	-11.537000	22.956083	0.000443	20.799767
385.114714	-2.982000	3.814000	-11.372000	22.944000	0.000443	20.790032
386.119191	-3.005200	3.813000	-11.458000	22.959022	0.000444	20.804608
387.115732	-2.977200	3.813200	-11.352000	22.971819	0.000446	20.809369
388.114081	-3.002900	3.811700	-11.445000	22.976951	0.000445	20.808820
389.122536	-3.009600	3.812000	-11.471000	22.987835	0.000446	20.807872
390.117725	-3.017300	3.812000	-11.501000	22.985696	0.000444	20.794349
391.115020	-2.983700	3.812100	-11.374000	22.966835	0.000447	20.807694
392.121821	-3.007800	3.810900	-11.462000	22.997744	0.000445	20.794566
393.115947	-2.991600	3.810500	-11.399000	22.984720	0.000448	20.816130
394.117531	-2.982200	3.811900	-11.367000	22.979292	0.000446	20.800735
395.118618	-2.973300	3.811600	-11.332000	23.029923	0.000445	20.806420
396.114014	-3.008100	3.810000	-11.459000	23.003373	0.000446	20.807793
397.116994	-2.989700	3.810200	-11.391000	23.011142	0.000447	20.828379
398.118963	-3.002300	3.808800	-11.434000	23.020981	0.000446	20.795090
399.115099	-2.991500	3.810100	-11.397000	23.034833	0.000446	20.817977
400.116733	-3.030400	3.808800	-11.542000	23.017964	0.000448	20.810559
401.119222	-3.008600	3.809900	-11.462000	23.034300	0.000448	20.807012
402.119747	-2.991700	3.808900	-11.394000	23.041177	0.000449	20.811532
403.117906	-2.995300	3.808500	-11.406000	23.030717	0.000448	20.828077
404.120335	-3.005800	3.808500	-11.447000	23.035523	0.000449	20.801599
405.120771	-2.997900	3.809100	-11.419000	23.043765	0.000448	20.811280
406.123292	-2.999100	3.808300	-11.420000	23.026734	0.000452	20.805121
407.121146	-3.011700	3.806900	-11.463000	23.093176	0.000449	20.807684
408.120448	-2.996800	3.808400	-11.412000	23.072735	0.000449	20.793840
409.123291	-2.994600	3.807400	-11.400000	23.047422	0.000451	20.820160
410.119473	-3.017200	3.806400	-11.483000	23.067278	0.000449	20.796907
411.120639	-2.990300	3.807900	-11.386000	23.099672	0.000451	20.811823
412.123626	-2.996900	3.806000	-11.406000	23.080404	0.000451	20.809586
413.120220	-3.011600	3.805100	-11.458000	23.092456	0.000451	20.798428
414.120888	-2.997100	3.806300	-11.407000	23.083362	0.000452	20.795005
415.123606	-3.023100	3.805900	-11.504000	23.083416	0.000451	20.807388
416.120631	-3.015900	3.806000	-11.478000	23.106179	0.000451	20.791316
417.120721	-2.992400	3.805600	-11.386000	23.111310	0.000452	20.816846
418.125266	-2.999800	3.806400	-11.418000	23.119206	0.000453	20.788723
419.119599	-3.016000	3.805800	-11.476000	23.113804	0.000454	20.799431
420.122703	-3.020100	3.803300	-11.486000	23.126329	0.000453	20.828102
421.128697	-3.023900	3.804500	-11.504000	23.121050	0.000452	20.815700
422.121152	-3.002300	3.804000	-11.419000	23.132283	0.000454	20.812258
423.123357	-3.000300	3.803900	-11.412000	23.138711	0.000452	20.809215
424.127853	-3.004900	3.804400	-11.430000	23.129548	0.000453	20.813310
425.124506	-3.002100	3.804500	-11.421000	23.141727	0.000454	20.818402
426.126331	-2.999000	3.803200	-11.405000	23.147854	0.000454	20.811265
427.127140	-2.992200	3.803700	-11.381000	23.143043	0.000455	20.814979
428.124689	-3.038000	3.802500	-11.551000	23.160851	0.000455	20.808168
429.123683	-2.996700	3.802300	-11.394000	23.152285	0.000455	20.838938
430.127242	-3.010800	3.801900	-11.446000	23.183189	0.000455	20.817750
431.125433	-3.002300	3.802400	-11.415000	23.186624	0.000455	20.825934
432.124627	-3.014700	3.802200	-11.461000	23.180754	0.000456	20.807724
433.128115	-3.031300	3.802100	-11.523000	23.170315	0.000456	20.820496
434.125576	-2.992900	3.802000	-11.378000	23.185081	0.000458	20.835293
435.125514	-2.975400	3.802300	-11.313000	23.173233	0.000457	20.814412
436.130754	-3.014700	3.801200	-11.459000	23.196314	0.000455	20.827109
437.129055	-3.002700	3.800900	-11.411000	23.189916	0.000457	20.823544
438.127102	-3.009900	3.798800	-11.432000	23.223756	0.000457	20.830428
439.128700	-2.989100	3.800200	-11.358000	23.199434	0.000457	20.808900
440.130318	-3.004800	3.800100	-11.417000	23.211031	0.000458	20.819573
441.125235	-2.993000	3.798500	-11.367000	23.215215	0.000459	20.825662
442.129874	-2.978900	3.799700	-11.318000	23.209819	0.000458	20.834479
443.127402	-2.999200	3.800100	-11.396000	23.207975	0.000459	20.818407
444.128482	-2.978000	3.799200	-11.313000	23.225353	0.000460	20.813537
445.130527	-2.979800	3.800200	-11.323000	23.237685	0.000457	20.818783
446.126626	-3.049500	3.797200	-11.579000	23.213131	0.000457	20.833056
447.127298	-3.000300	3.798300	-11.395000	23.244215	0.000458	20.828172
448.131368	-3.006300	3.797800	-11.416000	23.241174	0.000460	20.840771
449.126968	-2.995700	3.797500	-11.375000	23.228474	0.000458	20.813819
450.127655	-3.022500	3.796600	-11.474000	23.241850	0.000460	20.816793
451.130610	-3.016900	3.796900	-11.454000	23.252880	0.000460	20.817889
452.129658	-2.997400	3.797500	-11.382000	23.255797	0.000461	20.814649
453.129343	-3.020000	3.796600	-11.464000	23.255379	0.000459	20.834144
454.136055	-2.992400	3.796300	-11.360000	23.263644	0.000459	20.819193
455.129066	-2.997500	3.795700	-11.376000	23.276073	0.000458	20.843977
456.128202	-2.986900	3.796100	-11.338000	23.284165	0.000461	20.834070
457.131255	-2.987000	3.797200	-11.340000	23.274703	0.000461	20.825061
458.128270	-3.004700	3.794500	-11.400000	23.274028	0.000461	20.831970
459.128368	-2.978100	3.795900	-11.304000	23.288325	0.000461	20.836342
460.134414	-3.006800	3.793700	-11.406000	23.287261	0.000460	20.805878
461.126742	-2.993100	3.794200	-11.356000	23.288276	0.000462	20.818749
462.129160	-3.006700	3.794300	-11.406000	23.301804	0.000461	20.839893
463.133945	-2.998700	3.793900	-11.375000	23.303322	0.000461	20.828612
464.129287	-2.999000	3.793800	-11.376000	23.299986	0.000463	20.818157
465.129961	-2.986000	3.794000	-11.328000	23.318861	0.000463	20.854616
466.134030	-2.983500	3.793000	-11.317000	23.323020	0.000462	20.852621
467.131321	-2.991600	3.793800	-11.348000	23.317643	0.000463	20.863827
468.127993	-3.025200	3.791900	-11.471000	23.339707	0.000464	20.838051
469.131925	-3.010700	3.792600	-11.417000	23.329200	0.000464	20.832263
470.131793	-3.018800	3.791400	-11.444000	23.344162	0.000463	20.835404
471.131602	-3.000700	3.791900	-11.378000	23.336321	0.000465	20.820434
472.132832	-2.994400	3.793200	-11.357000	23.345788	0.000463	20.843198
473.132900	-2.990700	3.790800	-11.336000	23.344073	0.000463	20.836264
474.132158	-3.007600	3.791000	-11.400000	23.357142	0.000462	20.829922
475.138383	-3.019000	3.790700	-11.443000	23.351391	0.000464	20.840753
476.130514	-3.003600	3.791300	-11.386000	23.370517	0.000463	20.845223
477.131099	-2.994000	3.791600	-11.351000	23.351845	0.000466	20.840259
478.135641	-3.021300	3.789800	-11.449000	23.350106	0.000466	20.829982
479.133387	-3.007800	3.790800	-11.402000	23.383921	0.000465	20.831157
480.133093	-3.003600	3.789500	-11.381000	23.360612	0.000466	20.855684
481.135278	-2.993900	3.790400	-11.347000	23.378570	0.000466	20.849026
482.133205	-3.025400	3.789500	-11.464000	23.370330	0.000464	20.847407
483.143752	-2.995700	3.789800	-11.352000	23.371577	0.000467	20.861932
484.138617	-3.004300	3.788200	-11.380000	23.396030	0.000466	20.842819
485.136070	-2.996200	3.788500	-11.350000	23.401312	0.000467	20.835786
486.136105	-3.012900	3.787800	-11.411000	23.399869	0.000467	20.845718
487.138850	-2.997000	3.789200	-11.355000	23.411799	0.000465	20.841081
488.136190	-2.990300	3.788000	-11.326000	23.416387	0.000469	20.858481
489.135505	-3.026300	3.786600	-11.458000	23.415889	0.000469	20.855611
490.136862	-3.000100	3.788400	-11.365000	23.425824	0.000467	20.862249
491.135769	-3.009000	3.787200	-11.395000	23.412154	0.000466	20.841437
492.134893	-2.973400	3.788000	-11.262000	23.425331	0.000468	20.862230
493.138179	-3.033800	3.785900	-11.485000	23.448535	0.000469	20.851823
494.135300	-3.009500	3.786700	-11.395000	23.428125	0.000466	20.850806
495.136124	-2.996300	3.786400	-11.343000	23.454592	0.000467	20.870221
496.137063	-2.973100	3.787300	-11.259000	23.438286	0.000468	20.849611
497.137003	-3.006200	3.785600	-11.379000	23.444914	0.000468	20.856254
498.134844	-3.006800	3.785600	-11.382000	23.452606	0.000466	20.844050
499.138532	-2.995900	3.786400	-11.342000	23.461944	0.000468	20.861944
500.136563	-2.988700	3.784700	-11.310000	23.483734	0.000466	20.863396
501.135976	-3.007500	3.784200	-11.380000	23.472878	0.000469	20.861524
502.137908	-3.005200	3.784900	-11.374000	23.447192	0.000468	20.839572
503.137398	-2.990500	3.784500	-11.316000	23.469154	0.000466	20.864429
504.141323	-3.009900	3.782600	-11.384000	23.483946	0.000466	20.855075
505.143396	-2.992100	3.784000	-11.320000	23.473840	0.000466	20.873868
506.138706	-3.000000	3.782600	-11.346000	23.475812	0.000467	20.857352
507.138824	-2.994400	3.782600	-11.326000	23.488184	0.000467	20.851263
508.142695	-2.999200	3.782700	-11.344000	23.471836	0.000468	20.868539
509.140079	-2.995600	3.782000	-11.328000	23.503553	0.000470	20.853866
510.138486	-3.040400	3.781100	-11.495000	23.507865	0.000468	20.862929
511.141192	-3.014500	3.781600	-11.398000	23.494823	0.000469	20.881149
512.138011	-2.999400	3.782200	-11.343000	23.505456	0.000469	20.856247
513.140098	-3.006200	3.779800	-11.362000	23.511783	0.000468	20.862589
514.141716	-3.004700	3.780200	-11.357000	23.532226	0.000468	20.856529
515.141999	-2.976200	3.782000	-11.255000	23.514582	0.000469	20.854016
516.140713	-2.984900	3.781000	-11.285000	23.533951	0.000470	20.868689
517.144079	-2.985200	3.780500	-11.284000	23.529473	0.000470	20.856614
518.139520	-3.002600	3.779500	-11.348000	23.537588	0.000471	20.870912
519.141139	-2.993300	3.780100	-11.313000	23.543343	0.000470	20.869095
520.143579	-3.009800	3.778400	-11.370000	23.533292	0.000470	20.862813
521.142729	-3.001700	3.778200	-11.341000	23.549626	0.000471	20.848841
522.140963	-2.983200	3.780400	-11.277000	23.549582	0.000470	20.868711
523.142905	-3.014500	3.777700	-11.387000	23.571315	0.000471	20.869160
524.140644	-3.012200	3.777700	-11.378000	23.552346	0.000471	20.864844
525.140894	-2.987400	3.778400	-11.286000	23.555490	0.000470	20.852349
526.144373	-2.987300	3.778200	-11.285000	23.568113	0.000471	20.867847
527.140298	-2.979400	3.778300	-11.257000	23.566921	0.000471	20.859540
528.140703	-3.014900	3.776400	-11.383000	23.590694	0.000471	20.893800
529.142140	-3.020500	3.776900	-11.407000	23.584876	0.000472	20.890813
530.140622	-2.998700	3.776600	-11.324000	23.580693	0.000471	20.866233
531.142661	-3.000600	3.776700	-11.332000	23.617714	0.000471	20.882007
532.147938	-2.984900	3.776300	-11.271000	23.600090	0.000471	20.872402
533.142871	-3.001400	3.776100	-11.332000	23.596681	0.000471	20.891268
534.141673	-3.015900	3.775400	-11.385000	23.616147	0.000470	20.864791
535.149881	-3.012500	3.774300	-11.370000	23.586281	0.000470	20.866619
536.143738	-2.991000	3.774500	-11.288000	23.609058	0.000471	20.880442
537.145264	-2.982100	3.775100	-11.257000	23.612393	0.000473	20.870510
538.146474	-3.001500	3.774900	-11.330000	23.620488	0.000473	20.880522
539.143425	-2.966100	3.776000	-11.199000	23.629549	0.000475	20.869691
540.144983	-2.994300	3.773300	-11.298000	23.604456	0.000473	20.880097
541.145986	-3.004100	3.773100	-11.333000	23.636624	0.000471	20.899541
542.145283	-3.003900	3.772900	-11.333000	23.644684	0.000473	20.873484
543.147416	-2.982000	3.774500	-11.254000	23.633171	0.000474	20.893709
544.150877	-3.022600	3.773100	-11.404000	23.634811	0.000472	20.875915
545.146905	-3.011700	3.772900	-11.361000	23.636304	0.000473	20.882152
546.147486	-3.006400	3.772700	-11.341000	23.637176	0.000473	20.884449
547.150120	-3.000200	3.771200	-11.314000	23.641354	0.000475	20.883421
548.146783	-3.009200	3.771800	-11.348000	23.640891	0.000473	20.869682
549.146987	-3.001100	3.771700	-11.318000	23.644626	0.000473	20.873426
550.149290	-3.020700	3.770600	-11.388000	23.657494	0.000474	20.885378
551.146786	-3.010500	3.769400	-11.347000	23.668402	0.000473	20.885882
552.146619	-2.966800	3.771700	-11.188000	23.684340	0.000473	20.871516
553.146502	-2.993100	3.770800	-11.286000	23.650282	0.000474	20.860605
554.148354	-2.986800	3.770300	-11.260000	23.683813	0.000473	20.870513
555.153413	-3.014900	3.770000	-11.366000	23.660963	0.000473	20.875580
556.150115	-2.988900	3.770000	-11.267000	23.675975	0.000475	20.871190
557.149770	-3.013400	3.769100	-11.357000	23.703515	0.000477	20.868454
558.152227	-3.000800	3.768800	-11.309000	23.686060	0.000474	20.863757
559.151643	-3.000800	3.769500	-11.310000	23.701771	0.000473	20.872395
560.152965	-2.996900	3.768300	-11.292000	23.697963	0.000473	20.872845
561.159267	-2.986500	3.768000	-11.252000	23.703594	0.000476	20.868060
562.154224	-3.001000	3.767800	-11.306000	23.718004	0.000476	20.856428
563.151859	-3.006700	3.767200	-11.325000	23.705166	0.000476	20.844032
564.156522	-2.992500	3.767800	-11.274000	23.717364	0.000478	20.861002
565.153540	-2.992300	3.767000	-11.271000	23.708003	0.000475	20.852093
566.154644	-2.977800	3.767300	-11.218000	23.721123	0.000474	20.857185
567.155894	-3.005700	3.766200	-11.319000	23.712388	0.000473	20.867393
568.153977	-3.035400	3.764400	-11.426000	23.714231	0.000475	20.865922
569.156497	-2.993600	3.765700	-11.272000	23.730010	0.000475	20.849500
570.157187	-3.006800	3.765800	-11.322000	23.731133	0.000474	20.861057
571.156633	-3.020400	3.765500	-11.373000	23.753385	0.000476	20.875306
572.155501	-2.998200	3.764100	-11.285000	23.721024	0.000476	20.863724
573.159453	-3.005000	3.765100	-11.312000	23.736735	0.000475	20.850552
574.157103	-2.975800	3.764800	-11.202000	23.747090	0.000474	20.852399
575.157519	-2.986800	3.764200	-11.242000	23.757764	0.000473	20.855041
576.158913	-3.007500	3.763400	-11.317000	23.756381	0.000475	20.846543
577.158813	-2.996800	3.763700	-11.278000	23.745843	0.000474	20.856365
578.157654	-2.995800	3.764400	-11.276000	23.729695	0.000475	20.854400
579.155845	-2.975500	3.764500	-11.201000	23.743115	0.000475	20.839406
580.158384	-3.009200	3.762300	-11.320000	23.770888	0.000474	20.848760
581.158078	-2.954800	3.763200	-11.118000	23.776642	0.000474	20.849313
582.164741	-2.966400	3.764300	-11.166000	23.768204	0.000475	20.836586
583.158440	-2.995300	3.763300	-11.270000	23.751504	0.000475	20.847817
584.159004	-2.988900	3.762700	-11.245000	23.764120	0.000474	20.864732
585.164078	-2.971400	3.762000	-11.177000	23.775593	0.000475	20.858218
586.159202	-2.997700	3.760800	-11.273000	23.778706	0.000474	20.833365
587.159530	-2.994600	3.760800	-11.261000	23.776697	0.000474	20.843679
588.161858	-2.988800	3.761500	-11.241000	23.780259	0.000473	20.835870
589.163675	-3.009200	3.760100	-11.313000	23.791327	0.000474	20.838433
590.161311	-2.992700	3.761600	-11.255000	23.787500	0.000473	20.832699
591.165637	-3.005800	3.759600	-11.300000	23.800594	0.000472	20.814534
592.163281	-3.002700	3.760200	-11.290000	23.800446	0.000474	20.832403
593.163143	-3.000100	3.758900	-11.276000	23.792959	0.000473	20.831535
594.165360	-3.028200	3.758800	-11.381000	23.814712	0.000475	20.823948
595.162506	-3.005300	3.759500	-11.296000	23.809836	0.000472	20.838024
596.162718	-2.982400	3.759100	-11.210000	23.821412	0.000473	20.832562
597.168983	-2.998200	3.759300	-11.269000	23.824973	0.000474	20.830918
598.163857	-3.008200	3.758600	-11.305000	23.807353	0.000474	20.836484
599.164033	-3.002700	3.758400	-11.284000	23.821097	0.000473	20.826557
600.168967	-2.997000	3.757800	-11.261000	23.828940	0.000475	20.826834
601.164398	-2.996700	3.757800	-11.259000	23.834743	0.000474	20.826963
602.166391	-3.010900	3.756900	-11.311000	23.839624	0.000474	20.823797
603.169486	-3.001500	3.756700	-11.274000	23.841822	0.000475	20.830742
604.167029	-2.993700	3.757300	-11.248000	23.822360	0.000475	20.826875
605.167393	-3.006000	3.756500	-11.291000	23.847177	0.000473	20.820939
606.171206	-2.998500	3.756000	-11.261000	23.837345	0.000474	20.829572
607.168237	-3.023700	3.754800	-11.351000	23.857167	0.000473	20.799188
608.168698	-3.002900	3.755100	-11.275000	23.829820	0.000473	20.805432
609.173090	-2.999500	3.754300	-11.260000	23.840267	0.000473	20.815433
610.167479	-3.004300	3.753900	-11.277000	23.851750	0.000473	20.823153
611.169694	-2.996800	3.755400	-11.253000	23.855863	0.000474	20.832494
612.173712	-2.997500	3.754800	-11.254000	23.864449	0.000474	20.813602
613.170481	-3.017200	3.754300	-11.327000	23.861409	0.000474	20.820511
614.172215	-3.006300	3.752300	-11.280000	23.855169	0.000474	20.798133
615.170717	-2.991800	3.754400	-11.231000	23.856845	0.000474	20.819253
616.169343	-3.004600	3.752900	-11.275000	23.866174	0.000474	20.819599
617.168723	-3.019800	3.752100	-11.330000	23.871854	0.000473	20.808699
618.171982	-3.025700	3.752000	-11.352000	23.880395	0.000473	20.828169
619.168910	-3.003600	3.752800	-11.272000	23.879873	0.000474	20.817688
620.168628	-2.991200	3.752600	-11.224000	23.895680	0.000475	20.799399
621.171901	-3.002300	3.750600	-11.260000	23.871791	0.000473	20.794411
622.171753	-3.016200	3.751200	-11.313000	23.886307	0.000474	20.802803
623.171746	-3.002700	3.750400	-11.260000	23.875432	0.000473	20.805174
624.174058	-3.007300	3.751400	-11.280000	23.871304	0.000474	20.804829
625.171268	-2.977500	3.750900	-11.168000	23.902292	0.000474	20.807926
626.171801	-2.986200	3.750400	-11.199000	23.917497	0.000475	20.792827
627.174076	-2.986200	3.750900	-11.200000	23.890254	0.000471	20.784002
628.172250	-3.003100	3.750100	-11.260000	23.889609	0.000471	20.800899
629.173524	-2.988600	3.750500	-11.208000	23.892870	0.000474	20.783306
630.175116	-3.003100	3.748700	-11.257000	23.893146	0.000475	20.808238
631.172099	-2.984900	3.749000	-11.190000	23.909401	0.000471	20.788028
632.173750	-2.980000	3.748700	-11.170000	23.890088	0.000473	20.788102
633.175515	-2.991000	3.749500	-11.214000	23.909160	0.000473	20.797744
634.172327	-3.019200	3.747800	-11.314000	23.906004	0.000473	20.800268
635.175188	-2.998200	3.748400	-11.238000	23.899734	0.000472	20.791610
636.174040	-2.996400	3.749300	-11.233000	23.909497	0.000470	20.808987
637.172747	-3.015500	3.748400	-11.303000	23.896858	0.000471	20.780666
638.174430	-3.006700	3.748700	-11.271000	23.933139	0.000472	20.796659
639.173035	-3.007200	3.746500	-11.266000	23.905320	0.000471	20.791523
640.173339	-3.008800	3.745900	-11.268000	23.917724	0.000470	20.784994
641.176439	-3.002800	3.747700	-11.253000	23.915182	0.000470	20.793825
642.174358	-3.011000	3.747100	-11.282000	23.916311	0.000472	20.786422
643.177009	-2.992700	3.745800	-11.208000	23.918232	0.000470	20.786927
644.178197	-2.988100	3.746200	-11.192000	23.920474	0.000469	20.800080
645.176846	-2.969400	3.745600	-11.121000	23.938393	0.000471	20.815203
646.175777	-2.985400	3.746400	-11.183000	23.945840	0.000472	20.798490
647.176855	-2.996000	3.744300	-11.217000	23.941492	0.000472	20.786069
648.180515	-3.008900	3.744900	-11.266000	23.957145	0.000470	20.773316
649.177532	-3.014400	3.742300	-11.279000	23.934651	0.000471	20.792011
650.176970	-3.002000	3.743300	-11.237000	23.951783	0.000471	20.776000
651.176317	-2.990200	3.744700	-11.197000	23.942050	0.000472	20.788525
652.177878	-2.973400	3.744100	-11.132000	23.938420	0.000472	20.797213
653.176357	-2.988400	3.743000	-11.185000	23.963738	0.000472	20.804584
654.178162	-3.005300	3.742300	-11.246000	23.964142	0.000471	20.791239
655.175917	-2.982600	3.743500	-11.165000	23.980844	0.000472	20.800875
656.180060	-3.003700	3.741900	-11.239000	23.965241	0.000471	20.773374
657.176772	-3.003100	3.742700	-11.238000	23.974279	0.000472	20.778645
658.177823	-2.987700	3.742600	-11.181000	23.963558	0.000469	20.772160
659.177970	-3.000200	3.741400	-11.224000	23.961642	0.000469	20.786835
660.177323	-2.993000	3.742300	-11.199000	23.977803	0.000470	20.789291
661.178130	-2.991000	3.741100	-11.188000	23.961923	0.000469	20.781901
662.179622	-2.993500	3.741400	-11.198000	23.985092	0.000470	20.784272
663.178263	-2.990400	3.741800	-11.189000	23.972331	0.000470	20.779536
664.182168	-3.014600	3.739500	-11.273000	23.979798	0.000468	20.776593
665.181053	-3.015200	3.739700	-11.275000	23.988989	0.000467	20.789604
666.182819	-2.994600	3.740300	-11.200000	23.991925	0.000469	20.793970
667.183941	-3.003900	3.740500	-11.235000	23.978661	0.000470	20.768340
668.181128	-3.018800	3.738600	-11.285000	23.974603	0.000470	20.772331
669.181446	-3.005700	3.738400	-11.235000	24.003996	0.000469	20.776678
670.183659	-3.002900	3.738100	-11.223000	23.990187	0.000469	20.755242
671.180106	-2.994600	3.739200	-11.196000	23.988191	0.000469	20.767940
672.182003	-2.996800	3.738100	-11.202000	24.006311	0.000468	20.780422
673.183272	-2.999100	3.736900	-11.207000	23.989714	0.000468	20.765674
674.182651	-3.008100	3.737700	-11.243000	23.982947	0.000468	20.770741
675.184619	-3.023500	3.737100	-11.298000	24.003819	0.000469	20.761801
676.186643	-2.970900	3.737200	-11.102000	24.002277	0.000470	20.753616
677.187154	-3.006400	3.735600	-11.229000	24.013275	0.000469	20.763223
678.186963	-3.006800	3.736100	-11.232000	23.996727	0.000469	20.760852
679.187895	-2.994800	3.735300	-11.184000	23.992397	0.000468	20.775952
680.186648	-3.002200	3.735700	-11.215000	24.029129	0.000469	20.758734
681.189938	-3.007100	3.735700	-11.232000	24.017905	0.000468	20.754589
682.190912	-3.005900	3.736300	-11.230000	24.031143	0.000470	20.786358
683.187839	-3.006200	3.734700	-11.227000	24.027311	0.000466	20.782042
684.189302	-3.022100	3.734000	-11.283000	24.053561	0.000467	20.772805
685.193452	-2.993200	3.734500	-11.176000	24.047488	0.000467	20.762447
686.190549	-2.999900	3.734200	-11.202000	24.028601	0.000469	20.767688
687.190477	-3.020000	3.733200	-11.273000	24.041176	0.000469	20.766548
688.192307	-3.008300	3.733200	-11.230000	24.052867	0.000466	20.761203
689.188431	-3.008100	3.733200	-11.229000	24.067430	0.000467	20.779128
690.189137	-3.021000	3.732000	-11.273000	24.042742	0.000468	20.762428
691.193228	-3.002700	3.732100	-11.206000	24.061530	0.000467	20.762305
692.190874	-3.039500	3.730900	-11.339000	24.062353	0.000466	20.762182
693.191347	-2.996900	3.732100	-11.184000	24.055936	0.000467	20.777084
694.196470	-2.988500	3.732200	-11.153000	24.078206	0.000466	20.766701
695.195839	-3.006100	3.730700	-11.214000	24.069426	0.000464	20.763111
696.193605	-2.988300	3.731600	-11.150000	24.067086	0.000465	20.768352
697.195511	-2.999300	3.731300	-11.191000	24.066619	0.000467	20.756503
698.193723	-2.989700	3.731000	-11.154000	24.083688	0.000464	20.764613
699.196189	-2.987900	3.730300	-11.144000	24.081601	0.000466	20.732646
700.193695	-2.962500	3.731200	-11.052000	24.077296	0.000464	20.748719
701.196050	-2.990600	3.730600	-11.156000	24.090687	0.000464	20.743182
702.199642	-3.008100	3.729600	-11.218000	24.066655	0.000465	20.739469
703.196517	-2.983000	3.730900	-11.129000	24.063701	0.000466	20.728445
704.197153	-2.988200	3.730300	-11.146000	24.080322	0.000467	20.739425
705.199304	-3.019800	3.727700	-11.255000	24.080027	0.000465	20.776589
706.196945	-2.995200	3.728600	-11.167000	24.085627	0.000464	20.752332
707.195743	-2.994800	3.727600	-11.163000	24.093596	0.000463	20.747996
708.198050	-3.017100	3.727500	-11.245000	24.086534	0.000464	20.728111
709.197319	-2.986500	3.728500	-11.134000	24.090292	0.000463	20.763175
710.196489	-2.996000	3.727400	-11.166000	24.105076	0.000462	20.738173
711.199934	-3.010700	3.726200	-11.218000	24.070662	0.000462	20.743962
712.197851	-3.001700	3.727000	-11.186000	24.089199	0.000464	20.745957
713.198493	-3.006900	3.726500	-11.204000	24.071589	0.000463	20.745365
714.203234	-3.012300	3.726100	-11.222000	24.090978	0.000463	20.755803
715.198456	-3.007900	3.726400	-11.207000	24.088467	0.000464	20.747120
716.198501	-3.003100	3.725400	-11.187000	24.092052	0.000462	20.746923
717.202138	-2.971600	3.727200	-11.075000	24.090358	0.000462	20.743327
718.201118	-2.988500	3.725700	-11.133000	24.092058	0.000463	20.731281
719.200133	-3.007700	3.724900	-11.203000	24.092501	0.000463	20.737414
720.204758	-3.001700	3.724900	-11.180000	24.091235	0.000464	20.753216
721.202006	-2.980900	3.725400	-11.104000	24.090222	0.000464	20.733706
722.204296	-2.996900	3.724000	-11.160000	24.093206	0.000461	20.736699
723.210351	-2.995300	3.723000	-11.151000	24.105375	0.000464	20.728515
724.203371	-3.022000	3.723400	-11.250000	24.107671	0.000462	20.740301
725.203738	-3.018100	3.723100	-11.236000	24.122523	0.000462	20.743818
726.207934	-2.992600	3.722800	-11.140000	24.133151	0.000464	20.735984
727.204017	-3.018500	3.721700	-11.234000	24.118274	0.000462	20.736711
728.204888	-2.974900	3.723500	-11.076000	24.125420	0.000462	20.740559
729.205500	-2.979700	3.722000	-11.088000	24.128951	0.000462	20.750265
730.205231	-2.992200	3.721800	-11.135000	24.141297	0.000460	20.746526
731.206539	-2.996000	3.722000	-11.150000	24.141278	0.000462	20.746033
732.207897	-2.980600	3.721400	-11.091000	24.148143	0.000461	20.748651
733.205501	-3.007900	3.720200	-11.188000	24.152004	0.000461	20.729763
734.208294	-3.008500	3.720800	-11.193000	24.126702	0.000462	20.729043
735.209195	-2.987800	3.721400	-11.117000	24.134119	0.000461	20.713246
736.206513	-3.001200	3.720000	-11.164000	24.133026	0.000461	20.731118
737.220702	-3.008100	3.719400	-11.187000	24.153778	0.000459	20.707833
738.208570	-3.001500	3.720800	-11.167000	24.143230	0.000461	20.733765
739.207712	-3.001800	3.720300	-11.167000	24.158191	0.000461	20.723641
740.211117	-3.009800	3.719000	-11.192000	24.146329	0.000458	20.729762
741.212198	-3.013400	3.718800	-11.205000	24.141277	0.000460	20.732755
742.209571	-3.003800	3.718500	-11.169000	24.155336	0.000459	20.720303
743.213341	-3.031200	3.717400	-11.268000	24.168683	0.000458	20.730845
744.209803	-3.007300	3.718600	-11.183000	24.166092	0.000459	20.723978
745.209833	-3.003000	3.717100	-11.162000	24.149675	0.000459	20.721737
746.213113	-2.959800	3.719500	-11.008000	24.172279	0.000458	20.727814
747.209328	-3.011600	3.717700	-11.195000	24.166981	0.000458	20.719654
748.209450	-3.028300	3.715800	-11.252000	24.166134	0.000457	20.736823
749.213714	-2.998000	3.717400	-11.143000	24.167208	0.000458	20.731736
750.210371	-3.014700	3.717400	-11.206000	24.170419	0.000458	20.717886
751.211617	-3.004200	3.715900	-11.163000	24.173163	0.000458	20.725380
752.213337	-3.009700	3.716400	-11.184000	24.182893	0.000457	20.726606
753.211281	-3.002600	3.716300	-11.158000	24.179983	0.000456	20.738386
754.212059	-2.987800	3.714800	-11.099000	24.172818	0.000457	20.727880
755.212152	-3.015000	3.715000	-11.199000	24.183642	0.000456	20.729728
756.218152	-3.029400	3.715300	-11.254000	24.188897	0.000457	20.718403
757.214392	-2.991900	3.714700	-11.113000	24.171308	0.000456	20.718778
758.211863	-3.017700	3.715000	-11.210000	24.179995	0.000454	20.701411
759.211300	-3.006100	3.714600	-11.165000	24.177557	0.000454	20.708925
760.214221	-2.995400	3.715200	-11.126000	24.180848	0.000455	20.728821
761.211000	-3.018300	3.713300	-11.207000	24.179951	0.000454	20.716068
762.211073	-3.008300	3.713800	-11.172000	24.189756	0.000456	20.725428
763.218322	-2.972000	3.713700	-11.036000	24.170103	0.000456	20.701922
764.210721	-3.010900	3.713000	-11.178000	24.178877	0.000456	20.716413
765.211782	-3.011800	3.713400	-11.183000	24.211526	0.000455	20.715969
766.215254	-3.009000	3.712300	-11.169000	24.196227	0.000454	20.717219
767.211462	-2.976500	3.713700	-11.053000	24.199413	0.000456	20.728476
768.213050	-3.005100	3.713100	-11.156000	24.199806	0.000455	20.712749
769.216612	-3.000800	3.712500	-11.139000	24.214939	0.000454	20.719867
770.212726	-3.028300	3.711500	-11.238000	24.202145	0.000455	20.725527
771.213114	-2.995400	3.710800	-11.114000	24.187540	0.000455	20.726999
772.216778	-2.969400	3.711800	-11.021000	24.198185	0.000455	20.701639
773.213167	-2.982800	3.711800	-11.070000	24.197762	0.000454	20.709750
774.215175	-3.016200	3.710000	-11.189000	24.197185	0.000453	20.722923
775.215978	-2.999900	3.710300	-11.130000	24.209077	0.000453	20.724893
776.215685	-2.983100	3.711300	-11.070000	24.206781	0.000452	20.721642
777.215378	-2.995200	3.710300	-11.112000	24.196455	0.000454	20.725984
778.220591	-2.984800	3.710400	-11.074000	24.229515	0.000455	20.731643
779.216360	-2.993500	3.709100	-11.102000	24.223413	0.000453	20.714616
780.216803	-2.988800	3.710100	-11.088000	24.227287	0.000450	20.712813
781.219331	-3.005800	3.709300	-11.149000	24.220522	0.000453	20.715036
782.216882	-2.998000	3.709700	-11.121000	24.244797	0.000454	20.707141
783.218510	-2.965200	3.709800	-10.998000	24.237848	0.000450	20.720561
784.217075	-2.994100	3.708700	-11.103000	24.233839	0.000450	20.733610
785.217585	-2.973000	3.709000	-11.026000	24.256376	0.000452	20.717334
786.220355	-3.020600	3.706300	-11.194000	24.226786	0.000452	20.725587
787.217888	-2.984300	3.707700	-11.064000	24.246536	0.000451	20.729276
788.218213	-2.997500	3.708200	-11.114000	24.252350	0.000452	20.714244
789.221614	-3.012400	3.707400	-11.167000	24.242172	0.000450	20.726321
790.220115	-2.994800	3.707500	-11.101000	24.245125	0.000451	20.719800
791.220240	-2.997200	3.706600	-11.107000	24.249202	0.000452	20.720096
792.222861	-2.995500	3.706400	-11.101000	24.250989	0.000448	20.729475
793.220083	-2.991200	3.706100	-11.084000	24.242695	0.000449	20.719733
794.219261	-2.992400	3.704900	-11.085000	24.269186	0.000450	20.709320
795.222698	-2.993800	3.706700	-11.096000	24.267240	0.000449	20.715904
796.220010	-2.996600	3.706300	-11.106000	24.268855	0.000448	20.728904
797.219343	-2.981300	3.706000	-11.048000	24.261740	0.000448	20.708015
798.220599	-2.997800	3.704300	-11.104000	24.260138	0.000451	20.729644
799.221470	-2.965400	3.705800	-10.989000	24.265234	0.000449	20.729065
800.222527	-2.987800	3.704700	-11.068000	24.267616	0.000448	20.720549
801.221950	-3.003900	3.703900	-11.126000	24.268452	0.000448	20.737035
802.221485	-3.014200	3.702900	-11.160000	24.261539	0.000448	20.709711
803.221905	-3.017900	3.702700	-11.172000	24.283228	0.000448	20.713449
804.224075	-3.012600	3.703100	-11.155000	24.251251	0.000447	20.717884
805.222331	-3.001100	3.702800	-11.110000	24.288422	0.000445	20.730988
806.220378	-3.005700	3.702500	-11.128000	24.277441	0.000448	20.732775
807.222866	-3.014300	3.703600	-11.162000	24.288933	0.000446	20.734820
808.221519	-2.973000	3.703600	-11.009000	24.283285	0.000449	20.739112
809.221534	-2.993500	3.702500	-11.081000	24.291935	0.000446	20.744470
810.223472	-3.007200	3.702200	-11.133000	24.283200	0.000446	20.732388
811.221985	-3.005700	3.701600	-11.125000	24.295140	0.000446	20.724925
812.222649	-3.009300	3.700100	-11.134000	24.291586	0.000443	20.726101
813.225960	-3.022900	3.699600	-11.182000	24.296411	0.000445	20.759866
814.226535	-3.024900	3.700100	-11.192000	24.304367	0.000444	20.729913
815.226069	-3.011400	3.700100	-11.141000	24.300635	0.000444	20.736127
816.226965	-3.017500	3.699000	-11.161000	24.325214	0.000443	20.740869
817.233443	-2.965000	3.701200	-10.972000	24.300708	0.000443	20.723398
818.225865	-3.010800	3.700700	-11.141000	24.306110	0.000442	20.742094
819.228479	-3.004500	3.699200	-11.113000	24.309591	0.000443	20.735154
820.237146	-3.010300	3.699500	-11.134000	24.298345	0.000442	20.723872
821.229491	-3.026100	3.699200	-11.193000	24.317479	0.000442	20.743541
822.226381	-3.009500	3.698900	-11.130000	24.325564	0.000443	20.721304
823.228134	-3.005000	3.698700	-11.114000	24.313649	0.000442	20.743492
824.228470	-3.000500	3.698500	-11.096000	24.329375	0.000441	20.740301
825.230647	-3.003400	3.697600	-11.104000	24.338227	0.000443	20.728792
826.227066	-3.027500	3.698100	-11.194000	24.334697	0.000442	20.744218
827.228507	-2.971500	3.698800	-10.990000	24.356765	0.000441	20.729371
828.230520	-3.012900	3.697800	-11.140000	24.329651	0.000440	20.743898
829.230345	-3.002800	3.697500	-11.102000	24.336668	0.000441	20.738134
830.233141	-3.003900	3.696500	-11.103000	24.331149	0.000439	20.754409
831.232089	-3.012800	3.697500	-11.139000	24.338588	0.000442	20.709713
832.228726	-3.009600	3.695800	-11.122000	24.327048	0.000442	20.746028
833.232829	-3.001400	3.696900	-11.094000	24.355831	0.000439	20.768264
834.230448	-2.992800	3.695700	-11.060000	24.339042	0.000439	20.752844
835.228796	-2.983700	3.696300	-11.028000	24.343345	0.000439	20.739143
836.233528	-2.991500	3.696000	-11.056000	24.336427	0.000439	20.735048
837.230827	-3.001400	3.694400	-11.088000	24.329766	0.000440	20.746384
838.231126	-3.012300	3.694000	-11.127000	24.337974	0.000439	20.759359
839.234085	-2.994100	3.695200	-11.063000	24.345419	0.000437	20.730791
840.230348	-3.022800	3.693300	-11.163000	24.332786	0.000438	20.723333
841.234071	-3.027500	3.692600	-11.177000	24.343442	0.000438	20.740187
842.238142	-2.987000	3.693800	-11.033000	24.365369	0.000437	20.745589
843.235147	-2.959900	3.695100	-10.936000	24.348378	0.000440	20.744191
844.234263	-2.975200	3.693500	-10.988000	24.359728	0.000438	20.727127
845.239259	-2.992500	3.693700	-11.053000	24.375006	0.000438	20.767111
846.233798	-3.003200	3.693400	-11.091000	24.343939	0.000436	20.753963
847.234606	-3.003000	3.692200	-11.086000	24.360004	0.000439	20.726455
848.237095	-2.975800	3.693800	-10.991000	24.353441	0.000438	20.735046
849.235306	-3.016500	3.691200	-11.133000	24.360851	0.000438	20.738211
850.234391	-2.986400	3.692000	-11.025000	24.366774	0.000435	20.753637
851.245971	-2.997100	3.693100	-11.068000	24.367645	0.000435	20.726535
852.236072	-2.999300	3.691700	-11.072000	24.362471	0.000436	20.740785
853.236438	-2.999500	3.691900	-11.074000	24.354804	0.000435	20.734991
854.241181	-2.993900	3.691500	-11.051000	24.365430	0.000436	20.736166
855.236893	-3.003300	3.689600	-11.079000	24.375853	0.000436	20.748520
856.237168	-2.998500	3.690300	-11.064000	24.370924	0.000434	20.744523
857.240928	-2.992500	3.689700	-11.040000	24.382445	0.000437	20.755133
858.236796	-2.983100	3.690800	-11.009000	24.383961	0.000437	20.749542
859.236880	-3.003500	3.689300	-11.079000	24.385300	0.000436	20.742350
860.240179	-2.979300	3.690000	-10.993000	24.367388	0.000434	20.740502
861.237046	-2.994100	3.689500	-11.046000	24.396742	0.000435	20.757622
862.237219	-2.973100	3.688900	-10.966000	24.386343	0.000433	20.743397
863.242483	-2.984000	3.689500	-11.008000	24.399577	0.000435	20.764260
864.238298	-2.969100	3.689900	-10.955000	24.393236	0.000433	20.751260
865.238490	-3.017200	3.687100	-11.124000	24.392739	0.000433	20.756926
866.241032	-3.008500	3.686800	-11.091000	24.394826	0.000432	20.743372
867.238074	-3.006400	3.687400	-11.083000	24.413014	0.000431	20.750712
868.239313	-2.999000	3.688000	-11.060000	24.413210	0.000432	20.779360
869.241866	-3.005700	3.687900	-11.084000	24.410448	0.000432	20.747664
870.240794	-2.988200	3.687000	-11.017000	24.403236	0.000433	20.749912
871.243589	-3.019000	3.686000	-11.127000	24.418851	0.000433	20.753724
872.243166	-3.008600	3.685900	-11.089000	24.402960	0.000430	20.757222
873.241178	-3.012900	3.685600	-11.104000	24.431962	0.000431	20.746488
874.242045	-3.012800	3.686400	-11.106000	24.423430	0.000429	20.770172
875.243624	-2.978700	3.686200	-10.979000	24.405691	0.000431	20.747634
876.242846	-2.984900	3.685800	-11.001000	24.437284	0.000429	20.742818
877.242191	-2.991900	3.685300	-11.026000	24.406238	0.000430	20.753872
878.248914	-3.012400	3.685100	-11.100000	24.420220	0.000429	20.766477
879.243770	-3.009700	3.684900	-11.089000	24.429648	0.000430	20.769298
880.244138	-2.988100	3.685800	-11.012000	24.406036	0.000427	20.763627
881.248096	-2.989600	3.685200	-11.015000	24.422460	0.000429	20.772044
882.244431	-3.010500	3.684100	-11.089000	24.419625	0.000428	20.762561
883.242960	-3.000800	3.683600	-11.052000	24.436382	0.000429	20.753294
884.248797	-2.996400	3.684700	-11.040000	24.437806	0.000426	20.745238
885.246075	-3.024900	3.683100	-11.140000	24.447952	0.000430	20.770591
886.246059	-3.009400	3.683800	-11.085000	24.439770	0.000429	20.758115
887.248458	-3.000600	3.683200	-11.051000	24.440832	0.000426	20.762500
888.247917	-3.012900	3.683000	-11.095000	24.447903	0.000427	20.753946
889.252185	-3.004700	3.681700	-11.062000	24.426064	0.000427	20.748632
890.246426	-3.001500	3.681400	-11.047000	24.435320	0.000428	20.775462
891.247182	-3.016300	3.681300	-11.104000	24.445239	0.000426	20.762180
892.250538	-2.991900	3.682600	-11.018000	24.448504	0.000427	20.772093
893.246523	-3.010600	3.681100	-11.080000	24.436284	0.000426	20.766472
894.249000	-3.007400	3.681200	-11.068000	24.455287	0.000426	20.769890
895.250843	-2.998800	3.681200	-11.039000	24.442521	0.000425	20.760401
896.246902	-3.003100	3.680400	-11.052000	24.456453	0.000425	20.761577
897.251421	-3.008700	3.681700	-11.076000	24.457079	0.000424	20.749876
898.250165	-3.001700	3.680000	-11.046000	24.452858	0.000424	20.775039
899.249186	-3.018900	3.680300	-11.110000	24.473186	0.000425	20.772200
900.252924	-2.988100	3.679300	-10.993000	24.457934	0.000423	20.761165
901.252315	-2.958600	3.681000	-10.890000	24.470123	0.000425	20.766756
902.251215	-2.995700	3.679000	-11.020000	24.456123	0.000424	20.787798
903.254170	-3.022300	3.678600	-11.116000	24.465815	0.000425	20.763856
904.252141	-2.994100	3.678600	-11.012000	24.482031	0.000422	20.773488
905.253991	-3.018100	3.679600	-11.105000	24.487027	0.000423	20.785139
906.256856	-2.998700	3.679200	-11.032000	24.472156	0.000423	20.799142
907.255865	-2.994800	3.679100	-11.017000	24.485069	0.000424	20.777958
908.255330	-3.011500	3.678800	-11.077000	24.474568	0.000422	20.784018
909.258353	-2.988300	3.678100	-10.989000	24.492060	0.000422	20.782127
910.255801	-3.022300	3.677100	-11.112000	24.506232	0.000421	20.785440
911.256040	-3.015500	3.677200	-11.088000	24.495559	0.000422	20.776154
912.258163	-3.021000	3.677400	-11.109000	24.497351	0.000423	20.786961
913.255448	-3.008900	3.676300	-11.061000	24.493141	0.000421	20.790798
914.256981	-3.001500	3.676400	-11.034000	24.489710	0.000420	20.782614
915.258477	-2.995600	3.676500	-11.012000	24.518035	0.000422	20.799180
916.256989	-2.974800	3.676800	-10.937000	24.502342	0.000419	20.796710
917.258451	-2.988800	3.677900	-10.991000	24.498604	0.000421	20.792487
918.258583	-2.973400	3.676700	-10.931000	24.500888	0.000418	20.780553
919.257299	-3.000800	3.676300	-11.031000	24.503196	0.000418	20.781446
920.257107	-2.998800	3.674900	-11.018000	24.505406	0.000419	20.799311
921.260118	-3.015800	3.674400	-11.081000	24.492345	0.000420	20.781465
922.261605	-2.990700	3.675300	-10.991000	24.502712	0.000420	20.807039
923.258532	-2.997800	3.675200	-11.016000	24.503873	0.000420	20.798247
924.259769	-3.003700	3.674600	-11.037000	24.494919	0.000421	20.784995
925.258891	-3.001200	3.674000	-11.025000	24.513885	0.000420	20.796438
926.258955	-3.022000	3.672500	-11.097000	24.523459	0.000417	20.786130
927.259886	-3.025200	3.673100	-11.111000	24.518280	0.000418	20.806063
928.258158	-3.004700	3.673900	-11.038000	24.508946	0.000417	20.777257
929.258007	-2.996500	3.672700	-11.005000	24.520036	0.000419	20.790282
930.261100	-3.027500	3.671800	-11.115000	24.524609	0.000418	20.797240
931.262693	-2.981900	3.673000	-10.952000	24.517742	0.000417	20.824489
932.259727	-2.998700	3.671800	-11.010000	24.524855	0.000420	20.803177
933.264591	-3.023700	3.671000	-11.099000	24.546834	0.000418	20.806737
934.261107	-3.018300	3.671100	-11.080000	24.542373	0.000417	20.800839
935.261234	-3.011000	3.671300	-11.054000	24.534492	0.000416	20.820432
936.262873	-3.010200	3.670700	-11.048000	24.542343	0.000417	20.828783
937.261186	-3.023900	3.670300	-11.098000	24.549125	0.000416	20.824683
938.261614	-2.999900	3.670200	-11.010000	24.547388	0.000416	20.810138
939.265923	-3.023700	3.669800	-11.094000	24.540668	0.000415	20.803396
940.263530	-3.024000	3.670200	-11.098000	24.544615	0.000414	20.802615
941.262102	-3.005800	3.670300	-11.031000	24.553687	0.000416	20.825467
942.266753	-3.022600	3.669300	-11.089000	24.552442	0.000413	20.803354
943.262103	-3.021400	3.669700	-11.086000	24.555424	0.000414	20.818201
944.281965	-2.976900	3.670500	-10.925000	24.568247	0.000413	20.819212
945.266068	-2.993500	3.669300	-10.983000	24.566657	0.000414	20.803867
946.263644	-2.995400	3.669900	-10.991000	24.596619	0.000414	20.831085
947.263898	-2.986500	3.668800	-10.956000	24.570432	0.000414	20.813818
948.267956	-3.009500	3.668400	-11.039000	24.582590	0.000412	20.826017
949.264581	-2.981400	3.668400	-10.936000	24.586187	0.000414	20.808764
950.265139	-2.995900	3.667500	-10.986000	24.565444	0.000412	20.826831
951.267548	-2.994300	3.668000	-10.981000	24.582972	0.000413	20.825927
952.266093	-2.991300	3.668200	-10.972000	24.576479	0.000412	20.803291
953.265682	-3.009600	3.667300	-11.036000	24.570699	0.000413	20.814561
954.266466	-2.999500	3.667900	-11.001000	24.593358	0.000412	20.830183
955.265079	-2.998600	3.667800	-10.997000	24.594494	0.000411	20.834168
956.264970	-3.003300	3.667000	-11.012000	24.572161	0.000409	20.833571
957.268986	-2.997600	3.666400	-10.989000	24.592697	0.000410	20.817666
958.263753	-3.018300	3.665800	-11.063000	24.576261	0.000409	20.819667
959.267100	-3.008700	3.664300	-11.023000	24.583265	0.000410	20.816737
960.269810	-3.004700	3.664100	-11.008000	24.592986	0.000410	20.817957
961.270977	-2.991100	3.664300	-10.959000	24.595895	0.000410	20.830359
962.269483	-2.992700	3.665500	-10.969000	24.583579	0.000409	20.844078
963.273526	-3.002900	3.664400	-11.003000	24.593024	0.000409	20.824159
964.269064	-2.988200	3.665100	-10.950000	24.594737	0.000406	20.845317
965.270106	-3.009200	3.663400	-11.024000	24.585281	0.000407	20.817337
966.272775	-3.009000	3.664600	-11.026000	24.604434	0.000408	20.858365
967.268640	-3.004700	3.665000	-11.012000	24.603951	0.000407	20.830855
968.268931	-2.998400	3.663100	-10.983000	24.609572	0.000406	20.858779
969.269202	-2.995300	3.664700	-10.977000	24.604270	0.000406	20.826434
970.269152	-2.991400	3.664100	-10.960000	24.605786	0.000404	20.843602
971.268727	-2.975400	3.662800	-10.897000	24.626371	0.000406	20.846712
972.270242	-3.002600	3.661900	-10.994000	24.623456	0.000406	20.838098
973.268672	-3.000600	3.662700	-10.990000	24.613282	0.000406	20.857760
974.269765	-3.000300	3.660700	-10.982000	24.627507	0.000404	20.851646
975.272088	-3.017200	3.660800	-11.044000	24.636756	0.000404	20.852391
976.269030	-2.993500	3.662100	-10.961000	24.651975	0.000403	20.843481
977.269348	-2.996500	3.660900	-10.969000	24.636879	0.000404	20.843980
978.270062	-3.010000	3.660800	-11.019000	24.636026	0.000403	20.865409
979.269598	-3.015600	3.660100	-11.036000	24.619665	0.000402	20.841407
980.270121	-2.999400	3.661500	-10.982000	24.634928	0.000403	20.871893
981.272786	-3.005700	3.660400	-11.002000	24.654750	0.000402	20.831568
982.271415	-3.021000	3.660400	-11.057000	24.636991	0.000401	20.859265
983.272299	-3.003300	3.659700	-10.991000	24.633762	0.000401	20.860767
984.274298	-3.003100	3.659600	-10.988000	24.635972	0.000403	20.850656
985.274374	-3.015800	3.659600	-11.035000	24.645570	0.000402	20.858865
986.272485	-2.994700	3.658400	-10.955000	24.661415	0.000400	20.846789
987.275080	-3.018300	3.658700	-11.042000	24.637193	0.000401	20.855674
988.272141	-2.992800	3.658800	-10.949000	24.680310	0.000399	20.857215
989.272191	-3.005800	3.658000	-10.994000	24.648823	0.000401	20.871137
990.275253	-3.010200	3.659100	-11.014000	24.681954	0.000399	20.852227
991.272499	-2.994100	3.658200	-10.952000	24.696622	0.000398	20.855091
992.271312	-3.003300	3.657200	-10.984000	24.676978	0.000397	20.851975
993.274539	-3.020100	3.657400	-11.044000	24.672351	0.000398	20.873883
994.271725	-3.011100	3.656200	-11.007000	24.679764	0.000399	20.856193
995.272114	-3.003400	3.656800	-10.983000	24.670437	0.000399	20.861531
996.275895	-2.973200	3.657200	-10.873000	24.678046	0.000397	20.865848
997.275815	-3.015500	3.654400	-11.019000	24.691582	0.000397	20.857620
998.275547	-3.001800	3.655200	-10.972000	24.680316	0.000396	20.876185
999.278909	-3.002400	3.655700	-10.974000	24.667877	0.000397	20.891204
1000.278676	-2.987100	3.655800	-10.920000	24.678819	0.000398	20.885588
1001.275723	-3.003500	3.656400	-10.981000	24.701357	0.000395	20.860317
1002.284846	-3.000800	3.655700	-10.970000	24.701303	0.000396	20.877331
1003.276037	-3.013200	3.654800	-11.012000	24.677677	0.000395	20.873538
1004.277159	-2.994200	3.655400	-10.943000	24.711826	0.000395	20.865606
1005.274648	-3.020600	3.655100	-11.040000	24.704960	0.000395	20.853027
1006.275961	-2.994800	3.654700	-10.944000	24.678027	0.000396	20.896172
1007.276001	-3.007000	3.654100	-10.987000	24.688280	0.000392	20.853833
1008.282173	-3.014000	3.652800	-11.008000	24.693827	0.000393	20.859873
1009.277029	-2.998700	3.653800	-10.955000	24.684727	0.000395	20.873025
1010.278491	-3.002100	3.652800	-10.965000	24.670477	0.000393	20.874848
1011.279275	-2.982900	3.652900	-10.896000	24.712088	0.000393	20.859232
1012.279280	-2.984300	3.653300	-10.902000	24.689881	0.000394	20.869188
1013.281903	-2.986400	3.652100	-10.905000	24.703215	0.000393	20.888731
1014.280059	-2.988200	3.652400	-10.912000	24.695059	0.000394	20.857316
1015.280148	-2.987600	3.653100	-10.913000	24.685363	0.000391	20.876034
1016.281184	-2.997700	3.651900	-10.947000	24.683497	0.000393	20.881274
1017.283825	-3.010100	3.650800	-10.988000	24.714836	0.000391	20.873368
1018.284036	-3.019100	3.651100	-11.022000	24.712326	0.000390	20.877013
1019.283589	-2.994800	3.650100	-10.930000	24.696045	0.000390	20.884382
1020.288668	-3.003600	3.649500	-10.960000	24.700617	0.000390	20.872375
1021.282927	-3.003700	3.650300	-10.963000	24.709423	0.000391	20.880737
1022.281731	-2.984300	3.650400	-10.893000	24.711810	0.000390	20.875072
1023.285427	-3.018700	3.648700	-11.013000	24.709477	0.000391	20.886481
1024.284447	-2.984200	3.650300	-10.891000	24.698989	0.000392	20.893026
1025.284509	-3.007200	3.649800	-10.975000	24.724056	0.000389	20.899214
1026.284818	-3.031900	3.647500	-11.058000	24.699265	0.000389	20.870545
1027.283903	-2.996400	3.649500	-10.935000	24.724436	0.000387	20.901965
1028.284522	-2.992500	3.649300	-10.920000	24.726646	0.000387	20.888537
1029.285873	-2.995600	3.647800	-10.926000	24.717201	0.000389	20.893757
1030.285547	-3.014500	3.647800	-10.995000	24.751393	0.000387	20.883973
1031.284419	-2.990900	3.647700	-10.909000	24.758130	0.000388	20.885993
1032.286519	-3.014000	3.646600	-10.990000	24.717974	0.000387	20.886947
1033.284144	-3.016900	3.646800	-11.001000	24.731553	0.000385	20.892513
1034.287705	-3.028000	3.645200	-11.036000	24.725490	0.000387	20.883110
1035.289454	-3.032500	3.645500	-11.054000	24.740064	0.000386	20.897260
1036.286715	-3.001200	3.646200	-10.942000	24.749789	0.000385	20.886158
1037.288943	-3.004100	3.645000	-10.949000	24.743573	0.000385	20.896040
1038.289510	-2.995300	3.645800	-10.920000	24.748194	0.000383	20.880764
1039.289721	-2.978000	3.645600	-10.855000	24.750439	0.000385	20.883491
1040.289776	-2.988200	3.645800	-10.894000	24.736688	0.000384	20.869692
1041.293793	-3.013700	3.643900	-10.981000	24.756961	0.000384	20.864433
1042.291148	-2.972500	3.644600	-10.833000	24.760539	0.000382	20.879876
1043.292047	-3.001900	3.644800	-10.940000	24.767577	0.000385	20.875086
1044.296530	-3.005500	3.643700	-10.950000	24.772283	0.000382	20.870325
1045.293101	-3.002800	3.643000	-10.938000	24.763281	0.000380	20.877887
1046.295630	-2.975200	3.644100	-10.841000	24.746179	0.000381	20.861673
1047.296046	-2.992800	3.644900	-10.907000	24.754940	0.000382	20.854345
1048.296711	-2.994600	3.642800	-10.907000	24.763071	0.000380	20.884313
1049.298034	-3.014300	3.642400	-10.979000	24.766034	0.000382	20.874486
1050.297785	-3.003700	3.642500	-10.939000	24.769164	0.000381	20.859610
1051.294970	-2.988400	3.642100	-10.883000	24.757701	0.000381	20.857590
1052.294659	-3.001300	3.641400	-10.927000	24.766433	0.000382	20.872515
1053.297739	-3.001000	3.641500	-10.927000	24.766143	0.000380	20.854208
1054.295815	-3.000300	3.641500	-10.924000	24.758578	0.000380	20.866056
1055.295181	-3.006200	3.641800	-10.947000	24.791755	0.000380	20.861418
1056.295338	-3.014500	3.640500	-10.973000	24.772064	0.000380	20.842607
1057.294860	-3.000300	3.640400	-10.922000	24.750281	0.000379	20.830704
1058.297960	-3.003000	3.641200	-10.933000	24.779575	0.000381	20.843980
1059.295449	-2.974100	3.641500	-10.829000	24.771076	0.000380	20.845882
1060.293920	-3.000100	3.638100	-10.913000	24.789729	0.000380	20.847058
1061.298107	-2.992400	3.639100	-10.889000	24.797332	0.000379	20.870334
1062.294747	-2.987500	3.639500	-10.872000	24.790846	0.000380	20.856239
1063.294604	-3.009400	3.638400	-10.949000	24.781121	0.000379	20.873505
1064.298353	-3.006300	3.637700	-10.935000	24.788710	0.000377	20.846984
1065.296074	-2.987300	3.639700	-10.871000	24.785428	0.000377	20.863129
1066.294457	-2.986200	3.638900	-10.866000	24.795743	0.000378	20.846455
1067.300342	-2.984500	3.637600	-10.856000	24.792392	0.000376	20.836928
1068.297225	-2.977300	3.639100	-10.833000	24.815286	0.000376	20.838567
1069.298905	-2.978100	3.638800	-10.834000	24.796663	0.000374	20.831732
1070.296694	-3.001700	3.636900	-10.916000	24.805659	0.000375	20.855458
1071.296967	-2.986000	3.637700	-10.861000	24.808303	0.000377	20.835826
1072.300389	-2.983500	3.637400	-10.851000	24.798769	0.000374	20.838112
1073.297672	-2.994700	3.636600	-10.888000	24.785343	0.000375	20.843130
1074.297230	-2.992100	3.635500	-10.877000	24.812667	0.000374	20.838783
1075.298106	-3.004700	3.635100	-10.921000	24.809605	0.000374	20.830970
1076.300982	-3.010900	3.635500	-10.945000	24.820969	0.000373	20.857072
1077.298209	-2.995700	3.635100	-10.889000	24.797168	0.000374	20.840773
1078.299691	-3.017200	3.635800	-10.970000	24.811785	0.000373	20.819407
1079.301115	-3.001400	3.634500	-10.907000	24.806434	0.000373	20.825417
1080.303758	-3.001400	3.635700	-10.912000	24.813276	0.000373	20.839395
1081.298345	-2.992500	3.634500	-10.876000	24.796991	0.000372	20.829216
1082.302517	-3.007500	3.634300	-10.929000	24.803034	0.000371	20.834807
1083.305152	-3.000700	3.633600	-10.902000	24.815067	0.000372	20.828391
1084.300102	-3.008400	3.633700	-10.931000	24.825437	0.000371	20.831685
1085.306467	-3.004100	3.633200	-10.913000	24.823216	0.000371	20.853638
1086.300487	-2.992900	3.632200	-10.869000	24.831469	0.000372	20.840584
1087.307139	-3.004400	3.631800	-10.910000	24.828807	0.000372	20.843601
1088.305937	-3.003700	3.631300	-10.906000	24.811552	0.000368	20.833872
1089.302047	-2.997700	3.632300	-10.888000	24.824604	0.000369	20.803823
1090.307555	-3.008200	3.631200	-10.922000	24.822610	0.000369	20.828848
1091.303464	-3.016200	3.630800	-10.950000	24.839353	0.000367	20.844229
1092.309485	-2.980500	3.631200	-10.822000	24.843993	0.000366	20.842248
1093.303564	-3.013000	3.631000	-10.939000	24.839023	0.000369	20.823510
1094.303994	-3.002800	3.631400	-10.904000	24.821911	0.000367	20.817716
1095.307310	-2.998000	3.631600	-10.886000	24.840981	0.000368	20.845863
1096.311841	-2.981700	3.631200	-10.826000	24.833889	0.000370	20.801288
1097.307504	-2.988600	3.629500	-10.846000	24.857437	0.000366	20.827292
1098.307940	-2.994500	3.630500	-10.870000	24.833225	0.000365	20.819588
1099.304255	-3.004100	3.628500	-10.900000	24.841951	0.000366	20.820284
1100.305416	-2.975300	3.630800	-10.802000	24.842590	0.000366	20.818080
1101.306458	-2.992300	3.629400	-10.859000	24.834607	0.000364	20.802957
1102.307828	-2.999000	3.628200	-10.880000	24.842988	0.000365	20.814687
1103.306402	-2.992200	3.629100	-10.858000	24.850848	0.000362	20.821627
1104.307690	-2.982400	3.628000	-10.819000	24.861512	0.000364	20.832803
1105.310071	-2.988500	3.627600	-10.839000	24.848131	0.000362	20.830279
1106.309628	-2.970800	3.628100	-10.777000	24.866182	0.000362	20.828007
1107.309654	-3.010800	3.626900	-10.919000	24.849499	0.000362	20.819324
1108.312051	-3.010700	3.626900	-10.918000	24.842885	0.000362	20.823592
1109.311151	-2.991900	3.626900	-10.851000	24.827441	0.000361	20.814257
1110.311596	-2.972300	3.627400	-10.781000	24.837387	0.000361	20.819971
1111.311136	-2.990100	3.627400	-10.845000	24.862451	0.000363	20.832798
1112.315470	-3.005900	3.625400	-10.897000	24.832357	0.000362	20.837208
1113.311298	-2.993400	3.625500	-10.852000	24.844272	0.000362	20.808389
1114.312294	-2.991600	3.625500	-10.844000	24.860365	0.000359	20.812212
1115.314385	-3.011700	3.625000	-10.916000	24.856757	0.000359	20.810962
1116.311927	-3.000100	3.623800	-10.870000	24.853052	0.000358	20.819097
1117.312087	-3.004700	3.624600	-10.890000	24.853824	0.000359	20.820821
1118.314654	-3.000500	3.624700	-10.875000	24.888686	0.000357	20.831153
1119.313232	-3.011200	3.624300	-10.913000	24.875311	0.000357	20.825790
1120.315497	-3.007600	3.624800	-10.901000	24.853180	0.000358	20.824441
1121.313861	-3.025300	3.622100	-10.957000	24.861566	0.000358	20.811996
1122.318875	-3.008200	3.623000	-10.898000	24.886133	0.000356	20.824798
1123.315759	-3.006800	3.622200	-10.890000	24.878249	0.000354	20.820204
1124.316474	-3.009200	3.622100	-10.898000	24.877181	0.000355	20.811072
1125.318678	-2.998600	3.621900	-10.860000	24.858240	0.000355	20.802968
1126.316905	-2.989400	3.622000	-10.826000	24.879899	0.000356	20.803368
1127.315827	-2.985700	3.621000	-10.810000	24.880218	0.000353	20.786619
1128.321594	-2.977400	3.622200	-10.784000	24.875922	0.000355	20.805541
1129.317739	-3.010400	3.620800	-10.899000	24.859068	0.000355	20.809488
1130.317793	-2.990900	3.621400	-10.831000	24.882892	0.000354	20.801630
1131.322886	-3.014200	3.619300	-10.907000	24.889131	0.000353	20.800781
1132.317550	-2.993600	3.620700	-10.838000	24.891818	0.000354	20.805374
1133.318433	-2.965600	3.620100	-10.735000	24.889590	0.000352	20.803138
1134.320374	-3.002400	3.618800	-10.864000	24.884093	0.000353	20.776283
1135.319192	-3.023900	3.619100	-10.942000	24.856127	0.000352	20.813174
1136.320337	-3.021300	3.618000	-10.930000	24.878301	0.000352	20.810773
1137.322076	-3.000600	3.619100	-10.859000	24.883577	0.000350	20.808956
1138.318823	-3.005300	3.617600	-10.871000	24.887761	0.000352	20.815526
1139.322058	-3.017300	3.616500	-10.912000	24.902406	0.000351	20.800827
1140.322058	-3.008900	3.617400	-10.884000	24.892963	0.000351	20.794195
1141.320268	-3.017400	3.617300	-10.913000	24.891791	0.000349	20.801554
1142.321436	-2.978100	3.617000	-10.771000	24.886772	0.000349	20.799361
1143.324117	-3.007500	3.616700	-10.877000	24.901393	0.000350	20.803604
1144.321888	-2.974100	3.617000	-10.757000	24.901122	0.000348	20.806177
1145.322683	-3.004300	3.615400	-10.861000	24.884293	0.000348	20.785967
1146.322316	-3.011200	3.615500	-10.886000	24.891404	0.000346	20.777457
1147.322535	-3.006800	3.615200	-10.869000	24.907944	0.000347	20.788842
1148.325121	-2.997200	3.614000	-10.830000	24.900085	0.000346	20.785695
1149.321757	-2.986200	3.615500	-10.794000	24.907865	0.000346	20.790659
1150.323304	-2.998000	3.614300	-10.835000	24.903004	0.000347	20.796686
1151.321673	-2.994600	3.614600	-10.823000	24.884107	0.000346	20.790522
1152.323202	-2.999900	3.614800	-10.842000	24.884850	0.000345	20.777043
1153.320411	-3.018800	3.612900	-10.906000	24.924391	0.000346	20.774055
1154.321853	-2.975800	3.614200	-10.754000	24.900967	0.000343	20.786107
1155.324359	-2.971200	3.614000	-10.736000	24.900372	0.000344	20.776026
1156.323144	-2.986700	3.612700	-10.789000	24.882971	0.000342	20.792701
1157.325048	-3.001400	3.612700	-10.842000	24.915893	0.000341	20.788760
1158.322018	-2.993500	3.611300	-10.810000	24.908640	0.000342	20.780532
1159.321904	-2.981100	3.612000	-10.767000	24.915347	0.000342	20.776358
1160.322782	-3.006000	3.610900	-10.853000	24.926065	0.000342	20.770046
1161.321219	-3.006400	3.611100	-10.855000	24.889774	0.000341	20.781985
1162.322765	-2.988200	3.610500	-10.786000	24.931401	0.000340	20.781565
1163.323521	-2.998100	3.611200	-10.826000	24.901663	0.000340	20.765943
1164.322545	-3.005300	3.610100	-10.848000	24.927100	0.000338	20.777249
1165.323111	-3.002100	3.610500	-10.839000	24.911063	0.000340	20.777748
1166.324362	-2.992600	3.609200	-10.800000	24.916082	0.000338	20.790846
1167.325256	-2.985200	3.610000	-10.775000	24.899135	0.000339	20.779526
1168.323767	-2.999600	3.609100	-10.824000	24.925099	0.000339	20.795154
1169.323246	-2.985200	3.609100	-10.774000	24.919307	0.000337	20.774642
1170.326861	-3.000200	3.607300	-10.821000	24.933902	0.000336	20.775541
1171.325280	-2.983500	3.609000	-10.767000	24.920104	0.000338	20.763589
1172.324485	-3.007400	3.607500	-10.849000	24.915036	0.000336	20.771778
1173.329518	-3.001500	3.607400	-10.826000	24.920140	0.000336	20.774056
1174.329330	-2.994600	3.607900	-10.804000	24.905096	0.000336	20.782665
1175.323669	-2.995600	3.607200	-10.805000	24.909851	0.000334	20.757090
1176.324447	-2.981400	3.606800	-10.752000	24.920943	0.000335	20.770594
1177.325865	-3.003900	3.606200	-10.831000	24.915299	0.000335	20.771567
1178.323877	-2.996700	3.606400	-10.805000	24.935519	0.000335	20.758198
1179.335647	-3.000000	3.605400	-10.815000	24.906574	0.000334	20.772768
1180.324970	-3.005600	3.605000	-10.834000	24.909316	0.000336	20.760347
1181.325858	-2.985400	3.605400	-10.762000	24.941052	0.000334	20.774657
1182.328336	-3.000400	3.604900	-10.815000	24.936948	0.000335	20.767218
1183.327156	-3.018500	3.604600	-10.880000	24.931678	0.000334	20.756712
1184.327264	-3.013200	3.603900	-10.859000	24.943794	0.000332	20.774564
1185.328647	-2.995700	3.603700	-10.794000	24.940271	0.000333	20.762493
1186.324938	-3.007300	3.603500	-10.835000	24.939572	0.000331	20.785500
1187.325298	-3.011100	3.602100	-10.845000	24.921258	0.000332	20.764746
1188.328993	-2.987100	3.602700	-10.760000	24.943191	0.000330	20.766372
1189.326319	-3.015000	3.601800	-10.859000	24.918066	0.000330	20.744473
1190.328156	-2.986000	3.603200	-10.757000	24.943472	0.000328	20.772818
1191.330335	-3.025300	3.601800	-10.896000	24.951287	0.000329	20.741307
1192.328587	-3.008900	3.602900	-10.839000	24.918416	0.000330	20.750513
1193.335499	-2.981500	3.601500	-10.737000	24.956569	0.000330	20.760359
1194.330935	-2.980400	3.601600	-10.733000	24.944961	0.000330	20.731637
1195.336946	-2.998700	3.601600	-10.799000	24.946703	0.000328	20.768001
1196.337615	-2.978100	3.600200	-10.720000	24.930592	0.000327	20.764158
1197.332832	-2.987700	3.600600	-10.757000	24.941512	0.000326	20.745720
1198.334221	-2.968900	3.601700	-10.692000	24.938462	0.000327	20.771583
1199.333086	-2.987200	3.600700	-10.755000	24.943782	0.000325	20.748947
1200.338710	-2.986100	3.600600	-10.751000	24.956646	0.000325	20.757117
1201.337223	-3.025700	3.598300	-10.886000	24.935989	0.000324	20.761040
1202.335555	-3.010100	3.598000	-10.829000	24.947597	0.000323	20.757518
1203.338326	-2.989400	3.599100	-10.757000	24.963467	0.000323	20.750688
1204.335105	-2.991400	3.598900	-10.765000	24.958099	0.000324	20.736290
1205.337922	-3.001000	3.598200	-10.797000	24.944209	0.000324	20.760281
1206.345498	-2.993300	3.599000	-10.772000	24.955104	0.000324	20.752725
1207.338480	-2.996600	3.596700	-10.777000	24.932330	0.000322	20.748358
1208.337515	-2.982800	3.597700	-10.730000	24.936858	0.000322	20.758119
1209.337486	-3.006200	3.597400	-10.813000	24.927465	0.000322	20.758648
1210.335764	-3.013700	3.595500	-10.835000	24.922446	0.000322	20.734643
1211.335817	-3.012700	3.596700	-10.835000	24.941796	0.000321	20.753117
1212.343766	-2.999300	3.596200	-10.785000	24.948636	0.000320	20.762828
1213.337645	-2.996500	3.595400	-10.773000	24.961986	0.000321	20.753468
1214.338576	-2.984000	3.596700	-10.731000	24.965771	0.000319	20.723126
1215.339298	-3.005600	3.595200	-10.805000	24.947310	0.000318	20.724985
1216.339481	-3.001100	3.595000	-10.788000	24.938009	0.000319	20.739359
1217.338990	-3.001800	3.594300	-10.788000	24.948782	0.000319	20.733101
1218.339852	-3.012000	3.593100	-10.822000	24.950756	0.000318	20.745990
1219.339536	-3.012700	3.594800	-10.828000	24.951652	0.000318	20.728396
1220.341111	-3.003500	3.592500	-10.789000	24.949768	0.000315	20.729824
1221.348710	-2.998100	3.592300	-10.769000	24.962203	0.000318	20.734245
1222.342537	-3.021600	3.591900	-10.852000	24.937491	0.000315	20.724614
1223.340340	-3.014400	3.592300	-10.828000	24.957417	0.000314	20.713319
1224.341949	-3.030600	3.591400	-10.883000	24.953319	0.000313	20.740501
1225.341067	-2.990900	3.592400	-10.743000	24.935870	0.000315	20.725832
1226.345314	-3.029600	3.591600	-10.880000	24.938453	0.000315	20.744072
1227.343819	-2.995700	3.591400	-10.758000	24.928790	0.000314	20.732002
1228.345337	-2.983100	3.591600	-10.713000	24.957765	0.000313	20.715091
1229.346460	-2.989200	3.590400	-10.731000	24.943421	0.000314	20.714918
1230.345384	-2.985800	3.590600	-10.719000	24.932906	0.000315	20.730443
1231.345497	-3.004000	3.590400	-10.785000	24.950967	0.000314	20.722492
1232.353509	-3.008500	3.589300	-10.797000	24.949978	0.000313	20.738096
1233.347193	-3.010500	3.589200	-10.803000	24.963752	0.000313	20.726316
1234.351507	-3.012300	3.589000	-10.810000	24.955407	0.000312	20.718414
1235.346850	-2.958200	3.589300	-10.617000	24.937180	0.000310	20.740424
1236.347632	-3.000700	3.588600	-10.768000	24.975707	0.000310	20.715082
1237.349394	-2.973800	3.588600	-10.670000	24.946989	0.000311	20.713758
1238.348764	-3.017700	3.588100	-10.827000	24.973155	0.000310	20.720581
1239.348784	-2.993700	3.588600	-10.741000	24.945805	0.000309	20.723949
1240.350992	-2.986600	3.587200	-10.713000	24.965971	0.000309	20.728543
1241.351330	-3.009600	3.588200	-10.798000	24.980301	0.000308	20.716374
1242.351682	-3.011700	3.587000	-10.802000	24.942939	0.000309	20.721072
1243.351729	-2.981800	3.587600	-10.697000	24.941969	0.000308	20.721522
1244.350914	-3.022800	3.586000	-10.839000	24.968847	0.000305	20.702505
1245.354636	-3.007100	3.585700	-10.782000	24.937926	0.000306	20.730740
1246.355506	-3.005300	3.585700	-10.776000	24.967963	0.000308	20.712050
1247.356682	-3.018800	3.584800	-10.821000	24.971196	0.000306	20.728572
1248.354941	-3.013100	3.584500	-10.800000	24.961999	0.000306	20.704641
1249.355063	-3.012600	3.584600	-10.798000	24.953674	0.000308	20.716200
1250.357343	-3.010100	3.583900	-10.786000	24.980680	0.000304	20.711064
1251.357125	-2.983700	3.584800	-10.695000	24.980434	0.000306	20.715085
1252.356740	-3.024200	3.584000	-10.838000	24.983348	0.000303	20.706629
1253.359311	-2.974900	3.584400	-10.662000	24.989691	0.000304	20.709677
1254.358389	-3.013700	3.583000	-10.796000	24.983826	0.000303	20.711377
1255.358485	-3.011600	3.582900	-10.789000	24.974881	0.000303	20.703346
1256.361559	-2.995000	3.581700	-10.727000	24.980059	0.000300	20.711863
1257.360697	-3.026500	3.581700	-10.839000	24.993463	0.000302	20.717257
1258.358944	-2.994200	3.581900	-10.724000	24.992696	0.000301	20.707478
1259.360097	-3.001500	3.580900	-10.748000	24.968181	0.000301	20.725072
1260.360934	-2.991000	3.581300	-10.710000	24.981990	0.000299	20.686299
1261.359638	-3.004100	3.581200	-10.757000	25.001904	0.000301	20.697279
1262.361981	-2.995800	3.580100	-10.724000	24.989579	0.000301	20.715729
1263.363712	-3.015300	3.579300	-10.792000	24.998781	0.000300	20.713112
1264.361811	-2.992100	3.580900	-10.713000	25.000076	0.000298	20.711566
1265.366128	-2.997600	3.580800	-10.733000	24.978327	0.000297	20.701589
1266.363078	-3.012900	3.579500	-10.784000	24.997449	0.000298	20.707981
1267.366027	-3.015600	3.578600	-10.791000	24.984278	0.000300	20.709459
1268.362073	-3.007200	3.578900	-10.761000	24.996756	0.000296	20.712976
1269.362922	-2.989400	3.580400	-10.702000	24.987437	0.000296	20.687498
1270.362264	-3.001800	3.577700	-10.738000	24.998302	0.000297	20.695560
1271.362714	-2.979600	3.579300	-10.664000	24.985676	0.000297	20.686679
1272.365435	-3.025700	3.576700	-10.821000	24.995970	0.000296	20.706497
1273.362592	-2.977900	3.576900	-10.651000	25.008228	0.000294	20.709791
1274.363086	-2.993800	3.577300	-10.709000	24.996841	0.000295	20.699784
1275.362952	-2.971800	3.577300	-10.630000	24.993191	0.000295	20.694697
1276.363327	-2.984100	3.576100	-10.670000	24.979271	0.000295	20.692104
1277.365409	-2.992200	3.576500	-10.700000	24.987946	0.000295	20.703183
1278.364326	-3.002700	3.575800	-10.736000	25.007767	0.000293	20.718338
1279.367423	-2.997500	3.574600	-10.714000	24.986363	0.000294	20.696378
1280.364466	-3.010500	3.574700	-10.760000	24.992976	0.000294	20.699697
1281.364966	-3.001200	3.575100	-10.728000	25.004141	0.000290	20.709957
1282.369412	-3.009300	3.574400	-10.755000	25.011325	0.000292	20.708159
1283.367454	-3.001800	3.574900	-10.730000	25.004638	0.000291	20.686746
1284.371149	-3.018000	3.573000	-10.781000	25.011055	0.000291	20.687023
1285.372202	-3.003300	3.573600	-10.732000	24.995136	0.000289	20.713720
1286.367261	-2.988600	3.573000	-10.677000	24.995338	0.000290	20.692110
1287.370012	-2.996600	3.573900	-10.708000	24.978436	0.000290	20.692215
1288.372330	-3.009500	3.572600	-10.749000	24.998503	0.000287	20.710462
1289.370315	-3.007800	3.572700	-10.744000	25.002705	0.000288	20.704722
1290.370479	-2.979900	3.573600	-10.648000	25.005018	0.000289	20.702302
1291.373234	-3.012500	3.571200	-10.757000	24.993982	0.000288	20.695965
1292.370594	-2.994700	3.571300	-10.693000	25.005417	0.000286	20.708867
1293.373925	-3.004600	3.569800	-10.724000	25.009515	0.000285	20.701600
1294.370725	-2.979300	3.570500	-10.637000	25.005840	0.000286	20.693169
1295.372160	-2.990400	3.569600	-10.674000	25.003951	0.000285	20.718775
1296.371809	-3.005200	3.569500	-10.727000	25.004926	0.000284	20.703632
1297.372523	-3.005700	3.569300	-10.727000	24.984442	0.000284	20.708201
1298.377408	-3.011600	3.569700	-10.750000	25.008956	0.000285	20.720006
1299.373867	-2.999900	3.569400	-10.707000	24.996601	0.000285	20.719458
1300.375774	-2.985700	3.569800	-10.657000	25.010925	0.000284	20.691161
1301.376147	-2.994600	3.568200	-10.685000	25.008441	0.000283	20.714273
1302.377857	-3.008800	3.568800	-10.737000	25.004410	0.000284	20.712598
1303.374698	-2.996100	3.567800	-10.687000	24.980128	0.000282	20.727581
1304.374515	-2.991000	3.567800	-10.670000	25.028016	0.000282	20.702627
1305.378181	-3.015800	3.566800	-10.756000	25.014790	0.000282	20.699782
1306.376918	-3.023200	3.565900	-10.780000	25.006888	0.000281	20.713189
1307.377505	-2.994300	3.567200	-10.680000	24.998882	0.000280	20.715584
1308.379435	-2.998600	3.567000	-10.695000	25.039064	0.000281	20.701863
1309.376287	-2.985500	3.566600	-10.646000	25.025267	0.000281	20.699868
1310.376990	-2.995500	3.566800	-10.683000	25.034371	0.000280	20.715645
1311.380944	-3.019400	3.565100	-10.764000	25.030899	0.000279	20.705995
1312.381854	-3.009900	3.564900	-10.729000	25.017132	0.000280	20.710195
1313.376808	-3.011500	3.563500	-10.731000	25.026997	0.000280	20.697810
1314.379350	-2.987800	3.566100	-10.654000	25.038959	0.000277	20.695593
1315.376953	-3.010500	3.562700	-10.724000	25.047885	0.000278	20.721624
1316.380644	-3.003500	3.563800	-10.703000	25.038389	0.000279	20.730585
1317.377288	-3.014600	3.562700	-10.739000	25.031309	0.000276	20.706881
1318.377118	-2.976200	3.564500	-10.607000	25.037646	0.000277	20.714191
1319.377130	-3.003000	3.562800	-10.698000	25.043173	0.000277	20.723533
1320.376964	-2.987200	3.562900	-10.642000	25.047946	0.000276	20.715521
1321.377471	-3.009800	3.561900	-10.720000	25.022242	0.000277	20.696356
1322.380340	-3.008900	3.562600	-10.717000	25.023684	0.000277	20.711081
1323.377555	-3.007800	3.560900	-10.709000	25.043872	0.000276	20.720916
1324.379179	-2.996300	3.561800	-10.672000	25.042032	0.000276	20.714326
1325.378785	-3.007000	3.559500	-10.702000	25.048455	0.000275	20.724567
1326.378519	-3.013600	3.559600	-10.726000	25.041762	0.000276	20.716900
1327.380776	-3.022900	3.558100	-10.755000	25.052749	0.000273	20.725559
1328.379717	-3.004200	3.560500	-10.695000	25.044007	0.000275	20.713464
1329.379115	-3.010100	3.559800	-10.714000	25.059294	0.000275	20.718852
1330.381848	-3.020500	3.559100	-10.750000	25.042038	0.000273	20.696313
1331.379077	-2.987500	3.559700	-10.634000	25.027395	0.000273	20.715281
1332.379211	-3.014300	3.558800	-10.726000	25.047283	0.000273	20.712011
1333.378513	-2.980700	3.557800	-10.604000	25.067177	0.000272	20.731033
1334.382790	-2.971200	3.559300	-10.574000	25.046050	0.000271	20.724998
1335.379246	-2.996900	3.557600	-10.660000	25.040357	0.000271	20.715016
1336.380446	-2.990300	3.558000	-10.639000	25.041995	0.000272	20.716186
1337.382033	-2.977000	3.558100	-10.592000	25.036529	0.000272	20.716389
1338.382532	-2.998700	3.556300	-10.663000	25.067361	0.000270	20.716044
1339.379775	-2.999500	3.556200	-10.666000	25.068704	0.000269	20.714547
1340.381783	-3.002200	3.556700	-10.677000	25.065005	0.000269	20.722214
1341.383750	-3.008300	3.555000	-10.692000	25.044442	0.000269	20.737610
1342.381876	-2.974400	3.555700	-10.574000	25.064434	0.000268	20.730177
1343.381867	-3.012800	3.555000	-10.710000	25.061275	0.000268	20.739334
1344.385874	-2.959100	3.555900	-10.522000	25.070004	0.000269	20.712534
1345.381848	-2.962700	3.555200	-10.532000	25.073930	0.000269	20.719794
1346.388240	-3.004100	3.553700	-10.674000	25.068140	0.000267	20.718248
1347.382340	-3.005400	3.553600	-10.678000	25.066747	0.000267	20.738663
1348.389719	-2.986100	3.554500	-10.613000	25.057950	0.000266	20.712761
1349.383786	-2.994800	3.553500	-10.642000	25.071274	0.000266	20.718550
1350.383914	-3.001800	3.552600	-10.664000	25.065857	0.000264	20.712164
1351.388739	-3.019700	3.552400	-10.726000	25.067146	0.000264	20.733847
1352.384642	-3.013500	3.551500	-10.701000	25.062502	0.000264	20.716382
1353.384742	-2.990700	3.552200	-10.623000	25.049847	0.000264	20.748725
1354.386512	-2.998500	3.552200	-10.650000	25.065066	0.000263	20.714689
1355.384349	-3.001000	3.551600	-10.656000	25.076789	0.000263	20.745425
1356.384604	-3.006700	3.550700	-10.675000	25.057300	0.000262	20.735344
1357.385497	-3.009400	3.549800	-10.682000	25.085647	0.000261	20.719702
1358.383936	-3.019700	3.549500	-10.718000	25.075304	0.000262	20.746305
1359.386594	-2.985200	3.551900	-10.601000	25.073986	0.000262	20.730756
1360.385854	-3.000700	3.550300	-10.652000	25.059766	0.000260	20.729284
1361.388418	-2.987300	3.549700	-10.604000	25.081169	0.000260	20.726112
1362.387810	-2.993200	3.549100	-10.622000	25.058846	0.000260	20.737844
1363.387733	-3.013400	3.549200	-10.694000	25.071501	0.000259	20.719726
1364.390101	-2.984300	3.550300	-10.595000	25.067115	0.000258	20.723859
1365.389599	-3.003300	3.548300	-10.654000	25.059367	0.000257	20.760653
1366.388331	-2.989100	3.548000	-10.603000	25.085892	0.000259	20.720896
1367.394158	-2.979800	3.548100	-10.571000	25.053398	0.000257	20.730953
1368.390426	-2.997300	3.547600	-10.633000	25.078979	0.000256	20.726759
1369.389866	-3.004900	3.547100	-10.658000	25.090487	0.000256	20.726457
1370.398298	-3.015100	3.545900	-10.691000	25.078335	0.000256	20.710464
1371.390714	-3.010500	3.546400	-10.676000	25.063214	0.000254	20.743177
1372.390227	-2.995500	3.546800	-10.624000	25.080396	0.000257	20.762322
1373.395308	-3.027600	3.544600	-10.730000	25.076120	0.000256	20.756133
1374.391859	-2.999000	3.545700	-10.632000	25.105160	0.000254	20.750197
1375.391813	-2.997400	3.544900	-10.625000	25.113662	0.000253	20.733127
1376.393465	-2.990200	3.545400	-10.599000	25.084224	0.000253	20.753362
1377.393205	-2.989700	3.545300	-10.597000	25.079224	0.000252	20.741231
1378.393737	-3.009100	3.543000	-10.659000	25.096928	0.000251	20.754735
1379.392910	-2.990900	3.544300	-10.599000	25.095861	0.000252	20.738490
1380.394402	-3.014300	3.543900	-10.681000	25.106227	0.000252	20.758855
1381.399072	-3.006600	3.543700	-10.653000	25.107411	0.000250	20.742500
1382.395684	-3.011000	3.542600	-10.666000	25.101203	0.000252	20.763295
1383.394864	-2.999200	3.542600	-10.624000	25.109926	0.000251	20.725583
1384.395131	-2.991100	3.542900	-10.596000	25.108712	0.000247	20.742857
1385.396135	-3.021700	3.542000	-10.702000	25.105424	0.000250	20.769903
1386.394942	-2.996100	3.541800	-10.611000	25.107037	0.000250	20.749711
1387.394920	-2.998800	3.541100	-10.618000	25.080243	0.000250	20.747943
1388.396511	-2.993300	3.541300	-10.599000	25.087396	0.000248	20.772194
1389.400995	-3.001200	3.540800	-10.626000	25.121428	0.000250	20.748510
1390.396987	-3.005400	3.540000	-10.638000	25.103130	0.000249	20.764755
1391.396164	-3.006800	3.540000	-10.643000	25.125053	0.000249	20.757365
1392.398646	-2.988800	3.540300	-10.581000	25.103921	0.000248	20.767920
1393.397418	-3.008200	3.539000	-10.644000	25.090592	0.000248	20.767816
1394.396694	-3.001300	3.539500	-10.622000	25.073858	0.000247	20.752439
1395.401646	-3.010900	3.539100	-10.655000	25.114847	0.000248	20.788371
1396.397708	-2.999200	3.540000	-10.616000	25.097021	0.000246	20.773321
1397.397404	-3.012300	3.537800	-10.656000	25.114620	0.000245	20.750684
1398.402264	-2.995600	3.538600	-10.598000	25.139598	0.000243	20.757268
1399.400374	-2.974300	3.539300	-10.526000	25.127287	0.000245	20.770514
1400.401731	-2.988800	3.538300	-10.575000	25.120718	0.000246	20.744952
1401.402430	-2.998500	3.538900	-10.609000	25.126901	0.000245	20.771549
1402.400990	-2.992600	3.538200	-10.587000	25.126472	0.000244	20.781075
1403.400415	-3.020300	3.534900	-10.675000	25.115633	0.000243	20.792954
1404.403086	-3.007100	3.537300	-10.636000	25.136612	0.000244	20.779875
1405.400125	-2.991200	3.535400	-10.574000	25.133643	0.000241	20.768360
1406.400923	-3.026800	3.534100	-10.696000	25.125307	0.000242	20.767104
1407.402350	-2.979500	3.536000	-10.534000	25.151309	0.000242	20.790836
1408.401346	-2.983900	3.535100	-10.547000	25.152076	0.000240	20.765527
1409.401905	-3.001900	3.534700	-10.610000	25.141379	0.000241	20.779445
1410.400306	-3.028300	3.533600	-10.699000	25.126977	0.000242	20.764986
1411.404263	-2.998400	3.535100	-10.598000	25.120579	0.000239	20.788436
1412.401406	-2.988300	3.534000	-10.560000	25.128603	0.000240	20.779895
1413.401563	-3.012800	3.533700	-10.646000	25.149508	0.000240	20.780967
1414.404234	-2.983000	3.533200	-10.538000	25.136197	0.000239	20.773769
1415.403503	-3.007700	3.532300	-10.622000	25.146460	0.000240	20.783597
1416.403939	-3.029200	3.532600	-10.699000	25.115772	0.000237	20.785981
1417.406464	-3.006800	3.531900	-10.618000	25.144681	0.000237	20.807890
1418.403842	-3.006600	3.532100	-10.619000	25.151411	0.000237	20.772446
1419.404913	-3.016800	3.532100	-10.655000	25.153540	0.000235	20.788334
1420.407025	-3.005400	3.530500	-10.609000	25.139487	0.000237	20.805046
1421.405070	-3.003400	3.531200	-10.605000	25.141199	0.000237	20.790169
1422.405005	-2.986900	3.531600	-10.547000	25.155761	0.000238	20.780132
1423.404879	-3.000500	3.531100	-10.594000	25.171114	0.000234	20.799339
1424.405262	-2.992100	3.530400	-10.563000	25.172777	0.000236	20.794844
1425.406704	-3.008900	3.528700	-10.617000	25.148028	0.000234	20.794654
1426.405777	-3.017400	3.529800	-10.650000	25.159609	0.000237	20.794900
1427.405757	-2.984800	3.529100	-10.532000	25.172533	0.000231	20.797444
1428.411109	-2.982300	3.528800	-10.523000	25.142520	0.000233	20.809514
1429.405454	-2.983200	3.528200	-10.525000	25.169982	0.000233	20.815746
1430.409703	-2.987600	3.527700	-10.538000	25.158837	0.000235	20.823523
1431.415438	-2.983300	3.527500	-10.523000	25.173001	0.000234	20.818302
1432.405824	-2.968100	3.529000	-10.473000	25.158673	0.000233	20.824780
1433.409678	-2.990100	3.526400	-10.543000	25.161801	0.000233	20.809429
1434.405708	-3.007900	3.525900	-10.604000	25.188722	0.000231	20.817964
1435.405112	-3.015600	3.526200	-10.632000	25.190575	0.000231	20.815557
1436.407497	-2.996200	3.525900	-10.563000	25.176027	0.000229	20.810909
1437.407113	-2.985300	3.526200	-10.526000	25.193226	0.000230	20.796407
1438.406218	-3.003600	3.525300	-10.588000	25.175377	0.000229	20.812627
1439.408294	-2.984300	3.525900	-10.521000	25.185063	0.000228	20.807178
1440.408327	-2.985700	3.525400	-10.525000	25.177132	0.000228	20.805854
1441.407562	-2.981800	3.524100	-10.508000	25.179089	0.000227	20.834845
1442.410177	-2.992900	3.524000	-10.546000	25.190620	0.000228	20.813232
1443.409122	-2.999100	3.523300	-10.566000	25.195515	0.000228	20.830947
1444.409409	-2.999800	3.523200	-10.568000	25.199288	0.000227	20.826674
1445.410527	-2.997900	3.522100	-10.558000	25.191332	0.000225	20.813472
1446.408761	-2.991800	3.523000	-10.539000	25.183494	0.000227	20.810819
1447.408897	-2.987000	3.523500	-10.524000	25.194259	0.000225	20.831583
1448.409585	-2.987400	3.521900	-10.519000	25.184016	0.000227	20.832205
1449.409128	-2.999100	3.521600	-10.561000	25.212397	0.000225	20.816602
1450.410768	-2.963500	3.522800	-10.439000	25.212789	0.000224	20.822212
1451.408988	-3.015600	3.520300	-10.615000	25.197449	0.000224	20.820087
1452.409892	-2.999400	3.521400	-10.561000	25.197149	0.000225	20.822157
1453.409568	-2.962100	3.522000	-10.431000	25.200296	0.000224	20.826264
1454.408673	-2.999900	3.519600	-10.557000	25.195751	0.000223	20.819805
1455.411884	-2.982100	3.520200	-10.496000	25.209442	0.000223	20.831653
1456.408641	-2.994700	3.520000	-10.540000	25.201836	0.000223	20.800310
1457.410371	-2.996900	3.520400	-10.549000	25.194869	0.000220	20.822238
1458.409453	-2.994700	3.518600	-10.537000	25.198267	0.000220	20.826124
1459.410458	-2.999700	3.518700	-10.554000	25.190607	0.000221	20.828390
1460.413123	-2.992600	3.518700	-10.528000	25.198587	0.000220	20.825496
1461.410567	-3.010100	3.518100	-10.589000	25.195477	0.000221	20.829487
1462.411122	-3.016700	3.517600	-10.610000	25.199520	0.000221	20.836390
1463.415757	-3.009200	3.516900	-10.582000	25.217835	0.000220	20.843872
1464.412722	-3.019900	3.517700	-10.622000	25.196478	0.000218	20.841871
1465.415500	-2.988900	3.517700	-10.513000	25.193295	0.000218	20.840572
1466.412570	-3.021900	3.517000	-10.627000	25.188990	0.000220	20.842414
1467.413172	-3.006500	3.515100	-10.568000	25.190597	0.000219	20.855407
1468.415533	-2.951500	3.517800	-10.382000	25.214782	0.000217	20.859772
1469.414071	-3.002000	3.514800	-10.550000	25.200878	0.000217	20.850555
1470.414137	-3.012600	3.514900	-10.588000	25.222088	0.000216	20.846245
1471.415426	-2.977600	3.516600	-10.471000	25.204031	0.000216	20.846609
1472.415557	-2.976100	3.515300	-10.461000	25.192194	0.000214	20.866966
1473.416433	-2.999300	3.514800	-10.542000	25.208172	0.000216	20.831326
1474.420201	-3.015700	3.514600	-10.598000	25.224328	0.000216	20.848494
1475.418783	-3.010000	3.513600	-10.575000	25.214951	0.000215	20.844295
1476.417286	-3.026900	3.512900	-10.632000	25.240227	0.000214	20.855447
1477.419945	-3.001100	3.513300	-10.543000	25.239424	0.000215	20.854641
1478.417733	-3.016500	3.511900	-10.592000	25.212824	0.000214	20.834099
1479.418268	-2.998900	3.512000	-10.531000	25.238878	0.000216	20.857886
1480.421117	-2.997700	3.512600	-10.529000	25.223189	0.000212	20.847351
1481.417824	-2.998000	3.512400	-10.529000	25.242522	0.000210	20.854432
1482.419018	-2.992800	3.511300	-10.508000	25.243216	0.000211	20.878360
1483.420314	-2.994800	3.513000	-10.519000	25.242541	0.000209	20.854925
1484.417345	-2.986400	3.511300	-10.485000	25.232820	0.000208	20.876458
1485.417809	-2.989000	3.510700	-10.492000	25.226110	0.000210	20.852179
1486.418410	-2.996500	3.510900	-10.520000	25.251159	0.000207	20.862629
1487.420785	-3.003400	3.510000	-10.541000	25.261776	0.000209	20.867124
1488.420271	-2.997500	3.510300	-10.521000	25.247854	0.000207	20.881594
1489.418750	-3.012500	3.509400	-10.571000	25.224706	0.000207	20.861675
1490.422094	-3.003600	3.509300	-10.539000	25.250835	0.000209	20.859458
1491.421198	-2.971100	3.509200	-10.425000	25.229031	0.000208	20.863646
1492.417856	-3.030000	3.508000	-10.628000	25.256723	0.000205	20.876274
1493.423466	-3.029700	3.508100	-10.628000	25.246879	0.000206	20.851694
1494.419926	-2.998700	3.508000	-10.518000	25.246849	0.000207	20.871577
1495.423158	-3.000000	3.506300	-10.518000	25.258533	0.000204	20.880936
1496.421535	-3.007500	3.506800	-10.546000	25.258483	0.000206	20.866189
1497.420144	-3.005900	3.507700	-10.543000	25.225473	0.000206	20.879514
1498.421989	-2.994500	3.505900	-10.497000	25.253589	0.000204	20.866965
1499.422051	-2.985800	3.507300	-10.471000	25.236814	0.000204	20.886157
1500.423029	-3.003600	3.506400	-10.531000	25.237280	0.000206	20.866238
1501.420929	-3.001400	3.505300	-10.520000	25.251675	0.000206	20.882586
1502.422076	-2.999900	3.504900	-10.513000	25.250160	0.000204	20.878220
1503.423023	-3.034400	3.504600	-10.633000	25.251828	0.000204	20.884162
1504.422643	-3.007800	3.505500	-10.542000	25.264880	0.000202	20.872136
1505.421254	-3.014600	3.504300	-10.563000	25.285463	0.000202	20.882370
1506.423960	-3.013200	3.504300	-10.558000	25.244995	0.000203	20.882992
1507.422021	-3.002300	3.503800	-10.519000	25.249270	0.000202	20.881594
1508.422561	-3.009100	3.504300	-10.544000	25.285408	0.000202	20.872832
1509.422275	-2.995300	3.502700	-10.490000	25.271939	0.000201	20.893921
1510.422145	-3.000900	3.504400	-10.514000	25.272289	0.000201	20.885738
1511.422471	-2.986800	3.503200	-10.462000	25.254968	0.000200	20.866926
1512.423548	-3.008100	3.501400	-10.532000	25.275938	0.000200	20.886557
1513.423054	-3.022200	3.500300	-10.577000	25.269185	0.000200	20.892578
1514.425377	-3.002000	3.501600	-10.511000	25.271197	0.000198	20.901236
1515.430440	-2.990300	3.501100	-10.469000	25.286309	0.000199	20.903132
1516.425286	-2.999900	3.501100	-10.502000	25.278507	0.000199	20.883447
1517.428271	-3.002200	3.500500	-10.509000	25.278655	0.000198	20.878854
1518.424449	-2.996300	3.500400	-10.487000	25.271000	0.000200	20.872591
1519.428508	-2.985900	3.502100	-10.456000	25.271350	0.000195	20.895226
1520.424912	-3.008000	3.500800	-10.529000	25.279206	0.000196	20.897898
1521.424572	-3.006300	3.498000	-10.515000	25.275453	0.000196	20.878958
1522.428303	-2.980600	3.499100	-10.428000	25.291086	0.000195	20.896075
1523.425399	-3.011800	3.499000	-10.537000	25.283634	0.000194	20.894283
1524.427453	-3.008000	3.498300	-10.521000	25.279954	0.000193	20.882055
1525.429054	-2.986100	3.498700	-10.446000	25.275857	0.000195	20.900225
1526.426970	-2.994700	3.499000	-10.478000	25.258034	0.000194	20.901296
1527.428647	-3.013000	3.497500	-10.537000	25.282867	0.000193	20.881660
1528.431218	-2.990600	3.497300	-10.459000	25.283167	0.000193	20.898556
1529.429389	-2.993900	3.496500	-10.468000	25.260603	0.000194	20.877325
1530.428728	-3.007700	3.495200	-10.512000	25.270643	0.000192	20.878870
1531.429690	-2.995700	3.496200	-10.473000	25.264031	0.000192	20.873655
1532.430510	-3.007900	3.496000	-10.514000	25.278450	0.000191	20.876278
1533.433158	-3.020300	3.495100	-10.555000	25.265803	0.000192	20.878279
1534.429895	-2.976700	3.496800	-10.408000	25.288447	0.000190	20.879676
1535.432172	-3.006900	3.494800	-10.508000	25.264815	0.000192	20.869701
1536.430731	-3.004900	3.494200	-10.499000	25.293918	0.000187	20.887539
1537.430525	-2.994700	3.494600	-10.464000	25.290789	0.000189	20.860218
1538.432135	-2.992800	3.494500	-10.457000	25.262331	0.000188	20.865310
1539.431293	-2.987700	3.494200	-10.437000	25.289697	0.000188	20.885673
1540.431558	-3.017900	3.492800	-10.540000	25.280976	0.000188	20.888770
1541.432012	-2.997600	3.493000	-10.470000	25.288464	0.000187	20.873056
1542.431712	-2.999700	3.491400	-10.471000	25.281355	0.000186	20.866867
1543.434590	-3.001100	3.493200	-10.483000	25.278252	0.000189	20.885561
1544.432529	-3.015500	3.491200	-10.526000	25.285409	0.000186	20.854817
1545.435109	-3.018400	3.490900	-10.535000	25.265127	0.000186	20.873807
1546.433323	-2.977900	3.492400	-10.399000	25.276142	0.000187	20.857840
1547.434447	-2.987100	3.491300	-10.428000	25.294339	0.000186	20.860463
1548.437938	-2.991000	3.491000	-10.441000	25.286433	0.000185	20.871965
1549.437936	-3.009500	3.490100	-10.502000	25.295583	0.000185	20.883522
1550.434599	-2.977500	3.490500	-10.392000	25.300312	0.000185	20.847969
1551.437152	-2.996200	3.490200	-10.457000	25.262335	0.000185	20.846823
1552.442528	-3.019800	3.489800	-10.538000	25.278526	0.000183	20.854070
1553.437481	-3.015900	3.489500	-10.523000	25.286229	0.000185	20.834778
1554.436792	-2.982000	3.490000	-10.406000	25.277109	0.000184	20.853121
1555.433657	-2.992900	3.489200	-10.441000	25.285235	0.000184	20.849901
1556.435856	-3.011200	3.488700	-10.504000	25.275747	0.000185	20.849383
1557.438642	-3.006000	3.489200	-10.487000	25.271251	0.000182	20.860990
1558.436374	-3.016100	3.486500	-10.515000	25.273214	0.000184	20.852056
1559.437366	-3.002500	3.487000	-10.468000	25.286584	0.000181	20.836557
1560.439472	-3.014400	3.486600	-10.509000	25.276108	0.000182	20.859702
1561.437692	-3.002800	3.486700	-10.469000	25.276525	0.000181	20.856803
1562.452613	-2.992600	3.486400	-10.433000	25.275734	0.000181	20.855060
1563.437216	-3.014100	3.485700	-10.505000	25.304369	0.000180	20.852991
1564.439239	-3.006800	3.485200	-10.478000	25.285976	0.000179	20.855386
1565.438161	-2.990100	3.486400	-10.424000	25.280437	0.000180	20.848403
1566.438393	-3.002400	3.484800	-10.462000	25.273157	0.000179	20.848680
1567.440055	-3.027200	3.484800	-10.548000	25.278677	0.000179	20.846635
1568.438025	-2.996800	3.485400	-10.443000	25.277481	0.000179	20.849702
1569.437312	-2.988400	3.484500	-10.412000	25.292298	0.000174	20.825699
1570.441566	-2.998700	3.482600	-10.442000	25.282130	0.000178	20.853895
1571.440110	-2.982400	3.483400	-10.388000	25.290931	0.000177	20.834757
1572.439534	-3.014100	3.483300	-10.498000	25.292348	0.000176	20.818636
1573.440477	-3.018900	3.482900	-10.513000	25.280143	0.000173	20.834357
1574.438847	-2.997800	3.482500	-10.439000	25.286086	0.000175	20.831789
1575.439731	-3.004700	3.480900	-10.459000	25.293991	0.000174	20.822183
1576.440287	-2.992300	3.482000	-10.418000	25.293513	0.000178	20.834979
1577.443620	-3.000800	3.481600	-10.446000	25.286773	0.000176	20.813514
1578.440757	-3.027700	3.481200	-10.540000	25.303682	0.000175	20.834283
1579.442112	-2.997000	3.480900	-10.431000	25.300179	0.000175	20.816543
1580.442389	-2.995100	3.480800	-10.425000	25.290759	0.000173	20.852128
1581.442440	-3.012600	3.479100	-10.480000	25.313132	0.000174	20.835711
1582.443462	-2.991300	3.480200	-10.408000	25.307490	0.000173	20.827201
1583.448525	-3.003200	3.479600	-10.449000	25.312979	0.000173	20.836032
1584.444638	-2.987300	3.479300	-10.393000	25.299560	0.000171	20.825403
1585.446119	-3.019400	3.478400	-10.501000	25.297395	0.000171	20.833661
1586.443454	-2.976600	3.479900	-10.357000	25.309723	0.000172	20.831814
1587.443682	-2.994200	3.478500	-10.415000	25.304755	0.000171	20.823507
1588.444046	-3.002700	3.479900	-10.448000	25.303147	0.000171	20.831376
1589.444503	-3.002000	3.477600	-10.438000	25.310372	0.000169	20.818242
1590.445726	-2.997400	3.477700	-10.423000	25.302301	0.000169	20.823888
1591.443657	-2.983900	3.476600	-10.373000	25.304411	0.000167	20.839282
1592.446749	-2.989900	3.478300	-10.399000	25.306625	0.000167	20.826807
1593.447659	-3.002100	3.477400	-10.438000	25.305527	0.000167	20.815274
1594.445498	-2.990800	3.477000	-10.398000	25.300663	0.000169	20.826037
1595.444919	-2.991800	3.476300	-10.400000	25.306576	0.000166	20.828654
1596.444148	-3.018400	3.475400	-10.489000	25.303816	0.000165	20.818297
1597.445545	-3.018000	3.475100	-10.487000	25.298326	0.000167	20.809466
1598.445090	-2.991500	3.475300	-10.395000	25.293058	0.000168	20.816979
1599.452339	-3.002400	3.475700	-10.435000	25.310758	0.000167	20.806301
1600.445648	-3.003800	3.475400	-10.438000	25.322435	0.000165	20.819448
1601.445282	-2.989800	3.475300	-10.389000	25.274266	0.000166	20.815655
1602.443907	-3.007100	3.473400	-10.444000	25.296143	0.000166	20.823395
1603.447087	-3.005700	3.473000	-10.438000	25.312333	0.000164	20.813573
1604.448282	-3.011800	3.474600	-10.464000	25.302435	0.000165	20.809324
1605.443980	-2.986100	3.473400	-10.371000	25.308678	0.000163	20.799946
1606.449861	-3.005900	3.472700	-10.437000	25.313578	0.000164	20.808184
1607.444861	-2.993100	3.472100	-10.392000	25.292554	0.000163	20.814576
1608.445053	-3.008700	3.471100	-10.442000	25.300508	0.000164	20.794114
1609.445974	-3.015600	3.471400	-10.467000	25.299545	0.000162	20.811164
1610.445720	-3.011000	3.471700	-10.452000	25.301035	0.000161	20.813135
1611.448985	-3.001700	3.471800	-10.421000	25.303126	0.000162	20.829933
1612.450574	-2.970600	3.470900	-10.310000	25.284518	0.000160	20.823577
1613.448386	-2.982700	3.470300	-10.350000	25.276533	0.000159	20.803233
1614.447430	-3.004500	3.469600	-10.423000	25.282635	0.000160	20.795134
1615.448579	-2.997200	3.469800	-10.398000	25.294785	0.000158	20.805436
1616.447946	-2.998100	3.469300	-10.401000	25.286320	0.000158	20.795515
1617.448717	-3.009400	3.470500	-10.443000	25.298372	0.000159	20.800503
1618.448498	-3.018700	3.468500	-10.469000	25.292987	0.000159	20.800786
1619.448632	-2.991300	3.467700	-10.371000	25.304995	0.000158	20.802412
1620.448759	-3.003100	3.468400	-10.414000	25.303155	0.000157	20.799616
1621.447751	-2.985600	3.467700	-10.352000	25.306019	0.000157	20.792060
1622.451617	-2.975200	3.467800	-10.317000	25.283045	0.000157	20.815460
1623.448098	-2.985100	3.467200	-10.349000	25.297942	0.000158	20.799123
1624.450274	-2.981500	3.466100	-10.334000	25.316905	0.000156	20.800145
1625.452091	-2.983300	3.467200	-10.343000	25.304706	0.000157	20.795958
1626.448833	-3.001500	3.466800	-10.405000	25.314599	0.000156	20.806838
1627.451002	-3.007100	3.466800	-10.424000	25.297917	0.000156	20.802417
1628.449283	-2.975600	3.465700	-10.312000	25.314770	0.000156	20.807959
1629.449365	-2.992200	3.465000	-10.366000	25.323571	0.000153	20.800200
1630.449007	-3.018400	3.463900	-10.454000	25.311440	0.000155	20.811254
1631.449263	-3.000800	3.463400	-10.392000	25.305056	0.000153	20.791093
1632.448942	-2.984000	3.463700	-10.335000	25.292777	0.000154	20.803421
1633.448687	-2.996100	3.463800	-10.377000	25.319916	0.000153	20.796530
1634.449610	-3.011800	3.462800	-10.428000	25.322695	0.000154	20.801691
1635.451755	-2.982600	3.463100	-10.328000	25.318892	0.000153	20.789338
1636.449640	-2.997200	3.463000	-10.378000	25.320486	0.000154	20.799948
1637.449772	-2.995000	3.463000	-10.371000	25.314145	0.000152	20.797374
1638.451530	-3.000600	3.464200	-10.394000	25.315286	0.000151	20.786666
1639.451066	-3.007200	3.462700	-10.412000	25.313918	0.000150	20.787664
1640.451776	-3.001200	3.461400	-10.388000	25.324480	0.000153	20.797793
1641.455185	-2.994000	3.461500	-10.363000	25.311822	0.000151	20.783187
1642.453763	-2.980500	3.460600	-10.313000	25.303671	0.000151	20.789702
1643.453879	-3.003700	3.460400	-10.393000	25.309515	0.000150	20.782294
1644.454934	-2.990500	3.459700	-10.345000	25.306602	0.000148	20.786482
1645.455502	-2.998000	3.459000	-10.369000	25.316164	0.000150	20.782806
1646.455678	-2.993700	3.460100	-10.356000	25.310080	0.000149	20.785706
1647.456974	-3.015200	3.458900	-10.428000	25.314625	0.000147	20.786950
1648.456244	-2.998300	3.459100	-10.371000	25.322573	0.000147	20.792086
1649.455497	-3.006000	3.459100	-10.396000	25.322524	0.000148	20.786347
1650.457862	-2.999500	3.459300	-10.375000	25.332436	0.000149	20.761685
1651.457257	-3.012300	3.457400	-10.414000	25.311712	0.000145	20.779758
1652.457546	-3.005000	3.456900	-10.388000	25.307020	0.000149	20.772676
1653.457442	-3.005200	3.457300	-10.389000	25.318673	0.000146	20.776790
1654.457356	-2.997500	3.457500	-10.363000	25.304702	0.000147	20.793583
1655.459249	-2.991600	3.457500	-10.341000	25.298667	0.000145	20.785626
1656.457888	-3.018100	3.457600	-10.435000	25.298986	0.000145	20.766032
1657.459955	-2.993200	3.456100	-10.344000	25.309124	0.000143	20.768151
1658.459534	-3.024900	3.454500	-10.448000	25.293723	0.000143	20.788724
1659.456923	-3.012100	3.455300	-10.406000	25.315140	0.000144	20.781778
1660.459313	-2.994900	3.454300	-10.345000	25.298410	0.000142	20.783472
1661.457686	-3.012800	3.455100	-10.408000	25.318023	0.000144	20.773767
1662.458290	-2.994600	3.455500	-10.347000	25.320040	0.000143	20.762990
1663.457351	-3.005800	3.454300	-10.382000	25.307713	0.000141	20.778114
1664.461097	-3.003600	3.453400	-10.371000	25.302046	0.000141	20.772898
1665.461157	-3.002400	3.453300	-10.367000	25.344094	0.000141	20.770546
1666.457624	-2.994900	3.453100	-10.341000	25.332392	0.000141	20.794358
1667.458557	-2.998700	3.451900	-10.351000	25.328087	0.000139	20.772018
1668.462960	-2.982800	3.452600	-10.297000	25.330448	0.000140	20.771544
1669.462118	-2.999800	3.453000	-10.358000	25.342137	0.000141	20.771900
1670.457119	-3.001100	3.452000	-10.359000	25.306493	0.000140	20.772147
1671.460876	-2.997000	3.451700	-10.344000	25.331497	0.000142	20.762639
1672.458354	-2.998200	3.451700	-10.347000	25.329982	0.000141	20.770601
1673.460102	-3.004300	3.450800	-10.366000	25.351257	0.000141	20.755452
1674.461277	-2.985300	3.451200	-10.302000	25.344425	0.000137	20.763766
1675.458743	-2.991400	3.450200	-10.319000	25.321531	0.000139	20.785349
1676.463065	-3.010000	3.449200	-10.381000	25.351925	0.000139	20.779832
1677.458251	-3.012300	3.449600	-10.390000	25.315692	0.000138	20.761943
1678.459199	-2.981400	3.450300	-10.286000	25.313129	0.000138	20.775491
1679.463486	-2.998100	3.448200	-10.337000	25.311565	0.000137	20.779136
1680.468181	-2.997300	3.449000	-10.336000	25.317526	0.000135	20.747663
1681.460813	-2.991100	3.448200	-10.313000	25.312190	0.000136	20.766961
1682.465239	-3.002500	3.448100	-10.353000	25.317881	0.000135	20.759874
1683.461628	-2.990000	3.447400	-10.307000	25.296428	0.000135	20.777689
1684.466456	-2.982500	3.447200	-10.281000	25.311417	0.000136	20.755280
1685.463915	-2.999400	3.446700	-10.336000	25.324070	0.000132	20.754707
1686.469650	-2.993400	3.447000	-10.317000	25.318182	0.000135	20.764917
1687.462633	-2.985900	3.446100	-10.288000	25.297599	0.000135	20.776020
1688.465997	-2.991700	3.447100	-10.312000	25.311846	0.000130	20.750969
1689.463804	-3.024600	3.444000	-10.415000	25.311300	0.000131	20.761327
1690.463946	-2.989600	3.445800	-10.300000	25.331656	0.000132	20.761850
1691.465457	-2.987100	3.444600	-10.288000	25.307400	0.000132	20.740340
1692.464420	-2.994400	3.445100	-10.315000	25.317096	0.000132	20.741540
1693.467525	-3.006800	3.443700	-10.353000	25.324406	0.000131	20.728965
1694.466552	-3.000400	3.444100	-10.333000	25.310730	0.000130	20.765970
1695.464003	-3.005500	3.443700	-10.349000	25.327313	0.000129	20.758912
1696.462876	-3.003200	3.443100	-10.340000	25.313618	0.000130	20.757015
1697.463031	-3.000700	3.442800	-10.330000	25.327963	0.000128	20.773315
1698.466250	-2.988700	3.442600	-10.289000	25.301217	0.000128	20.744090
1699.465022	-2.987400	3.442300	-10.282000	25.327938	0.000126	20.741047
1700.466162	-2.980300	3.443200	-10.261000	25.323443	0.000129	20.751707
1701.473338	-3.023800	3.441100	-10.404000	25.308331	0.000127	20.759768
1702.466913	-3.000800	3.441700	-10.327000	25.327595	0.000128	20.752082
1703.474850	-2.991200	3.441200	-10.292000	25.327177	0.000127	20.754034
1704.467242	-2.982300	3.441300	-10.261000	25.314009	0.000127	20.751244
1705.467145	-2.986700	3.440900	-10.276000	25.337646	0.000125	20.735621
1706.467673	-2.972700	3.441000	-10.227000	25.315402	0.000124	20.748374
1707.467663	-2.996800	3.440200	-10.309000	25.324852	0.000126	20.748854
1708.472421	-2.996300	3.439700	-10.305000	25.325526	0.000125	20.759489
1709.469665	-3.007200	3.438100	-10.338000	25.323484	0.000124	20.737049
1710.472549	-2.986600	3.440700	-10.276000	25.323484	0.000123	20.745584
1711.474780	-2.992100	3.439000	-10.289000	25.347200	0.000123	20.772716
1712.481150	-2.996300	3.438000	-10.299000	25.323116	0.000123	20.739050
1713.473619	-3.006700	3.438100	-10.335000	25.340392	0.000124	20.746914
1714.473667	-3.005100	3.437200	-10.328000	25.320185	0.000123	20.760290
1715.476797	-3.029500	3.436200	-10.409000	25.346531	0.000123	20.735534
1716.474837	-2.997400	3.436300	-10.299000	25.335621	0.000123	20.729795
1717.474548	-2.999700	3.436400	-10.307000	25.343998	0.000124	20.739155
1718.475089	-3.002100	3.437000	-10.317000	25.350566	0.000122	20.746698
1719.475403	-3.001700	3.436300	-10.314000	25.339582	0.000120	20.735195
1720.480989	-2.993000	3.435500	-10.282000	25.338460	0.000120	20.741181
1721.476794	-2.999300	3.434000	-10.299000	25.345249	0.000119	20.734720
1722.477571	-3.004600	3.434300	-10.317000	25.355865	0.000121	20.743009
1723.475524	-2.994200	3.435400	-10.285000	25.363843	0.000120	20.742960
1724.477520	-3.009900	3.434200	-10.335000	25.360066	0.000119	20.722096
1725.476938	-2.992900	3.434800	-10.279000	25.337325	0.000118	20.712064
1726.478403	-2.985900	3.432700	-10.249000	25.352614	0.000117	20.745909
1727.479681	-3.007200	3.434000	-10.326000	25.328132	0.000116	20.750251
1728.477537	-3.012800	3.432700	-10.341000	25.338349	0.000117	20.745811
1729.479351	-2.992600	3.432800	-10.272000	25.339373	0.000115	20.727872
1730.481294	-3.032200	3.431200	-10.403000	25.335423	0.000118	20.748089
1731.481923	-3.003000	3.431800	-10.305000	25.343243	0.000118	20.722274
1732.481434	-3.007600	3.432200	-10.322000	25.344598	0.000117	20.730273
1733.483061	-3.024000	3.431700	-10.376000	25.321832	0.000114	20.722113
1734.481389	-2.995100	3.431100	-10.275000	25.343359	0.000116	20.736616
1735.481091	-2.999100	3.429600	-10.284000	25.322458	0.000115	20.725112
1736.482147	-3.021800	3.430000	-10.364000	25.335257	0.000113	20.736542
1737.482234	-3.013500	3.428900	-10.332000	25.346940	0.000112	20.724090
1738.482165	-2.992000	3.431200	-10.265000	25.348884	0.000114	20.724145
1739.483311	-3.013600	3.428500	-10.331000	25.362412	0.000114	20.712598
1740.483849	-3.001300	3.429400	-10.292000	25.352348	0.000115	20.726201
1741.488065	-2.992800	3.427600	-10.256000	25.352888	0.000114	20.721528
1742.485181	-2.980900	3.428400	-10.219000	25.343223	0.000112	20.732686
1743.484735	-3.012500	3.427500	-10.324000	25.332037	0.000112	20.727144
1744.484601	-3.022800	3.427200	-10.359000	25.339421	0.000110	20.723178
1745.484511	-3.037100	3.425600	-10.403000	25.338881	0.000112	20.720739
1746.487242	-3.005700	3.427200	-10.300000	25.357647	0.000110	20.727254
1747.484187	-3.019000	3.427000	-10.345000	25.350809	0.000109	20.716594
1748.486310	-3.007100	3.426400	-10.303000	25.347485	0.000111	20.717524
1749.488856	-3.014600	3.425300	-10.325000	25.321659	0.000108	20.722888
1750.485425	-2.992900	3.425400	-10.251000	25.353078	0.000108	20.730253
1751.486309	-3.004800	3.425400	-10.292000	25.340923	0.000109	20.746498
1752.488694	-3.009100	3.424700	-10.304000	25.343609	0.000109	20.751566
1753.486875	-3.021200	3.423900	-10.343000	25.354770	0.000109	20.726262
1754.492385	-2.991500	3.423500	-10.241000	25.361209	0.000108	20.737944
1755.490749	-3.000600	3.423800	-10.272000	25.343535	0.000109	20.720196
1756.489139	-2.976500	3.423600	-10.189000	25.351317	0.000110	20.734175
1757.489907	-2.998400	3.424000	-10.265000	25.353433	0.000107	20.703107
1758.491081	-2.980800	3.423500	-10.203000	25.354372	0.000106	20.730130
1759.498409	-2.999000	3.423100	-10.265000	25.355120	0.000106	20.729458
1760.491436	-2.996000	3.421900	-10.251000	25.356469	0.000105	20.723700
1761.491163	-3.004800	3.421000	-10.278000	25.358781	0.000104	20.709899
1762.494191	-2.999400	3.420500	-10.259000	25.369022	0.000108	20.710226
1763.498855	-2.988200	3.421200	-10.222000	25.350379	0.000106	20.721852
1764.490969	-3.018700	3.420400	-10.324000	25.355180	0.000106	20.706284
1765.496809	-2.978600	3.421700	-10.191000	25.359485	0.000105	20.720091
1766.492302	-3.020900	3.419900	-10.329000	25.351899	0.000104	20.714844
1767.493267	-2.988300	3.419600	-10.218000	25.353616	0.000106	20.714197
1768.495450	-2.986000	3.420200	-10.212000	25.356259	0.000103	20.730128
1769.493594	-2.993300	3.419900	-10.236000	25.372757	0.000105	20.723459
1770.492033	-2.982900	3.420100	-10.201000	25.375173	0.000102	20.717824
1771.494373	-3.009700	3.418900	-10.288000	25.372290	0.000103	20.704972
1772.493058	-3.009700	3.417200	-10.284000	25.371567	0.000102	20.737438
1773.494797	-2.990600	3.419000	-10.224000	25.373486	0.000101	20.715656
1774.492849	-3.015800	3.417600	-10.305000	25.379005	0.000104	20.711715
1775.496159	-2.990800	3.418300	-10.222000	25.373560	0.000100	20.717153
1776.492285	-3.013500	3.417200	-10.297000	25.371701	0.000101	20.720977
1777.492630	-2.996400	3.417200	-10.238000	25.379422	9.916626E-5	20.720669
1778.501382	-2.992800	3.416300	-10.223000	25.357363	9.949621E-5	20.708950
1779.494485	-2.996300	3.417100	-10.237000	25.370113	9.794544E-5	20.713692
1780.494116	-3.000400	3.415300	-10.247000	25.355075	9.949621E-5	20.718033
1781.496720	-3.023700	3.415100	-10.325000	25.390657	9.655966E-5	20.741435
1782.502480	-2.990700	3.416500	-10.217000	25.377343	9.837438E-5	20.712417
1783.494667	-3.001700	3.414500	-10.247000	25.371259	9.705458E-5	20.726698
1784.495611	-2.963000	3.416100	-10.121000	25.367825	9.847336E-5	20.744113
1785.504968	-2.993700	3.414300	-10.220000	25.392208	9.669164E-5	20.715964
1786.499043	-3.032500	3.413300	-10.349000	25.388455	9.675763E-5	20.704134
1787.496216	-3.000300	3.413400	-10.240000	25.381746	9.748352E-5	20.719683
1788.495819	-3.012800	3.412700	-10.281000	25.374363	9.471194E-5	20.718433
1789.500851	-3.014000	3.413300	-10.287000	25.380679	9.626270E-5	20.713396
1790.497222	-2.999200	3.412200	-10.233000	25.391289	9.428301E-5	20.730688
1791.497205	-2.984900	3.412700	-10.186000	25.394551	9.570179E-5	20.713100
1792.507203	-2.973300	3.412300	-10.145000	25.372970	9.365610E-5	20.729364
1793.497661	-2.993000	3.411900	-10.211000	25.398801	9.431600E-5	20.733490
1794.505507	-2.985800	3.411900	-10.187000	25.401726	9.279824E-5	20.739747
1795.497239	-2.969900	3.410900	-10.129000	25.371186	9.223732E-5	20.729469
1796.499664	-3.001800	3.410700	-10.237000	25.375454	9.306220E-5	20.729013
1797.508163	-3.007600	3.409600	-10.253000	25.398224	9.203935E-5	20.719160
1798.499022	-2.991100	3.411400	-10.203000	25.377319	9.375509E-5	20.719505
1799.500798	-3.008200	3.409700	-10.256000	25.391908	9.108250E-5	20.720878
1800.499126	-3.015500	3.409000	-10.279000	25.394662	8.956473E-5	20.733601
1801.500885	-3.020800	3.408300	-10.294000	25.373830	9.137946E-5	20.725485
1802.500097	-2.981000	3.410600	-10.166000	25.403303	9.032362E-5	20.730424
1803.504418	-2.988600	3.408800	-10.187000	25.417696	9.144545E-5	20.729229
1804.502079	-3.002000	3.407500	-10.229000	25.401665	8.913580E-5	20.724986
1805.500434	-2.983000	3.408000	-10.166000	25.389879	8.887184E-5	20.737334
1806.503127	-2.990900	3.408100	-10.191000	25.384513	8.890484E-5	20.737635
1807.502889	-2.992700	3.406900	-10.195000	25.405639	8.758504E-5	20.725183
1808.510965	-2.981100	3.407500	-10.157000	25.402776	8.758504E-5	20.715195
1809.501419	-2.984600	3.407300	-10.168000	25.395895	8.827793E-5	20.747168
1810.505277	-3.022900	3.406100	-10.296000	25.406431	8.507743E-5	20.719814
1811.518977	-2.987100	3.407600	-10.177000	25.391891	8.761803E-5	20.732241
1812.502149	-3.016000	3.404800	-10.267000	25.409203	8.709012E-5	20.739668
1813.504726	-3.003200	3.405700	-10.227000	25.405131	8.570433E-5	20.748856
1814.508152	-3.006200	3.404000	-10.232000	25.399017	8.715611E-5	20.755993
1815.507768	-2.995900	3.404200	-10.198000	25.406400	8.415357E-5	20.735905
1816.504601	-3.008900	3.403600	-10.240000	25.399986	8.497844E-5	20.735628
1817.504768	-3.003000	3.404000	-10.221000	25.405480	8.319672E-5	20.726446
1818.503830	-2.978200	3.405100	-10.140000	25.396680	8.438453E-5	20.705281
1819.508166	-3.031700	3.402100	-10.313000	25.393823	8.369164E-5	20.736552
1820.506093	-2.997100	3.403100	-10.198000	25.413888	8.062311E-5	20.733466
1821.513837	-3.022900	3.401300	-10.281000	25.422406	8.461550E-5	20.747236
1822.506737	-3.008800	3.402000	-10.235000	25.404334	8.299875E-5	20.738098
1823.505500	-3.008300	3.401300	-10.232000	25.419996	8.379062E-5	20.749558
1824.504736	-2.996700	3.402600	-10.195000	25.418175	8.174494E-5	20.732556
1825.504442	-2.985000	3.402100	-10.153000	25.425693	8.059012E-5	20.718767
1826.505472	-2.989900	3.401300	-10.168000	25.442655	8.035915E-5	20.768045
1827.504012	-3.002900	3.400700	-10.212000	25.423326	7.996321E-5	20.723029
1828.510985	-3.003600	3.401100	-10.214000	25.436700	7.966626E-5	20.754478
1829.505612	-3.005900	3.399000	-10.216000	25.429243	7.857743E-5	20.754102
1830.504267	-3.006300	3.400300	-10.222000	25.441992	7.936930E-5	20.745567
1831.505385	-3.018400	3.398900	-10.258000	25.425190	7.851144E-5	20.745764
1832.507307	-3.002000	3.399500	-10.204000	25.423387	7.828047E-5	20.715028
1833.510118	-2.994300	3.398700	-10.176000	25.440931	7.679570E-5	20.762046
1834.510149	-2.980900	3.399700	-10.133000	25.405044	7.610281E-5	20.753985
1835.505506	-2.993500	3.398700	-10.173000	25.434315	7.702666E-5	20.750660
1836.510649	-3.006200	3.397600	-10.213000	25.440557	7.689469E-5	20.761670
1837.510902	-3.009500	3.396900	-10.222000	25.421798	7.507996E-5	20.749471
1838.504623	-3.012300	3.396900	-10.232000	25.427740	7.458504E-5	20.745006
1839.509732	-2.988700	3.398100	-10.155000	25.430991	7.573986E-5	20.752064
1840.508590	-3.030800	3.395300	-10.289000	25.439864	7.616880E-5	20.738688
1841.519073	-3.009500	3.396300	-10.220000	25.427716	7.488199E-5	20.754939
1842.509119	-3.005800	3.396800	-10.209000	25.436068	7.418910E-5	20.760007
1843.506157	-2.968100	3.396800	-10.081000	25.443426	7.300128E-5	20.747007
1844.526406	-3.010400	3.395000	-10.219000	25.411102	7.448606E-5	20.733989
1845.520377	-3.000200	3.394600	-10.184000	25.439538	7.128555E-5	20.756379
1846.512934	-3.024200	3.394700	-10.266000	25.429322	7.339722E-5	20.755129
1847.509662	-2.991700	3.394800	-10.155000	25.427187	7.118656E-5	20.755831
1848.512184	-3.006500	3.394300	-10.204000	25.429996	7.178047E-5	20.735417
1849.508252	-3.004000	3.392900	-10.192000	25.425924	7.069164E-5	20.737018
1850.510014	-2.988100	3.393300	-10.138000	25.456180	6.808504E-5	20.747960
1851.513339	-3.014000	3.392000	-10.223000	25.430210	7.013073E-5	20.776411
1852.507951	-3.003800	3.392700	-10.190000	25.435459	6.947083E-5	20.745171
1853.515635	-2.982600	3.393100	-10.120000	25.424274	7.085661E-5	20.752431
1854.508441	-2.978400	3.392200	-10.102000	25.463072	6.851397E-5	20.761046
1855.512696	-3.008600	3.392200	-10.205000	25.421330	6.927286E-5	20.751845
1856.522596	-2.984600	3.391500	-10.121000	25.462802	6.504951E-5	20.751766
1857.507917	-3.011200	3.390900	-10.210000	25.449986	6.805205E-5	20.755017
1858.512909	-3.000100	3.390500	-10.170000	25.455830	6.851397E-5	20.746660
1859.512753	-3.019200	3.389400	-10.232000	25.456479	6.623733E-5	20.771495
1860.510651	-3.017900	3.389400	-10.228000	25.453799	6.808504E-5	20.756950
1861.511485	-2.993600	3.391100	-10.151000	25.475746	6.808504E-5	20.743901
1862.511139	-3.004800	3.388400	-10.180000	25.485018	6.541245E-5	20.780239
1863.519592	-2.995600	3.388700	-10.150000	25.457166	6.607235E-5	20.771236
1864.521186	-2.990100	3.389100	-10.133000	25.476525	6.435661E-5	20.753218
1865.516374	-3.001300	3.388400	-10.169000	25.477175	6.551144E-5	20.784217
1866.513114	-2.990900	3.388100	-10.133000	25.467437	6.435661E-5	20.756420
1867.529470	-3.015100	3.387500	-10.213000	25.475096	6.445560E-5	20.754153
1868.514010	-3.013500	3.386900	-10.206000	25.479725	6.415864E-5	20.764492
1869.513941	-3.012400	3.388000	-10.205000	25.478811	6.468656E-5	20.739392
1870.518152	-3.020600	3.386400	-10.228000	25.479007	6.264088E-5	20.768039
1871.521572	-3.029700	3.386200	-10.258000	25.512022	6.188199E-5	20.758044
1872.511889	-3.018000	3.385200	-10.215000	25.488064	6.326778E-5	20.770496
1873.514208	-3.021900	3.385200	-10.229000	25.497532	6.175002E-5	20.784745
1874.521927	-2.975000	3.386200	-10.073000	25.472813	6.105712E-5	20.773199
1875.519155	-3.003100	3.386200	-10.168000	25.489940	5.990230E-5	20.789924
1876.521883	-2.990700	3.384700	-10.123000	25.507165	6.145306E-5	20.772133
1877.516497	-3.001300	3.383900	-10.155000	25.489345	6.115611E-5	20.768937
1878.519571	-2.981000	3.384300	-10.087000	25.469771	5.950636E-5	20.759712
1879.540474	-2.974200	3.385400	-10.068000	25.474965	6.006727E-5	20.770618
1880.516985	-3.004600	3.383800	-10.166000	25.503099	5.996829E-5	20.776585
1881.518770	-3.007000	3.381900	-10.169000	25.484420	5.967133E-5	20.760198
1882.526262	-3.000100	3.383100	-10.148000	25.511064	6.000128E-5	20.763247
1883.518073	-3.018200	3.382200	-10.207000	25.502963	6.033123E-5	20.774553
1884.520509	-3.013500	3.381800	-10.190000	25.490092	5.656981E-5	20.763998
1885.524782	-2.976700	3.382500	-10.067000	25.501179	5.617387E-5	20.762329
1886.523155	-2.988000	3.381500	-10.102000	25.492361	5.769164E-5	20.775759
1887.520765	-3.013800	3.380600	-10.188000	25.494728	5.521702E-5	20.767704
1888.519874	-2.995100	3.380200	-10.124000	25.514111	5.643783E-5	20.762513
1889.519270	-2.997100	3.380500	-10.130000	25.482752	5.274240E-5	20.765635
1890.523751	-3.030000	3.378800	-10.236000	25.506765	5.752666E-5	20.779318
1891.524806	-3.005300	3.379300	-10.156000	25.482212	5.492007E-5	20.774577
1892.522399	-3.034100	3.379800	-10.254000	25.515073	5.571194E-5	20.765850
1893.525969	-3.018200	3.380400	-10.202000	25.518059	5.416118E-5	20.774539
1894.521335	-2.983100	3.381100	-10.085000	25.524602	5.402920E-5	20.773997
1895.532952	-2.992900	3.379200	-10.112000	25.525423	5.280839E-5	20.777667
1896.527599	-2.980800	3.379500	-10.072000	25.518145	5.383123E-5	20.767039
1897.525870	-2.975900	3.379700	-10.056000	25.508241	5.105966E-5	20.772741
1898.527839	-3.021800	3.377800	-10.205000	25.542383	5.162057E-5	20.784268
1899.528391	-2.999800	3.377800	-10.132000	25.541090	5.185154E-5	20.789607
1900.523514	-3.004500	3.377500	-10.147000	25.512969	5.257743E-5	20.787446
1901.531587	-3.010900	3.376400	-10.165000	25.519763	5.244545E-5	20.797113
1902.535450	-3.015200	3.377500	-10.183000	25.514367	5.142260E-5	20.782685
1903.533482	-2.981600	3.377200	-10.068000	25.544566	5.030078E-5	20.786934
1904.533976	-3.010300	3.376300	-10.162000	25.525312	5.039976E-5	20.776607
1905.524673	-2.983500	3.377500	-10.075000	25.537343	4.904697E-5	20.791534
1906.525268	-3.000900	3.375500	-10.128000	25.508394	4.871702E-5	20.777161
1907.531988	-3.002400	3.375000	-10.132000	25.542781	4.812311E-5	20.806005
1908.524781	-2.994300	3.375000	-10.105000	25.542076	4.680331E-5	20.759303
1909.531118	-2.991400	3.375200	-10.095000	25.551641	4.624240E-5	20.793092
1910.534958	-3.006700	3.374200	-10.145000	25.523834	4.855204E-5	20.798831
1911.536973	-3.018200	3.373900	-10.182000	25.543174	4.657235E-5	20.775579
1912.541527	-2.993200	3.373900	-10.098000	25.524594	4.587946E-5	20.788689
1913.537469	-2.987100	3.374100	-10.078000	25.568258	4.571448E-5	20.782752
1914.530092	-3.008900	3.372800	-10.148000	25.567559	4.455966E-5	20.772093
1915.525067	-3.000100	3.372500	-10.117000	25.543860	4.551651E-5	20.789544
1916.524477	-2.992500	3.372500	-10.091000	25.538004	4.221702E-5	20.787457
1917.529727	-2.997100	3.372400	-10.107000	25.562880	4.416372E-5	20.777826
1918.531066	-2.988400	3.372300	-10.077000	25.549115	4.436169E-5	20.783916
1919.525358	-2.996100	3.372800	-10.104000	25.569692	4.343783E-5	20.782296
1920.536499	-3.008100	3.372200	-10.143000	25.562531	4.492260E-5	20.789329
1921.524810	-3.006000	3.370700	-10.132000	25.556755	4.386676E-5	20.785899
1922.529054	-3.006600	3.371000	-10.133000	25.572930	4.373478E-5	20.793134
1923.532206	-3.001600	3.370200	-10.115000	25.583623	4.297590E-5	20.797709
1924.524993	-2.995200	3.369700	-10.091000	25.547796	4.192006E-5	20.796816
1925.535602	-3.008300	3.369900	-10.137000	25.543203	4.102920E-5	20.810222
1926.527617	-3.005500	3.369500	-10.126000	25.574438	4.314088E-5	20.782321
1927.527163	-3.017700	3.368100	-10.163000	25.568975	4.135915E-5	20.799594
1928.525342	-2.990100	3.368800	-10.071000	25.568282	3.941245E-5	20.788940
1929.538225	-2.978800	3.368600	-10.034000	25.543013	3.951143E-5	20.800548
1930.539038	-3.026100	3.368800	-10.193000	25.585536	4.122717E-5	20.798208
1931.543774	-3.002600	3.368100	-10.112000	25.588044	3.967641E-5	20.797407
1932.527328	-2.993400	3.367600	-10.080000	25.581348	3.805966E-5	20.811071
1933.528380	-3.017500	3.367200	-10.160000	25.583488	3.878555E-5	20.796625
1934.531098	-2.968200	3.368200	-9.996700	25.551702	3.819164E-5	20.805480
1935.533757	-3.004000	3.367500	-10.115000	25.564578	3.924747E-5	20.794704
1936.533987	-3.004100	3.366600	-10.112000	25.580882	3.825763E-5	20.812500
1937.529257	-2.980500	3.366600	-10.034000	25.569808	3.657489E-5	20.808491
1938.534278	-2.987700	3.367300	-10.059000	25.574947	3.588199E-5	20.804643
1939.534216	-3.019900	3.364500	-10.160000	25.585192	3.419925E-5	20.781267
1940.532528	-3.016300	3.365600	-10.150000	25.587902	3.535407E-5	20.795369
1941.532819	-2.998300	3.364300	-10.086000	25.591808	3.640991E-5	20.791231
1942.532440	-2.997400	3.364800	-10.085000	25.596836	3.386930E-5	20.812876
1943.527858	-2.999100	3.363200	-10.086000	25.583984	3.472717E-5	20.797598
1944.538990	-3.014200	3.362200	-10.133000	25.615696	3.509011E-5	20.808584
1945.532201	-3.019700	3.362600	-10.153000	25.607572	3.452920E-5	20.802795
1946.546315	-3.011100	3.363600	-10.127000	25.602728	3.456219E-5	20.839655
1947.532874	-3.034600	3.361800	-10.201000	25.611324	3.459519E-5	20.807038
1948.544404	-3.014100	3.362100	-10.133000	25.605487	3.291245E-5	20.797857
1949.536199	-3.003200	3.362100	-10.096000	25.609785	3.502412E-5	20.806441
1950.537798	-2.998000	3.362300	-10.079000	25.613219	3.347336E-5	20.821743
1951.540572	-2.991100	3.361100	-10.052000	25.612244	3.212057E-5	20.800375
1952.539129	-2.986000	3.361900	-10.037000	25.618013	3.254950E-5	20.812334
1953.534912	-2.985400	3.359300	-10.028000	25.617560	3.083377E-5	20.810456
1954.537208	-3.015300	3.360700	-10.133000	25.636695	3.195559E-5	20.794587
1955.544310	-2.997900	3.360600	-10.074000	25.625555	3.053681E-5	20.817063
1956.536984	-3.020500	3.360600	-10.149000	25.625659	2.987691E-5	20.825702
1957.538516	-3.007700	3.359600	-10.104000	25.637308	3.155966E-5	20.831238
1958.548851	-2.986800	3.358800	-10.031000	25.622777	2.779823E-5	20.828023
1959.537941	-3.019000	3.358700	-10.139000	25.650006	2.898605E-5	20.822180
1960.539711	-2.999700	3.358600	-10.074000	25.638927	2.806219E-5	20.821958
1961.543347	-3.033500	3.357700	-10.184000	25.630123	2.812818E-5	20.824495
1962.539081	-3.008400	3.357500	-10.100000	25.656266	3.043783E-5	20.820406
1963.545392	-3.003400	3.356700	-10.080000	25.647388	2.736930E-5	20.830456
1964.545207	-2.978300	3.357300	-9.998200	25.636904	2.756727E-5	20.814711
1965.542297	-3.012100	3.357200	-10.111000	25.646272	2.535661E-5	20.833602
1966.537491	-2.980100	3.356500	-10.002000	25.651459	2.661042E-5	20.822691
1967.546930	-2.994600	3.356800	-10.051000	25.646413	2.644544E-5	20.822839
1968.537084	-2.985000	3.356900	-10.019000	25.656008	2.578554E-5	20.822993
1969.543282	-2.992800	3.354800	-10.040000	25.654286	2.657742E-5	20.816521
1970.546428	-3.028700	3.354800	-10.158000	25.639730	2.403681E-5	20.839834
1971.543755	-2.991500	3.354900	-10.035000	25.683684	2.532361E-5	20.810486
1972.547334	-3.016500	3.353000	-10.113000	25.672176	2.284899E-5	20.823110
1973.541226	-3.005000	3.354100	-10.078000	25.665769	2.271701E-5	20.834218
1974.538189	-2.999000	3.353900	-10.058000	25.666112	2.182615E-5	20.839304
1975.542054	-3.001400	3.353500	-10.064000	25.661165	2.360788E-5	20.847137
1976.548366	-2.991400	3.354400	-10.033000	25.672617	2.182615E-5	20.846786
1977.539094	-2.981300	3.353400	-9.996500	25.691770	2.228808E-5	20.840893
1978.550205	-2.989700	3.351600	-10.020000	25.688392	2.007742E-5	20.852198
1979.546756	-2.993300	3.352800	-10.035000	25.703652	2.215610E-5	20.842870
1980.550477	-3.006700	3.352400	-10.078000	25.690182	1.865864E-5	20.845936
1981.549709	-3.000800	3.351900	-10.058000	25.698202	1.836168E-5	20.845930
1982.551906	-2.988200	3.351900	-10.015000	25.682973	1.964848E-5	20.858134
1983.545715	-2.994600	3.352000	-10.037000	25.705828	1.822970E-5	20.847900
1984.545882	-3.000000	3.350400	-10.051000	25.702971	1.829569E-5	20.843609
1985.548330	-3.007700	3.350000	-10.075000	25.678374	1.753681E-5	20.844508
1986.549581	-3.003500	3.349000	-10.058000	25.681771	1.888960E-5	20.855031
1987.560259	-3.004100	3.349600	-10.062000	25.699587	1.760280E-5	20.856330
1988.549106	-2.979600	3.349300	-9.978500	25.705375	1.733884E-5	20.853609
1989.562720	-2.967600	3.350000	-9.940700	25.704982	1.592006E-5	20.857007
1990.548657	-2.990400	3.347900	-10.010000	25.722516	1.496320E-5	20.861817
1991.555753	-2.996300	3.349200	-10.034000	25.716974	1.440229E-5	20.858621
1992.550640	-2.993900	3.349000	-10.026000	25.704731	1.578808E-5	20.861496
1993.549817	-3.005300	3.348200	-10.061000	25.721916	1.638199E-5	20.855998
1994.554083	-2.973300	3.348500	-9.954700	25.716870	1.186168E-5	20.868947
1995.554413	-3.004600	3.347700	-10.058000	25.715975	1.390737E-5	20.874212
1996.552284	-3.013400	3.347200	-10.084000	25.725318	1.380838E-5	20.861312
1997.546454	-3.006800	3.346900	-10.063000	25.730437	1.179569E-5	20.877358
1998.553627	-2.983400	3.347600	-9.986800	25.736102	1.337945E-5	20.874039
1999.571582	-3.009900	3.346700	-10.072000	25.752397	1.031092E-5	20.862907
2000.548499	-2.986800	3.346000	-9.992600	25.739897	1.209264E-5	20.870265
2001.554866	-2.999900	3.345800	-10.035000	25.746855	1.064087E-5	20.870142
2002.550435	-2.990700	3.345200	-10.002000	25.742882	9.222085E-6	20.853350
2003.558673	-3.003400	3.345300	-10.046000	25.763297	1.044290E-5	20.849200
2004.557128	-3.003700	3.344300	-10.043000	25.762059	1.136676E-5	20.874507
2005.555385	-2.999700	3.343700	-10.029000	25.760692	8.826146E-6	20.866970
2006.557341	-2.990900	3.343300	-9.997800	25.773909	9.947974E-6	20.880720
2007.551900	-2.972600	3.344300	-9.940700	25.774332	8.925131E-6	20.882093
2008.557065	-2.994900	3.343000	-10.012000	25.789982	9.750004E-6	20.857987
2009.559850	-2.998800	3.342700	-10.022000	25.773516	8.001272E-6	20.852827
2010.551521	-2.978600	3.342500	-9.954900	25.789167	8.034267E-6	20.875659
2011.558641	-2.984700	3.342100	-9.974500	25.782583	6.384520E-6	20.864304
2012.557526	-2.997000	3.342900	-10.018000	25.789682	6.879445E-6	20.863849
2013.560718	-3.011600	3.340200	-10.058000	25.787034	4.536804E-6	20.859766
2014.551806	-3.008800	3.341100	-10.051000	25.774608	5.856601E-6	20.856293
2015.558900	-3.005700	3.341200	-10.042000	25.770561	5.790612E-6	20.877832
2016.559173	-3.001700	3.340700	-10.027000	25.789467	6.450510E-6	20.841349
2017.555275	-3.026000	3.338700	-10.102000	25.795500	4.008885E-6	20.862580
2018.554241	-3.020500	3.338900	-10.085000	25.794090	4.437819E-6	20.855000
2019.553234	-2.991500	3.338900	-9.986800	25.795156	4.404824E-6	20.870295
2020.549911	-2.991800	3.339600	-9.990000	25.787162	1.798224E-6	20.886920
2021.557343	-3.004200	3.339100	-10.030000	25.785513	3.250001E-6	20.859187
2022.564976	-2.990800	3.337900	-9.981800	25.800974	4.239850E-6	20.852433
2023.555081	-2.996200	3.338400	-10.001000	25.785121	2.788072E-6	20.843621
2024.555836	-2.986800	3.339500	-9.973200	25.789547	2.161168E-6	20.856601
2025.554511	-3.021400	3.336700	-10.080000	25.806442	3.480966E-6	20.876890
2026.561224	-2.994000	3.337900	-9.992900	25.823656	-2.474620E-7	20.846293
2027.552475	-3.015800	3.336800	-10.062000	25.806742	3.794418E-7	20.859175
2028.558625	-3.029200	3.335900	-10.104000	25.811861	-1.600255E-6	20.861472
2029.557110	-3.005100	3.335600	-10.023000	25.812382	1.567260E-6	20.840185
2030.557250	-2.997800	3.336200	-10.000000	25.796713	-1.138325E-6	20.847679
2031.560213	-2.969200	3.337200	-9.906500	25.806650	-1.534265E-6	20.843910
2032.559181	-3.009600	3.335700	-10.038000	25.810752	-7.753811E-7	20.863202
2033.556638	-2.994700	3.335000	-9.986600	25.816440	-1.138325E-6	20.840468
2034.557393	-2.995600	3.334400	-9.987700	25.802604	-1.996194E-6	20.815665
2035.564228	-3.019000	3.333700	-10.063000	25.843548	-2.095179E-6	20.846835
2036.567409	-2.992200	3.334500	-9.976400	25.829019	-4.635789E-6	20.850733
2037.556077	-2.999600	3.332600	-9.995500	25.827848	-4.008885E-6	20.837229
2038.561610	-3.001900	3.332500	-10.002000	25.844075	-3.942895E-6	20.825554
2039.556733	-2.979900	3.333700	-9.932800	25.825942	-3.250001E-6	20.835788
2040.563593	-3.005200	3.332100	-10.013000	25.845797	-3.579951E-6	20.843879
2041.561821	-3.015500	3.332200	-10.047000	25.861098	-4.437819E-6	20.846447
2042.571207	-3.023100	3.331500	-10.071000	25.854735	-7.077414E-6	20.827254
2043.558164	-3.018200	3.332000	-10.056000	25.866964	-7.110409E-6	20.828159
2044.556013	-2.998100	3.331000	-9.985500	25.856604	-8.661172E-6	20.822494
2045.566411	-2.993200	3.331700	-9.971500	25.859657	-6.450511E-6	20.821767
2046.556440	-2.994600	3.330800	-9.974200	25.861796	-5.988581E-6	20.824391
2047.564129	-2.998800	3.332000	-9.990600	25.866988	-7.770308E-6	20.836244
2048.555486	-2.994200	3.329100	-9.967500	25.879107	-9.980969E-6	20.835142
2049.556873	-2.997500	3.329900	-9.980100	25.864653	-8.793151E-6	20.850493
2050.560618	-2.989100	3.329800	-9.952400	25.888155	-9.090106E-6	20.820998
2051.561408	-3.003200	3.329300	-9.997600	25.876502	-9.947974E-6	20.832999
2052.567884	-3.002600	3.328500	-9.993200	25.887879	-1.031092E-5	20.832574
2053.559292	-2.997100	3.328500	-9.975100	25.873474	-8.595182E-6	20.826638
2054.556762	-2.976100	3.329300	-9.906800	25.873198	-1.060787E-5	20.819723
2055.568478	-3.016900	3.327600	-10.038000	25.874522	-1.202666E-5	20.827691
2056.570562	-2.992900	3.327900	-9.959400	25.887364	-1.172970E-5	20.832531
2057.557625	-3.018800	3.326900	-10.042000	25.885427	-1.212564E-5	20.824895
2058.561323	-3.006900	3.326800	-10.002000	25.886941	-1.397336E-5	20.830684
2059.585914	-3.020500	3.325800	-10.045000	25.869777	-1.351143E-5	20.805856
2060.569117	-3.034500	3.325100	-10.089000	25.863421	-1.397336E-5	20.830764
2061.573823	-3.000500	3.326000	-9.979000	25.891274	-1.598605E-5	20.822709
2062.566099	-3.005900	3.325600	-9.994300	25.879420	-1.443529E-5	20.814119
2063.563496	-3.004100	3.325000	-9.987700	25.873584	-1.687691E-5	20.811102
2064.563270	-3.007500	3.325600	-10.001000	25.889754	-1.585407E-5	20.817389
2065.563628	-2.998500	3.325200	-9.969700	25.894873	-1.582107E-5	20.805462
2066.564738	-2.969200	3.324800	-9.870500	25.887499	-1.456727E-5	20.839778
2067.568641	-3.002600	3.323200	-9.977000	25.885273	-1.727285E-5	20.819526
2068.564390	-2.990600	3.324000	-9.940100	25.908891	-1.760280E-5	20.810536
2069.566571	-2.973600	3.324500	-9.885700	25.910724	-1.704189E-5	20.804316
2070.565716	-3.008200	3.322700	-9.994800	25.919128	-1.638199E-5	20.799008
2071.566133	-2.992300	3.323700	-9.944200	25.911349	-1.733884E-5	20.820591
2072.566994	-2.999900	3.323400	-9.968900	25.909933	-2.014341E-5	20.809686
2073.582159	-3.015800	3.321300	-10.015000	25.941660	-2.070433E-5	20.808368
2074.565894	-3.015300	3.321300	-10.014000	25.901370	-1.925255E-5	20.820523
2075.564485	-2.999000	3.321800	-9.961200	25.900175	-1.991245E-5	20.806995
2076.571242	-3.024700	3.321800	-10.047000	25.930847	-1.941752E-5	20.802721
2077.570004	-2.994500	3.321900	-9.946400	25.911355	-2.225509E-5	20.815382
2078.579625	-3.006200	3.320500	-9.980900	25.913666	-2.143021E-5	20.825764
2079.572203	-2.992400	3.321100	-9.937100	25.902762	-2.360788E-5	20.808171
2080.568634	-3.008000	3.319700	-9.984100	25.915726	-2.212311E-5	20.798910
2081.572955	-3.005700	3.319500	-9.976600	25.935671	-2.340991E-5	20.809938
2082.571750	-2.986600	3.318800	-9.910700	25.919600	-2.242006E-5	20.791896
2083.574558	-2.986300	3.319900	-9.913500	25.937516	-2.199113E-5	20.792352
2084.579021	-3.006800	3.319000	-9.978100	25.944970	-2.651144E-5	20.809322
2085.572896	-3.005900	3.318000	-9.971900	25.953808	-2.284900E-5	20.790701
2086.568902	-3.002200	3.318500	-9.961300	25.951081	-2.700636E-5	20.788435
2087.572654	-2.981100	3.318200	-9.891300	25.961856	-2.373986E-5	20.793571
2088.570546	-3.001500	3.316800	-9.954400	25.962978	-2.479570E-5	20.793749
2089.573664	-3.018800	3.317500	-10.014000	25.970455	-2.634646E-5	20.797469
2090.577302	-2.994700	3.317100	-9.932200	25.960422	-2.637946E-5	20.802087
2091.571721	-3.014300	3.316100	-9.994800	25.969665	-2.746829E-5	20.794304
2092.574941	-3.006100	3.315900	-9.967100	25.976198	-2.872210E-5	20.795652
2093.577047	-2.992400	3.316200	-9.922300	25.969168	-2.710534E-5	20.792856
2094.583519	-2.983800	3.316000	-9.893200	25.982708	-2.974494E-5	20.786070
2095.589187	-3.025800	3.314000	-10.026000	25.979006	-2.892007E-5	20.804636
2096.576540	-3.009800	3.313700	-9.972000	25.977712	-2.816118E-5	20.804760
2097.577015	-3.010600	3.314400	-9.976600	25.977964	-2.826017E-5	20.803115
2098.581759	-3.005100	3.314800	-9.959700	25.984945	-2.723732E-5	20.773145
2099.573266	-2.992300	3.315000	-9.918500	25.988218	-3.050382E-5	20.789236
2100.580790	-3.012100	3.314100	-9.981200	25.980495	-3.228555E-5	20.803762
2101.574051	-3.014800	3.313500	-9.988900	25.994034	-3.030585E-5	20.780855
2102.578654	-3.015800	3.313400	-9.991500	25.984773	-3.218657E-5	20.809008
2103.576704	-2.994100	3.312700	-9.917700	25.999918	-3.149367E-5	20.790085
2104.577322	-3.021200	3.312300	-10.006000	26.015719	-3.278047E-5	20.769450
2105.587309	-2.984600	3.312200	-9.884400	25.999275	-3.179063E-5	20.782326
2106.574034	-2.989800	3.311300	-9.899400	26.010699	-3.251652E-5	20.795227
2107.578078	-3.026000	3.311700	-10.020000	26.043109	-3.327540E-5	20.787013
2108.574979	-2.979000	3.311700	-9.864000	26.000115	-3.314342E-5	20.783644
2109.593368	-2.993000	3.311000	-9.908900	26.020457	-3.287946E-5	20.783219
2110.583775	-2.998500	3.310100	-9.924400	26.030294	-3.350636E-5	20.796896
2111.575124	-3.015700	3.311000	-9.983700	26.005527	-3.476017E-5	20.781969
2112.585796	-3.008000	3.309900	-9.955400	26.041050	-3.561804E-5	20.807703
2113.578120	-2.993800	3.310000	-9.908600	26.017748	-3.650890E-5	20.786662
2114.581127	-3.005700	3.309400	-9.946600	26.032322	-3.723479E-5	20.791822
2115.579328	-3.005100	3.309000	-9.942600	26.024925	-3.680586E-5	20.782967
2116.581937	-3.006000	3.307700	-9.941600	26.033193	-3.654190E-5	20.794119
2117.581721	-2.992700	3.309200	-9.902700	26.056869	-3.779571E-5	20.788035
2118.579150	-3.008300	3.307600	-9.949400	26.053412	-3.733378E-5	20.789303
2119.594313	-3.010100	3.306500	-9.951600	26.056844	-3.627794E-5	20.779001
2120.580451	-3.006600	3.307600	-9.944200	26.056366	-3.990738E-5	20.772831
2121.578642	-3.004700	3.307400	-9.936500	26.065375	-4.000637E-5	20.794211
2122.592005	-3.004900	3.306800	-9.936100	26.058352	-4.043530E-5	20.787154
2123.579789	-2.986600	3.306400	-9.873800	26.061631	-4.201906E-5	20.770060
2124.577199	-2.993200	3.306600	-9.896200	26.059326	-4.314089E-5	20.793349
2125.585594	-2.999200	3.305400	-9.912700	26.071044	-4.152414E-5	20.773829
2126.588941	-3.008200	3.304400	-9.940100	26.070376	-4.251398E-5	20.772209
2127.583710	-3.001600	3.304200	-9.917300	26.053038	-4.350383E-5	20.773280
2128.580446	-2.987400	3.306000	-9.875400	26.063420	-4.251398E-5	20.792247
2129.587042	-3.005400	3.305100	-9.932400	26.061508	-4.479064E-5	20.786058
2130.583938	-3.019600	3.302900	-9.971500	26.063592	-4.201906E-5	20.777720
2131.582544	-2.997600	3.302300	-9.898500	26.081874	-4.561551E-5	20.779020
2132.579847	-2.995000	3.302800	-9.890000	26.101890	-4.591246E-5	20.767363
2133.583718	-3.005600	3.302900	-9.926300	26.093573	-4.554952E-5	20.787930
2134.582932	-3.012600	3.302100	-9.946800	26.070125	-4.564850E-5	20.758680
2135.580006	-2.995700	3.301900	-9.889800	26.088284	-4.693531E-5	20.777400
2136.585691	-2.999300	3.301500	-9.901500	26.091876	-5.063074E-5	20.788595
2137.585289	-2.997400	3.300500	-9.891500	26.105769	-4.828810E-5	20.771735
2138.582993	-2.978900	3.301600	-9.833800	26.105266	-4.993785E-5	20.776920
2139.586104	-3.012100	3.299300	-9.937100	26.094468	-5.016881E-5	20.776975
2140.592845	-3.019600	3.300400	-9.965300	26.111573	-5.010282E-5	20.761919
2141.592771	-3.006100	3.300000	-9.918800	26.120863	-5.105968E-5	20.797807
2142.593450	-2.993600	3.300500	-9.879600	26.119846	-4.818912E-5	20.784931
2143.596416	-2.974200	3.299500	-9.812700	26.100247	-5.373227E-5	20.773299
2144.592586	-3.005300	3.299200	-9.914800	26.123045	-5.290739E-5	20.776766
2145.595633	-2.994100	3.299100	-9.877000	26.100088	-5.439217E-5	20.772665
2146.595821	-2.971800	3.298200	-9.800600	26.111536	-5.277541E-5	20.759037
2147.599777	-2.984100	3.297700	-9.839700	26.138807	-5.419420E-5	20.770793
2148.587830	-3.000200	3.297900	-9.893400	26.112952	-5.521704E-5	20.789858
2149.594531	-2.984300	3.297900	-9.840500	26.129713	-5.432618E-5	20.764025
2150.589448	-3.026700	3.296300	-9.976100	26.135896	-5.557998E-5	20.768816
2151.591370	-3.004000	3.295900	-9.900100	26.118087	-5.498607E-5	20.766568
2152.595039	-2.985300	3.296100	-9.839400	26.129284	-5.320435E-5	20.759801
2153.594610	-3.002000	3.295600	-9.892400	26.147264	-5.435917E-5	20.783084
2154.588752	-3.001500	3.295800	-9.891800	26.143808	-5.600892E-5	20.767283
2155.594518	-3.008600	3.294800	-9.911800	26.144458	-5.647085E-5	20.752288
2156.597725	-3.020600	3.294100	-9.949400	26.146811	-5.716374E-5	20.764136
2157.589777	-2.995700	3.295100	-9.870400	26.152621	-5.884648E-5	20.765706
2158.595480	-3.013400	3.293500	-9.923200	26.134959	-6.085918E-5	20.770245
2159.590654	-2.982900	3.294000	-9.824900	26.152768	-5.897846E-5	20.757793
2160.595111	-2.992100	3.293700	-9.854300	26.147454	-6.171704E-5	20.770947
2161.592289	-3.004800	3.292400	-9.891900	26.179566	-6.151908E-5	20.775239
2162.590010	-2.990900	3.292600	-9.847300	26.143777	-5.937440E-5	20.750656
2163.596272	-3.011000	3.291100	-9.908600	26.170343	-6.138710E-5	20.765497
2164.589381	-3.012900	3.292000	-9.917800	26.160563	-6.155207E-5	20.772265
2165.588814	-3.026400	3.290800	-9.957900	26.173475	-6.376273E-5	20.752522
2166.593122	-2.996800	3.290000	-9.858500	26.166323	-6.181603E-5	20.768570
2167.605520	-2.990500	3.291300	-9.841900	26.179603	-6.528050E-5	20.748723
2168.591702	-3.011000	3.290000	-9.905700	26.190688	-6.389471E-5	20.748482
2169.597427	-3.004100	3.289700	-9.881800	26.187876	-6.412568E-5	20.757036
2170.590417	-3.008700	3.288900	-9.893400	26.188299	-6.504954E-5	20.750348
2171.595729	-2.989500	3.290500	-9.835500	26.175632	-6.607238E-5	20.755164
2172.595541	-2.988900	3.289500	-9.830800	26.186313	-6.511552E-5	20.753095
2173.603014	-2.990300	3.288200	-9.830800	26.191724	-6.660030E-5	20.750471
2174.592513	-3.029200	3.287200	-9.956600	26.189910	-6.630334E-5	20.755761
2175.608813	-3.003500	3.287400	-9.873700	26.172029	-6.693025E-5	20.766716
2176.594549	-3.023000	3.286800	-9.935600	26.191252	-6.686426E-5	20.741936
2177.603363	-2.991700	3.287900	-9.834900	26.181496	-6.752416E-5	20.753470
2178.601895	-3.014400	3.285400	-9.902700	26.205604	-6.910791E-5	20.746875
2179.604216	-2.984300	3.286200	-9.806000	26.202252	-7.039472E-5	20.780018
2180.601847	-3.004800	3.286100	-9.873400	26.197086	-6.970182E-5	20.776249
2181.603422	-3.015800	3.284900	-9.905100	26.216187	-7.135157E-5	20.732379
2182.599235	-3.021000	3.285600	-9.924500	26.222474	-6.986680E-5	20.737749
2183.602273	-3.002800	3.285400	-9.864500	26.243529	-7.065868E-5	20.766020
2184.602492	-2.995400	3.284900	-9.838000	26.228308	-7.290233E-5	20.741240
2185.599744	-2.970700	3.285000	-9.757800	26.238314	-7.151655E-5	20.752719
2186.605505	-3.008100	3.283800	-9.876400	26.215930	-7.524498E-5	20.741604
2187.601791	-2.996100	3.284500	-9.839300	26.249081	-7.293533E-5	20.754055
2188.601576	-3.010100	3.283600	-9.883100	26.255564	-7.517899E-5	20.733543
2189.604646	-2.996700	3.283400	-9.838400	26.241348	-7.511300E-5	20.736800
2190.603559	-2.997700	3.281300	-9.835000	26.227879	-7.385919E-5	20.756457
2191.607118	-2.999400	3.281700	-9.842500	26.262641	-7.432112E-5	20.745871
2192.611014	-3.006800	3.280900	-9.863300	26.268107	-7.722467E-5	20.752787
2193.604517	-2.995700	3.281000	-9.827900	26.251097	-7.748863E-5	20.749917
2194.601862	-3.003500	3.281600	-9.855600	26.241489	-7.791757E-5	20.753064
2195.606658	-2.992300	3.280700	-9.816000	26.210966	-7.821452E-5	20.743728
2196.602926	-2.983300	3.280400	-9.785500	26.242726	-7.554193E-5	20.747195
2197.608819	-3.019000	3.279000	-9.898900	26.229325	-7.722467E-5	20.739418
2198.618902	-2.969800	3.280100	-9.740200	26.242757	-7.527797E-5	20.745804
2199.610970	-2.993800	3.279600	-9.817000	26.240520	-7.738965E-5	20.748772
2200.617731	-3.025600	3.278200	-9.917700	26.238707	-8.022721E-5	20.746949
2201.607473	-2.988100	3.278800	-9.796200	26.247647	-8.042518E-5	20.740286
2202.605009	-2.988200	3.278200	-9.794800	26.243425	-7.950132E-5	20.748846
2203.606243	-3.001800	3.277600	-9.837900	26.265460	-7.758762E-5	20.747281
2204.604979	-3.012500	3.277500	-9.872200	26.256887	-8.138204E-5	20.736295
2205.602730	-3.007200	3.276200	-9.850800	26.277078	-8.062315E-5	20.736197
2206.607403	-3.003000	3.276100	-9.837100	26.279958	-8.204194E-5	20.741462
2207.614563	-3.009400	3.275800	-9.856900	26.270724	-8.187696E-5	20.759210
2208.612656	-2.982000	3.275800	-9.767200	26.296698	-8.497849E-5	20.730784
2209.614743	-2.986900	3.275900	-9.783800	26.286042	-8.550641E-5	20.733352
2210.606814	-3.005400	3.275100	-9.841700	26.283585	-8.402163E-5	20.725666
2211.612959	-2.995600	3.275500	-9.810500	26.285577	-8.461554E-5	20.734306
2212.604758	-3.010300	3.274000	-9.855100	26.279216	-8.540742E-5	20.735975
2213.607965	-2.967400	3.275400	-9.718100	26.280430	-8.586935E-5	20.734349
2214.615749	-3.028800	3.273300	-9.912800	26.303273	-8.577037E-5	20.727434
2215.612794	-2.994100	3.273600	-9.800500	26.292605	-8.527544E-5	20.723351
2216.606837	-3.009900	3.273100	-9.850500	26.291361	-8.784905E-5	20.750551
2217.616475	-3.011700	3.272000	-9.852400	26.309768	-8.798103E-5	20.736806
2218.619647	-3.007200	3.270800	-9.834300	26.290270	-8.768407E-5	20.748507
2219.616487	-2.988400	3.271800	-9.776700	26.313616	-8.996073E-5	20.726448
2220.618287	-3.019300	3.270700	-9.874500	26.302335	-8.702417E-5	20.729811
2221.618018	-3.032500	3.269500	-9.913700	26.318530	-9.029068E-5	20.727594
2222.613314	-2.999900	3.270700	-9.811000	26.323095	-8.804702E-5	20.737398
2223.612645	-3.007000	3.270200	-9.832300	26.306759	-9.088458E-5	20.722877
2224.616401	-3.002100	3.269700	-9.815100	26.325509	-9.104956E-5	20.722753
2225.615365	-3.020200	3.269200	-9.872400	26.323346	-8.992773E-5	20.726270
2226.620296	-2.997900	3.270700	-9.803900	26.315919	-8.956479E-5	20.719280
2227.616634	-3.023300	3.268100	-9.879600	26.311973	-9.316124E-5	20.724324
2228.627869	-3.024000	3.267400	-9.879000	26.324590	-9.296327E-5	20.715191
2229.615742	-3.002200	3.267800	-9.809200	26.341207	-9.137951E-5	20.728099
2230.616396	-3.015300	3.267100	-9.850700	26.326654	-9.316124E-5	20.734811
2231.615196	-3.004400	3.266400	-9.812400	26.344583	-9.260032E-5	20.710628
2232.616887	-3.001500	3.266100	-9.802400	26.336090	-9.415109E-5	20.728647
2233.620578	-3.009000	3.264200	-9.820800	26.348014	-9.401911E-5	20.735889
2234.621443	-2.996200	3.266400	-9.786200	26.332028	-9.352418E-5	20.735944
2235.627545	-2.997400	3.265600	-9.787500	26.355587	-9.464601E-5	20.732120
2236.613118	-2.998700	3.265500	-9.791500	26.347916	-9.236936E-5	20.721565
2237.616142	-3.012700	3.264700	-9.835000	26.358791	-9.490997E-5	20.714951
2238.616187	-3.005200	3.264100	-9.807500	26.359171	-9.504195E-5	20.722445
2239.650163	-3.023600	3.262700	-9.864300	26.373098	-9.408510E-5	20.705621
2240.622594	-3.005600	3.263000	-9.806500	26.386111	-9.593281E-5	20.727711
2241.619703	-2.986100	3.263900	-9.745400	26.360237	-9.570185E-5	20.727785
2242.632656	-3.005600	3.262200	-9.803800	26.369991	-9.764855E-5	20.723837
2243.621459	-2.993600	3.262400	-9.764700	26.372154	-9.718662E-5	20.751142
2244.623254	-2.996200	3.263400	-9.776900	26.386908	-9.731860E-5	20.728511
2245.618679	-3.008900	3.261300	-9.811600	26.393317	-9.811048E-5	20.747756
2246.619325	-2.974000	3.261400	-9.698600	26.375763	-9.863840E-5	20.727267
2247.628475	-3.012200	3.260100	-9.819100	26.403395	-9.926530E-5	20.714261
2248.628752	-3.003800	3.260100	-9.791800	26.378300	-0.000100	20.731239
2249.619605	-3.040400	3.259000	-9.907100	26.403107	-9.929830E-5	20.710652
2250.624827	-2.992500	3.260000	-9.754100	26.384708	-0.000101	20.722033
2251.617422	-3.013200	3.259000	-9.818200	26.388911	-0.000100	20.721041
2252.620439	-3.013900	3.258100	-9.818000	26.418504	-0.000100	20.721386
2253.625418	-2.986000	3.258300	-9.728400	26.425709	-9.982622E-5	20.728154
2254.622120	-2.971800	3.258400	-9.681400	26.416868	-9.972723E-5	20.722587
2255.622246	-3.009300	3.257300	-9.799600	26.418988	-0.000102	20.725192
2256.628402	-3.027800	3.255800	-9.856900	26.433343	-0.000102	20.731560
2257.626589	-3.003800	3.257300	-9.782000	26.424778	-0.000101	20.719157
2258.624070	-3.004800	3.255600	-9.781400	26.429599	-0.000101	20.729694
2259.625981	-3.017900	3.256100	-9.825400	26.444916	-0.000103	20.720432
2260.624603	-3.008400	3.255100	-9.791200	26.445712	-0.000101	20.740199
2261.626565	-3.001200	3.255500	-9.769100	26.436626	-0.000103	20.726325
2262.625798	-3.014100	3.254300	-9.806500	26.444260	-0.000102	20.720247
2263.624953	-2.994100	3.255000	-9.743800	26.430647	-0.000102	20.723160
2264.625436	-2.981200	3.254300	-9.700200	26.460618	-0.000104	20.745699
2265.625109	-3.002100	3.253200	-9.765400	26.438354	-0.000103	20.735649
2266.625064	-2.998700	3.252800	-9.753500	26.434108	-0.000103	20.746555
2267.628825	-2.996500	3.251600	-9.742300	26.456330	-0.000105	20.720050
2268.630414	-3.016800	3.251500	-9.809000	26.428876	-0.000107	20.732760
2269.623468	-3.013200	3.250700	-9.794100	26.457132	-0.000105	20.745988
2270.635080	-2.993400	3.250900	-9.729900	26.461831	-0.000106	20.731744
2271.628867	-3.014500	3.249800	-9.794800	26.472938	-0.000105	20.737219
2272.630541	-2.987500	3.251300	-9.711800	26.468815	-0.000106	20.733075
2273.635638	-2.988300	3.250000	-9.711100	26.467051	-0.000105	20.737465
2274.628381	-3.007600	3.249100	-9.770200	26.481754	-0.000105	20.707198
2275.629263	-3.014300	3.248000	-9.789800	26.478262	-0.000104	20.744467
2276.628629	-3.005300	3.248300	-9.761300	26.474733	-0.000108	20.743765
2277.635640	-3.001700	3.248700	-9.750000	26.473747	-0.000110	20.747515
2278.631225	-3.007200	3.246000	-9.760600	26.464613	-0.000108	20.745921
2279.625669	-2.997600	3.247300	-9.732700	26.491250	-0.000107	20.732865
2280.631914	-3.001100	3.246800	-9.742700	26.484456	-0.000108	20.729355
2281.635935	-2.995700	3.246900	-9.725600	26.479935	-0.000109	20.728604
2282.633136	-2.995100	3.245800	-9.720800	26.473043	-0.000109	20.744436
2283.631622	-3.002100	3.244100	-9.738700	26.495612	-0.000109	20.708799
2284.631346	-2.970100	3.246700	-9.641400	26.486570	-0.000109	20.732428
2285.631502	-3.020300	3.245100	-9.799500	26.487948	-0.000109	20.749936
2286.632485	-3.003000	3.244400	-9.742100	26.505573	-0.000109	20.722132
2287.634666	-3.025800	3.244000	-9.814900	26.518684	-0.000109	20.731991
2288.635262	-3.010000	3.243300	-9.760600	26.523903	-0.000110	20.755256
2289.629896	-3.002000	3.242600	-9.733000	26.508710	-0.000111	20.741407
2290.632719	-3.008300	3.242600	-9.754500	26.532094	-0.000110	20.747368
2291.636599	-3.024800	3.241400	-9.802900	26.531579	-0.000112	20.728358
2292.643335	-3.016800	3.240400	-9.774100	26.535873	-0.000111	20.732200
2293.632419	-2.995700	3.242100	-9.711300	26.553504	-0.000113	20.729534
2294.636384	-3.017400	3.240100	-9.773900	26.535757	-0.000113	20.740145
2295.638846	-2.980800	3.241700	-9.661400	26.545026	-0.000112	20.741401
2296.637430	-3.000700	3.239700	-9.720800	26.538538	-0.000112	20.747208
2297.635501	-3.020800	3.239400	-9.784900	26.541124	-0.000111	20.728943
2298.633450	-3.003700	3.240000	-9.731000	26.551078	-0.000112	20.749382
2299.641532	-2.998400	3.238300	-9.709000	26.575637	-0.000114	20.738981
2300.633717	-2.984700	3.238400	-9.664800	26.584134	-0.000110	20.749893
2301.634881	-2.980700	3.237600	-9.648900	26.570455	-0.000113	20.738039
2302.632171	-2.983600	3.236400	-9.655200	26.571545	-0.000114	20.735341
2303.648781	-2.998800	3.236300	-9.704000	26.596201	-0.000114	20.744006
2304.636760	-2.985800	3.237400	-9.664900	26.573554	-0.000113	20.753483
2305.637794	-2.998500	3.236700	-9.703700	26.580415	-0.000115	20.720549
2306.637623	-2.976700	3.235500	-9.630200	26.576213	-0.000115	20.752362
2307.636903	-2.991500	3.234300	-9.673800	26.580783	-0.000115	20.763121
2308.635190	-3.012100	3.235000	-9.743800	26.582547	-0.000114	20.738815
2309.633447	-3.011200	3.233600	-9.735400	26.574810	-0.000115	20.750004
2310.643167	-3.004200	3.233300	-9.712500	26.597837	-0.000116	20.742331
2311.649173	-3.007900	3.233200	-9.723900	26.571153	-0.000115	20.734947
2312.636506	-2.987900	3.233400	-9.660000	26.570663	-0.000115	20.741567
2313.660738	-3.004000	3.232100	-9.707500	26.589028	-0.000116	20.749123
2314.651917	-3.007600	3.231200	-9.717500	26.610658	-0.000117	20.758065
2315.651917	-2.996500	3.231100	-9.681300	26.598940	-0.000119	20.747233
2316.645987	-2.994600	3.231500	-9.676700	26.586504	-0.000118	20.748483
2317.645178	-3.015300	3.229800	-9.737200	26.614051	-0.000118	20.744880
2318.639870	-3.002200	3.230200	-9.696500	26.640943	-0.000119	20.749154
2319.641553	-3.001000	3.229300	-9.690000	26.626248	-0.000117	20.750029
2320.639827	-3.000800	3.229300	-9.688600	26.631344	-0.000118	20.746143
2321.640677	-3.004600	3.228800	-9.700000	26.634621	-0.000117	20.757973
2322.640402	-2.991200	3.228300	-9.655700	26.641941	-0.000115	20.743994
2323.642658	-2.995700	3.227100	-9.666900	26.644526	-0.000118	20.768878
2324.647136	-3.004200	3.227800	-9.695200	26.657757	-0.000118	20.765584
2325.646455	-2.997000	3.227100	-9.670800	26.639222	-0.000119	20.738889
2326.656380	-3.012800	3.226000	-9.717400	26.647607	-0.000119	20.757277
2327.646987	-3.008500	3.225200	-9.701200	26.651975	-0.000120	20.765935
2328.654254	-2.995300	3.226000	-9.661800	26.648330	-0.000117	20.742356
2329.643383	-2.997700	3.225000	-9.666800	26.656024	-0.000119	20.748194
2330.650494	-2.999600	3.224300	-9.671200	26.646492	-0.000121	20.747621
2331.662866	-3.010700	3.223400	-9.703100	26.635075	-0.000119	20.757006
2332.643843	-3.027100	3.222700	-9.753600	26.651062	-0.000121	20.762647
2333.650399	-3.016600	3.222100	-9.719000	26.664795	-0.000121	20.771237
2334.643976	-3.019600	3.221400	-9.725600	26.659184	-0.000120	20.775080
2335.662971	-2.986400	3.221500	-9.619000	26.665218	-0.000122	20.759334
2336.655468	-2.999400	3.221400	-9.661600	26.672917	-0.000122	20.779877
2337.647073	-3.005300	3.221800	-9.680600	26.703029	-0.000120	20.760836
2338.655752	-3.005700	3.221600	-9.682700	26.685327	-0.000121	20.755842
2339.653645	-3.006500	3.219400	-9.677900	26.680464	-0.000121	20.780351
2340.649291	-3.008200	3.220200	-9.685500	26.679919	-0.000122	20.772691
2341.655261	-3.003500	3.219400	-9.668700	26.708376	-0.000121	20.748668
2342.663839	-3.011200	3.218600	-9.690400	26.692243	-0.000122	20.769907
2343.657537	-2.994100	3.217900	-9.633800	26.705075	-0.000121	20.759100
2344.655548	-3.010100	3.217200	-9.682900	26.703905	-0.000120	20.772623
2345.665371	-2.984400	3.218000	-9.603300	26.715947	-0.000124	20.759125
2346.666705	-3.006700	3.216600	-9.670400	26.698080	-0.000123	20.752068
2347.667943	-3.010500	3.216000	-9.681400	26.674149	-0.000121	20.764993
2348.657712	-2.991300	3.216600	-9.621300	26.701161	-0.000121	20.752794
2349.651914	-2.998400	3.216200	-9.642900	26.702527	-0.000121	20.770289
2350.660597	-2.978200	3.216300	-9.577900	26.715408	-0.000123	20.765221
2351.653531	-2.999400	3.216100	-9.645000	26.716578	-0.000123	20.759759
2352.656443	-2.980100	3.214300	-9.577000	26.711365	-0.000125	20.754993
2353.658498	-3.006200	3.213400	-9.659600	26.716259	-0.000124	20.775087
2354.655402	-3.018500	3.212600	-9.696300	26.731823	-0.000124	20.787415
2355.658791	-2.983700	3.213600	-9.587100	26.714103	-0.000126	20.767703
2356.664641	-3.025500	3.211800	-9.715300	26.734739	-0.000124	20.779915
2357.669653	-2.981300	3.212200	-9.575300	26.739920	-0.000124	20.775167
2358.656867	-3.006700	3.210600	-9.652300	26.738910	-0.000125	20.777470
2359.675368	-2.990100	3.210400	-9.598100	26.750902	-0.000124	20.781941
2360.653968	-2.983100	3.211300	-9.578500	26.766398	-0.000123	20.780925
2361.658005	-2.988100	3.209200	-9.588500	26.751300	-0.000124	20.779970
2362.657314	-2.994700	3.210100	-9.612400	26.747852	-0.000124	20.775555
2363.663972	-2.987400	3.209100	-9.586200	26.750339	-0.000126	20.785168
2364.664026	-3.006900	3.207800	-9.645200	26.758136	-0.000124	20.787317
2365.676998	-3.019500	3.208000	-9.685500	26.774599	-0.000125	20.794386
2366.661586	-2.978100	3.208200	-9.552900	26.760175	-0.000123	20.782255
2367.659596	-2.994600	3.206400	-9.601100	26.777276	-0.000124	20.779533
2368.674055	-3.006700	3.205600	-9.637500	26.781704	-0.000126	20.775451
2369.667520	-2.985800	3.205700	-9.570900	26.792698	-0.000125	20.776547
2370.661709	-2.990500	3.205800	-9.586000	26.791154	-0.000126	20.765986
2371.669474	-2.985200	3.204700	-9.565500	26.787339	-0.000127	20.794392
2372.660533	-2.997800	3.204400	-9.605600	26.780002	-0.000126	20.779903
2373.662749	-3.014700	3.202400	-9.653600	26.784074	-0.000125	20.776886
2374.661417	-2.977200	3.203800	-9.537100	26.799116	-0.000126	20.779207
2375.674845	-2.960900	3.202700	-9.481500	26.808897	-0.000127	20.811327
2376.659705	-2.992000	3.202000	-9.578900	26.808236	-0.000127	20.804024
2377.661531	-2.999400	3.201500	-9.602200	26.806497	-0.000127	20.803697
2378.662296	-3.014800	3.200800	-9.648400	26.826732	-0.000129	20.790378
2379.672013	-2.991000	3.201200	-9.574200	26.807753	-0.000125	20.786468
2380.660901	-3.010800	3.199300	-9.630400	26.820681	-0.000126	20.774811
2381.667759	-3.016000	3.199700	-9.649900	26.813559	-0.000127	20.796573
2382.680650	-2.999600	3.197700	-9.591600	26.816572	-0.000124	20.792965
2383.656025	-2.995700	3.198500	-9.581200	26.830573	-0.000127	20.792817
2384.663666	-2.992500	3.197500	-9.567200	26.830125	-0.000127	20.804222
2385.665219	-3.019300	3.197100	-9.650800	26.818545	-0.000127	20.788784
2386.655903	-3.000900	3.197000	-9.592800	26.819188	-0.000125	20.798440
2387.659329	-3.012100	3.195500	-9.623000	26.839821	-0.000127	20.795952
2388.661933	-3.007100	3.195300	-9.608000	26.836820	-0.000128	20.798625
2389.667401	-3.010200	3.194800	-9.616000	26.847948	-0.000127	20.777571
2390.668893	-3.015000	3.195000	-9.631800	26.846533	-0.000126	20.795589
2391.657459	-3.009200	3.194200	-9.611300	26.853093	-0.000127	20.783218
2392.675817	-2.985100	3.194300	-9.534700	26.832693	-0.000127	20.776931
2393.672194	-3.004100	3.192200	-9.587500	26.870945	-0.000126	20.803065
2394.663795	-3.011200	3.192300	-9.612000	26.855065	-0.000128	20.786624
2395.671375	-2.991300	3.192800	-9.550000	26.882293	-0.000127	20.791717
2396.683147	-3.021300	3.191100	-9.640800	26.874105	-0.000129	20.808140
2397.672621	-2.989200	3.191000	-9.537300	26.878202	-0.000128	20.803250
2398.667122	-2.987300	3.191600	-9.533400	26.890542	-0.000128	20.793373
2399.669356	-2.998700	3.190200	-9.565900	26.873653	-0.000127	20.806262
2400.672360	-3.006300	3.190000	-9.589100	26.876231	-0.000129	20.795104
2401.669504	-3.006000	3.188300	-9.582800	26.906263	-0.000126	20.822931
2402.662961	-2.997500	3.187200	-9.553000	26.885092	-0.000128	20.816817
2403.675581	-2.987300	3.188100	-9.522600	26.908400	-0.000130	20.801373
2404.676979	-2.995200	3.188200	-9.547800	26.902926	-0.000130	20.818627
2405.672577	-2.984300	3.187300	-9.511900	26.894738	-0.000129	20.795696
2406.670049	-3.009100	3.186600	-9.588100	26.899093	-0.000128	20.835635
2407.670086	-2.974600	3.185700	-9.474900	26.909638	-0.000127	20.823006
2408.675164	-2.994600	3.185100	-9.537500	26.902988	-0.000128	20.818689
2409.668365	-3.003600	3.183800	-9.561900	26.906742	-0.000130	20.815352
2410.674965	-2.998200	3.184000	-9.545000	26.926840	-0.000129	20.816596
2411.676929	-2.973300	3.183900	-9.466100	26.927025	-0.000129	20.817255
2412.686014	-2.995000	3.183700	-9.534400	26.930674	-0.000129	20.817132
2413.664575	-2.971000	3.183700	-9.457900	26.922714	-0.000130	20.825722
2414.682454	-2.966300	3.182300	-9.439100	26.916712	-0.000129	20.803093
2415.666235	-3.006100	3.181400	-9.562000	26.934012	-0.000128	20.807213
2416.676956	-3.007800	3.181600	-9.568300	26.926572	-0.000129	20.813481
2417.680738	-2.991300	3.179700	-9.510300	26.933749	-0.000130	20.812164
2418.673946	-2.999000	3.180000	-9.536700	26.925684	-0.000128	20.813537
2419.685164	-2.989300	3.179400	-9.503200	26.929812	-0.000130	20.819584
2420.672840	-3.022400	3.177800	-9.603600	26.949647	-0.000130	20.840003
2421.674361	-2.999500	3.177700	-9.530900	26.960615	-0.000130	20.815471
2422.673153	-2.985600	3.178800	-9.489300	26.961662	-0.000131	20.829326
2423.679521	-2.985000	3.177200	-9.482100	26.959727	-0.000131	20.822165
2424.683766	-2.979300	3.176600	-9.462900	26.945637	-0.000129	20.815583
2425.683776	-3.008500	3.175600	-9.552800	26.970750	-0.000131	20.812387
2426.679313	-3.006200	3.175800	-9.545800	26.984074	-0.000133	20.819622
2427.683789	-3.008400	3.174800	-9.550200	26.979366	-0.000130	20.815361
2428.677555	-3.004700	3.173900	-9.534900	26.969715	-0.000132	20.805182
2429.681555	-3.001400	3.172800	-9.522000	26.973794	-0.000132	20.845319
2430.687981	-2.984600	3.172900	-9.469000	26.971730	-0.000130	20.828545
2431.689418	-2.989800	3.171900	-9.482500	26.977688	-0.000128	20.827424
2432.678086	-2.997200	3.171600	-9.504800	26.977762	-0.000130	20.835085
2433.675309	-2.999300	3.171200	-9.510700	26.986898	-0.000130	20.812504
2434.676668	-3.024700	3.168800	-9.583100	26.999635	-0.000131	20.832899
2435.686436	-2.995300	3.170400	-9.495400	27.001246	-0.000130	20.839260
2436.682705	-3.015600	3.168700	-9.555200	27.006481	-0.000133	20.836938
2437.697224	-3.008000	3.168000	-9.528600	26.994553	-0.000131	20.826840
2438.681021	-2.974100	3.167800	-9.420400	26.998423	-0.000130	20.821723
2439.680704	-2.987600	3.167300	-9.461200	27.003640	-0.000133	20.817013
2440.677182	-3.013300	3.165900	-9.538500	27.007828	-0.000132	20.826914
2441.675488	-2.989400	3.165700	-9.462200	27.012550	-0.000130	20.829765
2442.673760	-3.015900	3.164300	-9.542000	27.006298	-0.000131	20.820159
2443.686042	-2.994600	3.164900	-9.476500	27.017191	-0.000130	20.824476
2444.699643	-3.013900	3.163900	-9.535100	27.050618	-0.000131	20.842918
2445.678528	-2.995600	3.163600	-9.476600	27.041733	-0.000130	20.837302
2446.684647	-2.992300	3.163200	-9.464400	27.039474	-0.000133	20.841668
2447.691762	-2.997700	3.161500	-9.476900	27.056998	-0.000132	20.843171
2448.697215	-2.982600	3.161700	-9.429300	27.051916	-0.000133	20.835215
2449.687214	-3.019800	3.160800	-9.544400	27.070500	-0.000130	20.822611
2450.686558	-3.013000	3.160400	-9.521500	27.057690	-0.000131	20.844341
2451.686176	-2.970900	3.160500	-9.388500	27.078263	-0.000131	20.847961
2452.685233	-3.000100	3.159400	-9.477200	27.087637	-0.000132	20.854069
2453.677508	-2.999200	3.159000	-9.473500	27.068987	-0.000130	20.854753
2454.692720	-3.001700	3.157300	-9.476300	27.080872	-0.000132	20.878084
2455.681595	-3.022200	3.157600	-9.541400	27.079733	-0.000128	20.838534
2456.687645	-2.982100	3.157800	-9.416200	27.072386	-0.000129	20.828300
2457.694211	-3.007500	3.155600	-9.489600	27.092236	-0.000129	20.844944
2458.682498	-2.983300	3.155200	-9.412400	27.089114	-0.000131	20.850339
2459.684542	-3.017400	3.154900	-9.518700	27.072808	-0.000131	20.861915
2460.695063	-3.010100	3.155100	-9.496500	27.091422	-0.000132	20.848393
2461.690981	-2.987200	3.154700	-9.422600	27.088918	-0.000130	20.852512
2462.683522	-2.977400	3.153500	-9.388600	27.087975	-0.000132	20.841607
2463.676964	-3.004200	3.152000	-9.467800	27.116765	-0.000131	20.865345
2464.688111	-3.001300	3.150100	-9.453300	27.086113	-0.000129	20.864864
2465.681687	-3.033800	3.150200	-9.555400	27.114872	-0.000131	20.849218
2466.680678	-3.010800	3.149600	-9.482200	27.112889	-0.000130	20.854335
2467.686111	-2.979800	3.149300	-9.383100	27.125226	-0.000129	20.850148
2468.686372	-3.002400	3.149200	-9.454200	27.120187	-0.000130	20.850770
2469.685722	-2.986600	3.147600	-9.398900	27.106466	-0.000130	20.875375
2470.690151	-2.994600	3.148100	-9.426900	27.129567	-0.000130	20.872056
2471.691004	-3.009900	3.149000	-9.477300	27.125502	-0.000131	20.853270
2472.686781	-3.003500	3.146800	-9.450400	27.146416	-0.000129	20.870985
2473.697834	-3.022200	3.145700	-9.504900	27.146245	-0.000128	20.866546
2474.688356	-3.017300	3.144500	-9.487200	27.138255	-0.000130	20.847131
2475.696977	-2.989300	3.144900	-9.399900	27.136841	-0.000130	20.874630
2476.696040	-3.033400	3.142700	-9.532400	27.145847	-0.000130	20.878473
2477.686740	-2.985400	3.141700	-9.378900	27.147261	-0.000132	20.865197
2478.689671	-3.019400	3.141300	-9.484000	27.157713	-0.000130	20.864329
2479.680853	-3.000700	3.141100	-9.424300	27.175921	-0.000129	20.875055
2480.691983	-3.003200	3.140800	-9.430600	27.183788	-0.000130	20.870641
2481.689448	-3.015800	3.139600	-9.466500	27.167484	-0.000131	20.873682
2482.696934	-3.004100	3.139200	-9.430100	27.200165	-0.000131	20.881422
2483.685054	-2.994600	3.138100	-9.396700	27.185129	-0.000130	20.875308
2484.702821	-3.017700	3.137100	-9.465900	27.183568	-0.000130	20.870893
2485.687646	-3.004500	3.137500	-9.425500	27.194980	-0.000131	20.879052
2486.703598	-3.003700	3.136900	-9.421800	27.186250	-0.000131	20.894451
2487.689608	-2.987400	3.137900	-9.373200	27.219224	-0.000129	20.845118
2488.691316	-2.976400	3.136500	-9.335000	27.222028	-0.000133	20.846516
2489.699103	-2.993100	3.135600	-9.384000	27.192262	-0.000131	20.873000
2490.692593	-2.991500	3.134600	-9.375600	27.211167	-0.000131	20.871152
2491.691629	-3.023000	3.132500	-9.467900	27.223246	-0.000128	20.852957
2492.688807	-2.973600	3.132200	-9.312500	27.234070	-0.000130	20.858628
2493.689725	-2.993900	3.131300	-9.373500	27.207225	-0.000130	20.860549
2494.691874	-2.988500	3.130700	-9.355900	27.225438	-0.000131	20.843782
2495.695942	-2.984500	3.129800	-9.340400	27.221422	-0.000131	20.865346
2496.702952	-3.017200	3.128800	-9.439600	27.236881	-0.000131	20.836800
2497.705533	-2.986800	3.128800	-9.343000	27.227086	-0.000132	20.859189
2498.699129	-3.013600	3.126900	-9.422500	27.249168	-0.000129	20.846788
2499.698727	-2.994700	3.126000	-9.359800	27.241650	-0.000132	20.862459
2500.692509	-2.999100	3.125700	-9.373400	27.235626	-0.000130	20.837909
2501.712343	-3.005900	3.125500	-9.394100	27.261828	-0.000131	20.866160
2502.703837	-2.994800	3.123600	-9.354000	27.261015	-0.000133	20.840686
2503.699069	-2.993500	3.123700	-9.350200	27.262129	-0.000131	20.864091
2504.699616	-3.000100	3.123200	-9.369000	27.252358	-0.000132	20.840514
2505.695176	-3.004300	3.122100	-9.378600	27.271765	-0.000134	20.870939
2506.693700	-3.019000	3.120500	-9.420200	27.249065	-0.000133	20.840521
2507.706322	-3.033500	3.118600	-9.458900	27.266097	-0.000131	20.838686
2508.695158	-2.989100	3.118800	-9.321800	27.258726	-0.000131	20.841229
2509.696040	-3.002500	3.117200	-9.357300	27.261352	-0.000132	20.840552
2510.696486	-2.997700	3.117300	-9.343700	27.238456	-0.000130	20.863514
2511.707185	-2.995000	3.116400	-9.332900	27.274453	-0.000133	20.834290
2512.700932	-3.000000	3.116600	-9.349000	27.269892	-0.000133	20.825435
2513.704493	-3.015100	3.115500	-9.392500	27.283796	-0.000131	20.837049
2514.699129	-3.014900	3.113800	-9.387000	27.293492	-0.000132	20.846803
2515.700698	-3.037900	3.112000	-9.452900	27.266568	-0.000130	20.830626
2516.709754	-2.997800	3.112800	-9.330600	27.289495	-0.000130	20.829980
2517.707983	-3.002600	3.111100	-9.340200	27.282944	-0.000129	20.825288
2518.699196	-2.987000	3.110800	-9.290100	27.275671	-0.000132	20.822713
2519.702562	-3.009700	3.109600	-9.358200	27.305239	-0.000130	20.822584
2520.702559	-3.020200	3.108600	-9.387700	27.311122	-0.000130	20.832769
2521.708579	-2.995400	3.108800	-9.311000	27.288245	-0.000128	20.821611
2522.702784	-2.995500	3.107000	-9.306600	27.319967	-0.000129	20.824123
2523.712093	-3.022000	3.107600	-9.390200	27.319869	-0.000131	20.833981
2524.706345	-2.967900	3.105700	-9.216400	27.317555	-0.000128	20.827386
2525.700666	-2.992000	3.104400	-9.287900	27.312866	-0.000130	20.826936
2526.706002	-3.006700	3.103800	-9.331400	27.322635	-0.000131	20.824910
2527.698331	-3.000000	3.103000	-9.308400	27.347415	-0.000129	20.821862
2528.704602	-2.994200	3.101600	-9.286000	27.328726	-0.000129	20.845735
2529.700039	-3.021700	3.099200	-9.364200	27.340827	-0.000131	20.825193
2530.709846	-2.994300	3.100700	-9.283100	27.331676	-0.000129	20.827841
2531.701596	-3.033500	3.098500	-9.398100	27.340496	-0.000131	20.834342
2532.709114	-3.010000	3.097400	-9.322000	27.342798	-0.000129	20.819588
2533.705077	-2.999300	3.097200	-9.288600	27.331895	-0.000130	20.837069
2534.708004	-3.006000	3.096400	-9.306800	27.330181	-0.000129	20.819224
2535.707315	-2.999500	3.095500	-9.283400	27.353717	-0.000129	20.852857
2536.724310	-3.012800	3.093500	-9.319500	27.341994	-0.000131	20.821151
2537.698076	-2.990000	3.093500	-9.248300	27.336987	-0.000130	20.852622
2538.704270	-2.996100	3.092700	-9.265400	27.351666	-0.000131	20.817603
2539.706181	-3.015300	3.092200	-9.322100	27.349156	-0.000130	20.821242
2540.711513	-3.000600	3.090700	-9.273100	27.365818	-0.000129	20.822357
2541.716269	-2.995300	3.088400	-9.250000	27.336374	-0.000131	20.815497
2542.727356	-3.022800	3.087800	-9.331500	27.385785	-0.000131	20.820632
2543.709599	-2.975900	3.088700	-9.191000	27.373401	-0.000129	20.831408
2544.707843	-2.977100	3.088000	-9.192700	27.385478	-0.000132	20.834548
2545.707085	-2.996300	3.085300	-9.243900	27.379467	-0.000129	20.841777
2546.725072	-3.016300	3.083800	-9.300500	27.391875	-0.000130	20.819172
2547.707174	-3.003200	3.083700	-9.259700	27.390926	-0.000128	20.832442
2548.719543	-3.041800	3.079500	-9.366000	27.408058	-0.000128	20.831185
2549.710314	-2.994700	3.081300	-9.226500	27.402053	-0.000131	20.808549
2550.720302	-3.014800	3.079000	-9.281700	27.418176	-0.000132	20.827614
2551.711871	-2.980400	3.079900	-9.178800	27.415446	-0.000130	20.820600
2552.709359	-3.001900	3.079100	-9.241600	27.423446	-0.000130	20.822958
2553.720082	-2.999900	3.076700	-9.229400	27.443387	-0.000131	20.831166
2554.708230	-3.016700	3.075200	-9.275700	27.426714	-0.000130	20.824349
2555.719587	-3.011900	3.073800	-9.256800	27.441887	-0.000130	20.841510
2556.714095	-2.997700	3.074200	-9.214600	27.458977	-0.000131	20.845901
2557.724517	-2.999400	3.072600	-9.215600	27.431261	-0.000129	20.823708
2558.713430	-3.006400	3.071900	-9.233800	27.457256	-0.000130	20.828049
2559.721464	-3.002700	3.069900	-9.217500	27.459753	-0.000130	20.824397
2560.715832	-3.019700	3.069300	-9.266700	27.471033	-0.000132	20.849970
2561.723880	-3.015000	3.067400	-9.247400	27.489187	-0.000131	20.819871
2562.716793	-3.017100	3.066700	-9.251500	27.475391	-0.000129	20.822586
2563.715703	-3.020900	3.065700	-9.260400	27.487620	-0.000130	20.809760
2564.717912	-3.007700	3.063600	-9.214100	27.487363	-0.000130	20.827044
2565.709377	-2.969200	3.064300	-9.097700	27.493636	-0.000131	20.836675
2566.721115	-3.011400	3.061300	-9.217800	27.516282	-0.000131	20.836699
2567.716787	-3.003100	3.060900	-9.191300	27.495937	-0.000132	20.814335
2568.721138	-3.005900	3.058100	-9.191700	27.497571	-0.000132	20.813608
2569.717568	-3.003700	3.058700	-9.186500	27.496402	-0.000131	20.820966
2570.711221	-3.003800	3.056900	-9.180600	27.516691	-0.000129	20.811034
2571.717897	-3.006700	3.055500	-9.186200	27.512126	-0.000132	20.826354
2572.725965	-2.991800	3.053400	-9.134500	27.510234	-0.000129	20.812597
2573.720526	-2.984700	3.054000	-9.114900	27.520755	-0.000131	20.822709
2574.721906	-2.994300	3.052600	-9.139000	27.508300	-0.000129	20.829617
2575.718381	-3.011200	3.049500	-9.181100	27.487062	-0.000132	20.805405
2576.713727	-3.018300	3.048800	-9.201200	27.515859	-0.000131	20.812092
2577.722451	-2.987300	3.048100	-9.103900	27.500031	-0.000129	20.817505
2578.730187	-2.979700	3.049200	-9.084200	27.526391	-0.000130	20.801353
2579.727621	-3.031500	3.045500	-9.231300	27.500294	-0.000131	20.817769
2580.719126	-2.986600	3.045600	-9.094900	27.534452	-0.000131	20.823213
2581.715984	-3.023200	3.042600	-9.197700	27.523062	-0.000127	20.818391
2582.727046	-2.999200	3.042700	-9.125000	27.532805	-0.000129	20.814444
2583.732877	-2.996400	3.040500	-9.108200	27.544336	-0.000130	20.825571
2584.718717	-3.003900	3.039200	-9.128800	27.534041	-0.000131	20.815688
2585.714385	-2.983600	3.038600	-9.064700	27.558963	-0.000131	20.825589
2586.720010	-3.005400	3.038300	-9.130600	27.551043	-0.000130	20.800551
2587.720601	-2.997500	3.036400	-9.099700	27.542738	-0.000130	20.812110
2588.716916	-2.978700	3.034900	-9.039700	27.554244	-0.000132	20.798556
2589.719008	-3.001200	3.032600	-9.100800	27.587170	-0.000132	20.808926
2590.711615	-2.985100	3.032300	-9.050500	27.539702	-0.000129	20.800521
2591.717669	-2.997200	3.031400	-9.084500	27.565988	-0.000131	20.827442
2592.719523	-2.990700	3.028900	-9.058400	27.559905	-0.000131	20.823218
2593.723654	-2.992100	3.028300	-9.060600	27.567445	-0.000130	20.819425
2594.714042	-3.019500	3.026500	-9.136600	27.559084	-0.000132	20.813384
2595.719591	-2.996500	3.025800	-9.066000	27.548490	-0.000133	20.817423
2596.730190	-2.975100	3.025400	-8.999300	27.593559	-0.000130	20.812509
2597.721136	-2.979000	3.022900	-9.004500	27.595089	-0.000129	20.805040
2598.718863	-2.979600	3.022500	-9.005200	27.612769	-0.000131	20.808131
2599.722302	-3.000600	3.019400	-9.059100	27.580896	-0.000131	20.813993
2600.721486	-2.974700	3.020700	-8.984500	27.629996	-0.000132	20.801757
2601.716082	-2.976000	3.018800	-8.983800	27.588356	-0.000131	20.795895
2602.723813	-3.013800	3.015600	-9.086700	27.614592	-0.000129	20.799534
2603.724230	-2.994700	3.017000	-9.033600	27.590584	-0.000130	20.814257
2604.722631	-2.991000	3.013000	-9.010900	27.600198	-0.000128	20.807336
2605.724253	-3.017900	3.011200	-9.086500	27.612793	-0.000131	20.801043
2606.719973	-3.004100	3.010100	-9.041600	27.613509	-0.000128	20.812194
2607.718302	-3.009300	3.010200	-9.058300	27.611868	-0.000130	20.796794
2608.718794	-2.993300	3.006800	-8.999300	27.620491	-0.000131	20.791245
2609.722503	-3.026300	3.006500	-9.098000	27.632394	-0.000132	20.803222
2610.717073	-2.968100	3.007000	-8.923900	27.614959	-0.000129	20.809860
2611.725267	-3.014300	3.004100	-9.054300	27.628220	-0.000127	20.791910
2612.715550	-3.030800	3.002100	-9.097400	27.643648	-0.000129	20.815020
2613.723766	-3.013100	3.000000	-9.037900	27.650508	-0.000129	20.806276
2614.730440	-3.000600	3.000400	-9.001900	27.647210	-0.000130	20.806276
2615.715675	-2.994800	2.999200	-8.980800	27.644951	-0.000130	20.816332
2616.712411	-3.023200	2.996000	-9.056500	27.666945	-0.000130	20.783461
2617.713377	-3.001700	2.995300	-8.989100	27.671480	-0.000131	20.789921
2618.714204	-3.026300	2.994800	-9.061000	27.672269	-0.000129	20.799250
2619.714060	-3.003700	2.993200	-8.989700	27.686081	-0.000130	20.789440
2620.723549	-3.002500	2.991800	-8.982300	27.671792	-0.000130	20.787864
2621.711847	-3.036700	2.987900	-9.072800	27.689073	-0.000129	20.819478
2622.719435	-2.977000	2.988300	-8.895400	27.679147	-0.000133	20.794317
2623.719777	-3.041500	2.985500	-9.079400	27.671057	-0.000131	20.781435
2624.719657	-2.989200	2.985800	-8.924400	27.681846	-0.000130	20.791817
2625.716398	-3.031600	2.982800	-9.041300	27.696911	-0.000130	20.795123
2626.722878	-3.001800	2.981800	-8.950300	27.669288	-0.000130	20.800518
2627.721580	-2.997800	2.981700	-8.938000	27.715533	-0.000131	20.791102
2628.732293	-3.008500	2.979400	-8.962100	27.687084	-0.000129	20.789975
2629.720355	-3.009900	2.977600	-8.961200	27.703055	-0.000131	20.792771
2630.723676	-3.013100	2.976800	-8.968700	27.710043	-0.000129	20.788423
2631.750614	-3.010400	2.975200	-8.955500	27.708397	-0.000129	20.790560
2632.717141	-2.973800	2.975300	-8.846600	27.729031	-0.000130	20.804686
2633.734162	-2.985800	2.972100	-8.873300	27.683669	-0.000132	20.804083
2634.720716	-2.985000	2.971100	-8.867600	27.693142	-0.000129	20.783743
2635.728624	-2.996700	2.969400	-8.897900	27.709027	-0.000130	20.806841
2636.726429	-2.998400	2.968500	-8.900300	27.720287	-0.000130	20.792093
2637.725667	-2.984900	2.966000	-8.852300	27.703465	-0.000128	20.803140
2638.732620	-2.988600	2.964800	-8.860100	27.695008	-0.000131	20.793208
2639.730430	-3.007100	2.963600	-8.909900	27.731607	-0.000131	20.778355
2640.726218	-3.018800	2.960900	-8.937500	27.734508	-0.000132	20.775110
2641.728418	-2.975000	2.960300	-8.805000	27.740927	-0.000130	20.799587
2642.726357	-2.975600	2.960300	-8.807600	27.728272	-0.000130	20.795388
2643.723086	-3.003800	2.956100	-8.878600	27.748068	-0.000132	20.789230
2644.728518	-3.004400	2.956800	-8.882300	27.746728	-0.000130	20.790252
2645.724975	-3.040900	2.954000	-8.982500	27.727201	-0.000131	20.802370
2646.737278	-3.025600	2.952000	-8.929900	27.755894	-0.000130	20.785726
2647.726698	-2.996400	2.950900	-8.841300	27.774789	-0.000130	20.780085
2648.726142	-3.007500	2.949600	-8.870500	27.756885	-0.000132	20.787672
2649.719344	-2.988700	2.947700	-8.809800	27.762661	-0.000130	20.796804
2650.720076	-3.005200	2.945700	-8.850800	27.776398	-0.000130	20.790714
2651.744785	-3.014000	2.944500	-8.873300	27.785075	-0.000132	20.794230
2652.727094	-2.980500	2.943500	-8.772000	27.760373	-0.000133	20.765577
2653.738242	-3.016000	2.939800	-8.865100	27.785840	-0.000133	20.772240
2654.746211	-3.019300	2.938500	-8.871200	27.751298	-0.000130	20.783946
2655.726398	-3.010300	2.938500	-8.844800	27.773498	-0.000133	20.785898
2656.740645	-2.975100	2.937700	-8.738600	27.768750	-0.000132	20.765472
2657.729973	-2.995000	2.935600	-8.791500	27.759131	-0.000134	20.780448
2658.737496	-3.014800	2.933600	-8.842800	27.778405	-0.000130	20.779931
2659.727221	-2.984400	2.932400	-8.750800	27.775976	-0.000131	20.769900
2660.733951	-3.014800	2.930700	-8.834400	27.768536	-0.000132	20.769998
2661.724254	-3.006800	2.928400	-8.803900	27.781355	-0.000131	20.779106
2662.733909	-3.013500	2.926800	-8.818500	27.800874	-0.000133	20.785947
2663.732090	-2.977000	2.926900	-8.712700	27.807323	-0.000133	20.774894
2664.734221	-3.002800	2.924300	-8.779600	27.805757	-0.000132	20.776637
2665.734957	-3.025600	2.921300	-8.837500	27.790668	-0.000133	20.768090
2666.735458	-2.995600	2.921800	-8.751100	27.776478	-0.000131	20.776095
2667.733766	-3.021600	2.918400	-8.817500	27.788159	-0.000132	20.763194
2668.748409	-3.014600	2.916000	-8.788300	27.769264	-0.000133	20.774525
2669.753292	-3.002800	2.914800	-8.750800	27.768175	-0.000130	20.773903
2670.737280	-3.009600	2.913400	-8.767100	27.779801	-0.000131	20.769955
2671.733725	-3.011700	2.910100	-8.762700	27.792822	-0.000133	20.768835
2672.728710	-3.019100	2.910300	-8.785300	27.800311	-0.000131	20.783959
2673.737116	-3.027500	2.906500	-8.797700	27.802795	-0.000133	20.776027
2674.731805	-3.012000	2.906000	-8.751600	27.812536	-0.000131	20.751216
2675.725872	-3.014100	2.903900	-8.751500	27.809042	-0.000131	20.773779
2676.727862	-3.017200	2.902400	-8.756300	27.829821	-0.000133	20.758181
2677.727019	-2.992800	2.900200	-8.677800	27.843209	-0.000134	20.773077
2678.729465	-2.993300	2.899100	-8.677200	27.859233	-0.000133	20.764549
2679.733637	-3.009200	2.897000	-8.717000	27.845197	-0.000132	20.765121
2680.739843	-2.993400	2.895800	-8.667600	27.853800	-0.000132	20.760029
2681.734982	-3.010700	2.892500	-8.706200	27.841728	-0.000134	20.758785
2682.746456	-2.994000	2.892500	-8.658800	27.834435	-0.000132	20.751919
2683.729422	-2.976300	2.890000	-8.600100	27.859435	-0.000133	20.751475
2684.749145	-2.994000	2.887500	-8.643600	27.850631	-0.000132	20.743562
2685.735857	-3.014600	2.886000	-8.699000	27.847431	-0.000132	20.758360
2686.734338	-2.975800	2.884300	-8.582200	27.865284	-0.000133	20.736024
2687.740258	-2.991700	2.882000	-8.620900	27.882569	-0.000133	20.757215
2688.726386	-3.013500	2.879100	-8.674800	27.874902	-0.000134	20.774155
2689.747329	-2.998200	2.878100	-8.628000	27.868062	-0.000131	20.737398
2690.731879	-3.005600	2.875300	-8.641000	27.889360	-0.000133	20.766895
2691.736371	-3.024400	2.872000	-8.684400	27.908871	-0.000130	20.747177
2692.734588	-3.020100	2.871800	-8.672500	27.905702	-0.000134	20.749677
2693.734207	-3.004100	2.870400	-8.621900	27.885762	-0.000133	20.751894
2694.750156	-2.996300	2.868000	-8.592400	27.892009	-0.000134	20.765768
2695.743912	-3.027600	2.864800	-8.671900	27.890871	-0.000132	20.757984
2696.741870	-2.976400	2.862900	-8.519700	27.931857	-0.000132	20.752294
2697.737593	-3.025400	2.860200	-8.652900	27.909544	-0.000132	20.726042
2698.738451	-2.989000	2.860300	-8.547800	27.912988	-0.000132	20.732828
2699.740341	-3.026000	2.856900	-8.644000	27.913239	-0.000131	20.750151
2700.750316	-2.987900	2.856400	-8.533100	27.913508	-0.000131	20.743310
2701.735286	-3.013700	2.853000	-8.596400	27.944949	-0.000131	20.749351
2702.742996	-3.027900	2.850500	-8.630000	27.933661	-0.000132	20.742731
2703.739767	-2.970800	2.849800	-8.465000	27.963664	-0.000132	20.733099
2704.740668	-2.998100	2.846300	-8.531800	27.965175	-0.000130	20.746949
2705.745203	-2.972400	2.846000	-8.457500	27.961706	-0.000131	20.736819
2706.740129	-3.007300	2.840800	-8.542600	27.952211	-0.000131	20.750970
2707.744793	-3.022700	2.840100	-8.584300	27.969170	-0.000133	20.739116
2708.740299	-3.019200	2.837100	-8.564700	27.969390	-0.000133	20.745976
2709.752101	-3.007300	2.835700	-8.526000	27.993983	-0.000133	20.729004
2710.751133	-2.981700	2.834100	-8.448400	27.988061	-0.000131	20.723043
2711.748708	-3.029900	2.830100	-8.574300	27.995194	-0.000132	20.728801
2712.747082	-3.012800	2.829100	-8.521900	28.005313	-0.000132	20.739935
2713.736969	-2.991100	2.826400	-8.453400	27.990533	-0.000133	20.724582
2714.752925	-3.000900	2.824600	-8.475800	27.990906	-0.000133	20.729700
2715.761518	-2.979900	2.821800	-8.407500	28.001349	-0.000135	20.740686
2716.746210	-2.973800	2.820700	-8.387000	28.015328	-0.000132	20.737213
2717.742952	-2.985500	2.818400	-8.413200	28.011957	-0.000131	20.747571
2718.753188	-3.026700	2.813700	-8.515100	28.044153	-0.000131	20.732563
2719.739854	-2.985100	2.812900	-8.395700	28.041529	-0.000132	20.714748
2720.744645	-3.013300	2.809000	-8.463600	28.049958	-0.000133	20.736037
2721.742912	-3.006900	2.807900	-8.441700	28.053433	-0.000132	20.719145
2722.751208	-2.998600	2.805800	-8.412500	28.043541	-0.000132	20.753760
2723.747858	-3.016200	2.801900	-8.449800	28.044379	-0.000133	20.736585
2724.745155	-2.992100	2.800400	-8.378200	28.054968	-0.000132	20.735864
2725.754498	-3.016800	2.797200	-8.438200	28.061385	-0.000133	20.738531
2726.747563	-2.988400	2.796200	-8.355200	28.068977	-0.000135	20.736215
2727.751430	-2.992000	2.793500	-8.357200	28.063869	-0.000134	20.736763
2728.757210	-3.008700	2.788200	-8.387500	28.075792	-0.000131	20.725057
2729.750411	-2.992600	2.787400	-8.340300	28.057054	-0.000133	20.730852
2730.750611	-3.000300	2.785200	-8.355500	28.096345	-0.000130	20.741006
2731.750434	-2.989800	2.782100	-8.316800	28.097513	-0.000132	20.726060
2732.762402	-3.006600	2.778500	-8.352000	28.094461	-0.000132	20.722039
2733.765077	-2.997800	2.776200	-8.322200	28.104964	-0.000129	20.721707
2734.754050	-3.020900	2.772600	-8.374200	28.105735	-0.000131	20.738605
2735.747154	-2.997500	2.771300	-8.305900	28.119449	-0.000132	20.736763
2736.744428	-2.981400	2.769100	-8.255500	28.124581	-0.000132	20.739085
2737.751925	-3.001000	2.764000	-8.293900	28.135757	-0.000131	20.733266
2738.749584	-2.997900	2.763300	-8.283200	28.134912	-0.000131	20.728622
2739.759619	-3.010500	2.759400	-8.306500	28.142846	-0.000133	20.739929
2740.748885	-3.023500	2.755500	-8.329600	28.136943	-0.000132	20.746789
2741.752898	-2.999600	2.753000	-8.257400	28.156309	-0.000130	20.731196
2742.760589	-2.996700	2.750100	-8.240800	28.150058	-0.000131	20.727274
2743.759312	-2.994400	2.746000	-8.221600	28.165007	-0.000132	20.731418
2744.754187	-2.981900	2.743800	-8.181300	28.184140	-0.000133	20.727920
2745.750977	-3.030700	2.740300	-8.304000	28.152614	-0.000132	20.728899
2746.757649	-3.011000	2.737600	-8.242100	28.163667	-0.000130	20.743821
2747.760233	-3.001700	2.734200	-8.206600	28.158242	-0.000132	20.726030
2748.751466	-3.002000	2.730700	-8.197100	28.165582	-0.000134	20.711607
2749.752485	-3.019700	2.726800	-8.233400	28.165857	-0.000133	20.730377
2750.757662	-2.988000	2.722900	-8.135200	28.180598	-0.000132	20.715819
2751.758831	-2.983200	2.720900	-8.116000	28.196465	-0.000132	20.718042
2752.761677	-2.975900	2.717500	-8.086100	28.197951	-0.000132	20.720961
2753.759545	-2.978900	2.714000	-8.083700	28.197351	-0.000133	20.732687
2754.759069	-2.971000	2.710300	-8.049900	28.195529	-0.000133	20.735593
2755.760173	-3.014400	2.704700	-8.152100	28.206434	-0.000132	20.720968
2756.760784	-3.056000	2.701000	-8.252700	28.199290	-0.000132	20.743648
2757.752747	-2.998600	2.698100	-8.089400	28.227255	-0.000132	20.731024
2758.759499	-2.990500	2.693900	-8.055300	28.253285	-0.000131	20.731628
2759.758727	-2.970200	2.689600	-7.987700	28.245249	-0.000133	20.739658
2760.765384	-3.000500	2.685400	-8.056700	28.259230	-0.000133	20.727181
2761.767053	-2.995400	2.681100	-8.029400	28.260129	-0.000133	20.730457
2762.756696	-3.016600	2.677300	-8.075100	28.250062	-0.000131	20.742607
2763.759795	-2.996600	2.672200	-8.007400	28.255787	-0.000134	20.719447
2764.765373	-2.973300	2.669400	-7.936000	28.257524	-0.000130	20.748698
2765.762708	-2.981200	2.664000	-7.941100	28.257946	-0.000131	20.733475
2766.763535	-3.019100	2.658300	-8.024600	28.263817	-0.000132	20.734645
2767.763862	-3.010400	2.654200	-7.989000	28.272838	-0.000133	20.729503
2768.765996	-2.996800	2.651000	-7.943500	28.274422	-0.000132	20.723037
2769.763490	-3.022100	2.644600	-7.991600	28.303571	-0.000132	20.753809
2770.767982	-2.991800	2.640900	-7.899900	28.291749	-0.000130	20.730999
2771.761071	-3.027400	2.635000	-7.976600	28.310904	-0.000131	20.741277
2772.758250	-2.997900	2.629700	-7.882900	28.314696	-0.000133	20.735138
2773.760198	-3.002100	2.624700	-7.879100	28.342058	-0.000133	20.732816
2774.762051	-3.011400	2.620100	-7.889600	28.341984	-0.000131	20.726578
2775.764171	-2.967200	2.615600	-7.760000	28.358967	-0.000133	20.726609
2776.766227	-3.000600	2.609300	-7.828100	28.367291	-0.000132	20.755379
2777.762734	-3.034200	2.603800	-7.900100	28.372721	-0.000133	20.753735
2778.762616	-2.988200	2.599700	-7.767200	28.363725	-0.000132	20.742306
2779.759930	-3.007100	2.593800	-7.798300	28.373736	-0.000132	20.738635
2780.756425	-2.989900	2.587700	-7.736000	28.391061	-0.000133	20.751814
2781.773967	-3.000300	2.581700	-7.744300	28.370911	-0.000133	20.739110
2782.761404	-3.012200	2.575600	-7.756700	28.399892	-0.000134	20.753594
2783.763682	-3.004800	2.570100	-7.721500	28.383845	-0.000133	20.733167
2784.765181	-3.010800	2.563500	-7.717200	28.405659	-0.000132	20.747546
2785.766071	-2.998000	2.558900	-7.670500	28.437659	-0.000133	20.761753
2786.766514	-2.987800	2.551700	-7.622900	28.443138	-0.000132	20.753045
2787.763895	-3.006800	2.545600	-7.652900	28.464969	-0.000135	20.745631
2788.769029	-3.005800	2.540000	-7.633000	28.466229	-0.000132	20.740735
2789.772518	-2.973300	2.534600	-7.535600	28.471836	-0.000132	20.731683
2790.763810	-2.998500	2.526800	-7.575400	28.474863	-0.000132	20.725722
2791.767880	-3.003800	2.519600	-7.567600	28.497041	-0.000133	20.747109
2792.775576	-3.003800	2.513200	-7.548200	28.509210	-0.000133	20.755096
2793.783956	-2.993300	2.507400	-7.504600	28.508244	-0.000134	20.756494
2794.762670	-3.020400	2.499000	-7.547300	28.519800	-0.000130	20.761969
